sender,sender_type,sender_id,timestamp,meta,,Blues,Classical,Country,Dance,Electronic,Folk,Gospel,Hip-Hop,Jazz,Latin,Musical/Film,New-age,Pop,Prolific_id,Provo_ID,R&B,Rap,Reggae,Religious,Rock,Soul,Swing,Traditional,age,artist_name,correct,correctResponse,distraction,duration,education,ended_on,familiarity,gender,headphone_check_performance,item,list,music_frequency,offensiveness,pleasantness,position_correct,preference,response,response_action,snippet_file,song_name,song_rating,sound,stimulus_1,stimulus_2,stimulus_3,text,time_commit,time_end,time_render,time_run,time_show,time_switch,url,word,word_ID
Prolific ID,html.Form,0,2022-05-09T16:18:31.404Z,"{""labjs_version"":""20.2.2"",""labjs_build"":{""flavor"":""production"",""commit"":""a25486e0c714a0ae2ce03ff94b7bb6896854dcfa""},""location"":""https://run.pavlovia.org/mvasilev/prolific3_music_g/"",""userAgent"":""Mozilla/5.0 (Windows NT 10.0; Win64; x64) AppleWebKit/537.36 (KHTML, like Gecko) Chrome/101.0.4951.54 Safari/537.36"",""platform"":""Win32"",""language"":""en-GB"",""locale"":""en-GB"",""timeZone"":""Europe/London"",""timezoneOffset"":-60,""screen_width"":1536,""screen_height"":864,""scroll_width"":1536,""scroll_height"":666,""window_innerWidth"":1536,""window_innerHeight"":714,""devicePixelRatio"":1.25}",,,,,,,,,,,,,,,5c1575e62a407b0001ff2a4c,,,,,,,,,,,,,,,3308.966000011922,,form submission,,,,,,,,,,,,,,,,,,,,,23214.20000000298,23213.30000001192,19865.329,19878.20000000298,19904.334,23228.705,{},,
Introduction,html.Screen,1_0,2022-05-09T16:18:35.155Z,,,,,,,,,,,,,,,,,,,,,,,,,,,,,,,3731.6950000059587,,response,,,,,,,,,,,continue,click button,,,,,,,,,26965.20000000298,26960.40000000596,23211.72,23214.90000000596,23228.705,26977.302,,,
Volume calibration,html.Screen,1_1,2022-05-09T16:18:53.088Z,,,,,,,,,,,,,,,,,,,,,,,,,,,,,,,17915.09800000596,,response,,,,,,,,,,,continue,click button,,,,,,,,,44898.30000001192,44892.40000000596,26960.899,26965.80000001192,26977.302,44905.385,,,
Task instructions,html.Screen,1_2,2022-05-09T16:18:59.027Z,,,,,,,,,,,,,,,,,,,,,,,,,,,,,,,5930.715000008939,,response,,,,,,,,,,,continue,click button,,,,,,,,,50837.70000000298,50836.10000000894,44889.161,44898.40000000596,44905.385,50853.613,,,
Sounds,html.Screen,1_3_0_0,2022-05-09T16:19:03.280Z,,,,,,,,,,,,,,,,,,,,,,,,,,,,,,,4248.748,,timeout,,,,,,,,,1,,,,,,,,S,O,I,,55090.70000000298,55086.068,50836.978,50838.20000000298,50853.613,55102.361,,,
Judgement,html.Screen,1_3_0_1,2022-05-09T16:19:04.452Z,,,,,,,,,,,,,,,,,,,,,,,,,,,,true,1,,1158.0390000059633,,response,,,,,,,,,1,,1,click #choice-1,,,,,S,O,I,,56262.20000000298,56260.40000000596,55086.068,55090.90000000596,55102.361,56268.754,,,
Trial,flow.Sequence,1_3_0,2022-05-09T16:19:04.452Z,,,,,,,,,,,,,,,,,,,,,,,,,,,,,,,5406.787000005963,,completion,,,,,,,,,1,,,,,,,,S,O,I,,56262.70000000298,56260.40000000596,50836.978,50838.10000000894,50853.613,56268.754,,,
Sounds,html.Screen,1_3_1_0,2022-05-09T16:19:08.692Z,,,,,,,,,,,,,,,,,,,,,,,,,,,,,,,4248.767,,timeout,,,,,,,,,3,,,,,,,,O,I,S,,60502.30000001192,60500.943,56252.273,56263,56268.754,60517.521,,,
Judgement,html.Screen,1_3_1_1,2022-05-09T16:19:09.268Z,,,,,,,,,,,,,,,,,,,,,,,,,,,,true,3,,559.07900000894,,response,,,,,,,,,3,,3,click #choice-3,,,,,O,I,S,,61078.40000000596,61076.60000000894,60500.943,60502.60000000894,60517.521,61084.011,,,
Trial,flow.Sequence,1_3_1,2022-05-09T16:19:09.269Z,,,,,,,,,,,,,,,,,,,,,,,,,,,,,,,4807.84600000894,,completion,,,,,,,,,3,,,,,,,,O,I,S,,61079.20000000298,61076.60000000894,56252.273,56262.90000000596,56268.754,61084.011,,,
Sounds,html.Screen,1_3_2_0,2022-05-09T16:19:13.507Z,,,,,,,,,,,,,,,,,,,,,,,,,,,,,,,4248.863000000005,,timeout,,,,,,,,,1,,,,,,,,S,I,O,,65317.80000001192,65316.191,61067.303,61079.5,61084.011,65332.874,,,
Judgement,html.Screen,1_3_2_1,2022-05-09T16:19:14.062Z,,,,,,,,,,,,,,,,,,,,,,,,,,,,true,1,,538.3260000029768,,response,,,,,,,,,1,,1,click #choice-1,,,,,S,I,O,,65872.80000001192,65871.20000000298,65316.191,65318.10000000894,65332.874,65882.663,,,
Trial,flow.Sequence,1_3_2,2022-05-09T16:19:14.063Z,,,,,,,,,,,,,,,,,,,,,,,,,,,,,,,4787.189000002982,,completion,,,,,,,,,1,,,,,,,,S,I,O,,65873.30000001192,65871.20000000298,61067.303,61079.40000000596,61084.011,65882.663,,,
Sounds,html.Screen,1_3_3_0,2022-05-09T16:19:18.306Z,,,,,,,,,,,,,,,,,,,,,,,,,,,,,,,4248.740000000005,,timeout,,,,,,,,,2,,,,,,,,I,S,O,,70116.30000001192,70114.935,65866.003,65873.5,65882.663,70131.403,,,
Judgement,html.Screen,1_3_3_1,2022-05-09T16:19:18.781Z,,,,,,,,,,,,,,,,,,,,,,,,,,,,true,2,,458.697000008935,,response,,,,,,,,,2,,2,click #choice-2,,,,,I,S,O,,70591.70000000298,70590.10000000894,70114.935,70116.60000000894,70131.403,70597.948,,,
Trial,flow.Sequence,1_3_3,2022-05-09T16:19:18.782Z,,,,,,,,,,,,,,,,,,,,,,,,,,,,,,,4707.43700000894,,completion,,,,,,,,,2,,,,,,,,I,S,O,,70592,70590.10000000894,65866.003,65873.5,65882.663,70597.948,,,
Sounds,html.Screen,1_3_4_0,2022-05-09T16:19:23.021Z,,,,,,,,,,,,,,,,,,,,,,,,,,,,,,,4248.861999999994,,timeout,,,,,,,,,3,,,,,,,,I,O,S,,74831.5,74830.047,70581.215,70592.30000001192,70597.948,74846.81,,,
Judgement,html.Screen,1_3_4_1,2022-05-09T16:19:23.560Z,,,,,,,,,,,,,,,,,,,,,,,,,,,,true,3,,521.6900000000023,,response,,,,,,,,,3,,3,click #choice-3,,,,,I,O,S,,75370,75368.5,74830.047,74831.80000001192,74846.81,75379.841,,,
Trial,flow.Sequence,1_3_4,2022-05-09T16:19:23.560Z,,,,,,,,,,,,,,,,,,,,,,,,,,,,,,,4770.551999999996,,completion,,,,,,,,,3,,,,,,,,I,O,S,,75370.40000000596,75368.5,70581.215,70592.20000000298,70597.948,75379.841,,,
Sounds,html.Screen,1_3_5_0,2022-05-09T16:19:27.803Z,,,,,,,,,,,,,,,,,,,,,,,,,,,,,,,4248.979000000007,,timeout,,,,,,,,,2,,,,,,,,O,S,I,,79613.5,79612.002,75363.409,75370.60000000894,75379.841,79628.82,,,
Judgement,html.Screen,1_3_5_1,2022-05-09T16:19:28.240Z,,,,,,,,,,,,,,,,,,,,,,,,,,,,true,2,,419.5800000059535,,response,,,,,,,,,2,,2,click #choice-2,,,,,O,S,I,,80050,80048.40000000596,79612.002,79613.70000000298,79628.82,80061.912,,,
Trial,flow.Sequence,1_3_5,2022-05-09T16:19:28.240Z,,,,,,,,,,,,,,,,,,,,,,,,,,,,,,,4668.55900000596,,completion,,,,,,,,,2,,,,,,,,O,S,I,,80050.40000000596,80048.40000000596,75363.409,75370.5,75379.841,80061.912,,,
Task,flow.Loop,1_3,2022-05-09T16:19:28.249Z,,,,,,,,,,,,,,,,,,,,,,,,,,,,,,,29194.787000005963,,completion,,,1,,,,,,,,,,,,,,,,,,80059.30000001192,80048.40000000596,50836.978,50838.10000000894,50853.613,80061.912,,,
Trap,html.Screen,1_4,2022-05-09T16:19:28.251Z,,,,,,,,,,,,,,,,,,,,,,,,,,,,,,,NaN,,skipped,,,,,,,,,,,,,,,,,,,,,80061.60000000894,80048.40000000596,,80061.40000000596,,80061.912,,,
Thanks,html.Screen,1_5,2022-05-09T16:19:30.468Z,,,,,,,,,,,,,,,,,,,,,,,,,,,,,,,2214.5880000000034,,response,,,,,,,,,,,continue,click button,,,,,,,,,82278.30000001192,82276.5,80045.211,80061.90000000596,80061.912,84110.769,,,
Headphone screening,flow.Sequence,1,2022-05-09T16:19:30.468Z,,,,,,,,,,,,,,,,,,,,,,,,,,,,,,,59047.795,,completion,,,,,,,,,,,,,,,,,,,,,82278.90000000596,82276.5,23211.72,23214.80000001192,23228.705,84110.769,,,
Instructions,html.Page,2_0,2022-05-09T16:19:44.099Z,,,,,,,,,,,,,,,,,,,,,,,,,,,,,,,11797.63100000596,,form submission,,,,,,,,,,,,,,,,,,,,,95908.90000000596,95908.40000000596,84096.221,84112.90000000596,84110.769,95924.756,,,
Holding screen,html.Screen,2_1_0_0,2022-05-09T16:19:54.095Z,,,,,,,,,,,,,,,,,,,,,,,,,,,,,,,10012.800000000003,,timeout,,,,,,,,,,,,,,,,,,,,,105905.5,105904.489,95907.402,95909.60000000894,95924.756,105937.556,,,
screen,html.Screen,2_1_0_1_0,2022-05-09T16:19:55.295Z,,,,,,,,,,,,,,,,,53,,,,,,,,,,,,,,1162.744000011924,,response,,,,99,,,,,,,Space,keypress(Space),,,,,,,,When -- ----- -- ------ - ------- --- ----------<br>------------- ------ ------ ---- ---- ------- ----- -- ----<br>-------- ------- -- ---------- --- - --- ----- ----- ----<br>---- --- --- ----- --- ---- ---- ------- ----- ---- -------<br>--- --- -- ----- -- --- ---- -- --- ---- -- ------ ------<br>--- ----- -- ----,107104.70000000298,107100.30000001192,105904.489,105906,105937.556,107120.68,,0,When
screen,html.Screen,2_1_0_1_1,2022-05-09T16:19:56.445Z,,,,,,,,,,,,,,,,,53,,,,,,,,,,,,,,1133.7200000059674,,response,,,,99,,,,,,,Space,keypress(Space),,,,,,,,---- it ----- -- ------ - ------- --- ----------<br>------------- ------ ------ ---- ---- ------- ----- -- ----<br>-------- ------- -- ---------- --- - --- ----- ----- ----<br>---- --- --- ----- --- ---- ---- ------- ----- ---- -------<br>--- --- -- ----- -- --- ---- -- --- ---- -- ------ ------<br>--- ----- -- ----,108255.5,108254.40000000596,107103.361,107104.90000000596,107120.68,108270.598,,1,it
screen,html.Screen,2_1_0_1_2,2022-05-09T16:19:57.057Z,,,,,,,,,,,,,,,,,53,,,,,,,,,,,,,,595.9020000000019,,response,,,,99,,,,,,,Space,keypress(Space),,,,,,,,---- -- comes -- ------ - ------- --- ----------<br>------------- ------ ------ ---- ---- ------- ----- -- ----<br>-------- ------- -- ---------- --- - --- ----- ----- ----<br>---- --- --- ----- --- ---- ---- ------- ----- ---- -------<br>--- --- -- ----- -- --- ---- -- --- ---- -- ------ ------<br>--- ----- -- ----,108867.5,108866.5,108252.798,108256,108270.598,108870.039,,2,comes
screen,html.Screen,2_1_0_1_3,2022-05-09T16:19:57.512Z,,,,,,,,,,,,,,,,,53,,,,,,,,,,,,,,450.86100000595616,,response,,,,99,,,,,,,Space,keypress(Space),,,,,,,,---- -- ----- to ------ - ------- --- ----------<br>------------- ------ ------ ---- ---- ------- ----- -- ----<br>-------- ------- -- ---------- --- - --- ----- ----- ----<br>---- --- --- ----- --- ---- ---- ------- ----- ---- -------<br>--- --- -- ----- -- --- ---- -- --- ---- -- ------ ------<br>--- ----- -- ----,109322,109320.90000000596,108861.586,108867.80000001192,108870.039,109336.568,,3,to
screen,html.Screen,2_1_0_1_4,2022-05-09T16:19:57.994Z,,,,,,,,,,,,,,,,,53,,,,,,,,,,,,,,466.33200000596116,,response,,,,99,,,,,,,Space,keypress(Space),,,,,,,,---- -- ----- -- having - ------- --- ----------<br>------------- ------ ------ ---- ---- ------- ----- -- ----<br>-------- ------- -- ---------- --- - --- ----- ----- ----<br>---- --- --- ----- --- ---- ---- ------- ----- ---- -------<br>--- --- -- ----- -- --- ---- -- --- ---- -- ------ ------<br>--- ----- -- ----,109804,109802.90000000596,109309.265,109322.20000000298,109336.568,109819.856,,4,having
screen,html.Screen,2_1_0_1_5,2022-05-09T16:19:58.490Z,,,,,,,,,,,,,,,,,53,,,,,,,,,,,,,,479.5440000059607,,response,,,,99,,,,,,,Space,keypress(Space),,,,,,,,---- -- ----- -- ------ a ------- --- ----------<br>------------- ------ ------ ---- ---- ------- ----- -- ----<br>-------- ------- -- ---------- --- - --- ----- ----- ----<br>---- --- --- ----- --- ---- ---- ------- ----- ---- -------<br>--- --- -- ----- -- --- ---- -- --- ---- -- ------ ------<br>--- ----- -- ----,110300.5,110299.40000000596,109792.455,109804.20000000298,109819.856,110302.972,,5,a
screen,html.Screen,2_1_0_1_6,2022-05-09T16:19:59.061Z,,,,,,,,,,,,,,,,,53,,,,,,,,,,,,,,566.5280000000057,,response,,,,99,,,,,,,Space,keypress(Space),,,,,,,,---- -- ----- -- ------ - lasting --- ----------<br>------------- ------ ------ ---- ---- ------- ----- -- ----<br>-------- ------- -- ---------- --- - --- ----- ----- ----<br>---- --- --- ----- --- ---- ---- ------- ----- ---- -------<br>--- --- -- ----- -- --- ---- -- --- ---- -- ------ ------<br>--- ----- -- ----,110870.60000000894,110869.5,110292.542,110300.70000000298,110302.972,110886.219,,6,lasting
screen,html.Screen,2_1_0_1_7,2022-05-09T16:19:59.619Z,,,,,,,,,,,,,,,,,53,,,,,,,,,,,,,,541.9810000029829,,response,,,,99,,,,,,,Space,keypress(Space),,,,,,,,---- -- ----- -- ------ - ------- and ----------<br>------------- ------ ------ ---- ---- ------- ----- -- ----<br>-------- ------- -- ---------- --- - --- ----- ----- ----<br>---- --- --- ----- --- ---- ---- ------- ----- ---- -------<br>--- --- -- ----- -- --- ---- -- --- ---- -- ------ ------<br>--- ----- -- ----,111429.60000000894,111428.20000000298,110860.273,110870.90000000596,110886.219,111436.049,,7,and
screen,html.Screen,2_1_0_1_8,2022-05-09T16:20:00.143Z,,,,,,,,,,,,,,,,,53,,,,,,,,,,,,,,516.4510000000009,,response,,,,99,,,,,,,Space,keypress(Space),,,,,,,,---- -- ----- -- ------ - ------- --- fulfilling<br>------------- ------ ------ ---- ---- ------- ----- -- ----<br>-------- ------- -- ---------- --- - --- ----- ----- ----<br>---- --- --- ----- --- ---- ---- ------- ----- ---- -------<br>--- --- -- ----- -- --- ---- -- --- ---- -- ------ ------<br>--- ----- -- ----,111953.60000000894,111952.5,111426.634,111429.90000000596,111436.049,111969.356,,8,fulfilling
screen,html.Screen,2_1_0_1_9,2022-05-09T16:20:00.842Z,,,,,,,,,,,,,,,,,53,,,,,,,,,,,,,,681.4440000119212,,response,,,,99,,,,,,,Space,keypress(Space),,,,,,,,"---- -- ----- -- ------ - ------- --- ----------<br>relationship, ------ ------ ---- ---- ------- ----- -- ----<br>-------- ------- -- ---------- --- - --- ----- ----- ----<br>---- --- --- ----- --- ---- ---- ------- ----- ---- -------<br>--- --- -- ----- -- --- ---- -- --- ---- -- ------ ------<br>--- ----- -- ----",112651.90000000596,112650.80000001192,111942.567,111953.90000000596,111969.356,112668.998,,9,"relationship,"
screen,html.Screen,2_1_0_1_10,2022-05-09T16:20:01.399Z,,,,,,,,,,,,,,,,,53,,,,,,,,,,,,,,539.0019999999931,,response,,,,99,,,,,,,Space,keypress(Space),,,,,,,,---- -- ----- -- ------ - ------- --- ----------<br>------------- common ------ ---- ---- ------- ----- -- ----<br>-------- ------- -- ---------- --- - --- ----- ----- ----<br>---- --- --- ----- --- ---- ---- ------- ----- ---- -------<br>--- --- -- ----- -- --- ---- -- --- ---- -- ------ ------<br>--- ----- -- ----,113209.40000000596,113208,112644.713,112652.10000000894,112668.998,113218.881,,10,common
screen,html.Screen,2_1_0_1_11,2022-05-09T16:20:01.896Z,,,,,,,,,,,,,,,,,53,,,,,,,,,,,,,,485.919000011927,,response,,,,99,,,,,,,Space,keypress(Space),,,,,,,,---- -- ----- -- ------ - ------- --- ----------<br>------------- ------ wisdom ---- ---- ------- ----- -- ----<br>-------- ------- -- ---------- --- - --- ----- ----- ----<br>---- --- --- ----- --- ---- ---- ------- ----- ---- -------<br>--- --- -- ----- -- --- ---- -- --- ---- -- ------ ------<br>--- ----- -- ----,113706.10000000894,113704.80000001192,113209.362,113209.70000000298,113218.881,113718.731,,11,wisdom
screen,html.Screen,2_1_0_1_12,2022-05-09T16:20:02.338Z,,,,,,,,,,,,,,,,,53,,,,,,,,,,,,,,428.76900000000023,,response,,,,99,,,,,,,Space,keypress(Space),,,,,,,,---- -- ----- -- ------ - ------- --- ----------<br>------------- ------ ------ says ---- ------- ----- -- ----<br>-------- ------- -- ---------- --- - --- ----- ----- ----<br>---- --- --- ----- --- ---- ---- ------- ----- ---- -------<br>--- --- -- ----- -- --- ---- -- --- ---- -- ------ ------<br>--- ----- -- ----,114148.60000000894,114147.5,113691.575,113706.40000000596,113718.731,114151.811,,12,says
screen,html.Screen,2_1_0_1_13,2022-05-09T16:20:02.761Z,,,,,,,,,,,,,,,,,53,,,,,,,,,,,,,,417.9890000119194,,response,,,,99,,,,,,,Space,keypress(Space),,,,,,,,---- -- ----- -- ------ - ------- --- ----------<br>------------- ------ ------ ---- that ------- ----- -- ----<br>-------- ------- -- ---------- --- - --- ----- ----- ----<br>---- --- --- ----- --- ---- ---- ------- ----- ---- -------<br>--- --- -- ----- -- --- ---- -- --- ---- -- ------ ------<br>--- ----- -- ----,114570.70000000298,114569.80000001192,114140.947,114149,114151.811,114585.233,,13,that
screen,html.Screen,2_1_0_1_14,2022-05-09T16:20:03.118Z,,,,,,,,,,,,,,,,,53,,,,,,,,,,,,,,341.8670000089478,,response,,,,99,,,,,,,Space,keypress(Space),,,,,,,,---- -- ----- -- ------ - ------- --- ----------<br>------------- ------ ------ ---- ---- feeling ----- -- ----<br>-------- ------- -- ---------- --- - --- ----- ----- ----<br>---- --- --- ----- --- ---- ---- ------- ----- ---- -------<br>--- --- -- ----- -- --- ---- -- --- ---- -- ------ ------<br>--- ----- -- ----,114928.20000000298,114927.10000000894,114557.056,114571,114585.233,114935.038,,14,feeling
screen,html.Screen,2_1_0_1_15,2022-05-09T16:20:03.471Z,,,,,,,,,,,,,,,,,53,,,,,,,,,,,,,,344.76200001192046,,response,,,,99,,,,,,,Space,keypress(Space),,,,,,,,---- -- ----- -- ------ - ------- --- ----------<br>------------- ------ ------ ---- ---- ------- close -- ----<br>-------- ------- -- ---------- --- - --- ----- ----- ----<br>---- --- --- ----- --- ---- ---- ------- ----- ---- -------<br>--- --- -- ----- -- --- ---- -- --- ---- -- ------ ------<br>--- ----- -- ----,115281,115279.80000001192,114922.657,114928.60000000894,114935.038,115284.85,,15,close
screen,html.Screen,2_1_0_1_16,2022-05-09T16:20:03.822Z,,,,,,,,,,,,,,,,,53,,,,,,,,,,,,,,346.4500000119151,,response,,,,99,,,,,,,Space,keypress(Space),,,,,,,,---- -- ----- -- ------ - ------- --- ----------<br>------------- ------ ------ ---- ---- ------- ----- to ----<br>-------- ------- -- ---------- --- - --- ----- ----- ----<br>---- --- --- ----- --- ---- ---- ------- ----- ---- -------<br>--- --- -- ----- -- --- ---- -- --- ---- -- ------ ------<br>--- ----- -- ----,115632.30000001192,115631.30000001192,115272.553,115281.20000000298,115284.85,115634.871,,16,to
screen,html.Screen,2_1_0_1_17,2022-05-09T16:20:04.276Z,,,,,,,,,,,,,,,,,53,,,,,,,,,,,,,,450.0290000059613,,response,,,,99,,,,,,,Space,keypress(Space),,,,,,,,---- -- ----- -- ------ - ------- --- ----------<br>------------- ------ ------ ---- ---- ------- ----- -- your<br>-------- ------- -- ---------- --- - --- ----- ----- ----<br>---- --- --- ----- --- ---- ---- ------- ----- ---- -------<br>--- --- -- ----- -- --- ---- -- --- ---- -- ------ ------<br>--- ----- -- ----,116086.20000000298,116084.90000000596,115622.444,115632.5,115634.871,116101.403,,17,your
screen,html.Screen,2_1_0_1_18,2022-05-09T16:20:04.694Z,,,,,,,,,,,,,,,,,53,,,,,,,,,,,,,,401.8970000119152,,response,,,,99,,,,,,,Space,keypress(Space),,,,,,,,---- -- ----- -- ------ - ------- --- ----------<br>------------- ------ ------ ---- ---- ------- ----- -- ----<br>romantic ------- -- ---------- --- - --- ----- ----- ----<br>---- --- --- ----- --- ---- ---- ------- ----- ---- -------<br>--- --- -- ----- -- --- ---- -- --- ---- -- ------ ------<br>--- ----- -- ----,116504.30000001192,116503.30000001192,116073.755,116086.40000000596,116101.403,116517.922,,18,romantic
screen,html.Screen,2_1_0_1_19,2022-05-09T16:20:05.067Z,,,,,,,,,,,,,,,,,53,,,,,,,,,,,,,,357.9780000059545,,response,,,,99,,,,,,,Space,keypress(Space),,,,,,,,---- -- ----- -- ------ - ------- --- ----------<br>------------- ------ ------ ---- ---- ------- ----- -- ----<br>-------- partner -- ---------- --- - --- ----- ----- ----<br>---- --- --- ----- --- ---- ---- ------- ----- ---- -------<br>--- --- -- ----- -- --- ---- -- --- ---- -- ------ ------<br>--- ----- -- ----,116877,116875.90000000596,116489.588,116504.5,116517.922,116884.348,,19,partner
screen,html.Screen,2_1_0_1_20,2022-05-09T16:20:05.405Z,,,,,,,,,,,,,,,,,53,,,,,,,,,,,,,,329.25200000894256,,response,,,,99,,,,,,,Space,keypress(Space),,,,,,,,---- -- ----- -- ------ - ------- --- ----------<br>------------- ------ ------ ---- ---- ------- ----- -- ----<br>-------- ------- is ---------- --- - --- ----- ----- ----<br>---- --- --- ----- --- ---- ---- ------- ----- ---- -------<br>--- --- -- ----- -- --- ---- -- --- ---- -- ------ ------<br>--- ----- -- ----,117214.60000000894,117213.60000000894,116872.309,116877.10000000894,116884.348,117217.578,,20,is
screen,html.Screen,2_1_0_1_21,2022-05-09T16:20:05.785Z,,,,,,,,,,,,,,,,,53,,,,,,,,,,,,,,376.12200000298617,,response,,,,99,,,,,,,Space,keypress(Space),,,,,,,,---- -- ----- -- ------ - ------- --- ----------<br>------------- ------ ------ ---- ---- ------- ----- -- ----<br>-------- ------- -- paramount. --- - --- ----- ----- ----<br>---- --- --- ----- --- ---- ---- ------- ----- ---- -------<br>--- --- -- ----- -- --- ---- -- --- ---- -- ------ ------<br>--- ----- -- ----,117594.80000001192,117593.70000000298,117205.197,117215,117217.578,117600.903,,21,paramount.
screen,html.Screen,2_1_0_1_22,2022-05-09T16:20:06.234Z,,,,,,,,,,,,,,,,,53,,,,,,,,,,,,,,441.99700000595476,,response,,,,99,,,,,,,Space,keypress(Space),,,,,,,,---- -- ----- -- ------ - ------- --- ----------<br>------------- ------ ------ ---- ---- ------- ----- -- ----<br>-------- ------- -- ---------- But - --- ----- ----- ----<br>---- --- --- ----- --- ---- ---- ------- ----- ---- -------<br>--- --- -- ----- -- --- ---- -- --- ---- -- ------ ------<br>--- ----- -- ----,118044,118042.90000000596,117589.015,117595.10000000894,117600.903,118050.82,,22,But
screen,html.Screen,2_1_0_1_23,2022-05-09T16:20:06.621Z,,,,,,,,,,,,,,,,,53,,,,,,,,,,,,,,379.679999999993,,response,,,,99,,,,,,,Space,keypress(Space),,,,,,,,---- -- ----- -- ------ - ------- --- ----------<br>------------- ------ ------ ---- ---- ------- ----- -- ----<br>-------- ------- -- ---------- --- a --- ----- ----- ----<br>---- --- --- ----- --- ---- ---- ------- ----- ---- -------<br>--- --- -- ----- -- --- ---- -- --- ---- -- ------ ------<br>--- ----- -- ----,118431.5,118430.5,118040.169,118044.20000000298,118050.82,118433.902,,23,a
screen,html.Screen,2_1_0_1_24,2022-05-09T16:20:06.933Z,,,,,,,,,,,,,,,,,53,,,,,,,,,,,,,,308.4980000059586,,response,,,,99,,,,,,,Space,keypress(Space),,,,,,,,---- -- ----- -- ------ - ------- --- ----------<br>------------- ------ ------ ---- ---- ------- ----- -- ----<br>-------- ------- -- ---------- --- - new ----- ----- ----<br>---- --- --- ----- --- ---- ---- ------- ----- ---- -------<br>--- --- -- ----- -- --- ---- -- --- ---- -- ------ ------<br>--- ----- -- ----,118743.40000000596,118742.40000000596,118422.315,118431.70000000298,118433.902,118750.523,,24,new
screen,html.Screen,2_1_0_1_25,2022-05-09T16:20:07.294Z,,,,,,,,,,,,,,,,,53,,,,,,,,,,,,,,352.7770000119199,,response,,,,99,,,,,,,Space,keypress(Space),,,,,,,,---- -- ----- -- ------ - ------- --- ----------<br>------------- ------ ------ ---- ---- ------- ----- -- ----<br>-------- ------- -- ---------- --- - --- study ----- ----<br>---- --- --- ----- --- ---- ---- ------- ----- ---- -------<br>--- --- -- ----- -- --- ---- -- --- ---- -- ------ ------<br>--- ----- -- ----,119104.30000001192,119103.30000001192,118737.719,118743.70000000298,118750.523,119134.139,,25,study
screen,html.Screen,2_1_0_1_26,2022-05-09T16:20:07.640Z,,,,,,,,,,,,,,,,,53,,,,,,,,,,,,,,314.9610000089451,,response,,,,99,,,,,,,Space,keypress(Space),,,,,,,,---- -- ----- -- ------ - ------- --- ----------<br>------------- ------ ------ ---- ---- ------- ----- -- ----<br>-------- ------- -- ---------- --- - --- ----- finds ----<br>---- --- --- ----- --- ---- ---- ------- ----- ---- -------<br>--- --- -- ----- -- --- ---- -- --- ---- -- ------ ------<br>--- ----- -- ----,119450.20000000298,119449.10000000894,119117.045,119104.5,119134.139,119467.058,,26,finds
screen,html.Screen,2_1_0_1_27,2022-05-09T16:20:08.023Z,,,,,,,,,,,,,,,,,53,,,,,,,,,,,,,,364.54200000893616,,response,,,,99,,,,,,,Space,keypress(Space),,,,,,,,---- -- ----- -- ------ - ------- --- ----------<br>------------- ------ ------ ---- ---- ------- ----- -- ----<br>-------- ------- -- ---------- --- - --- ----- ----- that<br>---- --- --- ----- --- ---- ---- ------- ----- ---- -------<br>--- --- -- ----- -- --- ---- -- --- ---- -- ------ ------<br>--- ----- -- ----,119832.80000001192,119831.60000000894,119437.511,119450.40000000596,119467.058,119850.24,,27,that
screen,html.Screen,2_1_0_1_28,2022-05-09T16:20:08.423Z,,,,,,,,,,,,,,,,,53,,,,,,,,,,,,,,381.5600000119157,,response,,,,99,,,,,,,Space,keypress(Space),,,,,,,,---- -- ----- -- ------ - ------- --- ----------<br>------------- ------ ------ ---- ---- ------- ----- -- ----<br>-------- ------- -- ---------- --- - --- ----- ----- ----<br>it's --- --- ----- --- ---- ---- ------- ----- ---- -------<br>--- --- -- ----- -- --- ---- -- --- ---- -- ------ ------<br>--- ----- -- ----,120233,120231.80000001192,119821.475,119833.20000000298,119850.24,120250.225,,28,it's
screen,html.Screen,2_1_0_1_29,2022-05-09T16:20:08.787Z,,,,,,,,,,,,,,,,,53,,,,,,,,,,,,,,345.9750000029744,,response,,,,99,,,,,,,Space,keypress(Space),,,,,,,,---- -- ----- -- ------ - ------- --- ----------<br>------------- ------ ------ ---- ---- ------- ----- -- ----<br>-------- ------- -- ---------- --- - --- ----- ----- ----<br>---- not --- ----- --- ---- ---- ------- ----- ---- -------<br>--- --- -- ----- -- --- ---- -- --- ---- -- ------ ------<br>--- ----- -- ----,120597.30000001192,120596.20000000298,120221.803,120233.30000001192,120250.225,120599.972,,29,not
screen,html.Screen,2_1_0_1_30,2022-05-09T16:20:09.182Z,,,,,,,,,,,,,,,,,53,,,,,,,,,,,,,,391.22800000298594,,response,,,,99,,,,,,,Space,keypress(Space),,,,,,,,---- -- ----- -- ------ - ------- --- ----------<br>------------- ------ ------ ---- ---- ------- ----- -- ----<br>-------- ------- -- ---------- --- - --- ----- ----- ----<br>---- --- how ----- --- ---- ---- ------- ----- ---- -------<br>--- --- -- ----- -- --- ---- -- --- ---- -- ------ ------<br>--- ----- -- ----,120992,120991.20000000298,120587.868,120597.5,120599.972,120999.95,,30,how
screen,html.Screen,2_1_0_1_31,2022-05-09T16:20:09.522Z,,,,,,,,,,,,,,,,,53,,,,,,,,,,,,,,331.5500000000029,,response,,,,99,,,,,,,Space,keypress(Space),,,,,,,,---- -- ----- -- ------ - ------- --- ----------<br>------------- ------ ------ ---- ---- ------- ----- -- ----<br>-------- ------- -- ---------- --- - --- ----- ----- ----<br>---- --- --- close --- ---- ---- ------- ----- ---- -------<br>--- --- -- ----- -- --- ---- -- --- ---- -- ------ ------<br>--- ----- -- ----,121332.5,121331.5,120988.497,120992.30000001192,120999.95,121349.836,,31,close
screen,html.Screen,2_1_0_1_32,2022-05-09T16:20:09.857Z,,,,,,,,,,,,,,,,,53,,,,,,,,,,,,,,315.764000008945,,response,,,,99,,,,,,,Space,keypress(Space),,,,,,,,---- -- ----- -- ------ - ------- --- ----------<br>------------- ------ ------ ---- ---- ------- ----- -- ----<br>-------- ------- -- ---------- --- - --- ----- ----- ----<br>---- --- --- ----- you ---- ---- ------- ----- ---- -------<br>--- --- -- ----- -- --- ---- -- --- ---- -- ------ ------<br>--- ----- -- ----,121666.70000000298,121665.60000000894,121320.736,121332.90000000596,121349.836,121683.292,,32,you
screen,html.Screen,2_1_0_1_33,2022-05-09T16:20:10.167Z,,,,,,,,,,,,,,,,,53,,,,,,,,,,,,,,292.40800000297895,,response,,,,99,,,,,,,Space,keypress(Space),,,,,,,,---- -- ----- -- ------ - ------- --- ----------<br>------------- ------ ------ ---- ---- ------- ----- -- ----<br>-------- ------- -- ---------- --- - --- ----- ----- ----<br>---- --- --- ----- --- feel ---- ------- ----- ---- -------<br>--- --- -- ----- -- --- ---- -- --- ---- -- ------ ------<br>--- ----- -- ----,121976.80000001192,121975.70000000298,121653.741,121667,121683.292,121982.902,,33,feel
screen,html.Screen,2_1_0_1_34,2022-05-09T16:20:10.502Z,,,,,,,,,,,,,,,,,53,,,,,,,,,,,,,,328.09799999999814,,response,,,,99,,,,,,,Space,keypress(Space),,,,,,,,---- -- ----- -- ------ - ------- --- ----------<br>------------- ------ ------ ---- ---- ------- ----- -- ----<br>-------- ------- -- ---------- --- - --- ----- ----- ----<br>---- --- --- ----- --- ---- that ------- ----- ---- -------<br>--- --- -- ----- -- --- ---- -- --- ---- -- ------ ------<br>--- ----- -- ----,122312,122311,121969.873,121977,121982.902,122316.108,,34,that
screen,html.Screen,2_1_0_1_35,2022-05-09T16:20:10.818Z,,,,,,,,,,,,,,,,,53,,,,,,,,,,,,,,310.69200001192803,,response,,,,99,,,,,,,Space,keypress(Space),,,,,,,,---- -- ----- -- ------ - ------- --- ----------<br>------------- ------ ------ ---- ---- ------- ----- -- ----<br>-------- ------- -- ---------- --- - --- ----- ----- ----<br>---- --- --- ----- --- ---- ---- matters ----- ---- -------<br>--- --- -- ----- -- --- ---- -- --- ---- -- ------ ------<br>--- ----- -- ----,122628,122626.80000001192,122303.547,122312.10000000894,122316.108,122632.674,,35,matters
screen,html.Screen,2_1_0_1_36,2022-05-09T16:20:11.202Z,,,,,,,,,,,,,,,,,53,,,,,,,,,,,,,,378.7260000059614,,response,,,,99,,,,,,,Space,keypress(Space),,,,,,,,"---- -- ----- -- ------ - ------- --- ----------<br>------------- ------ ------ ---- ---- ------- ----- -- ----<br>-------- ------- -- ---------- --- - --- ----- ----- ----<br>---- --- --- ----- --- ---- ---- ------- most, ---- -------<br>--- --- -- ----- -- --- ---- -- --- ---- -- ------ ------<br>--- ----- -- ----",123012.30000001192,123011.40000000596,122619.971,122628.20000000298,122632.674,123016.013,,36,"most,"
screen,html.Screen,2_1_0_1_37,2022-05-09T16:20:11.627Z,,,,,,,,,,,,,,,,,53,,,,,,,,,,,,,,420.4869999999937,,response,,,,99,,,,,,,Space,keypress(Space),,,,,,,,---- -- ----- -- ------ - ------- --- ----------<br>------------- ------ ------ ---- ---- ------- ----- -- ----<br>-------- ------- -- ---------- --- - --- ----- ----- ----<br>---- --- --- ----- --- ---- ---- ------- ----- it's -------<br>--- --- -- ----- -- --- ---- -- --- ---- -- ------ ------<br>--- ----- -- ----,123437.5,123436.5,123004.069,123012.5,123016.013,123449.278,,37,it's
screen,html.Screen,2_1_0_1_38,2022-05-09T16:20:12.004Z,,,,,,,,,,,,,,,,,53,,,,,,,,,,,,,,364.12200000595476,,response,,,,99,,,,,,,Space,keypress(Space),,,,,,,,---- -- ----- -- ------ - ------- --- ----------<br>------------- ------ ------ ---- ---- ------- ----- -- ----<br>-------- ------- -- ---------- --- - --- ----- ----- ----<br>---- --- --- ----- --- ---- ---- ------- ----- ---- whether<br>--- --- -- ----- -- --- ---- -- --- ---- -- ------ ------<br>--- ----- -- ----,123814.40000000596,123813.40000000596,123438.057,123437.90000000596,123449.278,123836.354,,38,whether
screen,html.Screen,2_1_0_1_39,2022-05-09T16:20:12.344Z,,,,,,,,,,,,,,,,,53,,,,,,,,,,,,,,316.3460000029736,,response,,,,99,,,,,,,Space,keypress(Space),,,,,,,,---- -- ----- -- ------ - ------- --- ----------<br>------------- ------ ------ ---- ---- ------- ----- -- ----<br>-------- ------- -- ---------- --- - --- ----- ----- ----<br>---- --- --- ----- --- ---- ---- ------- ----- ---- -------<br>you --- -- ----- -- --- ---- -- --- ---- -- ------ ------<br>--- ----- -- ----,124153.70000000298,124152.70000000298,123803.835,123814.60000000894,123836.354,124165.668,,39,you
screen,html.Screen,2_1_0_1_40,2022-05-09T16:20:12.663Z,,,,,,,,,,,,,,,,,53,,,,,,,,,,,,,,306.6320000119158,,response,,,,99,,,,,,,Space,keypress(Space),,,,,,,,---- -- ----- -- ------ - ------- --- ----------<br>------------- ------ ------ ---- ---- ------- ----- -- ----<br>-------- ------- -- ---------- --- - --- ----- ----- ----<br>---- --- --- ----- --- ---- ---- ------- ----- ---- -------<br>--- are -- ----- -- --- ---- -- --- ---- -- ------ ------<br>--- ----- -- ----,124473.40000000596,124472.30000001192,124153.061,124153.90000000596,124165.668,124482.293,,40,are
screen,html.Screen,2_1_0_1_41,2022-05-09T16:20:12.940Z,,,,,,,,,,,,,,,,,53,,,,,,,,,,,,,,266.5070000119158,,response,,,,99,,,,,,,Space,keypress(Space),,,,,,,,---- -- ----- -- ------ - ------- --- ----------<br>------------- ------ ------ ---- ---- ------- ----- -- ----<br>-------- ------- -- ---------- --- - --- ----- ----- ----<br>---- --- --- ----- --- ---- ---- ------- ----- ---- -------<br>--- --- as ----- -- --- ---- -- --- ---- -- ------ ------<br>--- ----- -- ----,124750,124748.80000001192,124469.642,124473.60000000894,124482.293,124765.411,,41,as
screen,html.Screen,2_1_0_1_42,2022-05-09T16:20:13.385Z,,,,,,,,,,,,,,,,,53,,,,,,,,,,,,,,428.5890000000072,,response,,,,99,,,,,,,Space,keypress(Space),,,,,,,,---- -- ----- -- ------ - ------- --- ----------<br>------------- ------ ------ ---- ---- ------- ----- -- ----<br>-------- ------- -- ---------- --- - --- ----- ----- ----<br>---- --- --- ----- --- ---- ---- ------- ----- ---- -------<br>--- --- -- close -- --- ---- -- --- ---- -- ------ ------<br>--- ----- -- ----,125194.90000000596,125194,124735.247,124750.10000000894,124765.411,125198.631,,42,close
screen,html.Screen,2_1_0_1_43,2022-05-09T16:20:13.705Z,,,,,,,,,,,,,,,,,53,,,,,,,,,,,,,,315.2690000059665,,response,,,,99,,,,,,,Space,keypress(Space),,,,,,,,---- -- ----- -- ------ - ------- --- ----------<br>------------- ------ ------ ---- ---- ------- ----- -- ----<br>-------- ------- -- ---------- --- - --- ----- ----- ----<br>---- --- --- ----- --- ---- ---- ------- ----- ---- -------<br>--- --- -- ----- as --- ---- -- --- ---- -- ------ ------<br>--- ----- -- ----,125514.80000001192,125513.90000000596,125187.928,125195.20000000298,125198.631,125532.002,,43,as
screen,html.Screen,2_1_0_1_44,2022-05-09T16:20:14.037Z,,,,,,,,,,,,,,,,,53,,,,,,,,,,,,,,314.2980000119278,,response,,,,99,,,,,,,Space,keypress(Space),,,,,,,,---- -- ----- -- ------ - ------- --- ----------<br>------------- ------ ------ ---- ---- ------- ----- -- ----<br>-------- ------- -- ---------- --- - --- ----- ----- ----<br>---- --- --- ----- --- ---- ---- ------- ----- ---- -------<br>--- --- -- ----- -- you ---- -- --- ---- -- ------ ------<br>--- ----- -- ----,125847.5,125846.30000001192,125502.515,125515,125532.002,125865.374,,44,you
screen,html.Screen,2_1_0_1_45,2022-05-09T16:20:14.384Z,,,,,,,,,,,,,,,,,53,,,,,,,,,,,,,,327.62600000000384,,response,,,,99,,,,,,,Space,keypress(Space),,,,,,,,---- -- ----- -- ------ - ------- --- ----------<br>------------- ------ ------ ---- ---- ------- ----- -- ----<br>-------- ------- -- ---------- --- - --- ----- ----- ----<br>---- --- --- ----- --- ---- ---- ------- ----- ---- -------<br>--- --- -- ----- -- --- want -- --- ---- -- ------ ------<br>--- ----- -- ----,126194,126193,125835.597,125847.60000000894,125865.374,126198.333,,45,want
screen,html.Screen,2_1_0_1_46,2022-05-09T16:20:14.698Z,,,,,,,,,,,,,,,,,53,,,,,,,,,,,,,,308.3670000029815,,response,,,,99,,,,,,,Space,keypress(Space),,,,,,,,---- -- ----- -- ------ - ------- --- ----------<br>------------- ------ ------ ---- ---- ------- ----- -- ----<br>-------- ------- -- ---------- --- - --- ----- ----- ----<br>---- --- --- ----- --- ---- ---- ------- ----- ---- -------<br>--- --- -- ----- -- --- ---- to --- ---- -- ------ ------<br>--- ----- -- ----,126507.70000000298,126506.70000000298,126185.786,126194.30000001192,126198.333,126515.059,,46,to
screen,html.Screen,2_1_0_1_47,2022-05-09T16:20:15.041Z,,,,,,,,,,,,,,,,,53,,,,,,,,,,,,,,334.94100000000617,,response,,,,99,,,,,,,Space,keypress(Space),,,,,,,,"---- -- ----- -- ------ - ------- --- ----------<br>------------- ------ ------ ---- ---- ------- ----- -- ----<br>-------- ------- -- ---------- --- - --- ----- ----- ----<br>---- --- --- ----- --- ---- ---- ------- ----- ---- -------<br>--- --- -- ----- -- --- ---- -- be, ---- -- ------ ------<br>--- ----- -- ----",126851,126850,126502.329,126507.90000000596,126515.059,126864.957,,47,"be,"
screen,html.Screen,2_1_0_1_48,2022-05-09T16:20:15.390Z,,,,,,,,,,,,,,,,,53,,,,,,,,,,,,,,333.74300000298535,,response,,,,99,,,,,,,Space,keypress(Space),,,,,,,,---- -- ----- -- ------ - ------- --- ----------<br>------------- ------ ------ ---- ---- ------- ----- -- ----<br>-------- ------- -- ---------- --- - --- ----- ----- ----<br>---- --- --- ----- --- ---- ---- ------- ----- ---- -------<br>--- --- -- ----- -- --- ---- -- --- even -- ------ ------<br>--- ----- -- ----,127199.90000000596,127198.70000000298,126835.606,126851.40000000596,126864.957,127214.972,,48,even
screen,html.Screen,2_1_0_1_49,2022-05-09T16:20:15.695Z,,,,,,,,,,,,,,,,,53,,,,,,,,,,,,,,288.92800000596617,,response,,,,99,,,,,,,Space,keypress(Space),,,,,,,,---- -- ----- -- ------ - ------- --- ----------<br>------------- ------ ------ ---- ---- ------- ----- -- ----<br>-------- ------- -- ---------- --- - --- ----- ----- ----<br>---- --- --- ----- --- ---- ---- ------- ----- ---- -------<br>--- --- -- ----- -- --- ---- -- --- ---- if ------ ------<br>--- ----- -- ----,127505,127503.90000000596,127185.495,127200.10000000894,127214.972,127514.935,,49,if
screen,html.Screen,2_1_0_1_50,2022-05-09T16:20:16.023Z,,,,,,,,,,,,,,,,,53,,,,,,,,,,,,,,317.26500000298256,,response,,,,99,,,,,,,Space,keypress(Space),,,,,,,,---- -- ----- -- ------ - ------- --- ----------<br>------------- ------ ------ ---- ---- ------- ----- -- ----<br>-------- ------- -- ---------- --- - --- ----- ----- ----<br>---- --- --- ----- --- ---- ---- ------- ----- ---- -------<br>--- --- -- ----- -- --- ---- -- --- ---- -- that's ------<br>--- ----- -- ----,127833,127832.20000000298,127501.604,127505.30000001192,127514.935,127847.977,,50,that's
screen,html.Screen,2_1_0_1_51,2022-05-09T16:20:16.330Z,,,,,,,,,,,,,,,,,53,,,,,,,,,,,,,,290.823000011922,,response,,,,99,,,,,,,Space,keypress(Space),,,,,,,,---- -- ----- -- ------ - ------- --- ----------<br>------------- ------ ------ ---- ---- ------- ----- -- ----<br>-------- ------- -- ---------- --- - --- ----- ----- ----<br>---- --- --- ----- --- ---- ---- ------- ----- ---- -------<br>--- --- -- ----- -- --- ---- -- --- ---- -- ------ really<br>--- ----- -- ----,128139.70000000298,128138.80000001192,127818.409,127833.10000000894,127847.977,128147.902,,51,really
screen,html.Screen,2_1_0_1_52,2022-05-09T16:20:16.811Z,,,,,,,,,,,,,,,,,53,,,,,,,,,,,,,,471.89800001191907,,response,,,,99,,,,,,,Space,keypress(Space),,,,,,,,---- -- ----- -- ------ - ------- --- ----------<br>------------- ------ ------ ---- ---- ------- ----- -- ----<br>-------- ------- -- ---------- --- - --- ----- ----- ----<br>---- --- --- ----- --- ---- ---- ------- ----- ---- -------<br>--- --- -- ----- -- --- ---- -- --- ---- -- ------ ------<br>not ----- -- ----,128620.90000000596,128619.80000001192,128134.705,128139.90000000596,128147.902,128631,,52,not
screen,html.Screen,2_1_0_1_53,2022-05-09T16:20:17.182Z,,,,,,,,,,,,,,,,,53,,,,,,,,,,,,,,359.80000001192093,,response,,,,99,,,,,,,Space,keypress(Space),,,,,,,,---- -- ----- -- ------ - ------- --- ----------<br>------------- ------ ------ ---- ---- ------- ----- -- ----<br>-------- ------- -- ---------- --- - --- ----- ----- ----<br>---- --- --- ----- --- ---- ---- ------- ----- ---- -------<br>--- --- -- ----- -- --- ---- -- --- ---- -- ------ ------<br>--- close -- ----,128991.80000001192,128990.80000001192,128620.578,128621.10000000894,128631,128997.533,,53,close
screen,html.Screen,2_1_0_1_54,2022-05-09T16:20:17.524Z,,,,,,,,,,,,,,,,,53,,,,,,,,,,,,,,335.5670000089449,,response,,,,99,,,,,,,Space,keypress(Space),,,,,,,,---- -- ----- -- ------ - ------- --- ----------<br>------------- ------ ------ ---- ---- ------- ----- -- ----<br>-------- ------- -- ---------- --- - --- ----- ----- ----<br>---- --- --- ----- --- ---- ---- ------- ----- ---- -------<br>--- --- -- ----- -- --- ---- -- --- ---- -- ------ ------<br>--- ----- at ----,129334,129333.10000000894,128985.65,128992,128997.533,129347.64,,54,at
screen,html.Screen,2_1_0_1_55,2022-05-09T16:20:17.864Z,,,,,,,,,,,,,,,,,53,,,,,,,,,,,,,,325.4600000089413,,response,,,,99,,,,,,,Space,keypress(Space),,,,,,,,---- -- ----- -- ------ - ------- --- ----------<br>------------- ------ ------ ---- ---- ------- ----- -- ----<br>-------- ------- -- ---------- --- - --- ----- ----- ----<br>---- --- --- ----- --- ---- ---- ------- ----- ---- -------<br>--- --- -- ----- -- --- ---- -- --- ---- -- ------ ------<br>--- ----- -- all.,129674.10000000894,129673.10000000894,129318.211,129334.20000000298,129347.64,129680.65,,55,all.
Item 99,flow.Loop,2_1_0_1,2022-05-09T16:20:17.864Z,,,,,,,,,,,,,,,,,,,,,,,,,,,,,,,23735.544000008944,,completion,,,,,G,,,,,,,,,,,silence,,,,,129674.5,129673.10000000894,105904.489,105905.80000001192,105937.556,129680.65,,,
Question 1,html.Screen,2_1_0_2,2022-05-09T16:20:21.368Z,,,,,,,,,,,,,,,,,,,,,,,,,,,,true,FALSE,,3495.7500000059663,,response,,,,99,G,,,,,,FALSE,click #choice-2,,,,silence,,,,,133177.80000001192,133176.40000000596,129668.224,129674.70000000298,129680.65,133179.623,,,
Question 2,html.Screen,2_1_0_3,2022-05-09T16:20:30.260Z,,,,,,,,,,,,,,,,,,,,,,,,,,,,false,TRUE,,8889.177000011929,,response,,,,99,G,,,,,,FALSE,click #choice-2,,,,silence,,,,,142070.40000000596,142068.80000001192,133163.996,133178,133179.623,142077.071,,,
Item 99,flow.Sequence,2_1_0,2022-05-09T16:20:30.261Z,,,,,,,,,,,,,,,,,,,,,,,,,,,,,,,46144.04400001193,,completion,,,,,,,,,,,,,,,,,,,,,142070.80000001192,142068.80000001192,95907.402,95909.5,95924.756,142077.071,,,
Holding screen,html.Screen,2_1_1_0,2022-05-09T16:20:40.249Z,,,,,,,,,,,,,,,,,,,,,,,,,,,,,,,9997.344000000012,,timeout,,,,,,,,,,,,,,,,,,,,,152058.40000000596,152057.576,142061.227,142071.10000000894,142077.071,152074.415,,,
screen,html.Screen,2_1_1_1_0,2022-05-09T16:20:41.161Z,,,,,,,,,,,,,,,,,54,,,,,,,,,,,,,,894.8850000119128,,response,,,,100,,,,,,,Space,keypress(Space),,,,,,,,At --- ---- --- ------ ----- ------- ---- -- --- ------- --<br>------- ---------- ------ -- ----- -- ----- -- ---- ------<br>--- ----- --- --- ------ -------- ----- --- ------ ----- --<br>----- ----- ---------- --- --- ------ ------ ---- -- ------<br>------- --- ------ ----- --- ---- ------- -- ---- --- --<br>------- ------,152970.30000001192,152969.30000001192,152057.576,152058.70000000298,152074.415,152973.844,,0,At
screen,html.Screen,2_1_1_1_1,2022-05-09T16:20:41.606Z,,,,,,,,,,,,,,,,,54,,,,,,,,,,,,,,440.85600000296836,,response,,,,100,,,,,,,Space,keypress(Space),,,,,,,,-- the ---- --- ------ ----- ------- ---- -- --- ------- --<br>------- ---------- ------ -- ----- -- ----- -- ---- ------<br>--- ----- --- --- ------ -------- ----- --- ------ ----- --<br>----- ----- ---------- --- --- ------ ------ ---- -- ------<br>------- --- ------ ----- --- ---- ------- -- ---- --- --<br>------- ------,153415.80000001192,153414.70000000298,152969.444,152970.5,152973.844,153423.879,,1,the
screen,html.Screen,2_1_1_1_2,2022-05-09T16:20:41.893Z,,,,,,,,,,,,,,,,,54,,,,,,,,,,,,,,277.72100000895443,,response,,,,100,,,,,,,Space,keypress(Space),,,,,,,,-- --- time --- ------ ----- ------- ---- -- --- ------- --<br>------- ---------- ------ -- ----- -- ----- -- ---- ------<br>--- ----- --- --- ------ -------- ----- --- ------ ----- --<br>----- ----- ---------- --- --- ------ ------ ---- -- ------<br>------- --- ------ ----- --- ---- ------- -- ---- --- --<br>------- ------,153702.70000000298,153701.60000000894,153412.859,153416.30000001192,153423.879,153707,,2,time
screen,html.Screen,2_1_1_1_3,2022-05-09T16:20:42.273Z,,,,,,,,,,,,,,,,,54,,,,,,,,,,,,,,374.70000000298023,,response,,,,100,,,,,,,Space,keypress(Space),,,,,,,,-- --- ---- the ------ ----- ------- ---- -- --- ------- --<br>------- ---------- ------ -- ----- -- ----- -- ---- ------<br>--- ----- --- --- ------ -------- ----- --- ------ ----- --<br>----- ----- ---------- --- --- ------ ------ ---- -- ------<br>------- --- ------ ----- --- ---- ------- -- ---- --- --<br>------- ------,154082.40000000596,154081.70000000298,153693.705,153702.90000000596,153707,154090.256,,3,the
screen,html.Screen,2_1_1_1_4,2022-05-09T16:20:42.645Z,,,,,,,,,,,,,,,,,54,,,,,,,,,,,,,,363.044000011927,,response,,,,100,,,,,,,Space,keypress(Space),,,,,,,,-- --- ---- --- French ----- ------- ---- -- --- ------- --<br>------- ---------- ------ -- ----- -- ----- -- ---- ------<br>--- ----- --- --- ------ -------- ----- --- ------ ----- --<br>----- ----- ---------- --- --- ------ ------ ---- -- ------<br>------- --- ------ ----- --- ---- ------- -- ---- --- --<br>------- ------,154454.40000000596,154453.30000001192,154078.369,154082.60000000894,154090.256,154456.725,,4,French
screen,html.Screen,2_1_1_1_5,2022-05-09T16:20:42.983Z,,,,,,,,,,,,,,,,,54,,,,,,,,,,,,,,334.4750000029744,,response,,,,100,,,,,,,Space,keypress(Space),,,,,,,,-- --- ---- --- ------ crown ------- ---- -- --- ------- --<br>------- ---------- ------ -- ----- -- ----- -- ---- ------<br>--- ----- --- --- ------ -------- ----- --- ------ ----- --<br>----- ----- ---------- --- --- ------ ------ ---- -- ------<br>------- --- ------ ----- --- ---- ------- -- ---- --- --<br>------- ------,154792.20000000298,154791.20000000298,154444.913,154454.60000000894,154456.725,154806.695,,5,crown
screen,html.Screen,2_1_1_1_6,2022-05-09T16:20:43.291Z,,,,,,,,,,,,,,,,,54,,,,,,,,,,,,,,292.9050000089337,,response,,,,100,,,,,,,Space,keypress(Space),,,,,,,,-- --- ---- --- ------ ----- secured ---- -- --- ------- --<br>------- ---------- ------ -- ----- -- ----- -- ---- ------<br>--- ----- --- --- ------ -------- ----- --- ------ ----- --<br>----- ----- ---------- --- --- ------ ------ ---- -- ------<br>------- --- ------ ----- --- ---- ------- -- ---- --- --<br>------- ------,155100.70000000298,155099.60000000894,154777.435,154792.5,154806.695,155106.62,,6,secured
screen,html.Screen,2_1_1_1_7,2022-05-09T16:20:43.757Z,,,,,,,,,,,,,,,,,54,,,,,,,,,,,,,,458.7800000059651,,response,,,,100,,,,,,,Space,keypress(Space),,,,,,,,-- --- ---- --- ------ ----- ------- much -- --- ------- --<br>------- ---------- ------ -- ----- -- ----- -- ---- ------<br>--- ----- --- --- ------ -------- ----- --- ------ ----- --<br>----- ----- ---------- --- --- ------ ------ ---- -- ------<br>------- --- ------ ----- --- ---- ------- -- ---- --- --<br>------- ------,155566.70000000298,155565.40000000596,155093.503,155100.90000000596,155106.62,155573.197,,7,much
screen,html.Screen,2_1_1_1_8,2022-05-09T16:20:44.184Z,,,,,,,,,,,,,,,,,54,,,,,,,,,,,,,,419.40300000895513,,response,,,,100,,,,,,,Space,keypress(Space),,,,,,,,-- --- ---- --- ------ ----- ------- ---- of --- ------- --<br>------- ---------- ------ -- ----- -- ----- -- ---- ------<br>--- ----- --- --- ------ -------- ----- --- ------ ----- --<br>----- ----- ---------- --- --- ------ ------ ---- -- ------<br>------- --- ------ ----- --- ---- ------- -- ---- --- --<br>------- ------,155993.90000000596,155992.60000000894,155562.46,155566.80000001192,155573.197,156023.287,,8,of
screen,html.Screen,2_1_1_1_9,2022-05-09T16:20:44.502Z,,,,,,,,,,,,,,,,,54,,,,,,,,,,,,,,287.91300000296906,,response,,,,100,,,,,,,Space,keypress(Space),,,,,,,,-- --- ---- --- ------ ----- ------- ---- -- its ------- --<br>------- ---------- ------ -- ----- -- ----- -- ---- ------<br>--- ----- --- --- ------ -------- ----- --- ------ ----- --<br>----- ----- ---------- --- --- ------ ------ ---- -- ------<br>------- --- ------ ----- --- ---- ------- -- ---- --- --<br>------- ------,156312.10000000894,156311.20000000298,156006.333,155994.20000000298,156023.287,156323.196,,9,its
screen,html.Screen,2_1_1_1_10,2022-05-09T16:20:44.918Z,,,,,,,,,,,,,,,,,54,,,,,,,,,,,,,,403.4040000089444,,response,,,,100,,,,,,,Space,keypress(Space),,,,,,,,-- --- ---- --- ------ ----- ------- ---- -- --- revenue --<br>------- ---------- ------ -- ----- -- ----- -- ---- ------<br>--- ----- --- --- ------ -------- ----- --- ------ ----- --<br>----- ----- ---------- --- --- ------ ------ ---- -- ------<br>------- --- ------ ----- --- ---- ------- -- ---- --- --<br>------- ------,156727.40000000596,156726.60000000894,156309.883,156312.40000000596,156323.196,156739.503,,10,revenue
screen,html.Screen,2_1_1_1_11,2022-05-09T16:20:45.268Z,,,,,,,,,,,,,,,,,54,,,,,,,,,,,,,,337.19700000298326,,response,,,,100,,,,,,,Space,keypress(Space),,,,,,,,-- --- ---- --- ------ ----- ------- ---- -- --- ------- by<br>------- ---------- ------ -- ----- -- ----- -- ---- ------<br>--- ----- --- --- ------ -------- ----- --- ------ ----- --<br>----- ----- ---------- --- --- ------ ------ ---- -- ------<br>------- --- ------ ----- --- ---- ------- -- ---- --- --<br>------- ------,157077.70000000298,157076.70000000298,156728.071,156727.70000000298,156739.503,157089.388,,11,by
screen,html.Screen,2_1_1_1_12,2022-05-09T16:20:45.646Z,,,,,,,,,,,,,,,,,54,,,,,,,,,,,,,,365.31200000297395,,response,,,,100,,,,,,,Space,keypress(Space),,,,,,,,-- --- ---- --- ------ ----- ------- ---- -- --- ------- --<br>issuing ---------- ------ -- ----- -- ----- -- ---- ------<br>--- ----- --- --- ------ -------- ----- --- ------ ----- --<br>----- ----- ---------- --- --- ------ ------ ---- -- ------<br>------- --- ------ ----- --- ---- ------- -- ---- --- --<br>------- ------,157455.70000000298,157454.70000000298,157077.254,157078.10000000894,157089.388,157472.696,,12,issuing
screen,html.Screen,2_1_1_1_13,2022-05-09T16:20:46.045Z,,,,,,,,,,,,,,,,,54,,,,,,,,,,,,,,380.3040000000037,,response,,,,100,,,,,,,Space,keypress(Space),,,,,,,,-- --- ---- --- ------ ----- ------- ---- -- --- ------- --<br>------- government ------ -- ----- -- ----- -- ---- ------<br>--- ----- --- --- ------ -------- ----- --- ------ ----- --<br>----- ----- ---------- --- --- ------ ------ ---- -- ------<br>------- --- ------ ----- --- ---- ------- -- ---- --- --<br>------- ------,157854.5,157853,157444.028,157456,157472.696,157872.741,,13,government
screen,html.Screen,2_1_1_1_14,2022-05-09T16:20:46.382Z,,,,,,,,,,,,,,,,,54,,,,,,,,,,,,,,317.7589999999909,,response,,,,100,,,,,,,Space,keypress(Space),,,,,,,,-- --- ---- --- ------ ----- ------- ---- -- --- ------- --<br>------- ---------- bonds. -- ----- -- ----- -- ---- ------<br>--- ----- --- --- ------ -------- ----- --- ------ ----- --<br>----- ----- ---------- --- --- ------ ------ ---- -- ------<br>------- --- ------ ----- --- ---- ------- -- ---- --- --<br>------- ------,158191.90000000596,158190.5,157844.083,157854.90000000596,157872.741,158205.699,,14,bonds.
screen,html.Screen,2_1_1_1_15,2022-05-09T16:20:46.734Z,,,,,,,,,,,,,,,,,54,,,,,,,,,,,,,,336.90100000894745,,response,,,,100,,,,,,,Space,keypress(Space),,,,,,,,-- --- ---- --- ------ ----- ------- ---- -- --- ------- --<br>------- ---------- ------ In ----- -- ----- -- ---- ------<br>--- ----- --- --- ------ -------- ----- --- ------ ----- --<br>----- ----- ---------- --- --- ------ ------ ---- -- ------<br>------- --- ------ ----- --- ---- ------- -- ---- --- --<br>------- ------,158543.40000000596,158542.60000000894,158176.443,158192.20000000298,158205.699,158555.646,,15,In
screen,html.Screen,2_1_1_1_16,2022-05-09T16:20:47.060Z,,,,,,,,,,,,,,,,,54,,,,,,,,,,,,,,312.9540000089328,,response,,,,100,,,,,,,Space,keypress(Space),,,,,,,,"-- --- ---- --- ------ ----- ------- ---- -- --- ------- --<br>------- ---------- ------ -- 1727, -- ----- -- ---- ------<br>--- ----- --- --- ------ -------- ----- --- ------ ----- --<br>----- ----- ---------- --- --- ------ ------ ---- -- ------<br>------- --- ------ ----- --- ---- ------- -- ---- --- --<br>------- ------",158869.60000000894,158868.60000000894,158543.298,158543.70000000298,158555.646,158872.098,,16,"1727,"
screen,html.Screen,2_1_1_1_17,2022-05-09T16:20:47.431Z,,,,,,,,,,,,,,,,,54,,,,,,,,,,,,,,367.6020000029821,,response,,,,100,,,,,,,Space,keypress(Space),,,,,,,,-- --- ---- --- ------ ----- ------- ---- -- --- ------- --<br>------- ---------- ------ -- ----- in ----- -- ---- ------<br>--- ----- --- --- ------ -------- ----- --- ------ ----- --<br>----- ----- ---------- --- --- ------ ------ ---- -- ------<br>------- --- ------ ----- --- ---- ------- -- ---- --- --<br>------- ------,159240.70000000298,159239.70000000298,158859.603,158869.90000000596,158872.098,159255.409,,17,in
screen,html.Screen,2_1_1_1_18,2022-05-09T16:20:47.863Z,,,,,,,,,,,,,,,,,54,,,,,,,,,,,,,,416.5909999999858,,response,,,,100,,,,,,,Space,keypress(Space),,,,,,,,-- --- ---- --- ------ ----- ------- ---- -- --- ------- --<br>------- ---------- ------ -- ----- -- order -- ---- ------<br>--- ----- --- --- ------ -------- ----- --- ------ ----- --<br>----- ----- ---------- --- --- ------ ------ ---- -- ------<br>------- --- ------ ----- --- ---- ------- -- ---- --- --<br>------- ------,159672.80000001192,159672,159226.738,159240.90000000596,159255.409,159688.752,,18,order
screen,html.Screen,2_1_1_1_19,2022-05-09T16:20:48.202Z,,,,,,,,,,,,,,,,,54,,,,,,,,,,,,,,321.6480000059528,,response,,,,100,,,,,,,Space,keypress(Space),,,,,,,,-- --- ---- --- ------ ----- ------- ---- -- --- ------- --<br>------- ---------- ------ -- ----- -- ----- to ---- ------<br>--- ----- --- --- ------ -------- ----- --- ------ ----- --<br>----- ----- ---------- --- --- ------ ------ ---- -- ------<br>------- --- ------ ----- --- ---- ------- -- ---- --- --<br>------- ------,160011.30000001192,160010.40000000596,159660.994,159673,159688.752,160022.027,,19,to
screen,html.Screen,2_1_1_1_20,2022-05-09T16:20:48.524Z,,,,,,,,,,,,,,,,,54,,,,,,,,,,,,,,310.97299999999814,,response,,,,100,,,,,,,Space,keypress(Space),,,,,,,,-- --- ---- --- ------ ----- ------- ---- -- --- ------- --<br>------- ---------- ------ -- ----- -- ----- -- save ------<br>--- ----- --- --- ------ -------- ----- --- ------ ----- --<br>----- ----- ---------- --- --- ------ ------ ---- -- ------<br>------- --- ------ ----- --- ---- ------- -- ---- --- --<br>------- ------,160334.10000000894,160333,160009.265,160011.5,160022.027,160338.365,,20,save
screen,html.Screen,2_1_1_1_21,2022-05-09T16:20:48.794Z,,,,,,,,,,,,,,,,,54,,,,,,,,,,,,,,264.0350000059698,,response,,,,100,,,,,,,Space,keypress(Space),,,,,,,,"-- --- ---- --- ------ ----- ------- ---- -- --- ------- --<br>------- ---------- ------ -- ----- -- ----- -- ---- money,<br>--- ----- --- --- ------ -------- ----- --- ------ ----- --<br>----- ----- ---------- --- --- ------ ------ ---- -- ------<br>------- --- ------ ----- --- ---- ------- -- ---- --- --<br>------- ------",160603.60000000894,160602.40000000596,160325.803,160334.30000001192,160338.365,160626.54,,21,"money,"
screen,html.Screen,2_1_1_1_22,2022-05-09T16:20:49.228Z,,,,,,,,,,,,,,,,,54,,,,,,,,,,,,,,410.06000000893255,,response,,,,100,,,,,,,Space,keypress(Space),,,,,,,,-- --- ---- --- ------ ----- ------- ---- -- --- ------- --<br>------- ---------- ------ -- ----- -- ----- -- ---- ------<br>the ----- --- --- ------ -------- ----- --- ------ ----- --<br>----- ----- ---------- --- --- ------ ------ ---- -- ------<br>------- --- ------ ----- --- ---- ------- -- ---- --- --<br>------- ------,161037.80000001192,161036.60000000894,160591.402,160603.90000000596,160626.54,161055.021,,22,the
screen,html.Screen,2_1_1_1_23,2022-05-09T16:20:49.552Z,,,,,,,,,,,,,,,,,54,,,,,,,,,,,,,,305.1790000029723,,response,,,,100,,,,,,,Space,keypress(Space),,,,,,,,-- --- ---- --- ------ ----- ------- ---- -- --- ------- --<br>------- ---------- ------ -- ----- -- ----- -- ---- ------<br>--- state --- --- ------ -------- ----- --- ------ ----- --<br>----- ----- ---------- --- --- ------ ------ ---- -- ------<br>------- --- ------ ----- --- ---- ------- -- ---- --- --<br>------- ------,161361.40000000596,161360.20000000298,161026.928,161038,161055.021,161371.564,,23,state
screen,html.Screen,2_1_1_1_24,2022-05-09T16:20:49.823Z,,,,,,,,,,,,,,,,,54,,,,,,,,,,,,,,259.7360000119079,,response,,,,100,,,,,,,Space,keypress(Space),,,,,,,,-- --- ---- --- ------ ----- ------- ---- -- --- ------- --<br>------- ---------- ------ -- ----- -- ----- -- ---- ------<br>--- ----- cut --- ------ -------- ----- --- ------ ----- --<br>----- ----- ---------- --- --- ------ ------ ---- -- ------<br>------- --- ------ ----- --- ---- ------- -- ---- --- --<br>------- ------,161632.30000001192,161631.30000001192,161358.643,161361.60000000894,161371.564,161638.072,,24,cut
screen,html.Screen,2_1_1_1_25,2022-05-09T16:20:50.154Z,,,,,,,,,,,,,,,,,54,,,,,,,,,,,,,,324.3280000059749,,response,,,,100,,,,,,,Space,keypress(Space),,,,,,,,-- --- ---- --- ------ ----- ------- ---- -- --- ------- --<br>------- ---------- ------ -- ----- -- ----- -- ---- ------<br>--- ----- --- the ------ -------- ----- --- ------ ----- --<br>----- ----- ---------- --- --- ------ ------ ---- -- ------<br>------- --- ------ ----- --- ---- ------- -- ---- --- --<br>------- ------,161963.70000000298,161962.40000000596,161624.448,161632.5,161638.072,161971.444,,25,the
screen,html.Screen,2_1_1_1_26,2022-05-09T16:20:50.600Z,,,,,,,,,,,,,,,,,54,,,,,,,,,,,,,,437.1560000089521,,response,,,,100,,,,,,,Space,keypress(Space),,,,,,,,-- --- ---- --- ------ ----- ------- ---- -- --- ------- --<br>------- ---------- ------ -- ----- -- ----- -- ---- ------<br>--- ----- --- --- bonds' -------- ----- --- ------ ----- --<br>----- ----- ---------- --- --- ------ ------ ---- -- ------<br>------- --- ------ ----- --- ---- ------- -- ---- --- --<br>------- ------,162409.5,162408.60000000894,161958.684,161963.80000001192,161971.444,162438.07,,26,bonds'
screen,html.Screen,2_1_1_1_27,2022-05-09T16:20:50.893Z,,,,,,,,,,,,,,,,,54,,,,,,,,,,,,,,263.73000001191394,,response,,,,100,,,,,,,Space,keypress(Space),,,,,,,,-- --- ---- --- ------ ----- ------- ---- -- --- ------- --<br>------- ---------- ------ -- ----- -- ----- -- ---- ------<br>--- ----- --- --- ------ interest ----- --- ------ ----- --<br>----- ----- ---------- --- --- ------ ------ ---- -- ------<br>------- --- ------ ----- --- ---- ------- -- ---- --- --<br>------- ------,162703,162701.80000001192,162421.102,162409.80000001192,162438.07,162725.68,,27,interest
screen,html.Screen,2_1_1_1_28,2022-05-09T16:20:51.196Z,,,,,,,,,,,,,,,,,54,,,,,,,,,,,,,,278.22000000596745,,response,,,,100,,,,,,,Space,keypress(Space),,,,,,,,-- --- ---- --- ------ ----- ------- ---- -- --- ------- --<br>------- ---------- ------ -- ----- -- ----- -- ---- ------<br>--- ----- --- --- ------ -------- rate. --- ------ ----- --<br>----- ----- ---------- --- --- ------ ------ ---- -- ------<br>------- --- ------ ----- --- ---- ------- -- ---- --- --<br>------- ------,163005.90000000596,163003.90000000596,162690.84,162703.20000000298,162725.68,163020.986,,28,rate.
screen,html.Screen,2_1_1_1_29,2022-05-09T16:20:51.505Z,,,,,,,,,,,,,,,,,54,,,,,,,,,,,,,,292.2140000029758,,response,,,,100,,,,,,,Space,keypress(Space),,,,,,,,-- --- ---- --- ------ ----- ------- ---- -- --- ------- --<br>------- ---------- ------ -- ----- -- ----- -- ---- ------<br>--- ----- --- --- ------ -------- ----- The ------ ----- --<br>----- ----- ---------- --- --- ------ ------ ---- -- ------<br>------- --- ------ ----- --- ---- ------- -- ---- --- --<br>------- ------,163314.20000000298,163313.20000000298,162991.208,163006,163020.986,163320.943,,29,The
screen,html.Screen,2_1_1_1_30,2022-05-09T16:20:51.861Z,,,,,,,,,,,,,,,,,54,,,,,,,,,,,,,,348.45700000596116,,response,,,,100,,,,,,,Space,keypress(Space),,,,,,,,-- --- ---- --- ------ ----- ------- ---- -- --- ------- --<br>------- ---------- ------ -- ----- -- ----- -- ---- ------<br>--- ----- --- --- ------ -------- ----- --- market ----- --<br>----- ----- ---------- --- --- ------ ------ ---- -- ------<br>------- --- ------ ----- --- ---- ------- -- ---- --- --<br>------- ------,163670.40000000596,163669.40000000596,163308.119,163314.40000000596,163320.943,163687.545,,30,market
screen,html.Screen,2_1_1_1_31,2022-05-09T16:20:52.427Z,,,,,,,,,,,,,,,,,54,,,,,,,,,,,,,,547.4549999999872,,response,,,,100,,,,,,,Space,keypress(Space),,,,,,,,-- --- ---- --- ------ ----- ------- ---- -- --- ------- --<br>------- ---------- ------ -- ----- -- ----- -- ---- ------<br>--- ----- --- --- ------ -------- ----- --- ------ value --<br>----- ----- ---------- --- --- ------ ------ ---- -- ------<br>------- --- ------ ----- --- ---- ------- -- ---- --- --<br>------- ------,164236.20000000298,164235,163658.489,163670.60000000894,163687.545,164254.227,,31,value
screen,html.Screen,2_1_1_1_32,2022-05-09T16:20:52.834Z,,,,,,,,,,,,,,,,,54,,,,,,,,,,,,,,388.7729999999865,,response,,,,100,,,,,,,Space,keypress(Space),,,,,,,,-- --- ---- --- ------ ----- ------- ---- -- --- ------- --<br>------- ---------- ------ -- ----- -- ----- -- ---- ------<br>--- ----- --- --- ------ -------- ----- --- ------ ----- of<br>----- ----- ---------- --- --- ------ ------ ---- -- ------<br>------- --- ------ ----- --- ---- ------- -- ---- --- --<br>------- ------,164644.10000000894,164643,164227.862,164236.40000000596,164254.227,164653.975,,32,of
screen,html.Screen,2_1_1_1_33,2022-05-09T16:20:53.318Z,,,,,,,,,,,,,,,,,54,,,,,,,,,,,,,,472.42500000595464,,response,,,,100,,,,,,,Space,keypress(Space),,,,,,,,-- --- ---- --- ------ ----- ------- ---- -- --- ------- --<br>------- ---------- ------ -- ----- -- ----- -- ---- ------<br>--- ----- --- --- ------ -------- ----- --- ------ ----- --<br>these ----- ---------- --- --- ------ ------ ---- -- ------<br>------- --- ------ ----- --- ---- ------- -- ---- --- --<br>------- ------,165127.40000000596,165126.40000000596,164642.277,164644.40000000596,164653.975,165137.072,,33,these
screen,html.Screen,2_1_1_1_34,2022-05-09T16:20:53.626Z,,,,,,,,,,,,,,,,,54,,,,,,,,,,,,,,297.62800000299467,,response,,,,100,,,,,,,Space,keypress(Space),,,,,,,,-- --- ---- --- ------ ----- ------- ---- -- --- ------- --<br>------- ---------- ------ -- ----- -- ----- -- ---- ------<br>--- ----- --- --- ------ -------- ----- --- ------ ----- --<br>----- bonds ---------- --- --- ------ ------ ---- -- ------<br>------- --- ------ ----- --- ---- ------- -- ---- --- --<br>------- ------,165435.90000000596,165434.70000000298,165126.589,165127.70000000298,165137.072,165453.88,,34,bonds
screen,html.Screen,2_1_1_1_35,2022-05-09T16:20:53.925Z,,,,,,,,,,,,,,,,,54,,,,,,,,,,,,,,279.8200000029756,,response,,,,100,,,,,,,Space,keypress(Space),,,,,,,,"-- --- ---- --- ------ ----- ------- ---- -- --- ------- --<br>------- ---------- ------ -- ----- -- ----- -- ---- ------<br>--- ----- --- --- ------ -------- ----- --- ------ ----- --<br>----- ----- plummeted, --- --- ------ ------ ---- -- ------<br>------- --- ------ ----- --- ---- ------- -- ---- --- --<br>------- ------",165734.60000000894,165733.70000000298,165423.915,165436.20000000298,165453.88,165736.778,,35,"plummeted,"
screen,html.Screen,2_1_1_1_36,2022-05-09T16:20:54.276Z,,,,,,,,,,,,,,,,,54,,,,,,,,,,,,,,347.72200000000885,,response,,,,100,,,,,,,Space,keypress(Space),,,,,,,,-- --- ---- --- ------ ----- ------- ---- -- --- ------- --<br>------- ---------- ------ -- ----- -- ----- -- ---- ------<br>--- ----- --- --- ------ -------- ----- --- ------ ----- --<br>----- ----- ---------- and --- ------ ------ ---- -- ------<br>------- --- ------ ----- --- ---- ------- -- ---- --- --<br>------- ------,166085.70000000298,166084.5,165723.524,165734.90000000596,165736.778,166103.594,,36,and
screen,html.Screen,2_1_1_1_37,2022-05-09T16:20:54.626Z,,,,,,,,,,,,,,,,,54,,,,,,,,,,,,,,330.9059999999881,,response,,,,100,,,,,,,Space,keypress(Space),,,,,,,,-- --- ---- --- ------ ----- ------- ---- -- --- ------- --<br>------- ---------- ------ -- ----- -- ----- -- ---- ------<br>--- ----- --- --- ------ -------- ----- --- ------ ----- --<br>----- ----- ---------- --- the ------ ------ ---- -- ------<br>------- --- ------ ----- --- ---- ------- -- ---- --- --<br>------- ------,166435.80000001192,166434.5,166074.43,166086.10000000894,166103.594,166453.583,,37,the
screen,html.Screen,2_1_1_1_38,2022-05-09T16:20:54.954Z,,,,,,,,,,,,,,,,,54,,,,,,,,,,,,,,309.3170000059472,,response,,,,100,,,,,,,Space,keypress(Space),,,,,,,,-- --- ---- --- ------ ----- ------- ---- -- --- ------- --<br>------- ---------- ------ -- ----- -- ----- -- ---- ------<br>--- ----- --- --- ------ -------- ----- --- ------ ----- --<br>----- ----- ---------- --- --- market ------ ---- -- ------<br>------- --- ------ ----- --- ---- ------- -- ---- --- --<br>------- ------,166764.10000000894,166762.90000000596,166424.271,166436.20000000298,166453.583,166769.806,,38,market
screen,html.Screen,2_1_1_1_39,2022-05-09T16:20:55.269Z,,,,,,,,,,,,,,,,,54,,,,,,,,,,,,,,307.6939999999886,,response,,,,100,,,,,,,Space,keypress(Space),,,,,,,,-- --- ---- --- ------ ----- ------- ---- -- --- ------- --<br>------- ---------- ------ -- ----- -- ----- -- ---- ------<br>--- ----- --- --- ------ -------- ----- --- ------ ----- --<br>----- ----- ---------- --- --- ------ became ---- -- ------<br>------- --- ------ ----- --- ---- ------- -- ---- --- --<br>------- ------,167078.40000000596,167077.5,166757.088,166764.30000001192,166769.806,167086.637,,39,became
screen,html.Screen,2_1_1_1_40,2022-05-09T16:20:55.574Z,,,,,,,,,,,,,,,,,54,,,,,,,,,,,,,,296.06300000299234,,response,,,,100,,,,,,,Space,keypress(Space),,,,,,,,-- --- ---- --- ------ ----- ------- ---- -- --- ------- --<br>------- ---------- ------ -- ----- -- ----- -- ---- ------<br>--- ----- --- --- ------ -------- ----- --- ------ ----- --<br>----- ----- ---------- --- --- ------ ------ wary -- ------<br>------- --- ------ ----- --- ---- ------- -- ---- --- --<br>------- ------,167383.80000001192,167382.70000000298,167073.823,167078.60000000894,167086.637,167386.342,,40,wary
screen,html.Screen,2_1_1_1_41,2022-05-09T16:20:55.929Z,,,,,,,,,,,,,,,,,54,,,,,,,,,,,,,,351.0580000059563,,response,,,,100,,,,,,,Space,keypress(Space),,,,,,,,-- --- ---- --- ------ ----- ------- ---- -- --- ------- --<br>------- ---------- ------ -- ----- -- ----- -- ---- ------<br>--- ----- --- --- ------ -------- ----- --- ------ ----- --<br>----- ----- ---------- --- --- ------ ------ ---- of ------<br>------- --- ------ ----- --- ---- ------- -- ---- --- --<br>------- ------,167738.5,167737.40000000596,167373.447,167384.10000000894,167386.342,167753.118,,41,of
screen,html.Screen,2_1_1_1_42,2022-05-09T16:20:56.289Z,,,,,,,,,,,,,,,,,54,,,,,,,,,,,,,,344.68200001193327,,response,,,,100,,,,,,,Space,keypress(Space),,,,,,,,-- --- ---- --- ------ ----- ------- ---- -- --- ------- --<br>------- ---------- ------ -- ----- -- ----- -- ---- ------<br>--- ----- --- --- ------ -------- ----- --- ------ ----- --<br>----- ----- ---------- --- --- ------ ------ ---- -- French<br>------- --- ------ ----- --- ---- ------- -- ---- --- --<br>------- ------,168098.90000000596,168097.80000001192,167723.953,167738.90000000596,167753.118,168102.758,,42,French
screen,html.Screen,2_1_1_1_43,2022-05-09T16:20:56.598Z,,,,,,,,,,,,,,,,,54,,,,,,,,,,,,,,304.5420000119193,,response,,,,100,,,,,,,Space,keypress(Space),,,,,,,,-- --- ---- --- ------ ----- ------- ---- -- --- ------- --<br>------- ---------- ------ -- ----- -- ----- -- ---- ------<br>--- ----- --- --- ------ -------- ----- --- ------ ----- --<br>----- ----- ---------- --- --- ------ ------ ---- -- ------<br>credit. --- ------ ----- --- ---- ------- -- ---- --- --<br>------- ------,168408.10000000894,168407.30000001192,168090.542,168099.10000000894,168102.758,168419.474,,43,credit.
screen,html.Screen,2_1_1_1_44,2022-05-09T16:20:57.038Z,,,,,,,,,,,,,,,,,54,,,,,,,,,,,,,,427.12600000895327,,response,,,,100,,,,,,,Space,keypress(Space),,,,,,,,-- --- ---- --- ------ ----- ------- ---- -- --- ------- --<br>------- ---------- ------ -- ----- -- ----- -- ---- ------<br>--- ----- --- --- ------ -------- ----- --- ------ ----- --<br>----- ----- ---------- --- --- ------ ------ ---- -- ------<br>------- The ------ ----- --- ---- ------- -- ---- --- --<br>------- ------,168847.60000000894,168846.60000000894,168406.572,168408.30000001192,168419.474,168852.612,,44,The
screen,html.Screen,2_1_1_1_45,2022-05-09T16:20:57.405Z,,,,,,,,,,,,,,,,,54,,,,,,,,,,,,,,360.78800000596675,,response,,,,100,,,,,,,Space,keypress(Space),,,,,,,,-- --- ---- --- ------ ----- ------- ---- -- --- ------- --<br>------- ---------- ------ -- ----- -- ----- -- ---- ------<br>--- ----- --- --- ------ -------- ----- --- ------ ----- --<br>----- ----- ---------- --- --- ------ ------ ---- -- ------<br>------- --- French ----- --- ---- ------- -- ---- --- --<br>------- ------,169214.30000001192,169213.40000000596,168841.697,168847.90000000596,168852.612,169219.096,,45,French
screen,html.Screen,2_1_1_1_46,2022-05-09T16:20:57.765Z,,,,,,,,,,,,,,,,,54,,,,,,,,,,,,,,354.50400000895024,,response,,,,100,,,,,,,Space,keypress(Space),,,,,,,,-- --- ---- --- ------ ----- ------- ---- -- --- ------- --<br>------- ---------- ------ -- ----- -- ----- -- ---- ------<br>--- ----- --- --- ------ -------- ----- --- ------ ----- --<br>----- ----- ---------- --- --- ------ ------ ---- -- ------<br>------- --- ------ state --- ---- ------- -- ---- --- --<br>------- ------,169574.70000000298,169573.60000000894,169207.242,169214.60000000894,169219.096,169585.742,,46,state
screen,html.Screen,2_1_1_1_47,2022-05-09T16:20:58.091Z,,,,,,,,,,,,,,,,,54,,,,,,,,,,,,,,313.6580000059621,,response,,,,100,,,,,,,Space,keypress(Space),,,,,,,,-- --- ---- --- ------ ----- ------- ---- -- --- ------- --<br>------- ---------- ------ -- ----- -- ----- -- ---- ------<br>--- ----- --- --- ------ -------- ----- --- ------ ----- --<br>----- ----- ---------- --- --- ------ ------ ---- -- ------<br>------- --- ------ ----- was ---- ------- -- ---- --- --<br>------- ------,169900.40000000596,169899.40000000596,169573.834,169575,169585.742,169925.25,,47,was
screen,html.Screen,2_1_1_1_48,2022-05-09T16:20:58.463Z,,,,,,,,,,,,,,,,,54,,,,,,,,,,,,,,346.65000000596046,,response,,,,100,,,,,,,Space,keypress(Space),,,,,,,,-- --- ---- --- ------ ----- ------- ---- -- --- ------- --<br>------- ---------- ------ -- ----- -- ----- -- ---- ------<br>--- ----- --- --- ------ -------- ----- --- ------ ----- --<br>----- ----- ---------- --- --- ------ ------ ---- -- ------<br>------- --- ------ ----- --- left ------- -- ---- --- --<br>------- ------,170273,170271.90000000596,169889.554,169900.80000001192,169925.25,170285.579,,48,left
screen,html.Screen,2_1_1_1_49,2022-05-09T16:20:58.767Z,,,,,,,,,,,,,,,,,54,,,,,,,,,,,,,,289.9210000000021,,response,,,,100,,,,,,,Space,keypress(Space),,,,,,,,-- --- ---- --- ------ ----- ------- ---- -- --- ------- --<br>------- ---------- ------ -- ----- -- ----- -- ---- ------<br>--- ----- --- --- ------ -------- ----- --- ------ ----- --<br>----- ----- ---------- --- --- ------ ------ ---- -- ------<br>------- --- ------ ----- --- ---- without -- ---- --- --<br>------- ------,170576.70000000298,170575.5,170273.606,170273.20000000298,170285.579,170585.445,,49,without
screen,html.Screen,2_1_1_1_50,2022-05-09T16:20:59.079Z,,,,,,,,,,,,,,,,,54,,,,,,,,,,,,,,301.75500000297325,,response,,,,100,,,,,,,Space,keypress(Space),,,,,,,,-- --- ---- --- ------ ----- ------- ---- -- --- ------- --<br>------- ---------- ------ -- ----- -- ----- -- ---- ------<br>--- ----- --- --- ------ -------- ----- --- ------ ----- --<br>----- ----- ---------- --- --- ------ ------ ---- -- ------<br>------- --- ------ ----- --- ---- ------- an ---- --- --<br>------- ------,170888.5,170887.20000000298,170572.671,170577.10000000894,170585.445,170902.309,,50,an
screen,html.Screen,2_1_1_1_51,2022-05-09T16:20:59.462Z,,,,,,,,,,,,,,,,,54,,,,,,,,,,,,,,368.0910000059521,,response,,,,100,,,,,,,Space,keypress(Space),,,,,,,,-- --- ---- --- ------ ----- ------- ---- -- --- ------- --<br>------- ---------- ------ -- ----- -- ----- -- ---- ------<br>--- ----- --- --- ------ -------- ----- --- ------ ----- --<br>----- ----- ---------- --- --- ------ ------ ---- -- ------<br>------- --- ------ ----- --- ---- ------- -- easy --- --<br>------- ------,171271.30000001192,171270.40000000596,170889.506,170888.90000000596,170902.309,171285.339,,51,easy
screen,html.Screen,2_1_1_1_52,2022-05-09T16:20:59.820Z,,,,,,,,,,,,,,,,,54,,,,,,,,,,,,,,342.6609999999928,,response,,,,100,,,,,,,Space,keypress(Space),,,,,,,,-- --- ---- --- ------ ----- ------- ---- -- --- ------- --<br>------- ---------- ------ -- ----- -- ----- -- ---- ------<br>--- ----- --- --- ------ -------- ----- --- ------ ----- --<br>----- ----- ---------- --- --- ------ ------ ---- -- ------<br>------- --- ------ ----- --- ---- ------- -- ---- way --<br>------- ------,171629.20000000298,171628,171256.506,171271.5,171285.339,171635.068,,52,way
screen,html.Screen,2_1_1_1_53,2022-05-09T16:21:00.522Z,,,,,,,,,,,,,,,,,54,,,,,,,,,,,,,,696.0320000089414,,response,,,,100,,,,,,,Space,keypress(Space),,,,,,,,-- --- ---- --- ------ ----- ------- ---- -- --- ------- --<br>------- ---------- ------ -- ----- -- ----- -- ---- ------<br>--- ----- --- --- ------ -------- ----- --- ------ ----- --<br>----- ----- ---------- --- --- ------ ------ ---- -- ------<br>------- --- ------ ----- --- ---- ------- -- ---- --- of<br>------- ------,172332.20000000298,172331.10000000894,171622.853,171629.5,171635.068,172334.836,,53,of
screen,html.Screen,2_1_1_1_54,2022-05-09T16:21:00.867Z,,,,,,,,,,,,,,,,,54,,,,,,,,,,,,,,340.5640000059502,,response,,,,100,,,,,,,Space,keypress(Space),,,,,,,,-- --- ---- --- ------ ----- ------- ---- -- --- ------- --<br>------- ---------- ------ -- ----- -- ----- -- ---- ------<br>--- ----- --- --- ------ -------- ----- --- ------ ----- --<br>----- ----- ---------- --- --- ------ ------ ---- -- ------<br>------- --- ------ ----- --- ---- ------- -- ---- --- --<br>raising ------,172676.40000000596,172675.40000000596,172327.648,172332.30000001192,172334.836,172684.912,,54,raising
screen,html.Screen,2_1_1_1_55,2022-05-09T16:21:01.219Z,,,,,,,,,,,,,,,,,54,,,,,,,,,,,,,,342.78800000296906,,response,,,,100,,,,,,,Space,keypress(Space),,,,,,,,-- --- ---- --- ------ ----- ------- ---- -- --- ------- --<br>------- ---------- ------ -- ----- -- ----- -- ---- ------<br>--- ----- --- --- ------ -------- ----- --- ------ ----- --<br>----- ----- ---------- --- --- ------ ------ ---- -- ------<br>------- --- ------ ----- --- ---- ------- -- ---- --- --<br>------- money.,173028.70000000298,173027.70000000298,172672.475,172676.70000000298,172684.912,173034.651,,55,money.
Item 100,flow.Loop,2_1_1_1,2022-05-09T16:21:01.220Z,,,,,,,,,,,,,,,,,,,,,,,,,,,,,,,20953.285000002972,,completion,,,,,G,,,,,,,,,,,silence,,,,,173029.30000001192,173027.70000000298,152057.576,152058.70000000298,152074.415,173034.651,,,
Question 1,html.Screen,2_1_1_2,2022-05-09T16:21:03.778Z,,,,,,,,,,,,,,,,,,,,,,,,,,,,true,TRUE,,2551.8489999999874,,response,,,,100,G,,,,,,TRUE,click #choice-1,,,,silence,,,,,175588.10000000894,175586.5,173022.34,173029.40000000596,173034.651,175600.577,,,
Question 2,html.Screen,2_1_1_3,2022-05-09T16:21:06.214Z,,,,,,,,,,,,,,,,,,,,,,,,,,,,true,FALSE,,2421.2230000119307,,response,,,,100,G,,,,,,FALSE,click #choice-2,,,,silence,,,,,178023.30000001192,178021.80000001192,175584.914,175588.40000000596,175600.577,178033.247,,,
Item 100,flow.Sequence,2_1_1,2022-05-09T16:21:06.214Z,,,,,,,,,,,,,,,,,,,,,,,,,,,,,,,35944.729000011925,,completion,,,,,,,,,,,,,,,,,,,,,178023.60000000894,178021.80000001192,142061.227,142070.90000000596,142077.071,178033.247,,,
End of Practice,html.Page,2_1_2,2022-05-09T16:21:08.818Z,,,,,,,,,,,,,,,,,,,,,,,,,,,,,,,2594.3530000089377,,form submission,,,,,,,,,,,,,,,,,,,,,180628.10000000894,180627.60000000894,178017.494,178023.90000000596,178033.247,180632.508,,,
Practice,flow.Sequence,2_1,2022-05-09T16:21:08.819Z,,,,,,,,,,,,,,,,,,,,,,,,,,,,,,,84702.84400000895,,completion,,,,,,,,,,,,,,,,,,,,,180628.60000000894,180627.60000000894,95907.402,95909.40000000596,95924.756,180632.508,,,
Trap_instruction,html.Page,2_2_0,2022-05-09T16:21:11.637Z,,,,,,,,,,,,,,,,,,,,,,,,,,,,,,,2813.7920000119193,,form submission,,,,,,,,,,,,,,,,,,,,,183446.70000000298,183446.30000001192,180616.735,180628.90000000596,180632.508,183468.039,,,
trap_trial,html.Screen,2_2_1,2022-05-09T16:21:15.306Z,,,,,,,,,,,,,,,,,,,,,,,,,,,,true,1,,3646.4610000000102,,response,,,,,,,,,,,1,click #choice-1,,,,,,,,,187116,187114.5,183432.444,183447,183468.039,187130.697,,,
end of trap trial,html.Page,2_2_2,2022-05-09T16:21:16.789Z,,,,,,,,,,,,,,,,,,,,,,,,,,,,,,,1467.3030000000144,,form submission,,,,,,,,,,,,,,,,,,,,,188598.40000000596,188598,187115.114,187116.30000001192,187130.697,188613.524,,,
Trap 1,flow.Sequence,2_2,2022-05-09T16:21:16.789Z,,,,,,,,,,,,,,,,,,,,,,,,,,,,,,,7965.491999999998,,completion,,,,,,,,,,,,,,,,,,,,,188598.80000001192,188598,180616.735,180628.90000000596,180632.508,188613.524,,,
Standby,html.Page,2_3_0,2022-05-09T16:21:24.786Z,,,,,,,,,,,,,,,,,,,,,,,,,,,,,,,7997.636999999988,,timeout,,,,,,,,,,,,,,,,,,,,,196596,196594.69,188596.878,188599.10000000894,188613.524,196611.161,,,
Holding screen,html.Screen,2_3_1_0_0,2022-05-09T16:21:31.784Z,,,,,,,,,,,,,,,,,,,,,,,,,,,,,,,6998.070999999996,,timeout,,,,,,,,,,,,,,,,,,,,,203593.5,203592.651,196594.69,196596.5,196611.161,203609.232,,,
screen,html.Screen,2_3_1_0_1_0,2022-05-09T16:21:33.350Z,,,,,,,,,,,,,,,,,2,,,,,,,,,,,,,,1548.768000000011,,response,,,,1,G,,,,,,Space,keypress(Space),,,,instrumental,,,,Two ---- ------ --- ------- ---------- ------- ----------<br>--- --------- --- ----------- ------- ----- ------- ---<br>--------- ---- -- --- ---- -- --------- -- ---- -------<br>-- --------- ------ --- ----- ------ ---- --- --------- --<br>------ - ---- -- --- ----------- ------- ---- ----- -----<br>--- -------- - ------ ---- -- ----- ---- --- --- -----------<br>-- -------,205159.30000001192,205158,203592.651,203594,203609.232,205175.472,,0,Two
screen,html.Screen,2_3_1_0_1_1,2022-05-09T16:21:33.910Z,,,,,,,,,,,,,,,,,2,,,,,,,,,,,,,,542.6280000089318,,response,,,,1,G,,,,,,Space,keypress(Space),,,,instrumental,,,,--- days ------ --- ------- ---------- ------- ----------<br>--- --------- --- ----------- ------- ----- ------- ---<br>--------- ---- -- --- ---- -- --------- -- ---- -------<br>-- --------- ------ --- ----- ------ ---- --- --------- --<br>------ - ---- -- --- ----------- ------- ---- ----- -----<br>--- -------- - ------ ---- -- ----- ---- --- --- -----------<br>-- -------,205719.40000000596,205718.10000000894,205146.708,205159.60000000894,205175.472,205725.113,,1,days
screen,html.Screen,2_3_1_0_1_2,2022-05-09T16:21:34.510Z,,,,,,,,,,,,,,,,,2,,,,,,,,,,,,,,592.9870000089286,,response,,,,1,G,,,,,,Space,keypress(Space),,,,instrumental,,,,"--- ---- later, --- ------- ---------- ------- ----------<br>--- --------- --- ----------- ------- ----- ------- ---<br>--------- ---- -- --- ---- -- --------- -- ---- -------<br>-- --------- ------ --- ----- ------ ---- --- --------- --<br>------ - ---- -- --- ----------- ------- ---- ----- -----<br>--- -------- - ------ ---- -- ----- ---- --- --- -----------<br>-- -------",206319.40000000596,206318.10000000894,205716.015,205719.60000000894,205725.113,206324.982,,2,"later,"
screen,html.Screen,2_3_1_0_1_3,2022-05-09T16:21:35.196Z,,,,,,,,,,,,,,,,,2,,,,,,,,,,,,,,679.8180000119319,,response,,,,1,G,,,,,,Space,keypress(Space),,,,instrumental,,,,--- ---- ------ the ------- ---------- ------- ----------<br>--- --------- --- ----------- ------- ----- ------- ---<br>--------- ---- -- --- ---- -- --------- -- ---- -------<br>-- --------- ------ --- ----- ------ ---- --- --------- --<br>------ - ---- -- --- ----------- ------- ---- ----- -----<br>--- -------- - ------ ---- -- ----- ---- --- --- -----------<br>-- -------,207006,207004.80000001192,206316.301,206319.5,206324.982,207008.069,,3,the
screen,html.Screen,2_3_1_0_1_4,2022-05-09T16:21:35.717Z,,,,,,,,,,,,,,,,,2,,,,,,,,,,,,,,517.1310000029916,,response,,,,1,G,,,,,,Space,keypress(Space),,,,instrumental,,,,--- ---- ------ --- British ---------- ------- ----------<br>--- --------- --- ----------- ------- ----- ------- ---<br>--------- ---- -- --- ---- -- --------- -- ---- -------<br>-- --------- ------ --- ----- ------ ---- --- --------- --<br>------ - ---- -- --- ----------- ------- ---- ----- -----<br>--- -------- - ------ ---- -- ----- ---- --- --- -----------<br>-- -------,207526.40000000596,207525.20000000298,207000.596,207006.30000001192,207008.069,207541.393,,4,British
screen,html.Screen,2_3_1_0_1_5,2022-05-09T16:21:36.200Z,,,,,,,,,,,,,,,,,2,,,,,,,,,,,,,,466.70700000892975,,response,,,,1,G,,,,,,Space,keypress(Space),,,,instrumental,,,,--- ---- ------ --- ------- astronomer ------- ----------<br>--- --------- --- ----------- ------- ----- ------- ---<br>--------- ---- -- --- ---- -- --------- -- ---- -------<br>-- --------- ------ --- ----- ------ ---- --- --------- --<br>------ - ---- -- --- ----------- ------- ---- ----- -----<br>--- -------- - ------ ---- -- ----- ---- --- --- -----------<br>-- -------,208009.10000000894,208008.10000000894,207514.816,207526.60000000894,207541.393,208024.835,,5,astronomer
screen,html.Screen,2_3_1_0_1_6,2022-05-09T16:21:36.525Z,,,,,,,,,,,,,,,,,2,,,,,,,,,,,,,,309.0650000059686,,response,,,,1,G,,,,,,Space,keypress(Space),,,,instrumental,,,,--- ---- ------ --- ------- ---------- Richard ----------<br>--- --------- --- ----------- ------- ----- ------- ---<br>--------- ---- -- --- ---- -- --------- -- ---- -------<br>-- --------- ------ --- ----- ------ ---- --- --------- --<br>------ - ---- -- --- ----------- ------- ---- ----- -----<br>--- -------- - ------ ---- -- ----- ---- --- --- -----------<br>-- -------,208334.80000001192,208333.90000000596,207997.34,208009.40000000596,208024.835,208341.097,,6,Richard
screen,html.Screen,2_3_1_0_1_7,2022-05-09T16:21:37.081Z,,,,,,,,,,,,,,,,,2,,,,,,,,,,,,,,549.5030000089318,,response,,,,1,G,,,,,,Space,keypress(Space),,,,instrumental,,,,--- ---- ------ --- ------- ---------- ------- Carrington<br>--- --------- --- ----------- ------- ----- ------- ---<br>--------- ---- -- --- ---- -- --------- -- ---- -------<br>-- --------- ------ --- ----- ------ ---- --- --------- --<br>------ - ---- -- --- ----------- ------- ---- ----- -----<br>--- -------- - ------ ---- -- ----- ---- --- --- -----------<br>-- -------,208891.60000000894,208890.60000000894,208328.248,208335,208341.097,208907.605,,7,Carrington
screen,html.Screen,2_3_1_0_1_8,2022-05-09T16:21:37.486Z,,,,,,,,,,,,,,,,,2,,,,,,,,,,,,,,387.19500001191045,,response,,,,1,G,,,,,,Space,keypress(Space),,,,instrumental,,,,--- ---- ------ --- ------- ---------- ------- ----------<br>was --------- --- ----------- ------- ----- ------- ---<br>--------- ---- -- --- ---- -- --------- -- ---- -------<br>-- --------- ------ --- ----- ------ ---- --- --------- --<br>------ - ---- -- --- ----------- ------- ---- ----- -----<br>--- -------- - ------ ---- -- ----- ---- --- --- -----------<br>-- -------,209295.90000000596,209294.80000001192,208881.447,208891.80000001192,208907.605,209307.563,,8,was
screen,html.Screen,2_3_1_0_1_9,2022-05-09T16:21:37.878Z,,,,,,,,,,,,,,,,,2,,,,,,,,,,,,,,379.2370000119263,,response,,,,1,G,,,,,,Space,keypress(Space),,,,instrumental,,,,--- ---- ------ --- ------- ---------- ------- ----------<br>--- observing --- ----------- ------- ----- ------- ---<br>--------- ---- -- --- ---- -- --------- -- ---- -------<br>-- --------- ------ --- ----- ------ ---- --- --------- --<br>------ - ---- -- --- ----------- ------- ---- ----- -----<br>--- -------- - ------ ---- -- ----- ---- --- --- -----------<br>-- -------,209687.90000000596,209686.80000001192,209295.84,209296.10000000894,209307.563,209690.672,,9,observing
screen,html.Screen,2_3_1_0_1_10,2022-05-09T16:21:38.222Z,,,,,,,,,,,,,,,,,2,,,,,,,,,,,,,,340.12800001192954,,response,,,,1,G,,,,,,Space,keypress(Space),,,,instrumental,,,,--- ---- ------ --- ------- ---------- ------- ----------<br>--- --------- the ----------- ------- ----- ------- ---<br>--------- ---- -- --- ---- -- --------- -- ---- -------<br>-- --------- ------ --- ----- ------ ---- --- --------- --<br>------ - ---- -- --- ----------- ------- ---- ----- -----<br>--- -------- - ------ ---- -- ----- ---- --- --- -----------<br>-- -------,210031.80000001192,210030.80000001192,209678.847,209688.10000000894,209690.672,210040.644,,10,the
screen,html.Screen,2_3_1_0_1_11,2022-05-09T16:21:38.932Z,,,,,,,,,,,,,,,,,2,,,,,,,,,,,,,,701.1560000119207,,response,,,,1,G,,,,,,Space,keypress(Space),,,,instrumental,,,,--- ---- ------ --- ------- ---------- ------- ----------<br>--- --------- --- interesting ------- ----- ------- ---<br>--------- ---- -- --- ---- -- --------- -- ---- -------<br>-- --------- ------ --- ----- ------ ---- --- --------- --<br>------ - ---- -- --- ----------- ------- ---- ----- -----<br>--- -------- - ------ ---- -- ----- ---- --- --- -----------<br>-- -------,210742.70000000298,210741.80000001192,210028.466,210031.90000000596,210040.644,210757.293,,11,interesting
screen,html.Screen,2_3_1_0_1_12,2022-05-09T16:21:39.630Z,,,,,,,,,,,,,,,,,2,,,,,,,,,,,,,,681.4070000029751,,response,,,,1,G,,,,,,Space,keypress(Space),,,,instrumental,,,,--- ---- ------ --- ------- ---------- ------- ----------<br>--- --------- --- ----------- sunspot ----- ------- ---<br>--------- ---- -- --- ---- -- --------- -- ---- -------<br>-- --------- ------ --- ----- ------ ---- --- --------- --<br>------ - ---- -- --- ----------- ------- ---- ----- -----<br>--- -------- - ------ ---- -- ----- ---- --- --- -----------<br>-- -------,211439.90000000596,211438.70000000298,210733.299,210742.80000001192,210757.293,211456.9,,12,sunspot
screen,html.Screen,2_3_1_0_1_13,2022-05-09T16:21:40.003Z,,,,,,,,,,,,,,,,,2,,,,,,,,,,,,,,355.5000000059663,,response,,,,1,G,,,,,,Space,keypress(Space),,,,instrumental,,,,--- ---- ------ --- ------- ---------- ------- ----------<br>--- --------- --- ----------- ------- group ------- ---<br>--------- ---- -- --- ---- -- --------- -- ---- -------<br>-- --------- ------ --- ----- ------ ---- --- --------- --<br>------ - ---- -- --- ----------- ------- ---- ----- -----<br>--- -------- - ------ ---- -- ----- ---- --- --- -----------<br>-- -------,211813.5,211812.40000000596,211432.689,211440.10000000894,211456.9,211823.482,,13,group
screen,html.Screen,2_3_1_0_1_14,2022-05-09T16:21:40.583Z,,,,,,,,,,,,,,,,,2,,,,,,,,,,,,,,568.6180000089516,,response,,,,1,G,,,,,,Space,keypress(Space),,,,instrumental,,,,--- ---- ------ --- ------- ---------- ------- ----------<br>--- --------- --- ----------- ------- ----- through ---<br>--------- ---- -- --- ---- -- --------- -- ---- -------<br>-- --------- ------ --- ----- ------ ---- --- --------- --<br>------ - ---- -- --- ----------- ------- ---- ----- -----<br>--- -------- - ------ ---- -- ----- ---- --- --- -----------<br>-- -------,212393.20000000298,212392.10000000894,211811.344,211813.80000001192,211823.482,212406.625,,14,through
screen,html.Screen,2_3_1_0_1_15,2022-05-09T16:21:40.938Z,,,,,,,,,,,,,,,,,2,,,,,,,,,,,,,,340.27500000596046,,response,,,,1,G,,,,,,Space,keypress(Space),,,,instrumental,,,,--- ---- ------ --- ------- ---------- ------- ----------<br>--- --------- --- ----------- ------- ----- ------- his<br>--------- ---- -- --- ---- -- --------- -- ---- -------<br>-- --------- ------ --- ----- ------ ---- --- --------- --<br>------ - ---- -- --- ----------- ------- ---- ----- -----<br>--- -------- - ------ ---- -- ----- ---- --- --- -----------<br>-- -------,212747.70000000298,212746.90000000596,212380.621,212393.30000001192,212406.625,212756.509,,15,his
screen,html.Screen,2_3_1_0_1_16,2022-05-09T16:21:41.494Z,,,,,,,,,,,,,,,,,2,,,,,,,,,,,,,,547.0910000089498,,response,,,,1,G,,,,,,Space,keypress(Space),,,,instrumental,,,,--- ---- ------ --- ------- ---------- ------- ----------<br>--- --------- --- ----------- ------- ----- ------- ---<br>telescope ---- -- --- ---- -- --------- -- ---- -------<br>-- --------- ------ --- ----- ------ ---- --- --------- --<br>------ - ---- -- --- ----------- ------- ---- ----- -----<br>--- -------- - ------ ---- -- ----- ---- --- --- -----------<br>-- -------,213304.70000000298,213303.60000000894,212744.064,212748,212756.509,213327.363,,16,telescope
screen,html.Screen,2_3_1_0_1_17,2022-05-09T16:21:41.921Z,,,,,,,,,,,,,,,,,2,,,,,,,,,,,,,,403.2370000089286,,response,,,,1,G,,,,,,Space,keypress(Space),,,,instrumental,,,,--- ---- ------ --- ------- ---------- ------- ----------<br>--- --------- --- ----------- ------- ----- ------- ---<br>--------- when -- --- ---- -- --------- -- ---- -------<br>-- --------- ------ --- ----- ------ ---- --- --------- --<br>------ - ---- -- --- ----------- ------- ---- ----- -----<br>--- -------- - ------ ---- -- ----- ---- --- --- -----------<br>-- -------,213731.40000000596,213730.60000000894,213296.891,213304.80000001192,213327.363,213739.496,,17,when
screen,html.Screen,2_3_1_0_1_18,2022-05-09T16:21:42.278Z,,,,,,,,,,,,,,,,,2,,,,,,,,,,,,,,347.9040000059467,,response,,,,1,G,,,,,,Space,keypress(Space),,,,instrumental,,,,--- ---- ------ --- ------- ---------- ------- ----------<br>--- --------- --- ----------- ------- ----- ------- ---<br>--------- ---- he --- ---- -- --------- -- ---- -------<br>-- --------- ------ --- ----- ------ ---- --- --------- --<br>------ - ---- -- --- ----------- ------- ---- ----- -----<br>--- -------- - ------ ---- -- ----- ---- --- --- -----------<br>-- -------,214088.40000000596,214087.40000000596,213728.103,213731.60000000894,213739.496,214106.066,,18,he
screen,html.Screen,2_3_1_0_1_19,2022-05-09T16:21:42.583Z,,,,,,,,,,,,,,,,,2,,,,,,,,,,,,,,286.6340000029886,,response,,,,1,G,,,,,,Space,keypress(Space),,,,instrumental,,,,--- ---- ------ --- ------- ---------- ------- ----------<br>--- --------- --- ----------- ------- ----- ------- ---<br>--------- ---- -- saw ---- -- --------- -- ---- -------<br>-- --------- ------ --- ----- ------ ---- --- --------- --<br>------ - ---- -- --- ----------- ------- ---- ----- -----<br>--- -------- - ------ ---- -- ----- ---- --- --- -----------<br>-- -------,214393.70000000298,214392.70000000298,214077.198,214088.80000001192,214106.066,214406.23,,19,saw
screen,html.Screen,2_3_1_0_1_20,2022-05-09T16:21:42.920Z,,,,,,,,,,,,,,,,,2,,,,,,,,,,,,,,322.8700000089302,,response,,,,1,G,,,,,,Space,keypress(Space),,,,instrumental,,,,--- ---- ------ --- ------- ---------- ------- ----------<br>--- --------- --- ----------- ------- ----- ------- ---<br>--------- ---- -- --- what -- --------- -- ---- -------<br>-- --------- ------ --- ----- ------ ---- --- --------- --<br>------ - ---- -- --- ----------- ------- ---- ----- -----<br>--- -------- - ------ ---- -- ----- ---- --- --- -----------<br>-- -------,214730.10000000894,214729.10000000894,214392.93,214393.90000000596,214406.23,214739.175,,20,what
screen,html.Screen,2_3_1_0_1_21,2022-05-09T16:21:43.231Z,,,,,,,,,,,,,,,,,2,,,,,,,,,,,,,,301.32500000001164,,response,,,,1,G,,,,,,Space,keypress(Space),,,,instrumental,,,,--- ---- ------ --- ------- ---------- ------- ----------<br>--- --------- --- ----------- ------- ----- ------- ---<br>--------- ---- -- --- ---- he --------- -- ---- -------<br>-- --------- ------ --- ----- ------ ---- --- --------- --<br>------ - ---- -- --- ----------- ------- ---- ----- -----<br>--- -------- - ------ ---- -- ----- ---- --- --- -----------<br>-- -------,215041.60000000894,215040.5,214726.7,214730.30000001192,214739.175,215055.833,,21,he
screen,html.Screen,2_3_1_0_1_22,2022-05-09T16:21:43.591Z,,,,,,,,,,,,,,,,,2,,,,,,,,,,,,,,344.16699999998673,,response,,,,1,G,,,,,,Space,keypress(Space),,,,instrumental,,,,--- ---- ------ --- ------- ---------- ------- ----------<br>--- --------- --- ----------- ------- ----- ------- ---<br>--------- ---- -- --- ---- -- described -- ---- -------<br>-- --------- ------ --- ----- ------ ---- --- --------- --<br>------ - ---- -- --- ----------- ------- ---- ----- -----<br>--- -------- - ------ ---- -- ----- ---- --- --- -----------<br>-- -------,215401,215400,215026.241,215041.70000000298,215055.833,215405.61,,22,described
screen,html.Screen,2_3_1_0_1_23,2022-05-09T16:21:43.869Z,,,,,,,,,,,,,,,,,2,,,,,,,,,,,,,,272.5900000029942,,response,,,,1,G,,,,,,Space,keypress(Space),,,,instrumental,,,,--- ---- ------ --- ------- ---------- ------- ----------<br>--- --------- --- ----------- ------- ----- ------- ---<br>--------- ---- -- --- ---- -- --------- as ---- -------<br>-- --------- ------ --- ----- ------ ---- --- --------- --<br>------ - ---- -- --- ----------- ------- ---- ----- -----<br>--- -------- - ------ ---- -- ----- ---- --- --- -----------<br>-- -------,215679.40000000596,215678.20000000298,215393.322,215401.20000000298,215405.61,215689.012,,23,as
screen,html.Screen,2_3_1_0_1_24,2022-05-09T16:21:44.172Z,,,,,,,,,,,,,,,,,2,,,,,,,,,,,,,,292.4880000000121,,response,,,,1,G,,,,,,Space,keypress(Space),,,,instrumental,,,,"--- ---- ------ --- ------- ---------- ------- ----------<br>--- --------- --- ----------- ------- ----- ------- ---<br>--------- ---- -- --- ---- -- --------- -- ""two -------<br>-- --------- ------ --- ----- ------ ---- --- --------- --<br>------ - ---- -- --- ----------- ------- ---- ----- -----<br>--- -------- - ------ ---- -- ----- ---- --- --- -----------<br>-- -------",215982.5,215981.5,215675.718,215679.60000000894,215689.012,215989.051,,24,"""two"
screen,html.Screen,2_3_1_0_1_25,2022-05-09T16:21:44.541Z,,,,,,,,,,,,,,,,,2,,,,,,,,,,,,,,361.3490000059537,,response,,,,1,G,,,,,,Space,keypress(Space),,,,instrumental,,,,--- ---- ------ --- ------- ---------- ------- ----------<br>--- --------- --- ----------- ------- ----- ------- ---<br>--------- ---- -- --- ---- -- --------- -- ---- patches<br>-- --------- ------ --- ----- ------ ---- --- --------- --<br>------ - ---- -- --- ----------- ------- ---- ----- -----<br>--- -------- - ------ ---- -- ----- ---- --- --- -----------<br>-- -------,216351.5,216350.40000000596,215975.977,215982.80000001192,215989.051,216355.383,,25,patches
screen,html.Screen,2_3_1_0_1_26,2022-05-09T16:21:44.890Z,,,,,,,,,,,,,,,,,2,,,,,,,,,,,,,,343.71700000893907,,response,,,,1,G,,,,,,Space,keypress(Space),,,,instrumental,,,,--- ---- ------ --- ------- ---------- ------- ----------<br>--- --------- --- ----------- ------- ----- ------- ---<br>--------- ---- -- --- ---- -- --------- -- ---- -------<br>of --------- ------ --- ----- ------ ---- --- --------- --<br>------ - ---- -- --- ----------- ------- ---- ----- -----<br>--- -------- - ------ ---- -- ----- ---- --- --- -----------<br>-- -------,216700.30000001192,216699.10000000894,216343.311,216351.70000000298,216355.383,216705.26,,26,of
screen,html.Screen,2_3_1_0_1_27,2022-05-09T16:21:45.239Z,,,,,,,,,,,,,,,,,2,,,,,,,,,,,,,,343.3400000089314,,response,,,,1,G,,,,,,Space,keypress(Space),,,,instrumental,,,,--- ---- ------ --- ------- ---------- ------- ----------<br>--- --------- --- ----------- ------- ----- ------- ---<br>--------- ---- -- --- ---- -- --------- -- ---- -------<br>-- intensely ------ --- ----- ------ ---- --- --------- --<br>------ - ---- -- --- ----------- ------- ---- ----- -----<br>--- -------- - ------ ---- -- ----- ---- --- --- -----------<br>-- -------,217049.60000000894,217048.60000000894,216693.045,216700.60000000894,216705.26,217055.151,,27,intensely
screen,html.Screen,2_3_1_0_1_28,2022-05-09T16:21:45.543Z,,,,,,,,,,,,,,,,,2,,,,,,,,,,,,,,296.9490000089281,,response,,,,1,G,,,,,,Space,keypress(Space),,,,instrumental,,,,--- ---- ------ --- ------- ---------- ------- ----------<br>--- --------- --- ----------- ------- ----- ------- ---<br>--------- ---- -- --- ---- -- --------- -- ---- -------<br>-- --------- bright --- ----- ------ ---- --- --------- --<br>------ - ---- -- --- ----------- ------- ---- ----- -----<br>--- -------- - ------ ---- -- ----- ---- --- --- -----------<br>-- -------,217353,217352.10000000894,217042.844,217049.80000001192,217055.151,217371.884,,28,bright
screen,html.Screen,2_3_1_0_1_29,2022-05-09T16:21:45.900Z,,,,,,,,,,,,,,,,,2,,,,,,,,,,,,,,337.51600000596954,,response,,,,1,G,,,,,,Space,keypress(Space),,,,instrumental,,,,--- ---- ------ --- ------- ---------- ------- ----------<br>--- --------- --- ----------- ------- ----- ------- ---<br>--------- ---- -- --- ---- -- --------- -- ---- -------<br>-- --------- ------ and ----- ------ ---- --- --------- --<br>------ - ---- -- --- ----------- ------- ---- ----- -----<br>--- -------- - ------ ---- -- ----- ---- --- --- -----------<br>-- -------,217710.5,217709.40000000596,217342.061,217354.10000000894,217371.884,217721.808,,29,and
screen,html.Screen,2_3_1_0_1_30,2022-05-09T16:21:46.318Z,,,,,,,,,,,,,,,,,2,,,,,,,,,,,,,,405.49200001193094,,response,,,,1,G,,,,,,Space,keypress(Space),,,,instrumental,,,,--- ---- ------ --- ------- ---------- ------- ----------<br>--- --------- --- ----------- ------- ----- ------- ---<br>--------- ---- -- --- ---- -- --------- -- ---- -------<br>-- --------- ------ --- white ------ ---- --- --------- --<br>------ - ---- -- --- ----------- ------- ---- ----- -----<br>--- -------- - ------ ---- -- ----- ---- --- --- -----------<br>-- -------,218128.30000001192,218127.30000001192,217709.533,217710.60000000894,217721.808,218138.299,,30,white
screen,html.Screen,2_3_1_0_1_31,2022-05-09T16:21:46.750Z,,,,,,,,,,,,,,,,,2,,,,,,,,,,,,,,421.3010000089416,,response,,,,1,G,,,,,,Space,keypress(Space),,,,instrumental,,,,"--- ---- ------ --- ------- ---------- ------- ----------<br>--- --------- --- ----------- ------- ----- ------- ---<br>--------- ---- -- --- ---- -- --------- -- ---- -------<br>-- --------- ------ --- ----- light"" ---- --- --------- --<br>------ - ---- -- --- ----------- ------- ---- ----- -----<br>--- -------- - ------ ---- -- ----- ---- --- --- -----------<br>-- -------",218560.60000000894,218559.60000000894,218126.793,218128.70000000298,218138.299,218571.52,,31,"light"""
screen,html.Screen,2_3_1_0_1_32,2022-05-09T16:21:47.426Z,,,,,,,,,,,,,,,,,2,,,,,,,,,,,,,,663.5800000089512,,response,,,,1,G,,,,,,Space,keypress(Space),,,,instrumental,,,,--- ---- ------ --- ------- ---------- ------- ----------<br>--- --------- --- ----------- ------- ----- ------- ---<br>--------- ---- -- --- ---- -- --------- -- ---- -------<br>-- --------- ------ --- ----- ------ over --- --------- --<br>------ - ---- -- --- ----------- ------- ---- ----- -----<br>--- -------- - ------ ---- -- ----- ---- --- --- -----------<br>-- -------,219236.40000000596,219235.10000000894,218560.296,218560.80000001192,218571.52,219269.14,,32,over
screen,html.Screen,2_3_1_0_1_33,2022-05-09T16:21:47.776Z,,,,,,,,,,,,,,,,,2,,,,,,,,,,,,,,315.85999999998603,,response,,,,1,G,,,,,,Space,keypress(Space),,,,instrumental,,,,--- ---- ------ --- ------- ---------- ------- ----------<br>--- --------- --- ----------- ------- ----- ------- ---<br>--------- ---- -- --- ---- -- --------- -- ---- -------<br>-- --------- ------ --- ----- ------ ---- the --------- --<br>------ - ---- -- --- ----------- ------- ---- ----- -----<br>--- -------- - ------ ---- -- ----- ---- --- --- -----------<br>-- -------,219586.30000001192,219585,219230.361,219236.60000000894,219269.14,219613.46,,33,the
screen,html.Screen,2_3_1_0_1_34,2022-05-09T16:21:48.131Z,,,,,,,,,,,,,,,,,2,,,,,,,,,,,,,,326.64000000894885,,response,,,,1,G,,,,,,Space,keypress(Space),,,,instrumental,,,,--- ---- ------ --- ------- ---------- ------- ----------<br>--- --------- --- ----------- ------- ----- ------- ---<br>--------- ---- -- --- ---- -- --------- -- ---- -------<br>-- --------- ------ --- ----- ------ ---- --- sunspots. --<br>------ - ---- -- --- ----------- ------- ---- ----- -----<br>--- -------- - ------ ---- -- ----- ---- --- --- -----------<br>-- -------,219941,219940.10000000894,219575.212,219586.5,219613.46,219954.477,,34,sunspots.
screen,html.Screen,2_3_1_0_1_35,2022-05-09T16:21:49.099Z,,,,,,,,,,,,,,,,,2,,,,,,,,,,,,,,953.2230000029667,,response,,,,1,G,,,,,,Space,keypress(Space),,,,instrumental,,,,--- ---- ------ --- ------- ---------- ------- ----------<br>--- --------- --- ----------- ------- ----- ------- ---<br>--------- ---- -- --- ---- -- --------- -- ---- -------<br>-- --------- ------ --- ----- ------ ---- --- --------- He<br>------ - ---- -- --- ----------- ------- ---- ----- -----<br>--- -------- - ------ ---- -- ----- ---- --- --- -----------<br>-- -------,220909,220907.70000000298,219925.123,219941.20000000298,219954.477,220920.869,,35,He
screen,html.Screen,2_3_1_0_1_36,2022-05-09T16:21:49.529Z,,,,,,,,,,,,,,,,,2,,,,,,,,,,,,,,416.9310000119149,,response,,,,1,G,,,,,,Space,keypress(Space),,,,instrumental,,,,--- ---- ------ --- ------- ---------- ------- ----------<br>--- --------- --- ----------- ------- ----- ------- ---<br>--------- ---- -- --- ---- -- --------- -- ---- -------<br>-- --------- ------ --- ----- ------ ---- --- --------- --<br>jotted - ---- -- --- ----------- ------- ---- ----- -----<br>--- -------- - ------ ---- -- ----- ---- --- --- -----------<br>-- -------,221339.10000000894,221337.80000001192,220900.435,220909.30000001192,220920.869,221354.207,,36,jotted
screen,html.Screen,2_3_1_0_1_37,2022-05-09T16:21:50.083Z,,,,,,,,,,,,,,,,,2,,,,,,,,,,,,,,537.9930000029854,,response,,,,1,G,,,,,,Space,keypress(Space),,,,instrumental,,,,--- ---- ------ --- ------- ---------- ------- ----------<br>--- --------- --- ----------- ------- ----- ------- ---<br>--------- ---- -- --- ---- -- --------- -- ---- -------<br>-- --------- ------ --- ----- ------ ---- --- --------- --<br>------ a ---- -- --- ----------- ------- ---- ----- -----<br>--- -------- - ------ ---- -- ----- ---- --- --- -----------<br>-- -------,221893,221892.20000000298,221326.111,221339.30000001192,221354.207,221904.052,,37,a
