sender,sender_type,sender_id,timestamp,meta,,Blues,Classical,Country,Dance,Electronic,Folk,Gospel,Hip-Hop,Jazz,Latin,Musical/Film,New-age,Pop,Prolific_id,Provo_ID,R&B,Rap,Reggae,Religious,Rock,Soul,Swing,Traditional,age,artist_name,correct,correctResponse,distraction,duration,education,ended_on,familiarity,gender,headphone_check_performance,item,list,music_frequency,offensiveness,pleasantness,position_correct,preference,response,response_action,snippet_file,song_name,song_rating,sound,stimulus_1,stimulus_2,stimulus_3,text,time_commit,time_end,time_render,time_run,time_show,time_switch,url,word,word_ID
Prolific ID,html.Form,0,2022-05-03T20:03:06.330Z,"{""labjs_version"":""20.2.2"",""labjs_build"":{""flavor"":""production"",""commit"":""a25486e0c714a0ae2ce03ff94b7bb6896854dcfa""},""location"":""https://run.pavlovia.org/mvasilev/prolific3_music_a/"",""userAgent"":""Mozilla/5.0 (Windows NT 10.0; Win64; x64; rv:99.0) Gecko/20100101 Firefox/99.0"",""platform"":""Win32"",""language"":""en-GB"",""locale"":""en-GB"",""timeZone"":""Europe/London"",""timezoneOffset"":-60,""screen_width"":1366,""screen_height"":768,""scroll_width"":1366,""scroll_height"":595,""window_innerWidth"":1366,""window_innerHeight"":643,""devicePixelRatio"":1}",,,,,,,,,,,,,,,5b65b2773662a8000158c788,,,,,,,,,,,,,,,8284.419999999998,,form submission,,,,,,,,,,,,,,,,,,,,,28430,28429,20070.18,20070,20144.58,28436.92,{},,
Introduction,html.Screen,1_0,2022-05-03T20:03:10.087Z,,,,,,,,,,,,,,,,,,,,,,,,,,,,,,,3745.0800000000017,,response,,,,,,,,,,,continue,click button,,,,,,,,,32186,32182,28381.8,28432,28436.92,32198.4,,,
Volume calibration,html.Screen,1_1,2022-05-03T20:04:02.552Z,,,,,,,,,,,,,,,,,,,,,,,,,,,,,,,52437.6,,response,,,,,,,,,,,continue,click button,,,,,,,,,84652,84636,32184.96,32186,32198.4,84663.62,,,
Task instructions,html.Screen,1_2,2022-05-03T20:04:18.781Z,,,,,,,,,,,,,,,,,,,,,,,,,,,,,,,16205.380000000005,,response,,,,,,,,,,,continue,click button,,,,,,,,,100881,100869,84649.2,84653,84663.62,100915.2,,,
Sounds,html.Screen,1_3_0_0,2022-05-03T20:04:23.048Z,,,,,,,,,,,,,,,,,,,,,,,,,,,,,,,4247.440000000002,,timeout,,,,,,,,,3,,,,,,,,O,I,S,,105147,105145.96,100879.38,100882,100915.2,105162.64,,,
Judgement,html.Screen,1_3_0_1,2022-05-03T20:04:30.675Z,,,,,,,,,,,,,,,,,,,,,,,,,,,,false,3,,7598.360000000001,,response,,,,,,,,,3,,1,click #choice-1,,,,,O,I,S,,112775,112761,105145.96,105148,105162.64,112787.04,,,
Trial,flow.Sequence,1_3_0,2022-05-03T20:04:30.678Z,,,,,,,,,,,,,,,,,,,,,,,,,,,,,,,11845.800000000003,,completion,,,,,,,,,3,,,,,,,,O,I,S,,112777,112761,100879.38,100882,100915.2,112787.04,,,
Sounds,html.Screen,1_3_1_0,2022-05-03T20:04:34.919Z,,,,,,,,,,,,,,,,,,,,,,,,,,,,,,,4245.5,,timeout,,,,,,,,,2,,,,,,,,O,S,I,,117018,117015.84,112773.24,112778,112787.04,117032.54,,,
Judgement,html.Screen,1_3_1_1,2022-05-03T20:04:36.111Z,,,,,,,,,,,,,,,,,,,,,,,,,,,,true,2,,1164.4600000000064,,response,,,,,,,,,2,,2,click #choice-2,,,,,O,S,I,,118211,118197,117015.84,117020,117032.54,118219.58,,,
Trial,flow.Sequence,1_3_1,2022-05-03T20:04:36.112Z,,,,,,,,,,,,,,,,,,,,,,,,,,,,,,,5409.960000000006,,completion,,,,,,,,,2,,,,,,,,O,S,I,,118212,118197,112773.24,112778,112787.04,118219.58,,,
Sounds,html.Screen,1_3_2_0,2022-05-03T20:04:40.353Z,,,,,,,,,,,,,,,,,,,,,,,,,,,,,,,4247.380000000005,,timeout,,,,,,,,,3,,,,,,,,I,O,S,,122453,122450.28,118209.5,118212,118219.58,122466.96,,,
Judgement,html.Screen,1_3_2_1,2022-05-03T20:04:40.965Z,,,,,,,,,,,,,,,,,,,,,,,,,,,,true,3,,575.0399999999936,,response,,,,,,,,,3,,3,click #choice-3,,,,,I,O,S,,123065,123042,122450.28,122454,122466.96,123067.84,,,
Trial,flow.Sequence,1_3_2,2022-05-03T20:04:40.966Z,,,,,,,,,,,,,,,,,,,,,,,,,,,,,,,4822.419999999998,,completion,,,,,,,,,3,,,,,,,,I,O,S,,123066,123042,118209.5,118212,118219.58,123067.84,,,
Sounds,html.Screen,1_3_3_0,2022-05-03T20:04:45.200Z,,,,,,,,,,,,,,,,,,,,,,,,,,,,,,,4247.440000000002,,timeout,,,,,,,,,1,,,,,,,,S,O,I,,127300,127298.6,123064.18,123066,123067.84,127315.28,,,
Judgement,html.Screen,1_3_3_1,2022-05-03T20:04:45.788Z,,,,,,,,,,,,,,,,,,,,,,,,,,,,true,1,,553.7200000000012,,response,,,,,,,,,1,,1,click #choice-1,,,,,S,O,I,,127887,127869,127298.6,127302,127315.28,127901.48,,,
Trial,flow.Sequence,1_3_3,2022-05-03T20:04:45.788Z,,,,,,,,,,,,,,,,,,,,,,,,,,,,,,,4801.1600000000035,,completion,,,,,,,,,1,,,,,,,,S,O,I,,127888,127869,123064.18,123066,123067.84,127901.48,,,
Sounds,html.Screen,1_3_4_0,2022-05-03T20:04:50.032Z,,,,,,,,,,,,,,,,,,,,,,,,,,,,,,,4245.520000000004,,timeout,,,,,,,,,2,,,,,,,,I,S,O,,132132,132130.3,127886.32,127888,127901.48,132147,,,
Judgement,html.Screen,1_3_4_1,2022-05-03T20:04:50.981Z,,,,,,,,,,,,,,,,,,,,,,,,,,,,true,2,,925,,response,,,,,,,,,2,,2,click #choice-2,,,,,I,S,O,,133082,133072,132130.3,132132,132147,133083.6,,,
Trial,flow.Sequence,1_3_4,2022-05-03T20:04:50.982Z,,,,,,,,,,,,,,,,,,,,,,,,,,,,,,,5170.520000000004,,completion,,,,,,,,,2,,,,,,,,I,S,O,,133083,133072,127886.32,127888,127901.48,133083.6,,,
Sounds,html.Screen,1_3_5_0,2022-05-03T20:04:55.216Z,,,,,,,,,,,,,,,,,,,,,,,,,,,,,,,4247.5,,timeout,,,,,,,,,1,,,,,,,,S,I,O,,137315,137314.4,133080.72,133083,133083.6,137331.1,,,
Judgement,html.Screen,1_3_5_1,2022-05-03T20:04:57.761Z,,,,,,,,,,,,,,,,,,,,,,,,,,,,true,1,,2522.899999999994,,response,,,,,,,,,1,,1,click #choice-1,,,,,S,I,O,,139860,139854,137314.4,137317,137331.1,139905.48,,,
Trial,flow.Sequence,1_3_5,2022-05-03T20:04:57.761Z,,,,,,,,,,,,,,,,,,,,,,,,,,,,,,,6770.399999999994,,completion,,,,,,,,,1,,,,,,,,S,I,O,,139860,139854,133080.72,133083,133083.6,139905.48,,,
Task,flow.Loop,1_3,2022-05-03T20:04:57.762Z,,,,,,,,,,,,,,,,,,,,,,,,,,,,,,,38938.8,,completion,,,0.8333333333333334,,,,,,,,,,,,,,,,,,139861,139854,100879.38,100882,100915.2,139905.48,,,
Trap,html.Screen,1_4,2022-05-03T20:04:57.765Z,,,,,,,,,,,,,,,,,,,,,,,,,,,,,,,NaN,,skipped,,,,,,,,,,,,,,,,,,,,,139865,139854,,139865,,139905.48,,,
Thanks,html.Screen,1_5,2022-05-03T20:05:02.690Z,,,,,,,,,,,,,,,,,,,,,,,,,,,,,,,4870.5199999999895,,response,,,,,,,,,,,continue,click button,,,,,,,,,144790,144776,139859.3,139865,139905.48,148681.94,,,
Headphone screening,flow.Sequence,1,2022-05-03T20:05:02.690Z,,,,,,,,,,,,,,,,,,,,,,,,,,,,,,,116339.08,,completion,,,,,,,,,,,,,,,,,,,,,144790,144776,28381.8,28432,28436.92,148681.94,,,
Instructions,html.Page,2_0,2022-05-03T20:05:26.652Z,,,,,,,,,,,,,,,,,,,,,,,,,,,,,,,20069.059999999998,,form submission,,,,,,,,,,,,,,,,,,,,,168752,168751,148676.02,148677,148681.94,168761.66,,,
Holding screen,html.Screen,2_1_0_0,2022-05-03T20:05:36.646Z,,,,,,,,,,,,,,,,,,,,,,,,,,,,,,,9999.160000000003,,timeout,,,,,,,,,,,,,,,,,,,,,178746,178744.14,168745.5,168752,168761.66,178760.82,,,
screen,html.Screen,2_1_0_1_0,2022-05-03T20:05:38.167Z,,,,,,,,,,,,,,,,,53,,,,,,,,,,,,,,1484.179999999993,,response,,,,99,,,,,,,Space,keypress(Space),,,,,,,,When -- ----- -- ------ - ------- --- ----------<br>------------- ------ ------ ---- ---- ------- ----- -- ----<br>-------- ------- -- ---------- --- - --- ----- ----- ----<br>---- --- --- ----- --- ---- ---- ------- ----- ---- -------<br>--- --- -- ----- -- --- ---- -- --- ---- -- ------ ------<br>--- ----- -- ----,180267,180245,178744.14,178747,178760.82,180281.72,,0,When
screen,html.Screen,2_1_0_1_1,2022-05-03T20:05:38.611Z,,,,,,,,,,,,,,,,,53,,,,,,,,,,,,,,416.27999999999884,,response,,,,99,,,,,,,Space,keypress(Space),,,,,,,,---- it ----- -- ------ - ------- --- ----------<br>------------- ------ ------ ---- ---- ------- ----- -- ----<br>-------- ------- -- ---------- --- - --- ----- ----- ----<br>---- --- --- ----- --- ---- ---- ------- ----- ---- -------<br>--- --- -- ----- -- --- ---- -- --- ---- -- ------ ------<br>--- ----- -- ----,180711,180698,180267.82,180268,180281.72,180717.7,,1,it
screen,html.Screen,2_1_0_1_2,2022-05-03T20:05:39.286Z,,,,,,,,,,,,,,,,,53,,,,,,,,,,,,,,652.2999999999884,,response,,,,99,,,,,,,Space,keypress(Space),,,,,,,,---- -- comes -- ------ - ------- --- ----------<br>------------- ------ ------ ---- ---- ------- ----- -- ----<br>-------- ------- -- ---------- --- - --- ----- ----- ----<br>---- --- --- ----- --- ---- ---- ------- ----- ---- -------<br>--- --- -- ----- -- --- ---- -- --- ---- -- ------ ------<br>--- ----- -- ----,181387,181370,180711.88,180712,180717.7,181402.02,,2,comes
screen,html.Screen,2_1_0_1_3,2022-05-03T20:05:39.701Z,,,,,,,,,,,,,,,,,53,,,,,,,,,,,,,,388.9800000000105,,response,,,,99,,,,,,,Space,keypress(Space),,,,,,,,---- -- ----- to ------ - ------- --- ----------<br>------------- ------ ------ ---- ---- ------- ----- -- ----<br>-------- ------- -- ---------- --- - --- ----- ----- ----<br>---- --- --- ----- --- ---- ---- ------- ----- ---- -------<br>--- --- -- ----- -- --- ---- -- --- ---- -- ------ ------<br>--- ----- -- ----,181801,181791,181386.88,181387,181402.02,181802.6,,3,to
screen,html.Screen,2_1_0_1_4,2022-05-03T20:05:40.150Z,,,,,,,,,,,,,,,,,53,,,,,,,,,,,,,,442.3999999999942,,response,,,,99,,,,,,,Space,keypress(Space),,,,,,,,---- -- ----- -- having - ------- --- ----------<br>------------- ------ ------ ---- ---- ------- ----- -- ----<br>-------- ------- -- ---------- --- - --- ----- ----- ----<br>---- --- --- ----- --- ---- ---- ------- ----- ---- -------<br>--- --- -- ----- -- --- ---- -- --- ---- -- ------ ------<br>--- ----- -- ----,182250,182245,181801.5,181801,181802.6,182255.28,,4,having
screen,html.Screen,2_1_0_1_5,2022-05-03T20:05:40.514Z,,,,,,,,,,,,,,,,,53,,,,,,,,,,,,,,348.72000000000116,,response,,,,99,,,,,,,Space,keypress(Space),,,,,,,,---- -- ----- -- ------ a ------- --- ----------<br>------------- ------ ------ ---- ---- ------- ----- -- ----<br>-------- ------- -- ---------- --- - --- ----- ----- ----<br>---- --- --- ----- --- ---- ---- ------- ----- ---- -------<br>--- --- -- ----- -- --- ---- -- --- ---- -- ------ ------<br>--- ----- -- ----,182614,182604,182250.42,182251,182255.28,182622.48,,5,a
screen,html.Screen,2_1_0_1_6,2022-05-03T20:05:40.968Z,,,,,,,,,,,,,,,,,53,,,,,,,,,,,,,,434.5199999999895,,response,,,,99,,,,,,,Space,keypress(Space),,,,,,,,---- -- ----- -- ------ - lasting --- ----------<br>------------- ------ ------ ---- ---- ------- ----- -- ----<br>-------- ------- -- ---------- --- - --- ----- ----- ----<br>---- --- --- ----- --- ---- ---- ------- ----- ---- -------<br>--- --- -- ----- -- --- ---- -- --- ---- -- ------ ------<br>--- ----- -- ----,183067,183057,182614.78,182614,182622.48,183075.16,,6,lasting
screen,html.Screen,2_1_0_1_7,2022-05-03T20:05:41.334Z,,,,,,,,,,,,,,,,,53,,,,,,,,,,,,,,341.8399999999965,,response,,,,99,,,,,,,Space,keypress(Space),,,,,,,,---- -- ----- -- ------ - ------- and ----------<br>------------- ------ ------ ---- ---- ------- ----- -- ----<br>-------- ------- -- ---------- --- - --- ----- ----- ----<br>---- --- --- ----- --- ---- ---- ------- ----- ---- -------<br>--- --- -- ----- -- --- ---- -- --- ---- -- ------ ------<br>--- ----- -- ----,183434,183417,183068.22,183068,183075.16,183442.34,,7,and
screen,html.Screen,2_1_0_1_8,2022-05-03T20:05:41.774Z,,,,,,,,,,,,,,,,,53,,,,,,,,,,,,,,410.6600000000035,,response,,,,99,,,,,,,Space,keypress(Space),,,,,,,,---- -- ----- -- ------ - ------- --- fulfilling<br>------------- ------ ------ ---- ---- ------- ----- -- ----<br>-------- ------- -- ---------- --- - --- ----- ----- ----<br>---- --- --- ----- --- ---- ---- ------- ----- ---- -------<br>--- --- -- ----- -- --- ---- -- --- ---- -- ------ ------<br>--- ----- -- ----,183873,183853,183434.16,183434,183442.34,183876.32,,8,fulfilling
screen,html.Screen,2_1_0_1_9,2022-05-03T20:05:42.476Z,,,,,,,,,,,,,,,,,53,,,,,,,,,,,,,,680.679999999993,,response,,,,99,,,,,,,Space,keypress(Space),,,,,,,,"---- -- ----- -- ------ - ------- --- ----------<br>relationship, ------ ------ ---- ---- ------- ----- -- ----<br>-------- ------- -- ---------- --- - --- ----- ----- ----<br>---- --- --- ----- --- ---- ---- ------- ----- ---- -------<br>--- --- -- ----- -- --- ---- -- --- ---- -- ------ ------<br>--- ----- -- ----",184577,184557,183873.66,183873,183876.32,184579.26,,9,"relationship,"
screen,html.Screen,2_1_0_1_10,2022-05-03T20:05:42.926Z,,,,,,,,,,,,,,,,,53,,,,,,,,,,,,,,430.7399999999907,,response,,,,99,,,,,,,Space,keypress(Space),,,,,,,,---- -- ----- -- ------ - ------- --- ----------<br>------------- common ------ ---- ---- ------- ----- -- ----<br>-------- ------- -- ---------- --- - --- ----- ----- ----<br>---- --- --- ----- --- ---- ---- ------- ----- ---- -------<br>--- --- -- ----- -- --- ---- -- --- ---- -- ------ ------<br>--- ----- -- ----,185025,185010,184577.04,184577,184579.26,185029.92,,10,common
screen,html.Screen,2_1_0_1_11,2022-05-03T20:05:43.369Z,,,,,,,,,,,,,,,,,53,,,,,,,,,,,,,,433.0799999999872,,response,,,,99,,,,,,,Space,keypress(Space),,,,,,,,---- -- ----- -- ------ - ------- --- ----------<br>------------- ------ wisdom ---- ---- ------- ----- -- ----<br>-------- ------- -- ---------- --- - --- ----- ----- ----<br>---- --- --- ----- --- ---- ---- ------- ----- ---- -------<br>--- --- -- ----- -- --- ---- -- --- ---- -- ------ ------<br>--- ----- -- ----,185469,185463,185025.82,185025,185029.92,185482.62,,11,wisdom
screen,html.Screen,2_1_0_1_12,2022-05-03T20:05:43.705Z,,,,,,,,,,,,,,,,,53,,,,,,,,,,,,,,309.38000000000466,,response,,,,99,,,,,,,Space,keypress(Space),,,,,,,,---- -- ----- -- ------ - ------- --- ----------<br>------------- ------ ------ says ---- ------- ----- -- ----<br>-------- ------- -- ---------- --- - --- ----- ----- ----<br>---- --- --- ----- --- ---- ---- ------- ----- ---- -------<br>--- --- -- ----- -- --- ---- -- --- ---- -- ------ ------<br>--- ----- -- ----,185805,185792,185469.62,185469,185482.62,185816.44,,12,says
screen,html.Screen,2_1_0_1_13,2022-05-03T20:05:44.130Z,,,,,,,,,,,,,,,,,53,,,,,,,,,,,,,,396.5599999999977,,response,,,,99,,,,,,,Space,keypress(Space),,,,,,,,---- -- ----- -- ------ - ------- --- ----------<br>------------- ------ ------ ---- that ------- ----- -- ----<br>-------- ------- -- ---------- --- - --- ----- ----- ----<br>---- --- --- ----- --- ---- ---- ------- ----- ---- -------<br>--- --- -- ----- -- --- ---- -- --- ---- -- ------ ------<br>--- ----- -- ----,186229,186213,185806.12,185806,185816.44,186233.7,,13,that
screen,html.Screen,2_1_0_1_14,2022-05-03T20:05:44.558Z,,,,,,,,,,,,,,,,,53,,,,,,,,,,,,,,416.29999999998836,,response,,,,99,,,,,,,Space,keypress(Space),,,,,,,,---- -- ----- -- ------ - ------- --- ----------<br>------------- ------ ------ ---- ---- feeling ----- -- ----<br>-------- ------- -- ---------- --- - --- ----- ----- ----<br>---- --- --- ----- --- ---- ---- ------- ----- ---- -------<br>--- --- -- ----- -- --- ---- -- --- ---- -- ------ ------<br>--- ----- -- ----,186657,186650,186230.06,186230,186233.7,186669.68,,14,feeling
screen,html.Screen,2_1_0_1_15,2022-05-03T20:05:44.926Z,,,,,,,,,,,,,,,,,53,,,,,,,,,,,,,,341.320000000007,,response,,,,99,,,,,,,Space,keypress(Space),,,,,,,,---- -- ----- -- ------ - ------- --- ----------<br>------------- ------ ------ ---- ---- ------- close -- ----<br>-------- ------- -- ---------- --- - --- ----- ----- ----<br>---- --- --- ----- --- ---- ---- ------- ----- ---- -------<br>--- --- -- ----- -- --- ---- -- --- ---- -- ------ ------<br>--- ----- -- ----,187026,187011,186658.48,186658,186669.68,187036.88,,15,close
screen,html.Screen,2_1_0_1_16,2022-05-03T20:05:45.383Z,,,,,,,,,,,,,,,,,53,,,,,,,,,,,,,,427.11999999999534,,response,,,,99,,,,,,,Space,keypress(Space),,,,,,,,---- -- ----- -- ------ - ------- --- ----------<br>------------- ------ ------ ---- ---- ------- ----- to ----<br>-------- ------- -- ---------- --- - --- ----- ----- ----<br>---- --- --- ----- --- ---- ---- ------- ----- ---- -------<br>--- --- -- ----- -- --- ---- -- --- ---- -- ------ ------<br>--- ----- -- ----,187483,187464,187027.12,187027,187036.88,187487.52,,16,to
screen,html.Screen,2_1_0_1_17,2022-05-03T20:05:45.745Z,,,,,,,,,,,,,,,,,53,,,,,,,,,,,,,,335.4800000000105,,response,,,,99,,,,,,,Space,keypress(Space),,,,,,,,---- -- ----- -- ------ - ------- --- ----------<br>------------- ------ ------ ---- ---- ------- ----- -- your<br>-------- ------- -- ---------- --- - --- ----- ----- ----<br>---- --- --- ----- --- ---- ---- ------- ----- ---- -------<br>--- --- -- ----- -- --- ---- -- --- ---- -- ------ ------<br>--- ----- -- ----,187846,187823,187483.38,187484,187487.52,187856.74,,17,your
screen,html.Screen,2_1_0_1_18,2022-05-03T20:05:46.197Z,,,,,,,,,,,,,,,,,53,,,,,,,,,,,,,,434.2600000000093,,response,,,,99,,,,,,,Space,keypress(Space),,,,,,,,---- -- ----- -- ------ - ------- --- ----------<br>------------- ------ ------ ---- ---- ------- ----- -- ----<br>romantic ------- -- ---------- --- - --- ----- ----- ----<br>---- --- --- ----- --- ---- ---- ------- ----- ---- -------<br>--- --- -- ----- -- --- ---- -- --- ---- -- ------ ------<br>--- ----- -- ----,188297,188291,187845.88,187846,187856.74,188307.38,,18,romantic
screen,html.Screen,2_1_0_1_19,2022-05-03T20:05:46.469Z,,,,,,,,,,,,,,,,,53,,,,,,,,,,,,,,249.61999999999534,,response,,,,99,,,,,,,Space,keypress(Space),,,,,,,,---- -- ----- -- ------ - ------- --- ----------<br>------------- ------ ------ ---- ---- ------- ----- -- ----<br>-------- partner -- ---------- --- - --- ----- ----- ----<br>---- --- --- ----- --- ---- ---- ------- ----- ---- -------<br>--- --- -- ----- -- --- ---- -- --- ---- -- ------ ------<br>--- ----- -- ----,188569,188557,188297.42,188297,188307.38,188574.44,,19,partner
screen,html.Screen,2_1_0_1_20,2022-05-03T20:05:46.798Z,,,,,,,,,,,,,,,,,53,,,,,,,,,,,,,,311.5599999999977,,response,,,,99,,,,,,,Space,keypress(Space),,,,,,,,---- -- ----- -- ------ - ------- --- ----------<br>------------- ------ ------ ---- ---- ------- ----- -- ----<br>-------- ------- is ---------- --- - --- ----- ----- ----<br>---- --- --- ----- --- ---- ---- ------- ----- ---- -------<br>--- --- -- ----- -- --- ---- -- --- ---- -- ------ ------<br>--- ----- -- ----,188897,188886,188569.52,188570,188574.44,188910.28,,20,is
screen,html.Screen,2_1_0_1_21,2022-05-03T20:05:47.648Z,,,,,,,,,,,,,,,,,53,,,,,,,,,,,,,,834.7200000000012,,response,,,,99,,,,,,,Space,keypress(Space),,,,,,,,---- -- ----- -- ------ - ------- --- ----------<br>------------- ------ ------ ---- ---- ------- ----- -- ----<br>-------- ------- -- paramount. --- - --- ----- ----- ----<br>---- --- --- ----- --- ---- ---- ------- ----- ---- -------<br>--- --- -- ----- -- --- ---- -- --- ---- -- ------ ------<br>--- ----- -- ----,189748,189745,188898.24,188898,188910.28,189761.52,,21,paramount.
screen,html.Screen,2_1_0_1_22,2022-05-03T20:05:49.241Z,,,,,,,,,,,,,,,,,53,,,,,,,,,,,,,,1561.4800000000105,,response,,,,99,,,,,,,Space,keypress(Space),,,,,,,,---- -- ----- -- ------ - ------- --- ----------<br>------------- ------ ------ ---- ---- ------- ----- -- ----<br>-------- ------- -- ---------- But - --- ----- ----- ----<br>---- --- --- ----- --- ---- ---- ------- ----- ---- -------<br>--- --- -- ----- -- --- ---- -- --- ---- -- ------ ------<br>--- ----- -- ----,191342,191323,189748.84,189749,189761.52,194226.02,,22,But
screen,html.Screen,2_1_0_1_23,2022-05-03T20:05:52.193Z,,,,,,,,,,,,,,,,,53,,,,,,,,,,,,,,48.98000000001048,,response,,,,99,,,,,,,Space,keypress(Space),,,,,,,,---- -- ----- -- ------ - ------- --- ----------<br>------------- ------ ------ ---- ---- ------- ----- -- ----<br>-------- ------- -- ---------- --- a --- ----- ----- ----<br>---- --- --- ----- --- ---- ---- ------- ----- ---- -------<br>--- --- -- ----- -- --- ---- -- --- ---- -- ------ ------<br>--- ----- -- ----,194293,194275,191342.44,191342,194226.02,194309.46,,23,a
screen,html.Screen,2_1_0_1_24,2022-05-03T20:05:53.479Z,,,,,,,,,,,,,,,,,53,,,,,,,,,,,,,,1263.5400000000081,,response,,,,99,,,,,,,Space,keypress(Space),,,,,,,,---- -- ----- -- ------ - ------- --- ----------<br>------------- ------ ------ ---- ---- ------- ----- -- ----<br>-------- ------- -- ---------- --- - new ----- ----- ----<br>---- --- --- ----- --- ---- ---- ------- ----- ---- -------<br>--- --- -- ----- -- --- ---- -- --- ---- -- ------ ------<br>--- ----- -- ----,195580,195573,194293.44,194293,194309.46,195579.98,,24,new
screen,html.Screen,2_1_0_1_25,2022-05-03T20:05:53.864Z,,,,,,,,,,,,,,,,,53,,,,,,,,,,,,,,367.0199999999895,,response,,,,99,,,,,,,Space,keypress(Space),,,,,,,,---- -- ----- -- ------ - ------- --- ----------<br>------------- ------ ------ ---- ---- ------- ----- -- ----<br>-------- ------- -- ---------- --- - --- study ----- ----<br>---- --- --- ----- --- ---- ---- ------- ----- ---- -------<br>--- --- -- ----- -- --- ---- -- --- ---- -- ------ ------<br>--- ----- -- ----,195963,195947,195579.88,195580,195579.98,195965.92,,25,study
screen,html.Screen,2_1_0_1_26,2022-05-03T20:05:54.288Z,,,,,,,,,,,,,,,,,53,,,,,,,,,,,,,,403.0799999999872,,response,,,,99,,,,,,,Space,keypress(Space),,,,,,,,---- -- ----- -- ------ - ------- --- ----------<br>------------- ------ ------ ---- ---- ------- ----- -- ----<br>-------- ------- -- ---------- --- - --- ----- finds ----<br>---- --- --- ----- --- ---- ---- ------- ----- ---- -------<br>--- --- -- ----- -- --- ---- -- --- ---- -- ------ ------<br>--- ----- -- ----,196388,196369,195963.66,195963,195965.92,196399.88,,26,finds
screen,html.Screen,2_1_0_1_27,2022-05-03T20:05:54.952Z,,,,,,,,,,,,,,,,,53,,,,,,,,,,,,,,641.1199999999953,,response,,,,99,,,,,,,Space,keypress(Space),,,,,,,,---- -- ----- -- ------ - ------- --- ----------<br>------------- ------ ------ ---- ---- ------- ----- -- ----<br>-------- ------- -- ---------- --- - --- ----- ----- that<br>---- --- --- ----- --- ---- ---- ------- ----- ---- -------<br>--- --- -- ----- -- --- ---- -- --- ---- -- ------ ------<br>--- ----- -- ----,197051,197041,196388.44,196388,196399.88,197067.52,,27,that
screen,html.Screen,2_1_0_1_28,2022-05-03T20:05:55.450Z,,,,,,,,,,,,,,,,,53,,,,,,,,,,,,,,474.4800000000105,,response,,,,99,,,,,,,Space,keypress(Space),,,,,,,,---- -- ----- -- ------ - ------- --- ----------<br>------------- ------ ------ ---- ---- ------- ----- -- ----<br>-------- ------- -- ---------- --- - --- ----- ----- ----<br>it's --- --- ----- --- ---- ---- ------- ----- ---- -------<br>--- --- -- ----- -- --- ---- -- --- ---- -- ------ ------<br>--- ----- -- ----,197550,197542,197051.76,197052,197067.52,197553.56,,28,it's
screen,html.Screen,2_1_0_1_29,2022-05-03T20:05:55.756Z,,,,,,,,,,,,,,,,,53,,,,,,,,,,,,,,284.4400000000023,,response,,,,99,,,,,,,Space,keypress(Space),,,,,,,,---- -- ----- -- ------ - ------- --- ----------<br>------------- ------ ------ ---- ---- ------- ----- -- ----<br>-------- ------- -- ---------- --- - --- ----- ----- ----<br>---- not --- ----- --- ---- ---- ------- ----- ---- -------<br>--- --- -- ----- -- --- ---- -- --- ---- -- ------ ------<br>--- ----- -- ----,197855,197838,197550.56,197551,197553.56,197870.68,,29,not
screen,html.Screen,2_1_0_1_30,2022-05-03T20:05:56.120Z,,,,,,,,,,,,,,,,,53,,,,,,,,,,,,,,342.320000000007,,response,,,,99,,,,,,,Space,keypress(Space),,,,,,,,---- -- ----- -- ------ - ------- --- ----------<br>------------- ------ ------ ---- ---- ------- ----- -- ----<br>-------- ------- -- ---------- --- - --- ----- ----- ----<br>---- --- how ----- --- ---- ---- ------- ----- ---- -------<br>--- --- -- ----- -- --- ---- -- --- ---- -- ------ ------<br>--- ----- -- ----,198220,198213,197856.36,197856,197870.68,198221.18,,30,how
screen,html.Screen,2_1_0_1_31,2022-05-03T20:05:56.547Z,,,,,,,,,,,,,,,,,53,,,,,,,,,,,,,,413.820000000007,,response,,,,99,,,,,,,Space,keypress(Space),,,,,,,,---- -- ----- -- ------ - ------- --- ----------<br>------------- ------ ------ ---- ---- ------- ----- -- ----<br>-------- ------- -- ---------- --- - --- ----- ----- ----<br>---- --- --- close --- ---- ---- ------- ----- ---- -------<br>--- --- -- ----- -- --- ---- -- --- ---- -- ------ ------<br>--- ----- -- ----,198647,198635,198219.9,198220,198221.18,198657.16,,31,close
screen,html.Screen,2_1_0_1_32,2022-05-03T20:05:56.871Z,,,,,,,,,,,,,,,,,53,,,,,,,,,,,,,,305.8399999999965,,response,,,,99,,,,,,,Space,keypress(Space),,,,,,,,---- -- ----- -- ------ - ------- --- ----------<br>------------- ------ ------ ---- ---- ------- ----- -- ----<br>-------- ------- -- ---------- --- - --- ----- ----- ----<br>---- --- --- ----- you ---- ---- ------- ----- ---- -------<br>--- --- -- ----- -- --- ---- -- --- ---- -- ------ ------<br>--- ----- -- ----,198970,198963,198647.4,198647,198657.16,198974.28,,32,you
screen,html.Screen,2_1_0_1_33,2022-05-03T20:05:57.294Z,,,,,,,,,,,,,,,,,53,,,,,,,,,,,,,,394.72000000000116,,response,,,,99,,,,,,,Space,keypress(Space),,,,,,,,---- -- ----- -- ------ - ------- --- ----------<br>------------- ------ ------ ---- ---- ------- ----- -- ----<br>-------- ------- -- ---------- --- - --- ----- ----- ----<br>---- --- --- ----- --- feel ---- ------- ----- ---- -------<br>--- --- -- ----- -- --- ---- -- --- ---- -- ------ ------<br>--- ----- -- ----,199394,199369,198971.1,198971,198974.28,199408.24,,33,feel
screen,html.Screen,2_1_0_1_34,2022-05-03T20:05:57.606Z,,,,,,,,,,,,,,,,,53,,,,,,,,,,,,,,273.7600000000093,,response,,,,99,,,,,,,Space,keypress(Space),,,,,,,,---- -- ----- -- ------ - ------- --- ----------<br>------------- ------ ------ ---- ---- ------- ----- -- ----<br>-------- ------- -- ---------- --- - --- ----- ----- ----<br>---- --- --- ----- --- ---- that ------- ----- ---- -------<br>--- --- -- ----- -- --- ---- -- --- ---- -- ------ ------<br>--- ----- -- ----,199707,199682,199394.62,199394,199408.24,199710.7,,34,that
screen,html.Screen,2_1_0_1_35,2022-05-03T20:05:57.988Z,,,,,,,,,,,,,,,,,53,,,,,,,,,,,,,,362.29999999998836,,response,,,,99,,,,,,,Space,keypress(Space),,,,,,,,---- -- ----- -- ------ - ------- --- ----------<br>------------- ------ ------ ---- ---- ------- ----- -- ----<br>-------- ------- -- ---------- --- - --- ----- ----- ----<br>---- --- --- ----- --- ---- ---- matters ----- ---- -------<br>--- --- -- ----- -- --- ---- -- --- ---- -- ------ ------<br>--- ----- -- ----,200088,200073,199706.88,199707,199710.7,200094.6,,35,matters
screen,html.Screen,2_1_0_1_36,2022-05-03T20:05:58.360Z,,,,,,,,,,,,,,,,,53,,,,,,,,,,,,,,352.3999999999942,,response,,,,99,,,,,,,Space,keypress(Space),,,,,,,,"---- -- ----- -- ------ - ------- --- ----------<br>------------- ------ ------ ---- ---- ------- ----- -- ----<br>-------- ------- -- ---------- --- - --- ----- ----- ----<br>---- --- --- ----- --- ---- ---- ------- most, ---- -------<br>--- --- -- ----- -- --- ---- -- --- ---- -- ------ ------<br>--- ----- -- ----",200460,200447,200088.32,200088,200094.6,200461.8,,36,"most,"
screen,html.Screen,2_1_0_1_37,2022-05-03T20:05:58.755Z,,,,,,,,,,,,,,,,,53,,,,,,,,,,,,,,376.20000000001164,,response,,,,99,,,,,,,Space,keypress(Space),,,,,,,,---- -- ----- -- ------ - ------- --- ----------<br>------------- ------ ------ ---- ---- ------- ----- -- ----<br>-------- ------- -- ---------- --- - --- ----- ----- ----<br>---- --- --- ----- --- ---- ---- ------- ----- it's -------<br>--- --- -- ----- -- --- ---- -- --- ---- -- ------ ------<br>--- ----- -- ----,200855,200838,200461.06,200461,200461.8,200864.38,,37,it's
screen,html.Screen,2_1_0_1_38,2022-05-03T20:05:59.137Z,,,,,,,,,,,,,,,,,53,,,,,,,,,,,,,,363.61999999999534,,response,,,,99,,,,,,,Space,keypress(Space),,,,,,,,---- -- ----- -- ------ - ------- --- ----------<br>------------- ------ ------ ---- ---- ------- ----- -- ----<br>-------- ------- -- ---------- --- - --- ----- ----- ----<br>---- --- --- ----- --- ---- ---- ------- ----- ---- whether<br>--- --- -- ----- -- --- ---- -- --- ---- -- ------ ------<br>--- ----- -- ----,201237,201228,200855.1,200855,200864.38,201248.26,,38,whether
screen,html.Screen,2_1_0_1_39,2022-05-03T20:05:59.502Z,,,,,,,,,,,,,,,,,53,,,,,,,,,,,,,,339.7399999999907,,response,,,,99,,,,,,,Space,keypress(Space),,,,,,,,---- -- ----- -- ------ - ------- --- ----------<br>------------- ------ ------ ---- ---- ------- ----- -- ----<br>-------- ------- -- ---------- --- - --- ----- ----- ----<br>---- --- --- ----- --- ---- ---- ------- ----- ---- -------<br>you --- -- ----- -- --- ---- -- --- ---- -- ------ ------<br>--- ----- -- ----,201603,201588,201237.48,201238,201248.26,201615.46,,39,you
screen,html.Screen,2_1_0_1_40,2022-05-03T20:05:59.832Z,,,,,,,,,,,,,,,,,53,,,,,,,,,,,,,,300.54000000000815,,response,,,,99,,,,,,,Space,keypress(Space),,,,,,,,---- -- ----- -- ------ - ------- --- ----------<br>------------- ------ ------ ---- ---- ------- ----- -- ----<br>-------- ------- -- ---------- --- - --- ----- ----- ----<br>---- --- --- ----- --- ---- ---- ------- ----- ---- -------<br>--- are -- ----- -- --- ---- -- --- ---- -- ------ ------<br>--- ----- -- ----,201931,201916,201602.98,201603,201615.46,201934.62,,40,are
screen,html.Screen,2_1_0_1_41,2022-05-03T20:06:00.128Z,,,,,,,,,,,,,,,,,53,,,,,,,,,,,,,,278.38000000000466,,response,,,,99,,,,,,,Space,keypress(Space),,,,,,,,---- -- ----- -- ------ - ------- --- ----------<br>------------- ------ ------ ---- ---- ------- ----- -- ----<br>-------- ------- -- ---------- --- - --- ----- ----- ----<br>---- --- --- ----- --- ---- ---- ------- ----- ---- -------<br>--- --- as ----- -- --- ---- -- --- ---- -- ------ ------<br>--- ----- -- ----,202228,202213,201931.58,201931,201934.62,202235.04,,41,as
screen,html.Screen,2_1_0_1_42,2022-05-03T20:06:00.421Z,,,,,,,,,,,,,,,,,53,,,,,,,,,,,,,,274.95999999999185,,response,,,,99,,,,,,,Space,keypress(Space),,,,,,,,---- -- ----- -- ------ - ------- --- ----------<br>------------- ------ ------ ---- ---- ------- ----- -- ----<br>-------- ------- -- ---------- --- - --- ----- ----- ----<br>---- --- --- ----- --- ---- ---- ------- ----- ---- -------<br>--- --- -- close -- --- ---- -- --- ---- -- ------ ------<br>--- ----- -- ----,202522,202510,202228.42,202229,202235.04,202535.48,,42,close
screen,html.Screen,2_1_0_1_43,2022-05-03T20:06:00.712Z,,,,,,,,,,,,,,,,,53,,,,,,,,,,,,,,255.51999999998952,,response,,,,99,,,,,,,Space,keypress(Space),,,,,,,,---- -- ----- -- ------ - ------- --- ----------<br>------------- ------ ------ ---- ---- ------- ----- -- ----<br>-------- ------- -- ---------- --- - --- ----- ----- ----<br>---- --- --- ----- --- ---- ---- ------- ----- ---- -------<br>--- --- -- ----- as --- ---- -- --- ---- -- ------ ------<br>--- ----- -- ----,202812,202791,202521.96,202522,202535.48,202819.22,,43,as
screen,html.Screen,2_1_0_1_44,2022-05-03T20:06:01.055Z,,,,,,,,,,,,,,,,,53,,,,,,,,,,,,,,316.77999999999884,,response,,,,99,,,,,,,Space,keypress(Space),,,,,,,,---- -- ----- -- ------ - ------- --- ----------<br>------------- ------ ------ ---- ---- ------- ----- -- ----<br>-------- ------- -- ---------- --- - --- ----- ----- ----<br>---- --- --- ----- --- ---- ---- ------- ----- ---- -------<br>--- --- -- ----- -- you ---- -- --- ---- -- ------ ------<br>--- ----- -- ----,203154,203136,202812.66,202812,202819.22,203155.04,,44,you
screen,html.Screen,2_1_0_1_45,2022-05-03T20:06:01.640Z,,,,,,,,,,,,,,,,,53,,,,,,,,,,,,,,572.9599999999919,,response,,,,99,,,,,,,Space,keypress(Space),,,,,,,,---- -- ----- -- ------ - ------- --- ----------<br>------------- ------ ------ ---- ---- ------- ----- -- ----<br>-------- ------- -- ---------- --- - --- ----- ----- ----<br>---- --- --- ----- --- ---- ---- ------- ----- ---- -------<br>--- --- -- ----- -- --- want -- --- ---- -- ------ ------<br>--- ----- -- ----,203739,203728,203154.86,203155,203155.04,203755.92,,45,want
screen,html.Screen,2_1_0_1_46,2022-05-03T20:06:01.963Z,,,,,,,,,,,,,,,,,53,,,,,,,,,,,,,,286.0799999999872,,response,,,,99,,,,,,,Space,keypress(Space),,,,,,,,---- -- ----- -- ------ - ------- --- ----------<br>------------- ------ ------ ---- ---- ------- ----- -- ----<br>-------- ------- -- ---------- --- - --- ----- ----- ----<br>---- --- --- ----- --- ---- ---- ------- ----- ---- -------<br>--- --- -- ----- -- --- ---- to --- ---- -- ------ ------<br>--- ----- -- ----,204062,204042,203740.06,203740,203755.92,204073.04,,46,to
screen,html.Screen,2_1_0_1_47,2022-05-03T20:06:02.545Z,,,,,,,,,,,,,,,,,53,,,,,,,,,,,,,,545.9599999999919,,response,,,,99,,,,,,,Space,keypress(Space),,,,,,,,"---- -- ----- -- ------ - ------- --- ----------<br>------------- ------ ------ ---- ---- ------- ----- -- ----<br>-------- ------- -- ---------- --- - --- ----- ----- ----<br>---- --- --- ----- --- ---- ---- ------- ----- ---- -------<br>--- --- -- ----- -- --- ---- -- be, ---- -- ------ ------<br>--- ----- -- ----",204645,204619,204062.78,204062,204073.04,204659.2,,47,"be,"
screen,html.Screen,2_1_0_1_48,2022-05-03T20:06:03.027Z,,,,,,,,,,,,,,,,,53,,,,,,,,,,,,,,460.79999999998836,,response,,,,99,,,,,,,Space,keypress(Space),,,,,,,,---- -- ----- -- ------ - ------- --- ----------<br>------------- ------ ------ ---- ---- ------- ----- -- ----<br>-------- ------- -- ---------- --- - --- ----- ----- ----<br>---- --- --- ----- --- ---- ---- ------- ----- ---- -------<br>--- --- -- ----- -- --- ---- -- --- even -- ------ ------<br>--- ----- -- ----,205127,205120,204645.86,204645,204659.2,205143.24,,48,even
screen,html.Screen,2_1_0_1_49,2022-05-03T20:06:03.303Z,,,,,,,,,,,,,,,,,53,,,,,,,,,,,,,,242.7600000000093,,response,,,,99,,,,,,,Space,keypress(Space),,,,,,,,---- -- ----- -- ------ - ------- --- ----------<br>------------- ------ ------ ---- ---- ------- ----- -- ----<br>-------- ------- -- ---------- --- - --- ----- ----- ----<br>---- --- --- ----- --- ---- ---- ------- ----- ---- -------<br>--- --- -- ----- -- --- ---- -- --- ---- if ------ ------<br>--- ----- -- ----,205403,205386,205127.68,205128,205143.24,205412.36,,49,if
screen,html.Screen,2_1_0_1_50,2022-05-03T20:06:03.654Z,,,,,,,,,,,,,,,,,53,,,,,,,,,,,,,,332.64000000001397,,response,,,,99,,,,,,,Space,keypress(Space),,,,,,,,---- -- ----- -- ------ - ------- --- ----------<br>------------- ------ ------ ---- ---- ------- ----- -- ----<br>-------- ------- -- ---------- --- - --- ----- ----- ----<br>---- --- --- ----- --- ---- ---- ------- ----- ---- -------<br>--- --- -- ----- -- --- ---- -- --- ---- -- that's ------<br>--- ----- -- ----,205754,205745,205402.7,205403,205412.36,205762.84,,50,that's
screen,html.Screen,2_1_0_1_51,2022-05-03T20:06:04.267Z,,,,,,,,,,,,,,,,,53,,,,,,,,,,,,,,590.1600000000035,,response,,,,99,,,,,,,Space,keypress(Space),,,,,,,,---- -- ----- -- ------ - ------- --- ----------<br>------------- ------ ------ ---- ---- ------- ----- -- ----<br>-------- ------- -- ---------- --- - --- ----- ----- ----<br>---- --- --- ----- --- ---- ---- ------- ----- ---- -------<br>--- --- -- ----- -- --- ---- -- --- ---- -- ------ really<br>--- ----- -- ----,206367,206353,205754.58,205754,205762.84,206380.4,,51,really
screen,html.Screen,2_1_0_1_52,2022-05-03T20:06:04.672Z,,,,,,,,,,,,,,,,,53,,,,,,,,,,,,,,379.6000000000058,,response,,,,99,,,,,,,Space,keypress(Space),,,,,,,,---- -- ----- -- ------ - ------- --- ----------<br>------------- ------ ------ ---- ---- ------- ----- -- ----<br>-------- ------- -- ---------- --- - --- ----- ----- ----<br>---- --- --- ----- --- ---- ---- ------- ----- ---- -------<br>--- --- -- ----- -- --- ---- -- --- ---- -- ------ ------<br>not ----- -- ----,206771,206760,206367.5,206368,206380.4,206783,,52,not
screen,html.Screen,2_1_0_1_53,2022-05-03T20:06:05.049Z,,,,,,,,,,,,,,,,,53,,,,,,,,,,,,,,352,,response,,,,99,,,,,,,Space,keypress(Space),,,,,,,,---- -- ----- -- ------ - ------- --- ----------<br>------------- ------ ------ ---- ---- ------- ----- -- ----<br>-------- ------- -- ---------- --- - --- ----- ----- ----<br>---- --- --- ----- --- ---- ---- ------- ----- ---- -------<br>--- --- -- ----- -- --- ---- -- --- ---- -- ------ ------<br>--- close -- ----,207149,207135,206772.12,206772,206783,207150.2,,53,close
screen,html.Screen,2_1_0_1_54,2022-05-03T20:06:05.430Z,,,,,,,,,,,,,,,,,53,,,,,,,,,,,,,,359.79999999998836,,response,,,,99,,,,,,,Space,keypress(Space),,,,,,,,---- -- ----- -- ------ - ------- --- ----------<br>------------- ------ ------ ---- ---- ------- ----- -- ----<br>-------- ------- -- ---------- --- - --- ----- ----- ----<br>---- --- --- ----- --- ---- ---- ------- ----- ---- -------<br>--- --- -- ----- -- --- ---- -- --- ---- -- ------ ------<br>--- ----- at ----,207530,207510,207149.26,207149,207150.2,207534.08,,54,at
screen,html.Screen,2_1_0_1_55,2022-05-03T20:06:05.858Z,,,,,,,,,,,,,,,,,53,,,,,,,,,,,,,,413.9200000000128,,response,,,,99,,,,,,,Space,keypress(Space),,,,,,,,---- -- ----- -- ------ - ------- --- ----------<br>------------- ------ ------ ---- ---- ------- ----- -- ----<br>-------- ------- -- ---------- --- - --- ----- ----- ----<br>---- --- --- ----- --- ---- ---- ------- ----- ---- -------<br>--- --- -- ----- -- --- ---- -- --- ---- -- ------ ------<br>--- ----- -- all.,207957,207948,207530.66,207530,207534.08,207970.08,,55,all.
Item 99,flow.Loop,2_1_0_1,2022-05-03T20:06:05.859Z,,,,,,,,,,,,,,,,,,,,,,,,,,,,,,,29187.179999999993,,completion,,,,,A,,,,,,,,,,,silence,,,,,207958,207948,178744.14,178747,178760.82,207970.08,,,
Question 1,html.Screen,2_1_0_2,2022-05-03T20:06:11.851Z,,,,,,,,,,,,,,,,,,,,,,,,,,,,true,FALSE,,5962.920000000013,,response,,,,99,A,,,,,,FALSE,click #choice-2,,,,silence,,,,,213951,213933,207958.98,207958,207970.08,213955.18,,,
Question 2,html.Screen,2_1_0_3,2022-05-03T20:06:17.866Z,,,,,,,,,,,,,,,,,,,,,,,,,,,,true,TRUE,,5991.820000000007,,response,,,,99,A,,,,,,TRUE,click #choice-1,,,,silence,,,,,219966,219947,213949.88,213951,213955.18,219973.86,,,
Item 99,flow.Sequence,2_1_0,2022-05-03T20:06:17.867Z,,,,,,,,,,,,,,,,,,,,,,,,,,,,,,,51185.34,,completion,,,,,,,,,,,,,,,,,,,,,219966,219947,168745.5,168752,168761.66,219973.86,,,
Holding screen,html.Screen,2_1_1_0,2022-05-03T20:06:27.857Z,,,,,,,,,,,,,,,,,,,,,,,,,,,,,,,9999.040000000008,,timeout,,,,,,,,,,,,,,,,,,,,,229957,229956.2,219964.5,219967,219973.86,229972.9,,,
screen,html.Screen,2_1_1_1_0,2022-05-03T20:06:28.747Z,,,,,,,,,,,,,,,,,54,,,,,,,,,,,,,,849.1000000000058,,response,,,,100,,,,,,,Space,keypress(Space),,,,,,,,At --- ---- --- ------ ----- ------- ---- -- --- ------- --<br>------- ---------- ------ -- ----- -- ----- -- ---- ------<br>--- ----- --- --- ------ -------- ----- --- ------ ----- --<br>----- ----- ---------- --- --- ------ ------ ---- -- ------<br>------- --- ------ ----- --- ---- ------- -- ---- --- --<br>------- ------,230847,230822,229956.2,229957,229972.9,230857.5,,0,At
screen,html.Screen,2_1_1_1_1,2022-05-03T20:06:29.202Z,,,,,,,,,,,,,,,,,54,,,,,,,,,,,,,,433.5,,response,,,,100,,,,,,,Space,keypress(Space),,,,,,,,-- the ---- --- ------ ----- ------- ---- -- --- ------- --<br>------- ---------- ------ -- ----- -- ----- -- ---- ------<br>--- ----- --- --- ------ -------- ----- --- ------ ----- --<br>----- ----- ---------- --- --- ------ ------ ---- -- ------<br>------- --- ------ ----- --- ---- ------- -- ---- --- --<br>------- ------,231301,231291,230847.98,230848,230857.5,231310.18,,1,the
screen,html.Screen,2_1_1_1_2,2022-05-03T20:06:29.548Z,,,,,,,,,,,,,,,,,54,,,,,,,,,,,,,,325.820000000007,,response,,,,100,,,,,,,Space,keypress(Space),,,,,,,,-- --- time --- ------ ----- ------- ---- -- --- ------- --<br>------- ---------- ------ -- ----- -- ----- -- ---- ------<br>--- ----- --- --- ------ -------- ----- --- ------ ----- --<br>----- ----- ---------- --- --- ------ ------ ---- -- ------<br>------- --- ------ ----- --- ---- ------- -- ---- --- --<br>------- ------,231647,231636,231302.14,231302,231310.18,231660.68,,2,time
screen,html.Screen,2_1_1_1_3,2022-05-03T20:06:29.871Z,,,,,,,,,,,,,,,,,54,,,,,,,,,,,,,,302.320000000007,,response,,,,100,,,,,,,Space,keypress(Space),,,,,,,,-- --- ---- the ------ ----- ------- ---- -- --- ------- --<br>------- ---------- ------ -- ----- -- ----- -- ---- ------<br>--- ----- --- --- ------ -------- ----- --- ------ ----- --<br>----- ----- ---------- --- --- ------ ------ ---- -- ------<br>------- --- ------ ----- --- ---- ------- -- ---- --- --<br>------- ------,231971,231963,231647.84,231647,231660.68,231977.8,,3,the
screen,html.Screen,2_1_1_1_4,2022-05-03T20:06:30.210Z,,,,,,,,,,,,,,,,,54,,,,,,,,,,,,,,314.20000000001164,,response,,,,100,,,,,,,Space,keypress(Space),,,,,,,,-- --- ---- --- French ----- ------- ---- -- --- ------- --<br>------- ---------- ------ -- ----- -- ----- -- ---- ------<br>--- ----- --- --- ------ -------- ----- --- ------ ----- --<br>----- ----- ---------- --- --- ------ ------ ---- -- ------<br>------- --- ------ ----- --- ---- ------- -- ---- --- --<br>------- ------,232311,232292,231971.44,231971,231977.8,232313.66,,4,French
screen,html.Screen,2_1_1_1_5,2022-05-03T20:06:30.680Z,,,,,,,,,,,,,,,,,54,,,,,,,,,,,,,,446.3399999999965,,response,,,,100,,,,,,,Space,keypress(Space),,,,,,,,-- --- ---- --- ------ crown ------- ---- -- --- ------- --<br>------- ---------- ------ -- ----- -- ----- -- ---- ------<br>--- ----- --- --- ------ -------- ----- --- ------ ----- --<br>----- ----- ---------- --- --- ------ ------ ---- -- ------<br>------- --- ------ ----- --- ---- ------- -- ---- --- --<br>------- ------,232780,232760,232311.1,232311,232313.66,232781,,5,crown
screen,html.Screen,2_1_1_1_6,2022-05-03T20:06:31.115Z,,,,,,,,,,,,,,,,,54,,,,,,,,,,,,,,417,,response,,,,100,,,,,,,Space,keypress(Space),,,,,,,,-- --- ---- --- ------ ----- secured ---- -- --- ------- --<br>------- ---------- ------ -- ----- -- ----- -- ---- ------<br>--- ----- --- --- ------ -------- ----- --- ------ ----- --<br>----- ----- ---------- --- --- ------ ------ ---- -- ------<br>------- --- ------ ----- --- ---- ------- -- ---- --- --<br>------- ------,233215,233198,232780.62,232780,232781,233231.66,,6,secured
screen,html.Screen,2_1_1_1_7,2022-05-03T20:06:31.462Z,,,,,,,,,,,,,,,,,54,,,,,,,,,,,,,,326.3399999999965,,response,,,,100,,,,,,,Space,keypress(Space),,,,,,,,-- --- ---- --- ------ ----- ------- much -- --- ------- --<br>------- ---------- ------ -- ----- -- ----- -- ---- ------<br>--- ----- --- --- ------ -------- ----- --- ------ ----- --<br>----- ----- ---------- --- --- ------ ------ ---- -- ------<br>------- --- ------ ----- --- ---- ------- -- ---- --- --<br>------- ------,233562,233558,233215.16,233215,233231.66,233567.5,,7,much
screen,html.Screen,2_1_1_1_8,2022-05-03T20:06:31.850Z,,,,,,,,,,,,,,,,,54,,,,,,,,,,,,,,365.5,,response,,,,100,,,,,,,Space,keypress(Space),,,,,,,,-- --- ---- --- ------ ----- ------- ---- of --- ------- --<br>------- ---------- ------ -- ----- -- ----- -- ---- ------<br>--- ----- --- --- ------ -------- ----- --- ------ ----- --<br>----- ----- ---------- --- --- ------ ------ ---- -- ------<br>------- --- ------ ----- --- ---- ------- -- ---- --- --<br>------- ------,233950,233933,233563,233563,233567.5,233951.38,,8,of
screen,html.Screen,2_1_1_1_9,2022-05-03T20:06:32.123Z,,,,,,,,,,,,,,,,,54,,,,,,,,,,,,,,261.61999999999534,,response,,,,100,,,,,,,Space,keypress(Space),,,,,,,,-- --- ---- --- ------ ----- ------- ---- -- its ------- --<br>------- ---------- ------ -- ----- -- ----- -- ---- ------<br>--- ----- --- --- ------ -------- ----- --- ------ ----- --<br>----- ----- ---------- --- --- ------ ------ ---- -- ------<br>------- --- ------ ----- --- ---- ------- -- ---- --- --<br>------- ------,234223,234213,233950.6,233950,233951.38,234235.12,,9,its
screen,html.Screen,2_1_1_1_10,2022-05-03T20:06:32.460Z,,,,,,,,,,,,,,,,,54,,,,,,,,,,,,,,305.88000000000466,,response,,,,100,,,,,,,Space,keypress(Space),,,,,,,,-- --- ---- --- ------ ----- ------- ---- -- --- revenue --<br>------- ---------- ------ -- ----- -- ----- -- ---- ------<br>--- ----- --- --- ------ -------- ----- --- ------ ----- --<br>----- ----- ---------- --- --- ------ ------ ---- -- ------<br>------- --- ------ ----- --- ---- ------- -- ---- --- --<br>------- ------,234559,234541,234223.24,234223,234235.12,234568.94,,10,revenue
screen,html.Screen,2_1_1_1_11,2022-05-03T20:06:32.911Z,,,,,,,,,,,,,,,,,54,,,,,,,,,,,,,,425.0599999999977,,response,,,,100,,,,,,,Space,keypress(Space),,,,,,,,-- --- ---- --- ------ ----- ------- ---- -- --- ------- by<br>------- ---------- ------ -- ----- -- ----- -- ---- ------<br>--- ----- --- --- ------ -------- ----- --- ------ ----- --<br>----- ----- ---------- --- --- ------ ------ ---- -- ------<br>------- --- ------ ----- --- ---- ------- -- ---- --- --<br>------- ------,235011,234994,234559.62,234559,234568.94,235021.58,,11,by
screen,html.Screen,2_1_1_1_12,2022-05-03T20:06:33.289Z,,,,,,,,,,,,,,,,,54,,,,,,,,,,,,,,347.4200000000128,,response,,,,100,,,,,,,Space,keypress(Space),,,,,,,,-- --- ---- --- ------ ----- ------- ---- -- --- ------- --<br>issuing ---------- ------ -- ----- -- ----- -- ---- ------<br>--- ----- --- --- ------ -------- ----- --- ------ ----- --<br>----- ----- ---------- --- --- ------ ------ ---- -- ------<br>------- --- ------ ----- --- ---- ------- -- ---- --- --<br>------- ------,235388,235369,235010.94,235011,235021.58,235388.78,,12,issuing
screen,html.Screen,2_1_1_1_13,2022-05-03T20:06:33.753Z,,,,,,,,,,,,,,,,,54,,,,,,,,,,,,,,449.22000000000116,,response,,,,100,,,,,,,Space,keypress(Space),,,,,,,,-- --- ---- --- ------ ----- ------- ---- -- --- ------- --<br>------- government ------ -- ----- -- ----- -- ---- ------<br>--- ----- --- --- ------ -------- ----- --- ------ ----- --<br>----- ----- ---------- --- --- ------ ------ ---- -- ------<br>------- --- ------ ----- --- ---- ------- -- ---- --- --<br>------- ------,235852,235838,235388.46,235388,235388.78,235858.1,,13,government
screen,html.Screen,2_1_1_1_14,2022-05-03T20:06:34.104Z,,,,,,,,,,,,,,,,,54,,,,,,,,,,,,,,324.8999999999942,,response,,,,100,,,,,,,Space,keypress(Space),,,,,,,,-- --- ---- --- ------ ----- ------- ---- -- --- ------- --<br>------- ---------- bonds. -- ----- -- ----- -- ---- ------<br>--- ----- --- --- ------ -------- ----- --- ------ ----- --<br>----- ----- ---------- --- --- ------ ------ ---- -- ------<br>------- --- ------ ----- --- ---- ------- -- ---- --- --<br>------- ------,236203,236183,235852.64,235853,235858.1,236208.6,,14,bonds.
screen,html.Screen,2_1_1_1_15,2022-05-03T20:06:35.718Z,,,,,,,,,,,,,,,,,54,,,,,,,,,,,,,,1599.3999999999942,,response,,,,100,,,,,,,Space,keypress(Space),,,,,,,,-- --- ---- --- ------ ----- ------- ---- -- --- ------- --<br>------- ---------- ------ In ----- -- ----- -- ---- ------<br>--- ----- --- --- ------ -------- ----- --- ------ ----- --<br>----- ----- ---------- --- --- ------ ------ ---- -- ------<br>------- --- ------ ----- --- ---- ------- -- ---- --- --<br>------- ------,237818,237808,236203.86,236203,236208.6,237829.6,,15,In
screen,html.Screen,2_1_1_1_16,2022-05-03T20:06:36.073Z,,,,,,,,,,,,,,,,,54,,,,,,,,,,,,,,321.3999999999942,,response,,,,100,,,,,,,Space,keypress(Space),,,,,,,,"-- --- ---- --- ------ ----- ------- ---- -- --- ------- --<br>------- ---------- ------ -- 1727, -- ----- -- ---- ------<br>--- ----- --- --- ------ -------- ----- --- ------ ----- --<br>----- ----- ---------- --- --- ------ ------ ---- -- ------<br>------- --- ------ ----- --- ---- ------- -- ---- --- --<br>------- ------",238173,238151,237818.36,237818,237829.6,238182.18,,16,"1727,"
screen,html.Screen,2_1_1_1_17,2022-05-03T20:06:37.967Z,,,,,,,,,,,,,,,,,54,,,,,,,,,,,,,,1874.820000000007,,response,,,,100,,,,,,,Space,keypress(Space),,,,,,,,-- --- ---- --- ------ ----- ------- ---- -- --- ------- --<br>------- ---------- ------ -- ----- in ----- -- ---- ------<br>--- ----- --- --- ------ -------- ----- --- ------ ----- --<br>----- ----- ---------- --- --- ------ ------ ---- -- ------<br>------- --- ------ ----- --- ---- ------- -- ---- --- --<br>------- ------,240067,240057,238173.52,238173,238182.18,240070.22,,17,in
screen,html.Screen,2_1_1_1_18,2022-05-03T20:06:38.363Z,,,,,,,,,,,,,,,,,54,,,,,,,,,,,,,,376.77999999999884,,response,,,,100,,,,,,,Space,keypress(Space),,,,,,,,-- --- ---- --- ------ ----- ------- ---- -- --- ------- --<br>------- ---------- ------ -- ----- -- order -- ---- ------<br>--- ----- --- --- ------ -------- ----- --- ------ ----- --<br>----- ----- ---------- --- --- ------ ------ ---- -- ------<br>------- --- ------ ----- --- ---- ------- -- ---- --- --<br>------- ------,240463,240447,240067.56,240067,240070.22,240470.8,,18,order
screen,html.Screen,2_1_1_1_19,2022-05-03T20:06:38.596Z,,,,,,,,,,,,,,,,,54,,,,,,,,,,,,,,212.20000000001164,,response,,,,100,,,,,,,Space,keypress(Space),,,,,,,,-- --- ---- --- ------ ----- ------- ---- -- --- ------- --<br>------- ---------- ------ -- ----- -- ----- to ---- ------<br>--- ----- --- --- ------ -------- ----- --- ------ ----- --<br>----- ----- ---------- --- --- ------ ------ ---- -- ------<br>------- --- ------ ----- --- ---- ------- -- ---- --- --<br>------- ------,240696,240683,240463.3,240463,240470.8,240706.5,,19,to
screen,html.Screen,2_1_1_1_20,2022-05-03T20:06:38.965Z,,,,,,,,,,,,,,,,,54,,,,,,,,,,,,,,334.5,,response,,,,100,,,,,,,Space,keypress(Space),,,,,,,,-- --- ---- --- ------ ----- ------- ---- -- --- ------- --<br>------- ---------- ------ -- ----- -- ----- -- save ------<br>--- ----- --- --- ------ -------- ----- --- ------ ----- --<br>----- ----- ---------- --- --- ------ ------ ---- -- ------<br>------- --- ------ ----- --- ---- ------- -- ---- --- --<br>------- ------,241064,241041,240696.44,240696,240706.5,241073.7,,20,save
screen,html.Screen,2_1_1_1_21,2022-05-03T20:06:39.372Z,,,,,,,,,,,,,,,,,54,,,,,,,,,,,,,,390.29999999998836,,response,,,,100,,,,,,,Space,keypress(Space),,,,,,,,"-- --- ---- --- ------ ----- ------- ---- -- --- ------- --<br>------- ---------- ------ -- ----- -- ----- -- ---- money,<br>--- ----- --- --- ------ -------- ----- --- ------ ----- --<br>----- ----- ---------- --- --- ------ ------ ---- -- ------<br>------- --- ------ ----- --- ---- ------- -- ---- --- --<br>------- ------",241471,241464,241064.74,241064,241073.7,241474.28,,21,"money,"
screen,html.Screen,2_1_1_1_22,2022-05-03T20:06:39.726Z,,,,,,,,,,,,,,,,,54,,,,,,,,,,,,,,332.72000000000116,,response,,,,100,,,,,,,Space,keypress(Space),,,,,,,,-- --- ---- --- ------ ----- ------- ---- -- --- ------- --<br>------- ---------- ------ -- ----- -- ----- -- ---- ------<br>the ----- --- --- ------ -------- ----- --- ------ ----- --<br>----- ----- ---------- --- --- ------ ------ ---- -- ------<br>------- --- ------ ----- --- ---- ------- -- ---- --- --<br>------- ------,241825,241807,241472.14,241472,241474.28,241826.82,,22,the
screen,html.Screen,2_1_1_1_23,2022-05-03T20:06:40.399Z,,,,,,,,,,,,,,,,,54,,,,,,,,,,,,,,652.179999999993,,response,,,,100,,,,,,,Space,keypress(Space),,,,,,,,-- --- ---- --- ------ ----- ------- ---- -- --- ------- --<br>------- ---------- ------ -- ----- -- ----- -- ---- ------<br>--- state --- --- ------ -------- ----- --- ------ ----- --<br>----- ----- ---------- --- --- ------ ------ ---- -- ------<br>------- --- ------ ----- --- ---- ------- -- ---- --- --<br>------- ------,242499,242479,241825.84,241826,241826.82,242511.14,,23,state
screen,html.Screen,2_1_1_1_24,2022-05-03T20:06:40.550Z,,,,,,,,,,,,,,,,,54,,,,,,,,,,,,,,124.85999999998603,,response,,,,100,,,,,,,Space,keypress(Space),,,,,,,,-- --- ---- --- ------ ----- ------- ---- -- --- ------- --<br>------- ---------- ------ -- ----- -- ----- -- ---- ------<br>--- ----- cut --- ------ -------- ----- --- ------ ----- --<br>----- ----- ---------- --- --- ------ ------ ---- -- ------<br>------- --- ------ ----- --- ---- ------- -- ---- --- --<br>------- ------,242650,242636,242498.82,242499,242511.14,242661.36,,24,cut
screen,html.Screen,2_1_1_1_25,2022-05-03T20:06:40.696Z,,,,,,,,,,,,,,,,,54,,,,,,,,,,,,,,114.64000000001397,,response,,,,100,,,,,,,Space,keypress(Space),,,,,,,,-- --- ---- --- ------ ----- ------- ---- -- --- ------- --<br>------- ---------- ------ -- ----- -- ----- -- ---- ------<br>--- ----- --- the ------ -------- ----- --- ------ ----- --<br>----- ----- ---------- --- --- ------ ------ ---- -- ------<br>------- --- ------ ----- --- ---- ------- -- ---- --- --<br>------- ------,242795,242776,242650.14,242650,242661.36,242811.56,,25,the
screen,html.Screen,2_1_1_1_26,2022-05-03T20:06:41.381Z,,,,,,,,,,,,,,,,,54,,,,,,,,,,,,,,652.4400000000023,,response,,,,100,,,,,,,Space,keypress(Space),,,,,,,,-- --- ---- --- ------ ----- ------- ---- -- --- ------- --<br>------- ---------- ------ -- ----- -- ----- -- ---- ------<br>--- ----- --- --- bonds' -------- ----- --- ------ ----- --<br>----- ----- ---------- --- --- ------ ------ ---- -- ------<br>------- --- ------ ----- --- ---- ------- -- ---- --- --<br>------- ------,243481,243464,242795.36,242795,242811.56,243497.94,,26,bonds'
screen,html.Screen,2_1_1_1_27,2022-05-03T20:06:41.967Z,,,,,,,,,,,,,,,,,54,,,,,,,,,,,,,,560.0599999999977,,response,,,,100,,,,,,,Space,keypress(Space),,,,,,,,-- --- ---- --- ------ ----- ------- ---- -- --- ------- --<br>------- ---------- ------ -- ----- -- ----- -- ---- ------<br>--- ----- --- --- ------ interest ----- --- ------ ----- --<br>----- ----- ---------- --- --- ------ ------ ---- -- ------<br>------- --- ------ ----- --- ---- ------- -- ---- --- --<br>------- ------,244067,244058,243481.44,243481,243497.94,244082.12,,27,interest
screen,html.Screen,2_1_1_1_28,2022-05-03T20:06:42.392Z,,,,,,,,,,,,,,,,,54,,,,,,,,,,,,,,395.88000000000466,,response,,,,100,,,,,,,Space,keypress(Space),,,,,,,,-- --- ---- --- ------ ----- ------- ---- -- --- ------- --<br>------- ---------- ------ -- ----- -- ----- -- ---- ------<br>--- ----- --- --- ------ -------- rate. --- ------ ----- --<br>----- ----- ---------- --- --- ------ ------ ---- -- ------<br>------- --- ------ ----- --- ---- ------- -- ---- --- --<br>------- ------,244492,244478,244067.16,244067,244082.12,244501.34,,28,rate.
screen,html.Screen,2_1_1_1_29,2022-05-03T20:06:43.113Z,,,,,,,,,,,,,,,,,54,,,,,,,,,,,,,,696.6600000000035,,response,,,,100,,,,,,,Space,keypress(Space),,,,,,,,-- --- ---- --- ------ ----- ------- ---- -- --- ------- --<br>------- ---------- ------ -- ----- -- ----- -- ---- ------<br>--- ----- --- --- ------ -------- ----- The ------ ----- --<br>----- ----- ---------- --- --- ------ ------ ---- -- ------<br>------- --- ------ ----- --- ---- ------- -- ---- --- --<br>------- ------,245213,245198,244492.22,244492,244501.34,245221.04,,29,The
screen,html.Screen,2_1_1_1_30,2022-05-03T20:06:43.410Z,,,,,,,,,,,,,,,,,54,,,,,,,,,,,,,,272.95999999999185,,response,,,,100,,,,,,,Space,keypress(Space),,,,,,,,-- --- ---- --- ------ ----- ------- ---- -- --- ------- --<br>------- ---------- ------ -- ----- -- ----- -- ---- ------<br>--- ----- --- --- ------ -------- ----- --- market ----- --<br>----- ----- ---------- --- --- ------ ------ ---- -- ------<br>------- --- ------ ----- --- ---- ------- -- ---- --- --<br>------- ------,245510,245494,245213.02,245213,245221.04,245521.4,,30,market
screen,html.Screen,2_1_1_1_31,2022-05-03T20:06:43.830Z,,,,,,,,,,,,,,,,,54,,,,,,,,,,,,,,395.6000000000058,,response,,,,100,,,,,,,Space,keypress(Space),,,,,,,,-- --- ---- --- ------ ----- ------- ---- -- --- ------- --<br>------- ---------- ------ -- ----- -- ----- -- ---- ------<br>--- ----- --- --- ------ -------- ----- --- ------ value --<br>----- ----- ---------- --- --- ------ ------ ---- -- ------<br>------- --- ------ ----- --- ---- ------- -- ---- --- --<br>------- ------,245930,245917,245510.14,245510,245521.4,245938.68,,31,value
screen,html.Screen,2_1_1_1_32,2022-05-03T20:06:44.162Z,,,,,,,,,,,,,,,,,54,,,,,,,,,,,,,,306.320000000007,,response,,,,100,,,,,,,Space,keypress(Space),,,,,,,,-- --- ---- --- ------ ----- ------- ---- -- --- ------- --<br>------- ---------- ------ -- ----- -- ----- -- ---- ------<br>--- ----- --- --- ------ -------- ----- --- ------ ----- of<br>----- ----- ---------- --- --- ------ ------ ---- -- ------<br>------- --- ------ ----- --- ---- ------- -- ---- --- --<br>------- ------,246262,246245,245930.14,245930,245938.68,246272.5,,32,of
screen,html.Screen,2_1_1_1_33,2022-05-03T20:06:44.538Z,,,,,,,,,,,,,,,,,54,,,,,,,,,,,,,,346.5,,response,,,,100,,,,,,,Space,keypress(Space),,,,,,,,-- --- ---- --- ------ ----- ------- ---- -- --- ------- --<br>------- ---------- ------ -- ----- -- ----- -- ---- ------<br>--- ----- --- --- ------ -------- ----- --- ------ ----- --<br>these ----- ---------- --- --- ------ ------ ---- -- ------<br>------- --- ------ ----- --- ---- ------- -- ---- --- --<br>------- ------,246637,246619,246262.22,246262,246272.5,246641.74,,33,these
screen,html.Screen,2_1_1_1_34,2022-05-03T20:06:44.936Z,,,,,,,,,,,,,,,,,54,,,,,,,,,,,,,,368.2600000000093,,response,,,,100,,,,,,,Space,keypress(Space),,,,,,,,-- --- ---- --- ------ ----- ------- ---- -- --- ------- --<br>------- ---------- ------ -- ----- -- ----- -- ---- ------<br>--- ----- --- --- ------ -------- ----- --- ------ ----- --<br>----- bonds ---------- --- --- ------ ------ ---- -- ------<br>------- --- ------ ----- --- ---- ------- -- ---- --- --<br>------- ------,247035,247010,246638.22,246639,246641.74,247042.32,,34,bonds
screen,html.Screen,2_1_1_1_35,2022-05-03T20:06:45.283Z,,,,,,,,,,,,,,,,,54,,,,,,,,,,,,,,327.679999999993,,response,,,,100,,,,,,,Space,keypress(Space),,,,,,,,"-- --- ---- --- ------ ----- ------- ---- -- --- ------- --<br>------- ---------- ------ -- ----- -- ----- -- ---- ------<br>--- ----- --- --- ------ -------- ----- --- ------ ----- --<br>----- ----- plummeted, --- --- ------ ------ ---- -- ------<br>------- --- ------ ----- --- ---- ------- -- ---- --- --<br>------- ------",247384,247370,247036.12,247036,247042.32,247392.82,,35,"plummeted,"
screen,html.Screen,2_1_1_1_36,2022-05-03T20:06:46.513Z,,,,,,,,,,,,,,,,,54,,,,,,,,,,,,,,1211.179999999993,,response,,,,100,,,,,,,Space,keypress(Space),,,,,,,,-- --- ---- --- ------ ----- ------- ---- -- --- ------- --<br>------- ---------- ------ -- ----- -- ----- -- ---- ------<br>--- ----- --- --- ------ -------- ----- --- ------ ----- --<br>----- ----- ---------- and --- ------ ------ ---- -- ------<br>------- --- ------ ----- --- ---- ------- -- ---- --- --<br>------- ------,248612,248604,247384.04,247384,247392.82,248613.3,,36,and
screen,html.Screen,2_1_1_1_37,2022-05-03T20:06:46.856Z,,,,,,,,,,,,,,,,,54,,,,,,,,,,,,,,334.70000000001164,,response,,,,100,,,,,,,Space,keypress(Space),,,,,,,,-- --- ---- --- ------ ----- ------- ---- -- --- ------- --<br>------- ---------- ------ -- ----- -- ----- -- ---- ------<br>--- ----- --- --- ------ -------- ----- --- ------ ----- --<br>----- ----- ---------- --- the ------ ------ ---- -- ------<br>------- --- ------ ----- --- ---- ------- -- ---- --- --<br>------- ------,248957,248948,248612.98,248613,248613.3,248965.82,,37,the
screen,html.Screen,2_1_1_1_38,2022-05-03T20:06:47.010Z,,,,,,,,,,,,,,,,,54,,,,,,,,,,,,,,137.17999999999302,,response,,,,100,,,,,,,Space,keypress(Space),,,,,,,,-- --- ---- --- ------ ----- ------- ---- -- --- ------- --<br>------- ---------- ------ -- ----- -- ----- -- ---- ------<br>--- ----- --- --- ------ -------- ----- --- ------ ----- --<br>----- ----- ---------- --- --- market ------ ---- -- ------<br>------- --- ------ ----- --- ---- ------- -- ---- --- --<br>------- ------,249110,249103,248957.02,248957,248965.82,249116.04,,38,market
screen,html.Screen,2_1_1_1_39,2022-05-03T20:06:47.445Z,,,,,,,,,,,,,,,,,54,,,,,,,,,,,,,,409.95999999999185,,response,,,,100,,,,,,,Space,keypress(Space),,,,,,,,-- --- ---- --- ------ ----- ------- ---- -- --- ------- --<br>------- ---------- ------ -- ----- -- ----- -- ---- ------<br>--- ----- --- --- ------ -------- ----- --- ------ ----- --<br>----- ----- ---------- --- --- ------ became ---- -- ------<br>------- --- ------ ----- --- ---- ------- -- ---- --- --<br>------- ------,249545,249526,249110.56,249111,249116.04,249550,,39,became
screen,html.Screen,2_1_1_1_40,2022-05-03T20:06:47.898Z,,,,,,,,,,,,,,,,,54,,,,,,,,,,,,,,428,,response,,,,100,,,,,,,Space,keypress(Space),,,,,,,,-- --- ---- --- ------ ----- ------- ---- -- --- ------- --<br>------- ---------- ------ -- ----- -- ----- -- ---- ------<br>--- ----- --- --- ------ -------- ----- --- ------ ----- --<br>----- ----- ---------- --- --- ------ ------ wary -- ------<br>------- --- ------ ----- --- ---- ------- -- ---- --- --<br>------- ------,249999,249978,249545.16,249546,249550,250002.64,,40,wary
screen,html.Screen,2_1_1_1_41,2022-05-03T20:06:48.238Z,,,,,,,,,,,,,,,,,54,,,,,,,,,,,,,,320.35999999998603,,response,,,,100,,,,,,,Space,keypress(Space),,,,,,,,-- --- ---- --- ------ ----- ------- ---- -- --- ------- --<br>------- ---------- ------ -- ----- -- ----- -- ---- ------<br>--- ----- --- --- ------ -------- ----- --- ------ ----- --<br>----- ----- ---------- --- --- ------ ------ ---- of ------<br>------- --- ------ ----- --- ---- ------- -- ---- --- --<br>------- ------,250337,250323,249998.88,249999,250002.64,250353.16,,41,of
screen,html.Screen,2_1_1_1_42,2022-05-03T20:06:48.570Z,,,,,,,,,,,,,,,,,54,,,,,,,,,,,,,,296.8399999999965,,response,,,,100,,,,,,,Space,keypress(Space),,,,,,,,-- --- ---- --- ------ ----- ------- ---- -- --- ------- --<br>------- ---------- ------ -- ----- -- ----- -- ---- ------<br>--- ----- --- --- ------ -------- ----- --- ------ ----- --<br>----- ----- ---------- --- --- ------ ------ ---- -- French<br>------- --- ------ ----- --- ---- ------- -- ---- --- --<br>------- ------,250670,250650,250338,250338,250353.16,250670.28,,42,French
screen,html.Screen,2_1_1_1_43,2022-05-03T20:06:49.095Z,,,,,,,,,,,,,,,,,54,,,,,,,,,,,,,,511.72000000000116,,response,,,,100,,,,,,,Space,keypress(Space),,,,,,,,-- --- ---- --- ------ ----- ------- ---- -- --- ------- --<br>------- ---------- ------ -- ----- -- ----- -- ---- ------<br>--- ----- --- --- ------ -------- ----- --- ------ ----- --<br>----- ----- ---------- --- --- ------ ------ ---- -- ------<br>credit. --- ------ ----- --- ---- ------- -- ---- --- --<br>------- ------,251195,251182,250670.12,250670,250670.28,251206.4,,43,credit.
screen,html.Screen,2_1_1_1_44,2022-05-03T20:06:49.670Z,,,,,,,,,,,,,,,,,54,,,,,,,,,,,,,,553.6000000000058,,response,,,,100,,,,,,,Space,keypress(Space),,,,,,,,-- --- ---- --- ------ ----- ------- ---- -- --- ------- --<br>------- ---------- ------ -- ----- -- ----- -- ---- ------<br>--- ----- --- --- ------ -------- ----- --- ------ ----- --<br>----- ----- ---------- --- --- ------ ------ ---- -- ------<br>------- The ------ ----- --- ---- ------- -- ---- --- --<br>------- ------,251770,251760,251195.66,251195,251206.4,251773.9,,44,The
screen,html.Screen,2_1_1_1_45,2022-05-03T20:06:49.874Z,,,,,,,,,,,,,,,,,54,,,,,,,,,,,,,,190.10000000000582,,response,,,,100,,,,,,,Space,keypress(Space),,,,,,,,-- --- ---- --- ------ ----- ------- ---- -- --- ------- --<br>------- ---------- ------ -- ----- -- ----- -- ---- ------<br>--- ----- --- --- ------ -------- ----- --- ------ ----- --<br>----- ----- ---------- --- --- ------ ------ ---- -- ------<br>------- --- French ----- --- ---- ------- -- ---- --- --<br>------- ------,251975,251964,251770.8,251771,251773.9,251990.88,,45,French
screen,html.Screen,2_1_1_1_46,2022-05-03T20:06:50.296Z,,,,,,,,,,,,,,,,,54,,,,,,,,,,,,,,378.11999999999534,,response,,,,100,,,,,,,Space,keypress(Space),,,,,,,,-- --- ---- --- ------ ----- ------- ---- -- --- ------- --<br>------- ---------- ------ -- ----- -- ----- -- ---- ------<br>--- ----- --- --- ------ -------- ----- --- ------ ----- --<br>----- ----- ---------- --- --- ------ ------ ---- -- ------<br>------- --- ------ state --- ---- ------- -- ---- --- --<br>------- ------,252395,252369,251975.22,251975,251990.88,252410.16,,46,state
screen,html.Screen,2_1_1_1_47,2022-05-03T20:06:50.675Z,,,,,,,,,,,,,,,,,54,,,,,,,,,,,,,,349.8399999999965,,response,,,,100,,,,,,,Space,keypress(Space),,,,,,,,-- --- ---- --- ------ ----- ------- ---- -- --- ------- --<br>------- ---------- ------ -- ----- -- ----- -- ---- ------<br>--- ----- --- --- ------ -------- ----- --- ------ ----- --<br>----- ----- ---------- --- --- ------ ------ ---- -- ------<br>------- --- ------ ----- was ---- ------- -- ---- --- --<br>------- ------,252775,252760,252396.36,252396,252410.16,252777.36,,47,was
screen,html.Screen,2_1_1_1_48,2022-05-03T20:06:51.294Z,,,,,,,,,,,,,,,,,54,,,,,,,,,,,,,,591.640000000014,,response,,,,100,,,,,,,Space,keypress(Space),,,,,,,,-- --- ---- --- ------ ----- ------- ---- -- --- ------- --<br>------- ---------- ------ -- ----- -- ----- -- ---- ------<br>--- ----- --- --- ------ -------- ----- --- ------ ----- --<br>----- ----- ---------- --- --- ------ ------ ---- -- ------<br>------- --- ------ ----- --- left ------- -- ---- --- --<br>------- ------,253393,253369,252775.02,252775,252777.36,253394.92,,48,left
screen,html.Screen,2_1_1_1_49,2022-05-03T20:06:52.067Z,,,,,,,,,,,,,,,,,54,,,,,,,,,,,,,,755.0799999999872,,response,,,,100,,,,,,,Space,keypress(Space),,,,,,,,-- --- ---- --- ------ ----- ------- ---- -- --- ------- --<br>------- ---------- ------ -- ----- -- ----- -- ---- ------<br>--- ----- --- --- ------ -------- ----- --- ------ ----- --<br>----- ----- ---------- --- --- ------ ------ ---- -- ------<br>------- --- ------ ----- --- ---- without -- ---- --- --<br>------- ------,254167,254150,253393.8,253394,253394.92,254181.42,,49,without
screen,html.Screen,2_1_1_1_50,2022-05-03T20:06:52.768Z,,,,,,,,,,,,,,,,,54,,,,,,,,,,,,,,672.5799999999872,,response,,,,100,,,,,,,Space,keypress(Space),,,,,,,,-- --- ---- --- ------ ----- ------- ---- -- --- ------- --<br>------- ---------- ------ -- ----- -- ----- -- ---- ------<br>--- ----- --- --- ------ -------- ----- --- ------ ----- --<br>----- ----- ---------- --- --- ------ ------ ---- -- ------<br>------- --- ------ ----- --- ---- ------- an ---- --- --<br>------- ------,254867,254854,254166.88,254167,254181.42,254867.76,,50,an
screen,html.Screen,2_1_1_1_51,2022-05-03T20:06:53.363Z,,,,,,,,,,,,,,,,,54,,,,,,,,,,,,,,579.2399999999907,,response,,,,100,,,,,,,Space,keypress(Space),,,,,,,,-- --- ---- --- ------ ----- ------- ---- -- --- ------- --<br>------- ---------- ------ -- ----- -- ----- -- ---- ------<br>--- ----- --- --- ------ -------- ----- --- ------ ----- --<br>----- ----- ---------- --- --- ------ ------ ---- -- ------<br>------- --- ------ ----- --- ---- ------- -- easy --- --<br>------- ------,255462,255447,254867.54,254867,254867.76,255468.64,,51,easy
screen,html.Screen,2_1_1_1_52,2022-05-03T20:06:53.714Z,,,,,,,,,,,,,,,,,54,,,,,,,,,,,,,,322.35999999998603,,response,,,,100,,,,,,,Space,keypress(Space),,,,,,,,-- --- ---- --- ------ ----- ------- ---- -- --- ------- --<br>------- ---------- ------ -- ----- -- ----- -- ---- ------<br>--- ----- --- --- ------ -------- ----- --- ------ ----- --<br>----- ----- ---------- --- --- ------ ------ ---- -- ------<br>------- --- ------ ----- --- ---- ------- -- ---- way --<br>------- ------,255814,255791,255462.5,255462,255468.64,255819.14,,52,way
screen,html.Screen,2_1_1_1_53,2022-05-03T20:06:54.130Z,,,,,,,,,,,,,,,,,54,,,,,,,,,,,,,,394.85999999998603,,response,,,,100,,,,,,,Space,keypress(Space),,,,,,,,-- --- ---- --- ------ ----- ------- ---- -- --- ------- --<br>------- ---------- ------ -- ----- -- ----- -- ---- ------<br>--- ----- --- --- ------ -------- ----- --- ------ ----- --<br>----- ----- ---------- --- --- ------ ------ ---- -- ------<br>------- --- ------ ----- --- ---- ------- -- ---- --- of<br>------- ------,256230,256214,255814.56,255815,255819.14,256238.42,,53,of
screen,html.Screen,2_1_1_1_54,2022-05-03T20:06:54.547Z,,,,,,,,,,,,,,,,,54,,,,,,,,,,,,,,397.5799999999872,,response,,,,100,,,,,,,Space,keypress(Space),,,,,,,,-- --- ---- --- ------ ----- ------- ---- -- --- ------- --<br>------- ---------- ------ -- ----- -- ----- -- ---- ------<br>--- ----- --- --- ------ -------- ----- --- ------ ----- --<br>----- ----- ---------- --- --- ------ ------ ---- -- ------<br>------- --- ------ ----- --- ---- ------- -- ---- --- --<br>raising ------,256646,256636,256230.82,256230,256238.42,256655.7,,54,raising
screen,html.Screen,2_1_1_1_55,2022-05-03T20:06:55.306Z,,,,,,,,,,,,,,,,,54,,,,,,,,,,,,,,730.2999999999884,,response,,,,100,,,,,,,Space,keypress(Space),,,,,,,,-- --- ---- --- ------ ----- ------- ---- -- --- ------- --<br>------- ---------- ------ -- ----- -- ----- -- ---- ------<br>--- ----- --- --- ------ -------- ----- --- ------ ----- --<br>----- ----- ---------- --- --- ------ ------ ---- -- ------<br>------- --- ------ ----- --- ---- ------- -- ---- --- --<br>------- money.,257406,257386,256647.1,256647,256655.7,257408.78,,55,money.
Item 100,flow.Loop,2_1_1_1,2022-05-03T20:06:55.307Z,,,,,,,,,,,,,,,,,,,,,,,,,,,,,,,27413.100000000006,,completion,,,,,A,,,,,,,,,,,silence,,,,,257407,257386,229956.2,229957,229972.9,257408.78,,,
Question 1,html.Screen,2_1_1_2,2022-05-03T20:06:57.746Z,,,,,,,,,,,,,,,,,,,,,,,,,,,,true,TRUE,,2413.220000000001,,response,,,,100,A,,,,,,TRUE,click #choice-1,,,,silence,,,,,259846,259822,257407.16,257407,257408.78,259849.6,,,
Question 2,html.Screen,2_1_1_3,2022-05-03T20:07:00.173Z,,,,,,,,,,,,,,,,,,,,,,,,,,,,true,FALSE,,2410.399999999994,,response,,,,100,A,,,,,,FALSE,click #choice-2,,,,silence,,,,,262273,262260,259844.52,259846,259849.6,262273.82,,,
Item 100,flow.Sequence,2_1_1,2022-05-03T20:07:00.174Z,,,,,,,,,,,,,,,,,,,,,,,,,,,,,,,42286.140000000014,,completion,,,,,,,,,,,,,,,,,,,,,262273,262260,219964.5,219967,219973.86,262273.82,,,
End of Practice,html.Page,2_1_2,2022-05-03T20:07:03.668Z,,,,,,,,,,,,,,,,,,,,,,,,,,,,,,,3495.179999999993,,form submission,,,,,,,,,,,,,,,,,,,,,265769,265769,262272.18,262274,262273.82,265768.1,,,
Practice,flow.Sequence,2_1,2022-05-03T20:07:03.668Z,,,,,,,,,,,,,,,,,,,,,,,,,,,,,,,97007.34,,completion,,,,,,,,,,,,,,,,,,,,,265769,265769,168745.5,168752,168761.66,265768.1,,,
Trap_instruction,html.Page,2_2_0,2022-05-03T20:07:07.214Z,,,,,,,,,,,,,,,,,,,,,,,,,,,,,,,3545.9000000000233,,form submission,,,,,,,,,,,,,,,,,,,,,269314,269314,265763.92,265769,265768.1,269514.06,,,
trap_trial,html.Screen,2_2_1,2022-05-03T20:07:09.873Z,,,,,,,,,,,,,,,,,,,,,,,,,,,,true,1,,2449.9400000000023,,response,,,,,,,,,,,1,click #choice-1,,,,,,,,,271973,271964,269310.04,269314,269514.06,271971.66,,,
end of trap trial,html.Page,2_2_2,2022-05-03T20:07:11.695Z,,,,,,,,,,,,,,,,,,,,,,,,,,,,,,,1823.3400000000256,,form submission,,,,,,,,,,,,,,,,,,,,,273796,273795,271971.54,271973,271971.66,273792.8,,,
Trap 1,flow.Sequence,2_2,2022-05-03T20:07:11.696Z,,,,,,,,,,,,,,,,,,,,,,,,,,,,,,,8026.900000000023,,completion,,,,,,,,,,,,,,,,,,,,,273796,273795,265763.92,265769,265768.1,273792.8,,,
Standby,html.Page,2_3_0,2022-05-03T20:07:19.670Z,,,,,,,,,,,,,,,,,,,,,,,,,,,,,,,7992.260000000009,,timeout,,,,,,,,,,,,,,,,,,,,,281770,281768.36,273790.3,273797,273792.8,281785.06,,,
Holding screen,html.Screen,2_3_1_0_0,2022-05-03T20:07:26.676Z,,,,,,,,,,,,,,,,,,,,,,,,,,,,,,,7005.460000000021,,timeout,,,,,,,,,,,,,,,,,,,,,288775,288773.82,281768.36,281771,281785.06,288790.52,,,
screen,html.Screen,2_3_1_0_1_0,2022-05-03T20:07:27.504Z,,,,,,,,,,,,,,,,,2,,,,,,,,,,,,,,798.4799999999814,,response,,,,1,A,,,,,,Space,keypress(Space),,,,silence,,,,Two ---- ------ --- ------- ---------- ------- ----------<br>--- --------- --- ----------- ------- ----- ------- ---<br>--------- ---- -- --- ---- -- --------- -- ---- -------<br>-- --------- ------ --- ----- ------ ---- --- --------- --<br>------ - ---- -- --- ----------- ------- ---- ----- -----<br>--- -------- - ------ ---- -- ----- ---- --- --- -----------<br>-- -------,289604,289589,288773.82,288776,288790.52,289610.4,,0,Two
screen,html.Screen,2_3_1_0_1_1,2022-05-03T20:07:27.885Z,,,,,,,,,,,,,,,,,2,,,,,,,,,,,,,,352.5999999999767,,response,,,,1,A,,,,,,Space,keypress(Space),,,,silence,,,,--- days ------ --- ------- ---------- ------- ----------<br>--- --------- --- ----------- ------- ----- ------- ---<br>--------- ---- -- --- ---- -- --------- -- ---- -------<br>-- --------- ------ --- ----- ------ ---- --- --------- --<br>------ - ---- -- --- ----------- ------- ---- ----- -----<br>--- -------- - ------ ---- -- ----- ---- --- --- -----------<br>-- -------,289984,289963,289604.58,289605,289610.4,289994.28,,1,days
screen,html.Screen,2_3_1_0_1_2,2022-05-03T20:07:28.206Z,,,,,,,,,,,,,,,,,2,,,,,,,,,,,,,,297.71999999997206,,response,,,,1,A,,,,,,Space,keypress(Space),,,,silence,,,,"--- ---- later, --- ------- ---------- ------- ----------<br>--- --------- --- ----------- ------- ----- ------- ---<br>--------- ---- -- --- ---- -- --------- -- ---- -------<br>-- --------- ------ --- ----- ------ ---- --- --------- --<br>------ - ---- -- --- ----------- ------- ---- ----- -----<br>--- -------- - ------ ---- -- ----- ---- --- --- -----------<br>-- -------",290306,290292,289984.96,289985,289994.28,290311.42,,2,"later,"
screen,html.Screen,2_3_1_0_1_3,2022-05-03T20:07:28.608Z,,,,,,,,,,,,,,,,,2,,,,,,,,,,,,,,386.5800000000163,,response,,,,1,A,,,,,,Space,keypress(Space),,,,silence,,,,--- ---- ------ the ------- ---------- ------- ----------<br>--- --------- --- ----------- ------- ----- ------- ---<br>--------- ---- -- --- ---- -- --------- -- ---- -------<br>-- --------- ------ --- ----- ------ ---- --- --------- --<br>------ - ---- -- --- ----------- ------- ---- ----- -----<br>--- -------- - ------ ---- -- ----- ---- --- --- -----------<br>-- -------,290708,290698,290306.5,290306,290311.42,290714,,3,the
screen,html.Screen,2_3_1_0_1_4,2022-05-03T20:07:29.060Z,,,,,,,,,,,,,,,,,2,,,,,,,,,,,,,,436,,response,,,,1,A,,,,,,Space,keypress(Space),,,,silence,,,,--- ---- ------ --- British ---------- ------- ----------<br>--- --------- --- ----------- ------- ----- ------- ---<br>--------- ---- -- --- ---- -- --------- -- ---- -------<br>-- --------- ------ --- ----- ------ ---- --- --------- --<br>------ - ---- -- --- ----------- ------- ---- ----- -----<br>--- -------- - ------ ---- -- ----- ---- --- --- -----------<br>-- -------,291161,291150,290708.34,290708,290714,291164.66,,4,British
screen,html.Screen,2_3_1_0_1_5,2022-05-03T20:07:29.608Z,,,,,,,,,,,,,,,,,2,,,,,,,,,,,,,,533.3400000000256,,response,,,,1,A,,,,,,Space,keypress(Space),,,,silence,,,,--- ---- ------ --- ------- astronomer ------- ----------<br>--- --------- --- ----------- ------- ----- ------- ---<br>--------- ---- -- --- ---- -- --------- -- ---- -------<br>-- --------- ------ --- ----- ------ ---- --- --------- --<br>------ - ---- -- --- ----------- ------- ---- ----- -----<br>--- -------- - ------ ---- -- ----- ---- --- --- -----------<br>-- -------,291708,291698,291160.76,291161,291164.66,291715.46,,5,astronomer
screen,html.Screen,2_3_1_0_1_6,2022-05-03T20:07:29.853Z,,,,,,,,,,,,,,,,,2,,,,,,,,,,,,,,216.53999999997905,,response,,,,1,A,,,,,,Space,keypress(Space),,,,silence,,,,--- ---- ------ --- ------- ---------- Richard ----------<br>--- --------- --- ----------- ------- ----- ------- ---<br>--------- ---- -- --- ---- -- --------- -- ---- -------<br>-- --------- ------ --- ----- ------ ---- --- --------- --<br>------ - ---- -- --- ----------- ------- ---- ----- -----<br>--- -------- - ------ ---- -- ----- ---- --- --- -----------<br>-- -------,291952,291932,291708.5,291708,291715.46,291967.78,,6,Richard
screen,html.Screen,2_3_1_0_1_7,2022-05-03T20:07:30.264Z,,,,,,,,,,,,,,,,,2,,,,,,,,,,,,,,385.21999999997206,,response,,,,1,A,,,,,,Space,keypress(Space),,,,silence,,,,--- ---- ------ --- ------- ---------- ------- Carrington<br>--- --------- --- ----------- ------- ----- ------- ---<br>--------- ---- -- --- ---- -- --------- -- ---- -------<br>-- --------- ------ --- ----- ------ ---- --- --------- --<br>------ - ---- -- --- ----------- ------- ---- ----- -----<br>--- -------- - ------ ---- -- ----- ---- --- --- -----------<br>-- -------,292364,292353,291953.16,291953,291967.78,292368.36,,7,Carrington
screen,html.Screen,2_3_1_0_1_8,2022-05-03T20:07:30.610Z,,,,,,,,,,,,,,,,,2,,,,,,,,,,,,,,329.64000000001397,,response,,,,1,A,,,,,,Space,keypress(Space),,,,silence,,,,--- ---- ------ --- ------- ---------- ------- ----------<br>was --------- --- ----------- ------- ----- ------- ---<br>--------- ---- -- --- ---- -- --------- -- ---- -------<br>-- --------- ------ --- ----- ------ ---- --- --------- --<br>------ - ---- -- --- ----------- ------- ---- ----- -----<br>--- -------- - ------ ---- -- ----- ---- --- --- -----------<br>-- -------,292710,292698,292363.82,292364,292368.36,292718.86,,8,was
screen,html.Screen,2_3_1_0_1_9,2022-05-03T20:07:30.781Z,,,,,,,,,,,,,,,,,2,,,,,,,,,,,,,,150.14000000001397,,response,,,,1,A,,,,,,Space,keypress(Space),,,,silence,,,,--- ---- ------ --- ------- ---------- ------- ----------<br>--- observing --- ----------- ------- ----- ------- ---<br>--------- ---- -- --- ---- -- --------- -- ---- -------<br>-- --------- ------ --- ----- ------ ---- --- --------- --<br>------ - ---- -- --- ----------- ------- ---- ----- -----<br>--- -------- - ------ ---- -- ----- ---- --- --- -----------<br>-- -------,292881,292869,292710.24,292710,292718.86,292885.76,,9,observing
screen,html.Screen,2_3_1_0_1_10,2022-05-03T20:07:31.196Z,,,,,,,,,,,,,,,,,2,,,,,,,,,,,,,,390.2399999999907,,response,,,,1,A,,,,,,Space,keypress(Space),,,,silence,,,,--- ---- ------ --- ------- ---------- ------- ----------<br>--- --------- the ----------- ------- ----- ------- ---<br>--------- ---- -- --- ---- -- --------- -- ---- -------<br>-- --------- ------ --- ----- ------ ---- --- --------- --<br>------ - ---- -- --- ----------- ------- ---- ----- -----<br>--- -------- - ------ ---- -- ----- ---- --- --- -----------<br>-- -------,293296,293276,292881.36,292881,292885.76,293304.94,,10,the
screen,html.Screen,2_3_1_0_1_11,2022-05-03T20:07:31.598Z,,,,,,,,,,,,,,,,,2,,,,,,,,,,,,,,378.0599999999977,,response,,,,1,A,,,,,,Space,keypress(Space),,,,silence,,,,--- ---- ------ --- ------- ---------- ------- ----------<br>--- --------- --- interesting ------- ----- ------- ---<br>--------- ---- -- --- ---- -- --------- -- ---- -------<br>-- --------- ------ --- ----- ------ ---- --- --------- --<br>------ - ---- -- --- ----------- ------- ---- ----- -----<br>--- -------- - ------ ---- -- ----- ---- --- --- -----------<br>-- -------,293698,293683,293296.1,293296,293304.94,293705.52,,11,interesting
screen,html.Screen,2_3_1_0_1_12,2022-05-03T20:07:32.038Z,,,,,,,,,,,,,,,,,2,,,,,,,,,,,,,,414.4799999999814,,response,,,,1,A,,,,,,Space,keypress(Space),,,,silence,,,,--- ---- ------ --- ------- ---------- ------- ----------<br>--- --------- --- ----------- sunspot ----- ------- ---<br>--------- ---- -- --- ---- -- --------- -- ---- -------<br>-- --------- ------ --- ----- ------ ---- --- --------- --<br>------ - ---- -- --- ----------- ------- ---- ----- -----<br>--- -------- - ------ ---- -- ----- ---- --- --- -----------<br>-- -------,294138,294120,293698.54,293698,293705.52,294141.5,,12,sunspot
screen,html.Screen,2_3_1_0_1_13,2022-05-03T20:07:32.380Z,,,,,,,,,,,,,,,,,2,,,,,,,,,,,,,,321.5,,response,,,,1,A,,,,,,Space,keypress(Space),,,,silence,,,,--- ---- ------ --- ------- ---------- ------- ----------<br>--- --------- --- ----------- ------- group ------- ---<br>--------- ---- -- --- ---- -- --------- -- ---- -------<br>-- --------- ------ --- ----- ------ ---- --- --------- --<br>------ - ---- -- --- ----------- ------- ---- ----- -----<br>--- -------- - ------ ---- -- ----- ---- --- --- -----------<br>-- -------,294480,294463,294138.4,294138,294141.5,294492,,13,group
screen,html.Screen,2_3_1_0_1_14,2022-05-03T20:07:33.122Z,,,,,,,,,,,,,,,,,2,,,,,,,,,,,,,,722,,response,,,,1,A,,,,,,Space,keypress(Space),,,,silence,,,,--- ---- ------ --- ------- ---------- ------- ----------<br>--- --------- --- ----------- ------- ----- through ---<br>--------- ---- -- --- ---- -- --------- -- ---- -------<br>-- --------- ------ --- ----- ------ ---- --- --------- --<br>------ - ---- -- --- ----------- ------- ---- ----- -----<br>--- -------- - ------ ---- -- ----- ---- --- --- -----------<br>-- -------,295222,295214,294479.82,294480,294492,295228.44,,14,through
screen,html.Screen,2_3_1_0_1_15,2022-05-03T20:07:33.400Z,,,,,,,,,,,,,,,,,2,,,,,,,,,,,,,,250.55999999999767,,response,,,,1,A,,,,,,Space,keypress(Space),,,,silence,,,,--- ---- ------ --- ------- ---------- ------- ----------<br>--- --------- --- ----------- ------- ----- ------- his<br>--------- ---- -- --- ---- -- --------- -- ---- -------<br>-- --------- ------ --- ----- ------ ---- --- --------- --<br>------ - ---- -- --- ----------- ------- ---- ----- -----<br>--- -------- - ------ ---- -- ----- ---- --- --- -----------<br>-- -------,295500,295479,295222.04,295222,295228.44,295512.16,,15,his
screen,html.Screen,2_3_1_0_1_16,2022-05-03T20:07:33.953Z,,,,,,,,,,,,,,,,,2,,,,,,,,,,,,,,528.8400000000256,,response,,,,1,A,,,,,,Space,keypress(Space),,,,silence,,,,--- ---- ------ --- ------- ---------- ------- ----------<br>--- --------- --- ----------- ------- ----- ------- ---<br>telescope ---- -- --- ---- -- --------- -- ---- -------<br>-- --------- ------ --- ----- ------ ---- --- --------- --<br>------ - ---- -- --- ----------- ------- ---- ----- -----<br>--- -------- - ------ ---- -- ----- ---- --- --- -----------<br>-- -------,296053,296041,295500.08,295500,295512.16,296062.94,,16,telescope
screen,html.Screen,2_3_1_0_1_17,2022-05-03T20:07:34.312Z,,,,,,,,,,,,,,,,,2,,,,,,,,,,,,,,337.0599999999977,,response,,,,1,A,,,,,,Space,keypress(Space),,,,silence,,,,--- ---- ------ --- ------- ---------- ------- ----------<br>--- --------- --- ----------- ------- ----- ------- ---<br>--------- when -- --- ---- -- --------- -- ---- -------<br>-- --------- ------ --- ----- ------ ---- --- --------- --<br>------ - ---- -- --- ----------- ------- ---- ----- -----<br>--- -------- - ------ ---- -- ----- ---- --- --- -----------<br>-- -------,296412,296400,296053.6,296053,296062.94,296415.46,,17,when
screen,html.Screen,2_3_1_0_1_18,2022-05-03T20:07:34.480Z,,,,,,,,,,,,,,,,,2,,,,,,,,,,,,,,157.53999999997905,,response,,,,1,A,,,,,,Space,keypress(Space),,,,silence,,,,--- ---- ------ --- ------- ---------- ------- ----------<br>--- --------- --- ----------- ------- ----- ------- ---<br>--------- ---- he --- ---- -- --------- -- ---- -------<br>-- --------- ------ --- ----- ------ ---- --- --------- --<br>------ - ---- -- --- ----------- ------- ---- ----- -----<br>--- -------- - ------ ---- -- ----- ---- --- --- -----------<br>-- -------,296580,296573,296412.02,296412,296415.46,296582.38,,18,he
screen,html.Screen,2_3_1_0_1_19,2022-05-03T20:07:34.840Z,,,,,,,,,,,,,,,,,2,,,,,,,,,,,,,,349.61999999999534,,response,,,,1,A,,,,,,Space,keypress(Space),,,,silence,,,,--- ---- ------ --- ------- ---------- ------- ----------<br>--- --------- --- ----------- ------- ----- ------- ---<br>--------- ---- -- saw ---- -- --------- -- ---- -------<br>-- --------- ------ --- ----- ------ ---- --- --------- --<br>------ - ---- -- --- ----------- ------- ---- ----- -----<br>--- -------- - ------ ---- -- ----- ---- --- --- -----------<br>-- -------,296939,296932,296580.76,296580,296582.38,296949.58,,19,saw
screen,html.Screen,2_3_1_0_1_20,2022-05-03T20:07:35.187Z,,,,,,,,,,,,,,,,,2,,,,,,,,,,,,,,325.4199999999837,,response,,,,1,A,,,,,,Space,keypress(Space),,,,silence,,,,--- ---- ------ --- ------- ---------- ------- ----------<br>--- --------- --- ----------- ------- ----- ------- ---<br>--------- ---- -- --- what -- --------- -- ---- -------<br>-- --------- ------ --- ----- ------ ---- --- --------- --<br>------ - ---- -- --- ----------- ------- ---- ----- -----<br>--- -------- - ------ ---- -- ----- ---- --- --- -----------<br>-- -------,297287,297275,296939.84,296940,296949.58,297300.08,,20,what
screen,html.Screen,2_3_1_0_1_21,2022-05-03T20:07:35.532Z,,,,,,,,,,,,,,,,,2,,,,,,,,,,,,,,319.9199999999837,,response,,,,1,A,,,,,,Space,keypress(Space),,,,silence,,,,--- ---- ------ --- ------- ---------- ------- ----------<br>--- --------- --- ----------- ------- ----- ------- ---<br>--------- ---- -- --- ---- he --------- -- ---- -------<br>-- --------- ------ --- ----- ------ ---- --- --------- --<br>------ - ---- -- --- ----------- ------- ---- ----- -----<br>--- -------- - ------ ---- -- ----- ---- --- --- -----------<br>-- -------,297632,297620,297287.2,297287,297300.08,297635.92,,21,he
screen,html.Screen,2_3_1_0_1_22,2022-05-03T20:07:35.935Z,,,,,,,,,,,,,,,,,2,,,,,,,,,,,,,,374.0800000000163,,response,,,,1,A,,,,,,Space,keypress(Space),,,,silence,,,,--- ---- ------ --- ------- ---------- ------- ----------<br>--- --------- --- ----------- ------- ----- ------- ---<br>--------- ---- -- --- ---- -- described -- ---- -------<br>-- --------- ------ --- ----- ------ ---- --- --------- --<br>------ - ---- -- --- ----------- ------- ---- ----- -----<br>--- -------- - ------ ---- -- ----- ---- --- --- -----------<br>-- -------,298035,298010,297632.24,297633,297635.92,298036.5,,22,described
screen,html.Screen,2_3_1_0_1_23,2022-05-03T20:07:36.281Z,,,,,,,,,,,,,,,,,2,,,,,,,,,,,,,,333.5,,response,,,,1,A,,,,,,Space,keypress(Space),,,,silence,,,,--- ---- ------ --- ------- ---------- ------- ----------<br>--- --------- --- ----------- ------- ----- ------- ---<br>--------- ---- -- --- ---- -- --------- as ---- -------<br>-- --------- ------ --- ----- ------ ---- --- --------- --<br>------ - ---- -- --- ----------- ------- ---- ----- -----<br>--- -------- - ------ ---- -- ----- ---- --- --- -----------<br>-- -------,298381,298370,298035.54,298036,298036.5,298387,,23,as
screen,html.Screen,2_3_1_0_1_24,2022-05-03T20:07:36.502Z,,,,,,,,,,,,,,,,,2,,,,,,,,,,,,,,202,,response,,,,1,A,,,,,,Space,keypress(Space),,,,silence,,,,"--- ---- ------ --- ------- ---------- ------- ----------<br>--- --------- --- ----------- ------- ----- ------- ---<br>--------- ---- -- --- ---- -- --------- -- ""two -------<br>-- --------- ------ --- ----- ------ ---- --- --------- --<br>------ - ---- -- --- ----------- ------- ---- ----- -----<br>--- -------- - ------ ---- -- ----- ---- --- --- -----------<br>-- -------",298601,298589,298381.22,298381,298387,298603.98,,24,"""two"
screen,html.Screen,2_3_1_0_1_25,2022-05-03T20:07:36.930Z,,,,,,,,,,,,,,,,,2,,,,,,,,,,,,,,406.0200000000186,,response,,,,1,A,,,,,,Space,keypress(Space),,,,silence,,,,--- ---- ------ --- ------- ---------- ------- ----------<br>--- --------- --- ----------- ------- ----- ------- ---<br>--------- ---- -- --- ---- -- --------- -- ---- patches<br>-- --------- ------ --- ----- ------ ---- --- --------- --<br>------ - ---- -- --- ----------- ------- ---- ----- -----<br>--- -------- - ------ ---- -- ----- ---- --- --- -----------<br>-- -------,299029,299010,298601.66,298602,298603.98,299039.96,,25,patches
screen,html.Screen,2_3_1_0_1_26,2022-05-03T20:07:37.366Z,,,,,,,,,,,,,,,,,2,,,,,,,,,,,,,,407.03999999997905,,response,,,,1,A,,,,,,Space,keypress(Space),,,,silence,,,,--- ---- ------ --- ------- ---------- ------- ----------<br>--- --------- --- ----------- ------- ----- ------- ---<br>--------- ---- -- --- ---- -- --------- -- ---- -------<br>of --------- ------ --- ----- ------ ---- --- --------- --<br>------ - ---- -- --- ----------- ------- ---- ----- -----<br>--- -------- - ------ ---- -- ----- ---- --- --- -----------<br>-- -------,299466,299447,299030.02,299030,299039.96,299473.92,,26,of
screen,html.Screen,2_3_1_0_1_27,2022-05-03T20:07:37.587Z,,,,,,,,,,,,,,,,,2,,,,,,,,,,,,,,208.0800000000163,,response,,,,1,A,,,,,,Space,keypress(Space),,,,silence,,,,--- ---- ------ --- ------- ---------- ------- ----------<br>--- --------- --- ----------- ------- ----- ------- ---<br>--------- ---- -- --- ---- -- --------- -- ---- -------<br>-- intensely ------ --- ----- ------ ---- --- --------- --<br>------ - ---- -- --- ----------- ------- ---- ----- -----<br>--- -------- - ------ ---- -- ----- ---- --- --- -----------<br>-- -------,299688,299682,299466.54,299467,299473.92,299690.9,,27,intensely
screen,html.Screen,2_3_1_0_1_28,2022-05-03T20:07:38.187Z,,,,,,,,,,,,,,,,,2,,,,,,,,,,,,,,585.0999999999767,,response,,,,1,A,,,,,,Space,keypress(Space),,,,silence,,,,--- ---- ------ --- ------- ---------- ------- ----------<br>--- --------- --- ----------- ------- ----- ------- ---<br>--------- ---- -- --- ---- -- --------- -- ---- -------<br>-- --------- bright --- ----- ------ ---- --- --------- --<br>------ - ---- -- --- ----------- ------- ---- ----- -----<br>--- -------- - ------ ---- -- ----- ---- --- --- -----------<br>-- -------,300287,300276,299687.9,299688,299690.9,300293.8,,28,bright
screen,html.Screen,2_3_1_0_1_29,2022-05-03T20:07:38.553Z,,,,,,,,,,,,,,,,,2,,,,,,,,,,,,,,342.20000000001164,,response,,,,1,A,,,,,,Space,keypress(Space),,,,silence,,,,--- ---- ------ --- ------- ---------- ------- ----------<br>--- --------- --- ----------- ------- ----- ------- ---<br>--------- ---- -- --- ---- -- --------- -- ---- -------<br>-- --------- ------ and ----- ------ ---- --- --------- --<br>------ - ---- -- --- ----------- ------- ---- ----- -----<br>--- -------- - ------ ---- -- ----- ---- --- --- -----------<br>-- -------,300653,300636,300287.1,300287,300293.8,300661,,29,and
screen,html.Screen,2_3_1_0_1_30,2022-05-03T20:07:38.769Z,,,,,,,,,,,,,,,,,2,,,,,,,,,,,,,,193,,response,,,,1,A,,,,,,Space,keypress(Space),,,,silence,,,,--- ---- ------ --- ------- ---------- ------- ----------<br>--- --------- --- ----------- ------- ----- ------- ---<br>--------- ---- -- --- ---- -- --------- -- ---- -------<br>-- --------- ------ --- white ------ ---- --- --------- --<br>------ - ---- -- --- ----------- ------- ---- ----- -----<br>--- -------- - ------ ---- -- ----- ---- --- --- -----------<br>-- -------,300869,300854,300652.96,300653,300661,300877.98,,30,white
screen,html.Screen,2_3_1_0_1_31,2022-05-03T20:07:39.165Z,,,,,,,,,,,,,,,,,2,,,,,,,,,,,,,,366.0200000000186,,response,,,,1,A,,,,,,Space,keypress(Space),,,,silence,,,,"--- ---- ------ --- ------- ---------- ------- ----------<br>--- --------- --- ----------- ------- ----- ------- ---<br>--------- ---- -- --- ---- -- --------- -- ---- -------<br>-- --------- ------ --- ----- light"" ---- --- --------- --<br>------ - ---- -- --- ----------- ------- ---- ----- -----<br>--- -------- - ------ ---- -- ----- ---- --- --- -----------<br>-- -------",301266,301244,300869.6,300869,300877.98,301280.56,,31,"light"""
screen,html.Screen,2_3_1_0_1_32,2022-05-03T20:07:39.533Z,,,,,,,,,,,,,,,,,2,,,,,,,,,,,,,,339.4400000000023,,response,,,,1,A,,,,,,Space,keypress(Space),,,,silence,,,,--- ---- ------ --- ------- ---------- ------- ----------<br>--- --------- --- ----------- ------- ----- ------- ---<br>--------- ---- -- --- ---- -- --------- -- ---- -------<br>-- --------- ------ --- ----- ------ over --- --------- --<br>------ - ---- -- --- ----------- ------- ---- ----- -----<br>--- -------- - ------ ---- -- ----- ---- --- --- -----------<br>-- -------,301632,301620,301265.86,301266,301280.56,301647.76,,32,over
screen,html.Screen,2_3_1_0_1_33,2022-05-03T20:07:39.825Z,,,,,,,,,,,,,,,,,2,,,,,,,,,,,,,,268.2399999999907,,response,,,,1,A,,,,,,Space,keypress(Space),,,,silence,,,,--- ---- ------ --- ------- ---------- ------- ----------<br>--- --------- --- ----------- ------- ----- ------- ---<br>--------- ---- -- --- ---- -- --------- -- ---- -------<br>-- --------- ------ --- ----- ------ ---- the --------- --<br>------ - ---- -- --- ----------- ------- ---- ----- -----<br>--- -------- - ------ ---- -- ----- ---- --- --- -----------<br>-- -------,301925,301916,301633.02,301633,301647.76,301931.5,,33,the
screen,html.Screen,2_3_1_0_1_34,2022-05-03T20:07:40.000Z,,,,,,,,,,,,,,,,,2,,,,,,,,,,,,,,156.5,,response,,,,1,A,,,,,,Space,keypress(Space),,,,silence,,,,--- ---- ------ --- ------- ---------- ------- ----------<br>--- --------- --- ----------- ------- ----- ------- ---<br>--------- ---- -- --- ---- -- --------- -- ---- -------<br>-- --------- ------ --- ----- ------ ---- --- sunspots. --<br>------ - ---- -- --- ----------- ------- ---- ----- -----<br>--- -------- - ------ ---- -- ----- ---- --- --- -----------<br>-- -------,302100,302088,301925.08,301925,301931.5,302115.1,,34,sunspots.
screen,html.Screen,2_3_1_0_1_35,2022-05-03T20:07:40.587Z,,,,,,,,,,,,,,,,,2,,,,,,,,,,,,,,566.9000000000233,,response,,,,1,A,,,,,,Space,keypress(Space),,,,silence,,,,--- ---- ------ --- ------- ---------- ------- ----------<br>--- --------- --- ----------- ------- ----- ------- ---<br>--------- ---- -- --- ---- -- --------- -- ---- -------<br>-- --------- ------ --- ----- ------ ---- --- --------- He<br>------ - ---- -- --- ----------- ------- ---- ----- -----<br>--- -------- - ------ ---- -- ----- ---- --- --- -----------<br>-- -------,302686,302682,302100.64,302101,302115.1,302701.32,,35,He
screen,html.Screen,2_3_1_0_1_36,2022-05-03T20:07:40.854Z,,,,,,,,,,,,,,,,,2,,,,,,,,,,,,,,230.67999999999302,,response,,,,1,A,,,,,,Space,keypress(Space),,,,silence,,,,--- ---- ------ --- ------- ---------- ------- ----------<br>--- --------- --- ----------- ------- ----- ------- ---<br>--------- ---- -- --- ---- -- --------- -- ---- -------<br>-- --------- ------ --- ----- ------ ---- --- --------- --<br>jotted - ---- -- --- ----------- ------- ---- ----- -----<br>--- -------- - ------ ---- -- ----- ---- --- --- -----------<br>-- -------,302954,302932,302687.06,302687,302701.32,302968.38,,36,jotted
screen,html.Screen,2_3_1_0_1_37,2022-05-03T20:07:41.031Z,,,,,,,,,,,,,,,,,2,,,,,,,,,,,,,,151.61999999999534,,response,,,,1,A,,,,,,Space,keypress(Space),,,,silence,,,,--- ---- ------ --- ------- ---------- ------- ----------<br>--- --------- --- ----------- ------- ----- ------- ---<br>--------- ---- -- --- ---- -- --------- -- ---- -------<br>-- --------- ------ --- ----- ------ ---- --- --------- --<br>------ a ---- -- --- ----------- ------- ---- ----- -----<br>--- -------- - ------ ---- -- ----- ---- --- --- -----------<br>-- -------,303131,303120,302953.76,302954,302968.38,303135.28,,37,a
screen,html.Screen,2_3_1_0_1_38,2022-05-03T20:07:41.342Z,,,,,,,,,,,,,,,,,2,,,,,,,,,,,,,,297.71999999997206,,response,,,,1,A,,,,,,Space,keypress(Space),,,,silence,,,,--- ---- ------ --- ------- ---------- ------- ----------<br>--- --------- --- ----------- ------- ----- ------- ---<br>--------- ---- -- --- ---- -- --------- -- ---- -------<br>-- --------- ------ --- ----- ------ ---- --- --------- --<br>------ - note -- --- ----------- ------- ---- ----- -----<br>--- -------- - ------ ---- -- ----- ---- --- --- -----------<br>-- -------,303442,303433,303131.48,303132,303135.28,303452.42,,38,note
screen,html.Screen,2_3_1_0_1_39,2022-05-03T20:07:41.709Z,,,,,,,,,,,,,,,,,2,,,,,,,,,,,,,,338.5800000000163,,response,,,,1,A,,,,,,Space,keypress(Space),,,,silence,,,,--- ---- ------ --- ------- ---------- ------- ----------<br>--- --------- --- ----------- ------- ----- ------- ---<br>--------- ---- -- --- ---- -- --------- -- ---- -------<br>-- --------- ------ --- ----- ------ ---- --- --------- --<br>------ - ---- in --- ----------- ------- ---- ----- -----<br>--- -------- - ------ ---- -- ----- ---- --- --- -----------<br>-- -------,303809,303791,303442.4,303442,303452.42,303821.54,,39,in
screen,html.Screen,2_3_1_0_1_40,2022-05-03T20:07:42.014Z,,,,,,,,,,,,,,,,,2,,,,,,,,,,,,,,282.46000000002095,,response,,,,1,A,,,,,,Space,keypress(Space),,,,silence,,,,--- ---- ------ --- ------- ---------- ------- ----------<br>--- --------- --- ----------- ------- ----- ------- ---<br>--------- ---- -- --- ---- -- --------- -- ---- -------<br>-- --------- ------ --- ----- ------ ---- --- --------- --<br>------ - ---- -- his ----------- ------- ---- ----- -----<br>--- -------- - ------ ---- -- ----- ---- --- --- -----------<br>-- -------,304114,304104,303808.96,303809,303821.54,304121.98,,40,his
screen,html.Screen,2_3_1_0_1_41,2022-05-03T20:07:42.387Z,,,,,,,,,,,,,,,,,2,,,,,,,,,,,,,,356.0200000000186,,response,,,,1,A,,,,,,Space,keypress(Space),,,,silence,,,,--- ---- ------ --- ------- ---------- ------- ----------<br>--- --------- --- ----------- ------- ----- ------- ---<br>--------- ---- -- --- ---- -- --------- -- ---- -------<br>-- --------- ------ --- ----- ------ ---- --- --------- --<br>------ - ---- -- --- painstaking ------- ---- ----- -----<br>--- -------- - ------ ---- -- ----- ---- --- --- -----------<br>-- -------,304487,304478,304114.36,304114,304121.98,304489.18,,41,painstaking
screen,html.Screen,2_3_1_0_1_42,2022-05-03T20:07:42.736Z,,,,,,,,,,,,,,,,,2,,,,,,,,,,,,,,333.820000000007,,response,,,,1,A,,,,,,Space,keypress(Space),,,,silence,,,,--- ---- ------ --- ------- ---------- ------- ----------<br>--- --------- --- ----------- ------- ----- ------- ---<br>--------- ---- -- --- ---- -- --------- -- ---- -------<br>-- --------- ------ --- ----- ------ ---- --- --------- --<br>------ - ---- -- --- ----------- record. ---- ----- -----<br>--- -------- - ------ ---- -- ----- ---- --- --- -----------<br>-- -------,304836,304823,304487.12,304488,304489.18,304841.7,,42,record.
screen,html.Screen,2_3_1_0_1_43,2022-05-03T20:07:44.017Z,,,,,,,,,,,,,,,,,2,,,,,,,,,,,,,,1262.2999999999884,,response,,,,1,A,,,,,,Space,keypress(Space),,,,silence,,,,--- ---- ------ --- ------- ---------- ------- ----------<br>--- --------- --- ----------- ------- ----- ------- ---<br>--------- ---- -- --- ---- -- --------- -- ---- -------<br>-- --------- ------ --- ----- ------ ---- --- --------- --<br>------ - ---- -- --- ----------- ------- That ----- -----<br>--- -------- - ------ ---- -- ----- ---- --- --- -----------<br>-- -------,306117,306104,304836.14,304836,304841.7,306128.84,,43,That
screen,html.Screen,2_3_1_0_1_44,2022-05-03T20:07:44.323Z,,,,,,,,,,,,,,,,,2,,,,,,,,,,,,,,271.1599999999744,,response,,,,1,A,,,,,,Space,keypress(Space),,,,silence,,,,--- ---- ------ --- ------- ---------- ------- ----------<br>--- --------- --- ----------- ------- ----- ------- ---<br>--------- ---- -- --- ---- -- --------- -- ---- -------<br>-- --------- ------ --- ----- ------ ---- --- --------- --<br>------ - ---- -- --- ----------- ------- ---- night -----<br>--- -------- - ------ ---- -- ----- ---- --- --- -----------<br>-- -------,306423,306400,306117.12,306117,306128.84,306429.28,,44,night
screen,html.Screen,2_3_1_0_1_45,2022-05-03T20:07:44.698Z,,,,,,,,,,,,,,,,,2,,,,,,,,,,,,,,361.71999999997206,,response,,,,1,A,,,,,,Space,keypress(Space),,,,silence,,,,--- ---- ------ --- ------- ---------- ------- ----------<br>--- --------- --- ----------- ------- ----- ------- ---<br>--------- ---- -- --- ---- -- --------- -- ---- -------<br>-- --------- ------ --- ----- ------ ---- --- --------- --<br>------ - ---- -- --- ----------- ------- ---- ----- there<br>--- -------- - ------ ---- -- ----- ---- --- --- -----------<br>-- -------,306798,306791,306423.6,306423,306429.28,306813.16,,45,there
screen,html.Screen,2_3_1_0_1_46,2022-05-03T20:07:45.039Z,,,,,,,,,,,,,,,,,2,,,,,,,,,,,,,,305.8400000000256,,response,,,,1,A,,,,,,Space,keypress(Space),,,,silence,,,,--- ---- ------ --- ------- ---------- ------- ----------<br>--- --------- --- ----------- ------- ----- ------- ---<br>--------- ---- -- --- ---- -- --------- -- ---- -------<br>-- --------- ------ --- ----- ------ ---- --- --------- --<br>------ - ---- -- --- ----------- ------- ---- ----- -----<br>was -------- - ------ ---- -- ----- ---- --- --- -----------<br>-- -------,307140,307119,306797.86,306798,306813.16,307149,,46,was
screen,html.Screen,2_3_1_0_1_47,2022-05-03T20:07:45.472Z,,,,,,,,,,,,,,,,,2,,,,,,,,,,,,,,408,,response,,,,1,A,,,,,,Space,keypress(Space),,,,silence,,,,--- ---- ------ --- ------- ---------- ------- ----------<br>--- --------- --- ----------- ------- ----- ------- ---<br>--------- ---- -- --- ---- -- --------- -- ---- -------<br>-- --------- ------ --- ----- ------ ---- --- --------- --<br>------ - ---- -- --- ----------- ------- ---- ----- -----<br>--- scarcely - ------ ---- -- ----- ---- --- --- -----------<br>-- -------,307572,307557,307139.92,307140,307149,307582.96,,47,scarcely
screen,html.Screen,2_3_1_0_1_48,2022-05-03T20:07:45.787Z,,,,,,,,,,,,,,,,,2,,,,,,,,,,,,,,286.03999999997905,,response,,,,1,A,,,,,,Space,keypress(Space),,,,silence,,,,--- ---- ------ --- ------- ---------- ------- ----------<br>--- --------- --- ----------- ------- ----- ------- ---<br>--------- ---- -- --- ---- -- --------- -- ---- -------<br>-- --------- ------ --- ----- ------ ---- --- --------- --<br>------ - ---- -- --- ----------- ------- ---- ----- -----<br>--- -------- a ------ ---- -- ----- ---- --- --- -----------<br>-- -------,307887,307869,307572.6,307573,307582.96,307900.1,,48,a
