sender,sender_type,sender_id,timestamp,meta,,Blues,Classical,Country,Dance,Electronic,Folk,Gospel,Hip-Hop,Jazz,Latin,Musical/Film,New-age,Pop,Prolific_id,Provo_ID,R&B,Rap,Reggae,Religious,Rock,Soul,Swing,Traditional,age,artist_name,correct,correctResponse,distraction,duration,education,ended_on,familiarity,gender,headphone_check_performance,item,list,music_frequency,offensiveness,pleasantness,position_correct,preference,response,response_action,snippet_file,song_name,song_rating,sound,stimulus_1,stimulus_2,stimulus_3,text,time_commit,time_end,time_render,time_run,time_show,time_switch,url,word,word_ID
Prolific ID,html.Form,0,2022-05-09T10:21:09.099Z,"{""labjs_version"":""20.2.2"",""labjs_build"":{""flavor"":""production"",""commit"":""a25486e0c714a0ae2ce03ff94b7bb6896854dcfa""},""location"":""https://run.pavlovia.org/mvasilev/prolific3_music_c/"",""userAgent"":""Mozilla/5.0 (Windows NT 10.0; Win64; x64) AppleWebKit/537.36 (KHTML, like Gecko) Chrome/101.0.4951.54 Safari/537.36"",""platform"":""Win32"",""language"":""en-GB"",""locale"":""en-GB"",""timeZone"":""Europe/London"",""timezoneOffset"":-60,""screen_width"":1280,""screen_height"":720,""scroll_width"":1280,""scroll_height"":577,""window_innerWidth"":1280,""window_innerHeight"":577,""devicePixelRatio"":1.5}",,,,,,,,,,,,,,,60b50048f81dd10e32543f82,,,,,,,,,,,,,,,7526.229000047682,,form submission,,,,,,,,,,,,,,,,,,,,,24996.100000023842,24995.700000047684,17452.561,17458.600000023842,17469.471,25001.746,{},,
Introduction,html.Screen,1_0,2022-05-09T10:21:13.310Z,,,,,,,,,,,,,,,,,,,,,,,,,,,,,,,4202.9540000476845,,response,,,,,,,,,,,continue,click button,,,,,,,,,29206.800000071526,29204.700000047684,24985.339,24997.200000047684,25001.746,29218.017,,,
Volume calibration,html.Screen,1_1,2022-05-09T10:21:23.581Z,,,,,,,,,,,,,,,,,,,,,,,,,,,,,,,10257.083000023842,,response,,,,,,,,,,,continue,click button,,,,,,,,,39477.800000071526,39475.10000002384,29201.583,29206.800000071526,29218.017,39483.272,,,
Task instructions,html.Screen,1_2,2022-05-09T10:21:27.718Z,,,,,,,,,,,,,,,,,,,,,,,,,,,,,,,4131.127999976161,,response,,,,,,,,,,,continue,click button,,,,,,,,,43615.200000047684,43614.39999997616,39466.937,39478,39483.272,43633.76,,,
Sounds,html.Screen,1_3_0_0,2022-05-09T10:21:31.971Z,,,,,,,,,,,,,,,,,,,,,,,,,,,,,,,4248.745999999999,,timeout,,,,,,,,,3,,,,,,,,I,O,S,,47867.60000002384,47865.958,43599.809,43615.39999997616,43633.76,47882.506,,,
Judgement,html.Screen,1_3_0_1,2022-05-09T10:21:35.079Z,,,,,,,,,,,,,,,,,,,,,,,,,,,,true,3,,3092.393999976157,,response,,,,,,,,,3,,3,click #choice-3,,,,,I,O,S,,50975.700000047684,50974.89999997616,47865.958,47867.700000047684,47882.506,50981.751,,,
Trial,flow.Sequence,1_3_0,2022-05-09T10:21:35.079Z,,,,,,,,,,,,,,,,,,,,,,,,,,,,,,,7341.139999976156,,completion,,,,,,,,,3,,,,,,,,I,O,S,,50975.89999997616,50974.89999997616,43599.809,43615.39999997616,43633.76,50981.751,,,
Sounds,html.Screen,1_3_1_0,2022-05-09T10:21:39.319Z,,,,,,,,,,,,,,,,,,,,,,,,,,,,,,,4249.891000000003,,timeout,,,,,,,,,2,,,,,,,,O,S,I,,55216,55214.947,50965.14,50975.89999997616,50981.751,55231.642,,,
Judgement,html.Screen,1_3_1_1,2022-05-09T10:21:40.470Z,,,,,,,,,,,,,,,,,,,,,,,,,,,,true,2,,1134.558000047684,,response,,,,,,,,,2,,2,click #choice-2,,,,,O,S,I,,56366.89999997616,56366.200000047684,55214.947,55216,55231.642,56381.404,,,
Trial,flow.Sequence,1_3_1,2022-05-09T10:21:40.470Z,,,,,,,,,,,,,,,,,,,,,,,,,,,,,,,5384.449000047687,,completion,,,,,,,,,2,,,,,,,,O,S,I,,56367,56366.200000047684,50965.14,50975.89999997616,50981.751,56381.404,,,
Sounds,html.Screen,1_3_2_0,2022-05-09T10:21:44.718Z,,,,,,,,,,,,,,,,,,,,,,,,,,,,,,,4249.455999999998,,timeout,,,,,,,,,1,,,,,,,,S,O,I,,60614.700000047684,60614.129,56364.803,56367.10000002384,56381.404,60630.86,,,
Judgement,html.Screen,1_3_2_1,2022-05-09T10:21:45.596Z,,,,,,,,,,,,,,,,,,,,,,,,,,,,true,1,,861.6399999999994,,response,,,,,,,,,1,,1,click #choice-1,,,,,S,O,I,,61493.200000047684,61492.5,60614.129,60614.89999997616,60630.86,61497.013,,,
Trial,flow.Sequence,1_3_2,2022-05-09T10:21:45.597Z,,,,,,,,,,,,,,,,,,,,,,,,,,,,,,,5111.095999999998,,completion,,,,,,,,,1,,,,,,,,S,O,I,,61493.39999997616,61492.5,56364.803,56367.10000002384,56381.404,61497.013,,,
Sounds,html.Screen,1_3_3_0,2022-05-09T10:21:49.834Z,,,,,,,,,,,,,,,,,,,,,,,,,,,,,,,4249.685999999994,,timeout,,,,,,,,,3,,,,,,,,O,I,S,,65730.89999997616,65730.149,61480.331,61493.39999997616,61497.013,65746.699,,,
Judgement,html.Screen,1_3_3_1,2022-05-09T10:21:50.520Z,,,,,,,,,,,,,,,,,,,,,,,,,,,,true,3,,669.3010000000068,,response,,,,,,,,,3,,3,click #choice-3,,,,,O,I,S,,66416.70000004768,66416,65730.149,65731,65746.699,66430.164,,,
Trial,flow.Sequence,1_3_3,2022-05-09T10:21:50.520Z,,,,,,,,,,,,,,,,,,,,,,,,,,,,,,,4918.987000000001,,completion,,,,,,,,,3,,,,,,,,O,I,S,,66416.89999997616,66416,61480.331,61493.39999997616,61497.013,66430.164,,,
Sounds,html.Screen,1_3_4_0,2022-05-09T10:21:54.765Z,,,,,,,,,,,,,,,,,,,,,,,,,,,,,,,4249.050000000003,,timeout,,,,,,,,,1,,,,,,,,S,I,O,,70663.70000004768,70662.853,66413.381,66417,66430.164,70679.214,,,
Judgement,html.Screen,1_3_4_1,2022-05-09T10:21:55.988Z,,,,,,,,,,,,,,,,,,,,,,,,,,,,true,1,,1206.3860000238346,,response,,,,,,,,,1,,1,click #choice-1,,,,,S,I,O,,71886.80000007153,71885.60000002384,70662.853,70663.80000007153,70679.214,71896.122,,,
Trial,flow.Sequence,1_3_4,2022-05-09T10:21:55.989Z,,,,,,,,,,,,,,,,,,,,,,,,,,,,,,,5455.436000023838,,completion,,,,,,,,,1,,,,,,,,S,I,O,,71887,71885.60000002384,66413.381,66417,66430.164,71896.122,,,
Sounds,html.Screen,1_3_5_0,2022-05-09T10:22:00.231Z,,,,,,,,,,,,,,,,,,,,,,,,,,,,,,,4249.502999999997,,timeout,,,,,,,,,2,,,,,,,,I,S,O,,76129.39999997616,76128.624,71879.434,71887.10000002384,71896.122,76145.625,,,
Judgement,html.Screen,1_3_5_1,2022-05-09T10:22:01.418Z,,,,,,,,,,,,,,,,,,,,,,,,,,,,true,2,,1169.4750000238419,,response,,,,,,,,,2,,2,click #choice-2,,,,,I,S,O,,77315.80000007153,77315.10000002384,76128.624,76129.39999997616,76145.625,77328.459,,,
Trial,flow.Sequence,1_3_5,2022-05-09T10:22:01.418Z,,,,,,,,,,,,,,,,,,,,,,,,,,,,,,,5418.978000023839,,completion,,,,,,,,,2,,,,,,,,I,S,O,,77316.10000002384,77315.10000002384,71879.434,71887,71896.122,77328.459,,,
Task,flow.Loop,1_3,2022-05-09T10:22:01.420Z,,,,,,,,,,,,,,,,,,,,,,,,,,,,,,,33681.34000002384,,completion,,,1,,,,,,,,,,,,,,,,,,77318.60000002384,77315.10000002384,43599.809,43615.39999997616,43633.76,77328.459,,,
Trap,html.Screen,1_4,2022-05-09T10:22:01.421Z,,,,,,,,,,,,,,,,,,,,,,,,,,,,,,,NaN,,skipped,,,,,,,,,,,,,,,,,,,,,77319.20000004768,77315.10000002384,,77319.20000004768,,77328.459,,,
Thanks,html.Screen,1_5,2022-05-09T10:22:04.647Z,,,,,,,,,,,,,,,,,,,,,,,,,,,,,,,3216.1410000238393,,response,,,,,,,,,,,continue,click button,,,,,,,,,80545.39999997616,80544.60000002384,77312.016,77319.39999997616,77328.459,82844.238,,,
Headphone screening,flow.Sequence,1,2022-05-09T10:22:04.647Z,,,,,,,,,,,,,,,,,,,,,,,,,,,,,,,55542.85400002384,,completion,,,,,,,,,,,,,,,,,,,,,80545.70000004768,80544.60000002384,24985.339,24997.200000047684,25001.746,82844.238,,,
Instructions,html.Page,2_0,2022-05-09T10:22:16.998Z,,,,,,,,,,,,,,,,,,,,,,,,,,,,,,,10051.66199997616,,form submission,,,,,,,,,,,,,,,,,,,,,92896.10000002384,92895.89999997616,82827.549,82845.5,82844.238,92909.768,,,
Holding screen,html.Screen,2_1_0_0,2022-05-09T10:22:27.000Z,,,,,,,,,,,,,,,,,,,,,,,,,,,,,,,9998.688999999998,,timeout,,,,,,,,,,,,,,,,,,,,,102898.39999997616,102891.919,92893.24,92896.39999997616,92909.768,102908.457,,,
screen,html.Screen,2_1_0_1_0,2022-05-09T10:22:27.691Z,,,,,,,,,,,,,,,,,53,,,,,,,,,,,,,,679.4429999761633,,response,,,,99,,,,,,,Space,keypress(Space),,,,,,,,When -- ----- -- ------ - ------- --- ----------<br>------------- ------ ------ ---- ---- ------- ----- -- ----<br>-------- ------- -- ---------- --- - --- ----- ----- ----<br>---- --- --- ----- --- ---- ---- ------- ----- ---- -------<br>--- --- -- ----- -- --- ---- -- --- ---- -- ------ ------<br>--- ----- -- ----,103589.60000002384,103587.89999997616,102891.919,102898.5,102908.457,103591.635,,0,When
screen,html.Screen,2_1_0_1_1,2022-05-09T10:22:28.138Z,,,,,,,,,,,,,,,,,53,,,,,,,,,,,,,,444.06500004768895,,response,,,,99,,,,,,,Space,keypress(Space),,,,,,,,---- it ----- -- ------ - ------- --- ----------<br>------------- ------ ------ ---- ---- ------- ----- -- ----<br>-------- ------- -- ---------- --- - --- ----- ----- ----<br>---- --- --- ----- --- ---- ---- ------- ----- ---- -------<br>--- --- -- ----- -- --- ---- -- --- ---- -- ------ ------<br>--- ----- -- ----,104036.30000007153,104035.70000004768,103574.955,103589.60000002384,103591.635,104041.606,,1,it
screen,html.Screen,2_1_0_1_2,2022-05-09T10:22:29.255Z,,,,,,,,,,,,,,,,,53,,,,,,,,,,,,,,1111.1940000715258,,response,,,,99,,,,,,,Space,keypress(Space),,,,,,,,---- -- comes -- ------ - ------- --- ----------<br>------------- ------ ------ ---- ---- ------- ----- -- ----<br>-------- ------- -- ---------- --- - --- ----- ----- ----<br>---- --- --- ----- --- ---- ---- ------- ----- ---- -------<br>--- --- -- ----- -- --- ---- -- --- ---- -- ------ ------<br>--- ----- -- ----,105153.5,105152.80000007153,104025.314,104036.80000007153,104041.606,105158.148,,2,comes
screen,html.Screen,2_1_0_1_3,2022-05-09T10:22:30.291Z,,,,,,,,,,,,,,,,,53,,,,,,,,,,,,,,1030.5520000476827,,response,,,,99,,,,,,,Space,keypress(Space),,,,,,,,---- -- ----- to ------ - ------- --- ----------<br>------------- ------ ------ ---- ---- ------- ----- -- ----<br>-------- ------- -- ---------- --- - --- ----- ----- ----<br>---- --- --- ----- --- ---- ---- ------- ----- ---- -------<br>--- --- -- ----- -- --- ---- -- --- ---- -- ------ ------<br>--- ----- -- ----,106189.39999997616,106188.70000004768,105141.63,105153.60000002384,105158.148,106191.25,,3,to
screen,html.Screen,2_1_0_1_4,2022-05-09T10:22:30.807Z,,,,,,,,,,,,,,,,,53,,,,,,,,,,,,,,513.6499999761581,,response,,,,99,,,,,,,Space,keypress(Space),,,,,,,,---- -- ----- -- having - ------- --- ----------<br>------------- ------ ------ ---- ---- ------- ----- -- ----<br>-------- ------- -- ---------- --- - --- ----- ----- ----<br>---- --- --- ----- --- ---- ---- ------- ----- ---- -------<br>--- --- -- ----- -- --- ---- -- --- ---- -- ------ ------<br>--- ----- -- ----,106705.30000007153,106704.89999997616,106174.765,106189.60000002384,106191.25,106707.836,,4,having
screen,html.Screen,2_1_0_1_5,2022-05-09T10:22:31.257Z,,,,,,,,,,,,,,,,,53,,,,,,,,,,,,,,447.364000047688,,response,,,,99,,,,,,,Space,keypress(Space),,,,,,,,---- -- ----- -- ------ a ------- --- ----------<br>------------- ------ ------ ---- ---- ------- ----- -- ----<br>-------- ------- -- ---------- --- - --- ----- ----- ----<br>---- --- --- ----- --- ---- ---- ------- ----- ---- -------<br>--- --- -- ----- -- --- ---- -- --- ---- -- ------ ------<br>--- ----- -- ----,107155.80000007153,107155.20000004768,106691.465,106705.5,106707.836,107157.806,,5,a
screen,html.Screen,2_1_0_1_6,2022-05-09T10:22:31.779Z,,,,,,,,,,,,,,,,,53,,,,,,,,,,,,,,519.0939999761613,,response,,,,99,,,,,,,Space,keypress(Space),,,,,,,,---- -- ----- -- ------ - lasting --- ----------<br>------------- ------ ------ ---- ---- ------- ----- -- ----<br>-------- ------- -- ---------- --- - --- ----- ----- ----<br>---- --- --- ----- --- ---- ---- ------- ----- ---- -------<br>--- --- -- ----- -- --- ---- -- --- ---- -- ------ ------<br>--- ----- -- ----,107677.60000002384,107676.89999997616,107141.286,107155.89999997616,107157.806,107691.193,,6,lasting
screen,html.Screen,2_1_0_1_7,2022-05-09T10:22:32.245Z,,,,,,,,,,,,,,,,,53,,,,,,,,,,,,,,451.20699997615884,,response,,,,99,,,,,,,Space,keypress(Space),,,,,,,,---- -- ----- -- ------ - ------- and ----------<br>------------- ------ ------ ---- ---- ------- ----- -- ----<br>-------- ------- -- ---------- --- - --- ----- ----- ----<br>---- --- --- ----- --- ---- ---- ------- ----- ---- -------<br>--- --- -- ----- -- --- ---- -- --- ---- -- ------ ------<br>--- ----- -- ----,108142.89999997616,108142.39999997616,107674.454,107677.60000002384,107691.193,108158.037,,7,and
screen,html.Screen,2_1_0_1_8,2022-05-09T10:22:32.612Z,,,,,,,,,,,,,,,,,53,,,,,,,,,,,,,,351.26300007152895,,response,,,,99,,,,,,,Space,keypress(Space),,,,,,,,---- -- ----- -- ------ - ------- --- fulfilling<br>------------- ------ ------ ---- ---- ------- ----- -- ----<br>-------- ------- -- ---------- --- - --- ----- ----- ----<br>---- --- --- ----- --- ---- ---- ------- ----- ---- -------<br>--- --- -- ----- -- --- ---- -- --- ---- -- ------ ------<br>--- ----- -- ----,108510,108509.30000007153,108141.242,108143.10000002384,108158.037,108524.801,,8,fulfilling
screen,html.Screen,2_1_0_1_9,2022-05-09T10:22:33.104Z,,,,,,,,,,,,,,,,,53,,,,,,,,,,,,,,476.9990000715188,,response,,,,99,,,,,,,Space,keypress(Space),,,,,,,,"---- -- ----- -- ------ - ------- --- ----------<br>relationship, ------ ------ ---- ---- ------- ----- -- ----<br>-------- ------- -- ---------- --- - --- ----- ----- ----<br>---- --- --- ----- --- ---- ---- ------- ----- ---- -------<br>--- --- -- ----- -- --- ---- -- --- ---- -- ------ ------<br>--- ----- -- ----",109002.20000004768,109001.80000007153,108507.657,108510,108524.801,109007.63,,9,"relationship,"
screen,html.Screen,2_1_0_1_10,2022-05-09T10:22:33.490Z,,,,,,,,,,,,,,,,,53,,,,,,,,,,,,,,380.07000004767906,,response,,,,99,,,,,,,Space,keypress(Space),,,,,,,,---- -- ----- -- ------ - ------- --- ----------<br>------------- common ------ ---- ---- ------- ----- -- ----<br>-------- ------- -- ---------- --- - --- ----- ----- ----<br>---- --- --- ----- --- ---- ---- ------- ----- ---- -------<br>--- --- -- ----- -- --- ---- -- --- ---- -- ------ ------<br>--- ----- -- ----,109388.39999997616,109387.70000004768,108991.312,109002.30000007153,109007.63,109390.838,,10,common
screen,html.Screen,2_1_0_1_11,2022-05-09T10:22:34.003Z,,,,,,,,,,,,,,,,,53,,,,,,,,,,,,,,510.36200004768034,,response,,,,99,,,,,,,Space,keypress(Space),,,,,,,,---- -- ----- -- ------ - ------- --- ----------<br>------------- ------ wisdom ---- ---- ------- ----- -- ----<br>-------- ------- -- ---------- --- - --- ----- ----- ----<br>---- --- --- ----- --- ---- ---- ------- ----- ---- -------<br>--- --- -- ----- -- --- ---- -- --- ---- -- ------ ------<br>--- ----- -- ----,109901.80000007153,109901.20000004768,109374.334,109388.39999997616,109390.838,109907.53,,11,wisdom
screen,html.Screen,2_1_0_1_12,2022-05-09T10:22:34.544Z,,,,,,,,,,,,,,,,,53,,,,,,,,,,,,,,533.9700000000012,,response,,,,99,,,,,,,Space,keypress(Space),,,,,,,,---- -- ----- -- ------ - ------- --- ----------<br>------------- ------ ------ says ---- ------- ----- -- ----<br>-------- ------- -- ---------- --- - --- ----- ----- ----<br>---- --- --- ----- --- ---- ---- ------- ----- ---- -------<br>--- --- -- ----- -- --- ---- -- --- ---- -- ------ ------<br>--- ----- -- ----,110441.89999997616,110441.5,109890.96,109901.89999997616,109907.53,110457.891,,12,says
screen,html.Screen,2_1_0_1_13,2022-05-09T10:22:35.098Z,,,,,,,,,,,,,,,,,53,,,,,,,,,,,,,,537.7090000238386,,response,,,,99,,,,,,,Space,keypress(Space),,,,,,,,---- -- ----- -- ------ - ------- --- ----------<br>------------- ------ ------ ---- that ------- ----- -- ----<br>-------- ------- -- ---------- --- - --- ----- ----- ----<br>---- --- --- ----- --- ---- ---- ------- ----- ---- -------<br>--- --- -- ----- -- --- ---- -- --- ---- -- ------ ------<br>--- ----- -- ----,110996.10000002384,110995.60000002384,110441.01,110442,110457.891,111007.787,,13,that
screen,html.Screen,2_1_0_1_14,2022-05-09T10:22:35.906Z,,,,,,,,,,,,,,,,,53,,,,,,,,,,,,,,796.1129999761615,,response,,,,99,,,,,,,Space,keypress(Space),,,,,,,,---- -- ----- -- ------ - ------- --- ----------<br>------------- ------ ------ ---- ---- feeling ----- -- ----<br>-------- ------- -- ---------- --- - --- ----- ----- ----<br>---- --- --- ----- --- ---- ---- ------- ----- ---- -------<br>--- --- -- ----- -- --- ---- -- --- ---- -- ------ ------<br>--- ----- -- ----,111804.60000002384,111803.89999997616,110990.931,110996.20000004768,111007.787,111807.211,,14,feeling
screen,html.Screen,2_1_0_1_15,2022-05-09T10:22:36.404Z,,,,,,,,,,,,,,,,,53,,,,,,,,,,,,,,494.38900002384617,,response,,,,99,,,,,,,Space,keypress(Space),,,,,,,,---- -- ----- -- ------ - ------- --- ----------<br>------------- ------ ------ ---- ---- ------- close -- ----<br>-------- ------- -- ---------- --- - --- ----- ----- ----<br>---- --- --- ----- --- ---- ---- ------- ----- ---- -------<br>--- --- -- ----- -- --- ---- -- --- ---- -- ------ ------<br>--- ----- -- ----,112302.20000004768,112301.60000002384,111790.916,111804.70000004768,111807.211,112307.289,,15,close
screen,html.Screen,2_1_0_1_16,2022-05-09T10:22:36.623Z,,,,,,,,,,,,,,,,,53,,,,,,,,,,,,,,213.81100002383755,,response,,,,99,,,,,,,Space,keypress(Space),,,,,,,,---- -- ----- -- ------ - ------- --- ----------<br>------------- ------ ------ ---- ---- ------- ----- to ----<br>-------- ------- -- ---------- --- - --- ----- ----- ----<br>---- --- --- ----- --- ---- ---- ------- ----- ---- -------<br>--- --- -- ----- -- --- ---- -- --- ---- -- ------ ------<br>--- ----- -- ----,112521.60000002384,112521.10000002384,112290.609,112302.20000004768,112307.289,112523.741,,16,to
screen,html.Screen,2_1_0_1_17,2022-05-09T10:22:36.875Z,,,,,,,,,,,,,,,,,53,,,,,,,,,,,,,,249.25900000000547,,response,,,,99,,,,,,,Space,keypress(Space),,,,,,,,---- -- ----- -- ------ - ------- --- ----------<br>------------- ------ ------ ---- ---- ------- ----- -- your<br>-------- ------- -- ---------- --- - --- ----- ----- ----<br>---- --- --- ----- --- ---- ---- ------- ----- ---- -------<br>--- --- -- ----- -- --- ---- -- --- ---- -- ------ ------<br>--- ----- -- ----,112773.80000007153,112773,112507.314,112521.80000007153,112523.741,112790.439,,17,your
screen,html.Screen,2_1_0_1_18,2022-05-09T10:22:37.530Z,,,,,,,,,,,,,,,,,53,,,,,,,,,,,,,,636.7610000476852,,response,,,,99,,,,,,,Space,keypress(Space),,,,,,,,---- -- ----- -- ------ - ------- --- ----------<br>------------- ------ ------ ---- ---- ------- ----- -- ----<br>romantic ------- -- ---------- --- - --- ----- ----- ----<br>---- --- --- ----- --- ---- ---- ------- ----- ---- -------<br>--- --- -- ----- -- --- ---- -- --- ---- -- ------ ------<br>--- ----- -- ----,113427.89999997616,113427.20000004768,112773.923,112773.89999997616,112790.439,113440.468,,18,romantic
screen,html.Screen,2_1_0_1_19,2022-05-09T10:22:38.583Z,,,,,,,,,,,,,,,,,53,,,,,,,,,,,,,,1040.4319999761647,,response,,,,99,,,,,,,Space,keypress(Space),,,,,,,,---- -- ----- -- ------ - ------- --- ----------<br>------------- ------ ------ ---- ---- ------- ----- -- ----<br>-------- partner -- ---------- --- - --- ----- ----- ----<br>---- --- --- ----- --- ---- ---- ------- ----- ---- -------<br>--- --- -- ----- -- --- ---- -- --- ---- -- ------ ------<br>--- ----- -- ----,114481.30000007153,114480.89999997616,113423.612,113428,113440.468,114490.203,,19,partner
screen,html.Screen,2_1_0_1_20,2022-05-09T10:22:38.990Z,,,,,,,,,,,,,,,,,53,,,,,,,,,,,,,,397.0970000715315,,response,,,,99,,,,,,,Space,keypress(Space),,,,,,,,---- -- ----- -- ------ - ------- --- ----------<br>------------- ------ ------ ---- ---- ------- ----- -- ----<br>-------- ------- is ---------- --- - --- ----- ----- ----<br>---- --- --- ----- --- ---- ---- ------- ----- ---- -------<br>--- --- -- ----- -- --- ---- -- --- ---- -- ------ ------<br>--- ----- -- ----,114887.89999997616,114887.30000007153,114474.017,114481.30000007153,114490.203,114890.144,,20,is
screen,html.Screen,2_1_0_1_21,2022-05-09T10:22:39.539Z,,,,,,,,,,,,,,,,,53,,,,,,,,,,,,,,546.2559999761579,,response,,,,99,,,,,,,Space,keypress(Space),,,,,,,,---- -- ----- -- ------ - ------- --- ----------<br>------------- ------ ------ ---- ---- ------- ----- -- ----<br>-------- ------- -- paramount. --- - --- ----- ----- ----<br>---- --- --- ----- --- ---- ---- ------- ----- ---- -------<br>--- --- -- ----- -- --- ---- -- --- ---- -- ------ ------<br>--- ----- -- ----,115437,115436.39999997616,114873.798,114888,114890.144,115440.061,,21,paramount.
screen,html.Screen,2_1_0_1_22,2022-05-09T10:22:40.044Z,,,,,,,,,,,,,,,,,53,,,,,,,,,,,,,,501.6390000476822,,response,,,,99,,,,,,,Space,keypress(Space),,,,,,,,---- -- ----- -- ------ - ------- --- ----------<br>------------- ------ ------ ---- ---- ------- ----- -- ----<br>-------- ------- -- ---------- But - --- ----- ----- ----<br>---- --- --- ----- --- ---- ---- ------- ----- ---- -------<br>--- --- -- ----- -- --- ---- -- --- ---- -- ------ ------<br>--- ----- -- ----,115942.5,115941.70000004768,115423.593,115437.10000002384,115440.061,115957.007,,22,But
screen,html.Screen,2_1_0_1_23,2022-05-09T10:22:40.326Z,,,,,,,,,,,,,,,,,53,,,,,,,,,,,,,,266.6930000476859,,response,,,,99,,,,,,,Space,keypress(Space),,,,,,,,---- -- ----- -- ------ - ------- --- ----------<br>------------- ------ ------ ---- ---- ------- ----- -- ----<br>-------- ------- -- ---------- --- a --- ----- ----- ----<br>---- --- --- ----- --- ---- ---- ------- ----- ---- -------<br>--- --- -- ----- -- --- ---- -- --- ---- -- ------ ------<br>--- ----- -- ----,116224.20000004768,116223.70000004768,115940.28,115942.5,115957.007,116240.35,,23,a
screen,html.Screen,2_1_0_1_24,2022-05-09T10:22:40.675Z,,,,,,,,,,,,,,,,,53,,,,,,,,,,,,,,331.8500000476779,,response,,,,99,,,,,,,Space,keypress(Space),,,,,,,,---- -- ----- -- ------ - ------- --- ----------<br>------------- ------ ------ ---- ---- ------- ----- -- ----<br>-------- ------- -- ---------- --- - new ----- ----- ----<br>---- --- --- ----- --- ---- ---- ------- ----- ---- -------<br>--- --- -- ----- -- --- ---- -- --- ---- -- ------ ------<br>--- ----- -- ----,116572.80000007153,116572.20000004768,116223.481,116224.30000007153,116240.35,116590.366,,24,new
screen,html.Screen,2_1_0_1_25,2022-05-09T10:22:41.824Z,,,,,,,,,,,,,,,,,53,,,,,,,,,,,,,,1131.2340000238473,,response,,,,99,,,,,,,Space,keypress(Space),,,,,,,,---- -- ----- -- ------ - ------- --- ----------<br>------------- ------ ------ ---- ---- ------- ----- -- ----<br>-------- ------- -- ---------- --- - --- study ----- ----<br>---- --- --- ----- --- ---- ---- ------- ----- ---- -------<br>--- --- -- ----- -- --- ---- -- --- ---- -- ------ ------<br>--- ----- -- ----,117722.30000007153,117721.60000002384,116556.982,116573,116590.366,117740.18,,25,study
screen,html.Screen,2_1_0_1_26,2022-05-09T10:22:42.271Z,,,,,,,,,,,,,,,,,53,,,,,,,,,,,,,,429.12000007153256,,response,,,,99,,,,,,,Space,keypress(Space),,,,,,,,---- -- ----- -- ------ - ------- --- ----------<br>------------- ------ ------ ---- ---- ------- ----- -- ----<br>-------- ------- -- ---------- --- - --- ----- finds ----<br>---- --- --- ----- --- ---- ---- ------- ----- ---- -------<br>--- --- -- ----- -- --- ---- -- --- ---- -- ------ ------<br>--- ----- -- ----,118169.80000007153,118169.30000007153,117706.58,117722.39999997616,117740.18,118173.014,,26,finds
screen,html.Screen,2_1_0_1_27,2022-05-09T10:22:42.737Z,,,,,,,,,,,,,,,,,53,,,,,,,,,,,,,,461.9860000000044,,response,,,,99,,,,,,,Space,keypress(Space),,,,,,,,---- -- ----- -- ------ - ------- --- ----------<br>------------- ------ ------ ---- ---- ------- ----- -- ----<br>-------- ------- -- ---------- --- - --- ----- ----- that<br>---- --- --- ----- --- ---- ---- ------- ----- ---- -------<br>--- --- -- ----- -- --- ---- -- --- ---- -- ------ ------<br>--- ----- -- ----,118635.5,118635,118156.674,118169.89999997616,118173.014,118639.784,,27,that
screen,html.Screen,2_1_0_1_28,2022-05-09T10:22:43.139Z,,,,,,,,,,,,,,,,,53,,,,,,,,,,,,,,397.3160000238422,,response,,,,99,,,,,,,Space,keypress(Space),,,,,,,,---- -- ----- -- ------ - ------- --- ----------<br>------------- ------ ------ ---- ---- ------- ----- -- ----<br>-------- ------- -- ---------- --- - --- ----- ----- ----<br>it's --- --- ----- --- ---- ---- ------- ----- ---- -------<br>--- --- -- ----- -- --- ---- -- --- ---- -- ------ ------<br>--- ----- -- ----,119037.60000002384,119037.10000002384,118623.203,118635.60000002384,118639.784,119039.684,,28,it's
screen,html.Screen,2_1_0_1_29,2022-05-09T10:22:43.455Z,,,,,,,,,,,,,,,,,53,,,,,,,,,,,,,,312.81600000000617,,response,,,,99,,,,,,,Space,keypress(Space),,,,,,,,---- -- ----- -- ------ - ------- --- ----------<br>------------- ------ ------ ---- ---- ------- ----- -- ----<br>-------- ------- -- ---------- --- - --- ----- ----- ----<br>---- not --- ----- --- ---- ---- ------- ----- ---- -------<br>--- --- -- ----- -- --- ---- -- --- ---- -- ------ ------<br>--- ----- -- ----,119353.10000002384,119352.5,119023.184,119037.80000007153,119039.684,119356.397,,29,not
screen,html.Screen,2_1_0_1_30,2022-05-09T10:22:43.760Z,,,,,,,,,,,,,,,,,53,,,,,,,,,,,,,,301.3030000476865,,response,,,,99,,,,,,,Space,keypress(Space),,,,,,,,---- -- ----- -- ------ - ------- --- ----------<br>------------- ------ ------ ---- ---- ------- ----- -- ----<br>-------- ------- -- ---------- --- - --- ----- ----- ----<br>---- --- how ----- --- ---- ---- ------- ----- ---- -------<br>--- --- -- ----- -- --- ---- -- --- ---- -- ------ ------<br>--- ----- -- ----,119658.10000002384,119657.70000004768,119339.732,119353.20000004768,119356.397,119673.265,,30,how
screen,html.Screen,2_1_0_1_31,2022-05-09T10:22:44.111Z,,,,,,,,,,,,,,,,,53,,,,,,,,,,,,,,335.1349999761587,,response,,,,99,,,,,,,Space,keypress(Space),,,,,,,,---- -- ----- -- ------ - ------- --- ----------<br>------------- ------ ------ ---- ---- ------- ----- -- ----<br>-------- ------- -- ---------- --- - --- ----- ----- ----<br>---- --- --- close --- ---- ---- ------- ----- ---- -------<br>--- --- -- ----- -- --- ---- -- --- ---- -- ------ ------<br>--- ----- -- ----,120008.89999997616,120008.39999997616,119656.555,119658.20000004768,119673.265,120023.159,,31,close
screen,html.Screen,2_1_0_1_32,2022-05-09T10:22:44.504Z,,,,,,,,,,,,,,,,,53,,,,,,,,,,,,,,378.34100000000035,,response,,,,99,,,,,,,Space,keypress(Space),,,,,,,,---- -- ----- -- ------ - ------- --- ----------<br>------------- ------ ------ ---- ---- ------- ----- -- ----<br>-------- ------- -- ---------- --- - --- ----- ----- ----<br>---- --- --- ----- you ---- ---- ------- ----- ---- -------<br>--- --- -- ----- -- --- ---- -- --- ---- -- ------ ------<br>--- ----- -- ----,120402,120401.5,120006.387,120008.89999997616,120023.159,120406.136,,32,you
screen,html.Screen,2_1_0_1_33,2022-05-09T10:22:45.002Z,,,,,,,,,,,,,,,,,53,,,,,,,,,,,,,,493.26399997615954,,response,,,,99,,,,,,,Space,keypress(Space),,,,,,,,---- -- ----- -- ------ - ------- --- ----------<br>------------- ------ ------ ---- ---- ------- ----- -- ----<br>-------- ------- -- ---------- --- - --- ----- ----- ----<br>---- --- --- ----- --- feel ---- ------- ----- ---- -------<br>--- --- -- ----- -- --- ---- -- --- ---- -- ------ ------<br>--- ----- -- ----,120900,120899.39999997616,120389.898,120402,120406.136,120906.107,,33,feel
screen,html.Screen,2_1_0_1_34,2022-05-09T10:22:45.446Z,,,,,,,,,,,,,,,,,53,,,,,,,,,,,,,,437.69300007152196,,response,,,,99,,,,,,,Space,keypress(Space),,,,,,,,---- -- ----- -- ------ - ------- --- ----------<br>------------- ------ ------ ---- ---- ------- ----- -- ----<br>-------- ------- -- ---------- --- - --- ----- ----- ----<br>---- --- --- ----- --- ---- that ------- ----- ---- -------<br>--- --- -- ----- -- --- ---- -- --- ---- -- ------ ------<br>--- ----- -- ----,121344.39999997616,121343.80000007153,120889.356,120900.10000002384,120906.107,121356.113,,34,that
screen,html.Screen,2_1_0_1_35,2022-05-09T10:22:45.809Z,,,,,,,,,,,,,,,,,53,,,,,,,,,,,,,,350.4870000238443,,response,,,,99,,,,,,,Space,keypress(Space),,,,,,,,---- -- ----- -- ------ - ------- --- ----------<br>------------- ------ ------ ---- ---- ------- ----- -- ----<br>-------- ------- -- ---------- --- - --- ----- ----- ----<br>---- --- --- ----- --- ---- ---- matters ----- ---- -------<br>--- --- -- ----- -- --- ---- -- --- ---- -- ------ ------<br>--- ----- -- ----,121707.10000002384,121706.60000002384,121339.74,121344.39999997616,121356.113,121722.993,,35,matters
screen,html.Screen,2_1_0_1_36,2022-05-09T10:22:46.235Z,,,,,,,,,,,,,,,,,53,,,,,,,,,,,,,,409.60700002383965,,response,,,,99,,,,,,,Space,keypress(Space),,,,,,,,"---- -- ----- -- ------ - ------- --- ----------<br>------------- ------ ------ ---- ---- ------- ----- -- ----<br>-------- ------- -- ---------- --- - --- ----- ----- ----<br>---- --- --- ----- --- ---- ---- ------- most, ---- -------<br>--- --- -- ----- -- --- ---- -- --- ---- -- ------ ------<br>--- ----- -- ----",122133,122132.60000002384,121706.226,121707.80000007153,121722.993,122139.229,,36,"most,"
screen,html.Screen,2_1_0_1_37,2022-05-09T10:22:46.622Z,,,,,,,,,,,,,,,,,53,,,,,,,,,,,,,,380.57100007151894,,response,,,,99,,,,,,,Space,keypress(Space),,,,,,,,---- -- ----- -- ------ - ------- --- ----------<br>------------- ------ ------ ---- ---- ------- ----- -- ----<br>-------- ------- -- ---------- --- - --- ----- ----- ----<br>---- --- --- ----- --- ---- ---- ------- ----- it's -------<br>--- --- -- ----- -- --- ---- -- --- ---- -- ------ ------<br>--- ----- -- ----,122520.39999997616,122519.80000007153,122122.554,122133.10000002384,122139.229,122522.532,,37,it's
screen,html.Screen,2_1_0_1_38,2022-05-09T10:22:47.012Z,,,,,,,,,,,,,,,,,53,,,,,,,,,,,,,,387.76800007151905,,response,,,,99,,,,,,,Space,keypress(Space),,,,,,,,---- -- ----- -- ------ - ------- --- ----------<br>------------- ------ ------ ---- ---- ------- ----- -- ----<br>-------- ------- -- ---------- --- - --- ----- ----- ----<br>---- --- --- ----- --- ---- ---- ------- ----- ---- whether<br>--- --- -- ----- -- --- ---- -- --- ---- -- ------ ------<br>--- ----- -- ----,122910.70000004768,122910.30000007153,122506.136,122520.39999997616,122522.532,122922.915,,38,whether
screen,html.Screen,2_1_0_1_39,2022-05-09T10:22:47.370Z,,,,,,,,,,,,,,,,,53,,,,,,,,,,,,,,344.7850000476901,,response,,,,99,,,,,,,Space,keypress(Space),,,,,,,,---- -- ----- -- ------ - ------- --- ----------<br>------------- ------ ------ ---- ---- ------- ----- -- ----<br>-------- ------- -- ---------- --- - --- ----- ----- ----<br>---- --- --- ----- --- ---- ---- ------- ----- ---- -------<br>you --- -- ----- -- --- ---- -- --- ---- -- ------ ------<br>--- ----- -- ----,123268.39999997616,123267.70000004768,122905.921,122910.89999997616,122922.915,123272.402,,39,you
screen,html.Screen,2_1_0_1_40,2022-05-09T10:22:47.728Z,,,,,,,,,,,,,,,,,53,,,,,,,,,,,,,,353.4979999761563,,response,,,,99,,,,,,,Space,keypress(Space),,,,,,,,---- -- ----- -- ------ - ------- --- ----------<br>------------- ------ ------ ---- ---- ------- ----- -- ----<br>-------- ------- -- ---------- --- - --- ----- ----- ----<br>---- --- --- ----- --- ---- ---- ------- ----- ---- -------<br>--- are -- ----- -- --- ---- -- --- ---- -- ------ ------<br>--- ----- -- ----,123626.30000007153,123625.89999997616,123256.048,123268.5,123272.402,123639.478,,40,are
screen,html.Screen,2_1_0_1_41,2022-05-09T10:22:47.959Z,,,,,,,,,,,,,,,,,53,,,,,,,,,,,,,,217.42199997615535,,response,,,,99,,,,,,,Space,keypress(Space),,,,,,,,---- -- ----- -- ------ - ------- --- ----------<br>------------- ------ ------ ---- ---- ------- ----- -- ----<br>-------- ------- -- ---------- --- - --- ----- ----- ----<br>---- --- --- ----- --- ---- ---- ------- ----- ---- -------<br>--- --- as ----- -- --- ---- -- --- ---- -- ------ ------<br>--- ----- -- ----,123857.70000004768,123856.89999997616,123622.65,123626.39999997616,123639.478,123872.82,,41,as
screen,html.Screen,2_1_0_1_42,2022-05-09T10:22:48.332Z,,,,,,,,,,,,,,,,,53,,,,,,,,,,,,,,356.88000004767673,,response,,,,99,,,,,,,Space,keypress(Space),,,,,,,,---- -- ----- -- ------ - ------- --- ----------<br>------------- ------ ------ ---- ---- ------- ----- -- ----<br>-------- ------- -- ---------- --- - --- ----- ----- ----<br>---- --- --- ----- --- ---- ---- ------- ----- ---- -------<br>--- --- -- close -- --- ---- -- --- ---- -- ------ ------<br>--- ----- -- ----,124230.20000004768,124229.70000004768,123855.962,123857.80000007153,123872.82,124239.355,,42,close
screen,html.Screen,2_1_0_1_43,2022-05-09T10:22:48.672Z,,,,,,,,,,,,,,,,,53,,,,,,,,,,,,,,330.8450000476878,,response,,,,99,,,,,,,Space,keypress(Space),,,,,,,,---- -- ----- -- ------ - ------- --- ----------<br>------------- ------ ------ ---- ---- ------- ----- -- ----<br>-------- ------- -- ---------- --- - --- ----- ----- ----<br>---- --- --- ----- --- ---- ---- ------- ----- ---- -------<br>--- --- -- ----- as --- ---- -- --- ---- -- ------ ------<br>--- ----- -- ----,124570.70000004768,124570.20000004768,124222.585,124230.20000004768,124239.355,124591.287,,43,as
screen,html.Screen,2_1_0_1_44,2022-05-09T10:22:49.062Z,,,,,,,,,,,,,,,,,53,,,,,,,,,,,,,,368.31300002384523,,response,,,,99,,,,,,,Space,keypress(Space),,,,,,,,---- -- ----- -- ------ - ------- --- ----------<br>------------- ------ ------ ---- ---- ------- ----- -- ----<br>-------- ------- -- ---------- --- - --- ----- ----- ----<br>---- --- --- ----- --- ---- ---- ------- ----- ---- -------<br>--- --- -- ----- -- you ---- -- --- ---- -- ------ ------<br>--- ----- -- ----,124960.20000004768,124959.60000002384,124555.868,124570.80000007153,124591.287,124972.666,,44,you
screen,html.Screen,2_1_0_1_45,2022-05-09T10:22:49.424Z,,,,,,,,,,,,,,,,,53,,,,,,,,,,,,,,348.63400007152813,,response,,,,99,,,,,,,Space,keypress(Space),,,,,,,,---- -- ----- -- ------ - ------- --- ----------<br>------------- ------ ------ ---- ---- ------- ----- -- ----<br>-------- ------- -- ---------- --- - --- ----- ----- ----<br>---- --- --- ----- --- ---- ---- ------- ----- ---- -------<br>--- --- -- ----- -- --- want -- --- ---- -- ------ ------<br>--- ----- -- ----,125322,125321.30000007153,124955.82,124960.30000007153,124972.666,125339.298,,45,want
screen,html.Screen,2_1_0_1_46,2022-05-09T10:22:49.770Z,,,,,,,,,,,,,,,,,53,,,,,,,,,,,,,,328.1019999761629,,response,,,,99,,,,,,,Space,keypress(Space),,,,,,,,---- -- ----- -- ------ - ------- --- ----------<br>------------- ------ ------ ---- ---- ------- ----- -- ----<br>-------- ------- -- ---------- --- - --- ----- ----- ----<br>---- --- --- ----- --- ---- ---- ------- ----- ---- -------<br>--- --- -- ----- -- --- ---- to --- ---- -- ------ ------<br>--- ----- -- ----,125668.30000007153,125667.39999997616,125322.305,125322.10000002384,125339.298,125672.214,,46,to
screen,html.Screen,2_1_0_1_47,2022-05-09T10:22:50.082Z,,,,,,,,,,,,,,,,,53,,,,,,,,,,,,,,307.6859999761509,,response,,,,99,,,,,,,Space,keypress(Space),,,,,,,,"---- -- ----- -- ------ - ------- --- ----------<br>------------- ------ ------ ---- ---- ------- ----- -- ----<br>-------- ------- -- ---------- --- - --- ----- ----- ----<br>---- --- --- ----- --- ---- ---- ------- ----- ---- -------<br>--- --- -- ----- -- --- ---- -- be, ---- -- ------ ------<br>--- ----- -- ----",125980.39999997616,125979.89999997616,125655.806,125668.39999997616,125672.214,125989.08,,47,"be,"
screen,html.Screen,2_1_0_1_48,2022-05-09T10:22:50.503Z,,,,,,,,,,,,,,,,,53,,,,,,,,,,,,,,411.41999999999825,,response,,,,99,,,,,,,Space,keypress(Space),,,,,,,,---- -- ----- -- ------ - ------- --- ----------<br>------------- ------ ------ ---- ---- ------- ----- -- ----<br>-------- ------- -- ---------- --- - --- ----- ----- ----<br>---- --- --- ----- --- ---- ---- ------- ----- ---- -------<br>--- --- -- ----- -- --- ---- -- --- even -- ------ ------<br>--- ----- -- ----,126401,126400.5,125972.189,125980.5,125989.08,126405.355,,48,even
screen,html.Screen,2_1_0_1_49,2022-05-09T10:22:50.834Z,,,,,,,,,,,,,,,,,53,,,,,,,,,,,,,,326.0449999761622,,response,,,,99,,,,,,,Space,keypress(Space),,,,,,,,---- -- ----- -- ------ - ------- --- ----------<br>------------- ------ ------ ---- ---- ------- ----- -- ----<br>-------- ------- -- ---------- --- - --- ----- ----- ----<br>---- --- --- ----- --- ---- ---- ------- ----- ---- -------<br>--- --- -- ----- -- --- ---- -- --- ---- if ------ ------<br>--- ----- -- ----,126731.89999997616,126731.39999997616,126388.805,126401,126405.355,126738.568,,49,if
screen,html.Screen,2_1_0_1_50,2022-05-09T10:22:51.150Z,,,,,,,,,,,,,,,,,53,,,,,,,,,,,,,,310.2320000715263,,response,,,,99,,,,,,,Space,keypress(Space),,,,,,,,---- -- ----- -- ------ - ------- --- ----------<br>------------- ------ ------ ---- ---- ------- ----- -- ----<br>-------- ------- -- ---------- --- - --- ----- ----- ----<br>---- --- --- ----- --- ---- ---- ------- ----- ---- -------<br>--- --- -- ----- -- --- ---- -- --- ---- -- that's ------<br>--- ----- -- ----,127049.39999997616,127048.80000007153,126722.297,126732,126738.568,127055.411,,50,that's
screen,html.Screen,2_1_0_1_51,2022-05-09T10:22:51.519Z,,,,,,,,,,,,,,,,,53,,,,,,,,,,,,,,362.98899997616536,,response,,,,99,,,,,,,Space,keypress(Space),,,,,,,,---- -- ----- -- ------ - ------- --- ----------<br>------------- ------ ------ ---- ---- ------- ----- -- ----<br>-------- ------- -- ---------- --- - --- ----- ----- ----<br>---- --- --- ----- --- ---- ---- ------- ----- ---- -------<br>--- --- -- ----- -- --- ---- -- --- ---- -- ------ really<br>--- ----- -- ----,127419,127418.39999997616,127038.866,127049.39999997616,127055.411,127422.041,,51,really
screen,html.Screen,2_1_0_1_52,2022-05-09T10:22:51.899Z,,,,,,,,,,,,,,,,,53,,,,,,,,,,,,,,376.1590000476863,,response,,,,99,,,,,,,Space,keypress(Space),,,,,,,,---- -- ----- -- ------ - ------- --- ----------<br>------------- ------ ------ ---- ---- ------- ----- -- ----<br>-------- ------- -- ---------- --- - --- ----- ----- ----<br>---- --- --- ----- --- ---- ---- ------- ----- ---- -------<br>--- --- -- ----- -- --- ---- -- --- ---- -- ------ ------<br>not ----- -- ----,127798.80000007153,127798.20000004768,127405.146,127419.10000002384,127422.041,127805.259,,52,not
screen,html.Screen,2_1_0_1_53,2022-05-09T10:22:52.207Z,,,,,,,,,,,,,,,,,53,,,,,,,,,,,,,,300.74099999999453,,response,,,,99,,,,,,,Space,keypress(Space),,,,,,,,---- -- ----- -- ------ - ------- --- ----------<br>------------- ------ ------ ---- ---- ------- ----- -- ----<br>-------- ------- -- ---------- --- - --- ----- ----- ----<br>---- --- --- ----- --- ---- ---- ------- ----- ---- -------<br>--- --- -- ----- -- --- ---- -- --- ---- -- ------ ------<br>--- close -- ----,128106.5,128106,127788.645,127799,127805.259,128121.84,,53,close
screen,html.Screen,2_1_0_1_54,2022-05-09T10:22:52.594Z,,,,,,,,,,,,,,,,,53,,,,,,,,,,,,,,370.76000002384535,,response,,,,99,,,,,,,Space,keypress(Space),,,,,,,,---- -- ----- -- ------ - ------- --- ----------<br>------------- ------ ------ ---- ---- ------- ----- -- ----<br>-------- ------- -- ---------- --- - --- ----- ----- ----<br>---- --- --- ----- --- ---- ---- ------- ----- ---- -------<br>--- --- -- ----- -- --- ---- -- --- ---- -- ------ ------<br>--- ----- at ----,128493.10000002384,128492.60000002384,128105.337,128106.5,128121.84,128505.149,,54,at
screen,html.Screen,2_1_0_1_55,2022-05-09T10:22:52.945Z,,,,,,,,,,,,,,,,,53,,,,,,,,,,,,,,338.95100002383697,,response,,,,99,,,,,,,Space,keypress(Space),,,,,,,,---- -- ----- -- ------ - ------- --- ----------<br>------------- ------ ------ ---- ---- ------- ----- -- ----<br>-------- ------- -- ---------- --- - --- ----- ----- ----<br>---- --- --- ----- --- ---- ---- ------- ----- ---- -------<br>--- --- -- ----- -- --- ---- -- --- ---- -- ------ ------<br>--- ----- -- all.,128844.70000004768,128844.10000002384,128488.685,128493.20000004768,128505.149,128855.124,,55,all.
Item 99,flow.Loop,2_1_0_1,2022-05-09T10:22:52.945Z,,,,,,,,,,,,,,,,,,,,,,,,,,,,,,,25935.643000023847,,completion,,,,,C,,,,,,,,,,,silence,,,,,128844.80000007153,128844.10000002384,102891.919,102898.5,102908.457,128855.124,,,
Question 1,html.Screen,2_1_0_2,2022-05-09T10:22:56.525Z,,,,,,,,,,,,,,,,,,,,,,,,,,,,true,FALSE,,3568.376000000004,,response,,,,99,C,,,,,,FALSE,click #choice-2,,,,silence,,,,,132424.20000004768,132423.5,128838.368,128844.89999997616,128855.124,132438.292,,,
Question 2,html.Screen,2_1_0_3,2022-05-09T10:23:00.795Z,,,,,,,,,,,,,,,,,,,,,,,,,,,,true,TRUE,,4255.908000047697,,response,,,,99,C,,,,,,TRUE,click #choice-1,,,,silence,,,,,136695,136694.20000004768,132421.68,132424.39999997616,132438.292,136704.043,,,
Item 99,flow.Sequence,2_1_0,2022-05-09T10:23:00.795Z,,,,,,,,,,,,,,,,,,,,,,,,,,,,,,,43784.43200004769,,completion,,,,,,,,,,,,,,,,,,,,,136695,136694.20000004768,92893.24,92896.39999997616,92909.768,136704.043,,,
Holding screen,html.Screen,2_1_1_0,2022-05-09T10:23:10.788Z,,,,,,,,,,,,,,,,,,,,,,,,,,,,,,,9998.722999999998,,timeout,,,,,,,,,,,,,,,,,,,,,146687.30000007153,146686.33,136687.686,136695.10000002384,136704.043,146702.766,,,
screen,html.Screen,2_1_1_1_0,2022-05-09T10:23:12.361Z,,,,,,,,,,,,,,,,,54,,,,,,,,,,,,,,1556.7339999999967,,response,,,,100,,,,,,,Space,keypress(Space),,,,,,,,At --- ---- --- ------ ----- ------- ---- -- --- ------- --<br>------- ---------- ------ -- ----- -- ----- -- ---- ------<br>--- ----- --- --- ------ -------- ----- --- ------ ----- --<br>----- ----- ---------- --- --- ------ ------ ---- -- ------<br>------- --- ------ ----- --- ---- ------- -- ---- --- --<br>------- ------,148260.10000002384,148259.5,146686.33,146687.39999997616,146702.766,148269.512,,0,At
screen,html.Screen,2_1_1_1_1,2022-05-09T10:23:12.902Z,,,,,,,,,,,,,,,,,54,,,,,,,,,,,,,,531.6880000476958,,response,,,,100,,,,,,,Space,keypress(Space),,,,,,,,-- the ---- --- ------ ----- ------- ---- -- --- ------- --<br>------- ---------- ------ -- ----- -- ----- -- ---- ------<br>--- ----- --- --- ------ -------- ----- --- ------ ----- --<br>----- ----- ---------- --- --- ------ ------ ---- -- ------<br>------- --- ------ ----- --- ---- ------- -- ---- --- --<br>------- ------,148801.70000004768,148801.20000004768,148252.762,148260.20000004768,148269.512,148827.786,,1,the
screen,html.Screen,2_1_1_1_2,2022-05-09T10:23:13.279Z,,,,,,,,,,,,,,,,,54,,,,,,,,,,,,,,350.41400004769093,,response,,,,100,,,,,,,Space,keypress(Space),,,,,,,,-- --- time --- ------ ----- ------- ---- -- --- ------- --<br>------- ---------- ------ -- ----- -- ----- -- ---- ------<br>--- ----- --- --- ------ -------- ----- --- ------ ----- --<br>----- ----- ---------- --- --- ------ ------ ---- -- ------<br>------- --- ------ ----- --- ---- ------- -- ---- --- --<br>------- ------,149178.80000007153,149178.20000004768,148785.76,148801.80000007153,148827.786,149186.125,,2,time
screen,html.Screen,2_1_1_1_3,2022-05-09T10:23:13.618Z,,,,,,,,,,,,,,,,,54,,,,,,,,,,,,,,330.77499997615814,,response,,,,100,,,,,,,Space,keypress(Space),,,,,,,,-- --- ---- the ------ ----- ------- ---- -- --- ------- --<br>------- ---------- ------ -- ----- -- ----- -- ---- ------<br>--- ----- --- --- ------ -------- ----- --- ------ ----- --<br>----- ----- ---------- --- --- ------ ------ ---- -- ------<br>------- --- ------ ----- --- ---- ------- -- ---- --- --<br>------- ------,149517.5,149516.89999997616,149169.145,149179,149186.125,149542.075,,3,the
screen,html.Screen,2_1_1_1_4,2022-05-09T10:23:14.112Z,,,,,,,,,,,,,,,,,54,,,,,,,,,,,,,,468.5250000238302,,response,,,,100,,,,,,,Space,keypress(Space),,,,,,,,-- --- ---- --- French ----- ------- ---- -- --- ------- --<br>------- ---------- ------ -- ----- -- ----- -- ---- ------<br>--- ----- --- --- ------ -------- ----- --- ------ ----- --<br>----- ----- ---------- --- --- ------ ------ ---- -- ------<br>------- --- ------ ----- --- ---- ------- -- ---- --- --<br>------- ------,150011.30000007153,150010.60000002384,149502.753,149517.60000002384,149542.075,150019.276,,4,French
screen,html.Screen,2_1_1_1_5,2022-05-09T10:23:14.508Z,,,,,,,,,,,,,,,,,54,,,,,,,,,,,,,,387.2239999999874,,response,,,,100,,,,,,,Space,keypress(Space),,,,,,,,-- --- ---- --- ------ crown ------- ---- -- --- ------- --<br>------- ---------- ------ -- ----- -- ----- -- ---- ------<br>--- ----- --- --- ------ -------- ----- --- ------ ----- --<br>----- ----- ---------- --- --- ------ ------ ---- -- ------<br>------- --- ------ ----- --- ---- ------- -- ---- --- --<br>------- ------,150407.20000004768,150406.5,150002.42,150011.39999997616,150019.276,150419.378,,5,crown
screen,html.Screen,2_1_1_1_6,2022-05-09T10:23:15.373Z,,,,,,,,,,,,,,,,,54,,,,,,,,,,,,,,852.7220000238449,,response,,,,100,,,,,,,Space,keypress(Space),,,,,,,,-- --- ---- --- ------ ----- secured ---- -- --- ------- --<br>------- ---------- ------ -- ----- -- ----- -- ---- ------<br>--- ----- --- --- ------ -------- ----- --- ------ ----- --<br>----- ----- ---------- --- --- ------ ------ ---- -- ------<br>------- --- ------ ----- --- ---- ------- -- ---- --- --<br>------- ------,151272.70000004768,151272.10000002384,150402.52,150407.30000007153,150419.378,151302.468,,6,secured
screen,html.Screen,2_1_1_1_7,2022-05-09T10:23:15.721Z,,,,,,,,,,,,,,,,,54,,,,,,,,,,,,,,317.5320000000065,,response,,,,100,,,,,,,Space,keypress(Space),,,,,,,,-- --- ---- --- ------ ----- ------- much -- --- ------- --<br>------- ---------- ------ -- ----- -- ----- -- ---- ------<br>--- ----- --- --- ------ -------- ----- --- ------ ----- --<br>----- ----- ---------- --- --- ------ ------ ---- -- ------<br>------- --- ------ ----- --- ---- ------- -- ---- --- --<br>------- ------,151620.60000002384,151620,151285.734,151272.70000004768,151302.468,151635.747,,7,much
screen,html.Screen,2_1_1_1_8,2022-05-09T10:23:16.127Z,,,,,,,,,,,,,,,,,54,,,,,,,,,,,,,,390.55300007152255,,response,,,,100,,,,,,,Space,keypress(Space),,,,,,,,-- --- ---- --- ------ ----- ------- ---- of --- ------- --<br>------- ---------- ------ -- ----- -- ----- -- ---- ------<br>--- ----- --- --- ------ -------- ----- --- ------ ----- --<br>----- ----- ---------- --- --- ------ ------ ---- -- ------<br>------- --- ------ ----- --- ---- ------- -- ---- --- --<br>------- ------,152026.89999997616,152026.30000007153,151618.703,151620.70000004768,151635.747,152035.785,,8,of
screen,html.Screen,2_1_1_1_9,2022-05-09T10:23:16.421Z,,,,,,,,,,,,,,,,,54,,,,,,,,,,,,,,284.61499997615465,,response,,,,100,,,,,,,Space,keypress(Space),,,,,,,,-- --- ---- --- ------ ----- ------- ---- -- its ------- --<br>------- ---------- ------ -- ----- -- ----- -- ---- ------<br>--- ----- --- --- ------ -------- ----- --- ------ ----- --<br>----- ----- ---------- --- --- ------ ------ ---- -- ------<br>------- --- ------ ----- --- ---- ------- -- ---- --- --<br>------- ------,152321,152320.39999997616,152018.983,152026.89999997616,152035.785,152335.724,,9,its
screen,html.Screen,2_1_1_1_10,2022-05-09T10:23:16.807Z,,,,,,,,,,,,,,,,,54,,,,,,,,,,,,,,370.6759999761707,,response,,,,100,,,,,,,Space,keypress(Space),,,,,,,,-- --- ---- --- ------ ----- ------- ---- -- --- revenue --<br>------- ---------- ------ -- ----- -- ----- -- ---- ------<br>--- ----- --- --- ------ -------- ----- --- ------ ----- --<br>----- ----- ---------- --- --- ------ ------ ---- -- ------<br>------- --- ------ ----- --- ---- ------- -- ---- --- --<br>------- ------,152707,152706.39999997616,152318.944,152321.20000004768,152335.724,152719.001,,10,revenue
screen,html.Screen,2_1_1_1_11,2022-05-09T10:23:17.136Z,,,,,,,,,,,,,,,,,54,,,,,,,,,,,,,,315.6990000476944,,response,,,,100,,,,,,,Space,keypress(Space),,,,,,,,-- --- ---- --- ------ ----- ------- ---- -- --- ------- by<br>------- ---------- ------ -- ----- -- ----- -- ---- ------<br>--- ----- --- --- ------ -------- ----- --- ------ ----- --<br>----- ----- ---------- --- --- ------ ------ ---- -- ------<br>------- --- ------ ----- --- ---- ------- -- ---- --- --<br>------- ------,153035.39999997616,153034.70000004768,152702.222,152707.10000002384,152719.001,153052.183,,11,by
screen,html.Screen,2_1_1_1_12,2022-05-09T10:23:17.524Z,,,,,,,,,,,,,,,,,54,,,,,,,,,,,,,,370.81700000001,,response,,,,100,,,,,,,Space,keypress(Space),,,,,,,,-- --- ---- --- ------ ----- ------- ---- -- --- ------- --<br>issuing ---------- ------ -- ----- -- ----- -- ---- ------<br>--- ----- --- --- ------ -------- ----- --- ------ ----- --<br>----- ----- ---------- --- --- ------ ------ ---- -- ------<br>------- --- ------ ----- --- ---- ------- -- ---- --- --<br>------- ------,153423.5,153423,153035.121,153035.39999997616,153052.183,153435.652,,12,issuing
screen,html.Screen,2_1_1_1_13,2022-05-09T10:23:18.016Z,,,,,,,,,,,,,,,,,54,,,,,,,,,,,,,,479.7479999761563,,response,,,,100,,,,,,,Space,keypress(Space),,,,,,,,-- --- ---- --- ------ ----- ------- ---- -- --- ------- --<br>------- government ------ -- ----- -- ----- -- ---- ------<br>--- ----- --- --- ------ -------- ----- --- ------ ----- --<br>----- ----- ---------- --- --- ------ ------ ---- -- ------<br>------- --- ------ ----- --- ---- ------- -- ---- --- --<br>------- ------,153916,153915.39999997616,153418.453,153423.80000007153,153435.652,153918.43,,13,government
screen,html.Screen,2_1_1_1_14,2022-05-09T10:23:18.563Z,,,,,,,,,,,,,,,,,54,,,,,,,,,,,,,,543.2700000476907,,response,,,,100,,,,,,,Space,keypress(Space),,,,,,,,-- --- ---- --- ------ ----- ------- ---- -- --- ------- --<br>------- ---------- bonds. -- ----- -- ----- -- ---- ------<br>--- ----- --- --- ------ -------- ----- --- ------ ----- --<br>----- ----- ---------- --- --- ------ ------ ---- -- ------<br>------- --- ------ ----- --- ---- ------- -- ---- --- --<br>------- ------,154462.20000004768,154461.70000004768,153902.062,153916,153918.43,154468.391,,14,bonds.
screen,html.Screen,2_1_1_1_15,2022-05-09T10:23:19.294Z,,,,,,,,,,,,,,,,,54,,,,,,,,,,,,,,724.7090000238386,,response,,,,100,,,,,,,Space,keypress(Space),,,,,,,,-- --- ---- --- ------ ----- ------- ---- -- --- ------- --<br>------- ---------- ------ In ----- -- ----- -- ---- ------<br>--- ----- --- --- ------ -------- ----- --- ------ ----- --<br>----- ----- ---------- --- --- ------ ------ ---- -- ------<br>------- --- ------ ----- --- ---- ------- -- ---- --- --<br>------- ------,155193.60000002384,155193.10000002384,154451.876,154462.30000007153,154468.391,155201.933,,15,In
screen,html.Screen,2_1_1_1_16,2022-05-09T10:23:19.643Z,,,,,,,,,,,,,,,,,54,,,,,,,,,,,,,,339.66700002385187,,response,,,,100,,,,,,,Space,keypress(Space),,,,,,,,"-- --- ---- --- ------ ----- ------- ---- -- --- ------- --<br>------- ---------- ------ -- 1727, -- ----- -- ---- ------<br>--- ----- --- --- ------ -------- ----- --- ------ ----- --<br>----- ----- ---------- --- --- ------ ------ ---- -- ------<br>------- --- ------ ----- --- ---- ------- -- ---- --- --<br>------- ------",155542.20000004768,155541.60000002384,155185.294,155193.60000002384,155201.933,155551.993,,16,"1727,"
screen,html.Screen,2_1_1_1_17,2022-05-09T10:23:20.124Z,,,,,,,,,,,,,,,,,54,,,,,,,,,,,,,,470.8070000715379,,response,,,,100,,,,,,,Space,keypress(Space),,,,,,,,-- --- ---- --- ------ ----- ------- ---- -- --- ------- --<br>------- ---------- ------ -- ----- in ----- -- ---- ------<br>--- ----- --- --- ------ -------- ----- --- ------ ----- --<br>----- ----- ---------- --- --- ------ ------ ---- -- ------<br>------- --- ------ ----- --- ---- ------- -- ---- --- --<br>------- ------,156023.5,156022.80000007153,155535.185,155542.30000007153,155551.993,156035.246,,17,in
screen,html.Screen,2_1_1_1_18,2022-05-09T10:23:20.601Z,,,,,,,,,,,,,,,,,54,,,,,,,,,,,,,,465.3540000238281,,response,,,,100,,,,,,,Space,keypress(Space),,,,,,,,-- --- ---- --- ------ ----- ------- ---- -- --- ------- --<br>------- ---------- ------ -- ----- -- order -- ---- ------<br>--- ----- --- --- ------ -------- ----- --- ------ ----- --<br>----- ----- ---------- --- --- ------ ------ ---- -- ------<br>------- --- ------ ----- --- ---- ------- -- ---- --- --<br>------- ------,156501,156500.60000002384,156018.442,156023.60000002384,156035.246,156518.434,,18,order
screen,html.Screen,2_1_1_1_19,2022-05-09T10:23:20.960Z,,,,,,,,,,,,,,,,,54,,,,,,,,,,,,,,340.76600004767533,,response,,,,100,,,,,,,Space,keypress(Space),,,,,,,,-- --- ---- --- ------ ----- ------- ---- -- --- ------- --<br>------- ---------- ------ -- ----- -- ----- to ---- ------<br>--- ----- --- --- ------ -------- ----- --- ------ ----- --<br>----- ----- ---------- --- --- ------ ------ ---- -- ------<br>------- --- ------ ----- --- ---- ------- -- ---- --- --<br>------- ------,156859.80000007153,156859.20000004768,156485.221,156501.20000004768,156518.434,156868.237,,19,to
screen,html.Screen,2_1_1_1_20,2022-05-09T10:23:21.301Z,,,,,,,,,,,,,,,,,54,,,,,,,,,,,,,,332.2630000000063,,response,,,,100,,,,,,,Space,keypress(Space),,,,,,,,-- --- ---- --- ------ ----- ------- ---- -- --- ------- --<br>------- ---------- ------ -- ----- -- ----- -- save ------<br>--- ----- --- --- ------ -------- ----- --- ------ ----- --<br>----- ----- ---------- --- --- ------ ------ ---- -- ------<br>------- --- ------ ----- --- ---- ------- -- ---- --- --<br>------- ------,157201,157200.5,156851.632,156859.80000007153,156868.237,157218.366,,20,save
screen,html.Screen,2_1_1_1_21,2022-05-09T10:23:21.633Z,,,,,,,,,,,,,,,,,54,,,,,,,,,,,,,,313.33400004767464,,response,,,,100,,,,,,,Space,keypress(Space),,,,,,,,"-- --- ---- --- ------ ----- ------- ---- -- --- ------- --<br>------- ---------- ------ -- ----- -- ----- -- ---- money,<br>--- ----- --- --- ------ -------- ----- --- ------ ----- --<br>----- ----- ---------- --- --- ------ ------ ---- -- ------<br>------- --- ------ ----- --- ---- ------- -- ---- --- --<br>------- ------",157532.39999997616,157531.70000004768,157184.979,157201.10000002384,157218.366,157534.605,,21,"money,"
screen,html.Screen,2_1_1_1_22,2022-05-09T10:23:22.124Z,,,,,,,,,,,,,,,,,54,,,,,,,,,,,,,,488.79499997614766,,response,,,,100,,,,,,,Space,keypress(Space),,,,,,,,-- --- ---- --- ------ ----- ------- ---- -- --- ------- --<br>------- ---------- ------ -- ----- -- ----- -- ---- ------<br>the ----- --- --- ------ -------- ----- --- ------ ----- --<br>----- ----- ---------- --- --- ------ ------ ---- -- ------<br>------- --- ------ ----- --- ---- ------- -- ---- --- --<br>------- ------,158024,158023.39999997616,157518.264,157532.5,157534.605,158034.852,,22,the
screen,html.Screen,2_1_1_1_23,2022-05-09T10:23:22.595Z,,,,,,,,,,,,,,,,,54,,,,,,,,,,,,,,459.54799997614464,,response,,,,100,,,,,,,Space,keypress(Space),,,,,,,,-- --- ---- --- ------ ----- ------- ---- -- --- ------- --<br>------- ---------- ------ -- ----- -- ----- -- ---- ------<br>--- state --- --- ------ -------- ----- --- ------ ----- --<br>----- ----- ---------- --- --- ------ ------ ---- -- ------<br>------- --- ------ ----- --- ---- ------- -- ---- --- --<br>------- ------,158494.89999997616,158494.39999997616,158018.023,158024.10000002384,158034.852,158501.4,,23,state
screen,html.Screen,2_1_1_1_24,2022-05-09T10:23:22.992Z,,,,,,,,,,,,,,,,,54,,,,,,,,,,,,,,389.2000000238477,,response,,,,100,,,,,,,Space,keypress(Space),,,,,,,,-- --- ---- --- ------ ----- ------- ---- -- --- ------- --<br>------- ---------- ------ -- ----- -- ----- -- ---- ------<br>--- ----- cut --- ------ -------- ----- --- ------ ----- --<br>----- ----- ---------- --- --- ------ ------ ---- -- ------<br>------- --- ------ ----- --- ---- ------- -- ---- --- --<br>------- ------,158891.10000002384,158890.60000002384,158484.868,158495,158501.4,158901.526,,24,cut
screen,html.Screen,2_1_1_1_25,2022-05-09T10:23:23.420Z,,,,,,,,,,,,,,,,,54,,,,,,,,,,,,,,417.774000071513,,response,,,,100,,,,,,,Space,keypress(Space),,,,,,,,-- --- ---- --- ------ ----- ------- ---- -- --- ------- --<br>------- ---------- ------ -- ----- -- ----- -- ---- ------<br>--- ----- --- the ------ -------- ----- --- ------ ----- --<br>----- ----- ---------- --- --- ------ ------ ---- -- ------<br>------- --- ------ ----- --- ---- ------- -- ---- --- --<br>------- ------,159320,159319.30000007153,158884.747,158891.20000004768,158901.526,159334.878,,25,the
screen,html.Screen,2_1_1_1_26,2022-05-09T10:23:23.836Z,,,,,,,,,,,,,,,,,54,,,,,,,,,,,,,,400.122000000003,,response,,,,100,,,,,,,Space,keypress(Space),,,,,,,,-- --- ---- --- ------ ----- ------- ---- -- --- ------- --<br>------- ---------- ------ -- ----- -- ----- -- ---- ------<br>--- ----- --- --- bonds' -------- ----- --- ------ ----- --<br>----- ----- ---------- --- --- ------ ------ ---- -- ------<br>------- --- ------ ----- --- ---- ------- -- ---- --- --<br>------- ------,159735.5,159735,159318.109,159320,159334.878,159751.373,,26,bonds'
screen,html.Screen,2_1_1_1_27,2022-05-09T10:23:24.379Z,,,,,,,,,,,,,,,,,54,,,,,,,,,,,,,,526.2270000238495,,response,,,,100,,,,,,,Space,keypress(Space),,,,,,,,-- --- ---- --- ------ ----- ------- ---- -- --- ------- --<br>------- ---------- ------ -- ----- -- ----- -- ---- ------<br>--- ----- --- --- ------ interest ----- --- ------ ----- --<br>----- ----- ---------- --- --- ------ ------ ---- -- ------<br>------- --- ------ ----- --- ---- ------- -- ---- --- --<br>------- ------,160278.30000007153,160277.60000002384,159734.632,159735.5,159751.373,160284.715,,27,interest
screen,html.Screen,2_1_1_1_28,2022-05-09T10:23:24.765Z,,,,,,,,,,,,,,,,,54,,,,,,,,,,,,,,379.08500007152907,,response,,,,100,,,,,,,Space,keypress(Space),,,,,,,,-- --- ---- --- ------ ----- ------- ---- -- --- ------- --<br>------- ---------- ------ -- ----- -- ----- -- ---- ------<br>--- ----- --- --- ------ -------- rate. --- ------ ----- --<br>----- ----- ---------- --- --- ------ ------ ---- -- ------<br>------- --- ------ ----- --- ---- ------- -- ---- --- --<br>------- ------,160664.5,160663.80000007153,160268.096,160278.39999997616,160284.715,160667.53,,28,rate.
screen,html.Screen,2_1_1_1_29,2022-05-09T10:23:25.189Z,,,,,,,,,,,,,,,,,54,,,,,,,,,,,,,,420.47000000000116,,response,,,,100,,,,,,,Space,keypress(Space),,,,,,,,-- --- ---- --- ------ ----- ------- ---- -- --- ------- --<br>------- ---------- ------ -- ----- -- ----- -- ---- ------<br>--- ----- --- --- ------ -------- ----- The ------ ----- --<br>----- ----- ---------- --- --- ------ ------ ---- -- ------<br>------- --- ------ ----- --- ---- ------- -- ---- --- --<br>------- ------,161088.60000002384,161088,160651.182,160664.60000002384,160667.53,161100.948,,29,The
screen,html.Screen,2_1_1_1_30,2022-05-09T10:23:25.608Z,,,,,,,,,,,,,,,,,54,,,,,,,,,,,,,,405.8520000715216,,response,,,,100,,,,,,,Space,keypress(Space),,,,,,,,-- --- ---- --- ------ ----- ------- ---- -- --- ------- --<br>------- ---------- ------ -- ----- -- ----- -- ---- ------<br>--- ----- --- --- ------ -------- ----- --- market ----- --<br>----- ----- ---------- --- --- ------ ------ ---- -- ------<br>------- --- ------ ----- --- ---- ------- -- ---- --- --<br>------- ------,161507.20000004768,161506.80000007153,161084.356,161088.70000004768,161100.948,161517.49,,30,market
screen,html.Screen,2_1_1_1_31,2022-05-09T10:23:25.984Z,,,,,,,,,,,,,,,,,54,,,,,,,,,,,,,,365.8100000715349,,response,,,,100,,,,,,,Space,keypress(Space),,,,,,,,-- --- ---- --- ------ ----- ------- ---- -- --- ------- --<br>------- ---------- ------ -- ----- -- ----- -- ---- ------<br>--- ----- --- --- ------ -------- ----- --- ------ value --<br>----- ----- ---------- --- --- ------ ------ ---- -- ------<br>------- --- ------ ----- --- ---- ------- -- ---- --- --<br>------- ------,161883.80000007153,161883.30000007153,161501.244,161507.39999997616,161517.49,161901.149,,31,value
screen,html.Screen,2_1_1_1_32,2022-05-09T10:23:26.420Z,,,,,,,,,,,,,,,,,54,,,,,,,,,,,,,,417.8509999999951,,response,,,,100,,,,,,,Space,keypress(Space),,,,,,,,-- --- ---- --- ------ ----- ------- ---- -- --- ------- --<br>------- ---------- ------ -- ----- -- ----- -- ---- ------<br>--- ----- --- --- ------ -------- ----- --- ------ ----- of<br>----- ----- ---------- --- --- ------ ------ ---- -- ------<br>------- --- ------ ----- --- ---- ------- -- ---- --- --<br>------- ------,162319.39999997616,162319,161867.759,161883.89999997616,161901.149,162334.327,,32,of
screen,html.Screen,2_1_1_1_33,2022-05-09T10:23:26.781Z,,,,,,,,,,,,,,,,,54,,,,,,,,,,,,,,345.6730000000098,,response,,,,100,,,,,,,Space,keypress(Space),,,,,,,,-- --- ---- --- ------ ----- ------- ---- -- --- ------- --<br>------- ---------- ------ -- ----- -- ----- -- ---- ------<br>--- ----- --- --- ------ -------- ----- --- ------ ----- --<br>these ----- ---------- --- --- ------ ------ ---- -- ------<br>------- --- ------ ----- --- ---- ------- -- ---- --- --<br>------- ------,162680.5,162680,162317.296,162319.5,162334.327,162683.954,,33,these
screen,html.Screen,2_1_1_1_34,2022-05-09T10:23:27.241Z,,,,,,,,,,,,,,,,,54,,,,,,,,,,,,,,456.34600007152767,,response,,,,100,,,,,,,Space,keypress(Space),,,,,,,,-- --- ---- --- ------ ----- ------- ---- -- --- ------- --<br>------- ---------- ------ -- ----- -- ----- -- ---- ------<br>--- ----- --- --- ------ -------- ----- --- ------ ----- --<br>----- bonds ---------- --- --- ------ ------ ---- -- ------<br>------- --- ------ ----- --- ---- ------- -- ---- --- --<br>------- ------,163140.80000007153,163140.30000007153,162667.698,162680.89999997616,162683.954,163150.989,,34,bonds
screen,html.Screen,2_1_1_1_35,2022-05-09T10:23:27.813Z,,,,,,,,,,,,,,,,,54,,,,,,,,,,,,,,561.0109999999986,,response,,,,100,,,,,,,Space,keypress(Space),,,,,,,,"-- --- ---- --- ------ ----- ------- ---- -- --- ------- --<br>------- ---------- ------ -- ----- -- ----- -- ---- ------<br>--- ----- --- --- ------ -------- ----- --- ------ ----- --<br>----- ----- plummeted, --- --- ------ ------ ---- -- ------<br>------- --- ------ ----- --- ---- ------- -- ---- --- --<br>------- ------",163712.39999997616,163712,163134.052,163140.89999997616,163150.989,163717.2,,35,"plummeted,"
screen,html.Screen,2_1_1_1_36,2022-05-09T10:23:28.261Z,,,,,,,,,,,,,,,,,54,,,,,,,,,,,,,,442.6999999761465,,response,,,,100,,,,,,,Space,keypress(Space),,,,,,,,-- --- ---- --- ------ ----- ------- ---- -- --- ------- --<br>------- ---------- ------ -- ----- -- ----- -- ---- ------<br>--- ----- --- --- ------ -------- ----- --- ------ ----- --<br>----- ----- ---------- and --- ------ ------ ---- -- ------<br>------- --- ------ ----- --- ---- ------- -- ---- --- --<br>------- ------,164160.39999997616,164159.89999997616,163700.86,163712.5,163717.2,164167.548,,36,and
screen,html.Screen,2_1_1_1_37,2022-05-09T10:23:28.606Z,,,,,,,,,,,,,,,,,54,,,,,,,,,,,,,,337.35199997614836,,response,,,,100,,,,,,,Space,keypress(Space),,,,,,,,-- --- ---- --- ------ ----- ------- ---- -- --- ------- --<br>------- ---------- ------ -- ----- -- ----- -- ---- ------<br>--- ----- --- --- ------ -------- ----- --- ------ ----- --<br>----- ----- ---------- --- the ------ ------ ---- -- ------<br>------- --- ------ ----- --- ---- ------- -- ---- --- --<br>------- ------,164505.30000007153,164504.89999997616,164150.611,164160.5,164167.548,164517.504,,37,the
screen,html.Screen,2_1_1_1_38,2022-05-09T10:23:29.082Z,,,,,,,,,,,,,,,,,54,,,,,,,,,,,,,,463.99600000001374,,response,,,,100,,,,,,,Space,keypress(Space),,,,,,,,-- --- ---- --- ------ ----- ------- ---- -- --- ------- --<br>------- ---------- ------ -- ----- -- ----- -- ---- ------<br>--- ----- --- --- ------ -------- ----- --- ------ ----- --<br>----- ----- ---------- --- --- market ------ ---- -- ------<br>------- --- ------ ----- --- ---- ------- -- ---- --- --<br>------- ------,164982,164981.5,164500.736,164505.39999997616,164517.504,164983.618,,38,market
screen,html.Screen,2_1_1_1_39,2022-05-09T10:23:29.491Z,,,,,,,,,,,,,,,,,54,,,,,,,,,,,,,,405.88200000001234,,response,,,,100,,,,,,,Space,keypress(Space),,,,,,,,-- --- ---- --- ------ ----- ------- ---- -- --- ------- --<br>------- ---------- ------ -- ----- -- ----- -- ---- ------<br>--- ----- --- --- ------ -------- ----- --- ------ ----- --<br>----- ----- ---------- --- --- ------ became ---- -- ------<br>------- --- ------ ----- --- ---- ------- -- ---- --- --<br>------- ------,165390.10000002384,165389.5,164967.29,164982,164983.618,165400.804,,39,became
screen,html.Screen,2_1_1_1_40,2022-05-09T10:23:29.823Z,,,,,,,,,,,,,,,,,54,,,,,,,,,,,,,,321.29600002383813,,response,,,,100,,,,,,,Space,keypress(Space),,,,,,,,-- --- ---- --- ------ ----- ------- ---- -- --- ------- --<br>------- ---------- ------ -- ----- -- ----- -- ---- ------<br>--- ----- --- --- ------ -------- ----- --- ------ ----- --<br>----- ----- ---------- --- --- ------ ------ wary -- ------<br>------- --- ------ ----- --- ---- ------- -- ---- --- --<br>------- ------,165722.60000002384,165722.10000002384,165383.823,165390.20000004768,165400.804,165733.971,,40,wary
screen,html.Screen,2_1_1_1_41,2022-05-09T10:23:30.187Z,,,,,,,,,,,,,,,,,54,,,,,,,,,,,,,,352.3290000715351,,response,,,,100,,,,,,,Space,keypress(Space),,,,,,,,-- --- ---- --- ------ ----- ------- ---- -- --- ------- --<br>------- ---------- ------ -- ----- -- ----- -- ---- ------<br>--- ----- --- --- ------ -------- ----- --- ------ ----- --<br>----- ----- ---------- --- --- ------ ------ ---- of ------<br>------- --- ------ ----- --- ---- ------- -- ---- --- --<br>------- ------,166086.89999997616,166086.30000007153,165716.864,165722.60000002384,165733.971,166100.339,,41,of
screen,html.Screen,2_1_1_1_42,2022-05-09T10:23:30.611Z,,,,,,,,,,,,,,,,,54,,,,,,,,,,,,,,409.3610000476765,,response,,,,100,,,,,,,Space,keypress(Space),,,,,,,,-- --- ---- --- ------ ----- ------- ---- -- --- ------- --<br>------- ---------- ------ -- ----- -- ----- -- ---- ------<br>--- ----- --- --- ------ -------- ----- --- ------ ----- --<br>----- ----- ---------- --- --- ------ ------ ---- -- French<br>------- --- ------ ----- --- ---- ------- -- ---- --- --<br>------- ------,166510.5,166509.70000004768,166083.965,166087,166100.339,166517.055,,42,French
screen,html.Screen,2_1_1_1_43,2022-05-09T10:23:31.169Z,,,,,,,,,,,,,,,,,54,,,,,,,,,,,,,,551.0450000238488,,response,,,,100,,,,,,,Space,keypress(Space),,,,,,,,-- --- ---- --- ------ ----- ------- ---- -- --- ------- --<br>------- ---------- ------ -- ----- -- ----- -- ---- ------<br>--- ----- --- --- ------ -------- ----- --- ------ ----- --<br>----- ----- ---------- --- --- ------ ------ ---- -- ------<br>credit. --- ------ ----- --- ---- ------- -- ---- --- --<br>------- ------,167068.60000002384,167068.10000002384,166500.334,166510.70000004768,166517.055,167083.415,,43,credit.
screen,html.Screen,2_1_1_1_44,2022-05-09T10:23:31.547Z,,,,,,,,,,,,,,,,,54,,,,,,,,,,,,,,362.6850000238337,,response,,,,100,,,,,,,Space,keypress(Space),,,,,,,,-- --- ---- --- ------ ----- ------- ---- -- --- ------- --<br>------- ---------- ------ -- ----- -- ----- -- ---- ------<br>--- ----- --- --- ------ -------- ----- --- ------ ----- --<br>----- ----- ---------- --- --- ------ ------ ---- -- ------<br>------- The ------ ----- --- ---- ------- -- ---- --- --<br>------- ------,167446.60000002384,167446.10000002384,167066.872,167068.70000004768,167083.415,167450.015,,44,The
screen,html.Screen,2_1_1_1_45,2022-05-09T10:23:31.933Z,,,,,,,,,,,,,,,,,54,,,,,,,,,,,,,,381.8849999761442,,response,,,,100,,,,,,,Space,keypress(Space),,,,,,,,-- --- ---- --- ------ ----- ------- ---- -- --- ------- --<br>------- ---------- ------ -- ----- -- ----- -- ---- ------<br>--- ----- --- --- ------ -------- ----- --- ------ ----- --<br>----- ----- ---------- --- --- ------ ------ ---- -- ------<br>------- --- French ----- --- ---- ------- -- ---- --- --<br>------- ------,167832.60000002384,167831.89999997616,167433.564,167446.60000002384,167450.015,167850.287,,45,French
screen,html.Screen,2_1_1_1_46,2022-05-09T10:23:32.328Z,,,,,,,,,,,,,,,,,54,,,,,,,,,,,,,,376.41300004767254,,response,,,,100,,,,,,,Space,keypress(Space),,,,,,,,-- --- ---- --- ------ ----- ------- ---- -- --- ------- --<br>------- ---------- ------ -- ----- -- ----- -- ---- ------<br>--- ----- --- --- ------ -------- ----- --- ------ ----- --<br>----- ----- ---------- --- --- ------ ------ ---- -- ------<br>------- --- ------ state --- ---- ------- -- ---- --- --<br>------- ------,168227.10000002384,168226.70000004768,167816.893,167832.80000007153,167850.287,168233.334,,46,state
screen,html.Screen,2_1_1_1_47,2022-05-09T10:23:32.706Z,,,,,,,,,,,,,,,,,54,,,,,,,,,,,,,,371.2660000238393,,response,,,,100,,,,,,,Space,keypress(Space),,,,,,,,-- --- ---- --- ------ ----- ------- ---- -- --- ------- --<br>------- ---------- ------ -- ----- -- ----- -- ---- ------<br>--- ----- --- --- ------ -------- ----- --- ------ ----- --<br>----- ----- ---------- --- --- ------ ------ ---- -- ------<br>------- --- ------ ----- was ---- ------- -- ---- --- --<br>------- ------,168605.20000004768,168604.60000002384,168216.72,168227.20000004768,168233.334,168616.76,,47,was
screen,html.Screen,2_1_1_1_48,2022-05-09T10:23:32.995Z,,,,,,,,,,,,,,,,,54,,,,,,,,,,,,,,277.4400000476744,,response,,,,100,,,,,,,Space,keypress(Space),,,,,,,,-- --- ---- --- ------ ----- ------- ---- -- --- ------- --<br>------- ---------- ------ -- ----- -- ----- -- ---- ------<br>--- ----- --- --- ------ -------- ----- --- ------ ----- --<br>----- ----- ---------- --- --- ------ ------ ---- -- ------<br>------- --- ------ ----- --- left ------- -- ---- --- --<br>------- ------,168894.70000004768,168894.20000004768,168600.323,168605.30000007153,168616.76,168899.977,,48,left
screen,html.Screen,2_1_1_1_49,2022-05-09T10:23:33.375Z,,,,,,,,,,,,,,,,,54,,,,,,,,,,,,,,374.32300007151207,,response,,,,100,,,,,,,Space,keypress(Space),,,,,,,,-- --- ---- --- ------ ----- ------- ---- -- --- ------- --<br>------- ---------- ------ -- ----- -- ----- -- ---- ------<br>--- ----- --- --- ------ -------- ----- --- ------ ----- --<br>----- ----- ---------- --- --- ------ ------ ---- -- ------<br>------- --- ------ ----- --- ---- without -- ---- --- --<br>------- ------,169275,169274.30000007153,168883.468,168894.80000007153,168899.977,169283.072,,49,without
screen,html.Screen,2_1_1_1_50,2022-05-09T10:23:33.701Z,,,,,,,,,,,,,,,,,54,,,,,,,,,,,,,,316.72800007154,,response,,,,100,,,,,,,Space,keypress(Space),,,,,,,,-- --- ---- --- ------ ----- ------- ---- -- --- ------- --<br>------- ---------- ------ -- ----- -- ----- -- ---- ------<br>--- ----- --- --- ------ -------- ----- --- ------ ----- --<br>----- ----- ---------- --- --- ------ ------ ---- -- ------<br>------- --- ------ ----- --- ---- ------- an ---- --- --<br>------- ------,169600.30000007153,169599.80000007153,169266.451,169275.10000002384,169283.072,169616.873,,50,an
screen,html.Screen,2_1_1_1_51,2022-05-09T10:23:34.023Z,,,,,,,,,,,,,,,,,54,,,,,,,,,,,,,,305.22700002384954,,response,,,,100,,,,,,,Space,keypress(Space),,,,,,,,-- --- ---- --- ------ ----- ------- ---- -- --- ------- --<br>------- ---------- ------ -- ----- -- ----- -- ---- ------<br>--- ----- --- --- ------ -------- ----- --- ------ ----- --<br>----- ----- ---------- --- --- ------ ------ ---- -- ------<br>------- --- ------ ----- --- ---- ------- -- easy --- --<br>------- ------,169922.80000007153,169922.10000002384,169600.179,169600.30000007153,169616.873,169933.364,,51,easy
screen,html.Screen,2_1_1_1_52,2022-05-09T10:23:34.541Z,,,,,,,,,,,,,,,,,54,,,,,,,,,,,,,,506.6359999999986,,response,,,,100,,,,,,,Space,keypress(Space),,,,,,,,-- --- ---- --- ------ ----- ------- ---- -- --- ------- --<br>------- ---------- ------ -- ----- -- ----- -- ---- ------<br>--- ----- --- --- ------ -------- ----- --- ------ ----- --<br>----- ----- ---------- --- --- ------ ------ ---- -- ------<br>------- --- ------ ----- --- ---- ------- -- ---- way --<br>------- ------,170440.60000002384,170440,169916.683,169922.89999997616,169933.364,170450.025,,52,way
screen,html.Screen,2_1_1_1_53,2022-05-09T10:23:34.866Z,,,,,,,,,,,,,,,,,54,,,,,,,,,,,,,,314.9750000000058,,response,,,,100,,,,,,,Space,keypress(Space),,,,,,,,-- --- ---- --- ------ ----- ------- ---- -- --- ------- --<br>------- ---------- ------ -- ----- -- ----- -- ---- ------<br>--- ----- --- --- ------ -------- ----- --- ------ ----- --<br>----- ----- ---------- --- --- ------ ------ ---- -- ------<br>------- --- ------ ----- --- ---- ------- -- ---- --- of<br>------- ------,170765.5,170765,170433.419,170440.70000004768,170450.025,170785.631,,53,of
screen,html.Screen,2_1_1_1_54,2022-05-09T10:23:35.221Z,,,,,,,,,,,,,,,,,54,,,,,,,,,,,,,,334.36900000000605,,response,,,,100,,,,,,,Space,keypress(Space),,,,,,,,-- --- ---- --- ------ ----- ------- ---- -- --- ------- --<br>------- ---------- ------ -- ----- -- ----- -- ---- ------<br>--- ----- --- --- ------ -------- ----- --- ------ ----- --<br>----- ----- ---------- --- --- ------ ------ ---- -- ------<br>------- --- ------ ----- --- ---- ------- -- ---- --- --<br>raising ------,171120.60000002384,171120,170749.881,170765.70000004768,170785.631,171133.196,,54,raising
screen,html.Screen,2_1_1_1_55,2022-05-09T10:23:35.744Z,,,,,,,,,,,,,,,,,54,,,,,,,,,,,,,,509.6040000715293,,response,,,,100,,,,,,,Space,keypress(Space),,,,,,,,-- --- ---- --- ------ ----- ------- ---- -- --- ------- --<br>------- ---------- ------ -- ----- -- ----- -- ---- ------<br>--- ----- --- --- ------ -------- ----- --- ------ ----- --<br>----- ----- ---------- --- --- ------ ------ ---- -- ------<br>------- --- ------ ----- --- ---- ------- -- ---- --- --<br>------- money.,171643.30000007153,171642.80000007153,171116.411,171120.60000002384,171133.196,171649.563,,55,money.
Item 100,flow.Loop,2_1_1_1,2022-05-09T10:23:35.744Z,,,,,,,,,,,,,,,,,,,,,,,,,,,,,,,24940.034000071522,,completion,,,,,C,,,,,,,,,,,silence,,,,,171643.5,171642.80000007153,146686.33,146687.39999997616,146702.766,171649.563,,,
Question 1,html.Screen,2_1_1_2,2022-05-09T10:23:38.802Z,,,,,,,,,,,,,,,,,,,,,,,,,,,,true,TRUE,,3050.9370000000054,,response,,,,100,C,,,,,,TRUE,click #choice-1,,,,silence,,,,,174701.20000004768,174700.5,171632.972,171643.60000002384,171649.563,174716.091,,,
Question 2,html.Screen,2_1_1_3,2022-05-09T10:23:40.974Z,,,,,,,,,,,,,,,,,,,,,,,,,,,,true,FALSE,,2156.409000000014,,response,,,,100,C,,,,,,FALSE,click #choice-2,,,,silence,,,,,176873.20000004768,176872.5,174699.226,174701.30000007153,174716.091,176882.399,,,
Item 100,flow.Sequence,2_1_1,2022-05-09T10:23:40.974Z,,,,,,,,,,,,,,,,,,,,,,,,,,,,,,,40168.456999999995,,completion,,,,,,,,,,,,,,,,,,,,,176873.30000007153,176872.5,136687.686,136695.10000002384,136704.043,176882.399,,,
End of Practice,html.Page,2_1_2,2022-05-09T10:23:44.130Z,,,,,,,,,,,,,,,,,,,,,,,,,,,,,,,3146.5009999761533,,form submission,,,,,,,,,,,,,,,,,,,,,180029.10000002384,180028.89999997616,176865.685,176873.30000007153,176882.399,180031.693,,,
Practice,flow.Sequence,2_1,2022-05-09T10:23:44.130Z,,,,,,,,,,,,,,,,,,,,,,,,,,,,,,,87119.13199997616,,completion,,,,,,,,,,,,,,,,,,,,,180029.20000004768,180028.89999997616,92893.24,92896.30000007153,92909.768,180031.693,,,
Trap_instruction,html.Page,2_2_0,2022-05-09T10:23:48.005Z,,,,,,,,,,,,,,,,,,,,,,,,,,,,,,,3872.9070000238426,,form submission,,,,,,,,,,,,,,,,,,,,,183904.80000007153,183904.60000002384,180015.435,180029.30000007153,180031.693,183915.566,,,
trap_trial,html.Screen,2_2_1,2022-05-09T10:23:51.552Z,,,,,,,,,,,,,,,,,,,,,,,,,,,,true,1,,3534.5340000238502,,response,,,,,,,,,,,1,click #choice-1,,,,,,,,,187451.20000004768,187450.10000002384,183898.163,183904.80000007153,183915.566,187464.432,,,
end of trap trial,html.Page,2_2_2,2022-05-09T10:23:53.312Z,,,,,,,,,,,,,,,,,,,,,,,,,,,,,,,1745.9679999761574,,form submission,,,,,,,,,,,,,,,,,,,,,189210.70000004768,189210.39999997616,187447.419,187451.39999997616,187464.432,189213.986,,,
Trap 1,flow.Sequence,2_2,2022-05-09T10:23:53.312Z,,,,,,,,,,,,,,,,,,,,,,,,,,,,,,,9178.706999976159,,completion,,,,,,,,,,,,,,,,,,,,,189210.80000007153,189210.39999997616,180015.435,180029.30000007153,180031.693,189213.986,,,
Standby,html.Page,2_3_0,2022-05-09T10:24:01.298Z,,,,,,,,,,,,,,,,,,,,,,,,,,,,,,,7999.2179999999935,,timeout,,,,,,,,,,,,,,,,,,,,,197197,197196.474,189197.513,189210.89999997616,189213.986,197213.204,,,
Holding screen,html.Screen,2_3_1_0_0,2022-05-09T10:24:08.297Z,,,,,,,,,,,,,,,,,,,,,,,,,,,,,,,6998.614999999991,,timeout,,,,,,,,,,,,,,,,,,,,,204196.20000004768,204195.457,197196.474,197197.10000002384,197213.204,204211.819,,,
screen,html.Screen,2_3_1_0_1_0,2022-05-09T10:24:09.384Z,,,,,,,,,,,,,,,,,2,,,,,,,,,,,,,,1070.981000071537,,response,,,,1,C,,,,,,Space,keypress(Space),,,,instrumental,,,,Two ---- ------ --- ------- ---------- ------- ----------<br>--- --------- --- ----------- ------- ----- ------- ---<br>--------- ---- -- --- ---- -- --------- -- ---- -------<br>-- --------- ------ --- ----- ------ ---- --- --------- --<br>------ - ---- -- --- ----------- ------- ---- ----- -----<br>--- -------- - ------ ---- -- ----- ---- --- --- -----------<br>-- -------,205283.5,205282.80000007153,204195.457,204196.30000007153,204211.819,205295.463,,0,Two
screen,html.Screen,2_3_1_0_1_1,2022-05-09T10:24:09.696Z,,,,,,,,,,,,,,,,,2,,,,,,,,,,,,,,298.7370000476949,,response,,,,1,C,,,,,,Space,keypress(Space),,,,instrumental,,,,--- days ------ --- ------- ---------- ------- ----------<br>--- --------- --- ----------- ------- ----- ------- ---<br>--------- ---- -- --- ---- -- --------- -- ---- -------<br>-- --------- ------ --- ----- ------ ---- --- --------- --<br>------ - ---- -- --- ----------- ------- ---- ----- -----<br>--- -------- - ------ ---- -- ----- ---- --- --- -----------<br>-- -------,205595.60000002384,205594.20000004768,205278.74,205283.60000002384,205295.463,205611.871,,1,days
screen,html.Screen,2_3_1_0_1_2,2022-05-09T10:24:10.081Z,,,,,,,,,,,,,,,,,2,,,,,,,,,,,,,,368.12899999998626,,response,,,,1,C,,,,,,Space,keypress(Space),,,,instrumental,,,,"--- ---- later, --- ------- ---------- ------- ----------<br>--- --------- --- ----------- ------- ----- ------- ---<br>--------- ---- -- --- ---- -- --------- -- ---- -------<br>-- --------- ------ --- ----- ------ ---- --- --------- --<br>------ - ---- -- --- ----------- ------- ---- ----- -----<br>--- -------- - ------ ---- -- ----- ---- --- --- -----------<br>-- -------",205980.5,205980,205595.515,205595.60000002384,205611.871,205995.301,,2,"later,"
screen,html.Screen,2_3_1_0_1_3,2022-05-09T10:24:10.489Z,,,,,,,,,,,,,,,,,2,,,,,,,,,,,,,,391.9990000715188,,response,,,,1,C,,,,,,Space,keypress(Space),,,,instrumental,,,,--- ---- ------ the ------- ---------- ------- ----------<br>--- --------- --- ----------- ------- ----- ------- ---<br>--------- ---- -- --- ---- -- --------- -- ---- -------<br>-- --------- ------ --- ----- ------ ---- --- --------- --<br>------ - ---- -- --- ----------- ------- ---- ----- -----<br>--- -------- - ------ ---- -- ----- ---- --- --- -----------<br>-- -------,206387.80000007153,206387.30000007153,205978.701,205980.70000004768,205995.301,206395.31,,3,the
screen,html.Screen,2_3_1_0_1_4,2022-05-09T10:24:10.876Z,,,,,,,,,,,,,,,,,2,,,,,,,,,,,,,,378.9900000715279,,response,,,,1,C,,,,,,Space,keypress(Space),,,,instrumental,,,,--- ---- ------ --- British ---------- ------- ----------<br>--- --------- --- ----------- ------- ----- ------- ---<br>--------- ---- -- --- ---- -- --------- -- ---- -------<br>-- --------- ------ --- ----- ------ ---- --- --------- --<br>------ - ---- -- --- ----------- ------- ---- ----- -----<br>--- -------- - ------ ---- -- ----- ---- --- --- -----------<br>-- -------,206775.20000004768,206774.30000007153,206378.604,206387.89999997616,206395.31,206778.143,,4,British
screen,html.Screen,2_3_1_0_1_5,2022-05-09T10:24:11.235Z,,,,,,,,,,,,,,,,,2,,,,,,,,,,,,,,354.85699999998906,,response,,,,1,C,,,,,,Space,keypress(Space),,,,instrumental,,,,--- ---- ------ --- ------- astronomer ------- ----------<br>--- --------- --- ----------- ------- ----- ------- ---<br>--------- ---- -- --- ---- -- --------- -- ---- -------<br>-- --------- ------ --- ----- ------ ---- --- --------- --<br>------ - ---- -- --- ----------- ------- ---- ----- -----<br>--- -------- - ------ ---- -- ----- ---- --- --- -----------<br>-- -------,207133.80000007153,207133,206762.01,206775.30000007153,206778.143,207145.381,,5,astronomer
screen,html.Screen,2_3_1_0_1_6,2022-05-09T10:24:11.623Z,,,,,,,,,,,,,,,,,2,,,,,,,,,,,,,,376.61900000000605,,response,,,,1,C,,,,,,Space,keypress(Space),,,,instrumental,,,,--- ---- ------ --- ------- ---------- Richard ----------<br>--- --------- --- ----------- ------- ----- ------- ---<br>--------- ---- -- --- ---- -- --------- -- ---- -------<br>-- --------- ------ --- ----- ------ ---- --- --------- --<br>------ - ---- -- --- ----------- ------- ---- ----- -----<br>--- -------- - ------ ---- -- ----- ---- --- --- -----------<br>-- -------,207522.60000002384,207522,207128.152,207133.80000007153,207145.381,207528.316,,6,Richard
screen,html.Screen,2_3_1_0_1_7,2022-05-09T10:24:11.996Z,,,,,,,,,,,,,,,,,2,,,,,,,,,,,,,,365.6840000000084,,response,,,,1,C,,,,,,Space,keypress(Space),,,,instrumental,,,,--- ---- ------ --- ------- ---------- ------- Carrington<br>--- --------- --- ----------- ------- ----- ------- ---<br>--------- ---- -- --- ---- -- --------- -- ---- -------<br>-- --------- ------ --- ----- ------ ---- --- --------- --<br>------ - ---- -- --- ----------- ------- ---- ----- -----<br>--- -------- - ------ ---- -- ----- ---- --- --- -----------<br>-- -------,207894.60000002384,207894,207511.738,207522.70000004768,207528.316,207911.481,,7,Carrington
screen,html.Screen,2_3_1_0_1_8,2022-05-09T10:24:12.442Z,,,,,,,,,,,,,,,,,2,,,,,,,,,,,,,,429.51900000000023,,response,,,,1,C,,,,,,Space,keypress(Space),,,,instrumental,,,,--- ---- ------ --- ------- ---------- ------- ----------<br>was --------- --- ----------- ------- ----- ------- ---<br>--------- ---- -- --- ---- -- --------- -- ---- -------<br>-- --------- ------ --- ----- ------ ---- --- --------- --<br>------ - ---- -- --- ----------- ------- ---- ----- -----<br>--- -------- - ------ ---- -- ----- ---- --- --- -----------<br>-- -------,208341.60000002384,208341,207894.712,207894.80000007153,207911.481,208344.812,,8,was
screen,html.Screen,2_3_1_0_1_9,2022-05-09T10:24:12.797Z,,,,,,,,,,,,,,,,,2,,,,,,,,,,,,,,350.4880000715202,,response,,,,1,C,,,,,,Space,keypress(Space),,,,instrumental,,,,--- ---- ------ --- ------- ---------- ------- ----------<br>--- observing --- ----------- ------- ----- ------- ---<br>--------- ---- -- --- ---- -- --------- -- ---- -------<br>-- --------- ------ --- ----- ------ ---- --- --------- --<br>------ - ---- -- --- ----------- ------- ---- ----- -----<br>--- -------- - ------ ---- -- ----- ---- --- --- -----------<br>-- -------,208696.10000002384,208695.30000007153,208328.433,208341.60000002384,208344.812,208711.408,,9,observing
screen,html.Screen,2_3_1_0_1_10,2022-05-09T10:24:13.143Z,,,,,,,,,,,,,,,,,2,,,,,,,,,,,,,,330.5920000000042,,response,,,,1,C,,,,,,Space,keypress(Space),,,,instrumental,,,,--- ---- ------ --- ------- ---------- ------- ----------<br>--- --------- the ----------- ------- ----- ------- ---<br>--------- ---- -- --- ---- -- --------- -- ---- -------<br>-- --------- ------ --- ----- ------ ---- --- --------- --<br>------ - ---- -- --- ----------- ------- ---- ----- -----<br>--- -------- - ------ ---- -- ----- ---- --- --- -----------<br>-- -------,209042.5,209042,208694.922,208696.10000002384,208711.408,209044.594,,10,the
screen,html.Screen,2_3_1_0_1_11,2022-05-09T10:24:13.505Z,,,,,,,,,,,,,,,,,2,,,,,,,,,,,,,,358.60600004767184,,response,,,,1,C,,,,,,Space,keypress(Space),,,,instrumental,,,,--- ---- ------ --- ------- ---------- ------- ----------<br>--- --------- --- interesting ------- ----- ------- ---<br>--------- ---- -- --- ---- -- --------- -- ---- -------<br>-- --------- ------ --- ----- ------ ---- --- --------- --<br>------ - ---- -- --- ----------- ------- ---- ----- -----<br>--- -------- - ------ ---- -- ----- ---- --- --- -----------<br>-- -------,209403.89999997616,209403.20000004768,209028.214,209042.60000002384,209044.594,209411.333,,11,interesting
screen,html.Screen,2_3_1_0_1_12,2022-05-09T10:24:13.926Z,,,,,,,,,,,,,,,,,2,,,,,,,,,,,,,,412.9670000715123,,response,,,,1,C,,,,,,Space,keypress(Space),,,,instrumental,,,,--- ---- ------ --- ------- ---------- ------- ----------<br>--- --------- --- ----------- sunspot ----- ------- ---<br>--------- ---- -- --- ---- -- --------- -- ---- -------<br>-- --------- ------ --- ----- ------ ---- --- --------- --<br>------ - ---- -- --- ----------- ------- ---- ----- -----<br>--- -------- - ------ ---- -- ----- ---- --- --- -----------<br>-- -------,209824.89999997616,209824.30000007153,209394.753,209403.89999997616,209411.333,209827.886,,12,sunspot
screen,html.Screen,2_3_1_0_1_13,2022-05-09T10:24:14.437Z,,,,,,,,,,,,,,,,,2,,,,,,,,,,,,,,507.71400002384325,,response,,,,1,C,,,,,,Space,keypress(Space),,,,instrumental,,,,--- ---- ------ --- ------- ---------- ------- ----------<br>--- --------- --- ----------- ------- group ------- ---<br>--------- ---- -- --- ---- -- --------- -- ---- -------<br>-- --------- ------ --- ----- ------ ---- --- --------- --<br>------ - ---- -- --- ----------- ------- ---- ----- -----<br>--- -------- - ------ ---- -- ----- ---- --- --- -----------<br>-- -------,210336.20000004768,210335.60000002384,209811.644,209825,209827.886,210344.884,,13,group
screen,html.Screen,2_3_1_0_1_14,2022-05-09T10:24:14.939Z,,,,,,,,,,,,,,,,,2,,,,,,,,,,,,,,492.91600007153465,,response,,,,1,C,,,,,,Space,keypress(Space),,,,instrumental,,,,--- ---- ------ --- ------- ---------- ------- ----------<br>--- --------- --- ----------- ------- ----- through ---<br>--------- ---- -- --- ---- -- --------- -- ---- -------<br>-- --------- ------ --- ----- ------ ---- --- --------- --<br>------ - ---- -- --- ----------- ------- ---- ----- -----<br>--- -------- - ------ ---- -- ----- ---- --- --- -----------<br>-- -------,210838.5,210837.80000007153,210327.887,210336.20000004768,210344.884,210844.481,,14,through
screen,html.Screen,2_3_1_0_1_15,2022-05-09T10:24:15.294Z,,,,,,,,,,,,,,,,,2,,,,,,,,,,,,,,348.21900004768395,,response,,,,1,C,,,,,,Space,keypress(Space),,,,instrumental,,,,--- ---- ------ --- ------- ---------- ------- ----------<br>--- --------- --- ----------- ------- ----- ------- his<br>--------- ---- -- --- ---- -- --------- -- ---- -------<br>-- --------- ------ --- ----- ------ ---- --- --------- --<br>------ - ---- -- --- ----------- ------- ---- ----- -----<br>--- -------- - ------ ---- -- ----- ---- --- --- -----------<br>-- -------,211193.30000007153,211192.70000004768,210828.004,210838.5,210844.481,211219.213,,15,his
screen,html.Screen,2_3_1_0_1_16,2022-05-09T10:24:15.732Z,,,,,,,,,,,,,,,,,2,,,,,,,,,,,,,,411.2870000000112,,response,,,,1,C,,,,,,Space,keypress(Space),,,,instrumental,,,,--- ---- ------ --- ------- ---------- ------- ----------<br>--- --------- --- ----------- ------- ----- ------- ---<br>telescope ---- -- --- ---- -- --------- -- ---- -------<br>-- --------- ------ --- ----- ------ ---- --- --------- --<br>------ - ---- -- --- ----------- ------- ---- ----- -----<br>--- -------- - ------ ---- -- ----- ---- --- --- -----------<br>-- -------,211631.10000002384,211630.5,211178.068,211193.39999997616,211219.213,211644.602,,16,telescope
screen,html.Screen,2_3_1_0_1_17,2022-05-09T10:24:16.103Z,,,,,,,,,,,,,,,,,2,,,,,,,,,,,,,,356.79799997614464,,response,,,,1,C,,,,,,Space,keypress(Space),,,,instrumental,,,,--- ---- ------ --- ------- ---------- ------- ----------<br>--- --------- --- ----------- ------- ----- ------- ---<br>--------- when -- --- ---- -- --------- -- ---- -------<br>-- --------- ------ --- ----- ------ ---- --- --------- --<br>------ - ---- -- --- ----------- ------- ---- ----- -----<br>--- -------- - ------ ---- -- ----- ---- --- --- -----------<br>-- -------,212002.10000002384,212001.39999997616,211627.761,211631.20000004768,211644.602,212011.094,,17,when
screen,html.Screen,2_3_1_0_1_18,2022-05-09T10:24:16.414Z,,,,,,,,,,,,,,,,,2,,,,,,,,,,,,,,301.4059999999881,,response,,,,1,C,,,,,,Space,keypress(Space),,,,instrumental,,,,--- ---- ------ --- ------- ---------- ------- ----------<br>--- --------- --- ----------- ------- ----- ------- ---<br>--------- ---- he --- ---- -- --------- -- ---- -------<br>-- --------- ------ --- ----- ------ ---- --- --------- --<br>------ - ---- -- --- ----------- ------- ---- ----- -----<br>--- -------- - ------ ---- -- ----- ---- --- --- -----------<br>-- -------,212313.10000002384,212312.5,211994.599,212002.10000002384,212011.094,212327.924,,18,he
screen,html.Screen,2_3_1_0_1_19,2022-05-09T10:24:16.765Z,,,,,,,,,,,,,,,,,2,,,,,,,,,,,,,,335.8760000715265,,response,,,,1,C,,,,,,Space,keypress(Space),,,,instrumental,,,,--- ---- ------ --- ------- ---------- ------- ----------<br>--- --------- --- ----------- ------- ----- ------- ---<br>--------- ---- -- saw ---- -- --------- -- ---- -------<br>-- --------- ------ --- ----- ------ ---- --- --------- --<br>------ - ---- -- --- ----------- ------- ---- ----- -----<br>--- -------- - ------ ---- -- ----- ---- --- --- -----------<br>-- -------,212664.5,212663.80000007153,212311.01,212313.10000002384,212327.924,212677.89,,19,saw
screen,html.Screen,2_3_1_0_1_20,2022-05-09T10:24:17.091Z,,,,,,,,,,,,,,,,,2,,,,,,,,,,,,,,311.5099999761442,,response,,,,1,C,,,,,,Space,keypress(Space),,,,instrumental,,,,--- ---- ------ --- ------- ---------- ------- ----------<br>--- --------- --- ----------- ------- ----- ------- ---<br>--------- ---- -- --- what -- --------- -- ---- -------<br>-- --------- ------ --- ----- ------ ---- --- --------- --<br>------ - ---- -- --- ----------- ------- ---- ----- -----<br>--- -------- - ------ ---- -- ----- ---- --- --- -----------<br>-- -------,212990.10000002384,212989.39999997616,212660.9,212664.60000002384,212677.89,212994.137,,20,what
screen,html.Screen,2_3_1_0_1_21,2022-05-09T10:24:17.477Z,,,,,,,,,,,,,,,,,2,,,,,,,,,,,,,,381.5630000476958,,response,,,,1,C,,,,,,Space,keypress(Space),,,,instrumental,,,,--- ---- ------ --- ------- ---------- ------- ----------<br>--- --------- --- ----------- ------- ----- ------- ---<br>--------- ---- -- --- ---- he --------- -- ---- -------<br>-- --------- ------ --- ----- ------ ---- --- --------- --<br>------ - ---- -- --- ----------- ------- ---- ----- -----<br>--- -------- - ------ ---- -- ----- ---- --- --- -----------<br>-- -------,213376.20000004768,213375.70000004768,212977.405,212990.20000004768,212994.137,213399.762,,21,he
screen,html.Screen,2_3_1_0_1_22,2022-05-09T10:24:17.802Z,,,,,,,,,,,,,,,,,2,,,,,,,,,,,,,,300.33800002385397,,response,,,,1,C,,,,,,Space,keypress(Space),,,,instrumental,,,,--- ---- ------ --- ------- ---------- ------- ----------<br>--- --------- --- ----------- ------- ----- ------- ---<br>--------- ---- -- --- ---- -- described -- ---- -------<br>-- --------- ------ --- ----- ------ ---- --- --------- --<br>------ - ---- -- --- ----------- ------- ---- ----- -----<br>--- -------- - ------ ---- -- ----- ---- --- --- -----------<br>-- -------,213700.60000002384,213700.10000002384,213360.726,213376.30000007153,213399.762,213710.766,,22,described
screen,html.Screen,2_3_1_0_1_23,2022-05-09T10:24:18.188Z,,,,,,,,,,,,,,,,,2,,,,,,,,,,,,,,375.43400004768046,,response,,,,1,C,,,,,,Space,keypress(Space),,,,instrumental,,,,--- ---- ------ --- ------- ---------- ------- ----------<br>--- --------- --- ----------- ------- ----- ------- ---<br>--------- ---- -- --- ---- -- --------- as ---- -------<br>-- --------- ------ --- ----- ------ ---- --- --------- --<br>------ - ---- -- --- ----------- ------- ---- ----- -----<br>--- -------- - ------ ---- -- ----- ---- --- --- -----------<br>-- -------,214086.80000007153,214086.20000004768,213694.04,213700.70000004768,213710.766,214094.356,,23,as
screen,html.Screen,2_3_1_0_1_24,2022-05-09T10:24:18.527Z,,,,,,,,,,,,,,,,,2,,,,,,,,,,,,,,331.14400000000023,,response,,,,1,C,,,,,,Space,keypress(Space),,,,instrumental,,,,"--- ---- ------ --- ------- ---------- ------- ----------<br>--- --------- --- ----------- ------- ----- ------- ---<br>--------- ---- -- --- ---- -- --------- -- ""two -------<br>-- --------- ------ --- ----- ------ ---- --- --------- --<br>------ - ---- -- --- ----------- ------- ---- ----- -----<br>--- -------- - ------ ---- -- ----- ---- --- --- -----------<br>-- -------",214426,214425.5,214077.579,214086.80000007153,214094.356,214449.824,,24,"""two"
screen,html.Screen,2_3_1_0_1_25,2022-05-09T10:24:18.924Z,,,,,,,,,,,,,,,,,2,,,,,,,,,,,,,,372.37600004769047,,response,,,,1,C,,,,,,Space,keypress(Space),,,,instrumental,,,,--- ---- ------ --- ------- ---------- ------- ----------<br>--- --------- --- ----------- ------- ----- ------- ---<br>--------- ---- -- --- ---- -- --------- -- ---- patches<br>-- --------- ------ --- ----- ------ ---- --- --------- --<br>------ - ---- -- --- ----------- ------- ---- ----- -----<br>--- -------- - ------ ---- -- ----- ---- --- --- -----------<br>-- -------,214822.60000002384,214822.20000004768,214410.614,214426.20000004768,214449.824,214827.176,,25,patches
screen,html.Screen,2_3_1_0_1_26,2022-05-09T10:24:19.312Z,,,,,,,,,,,,,,,,,2,,,,,,,,,,,,,,382.9240000238351,,response,,,,1,C,,,,,,Space,keypress(Space),,,,instrumental,,,,--- ---- ------ --- ------- ---------- ------- ----------<br>--- --------- --- ----------- ------- ----- ------- ---<br>--------- ---- -- --- ---- -- --------- -- ---- -------<br>of --------- ------ --- ----- ------ ---- --- --------- --<br>------ - ---- -- --- ----------- ------- ---- ----- -----<br>--- -------- - ------ ---- -- ----- ---- --- --- -----------<br>-- -------,215210.60000002384,215210.10000002384,214810.881,214822.70000004768,214827.176,215227.52,,26,of
screen,html.Screen,2_3_1_0_1_27,2022-05-09T10:24:19.780Z,,,,,,,,,,,,,,,,,2,,,,,,,,,,,,,,451.3799999761686,,response,,,,1,C,,,,,,Space,keypress(Space),,,,instrumental,,,,--- ---- ------ --- ------- ---------- ------- ----------<br>--- --------- --- ----------- ------- ----- ------- ---<br>--------- ---- -- --- ---- -- --------- -- ---- -------<br>-- intensely ------ --- ----- ------ ---- --- --------- --<br>------ - ---- -- --- ----------- ------- ---- ----- -----<br>--- -------- - ------ ---- -- ----- ---- --- --- -----------<br>-- -------,215679.5,215678.89999997616,215210.768,215210.70000004768,215227.52,215694.225,,27,intensely
screen,html.Screen,2_3_1_0_1_28,2022-05-09T10:24:20.205Z,,,,,,,,,,,,,,,,,2,,,,,,,,,,,,,,408.6749999761523,,response,,,,1,C,,,,,,Space,keypress(Space),,,,instrumental,,,,--- ---- ------ --- ------- ---------- ------- ----------<br>--- --------- --- ----------- ------- ----- ------- ---<br>--------- ---- -- --- ---- -- --------- -- ---- -------<br>-- --------- bright --- ----- ------ ---- --- --------- --<br>------ - ---- -- --- ----------- ------- ---- ----- -----<br>--- -------- - ------ ---- -- ----- ---- --- --- -----------<br>-- -------,216103.60000002384,216102.89999997616,215677.52,215679.60000002384,215694.225,216110.579,,28,bright
screen,html.Screen,2_3_1_0_1_29,2022-05-09T10:24:20.661Z,,,,,,,,,,,,,,,,,2,,,,,,,,,,,,,,449.1210000476858,,response,,,,1,C,,,,,,Space,keypress(Space),,,,instrumental,,,,--- ---- ------ --- ------- ---------- ------- ----------<br>--- --------- --- ----------- ------- ----- ------- ---<br>--------- ---- -- --- ---- -- --------- -- ---- -------<br>-- --------- ------ and ----- ------ ---- --- --------- --<br>------ - ---- -- --- ----------- ------- ---- ----- -----<br>--- -------- - ------ ---- -- ----- ---- --- --- -----------<br>-- -------,216560.5,216559.70000004768,216093.756,216103.70000004768,216110.579,216577.352,,29,and
screen,html.Screen,2_3_1_0_1_30,2022-05-09T10:24:21.023Z,,,,,,,,,,,,,,,,,2,,,,,,,,,,,,,,344.6479999999865,,response,,,,1,C,,,,,,Space,keypress(Space),,,,instrumental,,,,--- ---- ------ --- ------- ---------- ------- ----------<br>--- --------- --- ----------- ------- ----- ------- ---<br>--------- ---- -- --- ---- -- --------- -- ---- -------<br>-- --------- ------ --- white ------ ---- --- --------- --<br>------ - ---- -- --- ----------- ------- ---- ----- -----<br>--- -------- - ------ ---- -- ----- ---- --- --- -----------<br>-- -------,216922.5,216922,216560.379,216560.5,216577.352,216926.956,,30,white
screen,html.Screen,2_3_1_0_1_31,2022-05-09T10:24:21.554Z,,,,,,,,,,,,,,,,,2,,,,,,,,,,,,,,525.4439999761526,,response,,,,1,C,,,,,,Space,keypress(Space),,,,instrumental,,,,"--- ---- ------ --- ------- ---------- ------- ----------<br>--- --------- --- ----------- ------- ----- ------- ---<br>--------- ---- -- --- ---- -- --------- -- ---- -------<br>-- --------- ------ --- ----- light"" ---- --- --------- --<br>------ - ---- -- --- ----------- ------- ---- ----- -----<br>--- -------- - ------ ---- -- ----- ---- --- --- -----------<br>-- -------",217453.20000004768,217452.39999997616,216910.521,216922.80000007153,216926.956,217460.275,,31,"light"""
screen,html.Screen,2_3_1_0_1_32,2022-05-09T10:24:21.959Z,,,,,,,,,,,,,,,,,2,,,,,,,,,,,,,,397.0250000715314,,response,,,,1,C,,,,,,Space,keypress(Space),,,,instrumental,,,,--- ---- ------ --- ------- ---------- ------- ----------<br>--- --------- --- ----------- ------- ----- ------- ---<br>--------- ---- -- --- ---- -- --------- -- ---- -------<br>-- --------- ------ --- ----- ------ over --- --------- --<br>------ - ---- -- --- ----------- ------- ---- ----- -----<br>--- -------- - ------ ---- -- ----- ---- --- --- -----------<br>-- -------,217857.80000007153,217857.30000007153,217443.757,217453.30000007153,217460.275,217860.082,,32,over
screen,html.Screen,2_3_1_0_1_33,2022-05-09T10:24:22.315Z,,,,,,,,,,,,,,,,,2,,,,,,,,,,,,,,353.4180000000051,,response,,,,1,C,,,,,,Space,keypress(Space),,,,instrumental,,,,--- ---- ------ --- ------- ---------- ------- ----------<br>--- --------- --- ----------- ------- ----- ------- ---<br>--------- ---- -- --- ---- -- --------- -- ---- -------<br>-- --------- ------ --- ----- ------ ---- the --------- --<br>------ - ---- -- --- ----------- ------- ---- ----- -----<br>--- -------- - ------ ---- -- ----- ---- --- --- -----------<br>-- -------,218214,218213.5,217844.019,217857.89999997616,217860.082,218227.228,,33,the
screen,html.Screen,2_3_1_0_1_34,2022-05-09T10:24:22.752Z,,,,,,,,,,,,,,,,,2,,,,,,,,,,,,,,422.9720000476809,,response,,,,1,C,,,,,,Space,keypress(Space),,,,instrumental,,,,--- ---- ------ --- ------- ---------- ------- ----------<br>--- --------- --- ----------- ------- ----- ------- ---<br>--------- ---- -- --- ---- -- --------- -- ---- -------<br>-- --------- ------ --- ----- ------ ---- --- sunspots. --<br>------ - ---- -- --- ----------- ------- ---- ----- -----<br>--- -------- - ------ ---- -- ----- ---- --- --- -----------<br>-- -------,218650.80000007153,218650.20000004768,218210.244,218214,218227.228,218659.953,,34,sunspots.
screen,html.Screen,2_3_1_0_1_35,2022-05-09T10:24:23.239Z,,,,,,,,,,,,,,,,,2,,,,,,,,,,,,,,477.7470000476751,,response,,,,1,C,,,,,,Space,keypress(Space),,,,instrumental,,,,--- ---- ------ --- ------- ---------- ------- ----------<br>--- --------- --- ----------- ------- ----- ------- ---<br>--------- ---- -- --- ---- -- --------- -- ---- -------<br>-- --------- ------ --- ----- ------ ---- --- --------- He<br>------ - ---- -- --- ----------- ------- ---- ----- -----<br>--- -------- - ------ ---- -- ----- ---- --- --- -----------<br>-- -------,219138.39999997616,219137.70000004768,218643.513,218650.89999997616,218659.953,219143.369,,35,He
screen,html.Screen,2_3_1_0_1_36,2022-05-09T10:24:23.643Z,,,,,,,,,,,,,,,,,2,,,,,,,,,,,,,,398.4310000715195,,response,,,,1,C,,,,,,Space,keypress(Space),,,,instrumental,,,,--- ---- ------ --- ------- ---------- ------- ----------<br>--- --------- --- ----------- ------- ----- ------- ---<br>--------- ---- -- --- ---- -- --------- -- ---- -------<br>-- --------- ------ --- ----- ------ ---- --- --------- --<br>jotted - ---- -- --- ----------- ------- ---- ----- -----<br>--- -------- - ------ ---- -- ----- ---- --- --- -----------<br>-- -------,219542.39999997616,219541.80000007153,219127.083,219138.39999997616,219143.369,219559.865,,36,jotted
screen,html.Screen,2_3_1_0_1_37,2022-05-09T10:24:24.000Z,,,,,,,,,,,,,,,,,2,,,,,,,,,,,,,,338.1350000000093,,response,,,,1,C,,,,,,Space,keypress(Space),,,,instrumental,,,,--- ---- ------ --- ------- ---------- ------- ----------<br>--- --------- --- ----------- ------- ----- ------- ---<br>--------- ---- -- --- ---- -- --------- -- ---- -------<br>-- --------- ------ --- ----- ------ ---- --- --------- --<br>------ a ---- -- --- ----------- ------- ---- ----- -----<br>--- -------- - ------ ---- -- ----- ---- --- --- -----------<br>-- -------,219898.70000004768,219898,219526.744,219542.60000002384,219559.865,219910.097,,37,a
