sender,sender_type,sender_id,timestamp,meta,,Blues,Classical,Country,Dance,Electronic,Folk,Gospel,Hip-Hop,Jazz,Latin,Musical/Film,New-age,Pop,Prolific_id,Provo_ID,R&B,Rap,Reggae,Religious,Rock,Soul,Swing,Traditional,age,artist_name,correct,correctResponse,distraction,duration,education,ended_on,familiarity,gender,headphone_check_performance,item,list,music_frequency,offensiveness,pleasantness,position_correct,preference,response,response_action,snippet_file,song_name,song_rating,sound,stimulus_1,stimulus_2,stimulus_3,text,time_commit,time_end,time_render,time_run,time_show,time_switch,url,word,word_ID
Prolific ID,html.Form,0,2022-05-12T13:47:55.818Z,"{""labjs_version"":""20.2.2"",""labjs_build"":{""flavor"":""production"",""commit"":""a25486e0c714a0ae2ce03ff94b7bb6896854dcfa""},""location"":""https://run.pavlovia.org/mvasilev/prolific3_music_d/"",""userAgent"":""Mozilla/5.0 (Macintosh; Intel Mac OS X 10_15_6) AppleWebKit/605.1.15 (KHTML, like Gecko) Version/14.0.3 Safari/605.1.15"",""platform"":""MacIntel"",""language"":""en-gb"",""locale"":""en-GB"",""timeZone"":""Europe/London"",""timezoneOffset"":-60,""screen_width"":1280,""screen_height"":800,""scroll_width"":1280,""scroll_height"":672,""window_innerWidth"":1280,""window_innerHeight"":720,""devicePixelRatio"":2}",,,,,,,,,,,,,,,5e33e9b555c80a3b1a42693d,,,,,,,,,,,,,,,20108,,form submission,,,,,,,,,,,,,,,,,,,,,27378,27376,7247,7210,7268,27393,{},,
Introduction,html.Screen,1_0,2022-05-12T13:47:59.126Z,,,,,,,,,,,,,,,,,,,,,,,,,,,,,,,3369,,response,,,,,,,,,,,continue,click button,,,,,,,,,30686,30752,27383,27378,27393,30705,,,
Volume calibration,html.Screen,1_1,2022-05-12T13:48:18.381Z,,,,,,,,,,,,,,,,,,,,,,,,,,,,,,,19316,,response,,,,,,,,,,,continue,click button,,,,,,,,,49941,50006,30690,30686,30705,49972,,,
Task instructions,html.Screen,1_2,2022-05-12T13:48:55.863Z,,,,,,,,,,,,,,,,,,,,,,,,,,,,,,,37534,,response,,,,,,,,,,,continue,click button,,,,,,,,,87424,87490,49956,49941,49972,87449,,,
Sounds,html.Screen,1_3_0_0,2022-05-12T13:49:00.129Z,,,,,,,,,,,,,,,,,,,,,,,,,,,,,,,4256,,timeout,,,,,,,,,1,,,,,,,,S,I,O,,91689,91688,87433,87424,87449,91705,,,
Judgement,html.Screen,1_3_0_1,2022-05-12T13:49:00.829Z,,,,,,,,,,,,,,,,,,,,,,,,,,,,true,1,,767,,response,,,,,,,,,1,,1,click #choice-1,,,,,S,I,O,,92389,92455,91688,91690,91705,92407,,,
Trial,flow.Sequence,1_3_0,2022-05-12T13:49:00.829Z,,,,,,,,,,,,,,,,,,,,,,,,,,,,,,,5006,,completion,,,,,,,,,1,,,,,,,,S,I,O,,92389,92455,87433,87424,87449,92407,,,
Sounds,html.Screen,1_3_1_0,2022-05-12T13:49:05.075Z,,,,,,,,,,,,,,,,,,,,,,,,,,,,,,,4244,,timeout,,,,,,,,,2,,,,,,,,I,S,O,,96635,96635,92391,92390,92407,96651,,,
Judgement,html.Screen,1_3_1_1,2022-05-12T13:49:05.483Z,,,,,,,,,,,,,,,,,,,,,,,,,,,,true,2,,475,,response,,,,,,,,,2,,2,click #choice-2,,,,,I,S,O,,97043,97110,96635,96635,96651,97071,,,
Trial,flow.Sequence,1_3_1,2022-05-12T13:49:05.483Z,,,,,,,,,,,,,,,,,,,,,,,,,,,,,,,4703,,completion,,,,,,,,,2,,,,,,,,I,S,O,,97044,97110,92391,92390,92407,97071,,,
Sounds,html.Screen,1_3_2_0,2022-05-12T13:49:09.746Z,,,,,,,,,,,,,,,,,,,,,,,,,,,,,,,4252,,timeout,,,,,,,,,2,,,,,,,,O,S,I,,101307,101306,97055,97044,97071,101323,,,
Judgement,html.Screen,1_3_2_1,2022-05-12T13:49:10.292Z,,,,,,,,,,,,,,,,,,,,,,,,,,,,true,2,,613,,response,,,,,,,,,2,,2,click #choice-2,,,,,O,S,I,,101852,101919,101306,101307,101323,101880,,,
Trial,flow.Sequence,1_3_2,2022-05-12T13:49:10.292Z,,,,,,,,,,,,,,,,,,,,,,,,,,,,,,,4848,,completion,,,,,,,,,2,,,,,,,,O,S,I,,101852,101919,97055,97044,97071,101880,,,
Sounds,html.Screen,1_3_3_0,2022-05-12T13:49:14.554Z,,,,,,,,,,,,,,,,,,,,,,,,,,,,,,,4250,,timeout,,,,,,,,,3,,,,,,,,O,I,S,,106114,106114,101864,101853.00000000001,101880,106130,,,
Judgement,html.Screen,1_3_3_1,2022-05-12T13:49:15.356Z,,,,,,,,,,,,,,,,,,,,,,,,,,,,true,3,,869,,response,,,,,,,,,3,,3,click #choice-3,,,,,O,I,S,,106916,106983,106114,106114,106130,106942,,,
Trial,flow.Sequence,1_3_3,2022-05-12T13:49:15.356Z,,,,,,,,,,,,,,,,,,,,,,,,,,,,,,,5103,,completion,,,,,,,,,3,,,,,,,,O,I,S,,106917,106983,101864,101853.00000000001,101880,106942,,,
Sounds,html.Screen,1_3_4_0,2022-05-12T13:49:19.610Z,,,,,,,,,,,,,,,,,,,,,,,,,,,,,,,4245,,timeout,,,,,,,,,1,,,,,,,,S,O,I,,111171,111171,106924,106917,106942,111187,,,
Judgement,html.Screen,1_3_4_1,2022-05-12T13:49:19.995Z,,,,,,,,,,,,,,,,,,,,,,,,,,,,true,1,,451,,response,,,,,,,,,1,,1,click #choice-1,,,,,S,O,I,,111555,111622,111171,111171,111187,111591,,,
Trial,flow.Sequence,1_3_4,2022-05-12T13:49:19.995Z,,,,,,,,,,,,,,,,,,,,,,,,,,,,,,,4680,,completion,,,,,,,,,1,,,,,,,,S,O,I,,111556,111622,106924,106917,106942,111591,,,
Sounds,html.Screen,1_3_5_0,2022-05-12T13:49:24.259Z,,,,,,,,,,,,,,,,,,,,,,,,,,,,,,,4244,,timeout,,,,,,,,,3,,,,,,,,I,O,S,,115819,115819,111572,111556,111591,115835,,,
Judgement,html.Screen,1_3_5_1,2022-05-12T13:49:24.778Z,,,,,,,,,,,,,,,,,,,,,,,,,,,,true,3,,586,,response,,,,,,,,,3,,3,click #choice-3,,,,,I,O,S,,116339,116405,115819,115819,115835,116375,,,
Trial,flow.Sequence,1_3_5,2022-05-12T13:49:24.779Z,,,,,,,,,,,,,,,,,,,,,,,,,,,,,,,4814,,completion,,,,,,,,,3,,,,,,,,I,O,S,,116339,116405,111572,111556,111591,116375,,,
Task,flow.Loop,1_3,2022-05-12T13:49:24.783Z,,,,,,,,,,,,,,,,,,,,,,,,,,,,,,,28956,,completion,,,1,,,,,,,,,,,,,,,,,,116343,116405,87433,87424,87449,116375,,,
Trap,html.Screen,1_4,2022-05-12T13:49:24.786Z,,,,,,,,,,,,,,,,,,,,,,,,,,,,,,,NaN,,skipped,,,,,,,,,,,,,,,,,,,,,116346,116405,,116346,,116375,,,
Thanks,html.Screen,1_5,2022-05-12T13:49:31.891Z,,,,,,,,,,,,,,,,,,,,,,,,,,,,,,,7161,,response,,,,,,,,,,,continue,click button,,,,,,,,,123451.00000000001,123518,116357,116346,116375,126428,,,
Headphone screening,flow.Sequence,1,2022-05-12T13:49:31.891Z,,,,,,,,,,,,,,,,,,,,,,,,,,,,,,,96125,,completion,,,,,,,,,,,,,,,,,,,,,123452,123518,27383,27378,27393,126428,,,
Instructions,html.Page,2_0,2022-05-12T13:50:06.256Z,,,,,,,,,,,,,,,,,,,,,,,,,,,,,,,31388,,form submission,,,,,,,,,,,,,,,,,,,,,157816,157816,126410,126405,126428,157850,,,
Holding screen,html.Screen,2_1_0_0,2022-05-12T13:50:16.274Z,,,,,,,,,,,,,,,,,,,,,,,,,,,,,,,10005,,timeout,,,,,,,,,,,,,,,,,,,,,167835,167834,157829,157817,157850,167855,,,
screen,html.Screen,2_1_0_1_0,2022-05-12T13:50:19.669Z,,,,,,,,,,,,,,,,,53,,,,,,,,,,,,,,3459,,response,,,,99,,,,,,,Space,keypress(Space),,,,,,,,When -- ----- -- ------ - ------- --- ----------<br>------------- ------ ------ ---- ---- ------- ----- -- ----<br>-------- ------- -- ---------- --- - --- ----- ----- ----<br>---- --- --- ----- --- ---- ---- ------- ----- ---- -------<br>--- --- -- ----- -- --- ---- -- --- ---- -- ------ ------<br>--- ----- -- ----,171230,171293,167834,167835,167855,171273,,0,When
screen,html.Screen,2_1_0_1_1,2022-05-12T13:50:20.340Z,,,,,,,,,,,,,,,,,53,,,,,,,,,,,,,,710,,response,,,,99,,,,,,,Space,keypress(Space),,,,,,,,---- it ----- -- ------ - ------- --- ----------<br>------------- ------ ------ ---- ---- ------- ----- -- ----<br>-------- ------- -- ---------- --- - --- ----- ----- ----<br>---- --- --- ----- --- ---- ---- ------- ----- ---- -------<br>--- --- -- ----- -- --- ---- -- --- ---- -- ------ ------<br>--- ----- -- ----,171901,171966,171256,171230,171273,171928,,1,it
screen,html.Screen,2_1_0_1_2,2022-05-12T13:50:20.934Z,,,,,,,,,,,,,,,,,53,,,,,,,,,,,,,,648,,response,,,,99,,,,,,,Space,keypress(Space),,,,,,,,---- -- comes -- ------ - ------- --- ----------<br>------------- ------ ------ ---- ---- ------- ----- -- ----<br>-------- ------- -- ---------- --- - --- ----- ----- ----<br>---- --- --- ----- --- ---- ---- ------- ----- ---- -------<br>--- --- -- ----- -- --- ---- -- --- ---- -- ------ ------<br>--- ----- -- ----,172495,172560,171912,171901,171928,172532,,2,comes
screen,html.Screen,2_1_0_1_3,2022-05-12T13:50:21.451Z,,,,,,,,,,,,,,,,,53,,,,,,,,,,,,,,562,,response,,,,99,,,,,,,Space,keypress(Space),,,,,,,,---- -- ----- to ------ - ------- --- ----------<br>------------- ------ ------ ---- ---- ------- ----- -- ----<br>-------- ------- -- ---------- --- - --- ----- ----- ----<br>---- --- --- ----- --- ---- ---- ------- ----- ---- -------<br>--- --- -- ----- -- --- ---- -- --- ---- -- ------ ------<br>--- ----- -- ----,173012,173077,172515,172495,172532,173053,,3,to
screen,html.Screen,2_1_0_1_4,2022-05-12T13:50:22.070Z,,,,,,,,,,,,,,,,,53,,,,,,,,,,,,,,660,,response,,,,99,,,,,,,Space,keypress(Space),,,,,,,,---- -- ----- -- having - ------- --- ----------<br>------------- ------ ------ ---- ---- ------- ----- -- ----<br>-------- ------- -- ---------- --- - --- ----- ----- ----<br>---- --- --- ----- --- ---- ---- ------- ----- ---- -------<br>--- --- -- ----- -- --- ---- -- --- ---- -- ------ ------<br>--- ----- -- ----,173631,173696,173036,173012,173053,173672,,4,having
screen,html.Screen,2_1_0_1_5,2022-05-12T13:50:22.649Z,,,,,,,,,,,,,,,,,53,,,,,,,,,,,,,,619,,response,,,,99,,,,,,,Space,keypress(Space),,,,,,,,---- -- ----- -- ------ a ------- --- ----------<br>------------- ------ ------ ---- ---- ------- ----- -- ----<br>-------- ------- -- ---------- --- - --- ----- ----- ----<br>---- --- --- ----- --- ---- ---- ------- ----- ---- -------<br>--- --- -- ----- -- --- ---- -- --- ---- -- ------ ------<br>--- ----- -- ----,174210,174275,173656,173631,173672,174243,,5,a
screen,html.Screen,2_1_0_1_6,2022-05-12T13:50:23.285Z,,,,,,,,,,,,,,,,,53,,,,,,,,,,,,,,684,,response,,,,99,,,,,,,Space,keypress(Space),,,,,,,,---- -- ----- -- ------ - lasting --- ----------<br>------------- ------ ------ ---- ---- ------- ----- -- ----<br>-------- ------- -- ---------- --- - --- ----- ----- ----<br>---- --- --- ----- --- ---- ---- ------- ----- ---- -------<br>--- --- -- ----- -- --- ---- -- --- ---- -- ------ ------<br>--- ----- -- ----,174846,174911,174227,174211,174243,174880,,6,lasting
screen,html.Screen,2_1_0_1_7,2022-05-12T13:50:23.758Z,,,,,,,,,,,,,,,,,53,,,,,,,,,,,,,,520,,response,,,,99,,,,,,,Space,keypress(Space),,,,,,,,---- -- ----- -- ------ - ------- and ----------<br>------------- ------ ------ ---- ---- ------- ----- -- ----<br>-------- ------- -- ---------- --- - --- ----- ----- ----<br>---- --- --- ----- --- ---- ---- ------- ----- ---- -------<br>--- --- -- ----- -- --- ---- -- --- ---- -- ------ ------<br>--- ----- -- ----,175319.00000000003,175384,174864,174846,174880,175350,,7,and
screen,html.Screen,2_1_0_1_8,2022-05-12T13:50:24.301Z,,,,,,,,,,,,,,,,,53,,,,,,,,,,,,,,594,,response,,,,99,,,,,,,Space,keypress(Space),,,,,,,,---- -- ----- -- ------ - ------- --- fulfilling<br>------------- ------ ------ ---- ---- ------- ----- -- ----<br>-------- ------- -- ---------- --- - --- ----- ----- ----<br>---- --- --- ----- --- ---- ---- ------- ----- ---- -------<br>--- --- -- ----- -- --- ---- -- --- ---- -- ------ ------<br>--- ----- -- ----,175862,175927,175333,175319.00000000003,175350,175904,,8,fulfilling
screen,html.Screen,2_1_0_1_9,2022-05-12T13:50:24.821Z,,,,,,,,,,,,,,,,,53,,,,,,,,,,,,,,561,,response,,,,99,,,,,,,Space,keypress(Space),,,,,,,,"---- -- ----- -- ------ - ------- --- ----------<br>relationship, ------ ------ ---- ---- ------- ----- -- ----<br>-------- ------- -- ---------- --- - --- ----- ----- ----<br>---- --- --- ----- --- ---- ---- ------- ----- ---- -------<br>--- --- -- ----- -- --- ---- -- --- ---- -- ------ ------<br>--- ----- -- ----",176382,176447,175886,175862,175904,176424,,9,"relationship,"
screen,html.Screen,2_1_0_1_10,2022-05-12T13:50:25.315Z,,,,,,,,,,,,,,,,,53,,,,,,,,,,,,,,533,,response,,,,99,,,,,,,Space,keypress(Space),,,,,,,,---- -- ----- -- ------ - ------- --- ----------<br>------------- common ------ ---- ---- ------- ----- -- ----<br>-------- ------- -- ---------- --- - --- ----- ----- ----<br>---- --- --- ----- --- ---- ---- ------- ----- ---- -------<br>--- --- -- ----- -- --- ---- -- --- ---- -- ------ ------<br>--- ----- -- ----,176876,176941,176408,176382,176424,176911,,10,common
screen,html.Screen,2_1_0_1_11,2022-05-12T13:50:25.785Z,,,,,,,,,,,,,,,,,53,,,,,,,,,,,,,,518,,response,,,,99,,,,,,,Space,keypress(Space),,,,,,,,---- -- ----- -- ------ - ------- --- ----------<br>------------- ------ wisdom ---- ---- ------- ----- -- ----<br>-------- ------- -- ---------- --- - --- ----- ----- ----<br>---- --- --- ----- --- ---- ---- ------- ----- ---- -------<br>--- --- -- ----- -- --- ---- -- --- ---- -- ------ ------<br>--- ----- -- ----,177346,177411,176893,176876,176911,177381,,11,wisdom
screen,html.Screen,2_1_0_1_12,2022-05-12T13:50:26.211Z,,,,,,,,,,,,,,,,,53,,,,,,,,,,,,,,472.0000000000291,,response,,,,99,,,,,,,Space,keypress(Space),,,,,,,,---- -- ----- -- ------ - ------- --- ----------<br>------------- ------ ------ says ---- ------- ----- -- ----<br>-------- ------- -- ---------- --- - --- ----- ----- ----<br>---- --- --- ----- --- ---- ---- ------- ----- ---- -------<br>--- --- -- ----- -- --- ---- -- --- ---- -- ------ ------<br>--- ----- -- ----,177772,177837.00000000003,177365,177346,177381,177801,,12,says
screen,html.Screen,2_1_0_1_13,2022-05-12T13:50:26.684Z,,,,,,,,,,,,,,,,,53,,,,,,,,,,,,,,526,,response,,,,99,,,,,,,Space,keypress(Space),,,,,,,,---- -- ----- -- ------ - ------- --- ----------<br>------------- ------ ------ ---- that ------- ----- -- ----<br>-------- ------- -- ---------- --- - --- ----- ----- ----<br>---- --- --- ----- --- ---- ---- ------- ----- ---- -------<br>--- --- -- ----- -- --- ---- -- --- ---- -- ------ ------<br>--- ----- -- ----,178245,178310,177784,177772,177801,178287,,13,that
screen,html.Screen,2_1_0_1_14,2022-05-12T13:50:27.243Z,,,,,,,,,,,,,,,,,53,,,,,,,,,,,,,,599,,response,,,,99,,,,,,,Space,keypress(Space),,,,,,,,---- -- ----- -- ------ - ------- --- ----------<br>------------- ------ ------ ---- ---- feeling ----- -- ----<br>-------- ------- -- ---------- --- - --- ----- ----- ----<br>---- --- --- ----- --- ---- ---- ------- ----- ---- -------<br>--- --- -- ----- -- --- ---- -- --- ---- -- ------ ------<br>--- ----- -- ----,178804,178869,178270,178245,178287,178840,,14,feeling
screen,html.Screen,2_1_0_1_15,2022-05-12T13:50:27.721Z,,,,,,,,,,,,,,,,,53,,,,,,,,,,,,,,523,,response,,,,99,,,,,,,Space,keypress(Space),,,,,,,,---- -- ----- -- ------ - ------- --- ----------<br>------------- ------ ------ ---- ---- ------- close -- ----<br>-------- ------- -- ---------- --- - --- ----- ----- ----<br>---- --- --- ----- --- ---- ---- ------- ----- ---- -------<br>--- --- -- ----- -- --- ---- -- --- ---- -- ------ ------<br>--- ----- -- ----,179282,179347,178824,178804,178840,179311,,15,close
screen,html.Screen,2_1_0_1_16,2022-05-12T13:50:28.183Z,,,,,,,,,,,,,,,,,53,,,,,,,,,,,,,,514,,response,,,,99,,,,,,,Space,keypress(Space),,,,,,,,---- -- ----- -- ------ - ------- --- ----------<br>------------- ------ ------ ---- ---- ------- ----- to ----<br>-------- ------- -- ---------- --- - --- ----- ----- ----<br>---- --- --- ----- --- ---- ---- ------- ----- ---- -------<br>--- --- -- ----- -- --- ---- -- --- ---- -- ------ ------<br>--- ----- -- ----,179744,179809,179295,179282,179311,179781,,16,to
screen,html.Screen,2_1_0_1_17,2022-05-12T13:50:28.686Z,,,,,,,,,,,,,,,,,53,,,,,,,,,,,,,,547,,response,,,,99,,,,,,,Space,keypress(Space),,,,,,,,---- -- ----- -- ------ - ------- --- ----------<br>------------- ------ ------ ---- ---- ------- ----- -- your<br>-------- ------- -- ---------- --- - --- ----- ----- ----<br>---- --- --- ----- --- ---- ---- ------- ----- ---- -------<br>--- --- -- ----- -- --- ---- -- --- ---- -- ------ ------<br>--- ----- -- ----,180247,180312,179765,179744,179781,180285,,17,your
screen,html.Screen,2_1_0_1_18,2022-05-12T13:50:29.124Z,,,,,,,,,,,,,,,,,53,,,,,,,,,,,,,,482,,response,,,,99,,,,,,,Space,keypress(Space),,,,,,,,---- -- ----- -- ------ - ------- --- ----------<br>------------- ------ ------ ---- ---- ------- ----- -- ----<br>romantic ------- -- ---------- --- - --- ----- ----- ----<br>---- --- --- ----- --- ---- ---- ------- ----- ---- -------<br>--- --- -- ----- -- --- ---- -- --- ---- -- ------ ------<br>--- ----- -- ----,180685,180750,180268,180247,180285,180722,,18,romantic
screen,html.Screen,2_1_0_1_19,2022-05-12T13:50:29.552Z,,,,,,,,,,,,,,,,,53,,,,,,,,,,,,,,473,,response,,,,99,,,,,,,Space,keypress(Space),,,,,,,,---- -- ----- -- ------ - ------- --- ----------<br>------------- ------ ------ ---- ---- ------- ----- -- ----<br>-------- partner -- ---------- --- - --- ----- ----- ----<br>---- --- --- ----- --- ---- ---- ------- ----- ---- -------<br>--- --- -- ----- -- --- ---- -- --- ---- -- ------ ------<br>--- ----- -- ----,181112,181178,180705,180685,180722,181141,,19,partner
screen,html.Screen,2_1_0_1_20,2022-05-12T13:50:30.001Z,,,,,,,,,,,,,,,,,53,,,,,,,,,,,,,,502,,response,,,,99,,,,,,,Space,keypress(Space),,,,,,,,---- -- ----- -- ------ - ------- --- ----------<br>------------- ------ ------ ---- ---- ------- ----- -- ----<br>-------- ------- is ---------- --- - --- ----- ----- ----<br>---- --- --- ----- --- ---- ---- ------- ----- ---- -------<br>--- --- -- ----- -- --- ---- -- --- ---- -- ------ ------<br>--- ----- -- ----,181562,181627,181125,181113,181141,181594,,20,is
screen,html.Screen,2_1_0_1_21,2022-05-12T13:50:30.450Z,,,,,,,,,,,,,,,,,53,,,,,,,,,,,,,,497,,response,,,,99,,,,,,,Space,keypress(Space),,,,,,,,---- -- ----- -- ------ - ------- --- ----------<br>------------- ------ ------ ---- ---- ------- ----- -- ----<br>-------- ------- -- paramount. --- - --- ----- ----- ----<br>---- --- --- ----- --- ---- ---- ------- ----- ---- -------<br>--- --- -- ----- -- --- ---- -- --- ---- -- ------ ------<br>--- ----- -- ----,182011,182076,181579,181562,181594,182048,,21,paramount.
screen,html.Screen,2_1_0_1_22,2022-05-12T13:50:30.889Z,,,,,,,,,,,,,,,,,53,,,,,,,,,,,,,,483.0000000000291,,response,,,,99,,,,,,,Space,keypress(Space),,,,,,,,---- -- ----- -- ------ - ------- --- ----------<br>------------- ------ ------ ---- ---- ------- ----- -- ----<br>-------- ------- -- ---------- But - --- ----- ----- ----<br>---- --- --- ----- --- ---- ---- ------- ----- ---- -------<br>--- --- -- ----- -- --- ---- -- --- ---- -- ------ ------<br>--- ----- -- ----,182450.00000000003,182515.00000000003,182032,182012,182048,182485,,22,But
screen,html.Screen,2_1_0_1_23,2022-05-12T13:50:31.338Z,,,,,,,,,,,,,,,,,53,,,,,,,,,,,,,,497,,response,,,,99,,,,,,,Space,keypress(Space),,,,,,,,---- -- ----- -- ------ - ------- --- ----------<br>------------- ------ ------ ---- ---- ------- ----- -- ----<br>-------- ------- -- ---------- --- a --- ----- ----- ----<br>---- --- --- ----- --- ---- ---- ------- ----- ---- -------<br>--- --- -- ----- -- --- ---- -- --- ---- -- ------ ------<br>--- ----- -- ----,182899,182965,182468,182450.00000000003,182485,182938,,23,a
screen,html.Screen,2_1_0_1_24,2022-05-12T13:50:31.729Z,,,,,,,,,,,,,,,,,53,,,,,,,,,,,,,,433,,response,,,,99,,,,,,,Space,keypress(Space),,,,,,,,---- -- ----- -- ------ - ------- --- ----------<br>------------- ------ ------ ---- ---- ------- ----- -- ----<br>-------- ------- -- ---------- --- - new ----- ----- ----<br>---- --- --- ----- --- ---- ---- ------- ----- ---- -------<br>--- --- -- ----- -- --- ---- -- --- ---- -- ------ ------<br>--- ----- -- ----,183290,183355,182922,182899,182938,183325,,24,new
screen,html.Screen,2_1_0_1_25,2022-05-12T13:50:32.137Z,,,,,,,,,,,,,,,,,53,,,,,,,,,,,,,,455,,response,,,,99,,,,,,,Space,keypress(Space),,,,,,,,---- -- ----- -- ------ - ------- --- ----------<br>------------- ------ ------ ---- ---- ------- ----- -- ----<br>-------- ------- -- ---------- --- - --- study ----- ----<br>---- --- --- ----- --- ---- ---- ------- ----- ---- -------<br>--- --- -- ----- -- --- ---- -- --- ---- -- ------ ------<br>--- ----- -- ----,183698,183763,183308,183290,183325,183727,,25,study
screen,html.Screen,2_1_0_1_26,2022-05-12T13:50:32.524Z,,,,,,,,,,,,,,,,,53,,,,,,,,,,,,,,440,,response,,,,99,,,,,,,Space,keypress(Space),,,,,,,,---- -- ----- -- ------ - ------- --- ----------<br>------------- ------ ------ ---- ---- ------- ----- -- ----<br>-------- ------- -- ---------- --- - --- ----- finds ----<br>---- --- --- ----- --- ---- ---- ------- ----- ---- -------<br>--- --- -- ----- -- --- ---- -- --- ---- -- ------ ------<br>--- ----- -- ----,184085,184151,183711,183698,183727,184114,,26,finds
screen,html.Screen,2_1_0_1_27,2022-05-12T13:50:32.953Z,,,,,,,,,,,,,,,,,53,,,,,,,,,,,,,,481,,response,,,,99,,,,,,,Space,keypress(Space),,,,,,,,---- -- ----- -- ------ - ------- --- ----------<br>------------- ------ ------ ---- ---- ------- ----- -- ----<br>-------- ------- -- ---------- --- - --- ----- ----- that<br>---- --- --- ----- --- ---- ---- ------- ----- ---- -------<br>--- --- -- ----- -- --- ---- -- --- ---- -- ------ ------<br>--- ----- -- ----,184514,184579,184098,184085,184114,184551,,27,that
screen,html.Screen,2_1_0_1_28,2022-05-12T13:50:33.394Z,,,,,,,,,,,,,,,,,53,,,,,,,,,,,,,,486,,response,,,,99,,,,,,,Space,keypress(Space),,,,,,,,---- -- ----- -- ------ - ------- --- ----------<br>------------- ------ ------ ---- ---- ------- ----- -- ----<br>-------- ------- -- ---------- --- - --- ----- ----- ----<br>it's --- --- ----- --- ---- ---- ------- ----- ---- -------<br>--- --- -- ----- -- --- ---- -- --- ---- -- ------ ------<br>--- ----- -- ----,184955,185020,184534,184514,184551,184987,,28,it's
screen,html.Screen,2_1_0_1_29,2022-05-12T13:50:33.804Z,,,,,,,,,,,,,,,,,53,,,,,,,,,,,,,,459,,response,,,,99,,,,,,,Space,keypress(Space),,,,,,,,---- -- ----- -- ------ - ------- --- ----------<br>------------- ------ ------ ---- ---- ------- ----- -- ----<br>-------- ------- -- ---------- --- - --- ----- ----- ----<br>---- not --- ----- --- ---- ---- ------- ----- ---- -------<br>--- --- -- ----- -- --- ---- -- --- ---- -- ------ ------<br>--- ----- -- ----,185365,185430,184971,184955,184987,185408,,29,not
screen,html.Screen,2_1_0_1_30,2022-05-12T13:50:34.195Z,,,,,,,,,,,,,,,,,53,,,,,,,,,,,,,,430,,response,,,,99,,,,,,,Space,keypress(Space),,,,,,,,---- -- ----- -- ------ - ------- --- ----------<br>------------- ------ ------ ---- ---- ------- ----- -- ----<br>-------- ------- -- ---------- --- - --- ----- ----- ----<br>---- --- how ----- --- ---- ---- ------- ----- ---- -------<br>--- --- -- ----- -- --- ---- -- --- ---- -- ------ ------<br>--- ----- -- ----,185756,185821,185391,185365,185408,185778,,30,how
screen,html.Screen,2_1_0_1_31,2022-05-12T13:50:34.586Z,,,,,,,,,,,,,,,,,53,,,,,,,,,,,,,,452.0000000000291,,response,,,,99,,,,,,,Space,keypress(Space),,,,,,,,---- -- ----- -- ------ - ------- --- ----------<br>------------- ------ ------ ---- ---- ------- ----- -- ----<br>-------- ------- -- ---------- --- - --- ----- ----- ----<br>---- --- --- close --- ---- ---- ------- ----- ---- -------<br>--- --- -- ----- -- --- ---- -- --- ---- -- ------ ------<br>--- ----- -- ----,186147,186212.00000000003,185760,185756,185778,186181,,31,close
screen,html.Screen,2_1_0_1_32,2022-05-12T13:50:34.999Z,,,,,,,,,,,,,,,,,53,,,,,,,,,,,,,,461,,response,,,,99,,,,,,,Space,keypress(Space),,,,,,,,---- -- ----- -- ------ - ------- --- ----------<br>------------- ------ ------ ---- ---- ------- ----- -- ----<br>-------- ------- -- ---------- --- - --- ----- ----- ----<br>---- --- --- ----- you ---- ---- ------- ----- ---- -------<br>--- --- -- ----- -- --- ---- -- --- ---- -- ------ ------<br>--- ----- -- ----,186560,186625,186164,186147,186181,186600,,32,you
screen,html.Screen,2_1_0_1_33,2022-05-12T13:50:35.383Z,,,,,,,,,,,,,,,,,53,,,,,,,,,,,,,,425,,response,,,,99,,,,,,,Space,keypress(Space),,,,,,,,---- -- ----- -- ------ - ------- --- ----------<br>------------- ------ ------ ---- ---- ------- ----- -- ----<br>-------- ------- -- ---------- --- - --- ----- ----- ----<br>---- --- --- ----- --- feel ---- ------- ----- ---- -------<br>--- --- -- ----- -- --- ---- -- --- ---- -- ------ ------<br>--- ----- -- ----,186944.00000000003,187009,186584,186560,186600,186970,,33,feel
screen,html.Screen,2_1_0_1_34,2022-05-12T13:50:35.746Z,,,,,,,,,,,,,,,,,53,,,,,,,,,,,,,,419,,response,,,,99,,,,,,,Space,keypress(Space),,,,,,,,---- -- ----- -- ------ - ------- --- ----------<br>------------- ------ ------ ---- ---- ------- ----- -- ----<br>-------- ------- -- ---------- --- - --- ----- ----- ----<br>---- --- --- ----- --- ---- that ------- ----- ---- -------<br>--- --- -- ----- -- --- ---- -- --- ---- -- ------ ------<br>--- ----- -- ----,187307.00000000003,187373,186954,186944.00000000003,186970,187341,,34,that
screen,html.Screen,2_1_0_1_35,2022-05-12T13:50:36.173Z,,,,,,,,,,,,,,,,,53,,,,,,,,,,,,,,475,,response,,,,99,,,,,,,Space,keypress(Space),,,,,,,,---- -- ----- -- ------ - ------- --- ----------<br>------------- ------ ------ ---- ---- ------- ----- -- ----<br>-------- ------- -- ---------- --- - --- ----- ----- ----<br>---- --- --- ----- --- ---- ---- matters ----- ---- -------<br>--- --- -- ----- -- --- ---- -- --- ---- -- ------ ------<br>--- ----- -- ----,187734,187799,187324,187307.00000000003,187341,187776,,35,matters
screen,html.Screen,2_1_0_1_36,2022-05-12T13:50:36.566Z,,,,,,,,,,,,,,,,,53,,,,,,,,,,,,,,433,,response,,,,99,,,,,,,Space,keypress(Space),,,,,,,,"---- -- ----- -- ------ - ------- --- ----------<br>------------- ------ ------ ---- ---- ------- ----- -- ----<br>-------- ------- -- ---------- --- - --- ----- ----- ----<br>---- --- --- ----- --- ---- ---- ------- most, ---- -------<br>--- --- -- ----- -- --- ---- -- --- ---- -- ------ ------<br>--- ----- -- ----",188127,188192,187759,187734,187776,188146,,36,"most,"
screen,html.Screen,2_1_0_1_37,2022-05-12T13:50:36.954Z,,,,,,,,,,,,,,,,,53,,,,,,,,,,,,,,451,,response,,,,99,,,,,,,Space,keypress(Space),,,,,,,,---- -- ----- -- ------ - ------- --- ----------<br>------------- ------ ------ ---- ---- ------- ----- -- ----<br>-------- ------- -- ---------- --- - --- ----- ----- ----<br>---- --- --- ----- --- ---- ---- ------- ----- it's -------<br>--- --- -- ----- -- --- ---- -- --- ---- -- ------ ------<br>--- ----- -- ----,188515.00000000003,188580,188129,188127,188146,188533,,37,it's
screen,html.Screen,2_1_0_1_38,2022-05-12T13:50:37.392Z,,,,,,,,,,,,,,,,,53,,,,,,,,,,,,,,502,,response,,,,99,,,,,,,Space,keypress(Space),,,,,,,,---- -- ----- -- ------ - ------- --- ----------<br>------------- ------ ------ ---- ---- ------- ----- -- ----<br>-------- ------- -- ---------- --- - --- ----- ----- ----<br>---- --- --- ----- --- ---- ---- ------- ----- ---- whether<br>--- --- -- ----- -- --- ---- -- --- ---- -- ------ ------<br>--- ----- -- ----,188952,189018,188516,188515.00000000003,188533,188987,,38,whether
screen,html.Screen,2_1_0_1_39,2022-05-12T13:50:37.838Z,,,,,,,,,,,,,,,,,53,,,,,,,,,,,,,,494,,response,,,,99,,,,,,,Space,keypress(Space),,,,,,,,---- -- ----- -- ------ - ------- --- ----------<br>------------- ------ ------ ---- ---- ------- ----- -- ----<br>-------- ------- -- ---------- --- - --- ----- ----- ----<br>---- --- --- ----- --- ---- ---- ------- ----- ---- -------<br>you --- -- ----- -- --- ---- -- --- ---- -- ------ ------<br>--- ----- -- ----,189399,189464,188970,188953,188987,189439,,39,you
screen,html.Screen,2_1_0_1_40,2022-05-12T13:50:38.250Z,,,,,,,,,,,,,,,,,53,,,,,,,,,,,,,,454,,response,,,,99,,,,,,,Space,keypress(Space),,,,,,,,---- -- ----- -- ------ - ------- --- ----------<br>------------- ------ ------ ---- ---- ------- ----- -- ----<br>-------- ------- -- ---------- --- - --- ----- ----- ----<br>---- --- --- ----- --- ---- ---- ------- ----- ---- -------<br>--- are -- ----- -- --- ---- -- --- ---- -- ------ ------<br>--- ----- -- ----,189811,189877,189423,189399,189439,189842,,40,are
screen,html.Screen,2_1_0_1_41,2022-05-12T13:50:38.667Z,,,,,,,,,,,,,,,,,53,,,,,,,,,,,,,,467,,response,,,,99,,,,,,,Space,keypress(Space),,,,,,,,---- -- ----- -- ------ - ------- --- ----------<br>------------- ------ ------ ---- ---- ------- ----- -- ----<br>-------- ------- -- ---------- --- - --- ----- ----- ----<br>---- --- --- ----- --- ---- ---- ------- ----- ---- -------<br>--- --- as ----- -- --- ---- -- --- ---- -- ------ ------<br>--- ----- -- ----,190228,190293,189826,189811,189842,190263,,41,as
screen,html.Screen,2_1_0_1_42,2022-05-12T13:50:39.039Z,,,,,,,,,,,,,,,,,53,,,,,,,,,,,,,,421,,response,,,,99,,,,,,,Space,keypress(Space),,,,,,,,---- -- ----- -- ------ - ------- --- ----------<br>------------- ------ ------ ---- ---- ------- ----- -- ----<br>-------- ------- -- ---------- --- - --- ----- ----- ----<br>---- --- --- ----- --- ---- ---- ------- ----- ---- -------<br>--- --- -- close -- --- ---- -- --- ---- -- ------ ------<br>--- ----- -- ----,190600,190666,190245,190228,190263,190632,,42,close
screen,html.Screen,2_1_0_1_43,2022-05-12T13:50:39.420Z,,,,,,,,,,,,,,,,,53,,,,,,,,,,,,,,430,,response,,,,99,,,,,,,Space,keypress(Space),,,,,,,,---- -- ----- -- ------ - ------- --- ----------<br>------------- ------ ------ ---- ---- ------- ----- -- ----<br>-------- ------- -- ---------- --- - --- ----- ----- ----<br>---- --- --- ----- --- ---- ---- ------- ----- ---- -------<br>--- --- -- ----- as --- ---- -- --- ---- -- ------ ------<br>--- ----- -- ----,190981,191046,190616,190600,190632,191002,,43,as
screen,html.Screen,2_1_0_1_44,2022-05-12T13:50:39.794Z,,,,,,,,,,,,,,,,,53,,,,,,,,,,,,,,435.0000000000291,,response,,,,99,,,,,,,Space,keypress(Space),,,,,,,,---- -- ----- -- ------ - ------- --- ----------<br>------------- ------ ------ ---- ---- ------- ----- -- ----<br>-------- ------- -- ---------- --- - --- ----- ----- ----<br>---- --- --- ----- --- ---- ---- ------- ----- ---- -------<br>--- --- -- ----- -- you ---- -- --- ---- -- ------ ------<br>--- ----- -- ----,191355.00000000003,191420.00000000003,190985,190981,191002,191389,,44,you
screen,html.Screen,2_1_0_1_45,2022-05-12T13:50:40.194Z,,,,,,,,,,,,,,,,,53,,,,,,,,,,,,,,447,,response,,,,99,,,,,,,Space,keypress(Space),,,,,,,,---- -- ----- -- ------ - ------- --- ----------<br>------------- ------ ------ ---- ---- ------- ----- -- ----<br>-------- ------- -- ---------- --- - --- ----- ----- ----<br>---- --- --- ----- --- ---- ---- ------- ----- ---- -------<br>--- --- -- ----- -- --- want -- --- ---- -- ------ ------<br>--- ----- -- ----,191755,191820,191373,191355.00000000003,191389,191775,,45,want
screen,html.Screen,2_1_0_1_46,2022-05-12T13:50:40.604Z,,,,,,,,,,,,,,,,,53,,,,,,,,,,,,,,471.0000000000291,,response,,,,99,,,,,,,Space,keypress(Space),,,,,,,,---- -- ----- -- ------ - ------- --- ----------<br>------------- ------ ------ ---- ---- ------- ----- -- ----<br>-------- ------- -- ---------- --- - --- ----- ----- ----<br>---- --- --- ----- --- ---- ---- ------- ----- ---- -------<br>--- --- -- ----- -- --- ---- to --- ---- -- ------ ------<br>--- ----- -- ----,192165,192230.00000000003,191759,191755,191775,192194,,46,to
screen,html.Screen,2_1_0_1_47,2022-05-12T13:50:40.967Z,,,,,,,,,,,,,,,,,53,,,,,,,,,,,,,,416,,response,,,,99,,,,,,,Space,keypress(Space),,,,,,,,"---- -- ----- -- ------ - ------- --- ----------<br>------------- ------ ------ ---- ---- ------- ----- -- ----<br>-------- ------- -- ---------- --- - --- ----- ----- ----<br>---- --- --- ----- --- ---- ---- ------- ----- ---- -------<br>--- --- -- ----- -- --- ---- -- be, ---- -- ------ ------<br>--- ----- -- ----",192528,192594,192178,192165,192194,192548,,47,"be,"
screen,html.Screen,2_1_0_1_48,2022-05-12T13:50:41.314Z,,,,,,,,,,,,,,,,,53,,,,,,,,,,,,,,409,,response,,,,99,,,,,,,Space,keypress(Space),,,,,,,,---- -- ----- -- ------ - ------- --- ----------<br>------------- ------ ------ ---- ---- ------- ----- -- ----<br>-------- ------- -- ---------- --- - --- ----- ----- ----<br>---- --- --- ----- --- ---- ---- ------- ----- ---- -------<br>--- --- -- ----- -- --- ---- -- --- even -- ------ ------<br>--- ----- -- ----,192875,192940,192531,192529,192548,192901,,48,even
screen,html.Screen,2_1_0_1_49,2022-05-12T13:50:41.697Z,,,,,,,,,,,,,,,,,53,,,,,,,,,,,,,,439,,response,,,,99,,,,,,,Space,keypress(Space),,,,,,,,---- -- ----- -- ------ - ------- --- ----------<br>------------- ------ ------ ---- ---- ------- ----- -- ----<br>-------- ------- -- ---------- --- - --- ----- ----- ----<br>---- --- --- ----- --- ---- ---- ------- ----- ---- -------<br>--- --- -- ----- -- --- ---- -- --- ---- if ------ ------<br>--- ----- -- ----,193258,193324,192885,192875,192901,193288,,49,if
screen,html.Screen,2_1_0_1_50,2022-05-12T13:50:42.090Z,,,,,,,,,,,,,,,,,53,,,,,,,,,,,,,,444,,response,,,,99,,,,,,,Space,keypress(Space),,,,,,,,---- -- ----- -- ------ - ------- --- ----------<br>------------- ------ ------ ---- ---- ------- ----- -- ----<br>-------- ------- -- ---------- --- - --- ----- ----- ----<br>---- --- --- ----- --- ---- ---- ------- ----- ---- -------<br>--- --- -- ----- -- --- ---- -- --- ---- -- that's ------<br>--- ----- -- ----,193651,193716,193272,193258,193288,193675,,50,that's
screen,html.Screen,2_1_0_1_51,2022-05-12T13:50:42.533Z,,,,,,,,,,,,,,,,,53,,,,,,,,,,,,,,502,,response,,,,99,,,,,,,Space,keypress(Space),,,,,,,,---- -- ----- -- ------ - ------- --- ----------<br>------------- ------ ------ ---- ---- ------- ----- -- ----<br>-------- ------- -- ---------- --- - --- ----- ----- ----<br>---- --- --- ----- --- ---- ---- ------- ----- ---- -------<br>--- --- -- ----- -- --- ---- -- --- ---- -- ------ really<br>--- ----- -- ----,194094,194160,193658,193651,193675,194128,,51,really
screen,html.Screen,2_1_0_1_52,2022-05-12T13:50:42.969Z,,,,,,,,,,,,,,,,,53,,,,,,,,,,,,,,484,,response,,,,99,,,,,,,Space,keypress(Space),,,,,,,,---- -- ----- -- ------ - ------- --- ----------<br>------------- ------ ------ ---- ---- ------- ----- -- ----<br>-------- ------- -- ---------- --- - --- ----- ----- ----<br>---- --- --- ----- --- ---- ---- ------- ----- ---- -------<br>--- --- -- ----- -- --- ---- -- --- ---- -- ------ ------<br>not ----- -- ----,194530,194595,194111,194094,194128,194564,,52,not
screen,html.Screen,2_1_0_1_53,2022-05-12T13:50:43.348Z,,,,,,,,,,,,,,,,,53,,,,,,,,,,,,,,428,,response,,,,99,,,,,,,Space,keypress(Space),,,,,,,,---- -- ----- -- ------ - ------- --- ----------<br>------------- ------ ------ ---- ---- ------- ----- -- ----<br>-------- ------- -- ---------- --- - --- ----- ----- ----<br>---- --- --- ----- --- ---- ---- ------- ----- ---- -------<br>--- --- -- ----- -- --- ---- -- --- ---- -- ------ ------<br>--- close -- ----,194909,194975,194547,194530,194564,194933,,53,close
screen,html.Screen,2_1_0_1_54,2022-05-12T13:50:43.683Z,,,,,,,,,,,,,,,,,53,,,,,,,,,,,,,,392,,response,,,,99,,,,,,,Space,keypress(Space),,,,,,,,---- -- ----- -- ------ - ------- --- ----------<br>------------- ------ ------ ---- ---- ------- ----- -- ----<br>-------- ------- -- ---------- --- - --- ----- ----- ----<br>---- --- --- ----- --- ---- ---- ------- ----- ---- -------<br>--- --- -- ----- -- --- ---- -- --- ---- -- ------ ------<br>--- ----- at ----,195244,195309,194917,194909,194933,195269,,54,at
screen,html.Screen,2_1_0_1_55,2022-05-12T13:50:44.101Z,,,,,,,,,,,,,,,,,53,,,,,,,,,,,,,,475,,response,,,,99,,,,,,,Space,keypress(Space),,,,,,,,---- -- ----- -- ------ - ------- --- ----------<br>------------- ------ ------ ---- ---- ------- ----- -- ----<br>-------- ------- -- ---------- --- - --- ----- ----- ----<br>---- --- --- ----- --- ---- ---- ------- ----- ---- -------<br>--- --- -- ----- -- --- ---- -- --- ---- -- ------ ------<br>--- ----- -- all.,195662,195727,195252,195244,195269,195690,,55,all.
Item 99,flow.Loop,2_1_0_1,2022-05-12T13:50:44.101Z,,,,,,,,,,,,,,,,,,,,,,,,,,,,,,,27872,,completion,,,,,D,,,,,,,,,,,silence,,,,,195662,195727,167834,167835,167855,195690,,,
Question 1,html.Screen,2_1_0_2,2022-05-12T13:50:49.503Z,,,,,,,,,,,,,,,,,,,,,,,,,,,,true,FALSE,,5459,,response,,,,99,D,,,,,,FALSE,click #choice-2,,,,silence,,,,,201064,201131,195672,195662,195690,201097,,,
Question 2,html.Screen,2_1_0_3,2022-05-12T13:50:53.569Z,,,,,,,,,,,,,,,,,,,,,,,,,,,,true,TRUE,,4117,,response,,,,99,D,,,,,,TRUE,click #choice-1,,,,silence,,,,,205130,205197,201080,201064,201097,205163,,,
Item 99,flow.Sequence,2_1_0,2022-05-12T13:50:53.569Z,,,,,,,,,,,,,,,,,,,,,,,,,,,,,,,47347,,completion,,,,,,,,,,,,,,,,,,,,,205130,205197,157829,157817,157850,205163,,,
Holding screen,html.Screen,2_1_1_0,2022-05-12T13:51:03.579Z,,,,,,,,,,,,,,,,,,,,,,,,,,,,,,,9994,,timeout,,,,,,,,,,,,,,,,,,,,,215141,215140,205136,205130,205163,215157,,,
screen,html.Screen,2_1_1_1_0,2022-05-12T13:51:04.602Z,,,,,,,,,,,,,,,,,54,,,,,,,,,,,,,,1089,,response,,,,100,,,,,,,Space,keypress(Space),,,,,,,,At --- ---- --- ------ ----- ------- ---- -- --- ------- --<br>------- ---------- ------ -- ----- -- ----- -- ---- ------<br>--- ----- --- --- ------ -------- ----- --- ------ ----- --<br>----- ----- ---------- --- --- ------ ------ ---- -- ------<br>------- --- ------ ----- --- ---- ------- -- ---- --- --<br>------- ------,216164.00000000003,216229,215140,215141,215157,216193,,0,At
screen,html.Screen,2_1_1_1_1,2022-05-12T13:51:05.062Z,,,,,,,,,,,,,,,,,54,,,,,,,,,,,,,,513,,response,,,,100,,,,,,,Space,keypress(Space),,,,,,,,-- the ---- --- ------ ----- ------- ---- -- --- ------- --<br>------- ---------- ------ -- ----- -- ----- -- ---- ------<br>--- ----- --- --- ------ -------- ----- --- ------ ----- --<br>----- ----- ---------- --- --- ------ ------ ---- -- ------<br>------- --- ------ ----- --- ---- ------- -- ---- --- --<br>------- ------,216624,216689,216176,216164.00000000003,216193,216661,,1,the
screen,html.Screen,2_1_1_1_2,2022-05-12T13:51:05.470Z,,,,,,,,,,,,,,,,,54,,,,,,,,,,,,,,452,,response,,,,100,,,,,,,Space,keypress(Space),,,,,,,,-- --- time --- ------ ----- ------- ---- -- --- ------- --<br>------- ---------- ------ -- ----- -- ----- -- ---- ------<br>--- ----- --- --- ------ -------- ----- --- ------ ----- --<br>----- ----- ---------- --- --- ------ ------ ---- -- ------<br>------- --- ------ ----- --- ---- ------- -- ---- --- --<br>------- ------,217032,217097,216645,216624,216661,217065,,2,time
screen,html.Screen,2_1_1_1_3,2022-05-12T13:51:05.853Z,,,,,,,,,,,,,,,,,54,,,,,,,,,,,,,,431.0000000000291,,response,,,,100,,,,,,,Space,keypress(Space),,,,,,,,-- --- ---- the ------ ----- ------- ---- -- --- ------- --<br>------- ---------- ------ -- ----- -- ----- -- ---- ------<br>--- ----- --- --- ------ -------- ----- --- ------ ----- --<br>----- ----- ---------- --- --- ------ ------ ---- -- ------<br>------- --- ------ ----- --- ---- ------- -- ---- --- --<br>------- ------,217414.00000000003,217480.00000000003,217049,217032,217065,217436,,3,the
screen,html.Screen,2_1_1_1_4,2022-05-12T13:51:06.255Z,,,,,,,,,,,,,,,,,54,,,,,,,,,,,,,,464,,response,,,,100,,,,,,,Space,keypress(Space),,,,,,,,-- --- ---- --- French ----- ------- ---- -- --- ------- --<br>------- ---------- ------ -- ----- -- ----- -- ---- ------<br>--- ----- --- --- ------ -------- ----- --- ------ ----- --<br>----- ----- ---------- --- --- ------ ------ ---- -- ------<br>------- --- ------ ----- --- ---- ------- -- ---- --- --<br>------- ------,217817,217882,217418,217415,217436,217856,,4,French
screen,html.Screen,2_1_1_1_5,2022-05-12T13:51:06.650Z,,,,,,,,,,,,,,,,,54,,,,,,,,,,,,,,438.0000000000291,,response,,,,100,,,,,,,Space,keypress(Space),,,,,,,,-- --- ---- --- ------ crown ------- ---- -- --- ------- --<br>------- ---------- ------ -- ----- -- ----- -- ---- ------<br>--- ----- --- --- ------ -------- ----- --- ------ ----- --<br>----- ----- ---------- --- --- ------ ------ ---- -- ------<br>------- --- ------ ----- --- ---- ------- -- ---- --- --<br>------- ------,218211,218277.00000000003,217839,217817,217856,218241,,5,crown
screen,html.Screen,2_1_1_1_6,2022-05-12T13:51:07.048Z,,,,,,,,,,,,,,,,,54,,,,,,,,,,,,,,450,,response,,,,100,,,,,,,Space,keypress(Space),,,,,,,,-- --- ---- --- ------ ----- secured ---- -- --- ------- --<br>------- ---------- ------ -- ----- -- ----- -- ---- ------<br>--- ----- --- --- ------ -------- ----- --- ------ ----- --<br>----- ----- ---------- --- --- ------ ------ ---- -- ------<br>------- --- ------ ----- --- ---- ------- -- ---- --- --<br>------- ------,218609,218675,218225,218211,218241,218628,,6,secured
screen,html.Screen,2_1_1_1_7,2022-05-12T13:51:07.457Z,,,,,,,,,,,,,,,,,54,,,,,,,,,,,,,,472,,response,,,,100,,,,,,,Space,keypress(Space),,,,,,,,-- --- ---- --- ------ ----- ------- much -- --- ------- --<br>------- ---------- ------ -- ----- -- ----- -- ---- ------<br>--- ----- --- --- ------ -------- ----- --- ------ ----- --<br>----- ----- ---------- --- --- ------ ------ ---- -- ------<br>------- --- ------ ----- --- ---- ------- -- ---- --- --<br>------- ------,219018,219084,218612,218609,218628,219048,,7,much
screen,html.Screen,2_1_1_1_8,2022-05-12T13:51:07.843Z,,,,,,,,,,,,,,,,,54,,,,,,,,,,,,,,437,,response,,,,100,,,,,,,Space,keypress(Space),,,,,,,,-- --- ---- --- ------ ----- ------- ---- of --- ------- --<br>------- ---------- ------ -- ----- -- ----- -- ---- ------<br>--- ----- --- --- ------ -------- ----- --- ------ ----- --<br>----- ----- ---------- --- --- ------ ------ ---- -- ------<br>------- --- ------ ----- --- ---- ------- -- ---- --- --<br>------- ------,219404,219469,219032,219019,219048,219435,,8,of
screen,html.Screen,2_1_1_1_9,2022-05-12T13:51:08.294Z,,,,,,,,,,,,,,,,,54,,,,,,,,,,,,,,503.0000000000291,,response,,,,100,,,,,,,Space,keypress(Space),,,,,,,,-- --- ---- --- ------ ----- ------- ---- -- its ------- --<br>------- ---------- ------ -- ----- -- ----- -- ---- ------<br>--- ----- --- --- ------ -------- ----- --- ------ ----- --<br>----- ----- ---------- --- --- ------ ------ ---- -- ------<br>------- --- ------ ----- --- ---- ------- -- ---- --- --<br>------- ------,219855.00000000003,219920.00000000003,219417,219404,219435,219887,,9,its
screen,html.Screen,2_1_1_1_10,2022-05-12T13:51:08.697Z,,,,,,,,,,,,,,,,,54,,,,,,,,,,,,,,452,,response,,,,100,,,,,,,Space,keypress(Space),,,,,,,,-- --- ---- --- ------ ----- ------- ---- -- --- revenue --<br>------- ---------- ------ -- ----- -- ----- -- ---- ------<br>--- ----- --- --- ------ -------- ----- --- ------ ----- --<br>----- ----- ---------- --- --- ------ ------ ---- -- ------<br>------- --- ------ ----- --- ---- ------- -- ---- --- --<br>------- ------,220258,220324,219872,219855.00000000003,219887,220290,,10,revenue
screen,html.Screen,2_1_1_1_11,2022-05-12T13:51:09.121Z,,,,,,,,,,,,,,,,,54,,,,,,,,,,,,,,473,,response,,,,100,,,,,,,Space,keypress(Space),,,,,,,,-- --- ---- --- ------ ----- ------- ---- -- --- ------- by<br>------- ---------- ------ -- ----- -- ----- -- ---- ------<br>--- ----- --- --- ------ -------- ----- --- ------ ----- --<br>----- ----- ---------- --- --- ------ ------ ---- -- ------<br>------- --- ------ ----- --- ---- ------- -- ---- --- --<br>------- ------,220682.00000000003,220748,220275,220258,220290,220711,,11,by
screen,html.Screen,2_1_1_1_12,2022-05-12T13:51:09.560Z,,,,,,,,,,,,,,,,,54,,,,,,,,,,,,,,492,,response,,,,100,,,,,,,Space,keypress(Space),,,,,,,,-- --- ---- --- ------ ----- ------- ---- -- --- ------- --<br>issuing ---------- ------ -- ----- -- ----- -- ---- ------<br>--- ----- --- --- ------ -------- ----- --- ------ ----- --<br>----- ----- ---------- --- --- ------ ------ ---- -- ------<br>------- --- ------ ----- --- ---- ------- -- ---- --- --<br>------- ------,221121,221187,220695,220682.00000000003,220711,221165,,12,issuing
screen,html.Screen,2_1_1_1_13,2022-05-12T13:51:09.952Z,,,,,,,,,,,,,,,,,54,,,,,,,,,,,,,,431,,response,,,,100,,,,,,,Space,keypress(Space),,,,,,,,-- --- ---- --- ------ ----- ------- ---- -- --- ------- --<br>------- government ------ -- ----- -- ----- -- ---- ------<br>--- ----- --- --- ------ -------- ----- --- ------ ----- --<br>----- ----- ---------- --- --- ------ ------ ---- -- ------<br>------- --- ------ ----- --- ---- ------- -- ---- --- --<br>------- ------,221513,221579,221148,221121,221165,221535,,13,government
screen,html.Screen,2_1_1_1_14,2022-05-12T13:51:10.308Z,,,,,,,,,,,,,,,,,54,,,,,,,,,,,,,,418,,response,,,,100,,,,,,,Space,keypress(Space),,,,,,,,-- --- ---- --- ------ ----- ------- ---- -- --- ------- --<br>------- ---------- bonds. -- ----- -- ----- -- ---- ------<br>--- ----- --- --- ------ -------- ----- --- ------ ----- --<br>----- ----- ---------- --- --- ------ ------ ---- -- ------<br>------- --- ------ ----- --- ---- ------- -- ---- --- --<br>------- ------,221869,221935,221517,221513,221535,221888,,14,bonds.
screen,html.Screen,2_1_1_1_15,2022-05-12T13:51:10.749Z,,,,,,,,,,,,,,,,,54,,,,,,,,,,,,,,506,,response,,,,100,,,,,,,Space,keypress(Space),,,,,,,,-- --- ---- --- ------ ----- ------- ---- -- --- ------- --<br>------- ---------- ------ In ----- -- ----- -- ---- ------<br>--- ----- --- --- ------ -------- ----- --- ------ ----- --<br>----- ----- ---------- --- --- ------ ------ ---- -- ------<br>------- --- ------ ----- --- ---- ------- -- ---- --- --<br>------- ------,222310,222376,221870,221869,221888,222340,,15,In
screen,html.Screen,2_1_1_1_16,2022-05-12T13:51:11.076Z,,,,,,,,,,,,,,,,,54,,,,,,,,,,,,,,379,,response,,,,100,,,,,,,Space,keypress(Space),,,,,,,,"-- --- ---- --- ------ ----- ------- ---- -- --- ------- --<br>------- ---------- ------ -- 1727, -- ----- -- ---- ------<br>--- ----- --- --- ------ -------- ----- --- ------ ----- --<br>----- ----- ---------- --- --- ------ ------ ---- -- ------<br>------- --- ------ ----- --- ---- ------- -- ---- --- --<br>------- ------",222637,222703,222324,222310,222340,222660,,16,"1727,"
screen,html.Screen,2_1_1_1_17,2022-05-12T13:51:11.498Z,,,,,,,,,,,,,,,,,54,,,,,,,,,,,,,,481,,response,,,,100,,,,,,,Space,keypress(Space),,,,,,,,-- --- ---- --- ------ ----- ------- ---- -- --- ------- --<br>------- ---------- ------ -- ----- in ----- -- ---- ------<br>--- ----- --- --- ------ -------- ----- --- ------ ----- --<br>----- ----- ---------- --- --- ------ ------ ---- -- ------<br>------- --- ------ ----- --- ---- ------- -- ---- --- --<br>------- ------,223059,223125,222644,222637,222660,223097,,17,in
screen,html.Screen,2_1_1_1_18,2022-05-12T13:51:11.901Z,,,,,,,,,,,,,,,,,54,,,,,,,,,,,,,,448,,response,,,,100,,,,,,,Space,keypress(Space),,,,,,,,-- --- ---- --- ------ ----- ------- ---- -- --- ------- --<br>------- ---------- ------ -- ----- -- order -- ---- ------<br>--- ----- --- --- ------ -------- ----- --- ------ ----- --<br>----- ----- ---------- --- --- ------ ------ ---- -- ------<br>------- --- ------ ----- --- ---- ------- -- ---- --- --<br>------- ------,223462.00000000003,223528,223080,223059,223097,223482,,18,order
screen,html.Screen,2_1_1_1_19,2022-05-12T13:51:12.272Z,,,,,,,,,,,,,,,,,54,,,,,,,,,,,,,,432,,response,,,,100,,,,,,,Space,keypress(Space),,,,,,,,-- --- ---- --- ------ ----- ------- ---- -- --- ------- --<br>------- ---------- ------ -- ----- -- ----- to ---- ------<br>--- ----- --- --- ------ -------- ----- --- ------ ----- --<br>----- ----- ---------- --- --- ------ ------ ---- -- ------<br>------- --- ------ ----- --- ---- ------- -- ---- --- --<br>------- ------,223833,223899,223467,223462.00000000003,223482,223853,,19,to
screen,html.Screen,2_1_1_1_20,2022-05-12T13:51:12.674Z,,,,,,,,,,,,,,,,,54,,,,,,,,,,,,,,464.0000000000291,,response,,,,100,,,,,,,Space,keypress(Space),,,,,,,,-- --- ---- --- ------ ----- ------- ---- -- --- ------- --<br>------- ---------- ------ -- ----- -- ----- -- save ------<br>--- ----- --- --- ------ -------- ----- --- ------ ----- --<br>----- ----- ---------- --- --- ------ ------ ---- -- ------<br>------- --- ------ ----- --- ---- ------- -- ---- --- --<br>------- ------,224236.00000000003,224301.00000000003,223837,223833,223853,224272,,20,save
screen,html.Screen,2_1_1_1_21,2022-05-12T13:51:13.090Z,,,,,,,,,,,,,,,,,54,,,,,,,,,,,,,,461,,response,,,,100,,,,,,,Space,keypress(Space),,,,,,,,"-- --- ---- --- ------ ----- ------- ---- -- --- ------- --<br>------- ---------- ------ -- ----- -- ----- -- ---- money,<br>--- ----- --- --- ------ -------- ----- --- ------ ----- --<br>----- ----- ---------- --- --- ------ ------ ---- -- ------<br>------- --- ------ ----- --- ---- ------- -- ---- --- --<br>------- ------",224651,224717,224256,224236.00000000003,224272,224692,,21,"money,"
screen,html.Screen,2_1_1_1_22,2022-05-12T13:51:13.483Z,,,,,,,,,,,,,,,,,54,,,,,,,,,,,,,,434,,response,,,,100,,,,,,,Space,keypress(Space),,,,,,,,-- --- ---- --- ------ ----- ------- ---- -- --- ------- --<br>------- ---------- ------ -- ----- -- ----- -- ---- ------<br>the ----- --- --- ------ -------- ----- --- ------ ----- --<br>----- ----- ---------- --- --- ------ ------ ---- -- ------<br>------- --- ------ ----- --- ---- ------- -- ---- --- --<br>------- ------,225044,225110,224676,224651,224692,225079,,22,the
screen,html.Screen,2_1_1_1_23,2022-05-12T13:51:13.834Z,,,,,,,,,,,,,,,,,54,,,,,,,,,,,,,,400,,response,,,,100,,,,,,,Space,keypress(Space),,,,,,,,-- --- ---- --- ------ ----- ------- ---- -- --- ------- --<br>------- ---------- ------ -- ----- -- ----- -- ---- ------<br>--- state --- --- ------ -------- ----- --- ------ ----- --<br>----- ----- ---------- --- --- ------ ------ ---- -- ------<br>------- --- ------ ----- --- ---- ------- -- ---- --- --<br>------- ------,225395,225461,225061,225044,225079,225416,,23,state
screen,html.Screen,2_1_1_1_24,2022-05-12T13:51:14.212Z,,,,,,,,,,,,,,,,,54,,,,,,,,,,,,,,441,,response,,,,100,,,,,,,Space,keypress(Space),,,,,,,,-- --- ---- --- ------ ----- ------- ---- -- --- ------- --<br>------- ---------- ------ -- ----- -- ----- -- ---- ------<br>--- ----- cut --- ------ -------- ----- --- ------ ----- --<br>----- ----- ---------- --- --- ------ ------ ---- -- ------<br>------- --- ------ ----- --- ---- ------- -- ---- --- --<br>------- ------,225774,225840,225399,225395,225416,225802,,24,cut
screen,html.Screen,2_1_1_1_25,2022-05-12T13:51:14.572Z,,,,,,,,,,,,,,,,,54,,,,,,,,,,,,,,415.0000000000291,,response,,,,100,,,,,,,Space,keypress(Space),,,,,,,,-- --- ---- --- ------ ----- ------- ---- -- --- ------- --<br>------- ---------- ------ -- ----- -- ----- -- ---- ------<br>--- ----- --- the ------ -------- ----- --- ------ ----- --<br>----- ----- ---------- --- --- ------ ------ ---- -- ------<br>------- --- ------ ----- --- ---- ------- -- ---- --- --<br>------- ------,226134,226200.00000000003,225785,225774,225802,226154,,25,the
screen,html.Screen,2_1_1_1_26,2022-05-12T13:51:14.970Z,,,,,,,,,,,,,,,,,54,,,,,,,,,,,,,,459,,response,,,,100,,,,,,,Space,keypress(Space),,,,,,,,-- --- ---- --- ------ ----- ------- ---- -- --- ------- --<br>------- ---------- ------ -- ----- -- ----- -- ---- ------<br>--- ----- --- --- bonds' -------- ----- --- ------ ----- --<br>----- ----- ---------- --- --- ------ ------ ---- -- ------<br>------- --- ------ ----- --- ---- ------- -- ---- --- --<br>------- ------,226531,226597,226138,226134,226154,226575,,26,bonds'
screen,html.Screen,2_1_1_1_27,2022-05-12T13:51:15.309Z,,,,,,,,,,,,,,,,,54,,,,,,,,,,,,,,380,,response,,,,100,,,,,,,Space,keypress(Space),,,,,,,,-- --- ---- --- ------ ----- ------- ---- -- --- ------- --<br>------- ---------- ------ -- ----- -- ----- -- ---- ------<br>--- ----- --- --- ------ interest ----- --- ------ ----- --<br>----- ----- ---------- --- --- ------ ------ ---- -- ------<br>------- --- ------ ----- --- ---- ------- -- ---- --- --<br>------- ------,226870,226937,226557,226531,226575,226895,,27,interest
screen,html.Screen,2_1_1_1_28,2022-05-12T13:51:15.736Z,,,,,,,,,,,,,,,,,54,,,,,,,,,,,,,,486,,response,,,,100,,,,,,,Space,keypress(Space),,,,,,,,-- --- ---- --- ------ ----- ------- ---- -- --- ------- --<br>------- ---------- ------ -- ----- -- ----- -- ---- ------<br>--- ----- --- --- ------ -------- rate. --- ------ ----- --<br>----- ----- ---------- --- --- ------ ------ ---- -- ------<br>------- --- ------ ----- --- ---- ------- -- ---- --- --<br>------- ------,227297,227363,226877,226871,226895,227330,,28,rate.
screen,html.Screen,2_1_1_1_29,2022-05-12T13:51:16.121Z,,,,,,,,,,,,,,,,,54,,,,,,,,,,,,,,434.0000000000291,,response,,,,100,,,,,,,Space,keypress(Space),,,,,,,,-- --- ---- --- ------ ----- ------- ---- -- --- ------- --<br>------- ---------- ------ -- ----- -- ----- -- ---- ------<br>--- ----- --- --- ------ -------- ----- The ------ ----- --<br>----- ----- ---------- --- --- ------ ------ ---- -- ------<br>------- --- ------ ----- --- ---- ------- -- ---- --- --<br>------- ------,227682.00000000003,227748.00000000003,227314,227297,227330,227701,,29,The
screen,html.Screen,2_1_1_1_30,2022-05-12T13:51:16.531Z,,,,,,,,,,,,,,,,,54,,,,,,,,,,,,,,475.0000000000291,,response,,,,100,,,,,,,Space,keypress(Space),,,,,,,,-- --- ---- --- ------ ----- ------- ---- -- --- ------- --<br>------- ---------- ------ -- ----- -- ----- -- ---- ------<br>--- ----- --- --- ------ -------- ----- --- market ----- --<br>----- ----- ---------- --- --- ------ ------ ---- -- ------<br>------- --- ------ ----- --- ---- ------- -- ---- --- --<br>------- ------,228093.00000000003,228158.00000000003,227683,227682.00000000003,227701,228120,,30,market
screen,html.Screen,2_1_1_1_31,2022-05-12T13:51:16.959Z,,,,,,,,,,,,,,,,,54,,,,,,,,,,,,,,482,,response,,,,100,,,,,,,Space,keypress(Space),,,,,,,,-- --- ---- --- ------ ----- ------- ---- -- --- ------- --<br>------- ---------- ------ -- ----- -- ----- -- ---- ------<br>--- ----- --- --- ------ -------- ----- --- ------ value --<br>----- ----- ---------- --- --- ------ ------ ---- -- ------<br>------- --- ------ ----- --- ---- ------- -- ---- --- --<br>------- ------,228520,228586,228104,228093.00000000003,228120,228557,,31,value
screen,html.Screen,2_1_1_1_32,2022-05-12T13:51:17.468Z,,,,,,,,,,,,,,,,,54,,,,,,,,,,,,,,555,,response,,,,100,,,,,,,Space,keypress(Space),,,,,,,,-- --- ---- --- ------ ----- ------- ---- -- --- ------- --<br>------- ---------- ------ -- ----- -- ----- -- ---- ------<br>--- ----- --- --- ------ -------- ----- --- ------ ----- of<br>----- ----- ---------- --- --- ------ ------ ---- -- ------<br>------- --- ------ ----- --- ---- ------- -- ---- --- --<br>------- ------,229030,229096,228541,228520,228557,229060,,32,of
screen,html.Screen,2_1_1_1_33,2022-05-12T13:51:17.831Z,,,,,,,,,,,,,,,,,54,,,,,,,,,,,,,,414,,response,,,,100,,,,,,,Space,keypress(Space),,,,,,,,-- --- ---- --- ------ ----- ------- ---- -- --- ------- --<br>------- ---------- ------ -- ----- -- ----- -- ---- ------<br>--- ----- --- --- ------ -------- ----- --- ------ ----- --<br>these ----- ---------- --- --- ------ ------ ---- -- ------<br>------- --- ------ ----- --- ---- ------- -- ---- --- --<br>------- ------,229392,229458,229044,229030,229060,229413,,33,these
screen,html.Screen,2_1_1_1_34,2022-05-12T13:51:18.404Z,,,,,,,,,,,,,,,,,54,,,,,,,,,,,,,,635,,response,,,,100,,,,,,,Space,keypress(Space),,,,,,,,-- --- ---- --- ------ ----- ------- ---- -- --- ------- --<br>------- ---------- ------ -- ----- -- ----- -- ---- ------<br>--- ----- --- --- ------ -------- ----- --- ------ ----- --<br>----- bonds ---------- --- --- ------ ------ ---- -- ------<br>------- --- ------ ----- --- ---- ------- -- ---- --- --<br>------- ------,229966,230032,229397,229392,229413,229999,,34,bonds
screen,html.Screen,2_1_1_1_35,2022-05-12T13:51:18.826Z,,,,,,,,,,,,,,,,,54,,,,,,,,,,,,,,469,,response,,,,100,,,,,,,Space,keypress(Space),,,,,,,,"-- --- ---- --- ------ ----- ------- ---- -- --- ------- --<br>------- ---------- ------ -- ----- -- ----- -- ---- ------<br>--- ----- --- --- ------ -------- ----- --- ------ ----- --<br>----- ----- plummeted, --- --- ------ ------ ---- -- ------<br>------- --- ------ ----- --- ---- ------- -- ---- --- --<br>------- ------",230387,230453,229984,229966,229999,230420,,35,"plummeted,"
screen,html.Screen,2_1_1_1_36,2022-05-12T13:51:19.217Z,,,,,,,,,,,,,,,,,54,,,,,,,,,,,,,,441,,response,,,,100,,,,,,,Space,keypress(Space),,,,,,,,-- --- ---- --- ------ ----- ------- ---- -- --- ------- --<br>------- ---------- ------ -- ----- -- ----- -- ---- ------<br>--- ----- --- --- ------ -------- ----- --- ------ ----- --<br>----- ----- ---------- and --- ------ ------ ---- -- ------<br>------- --- ------ ----- --- ---- ------- -- ---- --- --<br>------- ------,230778,230844,230403,230387,230420,230807,,36,and
screen,html.Screen,2_1_1_1_37,2022-05-12T13:51:19.599Z,,,,,,,,,,,,,,,,,54,,,,,,,,,,,,,,437,,response,,,,100,,,,,,,Space,keypress(Space),,,,,,,,-- --- ---- --- ------ ----- ------- ---- -- --- ------- --<br>------- ---------- ------ -- ----- -- ----- -- ---- ------<br>--- ----- --- --- ------ -------- ----- --- ------ ----- --<br>----- ----- ---------- --- the ------ ------ ---- -- ------<br>------- --- ------ ----- --- ---- ------- -- ---- --- --<br>------- ------,231160,231226,230789,230778,230807,231194,,37,the
screen,html.Screen,2_1_1_1_38,2022-05-12T13:51:19.986Z,,,,,,,,,,,,,,,,,54,,,,,,,,,,,,,,436,,response,,,,100,,,,,,,Space,keypress(Space),,,,,,,,-- --- ---- --- ------ ----- ------- ---- -- --- ------- --<br>------- ---------- ------ -- ----- -- ----- -- ---- ------<br>--- ----- --- --- ------ -------- ----- --- ------ ----- --<br>----- ----- ---------- --- --- market ------ ---- -- ------<br>------- --- ------ ----- --- ---- ------- -- ---- --- --<br>------- ------,231547,231613,231177,231160,231194,231580,,38,market
screen,html.Screen,2_1_1_1_39,2022-05-12T13:51:20.414Z,,,,,,,,,,,,,,,,,54,,,,,,,,,,,,,,478,,response,,,,100,,,,,,,Space,keypress(Space),,,,,,,,-- --- ---- --- ------ ----- ------- ---- -- --- ------- --<br>------- ---------- ------ -- ----- -- ----- -- ---- ------<br>--- ----- --- --- ------ -------- ----- --- ------ ----- --<br>----- ----- ---------- --- --- ------ became ---- -- ------<br>------- --- ------ ----- --- ---- ------- -- ---- --- --<br>------- ------,231975,232040,231562,231547,231580,232016,,39,became
screen,html.Screen,2_1_1_1_40,2022-05-12T13:51:20.837Z,,,,,,,,,,,,,,,,,54,,,,,,,,,,,,,,465,,response,,,,100,,,,,,,Space,keypress(Space),,,,,,,,-- --- ---- --- ------ ----- ------- ---- -- --- ------- --<br>------- ---------- ------ -- ----- -- ----- -- ---- ------<br>--- ----- --- --- ------ -------- ----- --- ------ ----- --<br>----- ----- ---------- --- --- ------ ------ wary -- ------<br>------- --- ------ ----- --- ---- ------- -- ---- --- --<br>------- ------,232398,232464,231999,231976,232016,232436,,40,wary
screen,html.Screen,2_1_1_1_41,2022-05-12T13:51:21.264Z,,,,,,,,,,,,,,,,,54,,,,,,,,,,,,,,473,,response,,,,100,,,,,,,Space,keypress(Space),,,,,,,,-- --- ---- --- ------ ----- ------- ---- -- --- ------- --<br>------- ---------- ------ -- ----- -- ----- -- ---- ------<br>--- ----- --- --- ------ -------- ----- --- ------ ----- --<br>----- ----- ---------- --- --- ------ ------ ---- of ------<br>------- --- ------ ----- --- ---- ------- -- ---- --- --<br>------- ------,232826,232892,232419,232398,232436,232856,,41,of
screen,html.Screen,2_1_1_1_42,2022-05-12T13:51:21.722Z,,,,,,,,,,,,,,,,,54,,,,,,,,,,,,,,510.0000000000291,,response,,,,100,,,,,,,Space,keypress(Space),,,,,,,,-- --- ---- --- ------ ----- ------- ---- -- --- ------- --<br>------- ---------- ------ -- ----- -- ----- -- ---- ------<br>--- ----- --- --- ------ -------- ----- --- ------ ----- --<br>----- ----- ---------- --- --- ------ ------ ---- -- French<br>------- --- ------ ----- --- ---- ------- -- ---- --- --<br>------- ------,233284,233349.00000000003,232839,232826,232856,233325,,42,French
screen,html.Screen,2_1_1_1_43,2022-05-12T13:51:22.125Z,,,,,,,,,,,,,,,,,54,,,,,,,,,,,,,,443,,response,,,,100,,,,,,,Space,keypress(Space),,,,,,,,-- --- ---- --- ------ ----- ------- ---- -- --- ------- --<br>------- ---------- ------ -- ----- -- ----- -- ---- ------<br>--- ----- --- --- ------ -------- ----- --- ------ ----- --<br>----- ----- ---------- --- --- ------ ------ ---- -- ------<br>credit. --- ------ ----- --- ---- ------- -- ---- --- --<br>------- ------,233687,233752,233309,233284,233325,233712,,43,credit.
screen,html.Screen,2_1_1_1_44,2022-05-12T13:51:22.524Z,,,,,,,,,,,,,,,,,54,,,,,,,,,,,,,,456.0000000000291,,response,,,,100,,,,,,,Space,keypress(Space),,,,,,,,-- --- ---- --- ------ ----- ------- ---- -- --- ------- --<br>------- ---------- ------ -- ----- -- ----- -- ---- ------<br>--- ----- --- --- ------ -------- ----- --- ------ ----- --<br>----- ----- ---------- --- --- ------ ------ ---- -- ------<br>------- The ------ ----- --- ---- ------- -- ---- --- --<br>------- ------,234085,234152.00000000003,233696,233687,233712,234115,,44,The
screen,html.Screen,2_1_1_1_45,2022-05-12T13:51:22.914Z,,,,,,,,,,,,,,,,,54,,,,,,,,,,,,,,442,,response,,,,100,,,,,,,Space,keypress(Space),,,,,,,,-- --- ---- --- ------ ----- ------- ---- -- --- ------- --<br>------- ---------- ------ -- ----- -- ----- -- ---- ------<br>--- ----- --- --- ------ -------- ----- --- ------ ----- --<br>----- ----- ---------- --- --- ------ ------ ---- -- ------<br>------- --- French ----- --- ---- ------- -- ---- --- --<br>------- ------,234476,234541,234099,234086,234115,234501,,45,French
screen,html.Screen,2_1_1_1_46,2022-05-12T13:51:23.297Z,,,,,,,,,,,,,,,,,54,,,,,,,,,,,,,,440,,response,,,,100,,,,,,,Space,keypress(Space),,,,,,,,-- --- ---- --- ------ ----- ------- ---- -- --- ------- --<br>------- ---------- ------ -- ----- -- ----- -- ---- ------<br>--- ----- --- --- ------ -------- ----- --- ------ ----- --<br>----- ----- ---------- --- --- ------ ------ ---- -- ------<br>------- --- ------ state --- ---- ------- -- ---- --- --<br>------- ------,234859,234925,234485,234476,234501,234888,,46,state
screen,html.Screen,2_1_1_1_47,2022-05-12T13:51:23.757Z,,,,,,,,,,,,,,,,,54,,,,,,,,,,,,,,512,,response,,,,100,,,,,,,Space,keypress(Space),,,,,,,,-- --- ---- --- ------ ----- ------- ---- -- --- ------- --<br>------- ---------- ------ -- ----- -- ----- -- ---- ------<br>--- ----- --- --- ------ -------- ----- --- ------ ----- --<br>----- ----- ---------- --- --- ------ ------ ---- -- ------<br>------- --- ------ ----- was ---- ------- -- ---- --- --<br>------- ------,235319.00000000003,235384,234872,234859,234888,235357,,47,was
screen,html.Screen,2_1_1_1_48,2022-05-12T13:51:24.188Z,,,,,,,,,,,,,,,,,54,,,,,,,,,,,,,,474,,response,,,,100,,,,,,,Space,keypress(Space),,,,,,,,-- --- ---- --- ------ ----- ------- ---- -- --- ------- --<br>------- ---------- ------ -- ----- -- ----- -- ---- ------<br>--- ----- --- --- ------ -------- ----- --- ------ ----- --<br>----- ----- ---------- --- --- ------ ------ ---- -- ------<br>------- --- ------ ----- --- left ------- -- ---- --- --<br>------- ------,235749,235815,235341,235319.00000000003,235357,235778,,48,left
screen,html.Screen,2_1_1_1_49,2022-05-12T13:51:24.594Z,,,,,,,,,,,,,,,,,54,,,,,,,,,,,,,,460,,response,,,,100,,,,,,,Space,keypress(Space),,,,,,,,-- --- ---- --- ------ ----- ------- ---- -- --- ------- --<br>------- ---------- ------ -- ----- -- ----- -- ---- ------<br>--- ----- --- --- ------ -------- ----- --- ------ ----- --<br>----- ----- ---------- --- --- ------ ------ ---- -- ------<br>------- --- ------ ----- --- ---- without -- ---- --- --<br>------- ------,236155,236222,235762,235749,235778,236197,,49,without
screen,html.Screen,2_1_1_1_50,2022-05-12T13:51:24.971Z,,,,,,,,,,,,,,,,,54,,,,,,,,,,,,,,418.0000000000291,,response,,,,100,,,,,,,Space,keypress(Space),,,,,,,,-- --- ---- --- ------ ----- ------- ---- -- --- ------- --<br>------- ---------- ------ -- ----- -- ----- -- ---- ------<br>--- ----- --- --- ------ -------- ----- --- ------ ----- --<br>----- ----- ---------- --- --- ------ ------ ---- -- ------<br>------- --- ------ ----- --- ---- ------- an ---- --- --<br>------- ------,236533.00000000003,236599.00000000003,236181,236155,236197,236551,,50,an
screen,html.Screen,2_1_1_1_51,2022-05-12T13:51:25.360Z,,,,,,,,,,,,,,,,,54,,,,,,,,,,,,,,453,,response,,,,100,,,,,,,Space,keypress(Space),,,,,,,,-- --- ---- --- ------ ----- ------- ---- -- --- ------- --<br>------- ---------- ------ -- ----- -- ----- -- ---- ------<br>--- ----- --- --- ------ -------- ----- --- ------ ----- --<br>----- ----- ---------- --- --- ------ ------ ---- -- ------<br>------- --- ------ ----- --- ---- ------- -- easy --- --<br>------- ------,236921,236987,236534,236533.00000000003,236551,236954,,51,easy
screen,html.Screen,2_1_1_1_52,2022-05-12T13:51:25.790Z,,,,,,,,,,,,,,,,,54,,,,,,,,,,,,,,480,,response,,,,100,,,,,,,Space,keypress(Space),,,,,,,,-- --- ---- --- ------ ----- ------- ---- -- --- ------- --<br>------- ---------- ------ -- ----- -- ----- -- ---- ------<br>--- ----- --- --- ------ -------- ----- --- ------ ----- --<br>----- ----- ---------- --- --- ------ ------ ---- -- ------<br>------- --- ------ ----- --- ---- ------- -- ---- way --<br>------- ------,237352,237417,236937,236921,236954,237391,,52,way
screen,html.Screen,2_1_1_1_53,2022-05-12T13:51:26.214Z,,,,,,,,,,,,,,,,,54,,,,,,,,,,,,,,468,,response,,,,100,,,,,,,Space,keypress(Space),,,,,,,,-- --- ---- --- ------ ----- ------- ---- -- --- ------- --<br>------- ---------- ------ -- ----- -- ----- -- ---- ------<br>--- ----- --- --- ------ -------- ----- --- ------ ----- --<br>----- ----- ---------- --- --- ------ ------ ---- -- ------<br>------- --- ------ ----- --- ---- ------- -- ---- --- of<br>------- ------,237776,237841,237373,237352,237391,237810,,53,of
screen,html.Screen,2_1_1_1_54,2022-05-12T13:51:26.608Z,,,,,,,,,,,,,,,,,54,,,,,,,,,,,,,,441,,response,,,,100,,,,,,,Space,keypress(Space),,,,,,,,-- --- ---- --- ------ ----- ------- ---- -- --- ------- --<br>------- ---------- ------ -- ----- -- ----- -- ---- ------<br>--- ----- --- --- ------ -------- ----- --- ------ ----- --<br>----- ----- ---------- --- --- ------ ------ ---- -- ------<br>------- --- ------ ----- --- ---- ------- -- ---- --- --<br>raising ------,238169,238235,237794,237776,237810,238197,,54,raising
screen,html.Screen,2_1_1_1_55,2022-05-12T13:51:26.988Z,,,,,,,,,,,,,,,,,54,,,,,,,,,,,,,,435,,response,,,,100,,,,,,,Space,keypress(Space),,,,,,,,-- --- ---- --- ------ ----- ------- ---- -- --- ------- --<br>------- ---------- ------ -- ----- -- ----- -- ---- ------<br>--- ----- --- --- ------ -------- ----- --- ------ ----- --<br>----- ----- ---------- --- --- ------ ------ ---- -- ------<br>------- --- ------ ----- --- ---- ------- -- ---- --- --<br>------- money.,238549,238616,238181,238169,238197,238568,,55,money.
Item 100,flow.Loop,2_1_1_1,2022-05-12T13:51:26.988Z,,,,,,,,,,,,,,,,,,,,,,,,,,,,,,,23459,,completion,,,,,D,,,,,,,,,,,silence,,,,,238550,238616,215140,215141,215157,238568,,,
Question 1,html.Screen,2_1_1_2,2022-05-12T13:51:29.601Z,,,,,,,,,,,,,,,,,,,,,,,,,,,,true,TRUE,,2676,,response,,,,100,D,,,,,,TRUE,click #choice-1,,,,silence,,,,,241162,241229,238553,238550,238568,241176,,,
Question 2,html.Screen,2_1_1_3,2022-05-12T13:51:32.566Z,,,,,,,,,,,,,,,,,,,,,,,,,,,,true,FALSE,,3027,,response,,,,100,D,,,,,,FALSE,click #choice-2,,,,silence,,,,,244128,244195,241168,241162,241176,244160,,,
Item 100,flow.Sequence,2_1_1,2022-05-12T13:51:32.567Z,,,,,,,,,,,,,,,,,,,,,,,,,,,,,,,39032,,completion,,,,,,,,,,,,,,,,,,,,,244128,244195,205136,205130,205163,244160,,,
End of Practice,html.Page,2_1_2,2022-05-12T13:51:35.682Z,,,,,,,,,,,,,,,,,,,,,,,,,,,,,,,3083,,form submission,,,,,,,,,,,,,,,,,,,,,247243,247243,244143,244128,244160,247274,,,
Practice,flow.Sequence,2_1,2022-05-12T13:51:35.682Z,,,,,,,,,,,,,,,,,,,,,,,,,,,,,,,89393,,completion,,,,,,,,,,,,,,,,,,,,,247244,247243,157829,157817,157850,247274,,,
Trap_instruction,html.Page,2_2_0,2022-05-12T13:51:37.934Z,,,,,,,,,,,,,,,,,,,,,,,,,,,,,,,2221,,form submission,,,,,,,,,,,,,,,,,,,,,249495,249495,247253,247244,247274,249513,,,
trap_trial,html.Screen,2_2_1,2022-05-12T13:51:42.025Z,,,,,,,,,,,,,,,,,,,,,,,,,,,,true,1,,4145,,response,,,,,,,,,,,1,click #choice-1,,,,,,,,,253586,253654,249509,249496,249513,253631,,,
end of trap trial,html.Page,2_2_2,2022-05-12T13:51:44.042Z,,,,,,,,,,,,,,,,,,,,,,,,,,,,,,,1972,,form submission,,,,,,,,,,,,,,,,,,,,,255603,255603,253621,253587.00000000003,253631,255632,,,
Trap 1,flow.Sequence,2_2,2022-05-12T13:51:44.042Z,,,,,,,,,,,,,,,,,,,,,,,,,,,,,,,8329,,completion,,,,,,,,,,,,,,,,,,,,,255604,255603,247253,247244,247274,255632,,,
Standby,html.Page,2_3_0,2022-05-12T13:51:52.062Z,,,,,,,,,,,,,,,,,,,,,,,,,,,,,,,8008,,timeout,,,,,,,,,,,,,,,,,,,,,263624,263623,255615,255604,255632,263640,,,
Holding screen,html.Screen,2_3_1_0_0,2022-05-12T13:51:59.060Z,,,,,,,,,,,,,,,,,,,,,,,,,,,,,,,6997,,timeout,,,,,,,,,,,,,,,,,,,,,270621,270621,263623,263624,263640,270637,,,
screen,html.Screen,2_3_1_0_1_0,2022-05-12T13:52:01.367Z,,,,,,,,,,,,,,,,,40,,,,,,,,,,,,,,2373,,response,,,,9,D,,,,,,Space,keypress(Space),,,,speech,,,,Police -- ------- ---- ---- ---- - -------- ----- --- --<br>----- ----- ------ -- ---- -- --- - ---- -- - ----- -----<br>------ ---- ------ ---- - -------- ------- -- --- --------<br>-------- ----------- ---- ------ ---- ------ ---- --- ---<br>-------- --- -----,272928,272994,270621,270622,270637,272957,,0,Police
screen,html.Screen,2_3_1_0_1_1,2022-05-12T13:52:01.882Z,,,,,,,,,,,,,,,,,40,,,,,,,,,,,,,,568,,response,,,,9,D,,,,,,Space,keypress(Space),,,,speech,,,,------ in ------- ---- ---- ---- - -------- ----- --- --<br>----- ----- ------ -- ---- -- --- - ---- -- - ----- -----<br>------ ---- ------ ---- - -------- ------- -- --- --------<br>-------- ----------- ---- ------ ---- ------ ---- --- ---<br>-------- --- -----,273443,273509,272941,272928,272957,273474,,1,in
screen,html.Screen,2_3_1_0_1_2,2022-05-12T13:52:02.342Z,,,,,,,,,,,,,,,,,40,,,,,,,,,,,,,,511,,response,,,,9,D,,,,,,Space,keypress(Space),,,,speech,,,,------ -- Georgia ---- ---- ---- - -------- ----- --- --<br>----- ----- ------ -- ---- -- --- - ---- -- - ----- -----<br>------ ---- ------ ---- - -------- ------- -- --- --------<br>-------- ----------- ---- ------ ---- ------ ---- --- ---<br>-------- --- -----,273903,273969,273458,273444,273474,273945,,2,Georgia
screen,html.Screen,2_3_1_0_1_3,2022-05-12T13:52:02.707Z,,,,,,,,,,,,,,,,,40,,,,,,,,,,,,,,406,,response,,,,9,D,,,,,,Space,keypress(Space),,,,speech,,,,------ -- ------- have ---- ---- - -------- ----- --- --<br>----- ----- ------ -- ---- -- --- - ---- -- - ----- -----<br>------ ---- ------ ---- - -------- ------- -- --- --------<br>-------- ----------- ---- ------ ---- ------ ---- --- ---<br>-------- --- -----,274268,274334,273928,273903,273945,274298,,3,have
screen,html.Screen,2_3_1_0_1_4,2022-05-12T13:52:03.113Z,,,,,,,,,,,,,,,,,40,,,,,,,,,,,,,,458,,response,,,,9,D,,,,,,Space,keypress(Space),,,,speech,,,,------ -- ------- ---- shut ---- - -------- ----- --- --<br>----- ----- ------ -- ---- -- --- - ---- -- - ----- -----<br>------ ---- ------ ---- - -------- ------- -- --- --------<br>-------- ----------- ---- ------ ---- ------ ---- --- ---<br>-------- --- -----,274674,274740,274282,274268,274298,274701,,4,shut
screen,html.Screen,2_3_1_0_1_5,2022-05-12T13:52:03.519Z,,,,,,,,,,,,,,,,,40,,,,,,,,,,,,,,462,,response,,,,9,D,,,,,,Space,keypress(Space),,,,speech,,,,------ -- ------- ---- ---- down - -------- ----- --- --<br>----- ----- ------ -- ---- -- --- - ---- -- - ----- -----<br>------ ---- ------ ---- - -------- ------- -- --- --------<br>-------- ----------- ---- ------ ---- ------ ---- --- ---<br>-------- --- -----,275081,275147,274685,274674,274701,275121,,5,down
screen,html.Screen,2_3_1_0_1_6,2022-05-12T13:52:03.894Z,,,,,,,,,,,,,,,,,40,,,,,,,,,,,,,,418,,response,,,,9,D,,,,,,Space,keypress(Space),,,,speech,,,,------ -- ------- ---- ---- ---- a -------- ----- --- --<br>----- ----- ------ -- ---- -- --- - ---- -- - ----- -----<br>------ ---- ------ ---- - -------- ------- -- --- --------<br>-------- ----------- ---- ------ ---- ------ ---- --- ---<br>-------- --- -----,275456,275522,275104,275081,275121,275475,,6,a
screen,html.Screen,2_3_1_0_1_7,2022-05-12T13:52:04.239Z,,,,,,,,,,,,,,,,,40,,,,,,,,,,,,,,410,,response,,,,9,D,,,,,,Space,keypress(Space),,,,speech,,,,------ -- ------- ---- ---- ---- - lemonade ----- --- --<br>----- ----- ------ -- ---- -- --- - ---- -- - ----- -----<br>------ ---- ------ ---- - -------- ------- -- --- --------<br>-------- ----------- ---- ------ ---- ------ ---- --- ---<br>-------- --- -----,275801,275867,275457,275456,275475,275828,,7,lemonade
screen,html.Screen,2_3_1_0_1_8,2022-05-12T13:52:04.639Z,,,,,,,,,,,,,,,,,40,,,,,,,,,,,,,,456,,response,,,,9,D,,,,,,Space,keypress(Space),,,,speech,,,,------ -- ------- ---- ---- ---- - -------- stand --- --<br>----- ----- ------ -- ---- -- --- - ---- -- - ----- -----<br>------ ---- ------ ---- - -------- ------- -- --- --------<br>-------- ----------- ---- ------ ---- ------ ---- --- ---<br>-------- --- -----,276201,276267,275811,275801,275828,276231,,8,stand
screen,html.Screen,2_3_1_0_1_9,2022-05-12T13:52:05.072Z,,,,,,,,,,,,,,,,,40,,,,,,,,,,,,,,486,,response,,,,9,D,,,,,,Space,keypress(Space),,,,speech,,,,------ -- ------- ---- ---- ---- - -------- ----- run --<br>----- ----- ------ -- ---- -- --- - ---- -- - ----- -----<br>------ ---- ------ ---- - -------- ------- -- --- --------<br>-------- ----------- ---- ------ ---- ------ ---- --- ---<br>-------- --- -----,276633,276699,276213,276201,276231,276667,,9,run
screen,html.Screen,2_3_1_0_1_10,2022-05-12T13:52:05.441Z,,,,,,,,,,,,,,,,,40,,,,,,,,,,,,,,418,,response,,,,9,D,,,,,,Space,keypress(Space),,,,speech,,,,------ -- ------- ---- ---- ---- - -------- ----- --- by<br>----- ----- ------ -- ---- -- --- - ---- -- - ----- -----<br>------ ---- ------ ---- - -------- ------- -- --- --------<br>-------- ----------- ---- ------ ---- ------ ---- --- ---<br>-------- --- -----,277003,277069,276651,276633,276667,277020,,10,by
screen,html.Screen,2_3_1_0_1_11,2022-05-12T13:52:05.804Z,,,,,,,,,,,,,,,,,40,,,,,,,,,,,,,,428,,response,,,,9,D,,,,,,Space,keypress(Space),,,,speech,,,,------ -- ------- ---- ---- ---- - -------- ----- --- --<br>three ----- ------ -- ---- -- --- - ---- -- - ----- -----<br>------ ---- ------ ---- - -------- ------- -- --- --------<br>-------- ----------- ---- ------ ---- ------ ---- --- ---<br>-------- --- -----,277366,277432,277004,277003,277020,277391,,11,three
screen,html.Screen,2_3_1_0_1_12,2022-05-12T13:52:06.169Z,,,,,,,,,,,,,,,,,40,,,,,,,,,,,,,,423,,response,,,,9,D,,,,,,Space,keypress(Space),,,,speech,,,,------ -- ------- ---- ---- ---- - -------- ----- --- --<br>----- girls ------ -- ---- -- --- - ---- -- - ----- -----<br>------ ---- ------ ---- - -------- ------- -- --- --------<br>-------- ----------- ---- ------ ---- ------ ---- --- ---<br>-------- --- -----,277730,277796,277373,277366,277391,277760,,12,girls
screen,html.Screen,2_3_1_0_1_13,2022-05-12T13:52:06.511Z,,,,,,,,,,,,,,,,,40,,,,,,,,,,,,,,396,,response,,,,9,D,,,,,,Space,keypress(Space),,,,speech,,,,------ -- ------- ---- ---- ---- - -------- ----- --- --<br>----- ----- trying -- ---- -- --- - ---- -- - ----- -----<br>------ ---- ------ ---- - -------- ------- -- --- --------<br>-------- ----------- ---- ------ ---- ------ ---- --- ---<br>-------- --- -----,278073,278139,277743,277730,277760,278096,,13,trying
screen,html.Screen,2_3_1_0_1_14,2022-05-12T13:52:06.874Z,,,,,,,,,,,,,,,,,40,,,,,,,,,,,,,,422,,response,,,,9,D,,,,,,Space,keypress(Space),,,,speech,,,,------ -- ------- ---- ---- ---- - -------- ----- --- --<br>----- ----- ------ to ---- -- --- - ---- -- - ----- -----<br>------ ---- ------ ---- - -------- ------- -- --- --------<br>-------- ----------- ---- ------ ---- ------ ---- --- ---<br>-------- --- -----,278436,278502,278080,278073,278096,278466,,14,to
screen,html.Screen,2_3_1_0_1_15,2022-05-12T13:52:07.214Z,,,,,,,,,,,,,,,,,40,,,,,,,,,,,,,,391,,response,,,,9,D,,,,,,Space,keypress(Space),,,,speech,,,,------ -- ------- ---- ---- ---- - -------- ----- --- --<br>----- ----- ------ -- save -- --- - ---- -- - ----- -----<br>------ ---- ------ ---- - -------- ------- -- --- --------<br>-------- ----------- ---- ------ ---- ------ ---- --- ---<br>-------- --- -----,278775.00000000006,278841,278450,278436,278466,278803,,15,save
screen,html.Screen,2_3_1_0_1_16,2022-05-12T13:52:07.530Z,,,,,,,,,,,,,,,,,40,,,,,,,,,,,,,,372,,response,,,,9,D,,,,,,Space,keypress(Space),,,,speech,,,,------ -- ------- ---- ---- ---- - -------- ----- --- --<br>----- ----- ------ -- ---- up --- - ---- -- - ----- -----<br>------ ---- ------ ---- - -------- ------- -- --- --------<br>-------- ----------- ---- ------ ---- ------ ---- --- ---<br>-------- --- -----,279091,279158,278786,278775.00000000006,278803,279122,,16,up
screen,html.Screen,2_3_1_0_1_17,2022-05-12T13:52:07.840Z,,,,,,,,,,,,,,,,,40,,,,,,,,,,,,,,361,,response,,,,9,D,,,,,,Space,keypress(Space),,,,speech,,,,------ -- ------- ---- ---- ---- - -------- ----- --- --<br>----- ----- ------ -- ---- -- for - ---- -- - ----- -----<br>------ ---- ------ ---- - -------- ------- -- --- --------<br>-------- ----------- ---- ------ ---- ------ ---- --- ---<br>-------- --- -----,279401,279467,279106,279092,279122,279426,,17,for
screen,html.Screen,2_3_1_0_1_18,2022-05-12T13:52:08.159Z,,,,,,,,,,,,,,,,,40,,,,,,,,,,,,,,376,,response,,,,9,D,,,,,,Space,keypress(Space),,,,speech,,,,------ -- ------- ---- ---- ---- - -------- ----- --- --<br>----- ----- ------ -- ---- -- --- a ---- -- - ----- -----<br>------ ---- ------ ---- - -------- ------- -- --- --------<br>-------- ----------- ---- ------ ---- ------ ---- --- ---<br>-------- --- -----,279720,279786,279410,279401,279426,279746,,18,a
screen,html.Screen,2_3_1_0_1_19,2022-05-12T13:52:08.503Z,,,,,,,,,,,,,,,,,40,,,,,,,,,,,,,,403,,response,,,,9,D,,,,,,Space,keypress(Space),,,,speech,,,,------ -- ------- ---- ---- ---- - -------- ----- --- --<br>----- ----- ------ -- ---- -- --- - trip -- - ----- -----<br>------ ---- ------ ---- - -------- ------- -- --- --------<br>-------- ----------- ---- ------ ---- ------ ---- --- ---<br>-------- --- -----,280065,280131,279728,279720,279746,280099,,19,trip
screen,html.Screen,2_3_1_0_1_20,2022-05-12T13:52:08.776Z,,,,,,,,,,,,,,,,,40,,,,,,,,,,,,,,321,,response,,,,9,D,,,,,,Space,keypress(Space),,,,speech,,,,------ -- ------- ---- ---- ---- - -------- ----- --- --<br>----- ----- ------ -- ---- -- --- - ---- to - ----- -----<br>------ ---- ------ ---- - -------- ------- -- --- --------<br>-------- ----------- ---- ------ ---- ------ ---- --- ---<br>-------- --- -----,280338,280403,280082,280065,280099,280368,,20,to
screen,html.Screen,2_3_1_0_1_21,2022-05-12T13:52:09.119Z,,,,,,,,,,,,,,,,,40,,,,,,,,,,,,,,395,,response,,,,9,D,,,,,,Space,keypress(Space),,,,speech,,,,------ -- ------- ---- ---- ---- - -------- ----- --- --<br>----- ----- ------ -- ---- -- --- - ---- -- a ----- -----<br>------ ---- ------ ---- - -------- ------- -- --- --------<br>-------- ----------- ---- ------ ---- ------ ---- --- ---<br>-------- --- -----,280681,280747,280352,280338,280368,280705,,21,a
screen,html.Screen,2_3_1_0_1_22,2022-05-12T13:52:09.468Z,,,,,,,,,,,,,,,,,40,,,,,,,,,,,,,,408,,response,,,,9,D,,,,,,Space,keypress(Space),,,,speech,,,,------ -- ------- ---- ---- ---- - -------- ----- --- --<br>----- ----- ------ -- ---- -- --- - ---- -- - water -----<br>------ ---- ------ ---- - -------- ------- -- --- --------<br>-------- ----------- ---- ------ ---- ------ ---- --- ---<br>-------- --- -----,281030.00000000006,281096,280688,280681,280705,281058,,22,water
screen,html.Screen,2_3_1_0_1_23,2022-05-12T13:52:09.870Z,,,,,,,,,,,,,,,,,40,,,,,,,,,,,,,,455,,response,,,,9,D,,,,,,Space,keypress(Space),,,,speech,,,,"------ -- ------- ---- ---- ---- - -------- ----- --- --<br>----- ----- ------ -- ---- -- --- - ---- -- - ----- park,<br>------ ---- ------ ---- - -------- ------- -- --- --------<br>-------- ----------- ---- ------ ---- ------ ---- --- ---<br>-------- --- -----",281431,281497,281042,281030.00000000006,281058,281461,,23,"park,"
screen,html.Screen,2_3_1_0_1_24,2022-05-12T13:52:10.369Z,,,,,,,,,,,,,,,,,40,,,,,,,,,,,,,,553,,response,,,,9,D,,,,,,Space,keypress(Space),,,,speech,,,,------ -- ------- ---- ---- ---- - -------- ----- --- --<br>----- ----- ------ -- ---- -- --- - ---- -- - ----- -----<br>saying ---- ------ ---- - -------- ------- -- --- --------<br>-------- ----------- ---- ------ ---- ------ ---- --- ---<br>-------- --- -----,281931,281997,281444,281431,281461,281964,,24,saying
screen,html.Screen,2_3_1_0_1_25,2022-05-12T13:52:10.741Z,,,,,,,,,,,,,,,,,40,,,,,,,,,,,,,,422,,response,,,,9,D,,,,,,Space,keypress(Space),,,,speech,,,,------ -- ------- ---- ---- ---- - -------- ----- --- --<br>----- ----- ------ -- ---- -- --- - ---- -- - ----- -----<br>------ they ------ ---- - -------- ------- -- --- --------<br>-------- ----------- ---- ------ ---- ------ ---- --- ---<br>-------- --- -----,282303,282369,281947,281931,281964,282333,,25,they
screen,html.Screen,2_3_1_0_1_26,2022-05-12T13:52:11.082Z,,,,,,,,,,,,,,,,,40,,,,,,,,,,,,,,392,,response,,,,9,D,,,,,,Space,keypress(Space),,,,speech,,,,------ -- ------- ---- ---- ---- - -------- ----- --- --<br>----- ----- ------ -- ---- -- --- - ---- -- - ----- -----<br>------ ---- didn't ---- - -------- ------- -- --- --------<br>-------- ----------- ---- ------ ---- ------ ---- --- ---<br>-------- --- -----,282643,282709,282317,282303,282333,282671,,26,didn't
screen,html.Screen,2_3_1_0_1_27,2022-05-12T13:52:11.378Z,,,,,,,,,,,,,,,,,40,,,,,,,,,,,,,,352,,response,,,,9,D,,,,,,Space,keypress(Space),,,,speech,,,,------ -- ------- ---- ---- ---- - -------- ----- --- --<br>----- ----- ------ -- ---- -- --- - ---- -- - ----- -----<br>------ ---- ------ have - -------- ------- -- --- --------<br>-------- ----------- ---- ------ ---- ------ ---- --- ---<br>-------- --- -----,282940,283006,282654,282643,282671,282973,,27,have
screen,html.Screen,2_3_1_0_1_28,2022-05-12T13:52:11.719Z,,,,,,,,,,,,,,,,,40,,,,,,,,,,,,,,389,,response,,,,9,D,,,,,,Space,keypress(Space),,,,speech,,,,------ -- ------- ---- ---- ---- - -------- ----- --- --<br>----- ----- ------ -- ---- -- --- - ---- -- - ----- -----<br>------ ---- ------ ---- a -------- ------- -- --- --------<br>-------- ----------- ---- ------ ---- ------ ---- --- ---<br>-------- --- -----,283280.00000000006,283346,282957,282940,282973,283311,,28,a
screen,html.Screen,2_3_1_0_1_29,2022-05-12T13:52:11.985Z,,,,,,,,,,,,,,,,,40,,,,,,,,,,,,,,320,,response,,,,9,D,,,,,,Space,keypress(Space),,,,speech,,,,------ -- ------- ---- ---- ---- - -------- ----- --- --<br>----- ----- ------ -- ---- -- --- - ---- -- - ----- -----<br>------ ---- ------ ---- - business ------- -- --- --------<br>-------- ----------- ---- ------ ---- ------ ---- --- ---<br>-------- --- -----,283547,283613,283293,283280.00000000006,283311,283580,,29,business
screen,html.Screen,2_3_1_0_1_30,2022-05-12T13:52:12.383Z,,,,,,,,,,,,,,,,,40,,,,,,,,,,,,,,447,,response,,,,9,D,,,,,,Space,keypress(Space),,,,speech,,,,------ -- ------- ---- ---- ---- - -------- ----- --- --<br>----- ----- ------ -- ---- -- --- - ---- -- - ----- -----<br>------ ---- ------ ---- - -------- license -- --- --------<br>-------- ----------- ---- ------ ---- ------ ---- --- ---<br>-------- --- -----,283945,284011,283564,283547,283580,283967,,30,license
screen,html.Screen,2_3_1_0_1_31,2022-05-12T13:52:12.785Z,,,,,,,,,,,,,,,,,40,,,,,,,,,,,,,,464,,response,,,,9,D,,,,,,Space,keypress(Space),,,,speech,,,,------ -- ------- ---- ---- ---- - -------- ----- --- --<br>----- ----- ------ -- ---- -- --- - ---- -- - ----- -----<br>------ ---- ------ ---- - -------- ------- or --- --------<br>-------- ----------- ---- ------ ---- ------ ---- --- ---<br>-------- --- -----,284347,284413,283949,283945,283967,284386,,31,or
screen,html.Screen,2_3_1_0_1_32,2022-05-12T13:52:13.115Z,,,,,,,,,,,,,,,,,40,,,,,,,,,,,,,,374,,response,,,,9,D,,,,,,Space,keypress(Space),,,,speech,,,,------ -- ------- ---- ---- ---- - -------- ----- --- --<br>----- ----- ------ -- ---- -- --- - ---- -- - ----- -----<br>------ ---- ------ ---- - -------- ------- -- the --------<br>-------- ----------- ---- ------ ---- ------ ---- --- ---<br>-------- --- -----,284677,284743,284369,284347,284386,284706,,32,the
screen,html.Screen,2_3_1_0_1_33,2022-05-12T13:52:13.441Z,,,,,,,,,,,,,,,,,40,,,,,,,,,,,,,,379,,response,,,,9,D,,,,,,Space,keypress(Space),,,,speech,,,,------ -- ------- ---- ---- ---- - -------- ----- --- --<br>----- ----- ------ -- ---- -- --- - ---- -- - ----- -----<br>------ ---- ------ ---- - -------- ------- -- --- required<br>-------- ----------- ---- ------ ---- ------ ---- --- ---<br>-------- --- -----,285003,285069,284690,284677,284706,285026,,33,required
screen,html.Screen,2_3_1_0_1_34,2022-05-12T13:52:13.950Z,,,,,,,,,,,,,,,,,40,,,,,,,,,,,,,,568.0000000000582,,response,,,,9,D,,,,,,Space,keypress(Space),,,,speech,,,,------ -- ------- ---- ---- ---- - -------- ----- --- --<br>----- ----- ------ -- ---- -- --- - ---- -- - ----- -----<br>------ ---- ------ ---- - -------- ------- -- --- --------<br>permits. ----------- ---- ------ ---- ------ ---- --- ---<br>-------- --- -----,285512,285578.00000000006,285010,285003,285026,285546,,34,permits.
screen,html.Screen,2_3_1_0_1_35,2022-05-12T13:52:14.633Z,,,,,,,,,,,,,,,,,40,,,,,,,,,,,,,,731,,response,,,,9,D,,,,,,Space,keypress(Space),,,,speech,,,,------ -- ------- ---- ---- ---- - -------- ----- --- --<br>----- ----- ------ -- ---- -- --- - ---- -- - ----- -----<br>------ ---- ------ ---- - -------- ------- -- --- --------<br>-------- Morningstar ---- ------ ---- ------ ---- --- ---<br>-------- --- -----,286195,286261,285530,285512,285546,286232,,35,Morningstar
screen,html.Screen,2_3_1_0_1_36,2022-05-12T13:52:15.069Z,,,,,,,,,,,,,,,,,40,,,,,,,,,,,,,,481,,response,,,,9,D,,,,,,Space,keypress(Space),,,,speech,,,,------ -- ------- ---- ---- ---- - -------- ----- --- --<br>----- ----- ------ -- ---- -- --- - ---- -- - ----- -----<br>------ ---- ------ ---- - -------- ------- -- --- --------<br>-------- ----------- says ------ ---- ------ ---- --- ---<br>-------- --- -----,286631,286697,286216,286195,286232,286669,,36,says
screen,html.Screen,2_3_1_0_1_37,2022-05-12T13:52:15.500Z,,,,,,,,,,,,,,,,,40,,,,,,,,,,,,,,474,,response,,,,9,D,,,,,,Space,keypress(Space),,,,speech,,,,------ -- ------- ---- ---- ---- - -------- ----- --- --<br>----- ----- ------ -- ---- -- --- - ---- -- - ----- -----<br>------ ---- ------ ---- - -------- ------- -- --- --------<br>-------- ----------- ---- police ---- ------ ---- --- ---<br>-------- --- -----,287061,287127,286653,286631,286669,287090,,37,police
screen,html.Screen,2_3_1_0_1_38,2022-05-12T13:52:15.883Z,,,,,,,,,,,,,,,,,40,,,,,,,,,,,,,,438,,response,,,,9,D,,,,,,Space,keypress(Space),,,,speech,,,,------ -- ------- ---- ---- ---- - -------- ----- --- --<br>----- ----- ------ -- ---- -- --- - ---- -- - ----- -----<br>------ ---- ------ ---- - -------- ------- -- --- --------<br>-------- ----------- ---- ------ also ------ ---- --- ---<br>-------- --- -----,287445,287511,287073,287061,287090,287476,,38,also
screen,html.Screen,2_3_1_0_1_39,2022-05-12T13:52:16.307Z,,,,,,,,,,,,,,,,,40,,,,,,,,,,,,,,475,,response,,,,9,D,,,,,,Space,keypress(Space),,,,speech,,,,------ -- ------- ---- ---- ---- - -------- ----- --- --<br>----- ----- ------ -- ---- -- --- - ---- -- - ----- -----<br>------ ---- ------ ---- - -------- ------- -- --- --------<br>-------- ----------- ---- ------ ---- didn't ---- --- ---<br>-------- --- -----,287869,287935,287460,287445,287476,287896,,39,didn't
screen,html.Screen,2_3_1_0_1_40,2022-05-12T13:52:16.712Z,,,,,,,,,,,,,,,,,40,,,,,,,,,,,,,,460.0000000000582,,response,,,,9,D,,,,,,Space,keypress(Space),,,,speech,,,,------ -- ------- ---- ---- ---- - -------- ----- --- --<br>----- ----- ------ -- ---- -- --- - ---- -- - ----- -----<br>------ ---- ------ ---- - -------- ------- -- --- --------<br>-------- ----------- ---- ------ ---- ------ know --- ---<br>-------- --- -----,288274,288340.00000000006,287880,287869,287896,288316,,40,know
screen,html.Screen,2_3_1_0_1_41,2022-05-12T13:52:17.077Z,,,,,,,,,,,,,,,,,40,,,,,,,,,,,,,,406,,response,,,,9,D,,,,,,Space,keypress(Space),,,,speech,,,,------ -- ------- ---- ---- ---- - -------- ----- --- --<br>----- ----- ------ -- ---- -- --- - ---- -- - ----- -----<br>------ ---- ------ ---- - -------- ------- -- --- --------<br>-------- ----------- ---- ------ ---- ------ ---- how ---<br>-------- --- -----,288639,288705,288299,288274,288316,288669,,41,how
screen,html.Screen,2_3_1_0_1_42,2022-05-12T13:52:17.479Z,,,,,,,,,,,,,,,,,40,,,,,,,,,,,,,,454,,response,,,,9,D,,,,,,Space,keypress(Space),,,,speech,,,,------ -- ------- ---- ---- ---- - -------- ----- --- --<br>----- ----- ------ -- ---- -- --- - ---- -- - ----- -----<br>------ ---- ------ ---- - -------- ------- -- --- --------<br>-------- ----------- ---- ------ ---- ------ ---- --- the<br>-------- --- -----,289040,289107,288653,288639,288669,289072,,42,the
screen,html.Screen,2_3_1_0_1_43,2022-05-12T13:52:17.918Z,,,,,,,,,,,,,,,,,40,,,,,,,,,,,,,,491,,response,,,,9,D,,,,,,Space,keypress(Space),,,,speech,,,,------ -- ------- ---- ---- ---- - -------- ----- --- --<br>----- ----- ------ -- ---- -- --- - ---- -- - ----- -----<br>------ ---- ------ ---- - -------- ------- -- --- --------<br>-------- ----------- ---- ------ ---- ------ ---- --- ---<br>lemonade --- -----,289480,289546,289055,289040,289072,289509,,43,lemonade
screen,html.Screen,2_3_1_0_1_44,2022-05-12T13:52:18.350Z,,,,,,,,,,,,,,,,,40,,,,,,,,,,,,,,485,,response,,,,9,D,,,,,,Space,keypress(Space),,,,speech,,,,------ -- ------- ---- ---- ---- - -------- ----- --- --<br>----- ----- ------ -- ---- -- --- - ---- -- - ----- -----<br>------ ---- ------ ---- - -------- ------- -- --- --------<br>-------- ----------- ---- ------ ---- ------ ---- --- ---<br>-------- was -----,289912,289978,289493,289480,289509,289946,,44,was
screen,html.Screen,2_3_1_0_1_45,2022-05-12T13:52:18.993Z,,,,,,,,,,,,,,,,,40,,,,,,,,,,,,,,693,,response,,,,9,D,,,,,,Space,keypress(Space),,,,speech,,,,------ -- ------- ---- ---- ---- - -------- ----- --- --<br>----- ----- ------ -- ---- -- --- - ---- -- - ----- -----<br>------ ---- ------ ---- - -------- ------- -- --- --------<br>-------- ----------- ---- ------ ---- ------ ---- --- ---<br>-------- --- made.,290555,290621,289928,289912,289946,290581,,45,made.
Item 9,flow.Loop,2_3_1_0_1,2022-05-12T13:52:18.993Z,,,,,,,,,,,,,,,,,,,,,,,,,,,,,,,19984,,completion,,,,,,,,,,,,,,,,,,,,,290555,290621,270621,270622,270637,290581,,,
Question 1,html.Screen,2_3_1_0_2,2022-05-12T13:52:21.393Z,,,,,,,,,,,,,,,,,,,,,,,,,,,,true,FALSE,,2458,,response,,,,9,D,,,,,,FALSE,click #choice-2,,,,speech,,,,,292955,293023,290565,290555,290581,292980,,,
Question 2,html.Screen,2_3_1_0_3,2022-05-12T13:52:24.580Z,,,,,,,,,,,,,,,,,,,,,,,,,,,,true,FALSE,,3248,,response,,,,9,D,,,,,,FALSE,click #choice-2,,,,speech,,,,,296142,296210,292962,292955,292980,296170,,,
Item 9,flow.Sequence,2_3_1_0,2022-05-12T13:52:24.581Z,,,,,,,,,,,,,,,,,,,,,,,,,,,,,,,32570,,completion,,,,,,,,,,,,,,,,,,,,,296142,296210,263623,263624,263640,296170,,,
Holding screen,html.Screen,2_3_1_1_0,2022-05-12T13:52:31.585Z,,,,,,,,,,,,,,,,,,,,,,,,,,,,,,,6992,,timeout,,,,,,,,,,,,,,,,,,,,,303147,303146,296154,296142,296170,303162,,,
screen,html.Screen,2_3_1_1_1_0,2022-05-12T13:52:32.584Z,,,,,,,,,,,,,,,,,12,,,,,,,,,,,,,,1066,,response,,,,5,D,,,,,,Space,keypress(Space),,,,speech,,,,Some ------ ------ ------- ------ --- ------- -----------<br>-- ----- --- ---- -- --- ------ ---- - ---- -- ----------<br>-- ------ ---- --- ---- --- --- --- ----- -- -------- ---<br>------ ------- -------- --- ---- -- ------- ------------ --<br>------ -- ---- -- --- ---- -- -------- -- --- ------ ------,304146,304212,303146,303147,303162,304183,,0,Some
screen,html.Screen,2_3_1_1_1_1,2022-05-12T13:52:33.006Z,,,,,,,,,,,,,,,,,12,,,,,,,,,,,,,,469,,response,,,,5,D,,,,,,Space,keypress(Space),,,,speech,,,,---- months ------ ------- ------ --- ------- -----------<br>-- ----- --- ---- -- --- ------ ---- - ---- -- ----------<br>-- ------ ---- --- ---- --- --- --- ----- -- -------- ---<br>------ ------- -------- --- ---- -- ------- ------------ --<br>------ -- ---- -- --- ---- -- -------- -- --- ------ ------,304568,304634,304165,304146,304183,304609,,1,months
screen,html.Screen,2_3_1_1_1_2,2022-05-12T13:52:33.365Z,,,,,,,,,,,,,,,,,12,,,,,,,,,,,,,,400,,response,,,,5,D,,,,,,Space,keypress(Space),,,,speech,,,,"---- ------ later, ------- ------ --- ------- -----------<br>-- ----- --- ---- -- --- ------ ---- - ---- -- ----------<br>-- ------ ---- --- ---- --- --- --- ----- -- -------- ---<br>------ ------- -------- --- ---- -- ------- ------------ --<br>------ -- ---- -- --- ---- -- -------- -- --- ------ ------",304926,304992,304592,304568,304609,304946,,2,"later,"
screen,html.Screen,2_3_1_1_1_3,2022-05-12T13:52:33.769Z,,,,,,,,,,,,,,,,,12,,,,,,,,,,,,,,467,,response,,,,5,D,,,,,,Space,keypress(Space),,,,speech,,,,---- ------ ------ Michael ------ --- ------- -----------<br>-- ----- --- ---- -- --- ------ ---- - ---- -- ----------<br>-- ------ ---- --- ---- --- --- --- ----- -- -------- ---<br>------ ------- -------- --- ---- -- ------- ------------ --<br>------ -- ---- -- --- ---- -- -------- -- --- ------ ------,305330,305397,304930,304926,304946,305367,,3,Michael
screen,html.Screen,2_3_1_1_1_4,2022-05-12T13:52:34.140Z,,,,,,,,,,,,,,,,,12,,,,,,,,,,,,,,417,,response,,,,5,D,,,,,,Space,keypress(Space),,,,speech,,,,---- ------ ------ ------- Larson --- ------- -----------<br>-- ----- --- ---- -- --- ------ ---- - ---- -- ----------<br>-- ------ ---- --- ---- --- --- --- ----- -- -------- ---<br>------ ------- -------- --- ---- -- ------- ------------ --<br>------ -- ---- -- --- ---- -- -------- -- --- ------ ------,305702,305768,305351,305331,305367,305720,,4,Larson
screen,html.Screen,2_3_1_1_1_5,2022-05-12T13:52:34.556Z,,,,,,,,,,,,,,,,,12,,,,,,,,,,,,,,480,,response,,,,5,D,,,,,,Space,keypress(Space),,,,speech,,,,---- ------ ------ ------- ------ saw ------- -----------<br>-- ----- --- ---- -- --- ------ ---- - ---- -- ----------<br>-- ------ ---- --- ---- --- --- --- ----- -- -------- ---<br>------ ------- -------- --- ---- -- ------- ------------ --<br>------ -- ---- -- --- ---- -- -------- -- --- ------ ------,306118,306184,305704,305702,305720,306157,,5,saw
screen,html.Screen,2_3_1_1_1_6,2022-05-12T13:52:34.949Z,,,,,,,,,,,,,,,,,12,,,,,,,,,,,,,,436,,response,,,,5,D,,,,,,Space,keypress(Space),,,,speech,,,,---- ------ ------ ------- ------ --- another -----------<br>-- ----- --- ---- -- --- ------ ---- - ---- -- ----------<br>-- ------ ---- --- ---- --- --- --- ----- -- -------- ---<br>------ ------- -------- --- ---- -- ------- ------------ --<br>------ -- ---- -- --- ---- -- -------- -- --- ------ ------,306511,306577,306141,306118,306157,306544,,6,another
screen,html.Screen,2_3_1_1_1_7,2022-05-12T13:52:35.367Z,,,,,,,,,,,,,,,,,12,,,,,,,,,,,,,,469,,response,,,,5,D,,,,,,Space,keypress(Space),,,,speech,,,,---- ------ ------ ------- ------ --- ------- opportunity<br>-- ----- --- ---- -- --- ------ ---- - ---- -- ----------<br>-- ------ ---- --- ---- --- --- --- ----- -- -------- ---<br>------ ------- -------- --- ---- -- ------- ------------ --<br>------ -- ---- -- --- ---- -- -------- -- --- ------ ------,306929.00000000006,306995,306526,306511,306544,306964,,7,opportunity
screen,html.Screen,2_3_1_1_1_8,2022-05-12T13:52:35.760Z,,,,,,,,,,,,,,,,,12,,,,,,,,,,,,,,441.0000000000582,,response,,,,5,D,,,,,,Space,keypress(Space),,,,speech,,,,---- ------ ------ ------- ------ --- ------- -----------<br>to ----- --- ---- -- --- ------ ---- - ---- -- ----------<br>-- ------ ---- --- ---- --- --- --- ----- -- -------- ---<br>------ ------- -------- --- ---- -- ------- ------------ --<br>------ -- ---- -- --- ---- -- -------- -- --- ------ ------,307322,307388.00000000006,306947,306929.00000000006,306964,307350,,8,to
screen,html.Screen,2_3_1_1_1_9,2022-05-12T13:52:36.084Z,,,,,,,,,,,,,,,,,12,,,,,,,,,,,,,,379,,response,,,,5,D,,,,,,Space,keypress(Space),,,,speech,,,,---- ------ ------ ------- ------ --- ------- -----------<br>-- stack --- ---- -- --- ------ ---- - ---- -- ----------<br>-- ------ ---- --- ---- --- --- --- ----- -- -------- ---<br>------ ------- -------- --- ---- -- ------- ------------ --<br>------ -- ---- -- --- ---- -- -------- -- --- ------ ------,307645,307712,307333,307322,307350,307671,,9,stack
screen,html.Screen,2_3_1_1_1_10,2022-05-12T13:52:36.404Z,,,,,,,,,,,,,,,,,12,,,,,,,,,,,,,,378,,response,,,,5,D,,,,,,Space,keypress(Space),,,,speech,,,,---- ------ ------ ------- ------ --- ------- -----------<br>-- ----- the ---- -- --- ------ ---- - ---- -- ----------<br>-- ------ ---- --- ---- --- --- --- ----- -- -------- ---<br>------ ------- -------- --- ---- -- ------- ------------ --<br>------ -- ---- -- --- ---- -- -------- -- --- ------ ------,307966,308032,307654,307645,307671,307991,,10,the
screen,html.Screen,2_3_1_1_1_11,2022-05-12T13:52:36.741Z,,,,,,,,,,,,,,,,,12,,,,,,,,,,,,,,396,,response,,,,5,D,,,,,,Space,keypress(Space),,,,speech,,,,---- ------ ------ ------- ------ --- ------- -----------<br>-- ----- --- odds -- --- ------ ---- - ---- -- ----------<br>-- ------ ---- --- ---- --- --- --- ----- -- -------- ---<br>------ ------- -------- --- ---- -- ------- ------------ --<br>------ -- ---- -- --- ---- -- -------- -- --- ------ ------,308302,308369,307973,307966,307991,308326,,11,odds
screen,html.Screen,2_3_1_1_1_12,2022-05-12T13:52:37.188Z,,,,,,,,,,,,,,,,,12,,,,,,,,,,,,,,506,,response,,,,5,D,,,,,,Space,keypress(Space),,,,speech,,,,---- ------ ------ ------- ------ --- ------- -----------<br>-- ----- --- ---- in --- ------ ---- - ---- -- ----------<br>-- ------ ---- --- ---- --- --- --- ----- -- -------- ---<br>------ ------- -------- --- ---- -- ------- ------------ --<br>------ -- ---- -- --- ---- -- -------- -- --- ------ ------,308749,308815,308309,308302,308326,308780,,12,in
screen,html.Screen,2_3_1_1_1_13,2022-05-12T13:52:37.505Z,,,,,,,,,,,,,,,,,12,,,,,,,,,,,,,,370,,response,,,,5,D,,,,,,Space,keypress(Space),,,,speech,,,,---- ------ ------ ------- ------ --- ------- -----------<br>-- ----- --- ---- -- his ------ ---- - ---- -- ----------<br>-- ------ ---- --- ---- --- --- --- ----- -- -------- ---<br>------ ------- -------- --- ---- -- ------- ------------ --<br>------ -- ---- -- --- ---- -- -------- -- --- ------ ------,309067,309133,308763,308749,308780,309098,,13,his
screen,html.Screen,2_3_1_1_1_14,2022-05-12T13:52:37.802Z,,,,,,,,,,,,,,,,,12,,,,,,,,,,,,,,348,,response,,,,5,D,,,,,,Space,keypress(Space),,,,speech,,,,---- ------ ------ ------- ------ --- ------- -----------<br>-- ----- --- ---- -- --- favour ---- - ---- -- ----------<br>-- ------ ---- --- ---- --- --- --- ----- -- -------- ---<br>------ ------- -------- --- ---- -- ------- ------------ --<br>------ -- ---- -- --- ---- -- -------- -- --- ------ ------,309364.00000000006,309430,309082,309067,309098,309386,,14,favour
screen,html.Screen,2_3_1_1_1_15,2022-05-12T13:52:38.171Z,,,,,,,,,,,,,,,,,12,,,,,,,,,,,,,,429,,response,,,,5,D,,,,,,Space,keypress(Space),,,,speech,,,,---- ------ ------ ------- ------ --- ------- -----------<br>-- ----- --- ---- -- --- ------ with - ---- -- ----------<br>-- ------ ---- --- ---- --- --- --- ----- -- -------- ---<br>------ ------- -------- --- ---- -- ------- ------------ --<br>------ -- ---- -- --- ---- -- -------- -- --- ------ ------,309733,309799,309370,309364.00000000006,309386,309756,,15,with
screen,html.Screen,2_3_1_1_1_16,2022-05-12T13:52:38.473Z,,,,,,,,,,,,,,,,,12,,,,,,,,,,,,,,363.0000000000582,,response,,,,5,D,,,,,,Space,keypress(Space),,,,speech,,,,---- ------ ------ ------- ------ --- ------- -----------<br>-- ----- --- ---- -- --- ------ ---- a ---- -- ----------<br>-- ------ ---- --- ---- --- --- --- ----- -- -------- ---<br>------ ------- -------- --- ---- -- ------- ------------ --<br>------ -- ---- -- --- ---- -- -------- -- --- ------ ------,310035,310102.00000000006,309739,309733,309756,310059,,16,a
screen,html.Screen,2_3_1_1_1_17,2022-05-12T13:52:38.736Z,,,,,,,,,,,,,,,,,12,,,,,,,,,,,,,,323,,response,,,,5,D,,,,,,Space,keypress(Space),,,,speech,,,,---- ------ ------ ------- ------ --- ------- -----------<br>-- ----- --- ---- -- --- ------ ---- - dash -- ----------<br>-- ------ ---- --- ---- --- --- --- ----- -- -------- ---<br>------ ------- -------- --- ---- -- ------- ------------ --<br>------ -- ---- -- --- ---- -- -------- -- --- ------ ------,310298,310365,310042,310035,310059,310329,,17,dash
screen,html.Screen,2_3_1_1_1_18,2022-05-12T13:52:39.134Z,,,,,,,,,,,,,,,,,12,,,,,,,,,,,,,,450,,response,,,,5,D,,,,,,Space,keypress(Space),,,,speech,,,,---- ------ ------ ------- ------ --- ------- -----------<br>-- ----- --- ---- -- --- ------ ---- - ---- of ----------<br>-- ------ ---- --- ---- --- --- --- ----- -- -------- ---<br>------ ------- -------- --- ---- -- ------- ------------ --<br>------ -- ---- -- --- ---- -- -------- -- --- ------ ------,310696,310762,310312,310298,310329,310716,,18,of
