sender,sender_type,sender_id,timestamp,meta,,Blues,Classical,Country,Dance,Electronic,Folk,Gospel,Hip-Hop,Jazz,Latin,Musical/Film,New-age,Pop,Prolific_id,Provo_ID,R&B,Rap,Reggae,Religious,Rock,Soul,Swing,Traditional,age,artist_name,correct,correctResponse,distraction,duration,education,ended_on,familiarity,gender,headphone_check_performance,item,list,music_frequency,offensiveness,pleasantness,position_correct,preference,response,response_action,snippet_file,song_name,song_rating,sound,stimulus_1,stimulus_2,stimulus_3,text,time_commit,time_end,time_render,time_run,time_show,time_switch,url,word,word_ID
Prolific ID,html.Form,0,2022-05-09T16:28:29.548Z,"{""labjs_version"":""20.2.2"",""labjs_build"":{""flavor"":""production"",""commit"":""a25486e0c714a0ae2ce03ff94b7bb6896854dcfa""},""location"":""https://run.pavlovia.org/mvasilev/prolific3_music_g/"",""userAgent"":""Mozilla/5.0 (X11; Ubuntu; Linux x86_64; rv:102.0) Gecko/20100101 Firefox/102.0"",""platform"":""Linux x86_64"",""language"":""en-US"",""locale"":""en-GB"",""timeZone"":""Europe/London"",""timezoneOffset"":-60,""screen_width"":1440,""screen_height"":900,""scroll_width"":1440,""scroll_height"":708,""window_innerWidth"":1440,""window_innerHeight"":756,""devicePixelRatio"":1}",,,,,,,,,,,,,,,62714a240ed387f760f6741b,,,,,,,,,,,,,,,7097.880000000001,,form submission,,,,,,,,,,,,,,,,,,,,,34155,34154,27039.18,27039,27056.12,34152.78,{},,
Introduction,html.Screen,1_0,2022-05-09T16:28:34.870Z,,,,,,,,,,,,,,,,,,,,,,,,,,,,,,,5320.220000000001,,response,,,,,,,,,,,continue,click button,,,,,,,,,39478,39473,34138.86,34157,34152.78,39497.94,,,
Volume calibration,html.Screen,1_1,2022-05-09T16:28:55.970Z,,,,,,,,,,,,,,,,,,,,,,,,,,,,,,,21064.059999999998,,response,,,,,,,,,,,continue,click button,,,,,,,,,60577,60562,39480.78,39479,39497.94,60579.78,,,
Task instructions,html.Screen,1_2,2022-05-09T16:29:10.329Z,,,,,,,,,,,,,,,,,,,,,,,,,,,,,,,14350.220000000001,,response,,,,,,,,,,,continue,click button,,,,,,,,,74937,74930,60574.28,60578,60579.78,74953.72,,,
Sounds,html.Screen,1_3_0_0,2022-05-09T16:29:14.586Z,,,,,,,,,,,,,,,,,,,,,,,,,,,,,,,4252.639999999999,,timeout,,,,,,,,,2,,,,,,,,O,S,I,,79192,79189.96,74936.54,74940,74953.72,79206.36,,,
Judgement,html.Screen,1_3_0_1,2022-05-09T16:29:15.572Z,,,,,,,,,,,,,,,,,,,,,,,,,,,,true,2,,963.6399999999994,,response,,,,,,,,,2,,2,click #choice-2,,,,,O,S,I,,80180,80170,79189.96,79194,79206.36,80191.66,,,
Trial,flow.Sequence,1_3_0,2022-05-09T16:29:15.575Z,,,,,,,,,,,,,,,,,,,,,,,,,,,,,,,5216.279999999999,,completion,,,,,,,,,2,,,,,,,,O,S,I,,80182,80170,74936.54,74940,74953.72,80191.66,,,
Sounds,html.Screen,1_3_1_0,2022-05-09T16:29:19.823Z,,,,,,,,,,,,,,,,,,,,,,,,,,,,,,,4252.720000000001,,timeout,,,,,,,,,1,,,,,,,,S,O,I,,84430,84428.18,80175.8,80185,80191.66,84444.38,,,
Judgement,html.Screen,1_3_1_1,2022-05-09T16:29:20.627Z,,,,,,,,,,,,,,,,,,,,,,,,,,,,true,1,,782.6199999999953,,response,,,,,,,,,1,,1,click #choice-1,,,,,S,O,I,,85234,85227,84428.18,84431,84444.38,85248.02,,,
Trial,flow.Sequence,1_3_1,2022-05-09T16:29:20.629Z,,,,,,,,,,,,,,,,,,,,,,,,,,,,,,,5035.3399999999965,,completion,,,,,,,,,1,,,,,,,,S,O,I,,85236,85227,80175.8,80184,80191.66,85248.02,,,
Sounds,html.Screen,1_3_2_0,2022-05-09T16:29:24.880Z,,,,,,,,,,,,,,,,,,,,,,,,,,,,,,,4253.360000000001,,timeout,,,,,,,,,3,,,,,,,,O,I,S,,89487,89484.9,85232.06,85237,85248.02,89501.38,,,
Judgement,html.Screen,1_3_2_1,2022-05-09T16:29:25.841Z,,,,,,,,,,,,,,,,,,,,,,,,,,,,true,3,,941.6199999999953,,response,,,,,,,,,3,,3,click #choice-3,,,,,O,I,S,,90448,90443,89484.9,89489,89501.38,90462.26,,,
Trial,flow.Sequence,1_3_2,2022-05-09T16:29:25.842Z,,,,,,,,,,,,,,,,,,,,,,,,,,,,,,,5194.979999999996,,completion,,,,,,,,,3,,,,,,,,O,I,S,,90450,90443,85232.06,85237,85248.02,90462.26,,,
Sounds,html.Screen,1_3_3_0,2022-05-09T16:29:30.093Z,,,,,,,,,,,,,,,,,,,,,,,,,,,,,,,4253.360000000001,,timeout,,,,,,,,,1,,,,,,,,S,I,O,,94700,94698.52,90445.72,90451,90462.26,94715.62,,,
Judgement,html.Screen,1_3_3_1,2022-05-09T16:29:30.768Z,,,,,,,,,,,,,,,,,,,,,,,,,,,,true,1,,655.3800000000047,,response,,,,,,,,,1,,1,click #choice-1,,,,,S,I,O,,95375,95371,94698.52,94701,94715.62,95389.66,,,
Trial,flow.Sequence,1_3_3,2022-05-09T16:29:30.770Z,,,,,,,,,,,,,,,,,,,,,,,,,,,,,,,4908.740000000005,,completion,,,,,,,,,1,,,,,,,,S,I,O,,95377,95371,90445.72,90450,90462.26,95389.66,,,
Sounds,html.Screen,1_3_4_0,2022-05-09T16:29:35.021Z,,,,,,,,,,,,,,,,,,,,,,,,,,,,,,,4252.8399999999965,,timeout,,,,,,,,,2,,,,,,,,I,S,O,,99628,99626.34,95373.76,95378,95389.66,99642.5,,,
Judgement,html.Screen,1_3_4_1,2022-05-09T16:29:35.697Z,,,,,,,,,,,,,,,,,,,,,,,,,,,,true,2,,656.5,,response,,,,,,,,,2,,2,click #choice-2,,,,,I,S,O,,100304,100299,99626.34,99630,99642.5,100318.72,,,
Trial,flow.Sequence,1_3_4,2022-05-09T16:29:35.698Z,,,,,,,,,,,,,,,,,,,,,,,,,,,,,,,4909.3399999999965,,completion,,,,,,,,,2,,,,,,,,I,S,O,,100306,100299,95373.76,95378,95389.66,100318.72,,,
Sounds,html.Screen,1_3_5_0,2022-05-09T16:29:39.948Z,,,,,,,,,,,,,,,,,,,,,,,,,,,,,,,4251.759999999995,,timeout,,,,,,,,,3,,,,,,,,I,O,S,,104556,104554.24,100302.8,100307,100318.72,104570.48,,,
Judgement,html.Screen,1_3_5_1,2022-05-09T16:29:40.617Z,,,,,,,,,,,,,,,,,,,,,,,,,,,,true,3,,647.5200000000041,,response,,,,,,,,,3,,3,click #choice-3,,,,,I,O,S,,105225,105218,104554.24,104557,104570.48,105238.76,,,
Trial,flow.Sequence,1_3_5,2022-05-09T16:29:40.618Z,,,,,,,,,,,,,,,,,,,,,,,,,,,,,,,4899.279999999999,,completion,,,,,,,,,3,,,,,,,,I,O,S,,105226,105218,100302.8,100306,100318.72,105238.76,,,
Task,flow.Loop,1_3,2022-05-09T16:29:40.621Z,,,,,,,,,,,,,,,,,,,,,,,,,,,,,,,30264.28,,completion,,,1,,,,,,,,,,,,,,,,,,105227,105218,74936.54,74939,74953.72,105238.76,,,
Trap,html.Screen,1_4,2022-05-09T16:29:40.628Z,,,,,,,,,,,,,,,,,,,,,,,,,,,,,,,NaN,,skipped,,,,,,,,,,,,,,,,,,,,,105236,105218,,105235,,105238.76,,,
Thanks,html.Screen,1_5,2022-05-09T16:29:44.944Z,,,,,,,,,,,,,,,,,,,,,,,,,,,,,,,4308.240000000005,,response,,,,,,,,,,,continue,click button,,,,,,,,,109552,109547,105222.86,105236,105238.76,115001.44,,,
Headphone screening,flow.Sequence,1,2022-05-09T16:29:44.945Z,,,,,,,,,,,,,,,,,,,,,,,,,,,,,,,75394.22,,completion,,,,,,,,,,,,,,,,,,,,,109552,109547,34138.86,34157,34152.78,115001.44,,,
Instructions,html.Page,2_0,2022-05-09T16:30:17.830Z,,,,,,,,,,,,,,,,,,,,,,,,,,,,,,,27433.559999999998,,form submission,,,,,,,,,,,,,,,,,,,,,142437,142435,114986.46,114987,115001.44,142445.16,,,
Holding screen,html.Screen,2_1_0_0,2022-05-09T16:30:27.831Z,,,,,,,,,,,,,,,,,,,,,,,,,,,,,,,10006.98000000001,,timeout,,,,,,,,,,,,,,,,,,,,,152438,152434.98,142428,142441,142445.16,152452.14,,,
screen,html.Screen,2_1_0_1_0,2022-05-09T16:30:28.992Z,,,,,,,,,,,,,,,,,53,,,,,,,,,,,,,,1144.859999999986,,response,,,,99,,,,,,,Space,keypress(Space),,,,,,,,When -- ----- -- ------ - ------- --- ----------<br>------------- ------ ------ ---- ---- ------- ----- -- ----<br>-------- ------- -- ---------- --- - --- ----- ----- ----<br>---- --- --- ----- --- ---- ---- ------- ----- ---- -------<br>--- --- -- ----- -- --- ---- -- --- ---- -- ------ ------<br>--- ----- -- ----,153600,153597,152434.98,152440,152452.14,153600.88,,0,When
screen,html.Screen,2_1_0_1_1,2022-05-09T16:30:29.513Z,,,,,,,,,,,,,,,,,53,,,,,,,,,,,,,,515.1199999999953,,response,,,,99,,,,,,,Space,keypress(Space),,,,,,,,---- it ----- -- ------ - ------- --- ----------<br>------------- ------ ------ ---- ---- ------- ----- -- ----<br>-------- ------- -- ---------- --- - --- ----- ----- ----<br>---- --- --- ----- --- ---- ---- ------- ----- ---- -------<br>--- --- -- ----- -- --- ---- -- --- ---- -- ------ ------<br>--- ----- -- ----,154120,154116,153600.62,153600,153600.88,154155.9,,1,it
screen,html.Screen,2_1_0_1_2,2022-05-09T16:30:30.028Z,,,,,,,,,,,,,,,,,53,,,,,,,,,,,,,,477.1000000000058,,response,,,,99,,,,,,,Space,keypress(Space),,,,,,,,---- -- comes -- ------ - ------- --- ----------<br>------------- ------ ------ ---- ---- ------- ----- -- ----<br>-------- ------- -- ---------- --- - --- ----- ----- ----<br>---- --- --- ----- --- ---- ---- ------- ----- ---- -------<br>--- --- -- ----- -- --- ---- -- --- ---- -- ------ ------<br>--- ----- -- ----,154636,154633,154122.02,154122,154155.9,154638.3,,2,comes
screen,html.Screen,2_1_0_1_3,2022-05-09T16:30:30.577Z,,,,,,,,,,,,,,,,,53,,,,,,,,,,,,,,543.7000000000116,,response,,,,99,,,,,,,Space,keypress(Space),,,,,,,,---- -- ----- to ------ - ------- --- ----------<br>------------- ------ ------ ---- ---- ------- ----- -- ----<br>-------- ------- -- ---------- --- - --- ----- ----- ----<br>---- --- --- ----- --- ---- ---- ------- ----- ---- -------<br>--- --- -- ----- -- --- ---- -- --- ---- -- ------ ------<br>--- ----- -- ----,155184,155182,154637.74,154638,154638.3,155188.62,,3,to
screen,html.Screen,2_1_0_1_4,2022-05-09T16:30:31.127Z,,,,,,,,,,,,,,,,,53,,,,,,,,,,,,,,542.3800000000047,,response,,,,99,,,,,,,Space,keypress(Space),,,,,,,,---- -- ----- -- having - ------- --- ----------<br>------------- ------ ------ ---- ---- ------- ----- -- ----<br>-------- ------- -- ---------- --- - --- ----- ----- ----<br>---- --- --- ----- --- ---- ---- ------- ----- ---- -------<br>--- --- -- ----- -- --- ---- -- --- ---- -- ------ ------<br>--- ----- -- ----,155735,155731,155188.02,155188,155188.62,155737.38,,4,having
screen,html.Screen,2_1_0_1_5,2022-05-09T16:30:31.611Z,,,,,,,,,,,,,,,,,53,,,,,,,,,,,,,,477.61999999999534,,response,,,,99,,,,,,,Space,keypress(Space),,,,,,,,---- -- ----- -- ------ a ------- --- ----------<br>------------- ------ ------ ---- ---- ------- ----- -- ----<br>-------- ------- -- ---------- --- - --- ----- ----- ----<br>---- --- --- ----- --- ---- ---- ------- ----- ---- -------<br>--- --- -- ----- -- --- ---- -- --- ---- -- ------ ------<br>--- ----- -- ----,156219,156215,155736.92,155737,155737.38,156220.66,,5,a
screen,html.Screen,2_1_0_1_6,2022-05-09T16:30:32.053Z,,,,,,,,,,,,,,,,,53,,,,,,,,,,,,,,436.3399999999965,,response,,,,99,,,,,,,Space,keypress(Space),,,,,,,,---- -- ----- -- ------ - lasting --- ----------<br>------------- ------ ------ ---- ---- ------- ----- -- ----<br>-------- ------- -- ---------- --- - --- ----- ----- ----<br>---- --- --- ----- --- ---- ---- ------- ----- ---- -------<br>--- --- -- ----- -- --- ---- -- --- ---- -- ------ ------<br>--- ----- -- ----,156660,156657,156220.28,156220,156220.66,156662.88,,6,lasting
screen,html.Screen,2_1_0_1_7,2022-05-09T16:30:32.644Z,,,,,,,,,,,,,,,,,53,,,,,,,,,,,,,,587.1199999999953,,response,,,,99,,,,,,,Space,keypress(Space),,,,,,,,---- -- ----- -- ------ - ------- and ----------<br>------------- ------ ------ ---- ---- ------- ----- -- ----<br>-------- ------- -- ---------- --- - --- ----- ----- ----<br>---- --- --- ----- --- ---- ---- ------- ----- ---- -------<br>--- --- -- ----- -- --- ---- -- --- ---- -- ------ ------<br>--- ----- -- ----,157252,157250,156662.36,156662,156662.88,157253.24,,7,and
screen,html.Screen,2_1_0_1_8,2022-05-09T16:30:33.175Z,,,,,,,,,,,,,,,,,53,,,,,,,,,,,,,,524.7600000000093,,response,,,,99,,,,,,,Space,keypress(Space),,,,,,,,---- -- ----- -- ------ - ------- --- fulfilling<br>------------- ------ ------ ---- ---- ------- ----- -- ----<br>-------- ------- -- ---------- --- - --- ----- ----- ----<br>---- --- --- ----- --- ---- ---- ------- ----- ---- -------<br>--- --- -- ----- -- --- ---- -- --- ---- -- ------ ------<br>--- ----- -- ----,157782,157778,157252.84,157252,157253.24,157783.92,,8,fulfilling
screen,html.Screen,2_1_0_1_9,2022-05-09T16:30:33.731Z,,,,,,,,,,,,,,,,,53,,,,,,,,,,,,,,552.0799999999872,,response,,,,99,,,,,,,Space,keypress(Space),,,,,,,,"---- -- ----- -- ------ - ------- --- ----------<br>relationship, ------ ------ ---- ---- ------- ----- -- ----<br>-------- ------- -- ---------- --- - --- ----- ----- ----<br>---- --- --- ----- --- ---- ---- ------- ----- ---- -------<br>--- --- -- ----- -- --- ---- -- --- ---- -- ------ ------<br>--- ----- -- ----",158338,158336,157783.56,157784,157783.92,158340.46,,9,"relationship,"
screen,html.Screen,2_1_0_1_10,2022-05-09T16:30:34.397Z,,,,,,,,,,,,,,,,,53,,,,,,,,,,,,,,660.5400000000081,,response,,,,99,,,,,,,Space,keypress(Space),,,,,,,,---- -- ----- -- ------ - ------- --- ----------<br>------------- common ------ ---- ---- ------- ----- -- ----<br>-------- ------- -- ---------- --- - --- ----- ----- ----<br>---- --- --- ----- --- ---- ---- ------- ----- ---- -------<br>--- --- -- ----- -- --- ---- -- --- ---- -- ------ ------<br>--- ----- -- ----,159004,159001,158339.88,158339,158340.46,159005.5,,10,common
screen,html.Screen,2_1_0_1_11,2022-05-09T16:30:34.977Z,,,,,,,,,,,,,,,,,53,,,,,,,,,,,,,,576.5,,response,,,,99,,,,,,,Space,keypress(Space),,,,,,,,---- -- ----- -- ------ - ------- --- ----------<br>------------- ------ wisdom ---- ---- ------- ----- -- ----<br>-------- ------- -- ---------- --- - --- ----- ----- ----<br>---- --- --- ----- --- ---- ---- ------- ----- ---- -------<br>--- --- -- ----- -- --- ---- -- --- ---- -- ------ ------<br>--- ----- -- ----,159585,159582,159004.96,159005,159005.5,159586.96,,11,wisdom
screen,html.Screen,2_1_0_1_12,2022-05-09T16:30:35.501Z,,,,,,,,,,,,,,,,,53,,,,,,,,,,,,,,519.0400000000081,,response,,,,99,,,,,,,Space,keypress(Space),,,,,,,,---- -- ----- -- ------ - ------- --- ----------<br>------------- ------ ------ says ---- ------- ----- -- ----<br>-------- ------- -- ---------- --- - --- ----- ----- ----<br>---- --- --- ----- --- ---- ---- ------- ----- ---- -------<br>--- --- -- ----- -- --- ---- -- --- ---- -- ------ ------<br>--- ----- -- ----,160108,160106,159586.42,159586,159586.96,160109.3,,12,says
screen,html.Screen,2_1_0_1_13,2022-05-09T16:30:36.044Z,,,,,,,,,,,,,,,,,53,,,,,,,,,,,,,,539.7000000000116,,response,,,,99,,,,,,,Space,keypress(Space),,,,,,,,---- -- ----- -- ------ - ------- --- ----------<br>------------- ------ ------ ---- that ------- ----- -- ----<br>-------- ------- -- ---------- --- - --- ----- ----- ----<br>---- --- --- ----- --- ---- ---- ------- ----- ---- -------<br>--- --- -- ----- -- --- ---- -- --- ---- -- ------ ------<br>--- ----- -- ----,160651,160649,160108.9,160109,160109.3,160652.92,,13,that
screen,html.Screen,2_1_0_1_14,2022-05-09T16:30:36.581Z,,,,,,,,,,,,,,,,,53,,,,,,,,,,,,,,532.0799999999872,,response,,,,99,,,,,,,Space,keypress(Space),,,,,,,,---- -- ----- -- ------ - ------- --- ----------<br>------------- ------ ------ ---- ---- feeling ----- -- ----<br>-------- ------- -- ---------- --- - --- ----- ----- ----<br>---- --- --- ----- --- ---- ---- ------- ----- ---- -------<br>--- --- -- ----- -- --- ---- -- --- ---- -- ------ ------<br>--- ----- -- ----,161188,161185,160652.42,160652,160652.92,161189.42,,14,feeling
screen,html.Screen,2_1_0_1_15,2022-05-09T16:30:37.121Z,,,,,,,,,,,,,,,,,53,,,,,,,,,,,,,,535.5799999999872,,response,,,,99,,,,,,,Space,keypress(Space),,,,,,,,---- -- ----- -- ------ - ------- --- ----------<br>------------- ------ ------ ---- ---- ------- close -- ----<br>-------- ------- -- ---------- --- - --- ----- ----- ----<br>---- --- --- ----- --- ---- ---- ------- ----- ---- -------<br>--- --- -- ----- -- --- ---- -- --- ---- -- ------ ------<br>--- ----- -- ----,161727,161725,161188.98,161189,161189.42,161729.22,,15,close
screen,html.Screen,2_1_0_1_16,2022-05-09T16:30:37.674Z,,,,,,,,,,,,,,,,,53,,,,,,,,,,,,,,549.7799999999988,,response,,,,99,,,,,,,Space,keypress(Space),,,,,,,,---- -- ----- -- ------ - ------- --- ----------<br>------------- ------ ------ ---- ---- ------- ----- to ----<br>-------- ------- -- ---------- --- - --- ----- ----- ----<br>---- --- --- ----- --- ---- ---- ------- ----- ---- -------<br>--- --- -- ----- -- --- ---- -- --- ---- -- ------ ------<br>--- ----- -- ----,162281,162279,161728.76,161728,161729.22,162281.92,,16,to
screen,html.Screen,2_1_0_1_17,2022-05-09T16:30:38.256Z,,,,,,,,,,,,,,,,,53,,,,,,,,,,,,,,580.0799999999872,,response,,,,99,,,,,,,Space,keypress(Space),,,,,,,,---- -- ----- -- ------ - ------- --- ----------<br>------------- ------ ------ ---- ---- ------- ----- -- your<br>-------- ------- -- ---------- --- - --- ----- ----- ----<br>---- --- --- ----- --- ---- ---- ------- ----- ---- -------<br>--- --- -- ----- -- --- ---- -- --- ---- -- ------ ------<br>--- ----- -- ----,162863,162862,162281.56,162281,162281.92,162864.48,,17,your
screen,html.Screen,2_1_0_1_18,2022-05-09T16:30:38.792Z,,,,,,,,,,,,,,,,,53,,,,,,,,,,,,,,532.5199999999895,,response,,,,99,,,,,,,Space,keypress(Space),,,,,,,,---- -- ----- -- ------ - ------- --- ----------<br>------------- ------ ------ ---- ---- ------- ----- -- ----<br>romantic ------- -- ---------- --- - --- ----- ----- ----<br>---- --- --- ----- --- ---- ---- ------- ----- ---- -------<br>--- --- -- ----- -- --- ---- -- --- ---- -- ------ ------<br>--- ----- -- ----,163399,163397,162863.96,162864,162864.48,163400.24,,18,romantic
screen,html.Screen,2_1_0_1_19,2022-05-09T16:30:39.361Z,,,,,,,,,,,,,,,,,53,,,,,,,,,,,,,,564.7600000000093,,response,,,,99,,,,,,,Space,keypress(Space),,,,,,,,---- -- ----- -- ------ - ------- --- ----------<br>------------- ------ ------ ---- ---- ------- ----- -- ----<br>-------- partner -- ---------- --- - --- ----- ----- ----<br>---- --- --- ----- --- ---- ---- ------- ----- ---- -------<br>--- --- -- ----- -- --- ---- -- --- ---- -- ------ ------<br>--- ----- -- ----,163968,163965,163399.94,163400,163400.24,163969.58,,19,partner
screen,html.Screen,2_1_0_1_20,2022-05-09T16:30:39.894Z,,,,,,,,,,,,,,,,,53,,,,,,,,,,,,,,529.4200000000128,,response,,,,99,,,,,,,Space,keypress(Space),,,,,,,,---- -- ----- -- ------ - ------- --- ----------<br>------------- ------ ------ ---- ---- ------- ----- -- ----<br>-------- ------- is ---------- --- - --- ----- ----- ----<br>---- --- --- ----- --- ---- ---- ------- ----- ---- -------<br>--- --- -- ----- -- --- ---- -- --- ---- -- ------ ------<br>--- ----- -- ----,164502,164499,163969.08,163969,163969.58,164504.26,,20,is
screen,html.Screen,2_1_0_1_21,2022-05-09T16:30:40.438Z,,,,,,,,,,,,,,,,,53,,,,,,,,,,,,,,538.7399999999907,,response,,,,99,,,,,,,Space,keypress(Space),,,,,,,,---- -- ----- -- ------ - ------- --- ----------<br>------------- ------ ------ ---- ---- ------- ----- -- ----<br>-------- ------- -- paramount. --- - --- ----- ----- ----<br>---- --- --- ----- --- ---- ---- ------- ----- ---- -------<br>--- --- -- ----- -- --- ---- -- --- ---- -- ------ ------<br>--- ----- -- ----,165045,165043,164503.74,164504,164504.26,165046.08,,21,paramount.
screen,html.Screen,2_1_0_1_22,2022-05-09T16:30:41.045Z,,,,,,,,,,,,,,,,,53,,,,,,,,,,,,,,603.9200000000128,,response,,,,99,,,,,,,Space,keypress(Space),,,,,,,,---- -- ----- -- ------ - ------- --- ----------<br>------------- ------ ------ ---- ---- ------- ----- -- ----<br>-------- ------- -- ---------- But - --- ----- ----- ----<br>---- --- --- ----- --- ---- ---- ------- ----- ---- -------<br>--- --- -- ----- -- --- ---- -- --- ---- -- ------ ------<br>--- ----- -- ----,165652,165650,165045.72,165045,165046.08,165655.02,,22,But
screen,html.Screen,2_1_0_1_23,2022-05-09T16:30:41.590Z,,,,,,,,,,,,,,,,,53,,,,,,,,,,,,,,539.9800000000105,,response,,,,99,,,,,,,Space,keypress(Space),,,,,,,,---- -- ----- -- ------ - ------- --- ----------<br>------------- ------ ------ ---- ---- ------- ----- -- ----<br>-------- ------- -- ---------- --- a --- ----- ----- ----<br>---- --- --- ----- --- ---- ---- ------- ----- ---- -------<br>--- --- -- ----- -- --- ---- -- --- ---- -- ------ ------<br>--- ----- -- ----,166198,166195,165654.52,165655,165655.02,166199.3,,23,a
screen,html.Screen,2_1_0_1_24,2022-05-09T16:30:42.047Z,,,,,,,,,,,,,,,,,53,,,,,,,,,,,,,,452.70000000001164,,response,,,,99,,,,,,,Space,keypress(Space),,,,,,,,---- -- ----- -- ------ - ------- --- ----------<br>------------- ------ ------ ---- ---- ------- ----- -- ----<br>-------- ------- -- ---------- --- - new ----- ----- ----<br>---- --- --- ----- --- ---- ---- ------- ----- ---- -------<br>--- --- -- ----- -- --- ---- -- --- ---- -- ------ ------<br>--- ----- -- ----,166654,166652,166198.78,166198,166199.3,166655.2,,24,new
screen,html.Screen,2_1_0_1_25,2022-05-09T16:30:42.436Z,,,,,,,,,,,,,,,,,53,,,,,,,,,,,,,,385.79999999998836,,response,,,,99,,,,,,,Space,keypress(Space),,,,,,,,---- -- ----- -- ------ - ------- --- ----------<br>------------- ------ ------ ---- ---- ------- ----- -- ----<br>-------- ------- -- ---------- --- - --- study ----- ----<br>---- --- --- ----- --- ---- ---- ------- ----- ---- -------<br>--- --- -- ----- -- --- ---- -- --- ---- -- ------ ------<br>--- ----- -- ----,167044,167041,166654.82,166654,166655.2,167044.92,,25,study
screen,html.Screen,2_1_0_1_26,2022-05-09T16:30:42.803Z,,,,,,,,,,,,,,,,,53,,,,,,,,,,,,,,364.0799999999872,,response,,,,99,,,,,,,Space,keypress(Space),,,,,,,,---- -- ----- -- ------ - ------- --- ----------<br>------------- ------ ------ ---- ---- ------- ----- -- ----<br>-------- ------- -- ---------- --- - --- ----- finds ----<br>---- --- --- ----- --- ---- ---- ------- ----- ---- -------<br>--- --- -- ----- -- --- ---- -- --- ---- -- ------ ------<br>--- ----- -- ----,167410,167409,167044.36,167044,167044.92,167411.76,,26,finds
screen,html.Screen,2_1_0_1_27,2022-05-09T16:30:43.150Z,,,,,,,,,,,,,,,,,53,,,,,,,,,,,,,,342.2399999999907,,response,,,,99,,,,,,,Space,keypress(Space),,,,,,,,---- -- ----- -- ------ - ------- --- ----------<br>------------- ------ ------ ---- ---- ------- ----- -- ----<br>-------- ------- -- ---------- --- - --- ----- ----- that<br>---- --- --- ----- --- ---- ---- ------- ----- ---- -------<br>--- --- -- ----- -- --- ---- -- --- ---- -- ------ ------<br>--- ----- -- ----,167757,167754,167411.4,167411,167411.76,167758.04,,27,that
screen,html.Screen,2_1_0_1_28,2022-05-09T16:30:43.570Z,,,,,,,,,,,,,,,,,53,,,,,,,,,,,,,,417.95999999999185,,response,,,,99,,,,,,,Space,keypress(Space),,,,,,,,---- -- ----- -- ------ - ------- --- ----------<br>------------- ------ ------ ---- ---- ------- ----- -- ----<br>-------- ------- -- ---------- --- - --- ----- ----- ----<br>it's --- --- ----- --- ---- ---- ------- ----- ---- -------<br>--- --- -- ----- -- --- ---- -- --- ---- -- ------ ------<br>--- ----- -- ----,168177,168176,167757.56,167758,167758.04,168179.02,,28,it's
screen,html.Screen,2_1_0_1_29,2022-05-09T16:30:43.912Z,,,,,,,,,,,,,,,,,53,,,,,,,,,,,,,,337.9800000000105,,response,,,,99,,,,,,,Space,keypress(Space),,,,,,,,---- -- ----- -- ------ - ------- --- ----------<br>------------- ------ ------ ---- ---- ------- ----- -- ----<br>-------- ------- -- ---------- --- - --- ----- ----- ----<br>---- not --- ----- --- ---- ---- ------- ----- ---- -------<br>--- --- -- ----- -- --- ---- -- --- ---- -- ------ ------<br>--- ----- -- ----,168519,168517,168178.48,168178,168179.02,168520.64,,29,not
screen,html.Screen,2_1_0_1_30,2022-05-09T16:30:44.219Z,,,,,,,,,,,,,,,,,53,,,,,,,,,,,,,,303.35999999998603,,response,,,,99,,,,,,,Space,keypress(Space),,,,,,,,---- -- ----- -- ------ - ------- --- ----------<br>------------- ------ ------ ---- ---- ------- ----- -- ----<br>-------- ------- -- ---------- --- - --- ----- ----- ----<br>---- --- how ----- --- ---- ---- ------- ----- ---- -------<br>--- --- -- ----- -- --- ---- -- --- ---- -- ------ ------<br>--- ----- -- ----,168827,168824,168520.12,168520,168520.64,168828.8,,30,how
screen,html.Screen,2_1_0_1_31,2022-05-09T16:30:44.905Z,,,,,,,,,,,,,,,,,53,,,,,,,,,,,,,,681.2000000000116,,response,,,,99,,,,,,,Space,keypress(Space),,,,,,,,---- -- ----- -- ------ - ------- --- ----------<br>------------- ------ ------ ---- ---- ------- ----- -- ----<br>-------- ------- -- ---------- --- - --- ----- ----- ----<br>---- --- --- close --- ---- ---- ------- ----- ---- -------<br>--- --- -- ----- -- --- ---- -- --- ---- -- ------ ------<br>--- ----- -- ----,169513,169510,168828.28,168828,168828.8,169513.44,,31,close
screen,html.Screen,2_1_0_1_32,2022-05-09T16:30:45.228Z,,,,,,,,,,,,,,,,,53,,,,,,,,,,,,,,317.5599999999977,,response,,,,99,,,,,,,Space,keypress(Space),,,,,,,,---- -- ----- -- ------ - ------- --- ----------<br>------------- ------ ------ ---- ---- ------- ----- -- ----<br>-------- ------- -- ---------- --- - --- ----- ----- ----<br>---- --- --- ----- you ---- ---- ------- ----- ---- -------<br>--- --- -- ----- -- --- ---- -- --- ---- -- ------ ------<br>--- ----- -- ----,169834,169831,169513.08,169513,169513.44,169836.18,,32,you
screen,html.Screen,2_1_0_1_33,2022-05-09T16:30:45.543Z,,,,,,,,,,,,,,,,,53,,,,,,,,,,,,,,312.820000000007,,response,,,,99,,,,,,,Space,keypress(Space),,,,,,,,---- -- ----- -- ------ - ------- --- ----------<br>------------- ------ ------ ---- ---- ------- ----- -- ----<br>-------- ------- -- ---------- --- - --- ----- ----- ----<br>---- --- --- ----- --- feel ---- ------- ----- ---- -------<br>--- --- -- ----- -- --- ---- -- --- ---- -- ------ ------<br>--- ----- -- ----,170151,170149,169835.76,169836,169836.18,170152.48,,33,feel
screen,html.Screen,2_1_0_1_34,2022-05-09T16:30:46.119Z,,,,,,,,,,,,,,,,,53,,,,,,,,,,,,,,571.5199999999895,,response,,,,99,,,,,,,Space,keypress(Space),,,,,,,,---- -- ----- -- ------ - ------- --- ----------<br>------------- ------ ------ ---- ---- ------- ----- -- ----<br>-------- ------- -- ---------- --- - --- ----- ----- ----<br>---- --- --- ----- --- ---- that ------- ----- ---- -------<br>--- --- -- ----- -- --- ---- -- --- ---- -- ------ ------<br>--- ----- -- ----,170725,170724,170151.98,170151,170152.48,170727.6,,34,that
screen,html.Screen,2_1_0_1_35,2022-05-09T16:30:46.705Z,,,,,,,,,,,,,,,,,53,,,,,,,,,,,,,,581.3999999999942,,response,,,,99,,,,,,,Space,keypress(Space),,,,,,,,---- -- ----- -- ------ - ------- --- ----------<br>------------- ------ ------ ---- ---- ------- ----- -- ----<br>-------- ------- -- ---------- --- - --- ----- ----- ----<br>---- --- --- ----- --- ---- ---- matters ----- ---- -------<br>--- --- -- ----- -- --- ---- -- --- ---- -- ------ ------<br>--- ----- -- ----,171312,171309,170727,170727,170727.6,171313.32,,35,matters
screen,html.Screen,2_1_0_1_36,2022-05-09T16:30:47.003Z,,,,,,,,,,,,,,,,,53,,,,,,,,,,,,,,292.679999999993,,response,,,,99,,,,,,,Space,keypress(Space),,,,,,,,"---- -- ----- -- ------ - ------- --- ----------<br>------------- ------ ------ ---- ---- ------- ----- -- ----<br>-------- ------- -- ---------- --- - --- ----- ----- ----<br>---- --- --- ----- --- ---- ---- ------- most, ---- -------<br>--- --- -- ----- -- --- ---- -- --- ---- -- ------ ------<br>--- ----- -- ----",171610,171606,171312.82,171312,171313.32,171611.28,,36,"most,"
screen,html.Screen,2_1_0_1_37,2022-05-09T16:30:47.262Z,,,,,,,,,,,,,,,,,53,,,,,,,,,,,,,,253.72000000000116,,response,,,,99,,,,,,,Space,keypress(Space),,,,,,,,---- -- ----- -- ------ - ------- --- ----------<br>------------- ------ ------ ---- ---- ------- ----- -- ----<br>-------- ------- -- ---------- --- - --- ----- ----- ----<br>---- --- --- ----- --- ---- ---- ------- ----- it's -------<br>--- --- -- ----- -- --- ---- -- --- ---- -- ------ ------<br>--- ----- -- ----,171869,171865,171610.8,171611,171611.28,171871.04,,37,it's
screen,html.Screen,2_1_0_1_38,2022-05-09T16:30:47.575Z,,,,,,,,,,,,,,,,,53,,,,,,,,,,,,,,308.95999999999185,,response,,,,99,,,,,,,Space,keypress(Space),,,,,,,,---- -- ----- -- ------ - ------- --- ----------<br>------------- ------ ------ ---- ---- ------- ----- -- ----<br>-------- ------- -- ---------- --- - --- ----- ----- ----<br>---- --- --- ----- --- ---- ---- ------- ----- ---- whether<br>--- --- -- ----- -- --- ---- -- --- ---- -- ------ ------<br>--- ----- -- ----,172182,172180,171870.52,171871,171871.04,172183.24,,38,whether
screen,html.Screen,2_1_0_1_39,2022-05-09T16:30:47.926Z,,,,,,,,,,,,,,,,,53,,,,,,,,,,,,,,346.7600000000093,,response,,,,99,,,,,,,Space,keypress(Space),,,,,,,,---- -- ----- -- ------ - ------- --- ----------<br>------------- ------ ------ ---- ---- ------- ----- -- ----<br>-------- ------- -- ---------- --- - --- ----- ----- ----<br>---- --- --- ----- --- ---- ---- ------- ----- ---- -------<br>you --- -- ----- -- --- ---- -- --- ---- -- ------ ------<br>--- ----- -- ----,172532,172530,172182.86,172182,172183.24,172534.6,,39,you
screen,html.Screen,2_1_0_1_40,2022-05-09T16:30:48.153Z,,,,,,,,,,,,,,,,,53,,,,,,,,,,,,,,223.39999999999418,,response,,,,99,,,,,,,Space,keypress(Space),,,,,,,,---- -- ----- -- ------ - ------- --- ----------<br>------------- ------ ------ ---- ---- ------- ----- -- ----<br>-------- ------- -- ---------- --- - --- ----- ----- ----<br>---- --- --- ----- --- ---- ---- ------- ----- ---- -------<br>--- are -- ----- -- --- ---- -- --- ---- -- ------ ------<br>--- ----- -- ----,172761,172758,172533.78,172533,172534.6,172762.16,,40,are
screen,html.Screen,2_1_0_1_41,2022-05-09T16:30:48.508Z,,,,,,,,,,,,,,,,,53,,,,,,,,,,,,,,351.8399999999965,,response,,,,99,,,,,,,Space,keypress(Space),,,,,,,,---- -- ----- -- ------ - ------- --- ----------<br>------------- ------ ------ ---- ---- ------- ----- -- ----<br>-------- ------- -- ---------- --- - --- ----- ----- ----<br>---- --- --- ----- --- ---- ---- ------- ----- ---- -------<br>--- --- as ----- -- --- ---- -- --- ---- -- ------ ------<br>--- ----- -- ----,173116,173114,172761.5,172762,172762.16,173117.92,,41,as
screen,html.Screen,2_1_0_1_42,2022-05-09T16:30:48.777Z,,,,,,,,,,,,,,,,,53,,,,,,,,,,,,,,265.0799999999872,,response,,,,99,,,,,,,Space,keypress(Space),,,,,,,,---- -- ----- -- ------ - ------- --- ----------<br>------------- ------ ------ ---- ---- ------- ----- -- ----<br>-------- ------- -- ---------- --- - --- ----- ----- ----<br>---- --- --- ----- --- ---- ---- ------- ----- ---- -------<br>--- --- -- close -- --- ---- -- --- ---- -- ------ ------<br>--- ----- -- ----,173384,173383,173117.54,173118,173117.92,173385.22,,42,close
screen,html.Screen,2_1_0_1_43,2022-05-09T16:30:49.487Z,,,,,,,,,,,,,,,,,53,,,,,,,,,,,,,,706.7799999999988,,response,,,,99,,,,,,,Space,keypress(Space),,,,,,,,---- -- ----- -- ------ - ------- --- ----------<br>------------- ------ ------ ---- ---- ------- ----- -- ----<br>-------- ------- -- ---------- --- - --- ----- ----- ----<br>---- --- --- ----- --- ---- ---- ------- ----- ---- -------<br>--- --- -- ----- as --- ---- -- --- ---- -- ------ ------<br>--- ----- -- ----,174094,174092,173384.88,173384,173385.22,174095.46,,43,as
screen,html.Screen,2_1_0_1_44,2022-05-09T16:30:49.791Z,,,,,,,,,,,,,,,,,53,,,,,,,,,,,,,,299.54000000000815,,response,,,,99,,,,,,,Space,keypress(Space),,,,,,,,---- -- ----- -- ------ - ------- --- ----------<br>------------- ------ ------ ---- ---- ------- ----- -- ----<br>-------- ------- -- ---------- --- - --- ----- ----- ----<br>---- --- --- ----- --- ---- ---- ------- ----- ---- -------<br>--- --- -- ----- -- you ---- -- --- ---- -- ------ ------<br>--- ----- -- ----,174397,174395,174095.14,174095,174095.46,174398.66,,44,you
screen,html.Screen,2_1_0_1_45,2022-05-09T16:30:50.078Z,,,,,,,,,,,,,,,,,53,,,,,,,,,,,,,,284.3399999999965,,response,,,,99,,,,,,,Space,keypress(Space),,,,,,,,---- -- ----- -- ------ - ------- --- ----------<br>------------- ------ ------ ---- ---- ------- ----- -- ----<br>-------- ------- -- ---------- --- - --- ----- ----- ----<br>---- --- --- ----- --- ---- ---- ------- ----- ---- -------<br>--- --- -- ----- -- --- want -- --- ---- -- ------ ------<br>--- ----- -- ----,174685,174683,174398.38,174398,174398.66,174686.56,,45,want
screen,html.Screen,2_1_0_1_46,2022-05-09T16:30:50.409Z,,,,,,,,,,,,,,,,,53,,,,,,,,,,,,,,325.4400000000023,,response,,,,99,,,,,,,Space,keypress(Space),,,,,,,,---- -- ----- -- ------ - ------- --- ----------<br>------------- ------ ------ ---- ---- ------- ----- -- ----<br>-------- ------- -- ---------- --- - --- ----- ----- ----<br>---- --- --- ----- --- ---- ---- ------- ----- ---- -------<br>--- --- -- ----- -- --- ---- to --- ---- -- ------ ------<br>--- ----- -- ----,175016,175012,174686.04,174686,174686.56,175017.32,,46,to
screen,html.Screen,2_1_0_1_47,2022-05-09T16:30:50.962Z,,,,,,,,,,,,,,,,,53,,,,,,,,,,,,,,549.679999999993,,response,,,,99,,,,,,,Space,keypress(Space),,,,,,,,"---- -- ----- -- ------ - ------- --- ----------<br>------------- ------ ------ ---- ---- ------- ----- -- ----<br>-------- ------- -- ---------- --- - --- ----- ----- ----<br>---- --- --- ----- --- ---- ---- ------- ----- ---- -------<br>--- --- -- ----- -- --- ---- -- be, ---- -- ------ ------<br>--- ----- -- ----",175569,175567,175016.8,175017,175017.32,175570.62,,47,"be,"
screen,html.Screen,2_1_0_1_48,2022-05-09T16:30:51.406Z,,,,,,,,,,,,,,,,,53,,,,,,,,,,,,,,440.38000000000466,,response,,,,99,,,,,,,Space,keypress(Space),,,,,,,,---- -- ----- -- ------ - ------- --- ----------<br>------------- ------ ------ ---- ---- ------- ----- -- ----<br>-------- ------- -- ---------- --- - --- ----- ----- ----<br>---- --- --- ----- --- ---- ---- ------- ----- ---- -------<br>--- --- -- ----- -- --- ---- -- --- even -- ------ ------<br>--- ----- -- ----,176013,176011,175570.28,175570,175570.62,176014.26,,48,even
screen,html.Screen,2_1_0_1_49,2022-05-09T16:30:51.765Z,,,,,,,,,,,,,,,,,53,,,,,,,,,,,,,,355.7399999999907,,response,,,,99,,,,,,,Space,keypress(Space),,,,,,,,---- -- ----- -- ------ - ------- --- ----------<br>------------- ------ ------ ---- ---- ------- ----- -- ----<br>-------- ------- -- ---------- --- - --- ----- ----- ----<br>---- --- --- ----- --- ---- ---- ------- ----- ---- -------<br>--- --- -- ----- -- --- ---- -- --- ---- if ------ ------<br>--- ----- -- ----,176372,176370,176013.88,176014,176014.26,176373.72,,49,if
screen,html.Screen,2_1_0_1_50,2022-05-09T16:30:52.195Z,,,,,,,,,,,,,,,,,53,,,,,,,,,,,,,,426.27999999999884,,response,,,,99,,,,,,,Space,keypress(Space),,,,,,,,---- -- ----- -- ------ - ------- --- ----------<br>------------- ------ ------ ---- ---- ------- ----- -- ----<br>-------- ------- -- ---------- --- - --- ----- ----- ----<br>---- --- --- ----- --- ---- ---- ------- ----- ---- -------<br>--- --- -- ----- -- --- ---- -- --- ---- -- that's ------<br>--- ----- -- ----,176802,176800,176373.36,176373,176373.72,176802.76,,50,that's
screen,html.Screen,2_1_0_1_51,2022-05-09T16:30:52.677Z,,,,,,,,,,,,,,,,,53,,,,,,,,,,,,,,479.2399999999907,,response,,,,99,,,,,,,Space,keypress(Space),,,,,,,,---- -- ----- -- ------ - ------- --- ----------<br>------------- ------ ------ ---- ---- ------- ----- -- ----<br>-------- ------- -- ---------- --- - --- ----- ----- ----<br>---- --- --- ----- --- ---- ---- ------- ----- ---- -------<br>--- --- -- ----- -- --- ---- -- --- ---- -- ------ really<br>--- ----- -- ----,177284,177282,176802.5,176803,176802.76,177285.64,,51,really
screen,html.Screen,2_1_0_1_52,2022-05-09T16:30:53.118Z,,,,,,,,,,,,,,,,,53,,,,,,,,,,,,,,436.35999999998603,,response,,,,99,,,,,,,Space,keypress(Space),,,,,,,,---- -- ----- -- ------ - ------- --- ----------<br>------------- ------ ------ ---- ---- ------- ----- -- ----<br>-------- ------- -- ---------- --- - --- ----- ----- ----<br>---- --- --- ----- --- ---- ---- ------- ----- ---- -------<br>--- --- -- ----- -- --- ---- -- --- ---- -- ------ ------<br>not ----- -- ----,177726,177722,177285.14,177285,177285.64,177727.02,,52,not
screen,html.Screen,2_1_0_1_53,2022-05-09T16:30:53.545Z,,,,,,,,,,,,,,,,,53,,,,,,,,,,,,,,422.9800000000105,,response,,,,99,,,,,,,Space,keypress(Space),,,,,,,,---- -- ----- -- ------ - ------- --- ----------<br>------------- ------ ------ ---- ---- ------- ----- -- ----<br>-------- ------- -- ---------- --- - --- ----- ----- ----<br>---- --- --- ----- --- ---- ---- ------- ----- ---- -------<br>--- --- -- ----- -- --- ---- -- --- ---- -- ------ ------<br>--- close -- ----,178152,178150,177726.54,177726,177727.02,178156.5,,53,close
screen,html.Screen,2_1_0_1_54,2022-05-09T16:30:54.041Z,,,,,,,,,,,,,,,,,53,,,,,,,,,,,,,,490.5,,response,,,,99,,,,,,,Space,keypress(Space),,,,,,,,---- -- ----- -- ------ - ------- --- ----------<br>------------- ------ ------ ---- ---- ------- ----- -- ----<br>-------- ------- -- ---------- --- - --- ----- ----- ----<br>---- --- --- ----- --- ---- ---- ------- ----- ---- -------<br>--- --- -- ----- -- --- ---- -- --- ---- -- ------ ------<br>--- ----- at ----,178648,178647,178153.18,178153,178156.5,178651.4,,54,at
screen,html.Screen,2_1_0_1_55,2022-05-09T16:30:55.313Z,,,,,,,,,,,,,,,,,53,,,,,,,,,,,,,,1266.6000000000058,,response,,,,99,,,,,,,Space,keypress(Space),,,,,,,,---- -- ----- -- ------ - ------- --- ----------<br>------------- ------ ------ ---- ---- ------- ----- -- ----<br>-------- ------- -- ---------- --- - --- ----- ----- ----<br>---- --- --- ----- --- ---- ---- ------- ----- ---- -------<br>--- --- -- ----- -- --- ---- -- --- ---- -- ------ ------<br>--- ----- -- all.,179920,179918,178650.9,178651,178651.4,179923.6,,55,all.
Item 99,flow.Loop,2_1_0_1,2022-05-09T16:30:55.314Z,,,,,,,,,,,,,,,,,,,,,,,,,,,,,,,27465.859999999986,,completion,,,,,G,,,,,,,,,,,silence,,,,,179922,179918,152434.98,152440,152452.14,179923.6,,,
Question 1,html.Screen,2_1_0_2,2022-05-09T16:31:01.367Z,,,,,,,,,,,,,,,,,,,,,,,,,,,,false,FALSE,,6042.399999999994,,response,,,,99,G,,,,,,TRUE,click #choice-1,,,,silence,,,,,185974,185966,179923.1,179923,179923.6,185989.08,,,
Question 2,html.Screen,2_1_0_3,2022-05-09T16:31:09.107Z,,,,,,,,,,,,,,,,,,,,,,,,,,,,true,TRUE,,7720.920000000013,,response,,,,99,G,,,,,,TRUE,click #choice-1,,,,silence,,,,,193714,193710,185972,185974,185989.08,193728.84,,,
Item 99,flow.Sequence,2_1_0,2022-05-09T16:31:09.108Z,,,,,,,,,,,,,,,,,,,,,,,,,,,,,,,51264.84,,completion,,,,,,,,,,,,,,,,,,,,,193715,193710,142428,142441,142445.16,193728.84,,,
Holding screen,html.Screen,2_1_1_0,2022-05-09T16:31:19.119Z,,,,,,,,,,,,,,,,,,,,,,,,,,,,,,,10006.360000000015,,timeout,,,,,,,,,,,,,,,,,,,,,203727,203719.04,193712.78,193716,193728.84,203735.2,,,
screen,html.Screen,2_1_1_1_0,2022-05-09T16:31:20.759Z,,,,,,,,,,,,,,,,,54,,,,,,,,,,,,,,1625.7999999999884,,response,,,,100,,,,,,,Space,keypress(Space),,,,,,,,At --- ---- --- ------ ----- ------- ---- -- --- ------- --<br>------- ---------- ------ -- ----- -- ----- -- ---- ------<br>--- ----- --- --- ------ -------- ----- --- ------ ----- --<br>----- ----- ---------- --- --- ------ ------ ---- -- ------<br>------- --- ------ ----- --- ---- ------- -- ---- --- --<br>------- ------,205365,205361,203719.04,203731,203735.2,205368.34,,0,At
screen,html.Screen,2_1_1_1_1,2022-05-09T16:31:21.180Z,,,,,,,,,,,,,,,,,54,,,,,,,,,,,,,,415.6600000000035,,response,,,,100,,,,,,,Space,keypress(Space),,,,,,,,-- the ---- --- ------ ----- ------- ---- -- --- ------- --<br>------- ---------- ------ -- ----- -- ----- -- ---- ------<br>--- ----- --- --- ------ -------- ----- --- ------ ----- --<br>----- ----- ---------- --- --- ------ ------ ---- -- ------<br>------- --- ------ ----- --- ---- ------- -- ---- --- --<br>------- ------,205787,205784,205367.84,205368,205368.34,205788.32,,1,the
screen,html.Screen,2_1_1_1_2,2022-05-09T16:31:21.513Z,,,,,,,,,,,,,,,,,54,,,,,,,,,,,,,,330.679999999993,,response,,,,100,,,,,,,Space,keypress(Space),,,,,,,,-- --- time --- ------ ----- ------- ---- -- --- ------- --<br>------- ---------- ------ -- ----- -- ----- -- ---- ------<br>--- ----- --- --- ------ -------- ----- --- ------ ----- --<br>----- ----- ---------- --- --- ------ ------ ---- -- ------<br>------- --- ------ ----- --- ---- ------- -- ---- --- --<br>------- ------,206121,206119,205787.94,205788,205788.32,206125.34,,2,time
screen,html.Screen,2_1_1_1_3,2022-05-09T16:31:21.793Z,,,,,,,,,,,,,,,,,54,,,,,,,,,,,,,,272.6600000000035,,response,,,,100,,,,,,,Space,keypress(Space),,,,,,,,-- --- ---- the ------ ----- ------- ---- -- --- ------- --<br>------- ---------- ------ -- ----- -- ----- -- ---- ------<br>--- ----- --- --- ------ -------- ----- --- ------ ----- --<br>----- ----- ---------- --- --- ------ ------ ---- -- ------<br>------- --- ------ ----- --- ---- ------- -- ---- --- --<br>------- ------,206401,206398,206122.1,206122,206125.34,206405.32,,3,the
screen,html.Screen,2_1_1_1_4,2022-05-09T16:31:22.106Z,,,,,,,,,,,,,,,,,54,,,,,,,,,,,,,,305.679999999993,,response,,,,100,,,,,,,Space,keypress(Space),,,,,,,,-- --- ---- --- French ----- ------- ---- -- --- ------- --<br>------- ---------- ------ -- ----- -- ----- -- ---- ------<br>--- ----- --- --- ------ -------- ----- --- ------ ----- --<br>----- ----- ---------- --- --- ------ ------ ---- -- ------<br>------- --- ------ ----- --- ---- ------- -- ---- --- --<br>------- ------,206714,206711,206401.9,206402,206405.32,206717.14,,4,French
screen,html.Screen,2_1_1_1_5,2022-05-09T16:31:22.421Z,,,,,,,,,,,,,,,,,54,,,,,,,,,,,,,,308.85999999998603,,response,,,,100,,,,,,,Space,keypress(Space),,,,,,,,-- --- ---- --- ------ crown ------- ---- -- --- ------- --<br>------- ---------- ------ -- ----- -- ----- -- ---- ------<br>--- ----- --- --- ------ -------- ----- --- ------ ----- --<br>----- ----- ---------- --- --- ------ ------ ---- -- ------<br>------- --- ------ ----- --- ---- ------- -- ---- --- --<br>------- ------,207029,207026,206716.58,206716,206717.14,207030.86,,5,crown
screen,html.Screen,2_1_1_1_6,2022-05-09T16:31:22.765Z,,,,,,,,,,,,,,,,,54,,,,,,,,,,,,,,338.14000000001397,,response,,,,100,,,,,,,Space,keypress(Space),,,,,,,,-- --- ---- --- ------ ----- secured ---- -- --- ------- --<br>------- ---------- ------ -- ----- -- ----- -- ---- ------<br>--- ----- --- --- ------ -------- ----- --- ------ ----- --<br>----- ----- ---------- --- --- ------ ------ ---- -- ------<br>------- --- ------ ----- --- ---- ------- -- ---- --- --<br>------- ------,207372,207369,207030.28,207030,207030.86,207374.08,,6,secured
screen,html.Screen,2_1_1_1_7,2022-05-09T16:31:23.054Z,,,,,,,,,,,,,,,,,54,,,,,,,,,,,,,,285.9200000000128,,response,,,,100,,,,,,,Space,keypress(Space),,,,,,,,-- --- ---- --- ------ ----- ------- much -- --- ------- --<br>------- ---------- ------ -- ----- -- ----- -- ---- ------<br>--- ----- --- --- ------ -------- ----- --- ------ ----- --<br>----- ----- ---------- --- --- ------ ------ ---- -- ------<br>------- --- ------ ----- --- ---- ------- -- ---- --- --<br>------- ------,207662,207660,207373.74,207374,207374.08,207662.96,,7,much
screen,html.Screen,2_1_1_1_8,2022-05-09T16:31:23.487Z,,,,,,,,,,,,,,,,,54,,,,,,,,,,,,,,429.04000000000815,,response,,,,100,,,,,,,Space,keypress(Space),,,,,,,,-- --- ---- --- ------ ----- ------- ---- of --- ------- --<br>------- ---------- ------ -- ----- -- ----- -- ---- ------<br>--- ----- --- --- ------ -------- ----- --- ------ ----- --<br>----- ----- ---------- --- --- ------ ------ ---- -- ------<br>------- --- ------ ----- --- ---- ------- -- ---- --- --<br>------- ------,208095,208092,207662.64,207663,207662.96,208097.36,,8,of
screen,html.Screen,2_1_1_1_9,2022-05-09T16:31:23.853Z,,,,,,,,,,,,,,,,,54,,,,,,,,,,,,,,357.64000000001397,,response,,,,100,,,,,,,Space,keypress(Space),,,,,,,,-- --- ---- --- ------ ----- ------- ---- -- its ------- --<br>------- ---------- ------ -- ----- -- ----- -- ---- ------<br>--- ----- --- --- ------ -------- ----- --- ------ ----- --<br>----- ----- ---------- --- --- ------ ------ ---- -- ------<br>------- --- ------ ----- --- ---- ------- -- ---- --- --<br>------- ------,208460,208455,208096.78,208097,208097.36,208462.96,,9,its
screen,html.Screen,2_1_1_1_10,2022-05-09T16:31:24.177Z,,,,,,,,,,,,,,,,,54,,,,,,,,,,,,,,319.04000000000815,,response,,,,100,,,,,,,Space,keypress(Space),,,,,,,,-- --- ---- --- ------ ----- ------- ---- -- --- revenue --<br>------- ---------- ------ -- ----- -- ----- -- ---- ------<br>--- ----- --- --- ------ -------- ----- --- ------ ----- --<br>----- ----- ---------- --- --- ------ ------ ---- -- ------<br>------- --- ------ ----- --- ---- ------- -- ---- --- --<br>------- ------,208785,208782,208462.4,208462,208462.96,208785.5,,10,revenue
screen,html.Screen,2_1_1_1_11,2022-05-09T16:31:24.511Z,,,,,,,,,,,,,,,,,54,,,,,,,,,,,,,,331.5,,response,,,,100,,,,,,,Space,keypress(Space),,,,,,,,-- --- ---- --- ------ ----- ------- ---- -- --- ------- by<br>------- ---------- ------ -- ----- -- ----- -- ---- ------<br>--- ----- --- --- ------ -------- ----- --- ------ ----- --<br>----- ----- ---------- --- --- ------ ------ ---- -- ------<br>------- --- ------ ----- --- ---- ------- -- ---- --- --<br>------- ------,209118,209117,208785.14,208785,208785.5,209119.88,,11,by
screen,html.Screen,2_1_1_1_12,2022-05-09T16:31:24.783Z,,,,,,,,,,,,,,,,,54,,,,,,,,,,,,,,268.11999999999534,,response,,,,100,,,,,,,Space,keypress(Space),,,,,,,,-- --- ---- --- ------ ----- ------- ---- -- --- ------- --<br>issuing ---------- ------ -- ----- -- ----- -- ---- ------<br>--- ----- --- --- ------ -------- ----- --- ------ ----- --<br>----- ----- ---------- --- --- ------ ------ ---- -- ------<br>------- --- ------ ----- --- ---- ------- -- ---- --- --<br>------- ------,209390,209388,209119.48,209119,209119.88,209391.8,,12,issuing
screen,html.Screen,2_1_1_1_13,2022-05-09T16:31:25.120Z,,,,,,,,,,,,,,,,,54,,,,,,,,,,,,,,332.20000000001164,,response,,,,100,,,,,,,Space,keypress(Space),,,,,,,,-- --- ---- --- ------ ----- ------- ---- -- --- ------- --<br>------- government ------ -- ----- -- ----- -- ---- ------<br>--- ----- --- --- ------ -------- ----- --- ------ ----- --<br>----- ----- ---------- --- --- ------ ------ ---- -- ------<br>------- --- ------ ----- --- ---- ------- -- ---- --- --<br>------- ------,209727,209724,209391.28,209391,209391.8,209728.3,,13,government
screen,html.Screen,2_1_1_1_14,2022-05-09T16:31:25.430Z,,,,,,,,,,,,,,,,,54,,,,,,,,,,,,,,307.70000000001164,,response,,,,100,,,,,,,Space,keypress(Space),,,,,,,,-- --- ---- --- ------ ----- ------- ---- -- --- ------- --<br>------- ---------- bonds. -- ----- -- ----- -- ---- ------<br>--- ----- --- --- ------ -------- ----- --- ------ ----- --<br>----- ----- ---------- --- --- ------ ------ ---- -- ------<br>------- --- ------ ----- --- ---- ------- -- ---- --- --<br>------- ------,210038,210036,209727.78,209728,209728.3,210039.16,,14,bonds.
screen,html.Screen,2_1_1_1_15,2022-05-09T16:31:25.742Z,,,,,,,,,,,,,,,,,54,,,,,,,,,,,,,,307.8399999999965,,response,,,,100,,,,,,,Space,keypress(Space),,,,,,,,-- --- ---- --- ------ ----- ------- ---- -- --- ------- --<br>------- ---------- ------ In ----- -- ----- -- ---- ------<br>--- ----- --- --- ------ -------- ----- --- ------ ----- --<br>----- ----- ---------- --- --- ------ ------ ---- -- ------<br>------- --- ------ ----- --- ---- ------- -- ---- --- --<br>------- ------,210349,210347,210038.82,210039,210039.16,210350.32,,15,In
screen,html.Screen,2_1_1_1_16,2022-05-09T16:31:26.093Z,,,,,,,,,,,,,,,,,54,,,,,,,,,,,,,,347.679999999993,,response,,,,100,,,,,,,Space,keypress(Space),,,,,,,,"-- --- ---- --- ------ ----- ------- ---- -- --- ------- --<br>------- ---------- ------ -- 1727, -- ----- -- ---- ------<br>--- ----- --- --- ------ -------- ----- --- ------ ----- --<br>----- ----- ---------- --- --- ------ ------ ---- -- ------<br>------- --- ------ ----- --- ---- ------- -- ---- --- --<br>------- ------",210700,210698,210349.92,210350,210350.32,210700.9,,16,"1727,"
screen,html.Screen,2_1_1_1_17,2022-05-09T16:31:26.506Z,,,,,,,,,,,,,,,,,54,,,,,,,,,,,,,,411.1000000000058,,response,,,,100,,,,,,,Space,keypress(Space),,,,,,,,-- --- ---- --- ------ ----- ------- ---- -- --- ------- --<br>------- ---------- ------ -- ----- in ----- -- ---- ------<br>--- ----- --- --- ------ -------- ----- --- ------ ----- --<br>----- ----- ---------- --- --- ------ ------ ---- -- ------<br>------- --- ------ ----- --- ---- ------- -- ---- --- --<br>------- ------,211114,211112,210700.54,210700,210700.9,211114.52,,17,in
screen,html.Screen,2_1_1_1_18,2022-05-09T16:31:26.833Z,,,,,,,,,,,,,,,,,54,,,,,,,,,,,,,,322.4800000000105,,response,,,,100,,,,,,,Space,keypress(Space),,,,,,,,-- --- ---- --- ------ ----- ------- ---- -- --- ------- --<br>------- ---------- ------ -- ----- -- order -- ---- ------<br>--- ----- --- --- ------ -------- ----- --- ------ ----- --<br>----- ----- ---------- --- --- ------ ------ ---- -- ------<br>------- --- ------ ----- --- ---- ------- -- ---- --- --<br>------- ------,211440,211437,211114.24,211114,211114.52,211442.16,,18,order
screen,html.Screen,2_1_1_1_19,2022-05-09T16:31:27.240Z,,,,,,,,,,,,,,,,,54,,,,,,,,,,,,,,402.8399999999965,,response,,,,100,,,,,,,Space,keypress(Space),,,,,,,,-- --- ---- --- ------ ----- ------- ---- -- --- ------- --<br>------- ---------- ------ -- ----- -- ----- to ---- ------<br>--- ----- --- --- ------ -------- ----- --- ------ ----- --<br>----- ----- ---------- --- --- ------ ------ ---- -- ------<br>------- --- ------ ----- --- ---- ------- -- ---- --- --<br>------- ------,211848,211845,211441.64,211442,211442.16,211849.96,,19,to
screen,html.Screen,2_1_1_1_20,2022-05-09T16:31:27.561Z,,,,,,,,,,,,,,,,,54,,,,,,,,,,,,,,316.04000000000815,,response,,,,100,,,,,,,Space,keypress(Space),,,,,,,,-- --- ---- --- ------ ----- ------- ---- -- --- ------- --<br>------- ---------- ------ -- ----- -- ----- -- save ------<br>--- ----- --- --- ------ -------- ----- --- ------ ----- --<br>----- ----- ---------- --- --- ------ ------ ---- -- ------<br>------- --- ------ ----- --- ---- ------- -- ---- --- --<br>------- ------,212168,212166,211849.44,211849,211849.96,212168.9,,20,save
screen,html.Screen,2_1_1_1_21,2022-05-09T16:31:27.876Z,,,,,,,,,,,,,,,,,54,,,,,,,,,,,,,,312.1000000000058,,response,,,,100,,,,,,,Space,keypress(Space),,,,,,,,"-- --- ---- --- ------ ----- ------- ---- -- --- ------- --<br>------- ---------- ------ -- ----- -- ----- -- ---- money,<br>--- ----- --- --- ------ -------- ----- --- ------ ----- --<br>----- ----- ---------- --- --- ------ ------ ---- -- ------<br>------- --- ------ ----- --- ---- ------- -- ---- --- --<br>------- ------",212484,212481,212168.54,212169,212168.9,212485.7,,21,"money,"
screen,html.Screen,2_1_1_1_22,2022-05-09T16:31:28.196Z,,,,,,,,,,,,,,,,,54,,,,,,,,,,,,,,313.29999999998836,,response,,,,100,,,,,,,Space,keypress(Space),,,,,,,,-- --- ---- --- ------ ----- ------- ---- -- --- ------- --<br>------- ---------- ------ -- ----- -- ----- -- ---- ------<br>the ----- --- --- ------ -------- ----- --- ------ ----- --<br>----- ----- ---------- --- --- ------ ------ ---- -- ------<br>------- --- ------ ----- --- ---- ------- -- ---- --- --<br>------- ------,212803,212799,212485.14,212485,212485.7,212804.82,,22,the
screen,html.Screen,2_1_1_1_23,2022-05-09T16:31:28.478Z,,,,,,,,,,,,,,,,,54,,,,,,,,,,,,,,278.179999999993,,response,,,,100,,,,,,,Space,keypress(Space),,,,,,,,-- --- ---- --- ------ ----- ------- ---- -- --- ------- --<br>------- ---------- ------ -- ----- -- ----- -- ---- ------<br>--- state --- --- ------ -------- ----- --- ------ ----- --<br>----- ----- ---------- --- --- ------ ------ ---- -- ------<br>------- --- ------ ----- --- ---- ------- -- ---- --- --<br>------- ------,213085,213083,212804.24,212804,212804.82,213086.9,,23,state
screen,html.Screen,2_1_1_1_24,2022-05-09T16:31:28.817Z,,,,,,,,,,,,,,,,,54,,,,,,,,,,,,,,336.1000000000058,,response,,,,100,,,,,,,Space,keypress(Space),,,,,,,,-- --- ---- --- ------ ----- ------- ---- -- --- ------- --<br>------- ---------- ------ -- ----- -- ----- -- ---- ------<br>--- ----- cut --- ------ -------- ----- --- ------ ----- --<br>----- ----- ---------- --- --- ------ ------ ---- -- ------<br>------- --- ------ ----- --- ---- ------- -- ---- --- --<br>------- ------,213424,213423,213086.5,213086,213086.9,213425.84,,24,cut
screen,html.Screen,2_1_1_1_25,2022-05-09T16:31:29.174Z,,,,,,,,,,,,,,,,,54,,,,,,,,,,,,,,352.1600000000035,,response,,,,100,,,,,,,Space,keypress(Space),,,,,,,,-- --- ---- --- ------ ----- ------- ---- -- --- ------- --<br>------- ---------- ------ -- ----- -- ----- -- ---- ------<br>--- ----- --- the ------ -------- ----- --- ------ ----- --<br>----- ----- ---------- --- --- ------ ------ ---- -- ------<br>------- --- ------ ----- --- ---- ------- -- ---- --- --<br>------- ------,213781,213778,213425.48,213425,213425.84,213782.7,,25,the
screen,html.Screen,2_1_1_1_26,2022-05-09T16:31:29.500Z,,,,,,,,,,,,,,,,,54,,,,,,,,,,,,,,322.29999999998836,,response,,,,100,,,,,,,Space,keypress(Space),,,,,,,,-- --- ---- --- ------ ----- ------- ---- -- --- ------- --<br>------- ---------- ------ -- ----- -- ----- -- ---- ------<br>--- ----- --- --- bonds' -------- ----- --- ------ ----- --<br>----- ----- ---------- --- --- ------ ------ ---- -- ------<br>------- --- ------ ----- --- ---- ------- -- ---- --- --<br>------- ------,214108,214105,213782.2,213782,213782.7,214109.68,,26,bonds'
screen,html.Screen,2_1_1_1_27,2022-05-09T16:31:29.833Z,,,,,,,,,,,,,,,,,54,,,,,,,,,,,,,,328.320000000007,,response,,,,100,,,,,,,Space,keypress(Space),,,,,,,,-- --- ---- --- ------ ----- ------- ---- -- --- ------- --<br>------- ---------- ------ -- ----- -- ----- -- ---- ------<br>--- ----- --- --- ------ interest ----- --- ------ ----- --<br>----- ----- ---------- --- --- ------ ------ ---- -- ------<br>------- --- ------ ----- --- ---- ------- -- ---- --- --<br>------- ------,214440,214438,214109.18,214109,214109.68,214441.84,,27,interest
screen,html.Screen,2_1_1_1_28,2022-05-09T16:31:30.144Z,,,,,,,,,,,,,,,,,54,,,,,,,,,,,,,,306.1600000000035,,response,,,,100,,,,,,,Space,keypress(Space),,,,,,,,-- --- ---- --- ------ ----- ------- ---- -- --- ------- --<br>------- ---------- ------ -- ----- -- ----- -- ---- ------<br>--- ----- --- --- ------ -------- rate. --- ------ ----- --<br>----- ----- ---------- --- --- ------ ------ ---- -- ------<br>------- --- ------ ----- --- ---- ------- -- ---- --- --<br>------- ------,214751,214748,214441.44,214441,214441.84,214752.64,,28,rate.
screen,html.Screen,2_1_1_1_29,2022-05-09T16:31:30.543Z,,,,,,,,,,,,,,,,,54,,,,,,,,,,,,,,395.35999999998603,,response,,,,100,,,,,,,Space,keypress(Space),,,,,,,,-- --- ---- --- ------ ----- ------- ---- -- --- ------- --<br>------- ---------- ------ -- ----- -- ----- -- ---- ------<br>--- ----- --- --- ------ -------- ----- The ------ ----- --<br>----- ----- ---------- --- --- ------ ------ ---- -- ------<br>------- --- ------ ----- --- ---- ------- -- ---- --- --<br>------- ------,215150,215148,214752.1,214752,214752.64,215150.88,,29,The
screen,html.Screen,2_1_1_1_30,2022-05-09T16:31:30.882Z,,,,,,,,,,,,,,,,,54,,,,,,,,,,,,,,336.11999999999534,,response,,,,100,,,,,,,Space,keypress(Space),,,,,,,,-- --- ---- --- ------ ----- ------- ---- -- --- ------- --<br>------- ---------- ------ -- ----- -- ----- -- ---- ------<br>--- ----- --- --- ------ -------- ----- --- market ----- --<br>----- ----- ---------- --- --- ------ ------ ---- -- ------<br>------- --- ------ ----- --- ---- ------- -- ---- --- --<br>------- ------,215490,215487,215150.52,215150,215150.88,215490.48,,30,market
screen,html.Screen,2_1_1_1_31,2022-05-09T16:31:31.200Z,,,,,,,,,,,,,,,,,54,,,,,,,,,,,,,,313.5199999999895,,response,,,,100,,,,,,,Space,keypress(Space),,,,,,,,-- --- ---- --- ------ ----- ------- ---- -- --- ------- --<br>------- ---------- ------ -- ----- -- ----- -- ---- ------<br>--- ----- --- --- ------ -------- ----- --- ------ value --<br>----- ----- ---------- --- --- ------ ------ ---- -- ------<br>------- --- ------ ----- --- ---- ------- -- ---- --- --<br>------- ------,215807,215804,215490.12,215490,215490.48,215809.16,,31,value
screen,html.Screen,2_1_1_1_32,2022-05-09T16:31:31.577Z,,,,,,,,,,,,,,,,,54,,,,,,,,,,,,,,372.8399999999965,,response,,,,100,,,,,,,Space,keypress(Space),,,,,,,,-- --- ---- --- ------ ----- ------- ---- -- --- ------- --<br>------- ---------- ------ -- ----- -- ----- -- ---- ------<br>--- ----- --- --- ------ -------- ----- --- ------ ----- of<br>----- ----- ---------- --- --- ------ ------ ---- -- ------<br>------- --- ------ ----- --- ---- ------- -- ---- --- --<br>------- ------,216184,216182,215808.32,215808,215809.16,216185.74,,32,of
screen,html.Screen,2_1_1_1_33,2022-05-09T16:31:31.915Z,,,,,,,,,,,,,,,,,54,,,,,,,,,,,,,,335.2600000000093,,response,,,,100,,,,,,,Space,keypress(Space),,,,,,,,-- --- ---- --- ------ ----- ------- ---- -- --- ------- --<br>------- ---------- ------ -- ----- -- ----- -- ---- ------<br>--- ----- --- --- ------ -------- ----- --- ------ ----- --<br>these ----- ---------- --- --- ------ ------ ---- -- ------<br>------- --- ------ ----- --- ---- ------- -- ---- --- --<br>------- ------,216523,216521,216185.26,216185,216185.74,216523.64,,33,these
screen,html.Screen,2_1_1_1_34,2022-05-09T16:31:32.246Z,,,,,,,,,,,,,,,,,54,,,,,,,,,,,,,,326.35999999998603,,response,,,,100,,,,,,,Space,keypress(Space),,,,,,,,-- --- ---- --- ------ ----- ------- ---- -- --- ------- --<br>------- ---------- ------ -- ----- -- ----- -- ---- ------<br>--- ----- --- --- ------ -------- ----- --- ------ ----- --<br>----- bonds ---------- --- --- ------ ------ ---- -- ------<br>------- --- ------ ----- --- ---- ------- -- ---- --- --<br>------- ------,216852,216850,216523.28,216524,216523.64,216854.56,,34,bonds
screen,html.Screen,2_1_1_1_35,2022-05-09T16:31:32.568Z,,,,,,,,,,,,,,,,,54,,,,,,,,,,,,,,317.4400000000023,,response,,,,100,,,,,,,Space,keypress(Space),,,,,,,,"-- --- ---- --- ------ ----- ------- ---- -- --- ------- --<br>------- ---------- ------ -- ----- -- ----- -- ---- ------<br>--- ----- --- --- ------ -------- ----- --- ------ ----- --<br>----- ----- plummeted, --- --- ------ ------ ---- -- ------<br>------- --- ------ ----- --- ---- ------- -- ---- --- --<br>------- ------",217175,217172,216854,216853,216854.56,217176.9,,35,"plummeted,"
screen,html.Screen,2_1_1_1_36,2022-05-09T16:31:32.881Z,,,,,,,,,,,,,,,,,54,,,,,,,,,,,,,,308.1000000000058,,response,,,,100,,,,,,,Space,keypress(Space),,,,,,,,-- --- ---- --- ------ ----- ------- ---- -- --- ------- --<br>------- ---------- ------ -- ----- -- ----- -- ---- ------<br>--- ----- --- --- ------ -------- ----- --- ------ ----- --<br>----- ----- ---------- and --- ------ ------ ---- -- ------<br>------- --- ------ ----- --- ---- ------- -- ---- --- --<br>------- ------,217488,217485,217176.34,217176,217176.9,217489.98,,36,and
screen,html.Screen,2_1_1_1_37,2022-05-09T16:31:33.162Z,,,,,,,,,,,,,,,,,54,,,,,,,,,,,,,,278.0199999999895,,response,,,,100,,,,,,,Space,keypress(Space),,,,,,,,-- --- ---- --- ------ ----- ------- ---- -- --- ------- --<br>------- ---------- ------ -- ----- -- ----- -- ---- ------<br>--- ----- --- --- ------ -------- ----- --- ------ ----- --<br>----- ----- ---------- --- the ------ ------ ---- -- ------<br>------- --- ------ ----- --- ---- ------- -- ---- --- --<br>------- ------,217770,217768,217489.24,217489,217489.98,217770.66,,37,the
screen,html.Screen,2_1_1_1_38,2022-05-09T16:31:33.456Z,,,,,,,,,,,,,,,,,54,,,,,,,,,,,,,,290.3399999999965,,response,,,,100,,,,,,,Space,keypress(Space),,,,,,,,-- --- ---- --- ------ ----- ------- ---- -- --- ------- --<br>------- ---------- ------ -- ----- -- ----- -- ---- ------<br>--- ----- --- --- ------ -------- ----- --- ------ ----- --<br>----- ----- ---------- --- --- market ------ ---- -- ------<br>------- --- ------ ----- --- ---- ------- -- ---- --- --<br>------- ------,218064,218061,217770.26,217770,217770.66,218065.44,,38,market
screen,html.Screen,2_1_1_1_39,2022-05-09T16:31:33.864Z,,,,,,,,,,,,,,,,,54,,,,,,,,,,,,,,404.5599999999977,,response,,,,100,,,,,,,Space,keypress(Space),,,,,,,,-- --- ---- --- ------ ----- ------- ---- -- --- ------- --<br>------- ---------- ------ -- ----- -- ----- -- ---- ------<br>--- ----- --- --- ------ -------- ----- --- ------ ----- --<br>----- ----- ---------- --- --- ------ became ---- -- ------<br>------- --- ------ ----- --- ---- ------- -- ---- --- --<br>------- ------,218472,218470,218064.68,218064,218065.44,218473.92,,39,became
screen,html.Screen,2_1_1_1_40,2022-05-09T16:31:34.188Z,,,,,,,,,,,,,,,,,54,,,,,,,,,,,,,,320.0799999999872,,response,,,,100,,,,,,,Space,keypress(Space),,,,,,,,-- --- ---- --- ------ ----- ------- ---- -- --- ------- --<br>------- ---------- ------ -- ----- -- ----- -- ---- ------<br>--- ----- --- --- ------ -------- ----- --- ------ ----- --<br>----- ----- ---------- --- --- ------ ------ wary -- ------<br>------- --- ------ ----- --- ---- ------- -- ---- --- --<br>------- ------,218795,218794,218473.54,218473,218473.92,218796.68,,40,wary
screen,html.Screen,2_1_1_1_41,2022-05-09T16:31:34.518Z,,,,,,,,,,,,,,,,,54,,,,,,,,,,,,,,326.320000000007,,response,,,,100,,,,,,,Space,keypress(Space),,,,,,,,-- --- ---- --- ------ ----- ------- ---- -- --- ------- --<br>------- ---------- ------ -- ----- -- ----- -- ---- ------<br>--- ----- --- --- ------ -------- ----- --- ------ ----- --<br>----- ----- ---------- --- --- ------ ------ ---- of ------<br>------- --- ------ ----- --- ---- ------- -- ---- --- --<br>------- ------,219125,219123,218796.3,218796,218796.68,219128.24,,41,of
screen,html.Screen,2_1_1_1_42,2022-05-09T16:31:34.819Z,,,,,,,,,,,,,,,,,54,,,,,,,,,,,,,,295.7600000000093,,response,,,,100,,,,,,,Space,keypress(Space),,,,,,,,-- --- ---- --- ------ ----- ------- ---- -- --- ------- --<br>------- ---------- ------ -- ----- -- ----- -- ---- ------<br>--- ----- --- --- ------ -------- ----- --- ------ ----- --<br>----- ----- ---------- --- --- ------ ------ ---- -- French<br>------- --- ------ ----- --- ---- ------- -- ---- --- --<br>------- ------,219426,219424,219126.24,219126,219128.24,219426.78,,42,French
screen,html.Screen,2_1_1_1_43,2022-05-09T16:31:35.125Z,,,,,,,,,,,,,,,,,54,,,,,,,,,,,,,,304.22000000000116,,response,,,,100,,,,,,,Space,keypress(Space),,,,,,,,-- --- ---- --- ------ ----- ------- ---- -- --- ------- --<br>------- ---------- ------ -- ----- -- ----- -- ---- ------<br>--- ----- --- --- ------ -------- ----- --- ------ ----- --<br>----- ----- ---------- --- --- ------ ------ ---- -- ------<br>credit. --- ------ ----- --- ---- ------- -- ---- --- --<br>------- ------,219733,219731,219426.42,219426,219426.78,219733.76,,43,credit.
screen,html.Screen,2_1_1_1_44,2022-05-09T16:31:35.529Z,,,,,,,,,,,,,,,,,54,,,,,,,,,,,,,,401.2399999999907,,response,,,,100,,,,,,,Space,keypress(Space),,,,,,,,-- --- ---- --- ------ ----- ------- ---- -- --- ------- --<br>------- ---------- ------ -- ----- -- ----- -- ---- ------<br>--- ----- --- --- ------ -------- ----- --- ------ ----- --<br>----- ----- ---------- --- --- ------ ------ ---- -- ------<br>------- The ------ ----- --- ---- ------- -- ---- --- --<br>------- ------,220136,220135,219733.46,219734,219733.76,220137.1,,44,The
screen,html.Screen,2_1_1_1_45,2022-05-09T16:31:35.867Z,,,,,,,,,,,,,,,,,54,,,,,,,,,,,,,,334.8999999999942,,response,,,,100,,,,,,,Space,keypress(Space),,,,,,,,-- --- ---- --- ------ ----- ------- ---- -- --- ------- --<br>------- ---------- ------ -- ----- -- ----- -- ---- ------<br>--- ----- --- --- ------ -------- ----- --- ------ ----- --<br>----- ----- ---------- --- --- ------ ------ ---- -- ------<br>------- --- French ----- --- ---- ------- -- ---- --- --<br>------- ------,220475,220472,220136.72,220136,220137.1,220475.18,,45,French
screen,html.Screen,2_1_1_1_46,2022-05-09T16:31:36.165Z,,,,,,,,,,,,,,,,,54,,,,,,,,,,,,,,294.820000000007,,response,,,,100,,,,,,,Space,keypress(Space),,,,,,,,-- --- ---- --- ------ ----- ------- ---- -- --- ------- --<br>------- ---------- ------ -- ----- -- ----- -- ---- ------<br>--- ----- --- --- ------ -------- ----- --- ------ ----- --<br>----- ----- ---------- --- --- ------ ------ ---- -- ------<br>------- --- ------ state --- ---- ------- -- ---- --- --<br>------- ------,220773,220770,220474.82,220475,220475.18,220774.02,,46,state
screen,html.Screen,2_1_1_1_47,2022-05-09T16:31:36.538Z,,,,,,,,,,,,,,,,,54,,,,,,,,,,,,,,368.9800000000105,,response,,,,100,,,,,,,Space,keypress(Space),,,,,,,,-- --- ---- --- ------ ----- ------- ---- -- --- ------- --<br>------- ---------- ------ -- ----- -- ----- -- ---- ------<br>--- ----- --- --- ------ -------- ----- --- ------ ----- --<br>----- ----- ---------- --- --- ------ ------ ---- -- ------<br>------- --- ------ ----- was ---- ------- -- ---- --- --<br>------- ------,221145,221143,220773.5,220774,220774.02,221147.24,,47,was
screen,html.Screen,2_1_1_1_48,2022-05-09T16:31:36.860Z,,,,,,,,,,,,,,,,,54,,,,,,,,,,,,,,316.7600000000093,,response,,,,100,,,,,,,Space,keypress(Space),,,,,,,,-- --- ---- --- ------ ----- ------- ---- -- --- ------- --<br>------- ---------- ------ -- ----- -- ----- -- ---- ------<br>--- ----- --- --- ------ -------- ----- --- ------ ----- --<br>----- ----- ---------- --- --- ------ ------ ---- -- ------<br>------- --- ------ ----- --- left ------- -- ---- --- --<br>------- ------,221467,221464,221146.74,221146,221147.24,221469.2,,48,left
screen,html.Screen,2_1_1_1_49,2022-05-09T16:31:37.207Z,,,,,,,,,,,,,,,,,54,,,,,,,,,,,,,,341.79999999998836,,response,,,,100,,,,,,,Space,keypress(Space),,,,,,,,-- --- ---- --- ------ ----- ------- ---- -- --- ------- --<br>------- ---------- ------ -- ----- -- ----- -- ---- ------<br>--- ----- --- --- ------ -------- ----- --- ------ ----- --<br>----- ----- ---------- --- --- ------ ------ ---- -- ------<br>------- --- ------ ----- --- ---- without -- ---- --- --<br>------- ------,221815,221811,221468.64,221469,221469.2,221816.28,,49,without
screen,html.Screen,2_1_1_1_50,2022-05-09T16:31:37.531Z,,,,,,,,,,,,,,,,,54,,,,,,,,,,,,,,318.72000000000116,,response,,,,100,,,,,,,Space,keypress(Space),,,,,,,,-- --- ---- --- ------ ----- ------- ---- -- --- ------- --<br>------- ---------- ------ -- ----- -- ----- -- ---- ------<br>--- ----- --- --- ------ -------- ----- --- ------ ----- --<br>----- ----- ---------- --- --- ------ ------ ---- -- ------<br>------- --- ------ ----- --- ---- ------- an ---- --- --<br>------- ------,222138,222135,221815.5,221815,221816.28,222139.78,,50,an
screen,html.Screen,2_1_1_1_51,2022-05-09T16:31:38.256Z,,,,,,,,,,,,,,,,,54,,,,,,,,,,,,,,721.2200000000012,,response,,,,100,,,,,,,Space,keypress(Space),,,,,,,,-- --- ---- --- ------ ----- ------- ---- -- --- ------- --<br>------- ---------- ------ -- ----- -- ----- -- ---- ------<br>--- ----- --- --- ------ -------- ----- --- ------ ----- --<br>----- ----- ---------- --- --- ------ ------ ---- -- ------<br>------- --- ------ ----- --- ---- ------- -- easy --- --<br>------- ------,222863,222861,222139.26,222139,222139.78,222865.62,,51,easy
screen,html.Screen,2_1_1_1_52,2022-05-09T16:31:38.941Z,,,,,,,,,,,,,,,,,54,,,,,,,,,,,,,,678.3800000000047,,response,,,,100,,,,,,,Space,keypress(Space),,,,,,,,-- --- ---- --- ------ ----- ------- ---- -- --- ------- --<br>------- ---------- ------ -- ----- -- ----- -- ---- ------<br>--- ----- --- --- ------ -------- ----- --- ------ ----- --<br>----- ----- ---------- --- --- ------ ------ ---- -- ------<br>------- --- ------ ----- --- ---- ------- -- ---- way --<br>------- ------,223548,223544,222865.1,222865,222865.62,223549.74,,52,way
screen,html.Screen,2_1_1_1_53,2022-05-09T16:31:39.287Z,,,,,,,,,,,,,,,,,54,,,,,,,,,,,,,,342.2600000000093,,response,,,,100,,,,,,,Space,keypress(Space),,,,,,,,-- --- ---- --- ------ ----- ------- ---- -- --- ------- --<br>------- ---------- ------ -- ----- -- ----- -- ---- ------<br>--- ----- --- --- ------ -------- ----- --- ------ ----- --<br>----- ----- ---------- --- --- ------ ------ ---- -- ------<br>------- --- ------ ----- --- ---- ------- -- ---- --- of<br>------- ------,223894,223892,223549.22,223549,223549.74,223895.42,,53,of
screen,html.Screen,2_1_1_1_54,2022-05-09T16:31:39.647Z,,,,,,,,,,,,,,,,,54,,,,,,,,,,,,,,356.5799999999872,,response,,,,100,,,,,,,Space,keypress(Space),,,,,,,,-- --- ---- --- ------ ----- ------- ---- -- --- ------- --<br>------- ---------- ------ -- ----- -- ----- -- ---- ------<br>--- ----- --- --- ------ -------- ----- --- ------ ----- --<br>----- ----- ---------- --- --- ------ ------ ---- -- ------<br>------- --- ------ ----- --- ---- ------- -- ---- --- --<br>raising ------,224254,224252,223894.94,223895,223895.42,224256.7,,54,raising
screen,html.Screen,2_1_1_1_55,2022-05-09T16:31:40.199Z,,,,,,,,,,,,,,,,,54,,,,,,,,,,,,,,548.2999999999884,,response,,,,100,,,,,,,Space,keypress(Space),,,,,,,,-- --- ---- --- ------ ----- ------- ---- -- --- ------- --<br>------- ---------- ------ -- ----- -- ----- -- ---- ------<br>--- ----- --- --- ------ -------- ----- --- ------ ----- --<br>----- ----- ---------- --- --- ------ ------ ---- -- ------<br>------- --- ------ ----- --- ---- ------- -- ---- --- --<br>------- money.,224807,224805,224255.28,224255,224256.7,224811.76,,55,money.
Item 100,flow.Loop,2_1_1_1,2022-05-09T16:31:40.202Z,,,,,,,,,,,,,,,,,,,,,,,,,,,,,,,21069.79999999999,,completion,,,,,G,,,,,,,,,,,silence,,,,,224809,224805,203719.04,203731,203735.2,224811.76,,,
Question 1,html.Screen,2_1_1_2,2022-05-09T16:31:43.793Z,,,,,,,,,,,,,,,,,,,,,,,,,,,,true,TRUE,,3578.2399999999907,,response,,,,100,G,,,,,,TRUE,click #choice-1,,,,silence,,,,,228401,228390,224811.24,224811,224811.76,228413.16,,,
Question 2,html.Screen,2_1_1_3,2022-05-09T16:31:46.197Z,,,,,,,,,,,,,,,,,,,,,,,,,,,,true,FALSE,,2385.8399999999965,,response,,,,100,G,,,,,,FALSE,click #choice-2,,,,silence,,,,,230805,230799,228397.74,228403,228413.16,230819.68,,,
Item 100,flow.Sequence,2_1_1,2022-05-09T16:31:46.199Z,,,,,,,,,,,,,,,,,,,,,,,,,,,,,,,37070.16,,completion,,,,,,,,,,,,,,,,,,,,,230806,230799,193712.78,193716,193728.84,230819.68,,,
End of Practice,html.Page,2_1_2,2022-05-09T16:31:54.837Z,,,,,,,,,,,,,,,,,,,,,,,,,,,,,,,8623.320000000007,,form submission,,,,,,,,,,,,,,,,,,,,,239444,239443,230803.26,230807,230819.68,239447.4,,,
Practice,flow.Sequence,2_1,2022-05-09T16:31:54.838Z,,,,,,,,,,,,,,,,,,,,,,,,,,,,,,,96997.84,,completion,,,,,,,,,,,,,,,,,,,,,239445,239443,142428,142440,142445.16,239447.4,,,
Trap_instruction,html.Page,2_2_0,2022-05-09T16:32:05.804Z,,,,,,,,,,,,,,,,,,,,,,,,,,,,,,,10962.600000000006,,form submission,,,,,,,,,,,,,,,,,,,,,250410,250410,239405.66,239446,239447.4,250486.54,,,
trap_trial,html.Screen,2_2_1,2022-05-09T16:32:09.631Z,,,,,,,,,,,,,,,,,,,,,,,,,,,,true,1,,3745.459999999992,,response,,,,,,,,,,,1,click #choice-1,,,,,,,,,254238,254232,250403.88,250411,250486.54,254252.08,,,
end of trap trial,html.Page,2_2_2,2022-05-09T16:32:11.955Z,,,,,,,,,,,,,,,,,,,,,,,,,,,,,,,2308.920000000013,,form submission,,,,,,,,,,,,,,,,,,,,,256561,256561,254236.26,254239,254252.08,256569.5,,,
Trap 1,flow.Sequence,2_2,2022-05-09T16:32:11.955Z,,,,,,,,,,,,,,,,,,,,,,,,,,,,,,,17113.600000000006,,completion,,,,,,,,,,,,,,,,,,,,,256563,256561,239405.66,239446,239447.4,256569.5,,,
Standby,html.Page,2_3_0,2022-05-09T16:32:19.954Z,,,,,,,,,,,,,,,,,,,,,,,,,,,,,,,8005.599999999977,,timeout,,,,,,,,,,,,,,,,,,,,,264561,264557.9,256555.88,256563,256569.5,264575.1,,,
Holding screen,html.Screen,2_3_1_0_0,2022-05-09T16:32:26.951Z,,,,,,,,,,,,,,,,,,,,,,,,,,,,,,,6997.660000000033,,timeout,,,,,,,,,,,,,,,,,,,,,271559,271556.54,264557.9,264563,264575.1,271572.76,,,
screen,html.Screen,2_3_1_0_1_0,2022-05-09T16:32:28.632Z,,,,,,,,,,,,,,,,,12,,,,,,,,,,,,,,1663.2399999999907,,response,,,,5,G,,,,,,Space,keypress(Space),,,,instrumental,,,,Some ------ ------ ------- ------ --- ------- -----------<br>-- ----- --- ---- -- --- ------ ---- - ---- -- ----------<br>-- ------ ---- --- ---- --- --- --- ----- -- -------- ---<br>------ ------- -------- --- ---- -- ------- ------------ --<br>------ -- ---- -- --- ---- -- -------- -- --- ------ ------,273240,273236,271556.54,271560,271572.76,273240.88,,0,Some
screen,html.Screen,2_3_1_0_1_1,2022-05-09T16:32:29.011Z,,,,,,,,,,,,,,,,,12,,,,,,,,,,,,,,375.11999999999534,,response,,,,5,G,,,,,,Space,keypress(Space),,,,instrumental,,,,---- months ------ ------- ------ --- ------- -----------<br>-- ----- --- ---- -- --- ------ ---- - ---- -- ----------<br>-- ------ ---- --- ---- --- --- --- ----- -- -------- ---<br>------ ------- -------- --- ---- -- ------- ------------ --<br>------ -- ---- -- --- ---- -- -------- -- --- ------ ------,273619,273616,273240.38,273241,273240.88,273620.58,,1,months
screen,html.Screen,2_3_1_0_1_2,2022-05-09T16:32:29.353Z,,,,,,,,,,,,,,,,,12,,,,,,,,,,,,,,336.4199999999837,,response,,,,5,G,,,,,,Space,keypress(Space),,,,instrumental,,,,"---- ------ later, ------- ------ --- ------- -----------<br>-- ----- --- ---- -- --- ------ ---- - ---- -- ----------<br>-- ------ ---- --- ---- --- --- --- ----- -- -------- ---<br>------ ------- -------- --- ---- -- ------- ------------ --<br>------ -- ---- -- --- ---- -- -------- -- --- ------ ------",273960,273957,273620.08,273620,273620.58,273960.78,,2,"later,"
screen,html.Screen,2_3_1_0_1_3,2022-05-09T16:32:29.668Z,,,,,,,,,,,,,,,,,12,,,,,,,,,,,,,,311.21999999997206,,response,,,,5,G,,,,,,Space,keypress(Space),,,,instrumental,,,,---- ------ ------ Michael ------ --- ------- -----------<br>-- ----- --- ---- -- --- ------ ---- - ---- -- ----------<br>-- ------ ---- --- ---- --- --- --- ----- -- -------- ---<br>------ ------- -------- --- ---- -- ------- ------------ --<br>------ -- ---- -- --- ---- -- -------- -- --- ------ ------,274275,274272,273960.42,273960,273960.78,274276.78,,3,Michael
screen,html.Screen,2_3_1_0_1_4,2022-05-09T16:32:30.033Z,,,,,,,,,,,,,,,,,12,,,,,,,,,,,,,,363.21999999997206,,response,,,,5,G,,,,,,Space,keypress(Space),,,,instrumental,,,,---- ------ ------ ------- Larson --- ------- -----------<br>-- ----- --- ---- -- --- ------ ---- - ---- -- ----------<br>-- ------ ---- --- ---- --- --- --- ----- -- -------- ---<br>------ ------- -------- --- ---- -- ------- ------------ --<br>------ -- ---- -- --- ---- -- -------- -- --- ------ ------,274641,274640,274276.22,274276,274276.78,274642.62,,4,Larson
screen,html.Screen,2_3_1_0_1_5,2022-05-09T16:32:30.463Z,,,,,,,,,,,,,,,,,12,,,,,,,,,,,,,,426.38000000000466,,response,,,,5,G,,,,,,Space,keypress(Space),,,,instrumental,,,,---- ------ ------ ------- ------ saw ------- -----------<br>-- ----- --- ---- -- --- ------ ---- - ---- -- ----------<br>-- ------ ---- --- ---- --- --- --- ----- -- -------- ---<br>------ ------- -------- --- ---- -- ------- ------------ --<br>------ -- ---- -- --- ---- -- -------- -- --- ------ ------,275071,275069,274641.58,274641,274642.62,275072.26,,5,saw
screen,html.Screen,2_3_1_0_1_6,2022-05-09T16:32:30.898Z,,,,,,,,,,,,,,,,,12,,,,,,,,,,,,,,431.7399999999907,,response,,,,5,G,,,,,,Space,keypress(Space),,,,instrumental,,,,---- ------ ------ ------- ------ --- another -----------<br>-- ----- --- ---- -- --- ------ ---- - ---- -- ----------<br>-- ------ ---- --- ---- --- --- --- ----- -- -------- ---<br>------ ------- -------- --- ---- -- ------- ------------ --<br>------ -- ---- -- --- ---- -- -------- -- --- ------ ------,275505,275504,275071.78,275071,275072.26,275508.54,,6,another
screen,html.Screen,2_3_1_0_1_7,2022-05-09T16:32:31.344Z,,,,,,,,,,,,,,,,,12,,,,,,,,,,,,,,439.46000000002095,,response,,,,5,G,,,,,,Space,keypress(Space),,,,instrumental,,,,---- ------ ------ ------- ------ --- ------- opportunity<br>-- ----- --- ---- -- --- ------ ---- - ---- -- ----------<br>-- ------ ---- --- ---- --- --- --- ----- -- -------- ---<br>------ ------- -------- --- ---- -- ------- ------------ --<br>------ -- ---- -- --- ---- -- -------- -- --- ------ ------,275951,275948,275505.94,275506,275508.54,275953.46,,7,opportunity
screen,html.Screen,2_3_1_0_1_8,2022-05-09T16:32:31.777Z,,,,,,,,,,,,,,,,,12,,,,,,,,,,,,,,427.53999999997905,,response,,,,5,G,,,,,,Space,keypress(Space),,,,instrumental,,,,---- ------ ------ ------- ------ --- ------- -----------<br>to ----- --- ---- -- --- ------ ---- - ---- -- ----------<br>-- ------ ---- --- ---- --- --- --- ----- -- -------- ---<br>------ ------- -------- --- ---- -- ------- ------------ --<br>------ -- ---- -- --- ---- -- -------- -- --- ------ ------,276384,276381,275952.96,275952,275953.46,276385.68,,8,to
screen,html.Screen,2_3_1_0_1_9,2022-05-09T16:32:32.095Z,,,,,,,,,,,,,,,,,12,,,,,,,,,,,,,,314.320000000007,,response,,,,5,G,,,,,,Space,keypress(Space),,,,instrumental,,,,---- ------ ------ ------- ------ --- ------- -----------<br>-- stack --- ---- -- --- ------ ---- - ---- -- ----------<br>-- ------ ---- --- ---- --- --- --- ----- -- -------- ---<br>------ ------- -------- --- ---- -- ------- ------------ --<br>------ -- ---- -- --- ---- -- -------- -- --- ------ ------,276703,276700,276385.14,276385,276385.68,276704.38,,9,stack
screen,html.Screen,2_3_1_0_1_10,2022-05-09T16:32:32.360Z,,,,,,,,,,,,,,,,,12,,,,,,,,,,,,,,261.61999999999534,,response,,,,5,G,,,,,,Space,keypress(Space),,,,instrumental,,,,---- ------ ------ ------- ------ --- ------- -----------<br>-- ----- the ---- -- --- ------ ---- - ---- -- ----------<br>-- ------ ---- --- ---- --- --- --- ----- -- -------- ---<br>------ ------- -------- --- ---- -- ------- ------------ --<br>------ -- ---- -- --- ---- -- -------- -- --- ------ ------,276968,276966,276703.84,276704,276704.38,276972.06,,10,the
screen,html.Screen,2_3_1_0_1_11,2022-05-09T16:32:32.665Z,,,,,,,,,,,,,,,,,12,,,,,,,,,,,,,,296.9400000000023,,response,,,,5,G,,,,,,Space,keypress(Space),,,,instrumental,,,,---- ------ ------ ------- ------ --- ------- -----------<br>-- ----- --- odds -- --- ------ ---- - ---- -- ----------<br>-- ------ ---- --- ---- --- --- --- ----- -- -------- ---<br>------ ------- -------- --- ---- -- ------- ------------ --<br>------ -- ---- -- --- ---- -- -------- -- --- ------ ------,277272,277269,276970.78,276970,276972.06,277273.82,,11,odds
screen,html.Screen,2_3_1_0_1_12,2022-05-09T16:32:32.919Z,,,,,,,,,,,,,,,,,12,,,,,,,,,,,,,,249.17999999999302,,response,,,,5,G,,,,,,Space,keypress(Space),,,,instrumental,,,,---- ------ ------ ------- ------ --- ------- -----------<br>-- ----- --- ---- in --- ------ ---- - ---- -- ----------<br>-- ------ ---- --- ---- --- --- --- ----- -- -------- ---<br>------ ------- -------- --- ---- -- ------- ------------ --<br>------ -- ---- -- --- ---- -- -------- -- --- ------ ------,277526,277523,277273.12,277273,277273.82,277527.1,,12,in
screen,html.Screen,2_3_1_0_1_13,2022-05-09T16:32:33.163Z,,,,,,,,,,,,,,,,,12,,,,,,,,,,,,,,240.90000000002328,,response,,,,5,G,,,,,,Space,keypress(Space),,,,instrumental,,,,---- ------ ------ ------- ------ --- ------- -----------<br>-- ----- --- ---- -- his ------ ---- - ---- -- ----------<br>-- ------ ---- --- ---- --- --- --- ----- -- -------- ---<br>------ ------- -------- --- ---- -- ------- ------------ --<br>------ -- ---- -- --- ---- -- -------- -- --- ------ ------,277771,277768,277526.58,277526,277527.1,277772.32,,13,his
screen,html.Screen,2_3_1_0_1_14,2022-05-09T16:32:33.441Z,,,,,,,,,,,,,,,,,12,,,,,,,,,,,,,,274.679999999993,,response,,,,5,G,,,,,,Space,keypress(Space),,,,instrumental,,,,---- ------ ------ ------- ------ --- ------- -----------<br>-- ----- --- ---- -- --- favour ---- - ---- -- ----------<br>-- ------ ---- --- ---- --- --- --- ----- -- -------- ---<br>------ ------- -------- --- ---- -- ------- ------------ --<br>------ -- ---- -- --- ---- -- -------- -- --- ------ ------,278049,278047,277771.86,277772,277772.32,278051.6,,14,favour
screen,html.Screen,2_3_1_0_1_15,2022-05-09T16:32:33.784Z,,,,,,,,,,,,,,,,,12,,,,,,,,,,,,,,336.4000000000233,,response,,,,5,G,,,,,,Space,keypress(Space),,,,instrumental,,,,---- ------ ------ ------- ------ --- ------- -----------<br>-- ----- --- ---- -- --- ------ with - ---- -- ----------<br>-- ------ ---- --- ---- --- --- --- ----- -- -------- ---<br>------ ------- -------- --- ---- -- ------- ------------ --<br>------ -- ---- -- --- ---- -- -------- -- --- ------ ------,278391,278388,278050.14,278050,278051.6,278394.72,,15,with
screen,html.Screen,2_3_1_0_1_16,2022-05-09T16:32:34.063Z,,,,,,,,,,,,,,,,,12,,,,,,,,,,,,,,272.28000000002794,,response,,,,5,G,,,,,,Space,keypress(Space),,,,instrumental,,,,---- ------ ------ ------- ------ --- ------- -----------<br>-- ----- --- ---- -- --- ------ ---- a ---- -- ----------<br>-- ------ ---- --- ---- --- --- --- ----- -- -------- ---<br>------ ------- -------- --- ---- -- ------- ------------ --<br>------ -- ---- -- --- ---- -- -------- -- --- ------ ------,278671,278667,278392.52,278392,278394.72,278672.48,,16,a
screen,html.Screen,2_3_1_0_1_17,2022-05-09T16:32:34.276Z,,,,,,,,,,,,,,,,,12,,,,,,,,,,,,,,209.52000000001863,,response,,,,5,G,,,,,,Space,keypress(Space),,,,instrumental,,,,---- ------ ------ ------- ------ --- ------- -----------<br>-- ----- --- ---- -- --- ------ ---- - dash -- ----------<br>-- ------ ---- --- ---- --- --- --- ----- -- -------- ---<br>------ ------- -------- --- ---- -- ------- ------------ --<br>------ -- ---- -- --- ---- -- -------- -- --- ------ ------,278883,278882,278671.78,278672,278672.48,278884,,17,dash
screen,html.Screen,2_3_1_0_1_18,2022-05-09T16:32:34.500Z,,,,,,,,,,,,,,,,,12,,,,,,,,,,,,,,220,,response,,,,5,G,,,,,,Space,keypress(Space),,,,instrumental,,,,---- ------ ------ ------- ------ --- ------- -----------<br>-- ----- --- ---- -- --- ------ ---- - ---- of ----------<br>-- ------ ---- --- ---- --- --- --- ----- -- -------- ---<br>------ ------- -------- --- ---- -- ------- ------------ --<br>------ -- ---- -- --- ---- -- -------- -- --- ------ ------,279107,279104,278883.7,278884,278884,279116.32,,18,of
screen,html.Screen,2_3_1_0_1_19,2022-05-09T16:32:34.797Z,,,,,,,,,,,,,,,,,12,,,,,,,,,,,,,,286.679999999993,,response,,,,5,G,,,,,,Space,keypress(Space),,,,instrumental,,,,---- ------ ------ ------- ------ --- ------- -----------<br>-- ----- --- ---- -- --- ------ ---- - ---- -- ingenuity.<br>-- ------ ---- --- ---- --- --- --- ----- -- -------- ---<br>------ ------- -------- --- ---- -- ------- ------------ --<br>------ -- ---- -- --- ---- -- -------- -- --- ------ ------,279404,279403,279107.58,279107,279116.32,279405.5,,19,ingenuity.
screen,html.Screen,2_3_1_0_1_20,2022-05-09T16:32:35.300Z,,,,,,,,,,,,,,,,,12,,,,,,,,,,,,,,497.5,,response,,,,5,G,,,,,,Space,keypress(Space),,,,instrumental,,,,---- ------ ------ ------- ------ --- ------- -----------<br>-- ----- --- ---- -- --- ------ ---- - ---- -- ----------<br>He ------ ---- --- ---- --- --- --- ----- -- -------- ---<br>------ ------- -------- --- ---- -- ------- ------------ --<br>------ -- ---- -- --- ---- -- -------- -- --- ------ ------,279907,279903,279405.16,279405,279405.5,279908.22,,20,He
screen,html.Screen,2_3_1_0_1_21,2022-05-09T16:32:35.546Z,,,,,,,,,,,,,,,,,12,,,,,,,,,,,,,,241.78000000002794,,response,,,,5,G,,,,,,Space,keypress(Space),,,,instrumental,,,,---- ------ ------ ------- ------ --- ------- -----------<br>-- ----- --- ---- -- --- ------ ---- - ---- -- ----------<br>-- walked ---- --- ---- --- --- --- ----- -- -------- ---<br>------ ------- -------- --- ---- -- ------- ------------ --<br>------ -- ---- -- --- ---- -- -------- -- --- ------ ------,280153,280150,279907.94,279908,279908.22,280154.76,,21,walked
screen,html.Screen,2_3_1_0_1_22,2022-05-09T16:32:35.806Z,,,,,,,,,,,,,,,,,12,,,,,,,,,,,,,,257.2399999999907,,response,,,,5,G,,,,,,Space,keypress(Space),,,,instrumental,,,,---- ------ ------ ------- ------ --- ------- -----------<br>-- ----- --- ---- -- --- ------ ---- - ---- -- ----------<br>-- ------ into --- ---- --- --- --- ----- -- -------- ---<br>------ ------- -------- --- ---- -- ------- ------------ --<br>------ -- ---- -- --- ---- -- -------- -- --- ------ ------,280413,280412,280154.28,280154,280154.76,280414.46,,22,into
screen,html.Screen,2_3_1_0_1_23,2022-05-09T16:32:36.104Z,,,,,,,,,,,,,,,,,12,,,,,,,,,,,,,,295.53999999997905,,response,,,,5,G,,,,,,Space,keypress(Space),,,,instrumental,,,,---- ------ ------ ------- ------ --- ------- -----------<br>-- ----- --- ---- -- --- ------ ---- - ---- -- ----------<br>-- ------ ---- his ---- --- --- --- ----- -- -------- ---<br>------ ------- -------- --- ---- -- ------- ------------ --<br>------ -- ---- -- --- ---- -- -------- -- --- ------ ------,280712,280710,280414.12,280414,280414.46,280712.58,,23,his
screen,html.Screen,2_3_1_0_1_24,2022-05-09T16:32:36.430Z,,,,,,,,,,,,,,,,,12,,,,,,,,,,,,,,322.4199999999837,,response,,,,5,G,,,,,,Space,keypress(Space),,,,instrumental,,,,---- ------ ------ ------- ------ --- ------- -----------<br>-- ----- --- ---- -- --- ------ ---- - ---- -- ----------<br>-- ------ ---- --- bank --- --- --- ----- -- -------- ---<br>------ ------- -------- --- ---- -- ------- ------------ --<br>------ -- ---- -- --- ---- -- -------- -- --- ------ ------,281037,281035,280712.22,280712,280712.58,281039.04,,24,bank
screen,html.Screen,2_3_1_0_1_25,2022-05-09T16:32:36.760Z,,,,,,,,,,,,,,,,,12,,,,,,,,,,,,,,325.96000000002095,,response,,,,5,G,,,,,,Space,keypress(Space),,,,instrumental,,,,---- ------ ------ ------- ------ --- ------- -----------<br>-- ----- --- ---- -- --- ------ ---- - ---- -- ----------<br>-- ------ ---- --- ---- one --- --- ----- -- -------- ---<br>------ ------- -------- --- ---- -- ------- ------------ --<br>------ -- ---- -- --- ---- -- -------- -- --- ------ ------,281367,281365,281038.48,281038,281039.04,281368.02,,25,one
screen,html.Screen,2_3_1_0_1_26,2022-05-09T16:32:37.255Z,,,,,,,,,,,,,,,,,12,,,,,,,,,,,,,,491.9799999999814,,response,,,,5,G,,,,,,Space,keypress(Space),,,,instrumental,,,,---- ------ ------ ------- ------ --- ------- -----------<br>-- ----- --- ---- -- --- ------ ---- - ---- -- ----------<br>-- ------ ---- --- ---- --- day --- ----- -- -------- ---<br>------ ------- -------- --- ---- -- ------- ------------ --<br>------ -- ---- -- --- ---- -- -------- -- --- ------ ------,281863,281860,281367.66,281368,281368.02,281864.1,,26,day
screen,html.Screen,2_3_1_0_1_27,2022-05-09T16:32:37.490Z,,,,,,,,,,,,,,,,,12,,,,,,,,,,,,,,229.90000000002328,,response,,,,5,G,,,,,,Space,keypress(Space),,,,instrumental,,,,---- ------ ------ ------- ------ --- ------- -----------<br>-- ----- --- ---- -- --- ------ ---- - ---- -- ----------<br>-- ------ ---- --- ---- --- --- and ----- -- -------- ---<br>------ ------- -------- --- ---- -- ------- ------------ --<br>------ -- ---- -- --- ---- -- -------- -- --- ------ ------,282098,282094,281863.56,281863,281864.1,282099.74,,27,and
screen,html.Screen,2_3_1_0_1_28,2022-05-09T16:32:37.711Z,,,,,,,,,,,,,,,,,12,,,,,,,,,,,,,,216.2600000000093,,response,,,,5,G,,,,,,Space,keypress(Space),,,,instrumental,,,,---- ------ ------ ------- ------ --- ------- -----------<br>-- ----- --- ---- -- --- ------ ---- - ---- -- ----------<br>-- ------ ---- --- ---- --- --- --- asked -- -------- ---<br>------ ------- -------- --- ---- -- ------- ------------ --<br>------ -- ---- -- --- ---- -- -------- -- --- ------ ------,282319,282316,282099.22,282099,282099.74,282321.7,,28,asked
screen,html.Screen,2_3_1_0_1_29,2022-05-09T16:32:38.039Z,,,,,,,,,,,,,,,,,12,,,,,,,,,,,,,,321.29999999998836,,response,,,,5,G,,,,,,Space,keypress(Space),,,,instrumental,,,,---- ------ ------ ------- ------ --- ------- -----------<br>-- ----- --- ---- -- --- ------ ---- - ---- -- ----------<br>-- ------ ---- --- ---- --- --- --- ----- to -------- ---<br>------ ------- -------- --- ---- -- ------- ------------ --<br>------ -- ---- -- --- ---- -- -------- -- --- ------ ------,282646,282643,282321.18,282321,282321.7,282647.76,,29,to
screen,html.Screen,2_3_1_0_1_30,2022-05-09T16:32:38.329Z,,,,,,,,,,,,,,,,,12,,,,,,,,,,,,,,284.2399999999907,,response,,,,5,G,,,,,,Space,keypress(Space),,,,instrumental,,,,---- ------ ------ ------- ------ --- ------- -----------<br>-- ----- --- ---- -- --- ------ ---- - ---- -- ----------<br>-- ------ ---- --- ---- --- --- --- ----- -- withdraw ---<br>------ ------- -------- --- ---- -- ------- ------------ --<br>------ -- ---- -- --- ---- -- -------- -- --- ------ ------,282937,282932,282647.24,282647,282647.76,282938.72,,30,withdraw
screen,html.Screen,2_3_1_0_1_31,2022-05-09T16:32:38.653Z,,,,,,,,,,,,,,,,,12,,,,,,,,,,,,,,320.28000000002794,,response,,,,5,G,,,,,,Space,keypress(Space),,,,instrumental,,,,---- ------ ------ ------- ------ --- ------- -----------<br>-- ----- --- ---- -- --- ------ ---- - ---- -- ----------<br>-- ------ ---- --- ---- --- --- --- ----- -- -------- his<br>------ ------- -------- --- ---- -- ------- ------------ --<br>------ -- ---- -- --- ---- -- -------- -- --- ------ ------,283261,283259,282938.42,282938,282938.72,283261.98,,31,his
screen,html.Screen,2_3_1_0_1_32,2022-05-09T16:32:38.989Z,,,,,,,,,,,,,,,,,12,,,,,,,,,,,,,,332.0200000000186,,response,,,,5,G,,,,,,Space,keypress(Space),,,,instrumental,,,,---- ------ ------ ------- ------ --- ------- -----------<br>-- ----- --- ---- -- --- ------ ---- - ---- -- ----------<br>-- ------ ---- --- ---- --- --- --- ----- -- -------- ---<br>entire ------- -------- --- ---- -- ------- ------------ --<br>------ -- ---- -- --- ---- -- -------- -- --- ------ ------,283596,283594,283261.62,283262,283261.98,283598.12,,32,entire
screen,html.Screen,2_3_1_0_1_33,2022-05-09T16:32:39.225Z,,,,,,,,,,,,,,,,,12,,,,,,,,,,,,,,230.88000000000466,,response,,,,5,G,,,,,,Space,keypress(Space),,,,instrumental,,,,---- ------ ------ ------- ------ --- ------- -----------<br>-- ----- --- ---- -- --- ------ ---- - ---- -- ----------<br>-- ------ ---- --- ---- --- --- --- ----- -- -------- ---<br>------ account -------- --- ---- -- ------- ------------ --<br>------ -- ---- -- --- ---- -- -------- -- --- ------ ------,283832,283829,283597.58,283597,283598.12,283833.54,,33,account
screen,html.Screen,2_3_1_0_1_34,2022-05-09T16:32:39.535Z,,,,,,,,,,,,,,,,,12,,,,,,,,,,,,,,307.46000000002095,,response,,,,5,G,,,,,,Space,keypress(Space),,,,instrumental,,,,"---- ------ ------ ------- ------ --- ------- -----------<br>-- ----- --- ---- -- --- ------ ---- - ---- -- ----------<br>-- ------ ---- --- ---- --- --- --- ----- -- -------- ---<br>------ ------- balance, --- ---- -- ------- ------------ --<br>------ -- ---- -- --- ---- -- -------- -- --- ------ ------",284142,284141,283832.98,283833,283833.54,284143.52,,34,"balance,"
screen,html.Screen,2_3_1_0_1_35,2022-05-09T16:32:39.867Z,,,,,,,,,,,,,,,,,12,,,,,,,,,,,,,,327.4799999999814,,response,,,,5,G,,,,,,Space,keypress(Space),,,,instrumental,,,,---- ------ ------ ------- ------ --- ------- -----------<br>-- ----- --- ---- -- --- ------ ---- - ---- -- ----------<br>-- ------ ---- --- ---- --- --- --- ----- -- -------- ---<br>------ ------- -------- but ---- -- ------- ------------ --<br>------ -- ---- -- --- ---- -- -------- -- --- ------ ------,284475,284471,284143.24,284143,284143.52,284476.08,,35,but
screen,html.Screen,2_3_1_0_1_36,2022-05-09T16:32:40.196Z,,,,,,,,,,,,,,,,,12,,,,,,,,,,,,,,323.9199999999837,,response,,,,5,G,,,,,,Space,keypress(Space),,,,instrumental,,,,---- ------ ------ ------- ------ --- ------- -----------<br>-- ----- --- ---- -- --- ------ ---- - ---- -- ----------<br>-- ------ ---- --- ---- --- --- --- ----- -- -------- ---<br>------ ------- -------- --- with -- ------- ------------ --<br>------ -- ---- -- --- ---- -- -------- -- --- ------ ------,284803,284800,284475.6,284475,284476.08,284804.78,,36,with
screen,html.Screen,2_3_1_0_1_37,2022-05-09T16:32:40.485Z,,,,,,,,,,,,,,,,,12,,,,,,,,,,,,,,285.21999999997206,,response,,,,5,G,,,,,,Space,keypress(Space),,,,instrumental,,,,---- ------ ------ ------- ------ --- ------- -----------<br>-- ----- --- ---- -- --- ------ ---- - ---- -- ----------<br>-- ------ ---- --- ---- --- --- --- ----- -- -------- ---<br>------ ------- -------- --- ---- an ------- ------------ --<br>------ -- ---- -- --- ---- -- -------- -- --- ------ ------,285093,285090,284804.24,284804,284804.78,285093.24,,37,an
screen,html.Screen,2_3_1_0_1_38,2022-05-09T16:32:40.711Z,,,,,,,,,,,,,,,,,12,,,,,,,,,,,,,,221.7600000000093,,response,,,,5,G,,,,,,Space,keypress(Space),,,,instrumental,,,,---- ------ ------ ------- ------ --- ------- -----------<br>-- ----- --- ---- -- --- ------ ---- - ---- -- ----------<br>-- ------ ---- --- ---- --- --- --- ----- -- -------- ---<br>------ ------- -------- --- ---- -- unusual ------------ --<br>------ -- ---- -- --- ---- -- -------- -- --- ------ ------,285318,285315,285092.9,285093,285093.24,285319.76,,38,unusual
screen,html.Screen,2_3_1_0_1_39,2022-05-09T16:32:41.098Z,,,,,,,,,,,,,,,,,12,,,,,,,,,,,,,,382.2399999999907,,response,,,,5,G,,,,,,Space,keypress(Space),,,,instrumental,,,,---- ------ ------ ------- ------ --- ------- -----------<br>-- ----- --- ---- -- --- ------ ---- - ---- -- ----------<br>-- ------ ---- --- ---- --- --- --- ----- -- -------- ---<br>------ ------- -------- --- ---- -- ------- stipulation: --<br>------ -- ---- -- --- ---- -- -------- -- --- ------ ------,285705,285702,285319.32,285319,285319.76,285707.72,,39,stipulation:
screen,html.Screen,2_3_1_0_1_40,2022-05-09T16:32:41.481Z,,,,,,,,,,,,,,,,,12,,,,,,,,,,,,,,377.28000000002794,,response,,,,5,G,,,,,,Space,keypress(Space),,,,instrumental,,,,---- ------ ------ ------- ------ --- ------- -----------<br>-- ----- --- ---- -- --- ------ ---- - ---- -- ----------<br>-- ------ ---- --- ---- --- --- --- ----- -- -------- ---<br>------ ------- -------- --- ---- -- ------- ------------ He<br>------ -- ---- -- --- ---- -- -------- -- --- ------ ------,286089,286085,285707.2,285707,285707.72,286095.14,,40,He
screen,html.Screen,2_3_1_0_1_41,2022-05-09T16:32:41.843Z,,,,,,,,,,,,,,,,,12,,,,,,,,,,,,,,352.85999999998603,,response,,,,5,G,,,,,,Space,keypress(Space),,,,instrumental,,,,---- ------ ------ ------- ------ --- ------- -----------<br>-- ----- --- ---- -- --- ------ ---- - ---- -- ----------<br>-- ------ ---- --- ---- --- --- --- ----- -- -------- ---<br>------ ------- -------- --- ---- -- ------- ------------ --<br>wanted -- ---- -- --- ---- -- -------- -- --- ------ ------,286450,286448,286090.7,286090,286095.14,286451.62,,41,wanted
screen,html.Screen,2_3_1_0_1_42,2022-05-09T16:32:42.121Z,,,,,,,,,,,,,,,,,12,,,,,,,,,,,,,,273.38000000000466,,response,,,,5,G,,,,,,Space,keypress(Space),,,,instrumental,,,,---- ------ ------ ------- ------ --- ------- -----------<br>-- ----- --- ---- -- --- ------ ---- - ---- -- ----------<br>-- ------ ---- --- ---- --- --- --- ----- -- -------- ---<br>------ ------- -------- --- ---- -- ------- ------------ --<br>------ as ---- -- --- ---- -- -------- -- --- ------ ------,286729,286725,286451.12,286451,286451.62,286729.94,,42,as
screen,html.Screen,2_3_1_0_1_43,2022-05-09T16:32:42.444Z,,,,,,,,,,,,,,,,,12,,,,,,,,,,,,,,317.0599999999977,,response,,,,5,G,,,,,,Space,keypress(Space),,,,instrumental,,,,---- ------ ------ ------- ------ --- ------- -----------<br>-- ----- --- ---- -- --- ------ ---- - ---- -- ----------<br>-- ------ ---- --- ---- --- --- --- ----- -- -------- ---<br>------ ------- -------- --- ---- -- ------- ------------ --<br>------ -- much -- --- ---- -- -------- -- --- ------ ------,287052,287047,286729.56,286729,286729.94,287052.8,,43,much
screen,html.Screen,2_3_1_0_1_44,2022-05-09T16:32:42.739Z,,,,,,,,,,,,,,,,,12,,,,,,,,,,,,,,292.20000000001164,,response,,,,5,G,,,,,,Space,keypress(Space),,,,instrumental,,,,---- ------ ------ ------- ------ --- ------- -----------<br>-- ----- --- ---- -- --- ------ ---- - ---- -- ----------<br>-- ------ ---- --- ---- --- --- --- ----- -- -------- ---<br>------ ------- -------- --- ---- -- ------- ------------ --<br>------ -- ---- of --- ---- -- -------- -- --- ------ ------,287346,287345,287052.3,287052,287052.8,287347.96,,44,of
screen,html.Screen,2_3_1_0_1_45,2022-05-09T16:32:43.021Z,,,,,,,,,,,,,,,,,12,,,,,,,,,,,,,,278.03999999997905,,response,,,,5,G,,,,,,Space,keypress(Space),,,,instrumental,,,,---- ------ ------ ------- ------ --- ------- -----------<br>-- ----- --- ---- -- --- ------ ---- - ---- -- ----------<br>-- ------ ---- --- ---- --- --- --- ----- -- -------- ---<br>------ ------- -------- --- ---- -- ------- ------------ --<br>------ -- ---- -- the ---- -- -------- -- --- ------ ------,287628,287626,287347.46,287347,287347.96,287630.6,,45,the
screen,html.Screen,2_3_1_0_1_46,2022-05-09T16:32:43.320Z,,,,,,,,,,,,,,,,,12,,,,,,,,,,,,,,294.4000000000233,,response,,,,5,G,,,,,,Space,keypress(Space),,,,instrumental,,,,---- ------ ------ ------- ------ --- ------- -----------<br>-- ----- --- ---- -- --- ------ ---- - ---- -- ----------<br>-- ------ ---- --- ---- --- --- --- ----- -- -------- ---<br>------ ------- -------- --- ---- -- ------- ------------ --<br>------ -- ---- -- --- cash -- -------- -- --- ------ ------,287927,287925,287629.48,287629,287630.6,287928.22,,46,cash
screen,html.Screen,2_3_1_0_1_47,2022-05-09T16:32:43.629Z,,,,,,,,,,,,,,,,,12,,,,,,,,,,,,,,305.78000000002794,,response,,,,5,G,,,,,,Space,keypress(Space),,,,instrumental,,,,---- ------ ------ ------- ------ --- ------- -----------<br>-- ----- --- ---- -- --- ------ ---- - ---- -- ----------<br>-- ------ ---- --- ---- --- --- --- ----- -- -------- ---<br>------ ------- -------- --- ---- -- ------- ------------ --<br>------ -- ---- -- --- ---- as -------- -- --- ------ ------,288236,288234,287927.86,287928,287928.22,288238.26,,47,as
screen,html.Screen,2_3_1_0_1_48,2022-05-09T16:32:44.034Z,,,,,,,,,,,,,,,,,12,,,,,,,,,,,,,,399.7399999999907,,response,,,,5,G,,,,,,Space,keypress(Space),,,,instrumental,,,,---- ------ ------ ------- ------ --- ------- -----------<br>-- ----- --- ---- -- --- ------ ---- - ---- -- ----------<br>-- ------ ---- --- ---- --- --- --- ----- -- -------- ---<br>------ ------- -------- --- ---- -- ------- ------------ --<br>------ -- ---- -- --- ---- -- possible -- --- ------ ------,288641,288638,288237.8,288237,288238.26,288641.98,,48,possible
screen,html.Screen,2_3_1_0_1_49,2022-05-09T16:32:44.380Z,,,,,,,,,,,,,,,,,12,,,,,,,,,,,,,,344.0200000000186,,response,,,,5,G,,,,,,Space,keypress(Space),,,,instrumental,,,,---- ------ ------ ------- ------ --- ------- -----------<br>-- ----- --- ---- -- --- ------ ---- - ---- -- ----------<br>-- ------ ---- --- ---- --- --- --- ----- -- -------- ---<br>------ ------- -------- --- ---- -- ------- ------------ --<br>------ -- ---- -- --- ---- -- -------- in --- ------ ------,288987,288986,288641.48,288642,288641.98,289004.68,,49,in
screen,html.Screen,2_3_1_0_1_50,2022-05-09T16:32:44.709Z,,,,,,,,,,,,,,,,,12,,,,,,,,,,,,,,308.320000000007,,response,,,,5,G,,,,,,Space,keypress(Space),,,,instrumental,,,,---- ------ ------ ------- ------ --- ------- -----------<br>-- ----- --- ---- -- --- ------ ---- - ---- -- ----------<br>-- ------ ---- --- ---- --- --- --- ----- -- -------- ---<br>------ ------- -------- --- ---- -- ------- ------------ --<br>------ -- ---- -- --- ---- -- -------- -- one ------ ------,289316,289313,288988.48,288988,289004.68,289317.64,,50,one
screen,html.Screen,2_3_1_0_1_51,2022-05-09T16:32:45.127Z,,,,,,,,,,,,,,,,,12,,,,,,,,,,,,,,415.35999999998603,,response,,,,5,G,,,,,,Space,keypress(Space),,,,instrumental,,,,---- ------ ------ ------- ------ --- ------- -----------<br>-- ----- --- ---- -- --- ------ ---- - ---- -- ----------<br>-- ------ ---- --- ---- --- --- --- ----- -- -------- ---<br>------ ------- -------- --- ---- -- ------- ------------ --<br>------ -- ---- -- --- ---- -- -------- -- --- dollar ------,289735,289733,289317.3,289317,289317.64,289735.58,,51,dollar
screen,html.Screen,2_3_1_0_1_52,2022-05-09T16:32:46.292Z,,,,,,,,,,,,,,,,,12,,,,,,,,,,,,,,1161.4199999999837,,response,,,,5,G,,,,,,Space,keypress(Space),,,,instrumental,,,,---- ------ ------ ------- ------ --- ------- -----------<br>-- ----- --- ---- -- --- ------ ---- - ---- -- ----------<br>-- ------ ---- --- ---- --- --- --- ----- -- -------- ---<br>------ ------- -------- --- ---- -- ------- ------------ --<br>------ -- ---- -- --- ---- -- -------- -- --- ------ notes.,290899,290897,289735.22,289735,289735.58,290902.02,,52,notes.
Item 5,flow.Loop,2_3_1_0_1,2022-05-09T16:32:46.293Z,,,,,,,,,,,,,,,,,,,,,,,,,,,,,,,19324.23999999999,,completion,,,,,,,,,,,,,,,,,,,,,290901,290897,271556.54,271559,271572.76,290902.02,,,
Question 1,html.Screen,2_3_1_0_2,2022-05-09T16:32:49.366Z,,,,,,,,,,,,,,,,,,,,,,,,,,,,true,TRUE,,3066.9799999999814,,response,,,,5,G,,,,,,TRUE,click #choice-1,,,,instrumental,,,,,293974,293969,290901.52,290902,290902.02,293977.38,,,
Question 2,html.Screen,2_3_1_0_3,2022-05-09T16:32:52.799Z,,,,,,,,,,,,,,,,,,,,,,,,,,,,true,TRUE,,3422.6199999999953,,response,,,,5,G,,,,,,TRUE,click #choice-1,,,,instrumental,,,,,297407,297400,293972.26,293974,293977.38,297421,,,
Item 5,flow.Sequence,2_3_1_0,2022-05-09T16:32:52.800Z,,,,,,,,,,,,,,,,,,,,,,,,,,,,,,,32824.90000000002,,completion,,,,,,,,,,,,,,,,,,,,,297408,297400,264557.9,264563,264575.1,297421,,,
Holding screen,html.Screen,2_3_1_1_0,2022-05-09T16:32:59.796Z,,,,,,,,,,,,,,,,,,,,,,,,,,,,,,,6997.340000000026,,timeout,,,,,,,,,,,,,,,,,,,,,304403,304401.88,297404.86,297409,297421,304418.34,,,
