sender,sender_type,sender_id,timestamp,meta,,Blues,Classical,Country,Dance,Electronic,Folk,Gospel,Hip-Hop,Jazz,Latin,Musical/Film,New-age,Pop,Prolific_id,Provo_ID,R&B,Rap,Reggae,Religious,Rock,Soul,Swing,Traditional,age,artist_name,correct,correctResponse,distraction,duration,education,ended_on,familiarity,gender,headphone_check_performance,item,list,music_frequency,offensiveness,pleasantness,position_correct,preference,response,response_action,snippet_file,song_name,song_rating,sound,stimulus_1,stimulus_2,stimulus_3,text,time_commit,time_end,time_render,time_run,time_show,time_switch,url,word,word_ID
Prolific ID,html.Form,0,2022-05-03T10:30:44.047Z,"{""labjs_version"":""20.2.2"",""labjs_build"":{""flavor"":""production"",""commit"":""a25486e0c714a0ae2ce03ff94b7bb6896854dcfa""},""location"":""https://run.pavlovia.org/mvasilev/prolific3_music_h/"",""userAgent"":""Mozilla/5.0 (Macintosh; Intel Mac OS X 10_15_7) AppleWebKit/537.36 (KHTML, like Gecko) Chrome/100.0.4896.127 Safari/537.36"",""platform"":""MacIntel"",""language"":""en-GB"",""locale"":""en-GB"",""timeZone"":""Europe/London"",""timezoneOffset"":-60,""screen_width"":1440,""screen_height"":900,""scroll_width"":1440,""scroll_height"":773,""window_innerWidth"":1440,""window_innerHeight"":821,""devicePixelRatio"":2}",,,,,,,,,,,,,,,5c747244f33ac60001b7a9e2,,,,,,,,,,,,,,,839186.080000006,,form submission,,,,,,,,,,,,,,,,,,,,,852117.6999999881,852115.900000006,12913.165,12914.90000000596,12929.82,852123.781,{},,
Introduction,html.Screen,1_0,2022-05-03T10:30:53.003Z,,,,,,,,,,,,,,,,,,,,,,,,,,,,,,,8934.91899998812,,response,,,,,,,,,,,continue,click button,,,,,,,,,861073.6999999881,861058.6999999881,852107.126,852119.7999999821,852123.781,861084.551,,,
Volume calibration,html.Screen,1_1,2022-05-03T10:31:10.283Z,,,,,,,,,,,,,,,,,,,,,,,,,,,,,,,17167.349000005983,,response,,,,,,,,,,,continue,click button,,,,,,,,,878275.099999994,878251.900000006,861067.896,861074,861084.551,878273.041,,,
Task instructions,html.Screen,1_2,2022-05-03T10:31:15.023Z,,,,,,,,,,,,,,,,,,,,,,,,,,,,,,,4732.158999988111,,response,,,,,,,,,,,continue,click button,,,,,,,,,883015.5,883005.1999999881,878256.386,878275.1999999881,878273.041,883019.716,,,
Sounds,html.Screen,1_3_0_0,2022-05-03T10:31:19.265Z,,,,,,,,,,,,,,,,,,,,,,,,,,,,,,,4247.506999999983,,timeout,,,,,,,,,3,,,,,,,,O,I,S,,887257.599999994,887250.568,883003.061,883016,883019.716,887267.223,,,
Judgement,html.Screen,1_3_0_1,2022-05-03T10:31:20.105Z,,,,,,,,,,,,,,,,,,,,,,,,,,,,true,3,,813.3769999940414,,response,,,,,,,,,3,,3,click #choice-3,,,,,O,I,S,,888097.2999999821,888080.599999994,887250.568,887257.900000006,887267.223,888099.973,,,
Trial,flow.Sequence,1_3_0,2022-05-03T10:31:20.108Z,,,,,,,,,,,,,,,,,,,,,,,,,,,,,,,5060.883999994025,,completion,,,,,,,,,3,,,,,,,,O,I,S,,888100.400000006,888080.599999994,883003.061,883015.7999999821,883019.716,888099.973,,,
Sounds,html.Screen,1_3_1_0,2022-05-03T10:31:24.340Z,,,,,,,,,,,,,,,,,,,,,,,,,,,,,,,4247.025000000023,,timeout,,,,,,,,,3,,,,,,,,I,O,S,,892333.099999994,892330.343,888083.318,888101.099999994,888099.973,892346.998,,,
Judgement,html.Screen,1_3_1_1,2022-05-03T10:31:24.786Z,,,,,,,,,,,,,,,,,,,,,,,,,,,,true,3,,414.8019999820972,,response,,,,,,,,,3,,3,click #choice-3,,,,,I,O,S,,892779.2999999821,892761.7999999821,892330.343,892333.599999994,892346.998,892780.028,,,
Trial,flow.Sequence,1_3_1,2022-05-03T10:31:24.787Z,,,,,,,,,,,,,,,,,,,,,,,,,,,,,,,4661.8269999821205,,completion,,,,,,,,,3,,,,,,,,I,O,S,,892779.7999999821,892761.7999999821,888083.318,888100.7999999821,888099.973,892780.028,,,
Sounds,html.Screen,1_3_2_0,2022-05-03T10:31:29.020Z,,,,,,,,,,,,,,,,,,,,,,,,,,,,,,,4247.024999999907,,timeout,,,,,,,,,1,,,,,,,,S,I,O,,897013.099999994,897010.398,892763.373,892780.099999994,892780.028,897027.053,,,
Judgement,html.Screen,1_3_2_1,2022-05-03T10:31:29.903Z,,,,,,,,,,,,,,,,,,,,,,,,,,,,true,1,,855.2469999821624,,response,,,,,,,,,1,,1,click #choice-1,,,,,S,I,O,,897896.099999994,897882.2999999821,897010.398,897013.400000006,897027.053,897910.293,,,
Trial,flow.Sequence,1_3_2,2022-05-03T10:31:29.905Z,,,,,,,,,,,,,,,,,,,,,,,,,,,,,,,5102.271999982069,,completion,,,,,,,,,1,,,,,,,,S,I,O,,897898.1999999881,897882.2999999821,892763.373,892780,892780.028,897910.293,,,
Sounds,html.Screen,1_3_3_0,2022-05-03T10:31:34.149Z,,,,,,,,,,,,,,,,,,,,,,,,,,,,,,,4247.025000000023,,timeout,,,,,,,,,2,,,,,,,,O,S,I,,902142.5,902140.663,897893.638,897898.7999999821,897910.293,902157.318,,,
Judgement,html.Screen,1_3_3_1,2022-05-03T10:31:34.965Z,,,,,,,,,,,,,,,,,,,,,,,,,,,,false,2,,774.8819999881089,,response,,,,,,,,,2,,1,click #choice-1,,,,,O,S,I,,902958.099999994,902932.1999999881,902140.663,902142.7999999821,902157.318,902973.413,,,
Trial,flow.Sequence,1_3_3,2022-05-03T10:31:34.965Z,,,,,,,,,,,,,,,,,,,,,,,,,,,,,,,5021.906999988132,,completion,,,,,,,,,2,,,,,,,,O,S,I,,902958.2999999821,902932.1999999881,897893.638,897898.599999994,897910.293,902973.413,,,
Sounds,html.Screen,1_3_4_0,2022-05-03T10:31:39.212Z,,,,,,,,,,,,,,,,,,,,,,,,,,,,,,,4247.025000000023,,timeout,,,,,,,,,1,,,,,,,,S,O,I,,907205.099999994,907203.783,902956.758,902958.599999994,902973.413,907220.438,,,
Judgement,html.Screen,1_3_4_1,2022-05-03T10:31:39.966Z,,,,,,,,,,,,,,,,,,,,,,,,,,,,true,1,,716.5620000000345,,response,,,,,,,,,1,,1,click #choice-1,,,,,S,O,I,,907958.7999999821,907937,907203.783,907205.400000006,907220.438,907970.295,,,
Trial,flow.Sequence,1_3_4,2022-05-03T10:31:39.966Z,,,,,,,,,,,,,,,,,,,,,,,,,,,,,,,4963.587000000058,,completion,,,,,,,,,1,,,,,,,,S,O,I,,907959.099999994,907937,902956.758,902958.5,902973.413,907970.295,,,
Sounds,html.Screen,1_3_5_0,2022-05-03T10:31:44.209Z,,,,,,,,,,,,,,,,,,,,,,,,,,,,,,,4247.024999999907,,timeout,,,,,,,,,2,,,,,,,,I,S,O,,912202.400000006,912200.665,907953.64,907959.2999999821,907970.295,912217.32,,,
Judgement,html.Screen,1_3_5_1,2022-05-03T10:31:45.125Z,,,,,,,,,,,,,,,,,,,,,,,,,,,,true,2,,889.7799999940908,,response,,,,,,,,,2,,2,click #choice-2,,,,,I,S,O,,913118.400000006,913107.099999994,912200.665,912202.599999994,912217.32,913133.345,,,
Trial,flow.Sequence,1_3_5,2022-05-03T10:31:45.126Z,,,,,,,,,,,,,,,,,,,,,,,,,,,,,,,5136.804999993998,,completion,,,,,,,,,2,,,,,,,,I,S,O,,913119.400000006,913107.099999994,907953.64,907959.1999999881,907970.295,913133.345,,,
Task,flow.Loop,1_3,2022-05-03T10:31:45.134Z,,,,,,,,,,,,,,,,,,,,,,,,,,,,,,,30087.383999994025,,completion,,,0.8333333333333334,,,,,,,,,,,,,,,,,,913127.6999999881,913107.099999994,883003.061,883015.6999999881,883019.716,913133.345,,,
Trap,html.Screen,1_4,2022-05-03T10:31:45.139Z,,,,,,,,,,,,,,,,,,,,,,,,,,,,,,,NaN,,skipped,,,,,,,,,,,,,,,,,,,,,913132,913107.099999994,,913131.1999999881,,913133.345,,,
Thanks,html.Screen,1_5,2022-05-03T10:31:48.443Z,,,,,,,,,,,,,,,,,,,,,,,,,,,,,,,3287.4549999821465,,response,,,,,,,,,,,continue,click button,,,,,,,,,916436.900000006,916420.7999999821,913116.69,913132.2999999821,913133.345,940082.346,,,
Headphone screening,flow.Sequence,1,2022-05-03T10:31:48.444Z,,,,,,,,,,,,,,,,,,,,,,,,,,,,,,,64297.01899998216,,completion,,,,,,,,,,,,,,,,,,,,,916437.2999999821,916420.7999999821,852107.126,852119.599999994,852123.781,940082.346,,,
Instructions,html.Page,2_0,2022-05-03T10:32:37.477Z,,,,,,,,,,,,,,,,,,,,,,,,,,,,,,,25388.75399999402,,form submission,,,,,,,,,,,,,,,,,,,,,965471.400000006,965471.099999994,940065.691,940076.7999999821,940082.346,965481.221,,,
Holding screen,html.Screen,2_1_0_0,2022-05-03T10:32:47.467Z,,,,,,,,,,,,,,,,,,,,,,,,,,,,,,,9993.976000000024,,timeout,,,,,,,,,,,,,,,,,,,,,975461.5,975458.542,965464.566,965471.7999999821,965481.221,975475.197,,,
screen,html.Screen,2_1_0_1_0,2022-05-03T10:32:49.225Z,,,,,,,,,,,,,,,,,53,,,,,,,,,,,,,,1734.0029999880353,,response,,,,99,,,,,,,Space,keypress(Space),,,,,,,,When -- ----- -- ------ - ------- --- ----------<br>------------- ------ ------ ---- ---- ------- ----- -- ----<br>-------- ------- -- ---------- --- - --- ----- ----- ----<br>---- --- --- ----- --- ---- ---- ------- ----- ---- -------<br>--- --- -- ----- -- --- ---- -- --- ---- -- ------ ------<br>--- ----- -- ----,977219.6999999881,977209.1999999881,975458.542,975462.099999994,975475.197,977223.972,,0,When
screen,html.Screen,2_1_0_1_1,2022-05-03T10:32:49.731Z,,,,,,,,,,,,,,,,,53,,,,,,,,,,,,,,497.72799998812843,,response,,,,99,,,,,,,Space,keypress(Space),,,,,,,,---- it ----- -- ------ - ------- --- ----------<br>------------- ------ ------ ---- ---- ------- ----- -- ----<br>-------- ------- -- ---------- --- - --- ----- ----- ----<br>---- --- --- ----- --- ---- ---- ------- ----- ---- -------<br>--- --- -- ----- -- --- ---- -- --- ---- -- ------ ------<br>--- ----- -- ----,977726.099999994,977721.6999999881,977207.317,977219.900000006,977223.972,977740.277,,1,it
screen,html.Screen,2_1_0_1_2,2022-05-03T10:32:50.174Z,,,,,,,,,,,,,,,,,53,,,,,,,,,,,,,,423.6230000059586,,response,,,,99,,,,,,,Space,keypress(Space),,,,,,,,---- -- comes -- ------ - ------- --- ----------<br>------------- ------ ------ ---- ---- ------- ----- -- ----<br>-------- ------- -- ---------- --- - --- ----- ----- ----<br>---- --- --- ----- --- ---- ---- ------- ----- ---- -------<br>--- --- -- ----- -- --- ---- -- --- ---- -- ------ ------<br>--- ----- -- ----,978169.5,978163.900000006,977723.622,977726.2999999821,977740.277,978173.748,,2,comes
screen,html.Screen,2_1_0_1_3,2022-05-03T10:32:50.515Z,,,,,,,,,,,,,,,,,53,,,,,,,,,,,,,,329.95199998805765,,response,,,,99,,,,,,,Space,keypress(Space),,,,,,,,---- -- ----- to ------ - ------- --- ----------<br>------------- ------ ------ ---- ---- ------- ----- -- ----<br>-------- ------- -- ---------- --- - --- ----- ----- ----<br>---- --- --- ----- --- ---- ---- ------- ----- ---- -------<br>--- --- -- ----- -- --- ---- -- --- ---- -- ------ ------<br>--- ----- -- ----,978510,978503.6999999881,978157.093,978169.7999999821,978173.748,978523.503,,3,to
screen,html.Screen,2_1_0_1_4,2022-05-03T10:32:50.879Z,,,,,,,,,,,,,,,,,53,,,,,,,,,,,,,,344.3970000059344,,response,,,,99,,,,,,,Space,keypress(Space),,,,,,,,---- -- ----- -- having - ------- --- ----------<br>------------- ------ ------ ---- ---- ------- ----- -- ----<br>-------- ------- -- ---------- --- - --- ----- ----- ----<br>---- --- --- ----- --- ---- ---- ------- ----- ---- -------<br>--- --- -- ----- -- --- ---- -- --- ---- -- ------ ------<br>--- ----- -- ----,978873.7999999821,978867.900000006,978506.848,978510.1999999881,978523.503,978889.913,,4,having
screen,html.Screen,2_1_0_1_5,2022-05-03T10:32:51.204Z,,,,,,,,,,,,,,,,,53,,,,,,,,,,,,,,303.7869999881368,,response,,,,99,,,,,,,Space,keypress(Space),,,,,,,,---- -- ----- -- ------ a ------- --- ----------<br>------------- ------ ------ ---- ---- ------- ----- -- ----<br>-------- ------- -- ---------- --- - --- ----- ----- ----<br>---- --- --- ----- --- ---- ---- ------- ----- ---- -------<br>--- --- -- ----- -- --- ---- -- --- ---- -- ------ ------<br>--- ----- -- ----,979199.599999994,979193.6999999881,978873.258,978873.900000006,978889.913,979206.358,,5,a
screen,html.Screen,2_1_0_1_6,2022-05-03T10:32:51.501Z,,,,,,,,,,,,,,,,,53,,,,,,,,,,,,,,283.542000005953,,response,,,,99,,,,,,,Space,keypress(Space),,,,,,,,---- -- ----- -- ------ - lasting --- ----------<br>------------- ------ ------ ---- ---- ------- ----- -- ----<br>-------- ------- -- ---------- --- - --- ----- ----- ----<br>---- --- --- ----- --- ---- ---- ------- ----- ---- -------<br>--- --- -- ----- -- --- ---- -- --- ---- -- ------ ------<br>--- ----- -- ----,979495.7999999821,979489.900000006,979189.703,979200,979206.358,979506.148,,6,lasting
screen,html.Screen,2_1_0_1_7,2022-05-03T10:32:51.791Z,,,,,,,,,,,,,,,,,53,,,,,,,,,,,,,,274.75200000591576,,response,,,,99,,,,,,,Space,keypress(Space),,,,,,,,---- -- ----- -- ------ - ------- and ----------<br>------------- ------ ------ ---- ---- ------- ----- -- ----<br>-------- ------- -- ---------- --- - --- ----- ----- ----<br>---- --- --- ----- --- ---- ---- ------- ----- ---- -------<br>--- --- -- ----- -- --- ---- -- --- ---- -- ------ ------<br>--- ----- -- ----,979786.2999999821,979780.900000006,979489.493,979496,979506.148,979789.283,,7,and
screen,html.Screen,2_1_0_1_8,2022-05-03T10:32:52.217Z,,,,,,,,,,,,,,,,,53,,,,,,,,,,,,,,416.41699998802505,,response,,,,99,,,,,,,Space,keypress(Space),,,,,,,,---- -- ----- -- ------ - ------- --- fulfilling<br>------------- ------ ------ ---- ---- ------- ----- -- ----<br>-------- ------- -- ---------- --- - --- ----- ----- ----<br>---- --- --- ----- --- ---- ---- ------- ----- ---- -------<br>--- --- -- ----- -- --- ---- -- --- ---- -- ------ ------<br>--- ----- -- ----,980212.099999994,980205.6999999881,979772.628,979786.599999994,979789.283,980222.313,,8,fulfilling
screen,html.Screen,2_1_0_1_9,2022-05-03T10:32:52.620Z,,,,,,,,,,,,,,,,,53,,,,,,,,,,,,,,386.38699998811353,,response,,,,99,,,,,,,Space,keypress(Space),,,,,,,,"---- -- ----- -- ------ - ------- --- ----------<br>relationship, ------ ------ ---- ---- ------- ----- -- ----<br>-------- ------- -- ---------- --- - --- ----- ----- ----<br>---- --- --- ----- --- ---- ---- ------- ----- ---- -------<br>--- --- -- ----- -- --- ---- -- --- ---- -- ------ ------<br>--- ----- -- ----",980614.6999999881,980608.6999999881,980205.658,980212.2999999821,980222.313,980622.033,,9,"relationship,"
screen,html.Screen,2_1_0_1_10,2022-05-03T10:32:53.077Z,,,,,,,,,,,,,,,,,53,,,,,,,,,,,,,,441.7669999820646,,response,,,,99,,,,,,,Space,keypress(Space),,,,,,,,---- -- ----- -- ------ - ------- --- ----------<br>------------- common ------ ---- ---- ------- ----- -- ----<br>-------- ------- -- ---------- --- - --- ----- ----- ----<br>---- --- --- ----- --- ---- ---- ------- ----- ---- -------<br>--- --- -- ----- -- --- ---- -- --- ---- -- ------ ------<br>--- ----- -- ----,981072.5,981063.7999999821,980605.378,980614.900000006,980622.033,981088.373,,10,common
screen,html.Screen,2_1_0_1_11,2022-05-03T10:32:53.450Z,,,,,,,,,,,,,,,,,53,,,,,,,,,,,,,,351.32699998805765,,response,,,,99,,,,,,,Space,keypress(Space),,,,,,,,---- -- ----- -- ------ - ------- --- ----------<br>------------- ------ wisdom ---- ---- ------- ----- -- ----<br>-------- ------- -- ---------- --- - --- ----- ----- ----<br>---- --- --- ----- --- ---- ---- ------- ----- ---- -------<br>--- --- -- ----- -- --- ---- -- --- ---- -- ------ ------<br>--- ----- -- ----,981445.5,981439.6999999881,981071.718,981073.1999999881,981088.373,981454.783,,11,wisdom
screen,html.Screen,2_1_0_1_12,2022-05-03T10:32:53.810Z,,,,,,,,,,,,,,,,,53,,,,,,,,,,,,,,345.8169999939855,,response,,,,99,,,,,,,Space,keypress(Space),,,,,,,,---- -- ----- -- ------ - ------- --- ----------<br>------------- ------ ------ says ---- ------- ----- -- ----<br>-------- ------- -- ---------- --- - --- ----- ----- ----<br>---- --- --- ----- --- ---- ---- ------- ----- ---- -------<br>--- --- -- ----- -- --- ---- -- --- ---- -- ------ ------<br>--- ----- -- ----,981805.099999994,981800.599999994,981438.128,981445.6999999881,981454.783,981821.193,,12,says
screen,html.Screen,2_1_0_1_13,2022-05-03T10:32:54.202Z,,,,,,,,,,,,,,,,,53,,,,,,,,,,,,,,369.5069999881089,,response,,,,99,,,,,,,Space,keypress(Space),,,,,,,,---- -- ----- -- ------ - ------- --- ----------<br>------------- ------ ------ ---- that ------- ----- -- ----<br>-------- ------- -- ---------- --- - --- ----- ----- ----<br>---- --- --- ----- --- ---- ---- ------- ----- ---- -------<br>--- --- -- ----- -- --- ---- -- --- ---- -- ------ ------<br>--- ----- -- ----,982196.7999999821,982190.6999999881,981804.538,981805.5,981821.193,982204.258,,13,that
screen,html.Screen,2_1_0_1_14,2022-05-03T10:32:54.517Z,,,,,,,,,,,,,,,,,53,,,,,,,,,,,,,,301.3419999940088,,response,,,,99,,,,,,,Space,keypress(Space),,,,,,,,---- -- ----- -- ------ - ------- --- ----------<br>------------- ------ ------ ---- ---- feeling ----- -- ----<br>-------- ------- -- ---------- --- - --- ----- ----- ----<br>---- --- --- ----- --- ---- ---- ------- ----- ---- -------<br>--- --- -- ----- -- --- ---- -- --- ---- -- ------ ------<br>--- ----- -- ----,982512.099999994,982505.599999994,982187.603,982197,982204.258,982520.703,,14,feeling
screen,html.Screen,2_1_0_1_15,2022-05-03T10:32:54.903Z,,,,,,,,,,,,,,,,,53,,,,,,,,,,,,,,370.99699998809956,,response,,,,99,,,,,,,Space,keypress(Space),,,,,,,,---- -- ----- -- ------ - ------- --- ----------<br>------------- ------ ------ ---- ---- ------- close -- ----<br>-------- ------- -- ---------- --- - --- ----- ----- ----<br>---- --- --- ----- --- ---- ---- ------- ----- ---- -------<br>--- --- -- ----- -- --- ---- -- --- ---- -- ------ ------<br>--- ----- -- ----,982898.099999994,982891.6999999881,982504.048,982512.5,982520.703,982903.768,,15,close
screen,html.Screen,2_1_0_1_16,2022-05-03T10:32:55.215Z,,,,,,,,,,,,,,,,,53,,,,,,,,,,,,,,299.8319999939995,,response,,,,99,,,,,,,Space,keypress(Space),,,,,,,,---- -- ----- -- ------ - ------- --- ----------<br>------------- ------ ------ ---- ---- ------- ----- to ----<br>-------- ------- -- ---------- --- - --- ----- ----- ----<br>---- --- --- ----- --- ---- ---- ------- ----- ---- -------<br>--- --- -- ----- -- --- ---- -- --- ---- -- ------ ------<br>--- ----- -- ----,983209.7999999821,983203.599999994,982887.113,982898.599999994,982903.768,983220.213,,16,to
screen,html.Screen,2_1_0_1_17,2022-05-03T10:32:55.619Z,,,,,,,,,,,,,,,,,53,,,,,,,,,,,,,,388.5869999821298,,response,,,,99,,,,,,,Space,keypress(Space),,,,,,,,---- -- ----- -- ------ - ------- --- ----------<br>------------- ------ ------ ---- ---- ------- ----- -- your<br>-------- ------- -- ---------- --- - --- ----- ----- ----<br>---- --- --- ----- --- ---- ---- ------- ----- ---- -------<br>--- --- -- ----- -- --- ---- -- --- ---- -- ------ ------<br>--- ----- -- ----,983614.1999999881,983608.7999999821,983203.558,983210.099999994,983220.213,983619.933,,17,your
screen,html.Screen,2_1_0_1_18,2022-05-03T10:32:55.993Z,,,,,,,,,,,,,,,,,53,,,,,,,,,,,,,,362.8669999821577,,response,,,,99,,,,,,,Space,keypress(Space),,,,,,,,---- -- ----- -- ------ - ------- --- ----------<br>------------- ------ ------ ---- ---- ------- ----- -- ----<br>romantic ------- -- ---------- --- - --- ----- ----- ----<br>---- --- --- ----- --- ---- ---- ------- ----- ---- -------<br>--- --- -- ----- -- --- ---- -- --- ---- -- ------ ------<br>--- ----- -- ----,983988.599999994,983982.7999999821,983603.278,983614.5,983619.933,984002.998,,18,romantic
screen,html.Screen,2_1_0_1_19,2022-05-03T10:32:56.307Z,,,,,,,,,,,,,,,,,53,,,,,,,,,,,,,,293.6019999940181,,response,,,,99,,,,,,,Space,keypress(Space),,,,,,,,---- -- ----- -- ------ - ------- --- ----------<br>------------- ------ ------ ---- ---- ------- ----- -- ----<br>-------- partner -- ---------- --- - --- ----- ----- ----<br>---- --- --- ----- --- ---- ---- ------- ----- ---- -------<br>--- --- -- ----- -- --- ---- -- --- ---- -- ------ ------<br>--- ----- -- ----,984302.6999999881,984296.599999994,983986.343,983988.900000006,984002.998,984319.443,,19,partner
screen,html.Screen,2_1_0_1_20,2022-05-03T10:32:56.629Z,,,,,,,,,,,,,,,,,53,,,,,,,,,,,,,,298.0570000000298,,response,,,,99,,,,,,,Space,keypress(Space),,,,,,,,---- -- ----- -- ------ - ------- --- ----------<br>------------- ------ ------ ---- ---- ------- ----- -- ----<br>-------- ------- is ---------- --- - --- ----- ----- ----<br>---- --- --- ----- --- ---- ---- ------- ----- ---- -------<br>--- --- -- ----- -- --- ---- -- --- ---- -- ------ ------<br>--- ----- -- ----,984624.400000006,984617.5,984302.788,984302.7999999821,984319.443,984635.888,,20,is
screen,html.Screen,2_1_0_1_21,2022-05-03T10:32:56.928Z,,,,,,,,,,,,,,,,,53,,,,,,,,,,,,,,281.6119999999646,,response,,,,99,,,,,,,Space,keypress(Space),,,,,,,,---- -- ----- -- ------ - ------- --- ----------<br>------------- ------ ------ ---- ---- ------- ----- -- ----<br>-------- ------- -- paramount. --- - --- ----- ----- ----<br>---- --- --- ----- --- ---- ---- ------- ----- ---- -------<br>--- --- -- ----- -- --- ---- -- --- ---- -- ------ ------<br>--- ----- -- ----,984923.400000006,984917.5,984619.233,984624.5,984635.888,984935.678,,21,paramount.
screen,html.Screen,2_1_0_1_22,2022-05-03T10:32:57.603Z,,,,,,,,,,,,,,,,,53,,,,,,,,,,,,,,657.0219999881228,,response,,,,99,,,,,,,Space,keypress(Space),,,,,,,,---- -- ----- -- ------ - ------- --- ----------<br>------------- ------ ------ ---- ---- ------- ----- -- ----<br>-------- ------- -- ---------- But - --- ----- ----- ----<br>---- --- --- ----- --- ---- ---- ------- ----- ---- -------<br>--- --- -- ----- -- --- ---- -- --- ---- -- ------ ------<br>--- ----- -- ----,985598.599999994,985592.6999999881,984919.023,984924.6999999881,984935.678,985601.878,,22,But
screen,html.Screen,2_1_0_1_23,2022-05-03T10:32:57.993Z,,,,,,,,,,,,,,,,,53,,,,,,,,,,,,,,380.6219999999739,,response,,,,99,,,,,,,Space,keypress(Space),,,,,,,,---- -- ----- -- ------ - ------- --- ----------<br>------------- ------ ------ ---- ---- ------- ----- -- ----<br>-------- ------- -- ---------- --- a --- ----- ----- ----<br>---- --- --- ----- --- ---- ---- ------- ----- ---- -------<br>--- --- -- ----- -- --- ---- -- --- ---- -- ------ ------<br>--- ----- -- ----,985988,985982.5,985585.223,985599.099999994,985601.878,986001.598,,23,a
screen,html.Screen,2_1_0_1_24,2022-05-03T10:32:58.312Z,,,,,,,,,,,,,,,,,53,,,,,,,,,,,,,,299.10199998808093,,response,,,,99,,,,,,,Space,keypress(Space),,,,,,,,---- -- ----- -- ------ - ------- --- ----------<br>------------- ------ ------ ---- ---- ------- ----- -- ----<br>-------- ------- -- ---------- --- - new ----- ----- ----<br>---- --- --- ----- --- ---- ---- ------- ----- ---- -------<br>--- --- -- ----- -- --- ---- -- --- ---- -- ------ ------<br>--- ----- -- ----,986307.1999999881,986300.6999999881,985984.943,985988.1999999881,986001.598,986318.043,,24,new
screen,html.Screen,2_1_0_1_25,2022-05-03T10:32:58.632Z,,,,,,,,,,,,,,,,,53,,,,,,,,,,,,,,303.65699998813216,,response,,,,99,,,,,,,Space,keypress(Space),,,,,,,,---- -- ----- -- ------ - ------- --- ----------<br>------------- ------ ------ ---- ---- ------- ----- -- ----<br>-------- ------- -- ---------- --- - --- study ----- ----<br>---- --- --- ----- --- ---- ---- ------- ----- ---- -------<br>--- --- -- ----- -- --- ---- -- --- ---- -- ------ ------<br>--- ----- -- ----,986626.7999999821,986621.6999999881,986301.388,986307.2999999821,986318.043,986634.488,,25,study
screen,html.Screen,2_1_0_1_26,2022-05-03T10:32:59.003Z,,,,,,,,,,,,,,,,,53,,,,,,,,,,,,,,357.91200000594836,,response,,,,99,,,,,,,Space,keypress(Space),,,,,,,,---- -- ----- -- ------ - ------- --- ----------<br>------------- ------ ------ ---- ---- ------- ----- -- ----<br>-------- ------- -- ---------- --- - --- ----- finds ----<br>---- --- --- ----- --- ---- ---- ------- ----- ---- -------<br>--- --- -- ----- -- --- ---- -- --- ---- -- ------ ------<br>--- ----- -- ----,986998,986992.400000006,986617.833,986629.2999999821,986634.488,987000.898,,26,finds
screen,html.Screen,2_1_0_1_27,2022-05-03T10:32:59.383Z,,,,,,,,,,,,,,,,,53,,,,,,,,,,,,,,370.6019999999553,,response,,,,99,,,,,,,Space,keypress(Space),,,,,,,,---- -- ----- -- ------ - ------- --- ----------<br>------------- ------ ------ ---- ---- ------- ----- -- ----<br>-------- ------- -- ---------- --- - --- ----- ----- that<br>---- --- --- ----- --- ---- ---- ------- ----- ---- -------<br>--- --- -- ----- -- --- ---- -- --- ---- -- ------ ------<br>--- ----- -- ----,987378.400000006,987371.5,986984.243,986998.2999999821,987000.898,987383.963,,27,that
screen,html.Screen,2_1_0_1_28,2022-05-03T10:32:59.769Z,,,,,,,,,,,,,,,,,53,,,,,,,,,,,,,,374.43700000597164,,response,,,,99,,,,,,,Space,keypress(Space),,,,,,,,---- -- ----- -- ------ - ------- --- ----------<br>------------- ------ ------ ---- ---- ------- ----- -- ----<br>-------- ------- -- ---------- --- - --- ----- ----- ----<br>it's --- --- ----- --- ---- ---- ------- ----- ---- -------<br>--- --- -- ----- -- --- ---- -- --- ---- -- ------ ------<br>--- ----- -- ----,987764.2999999821,987758.400000006,987367.308,987378.5,987383.963,987767.028,,28,it's
screen,html.Screen,2_1_0_1_29,2022-05-03T10:33:00.109Z,,,,,,,,,,,,,,,,,53,,,,,,,,,,,,,,331.5719999939902,,response,,,,99,,,,,,,Space,keypress(Space),,,,,,,,---- -- ----- -- ------ - ------- --- ----------<br>------------- ------ ------ ---- ---- ------- ----- -- ----<br>-------- ------- -- ---------- --- - --- ----- ----- ----<br>---- not --- ----- --- ---- ---- ------- ----- ---- -------<br>--- --- -- ----- -- --- ---- -- --- ---- -- ------ ------<br>--- ----- -- ----,988104.400000006,988098.599999994,987750.373,987764.5,987767.028,988117.164,,29,not
screen,html.Screen,2_1_0_1_30,2022-05-03T10:33:00.429Z,,,,,,,,,,,,,,,,,53,,,,,,,,,,,,,,302.2360000059707,,response,,,,99,,,,,,,Space,keypress(Space),,,,,,,,---- -- ----- -- ------ - ------- --- ----------<br>------------- ------ ------ ---- ---- ------- ----- -- ----<br>-------- ------- -- ---------- --- - --- ----- ----- ----<br>---- --- how ----- --- ---- ---- ------- ----- ---- -------<br>--- --- -- ----- -- --- ---- -- --- ---- -- ------ ------<br>--- ----- -- ----,988424.099999994,988419.400000006,988100.509,988105.599999994,988117.164,988433.609,,30,how
screen,html.Screen,2_1_0_1_31,2022-05-03T10:33:00.786Z,,,,,,,,,,,,,,,,,53,,,,,,,,,,,,,,343.7910000059055,,response,,,,99,,,,,,,Space,keypress(Space),,,,,,,,---- -- ----- -- ------ - ------- --- ----------<br>------------- ------ ------ ---- ---- ------- ----- -- ----<br>-------- ------- -- ---------- --- - --- ----- ----- ----<br>---- --- --- close --- ---- ---- ------- ----- ---- -------<br>--- --- -- ----- -- --- ---- -- --- ---- -- ------ ------<br>--- ----- -- ----,988780.900000006,988777.400000006,988416.954,988424.2999999821,988433.609,988783.364,,31,close
screen,html.Screen,2_1_0_1_32,2022-05-03T10:33:01.136Z,,,,,,,,,,,,,,,,,53,,,,,,,,,,,,,,342.0360000060173,,response,,,,99,,,,,,,Space,keypress(Space),,,,,,,,---- -- ----- -- ------ - ------- --- ----------<br>------------- ------ ------ ---- ---- ------- ----- -- ----<br>-------- ------- -- ---------- --- - --- ----- ----- ----<br>---- --- --- ----- you ---- ---- ------- ----- ---- -------<br>--- --- -- ----- -- --- ---- -- --- ---- -- ------ ------<br>--- ----- -- ----,989131.7999999821,989125.400000006,988766.709,988781,988783.364,989133.119,,32,you
screen,html.Screen,2_1_0_1_33,2022-05-03T10:33:01.434Z,,,,,,,,,,,,,,,,,53,,,,,,,,,,,,,,291.38100000005215,,response,,,,99,,,,,,,Space,keypress(Space),,,,,,,,---- -- ----- -- ------ - ------- --- ----------<br>------------- ------ ------ ---- ---- ------- ----- -- ----<br>-------- ------- -- ---------- --- - --- ----- ----- ----<br>---- --- --- ----- --- feel ---- ------- ----- ---- -------<br>--- --- -- ----- -- --- ---- -- --- ---- -- ------ ------<br>--- ----- -- ----,989428.900000006,989424.5,989116.464,989131.900000006,989133.119,989432.909,,33,feel
screen,html.Screen,2_1_0_1_34,2022-05-03T10:33:01.810Z,,,,,,,,,,,,,,,,,53,,,,,,,,,,,,,,367.49100000597537,,response,,,,99,,,,,,,Space,keypress(Space),,,,,,,,---- -- ----- -- ------ - ------- --- ----------<br>------------- ------ ------ ---- ---- ------- ----- -- ----<br>-------- ------- -- ---------- --- - --- ----- ----- ----<br>---- --- --- ----- --- ---- that ------- ----- ---- -------<br>--- --- -- ----- -- --- ---- -- --- ---- -- ------ ------<br>--- ----- -- ----,989805.099999994,989800.400000006,989416.254,989429.099999994,989432.909,989815.974,,34,that
screen,html.Screen,2_1_0_1_35,2022-05-03T10:33:02.183Z,,,,,,,,,,,,,,,,,53,,,,,,,,,,,,,,357.52599999995437,,response,,,,99,,,,,,,Space,keypress(Space),,,,,,,,---- -- ----- -- ------ - ------- --- ----------<br>------------- ------ ------ ---- ---- ------- ----- -- ----<br>-------- ------- -- ---------- --- - --- ----- ----- ----<br>---- --- --- ----- --- ---- ---- matters ----- ---- -------<br>--- --- -- ----- -- --- ---- -- --- ---- -- ------ ------<br>--- ----- -- ----,990178.7999999821,990173.5,989799.319,989805.400000006,989815.974,990182.384,,35,matters
screen,html.Screen,2_1_0_1_36,2022-05-03T10:33:02.516Z,,,,,,,,,,,,,,,,,53,,,,,,,,,,,,,,322.9159999821568,,response,,,,99,,,,,,,Space,keypress(Space),,,,,,,,"---- -- ----- -- ------ - ------- --- ----------<br>------------- ------ ------ ---- ---- ------- ----- -- ----<br>-------- ------- -- ---------- --- - --- ----- ----- ----<br>---- --- --- ----- --- ---- ---- ------- most, ---- -------<br>--- --- -- ----- -- --- ---- -- --- ---- -- ------ ------<br>--- ----- -- ----",990511.2999999821,990505.2999999821,990165.729,990179.099999994,990182.384,990515.484,,36,"most,"
screen,html.Screen,2_1_0_1_37,2022-05-03T10:33:02.904Z,,,,,,,,,,,,,,,,,53,,,,,,,,,,,,,,378.1159999939846,,response,,,,99,,,,,,,Space,keypress(Space),,,,,,,,---- -- ----- -- ------ - ------- --- ----------<br>------------- ------ ------ ---- ---- ------- ----- -- ----<br>-------- ------- -- ---------- --- - --- ----- ----- ----<br>---- --- --- ----- --- ---- ---- ------- ----- it's -------<br>--- --- -- ----- -- --- ---- -- --- ---- -- ------ ------<br>--- ----- -- ----,990899.599999994,990893.599999994,990498.829,990511.599999994,990515.484,990915.204,,37,it's
screen,html.Screen,2_1_0_1_38,2022-05-03T10:33:03.266Z,,,,,,,,,,,,,,,,,53,,,,,,,,,,,,,,340.19600000593346,,response,,,,99,,,,,,,Space,keypress(Space),,,,,,,,---- -- ----- -- ------ - ------- --- ----------<br>------------- ------ ------ ---- ---- ------- ----- -- ----<br>-------- ------- -- ---------- --- - --- ----- ----- ----<br>---- --- --- ----- --- ---- ---- ------- ----- ---- whether<br>--- --- -- ----- -- --- ---- -- --- ---- -- ------ ------<br>--- ----- -- ----,991261.1999999881,991255.400000006,990898.549,990899.6999999881,990915.204,991264.959,,38,whether
screen,html.Screen,2_1_0_1_39,2022-05-03T10:33:03.618Z,,,,,,,,,,,,,,,,,53,,,,,,,,,,,,,,341.4410000059288,,response,,,,99,,,,,,,Space,keypress(Space),,,,,,,,---- -- ----- -- ------ - ------- --- ----------<br>------------- ------ ------ ---- ---- ------- ----- -- ----<br>-------- ------- -- ---------- --- - --- ----- ----- ----<br>---- --- --- ----- --- ---- ---- ------- ----- ---- -------<br>you --- -- ----- -- --- ---- -- --- ---- -- ------ ------<br>--- ----- -- ----,991613.5,991606.400000006,991248.304,991261.400000006,991264.959,991631.369,,39,you
screen,html.Screen,2_1_0_1_40,2022-05-03T10:33:03.832Z,,,,,,,,,,,,,,,,,53,,,,,,,,,,,,,,192.93099998217076,,response,,,,99,,,,,,,Space,keypress(Space),,,,,,,,---- -- ----- -- ------ - ------- --- ----------<br>------------- ------ ------ ---- ---- ------- ----- -- ----<br>-------- ------- -- ---------- --- - --- ----- ----- ----<br>---- --- --- ----- --- ---- ---- ------- ----- ---- -------<br>--- are -- ----- -- --- ---- -- --- ---- -- ------ ------<br>--- ----- -- ----,991827.900000006,991824.2999999821,991614.714,991614,991631.369,991831.229,,40,are
screen,html.Screen,2_1_0_1_41,2022-05-03T10:33:04.166Z,,,,,,,,,,,,,,,,,53,,,,,,,,,,,,,,325.2709999999497,,response,,,,99,,,,,,,Space,keypress(Space),,,,,,,,---- -- ----- -- ------ - ------- --- ----------<br>------------- ------ ------ ---- ---- ------- ----- -- ----<br>-------- ------- -- ---------- --- - --- ----- ----- ----<br>---- --- --- ----- --- ---- ---- ------- ----- ---- -------<br>--- --- as ----- -- --- ---- -- --- ---- -- ------ ------<br>--- ----- -- ----,992161.7999999821,992156.5,991814.574,991828,991831.229,992164.329,,41,as
screen,html.Screen,2_1_0_1_42,2022-05-03T10:33:04.500Z,,,,,,,,,,,,,,,,,53,,,,,,,,,,,,,,325.07100000593346,,response,,,,99,,,,,,,Space,keypress(Space),,,,,,,,---- -- ----- -- ------ - ------- --- ----------<br>------------- ------ ------ ---- ---- ------- ----- -- ----<br>-------- ------- -- ---------- --- - --- ----- ----- ----<br>---- --- --- ----- --- ---- ---- ------- ----- ---- -------<br>--- --- -- close -- --- ---- -- --- ---- -- ------ ------<br>--- ----- -- ----,992495.5,992489.400000006,992147.674,992162,992164.329,992497.429,,42,close
screen,html.Screen,2_1_0_1_43,2022-05-03T10:33:04.732Z,,,,,,,,,,,,,,,,,53,,,,,,,,,,,,,,224.77099998807535,,response,,,,99,,,,,,,Space,keypress(Space),,,,,,,,---- -- ----- -- ------ - ------- --- ----------<br>------------- ------ ------ ---- ---- ------- ----- -- ----<br>-------- ------- -- ---------- --- - --- ----- ----- ----<br>---- --- --- ----- --- ---- ---- ------- ----- ---- -------<br>--- --- -- ----- as --- ---- -- --- ---- -- ------ ------<br>--- ----- -- ----,992727.5,992722.1999999881,992480.774,992495.7999999821,992497.429,992730.599,,43,as
screen,html.Screen,2_1_0_1_44,2022-05-03T10:33:04.980Z,,,,,,,,,,,,,,,,,53,,,,,,,,,,,,,,239.90099999995437,,response,,,,99,,,,,,,Space,keypress(Space),,,,,,,,---- -- ----- -- ------ - ------- --- ----------<br>------------- ------ ------ ---- ---- ------- ----- -- ----<br>-------- ------- -- ---------- --- - --- ----- ----- ----<br>---- --- --- ----- --- ---- ---- ------- ----- ---- -------<br>--- --- -- ----- -- you ---- -- --- ---- -- ------ ------<br>--- ----- -- ----,992975.7999999821,992970.5,992713.944,992727.599999994,992730.599,992980.424,,44,you
screen,html.Screen,2_1_0_1_45,2022-05-03T10:33:05.277Z,,,,,,,,,,,,,,,,,53,,,,,,,,,,,,,,287.9760000059614,,response,,,,99,,,,,,,Space,keypress(Space),,,,,,,,---- -- ----- -- ------ - ------- --- ----------<br>------------- ------ ------ ---- ---- ------- ----- -- ----<br>-------- ------- -- ---------- --- - --- ----- ----- ----<br>---- --- --- ----- --- ---- ---- ------- ----- ---- -------<br>--- --- -- ----- -- --- want -- --- ---- -- ------ ------<br>--- ----- -- ----,993272.900000006,993268.400000006,992963.769,992976,992980.424,993280.214,,45,want
screen,html.Screen,2_1_0_1_46,2022-05-03T10:33:05.616Z,,,,,,,,,,,,,,,,,53,,,,,,,,,,,,,,323.0859999820823,,response,,,,99,,,,,,,Space,keypress(Space),,,,,,,,---- -- ----- -- ------ - ------- --- ----------<br>------------- ------ ------ ---- ---- ------- ----- -- ----<br>-------- ------- -- ---------- --- - --- ----- ----- ----<br>---- --- --- ----- --- ---- ---- ------- ----- ---- -------<br>--- --- -- ----- -- --- ---- to --- ---- -- ------ ------<br>--- ----- -- ----,993611.6999999881,993603.2999999821,993263.559,993273,993280.214,993613.314,,46,to
screen,html.Screen,2_1_0_1_47,2022-05-03T10:33:05.981Z,,,,,,,,,,,,,,,,,53,,,,,,,,,,,,,,357.88599998806603,,response,,,,99,,,,,,,Space,keypress(Space),,,,,,,,"---- -- ----- -- ------ - ------- --- ----------<br>------------- ------ ------ ---- ---- ------- ----- -- ----<br>-------- ------- -- ---------- --- - --- ----- ----- ----<br>---- --- --- ----- --- ---- ---- ------- ----- ---- -------<br>--- --- -- ----- -- --- ---- -- be, ---- -- ------ ------<br>--- ----- -- ----",993976.1999999881,993971.1999999881,993596.659,993611.900000006,993613.314,993979.724,,47,"be,"
screen,html.Screen,2_1_0_1_48,2022-05-03T10:33:06.408Z,,,,,,,,,,,,,,,,,53,,,,,,,,,,,,,,418.575999982073,,response,,,,99,,,,,,,Space,keypress(Space),,,,,,,,---- -- ----- -- ------ - ------- --- ----------<br>------------- ------ ------ ---- ---- ------- ----- -- ----<br>-------- ------- -- ---------- --- - --- ----- ----- ----<br>---- --- --- ----- --- ---- ---- ------- ----- ---- -------<br>--- --- -- ----- -- --- ---- -- --- even -- ------ ------<br>--- ----- -- ----,994403.900000006,994398.2999999821,993963.069,993976.5,993979.724,994412.754,,48,even
screen,html.Screen,2_1_0_1_49,2022-05-03T10:33:06.803Z,,,,,,,,,,,,,,,,,53,,,,,,,,,,,,,,380.54599998216145,,response,,,,99,,,,,,,Space,keypress(Space),,,,,,,,---- -- ----- -- ------ - ------- --- ----------<br>------------- ------ ------ ---- ---- ------- ----- -- ----<br>-------- ------- -- ---------- --- - --- ----- ----- ----<br>---- --- --- ----- --- ---- ---- ------- ----- ---- -------<br>--- --- -- ----- -- --- ---- -- --- ---- if ------ ------<br>--- ----- -- ----,994798.2999999821,994793.2999999821,994396.099,994404.400000006,994412.754,994812.474,,49,if
screen,html.Screen,2_1_0_1_50,2022-05-03T10:33:07.115Z,,,,,,,,,,,,,,,,,53,,,,,,,,,,,,,,291.72599998803344,,response,,,,99,,,,,,,Space,keypress(Space),,,,,,,,---- -- ----- -- ------ - ------- --- ----------<br>------------- ------ ------ ---- ---- ------- ----- -- ----<br>-------- ------- -- ---------- --- - --- ----- ----- ----<br>---- --- --- ----- --- ---- ---- ------- ----- ---- -------<br>--- --- -- ----- -- --- ---- -- --- ---- -- that's ------<br>--- ----- -- ----,995110.400000006,995104.1999999881,994795.819,994798.599999994,994812.474,995112.264,,50,that's
screen,html.Screen,2_1_0_1_51,2022-05-03T10:33:07.537Z,,,,,,,,,,,,,,,,,53,,,,,,,,,,,,,,415.03599998215213,,response,,,,99,,,,,,,Space,keypress(Space),,,,,,,,---- -- ----- -- ------ - ------- --- ----------<br>------------- ------ ------ ---- ---- ------- ----- -- ----<br>-------- ------- -- ---------- --- - --- ----- ----- ----<br>---- --- --- ----- --- ---- ---- ------- ----- ---- -------<br>--- --- -- ----- -- --- ---- -- --- ---- -- ------ really<br>--- ----- -- ----,995532.6999999881,995527.2999999821,995095.609,995110.599999994,995112.264,995545.294,,51,really
screen,html.Screen,2_1_0_1_52,2022-05-03T10:33:07.943Z,,,,,,,,,,,,,,,,,53,,,,,,,,,,,,,,386.90599998808466,,response,,,,99,,,,,,,Space,keypress(Space),,,,,,,,---- -- ----- -- ------ - ------- --- ----------<br>------------- ------ ------ ---- ---- ------- ----- -- ----<br>-------- ------- -- ---------- --- - --- ----- ----- ----<br>---- --- --- ----- --- ---- ---- ------- ----- ---- -------<br>--- --- -- ----- -- --- ---- -- --- ---- -- ------ ------<br>not ----- -- ----,995938.1999999881,995932.1999999881,995528.639,995533,995545.294,995945.014,,52,not
screen,html.Screen,2_1_0_1_53,2022-05-03T10:33:08.239Z,,,,,,,,,,,,,,,,,53,,,,,,,,,,,,,,285.4860000000335,,response,,,,99,,,,,,,Space,keypress(Space),,,,,,,,---- -- ----- -- ------ - ------- --- ----------<br>------------- ------ ------ ---- ---- ------- ----- -- ----<br>-------- ------- -- ---------- --- - --- ----- ----- ----<br>---- --- --- ----- --- ---- ---- ------- ----- ---- -------<br>--- --- -- ----- -- --- ---- -- --- ---- -- ------ ------<br>--- close -- ----,996234.6999999881,996230.5,995928.359,995938.6999999881,995945.014,996244.804,,53,close
screen,html.Screen,2_1_0_1_54,2022-05-03T10:33:08.569Z,,,,,,,,,,,,,,,,,53,,,,,,,,,,,,,,314.39599998807535,,response,,,,99,,,,,,,Space,keypress(Space),,,,,,,,---- -- ----- -- ------ - ------- --- ----------<br>------------- ------ ------ ---- ---- ------- ----- -- ----<br>-------- ------- -- ---------- --- - --- ----- ----- ----<br>---- --- --- ----- --- ---- ---- ------- ----- ---- -------<br>--- --- -- ----- -- --- ---- -- --- ---- -- ------ ------<br>--- ----- at ----,996564.1999999881,996559.1999999881,996228.149,996234.900000006,996244.804,996577.904,,54,at
screen,html.Screen,2_1_0_1_55,2022-05-03T10:33:09.341Z,,,,,,,,,,,,,,,,,53,,,,,,,,,,,,,,752.1959999940591,,response,,,,99,,,,,,,Space,keypress(Space),,,,,,,,---- -- ----- -- ------ - ------- --- ----------<br>------------- ------ ------ ---- ---- ------- ----- -- ----<br>-------- ------- -- ---------- --- - --- ----- ----- ----<br>---- --- --- ----- --- ---- ---- ------- ----- ---- -------<br>--- --- -- ----- -- --- ---- -- --- ---- -- ------ ------<br>--- ----- -- all.,997336.400000006,997330.099999994,996561.249,996564.900000006,996577.904,997344.034,,55,all.
Item 99,flow.Loop,2_1_0_1,2022-05-03T10:33:09.341Z,,,,,,,,,,,,,,,,,,,,,,,,,,,,,,,21854.902999993996,,completion,,,,,H,,,,,,,,,,,silence,,,,,997336.7999999821,997330.099999994,975458.542,975461.900000006,975475.197,997344.034,,,
Question 1,html.Screen,2_1_0_2,2022-05-03T10:33:13.990Z,,,,,,,,,,,,,,,,,,,,,,,,,,,,true,FALSE,,4629.466000000015,,response,,,,99,H,,,,,,FALSE,click #choice-2,,,,silence,,,,,1001986,1001973.5,997327.379,997337.400000006,997344.034,1001991.19,,,
Question 2,html.Screen,2_1_0_3,2022-05-03T10:33:17.992Z,,,,,,,,,,,,,,,,,,,,,,,,,,,,true,TRUE,,3970.9099999940954,,response,,,,99,H,,,,,,TRUE,click #choice-1,,,,silence,,,,,1005987.6999999881,1005962.099999994,1001974.535,1001986.1999999881,1001991.19,1006005.045,,,
Item 99,flow.Sequence,2_1_0,2022-05-03T10:33:17.993Z,,,,,,,,,,,,,,,,,,,,,,,,,,,,,,,40480.87899999402,,completion,,,,,,,,,,,,,,,,,,,,,1005988.5,1005962.099999994,965464.566,965471.6999999881,965481.221,1006005.045,,,
Holding screen,html.Screen,2_1_1_0,2022-05-03T10:33:27.988Z,,,,,,,,,,,,,,,,,,,,,,,,,,,,,,,9993.399999999907,,timeout,,,,,,,,,,,,,,,,,,,,,1015984.2999999821,1015981.79,1005988.39,1005988.6999999881,1006005.045,1015998.445,,,
screen,html.Screen,2_1_1_1_0,2022-05-03T10:33:28.803Z,,,,,,,,,,,,,,,,,54,,,,,,,,,,,,,,793.4550000060117,,response,,,,100,,,,,,,Space,keypress(Space),,,,,,,,At --- ---- --- ------ ----- ------- ---- -- --- ------- --<br>------- ---------- ------ -- ----- -- ----- -- ---- ------<br>--- ----- --- --- ------ -------- ----- --- ------ ----- --<br>----- ----- ---------- --- --- ------ ------ ---- -- ------<br>------- --- ------ ----- --- ---- ------- -- ---- --- --<br>------- ------,1016798.7999999821,1016791.900000006,1015981.79,1015984.5,1015998.445,1016814.54,,0,At
screen,html.Screen,2_1_1_1_1,2022-05-03T10:33:29.129Z,,,,,,,,,,,,,,,,,54,,,,,,,,,,,,,,304.6599999880418,,response,,,,100,,,,,,,Space,keypress(Space),,,,,,,,-- the ---- --- ------ ----- ------- ---- -- --- ------- --<br>------- ---------- ------ -- ----- -- ----- -- ---- ------<br>--- ----- --- --- ------ -------- ----- --- ------ ----- --<br>----- ----- ---------- --- --- ------ ------ ---- -- ------<br>------- --- ------ ----- --- ---- ------- -- ---- --- --<br>------- ------,1017124.6999999881,1017119.1999999881,1016797.885,1016798.900000006,1016814.54,1017130.985,,1,the
screen,html.Screen,2_1_1_1_2,2022-05-03T10:33:29.426Z,,,,,,,,,,,,,,,,,54,,,,,,,,,,,,,,285.41500000597443,,response,,,,100,,,,,,,Space,keypress(Space),,,,,,,,-- --- time --- ------ ----- ------- ---- -- --- ------- --<br>------- ---------- ------ -- ----- -- ----- -- ---- ------<br>--- ----- --- --- ------ -------- ----- --- ------ ----- --<br>----- ----- ---------- --- --- ------ ------ ---- -- ------<br>------- --- ------ ----- --- ---- ------- -- ---- --- --<br>------- ------,1017421.900000006,1017416.400000006,1017114.33,1017124.7999999821,1017130.985,1017430.775,,2,time
screen,html.Screen,2_1_1_1_3,2022-05-03T10:33:29.717Z,,,,,,,,,,,,,,,,,54,,,,,,,,,,,,,,275.4249999880558,,response,,,,100,,,,,,,Space,keypress(Space),,,,,,,,-- --- ---- the ------ ----- ------- ---- -- --- ------- --<br>------- ---------- ------ -- ----- -- ----- -- ---- ------<br>--- ----- --- --- ------ -------- ----- --- ------ ----- --<br>----- ----- ---------- --- --- ------ ------ ---- -- ------<br>------- --- ------ ----- --- ---- ------- -- ---- --- --<br>------- ------,1017712.6999999881,1017706.1999999881,1017414.12,1017422.099999994,1017430.775,1017730.565,,3,the
screen,html.Screen,2_1_1_1_4,2022-05-03T10:33:30.025Z,,,,,,,,,,,,,,,,,54,,,,,,,,,,,,,,284.63499998813495,,response,,,,100,,,,,,,Space,keypress(Space),,,,,,,,-- --- ---- --- French ----- ------- ---- -- --- ------- --<br>------- ---------- ------ -- ----- -- ----- -- ---- ------<br>--- ----- --- --- ------ -------- ----- --- ------ ----- --<br>----- ----- ---------- --- --- ------ ------ ---- -- ------<br>------- --- ------ ----- --- ---- ------- -- ---- --- --<br>------- ------,1018020.7999999821,1018015.1999999881,1017713.91,1017712.900000006,1017730.565,1018030.355,,4,French
screen,html.Screen,2_1_1_1_5,2022-05-03T10:33:30.261Z,,,,,,,,,,,,,,,,,54,,,,,,,,,,,,,,220.8449999880977,,response,,,,100,,,,,,,Space,keypress(Space),,,,,,,,-- --- ---- --- ------ crown ------- ---- -- --- ------- --<br>------- ---------- ------ -- ----- -- ----- -- ---- ------<br>--- ----- --- --- ------ -------- ----- --- ------ ----- --<br>----- ----- ---------- --- --- ------ ------ ---- -- ------<br>------- --- ------ ----- --- ---- ------- -- ---- --- --<br>------- ------,1018257.1999999881,1018251.1999999881,1018013.7,1018021,1018030.355,1018263.525,,5,crown
screen,html.Screen,2_1_1_1_6,2022-05-03T10:33:30.496Z,,,,,,,,,,,,,,,,,54,,,,,,,,,,,,,,222.6749999880558,,response,,,,100,,,,,,,Space,keypress(Space),,,,,,,,-- --- ---- --- ------ ----- secured ---- -- --- ------- --<br>------- ---------- ------ -- ----- -- ----- -- ---- ------<br>--- ----- --- --- ------ -------- ----- --- ------ ----- --<br>----- ----- ---------- --- --- ------ ------ ---- -- ------<br>------- --- ------ ----- --- ---- ------- -- ---- --- --<br>------- ------,1018491.599999994,1018486.1999999881,1018246.87,1018257.400000006,1018263.525,1018496.695,,6,secured
screen,html.Screen,2_1_1_1_7,2022-05-03T10:33:30.919Z,,,,,,,,,,,,,,,,,54,,,,,,,,,,,,,,412.40499999409076,,response,,,,100,,,,,,,Space,keypress(Space),,,,,,,,-- --- ---- --- ------ ----- ------- much -- --- ------- --<br>------- ---------- ------ -- ----- -- ----- -- ---- ------<br>--- ----- --- --- ------ -------- ----- --- ------ ----- --<br>----- ----- ---------- --- --- ------ ------ ---- -- ------<br>------- --- ------ ----- --- ---- ------- -- ---- --- --<br>------- ------,1018915,1018909.099999994,1018480.04,1018491.7999999821,1018496.695,1018929.725,,7,much
screen,html.Screen,2_1_1_1_8,2022-05-03T10:33:31.293Z,,,,,,,,,,,,,,,,,54,,,,,,,,,,,,,,352.97499998810235,,response,,,,100,,,,,,,Space,keypress(Space),,,,,,,,-- --- ---- --- ------ ----- ------- ---- of --- ------- --<br>------- ---------- ------ -- ----- -- ----- -- ---- ------<br>--- ----- --- --- ------ -------- ----- --- ------ ----- --<br>----- ----- ---------- --- --- ------ ------ ---- -- ------<br>------- --- ------ ----- --- ---- ------- -- ---- --- --<br>------- ------,1019288.7999999821,1019282.6999999881,1018913.07,1018915.1999999881,1018929.725,1019296.135,,8,of
screen,html.Screen,2_1_1_1_9,2022-05-03T10:33:31.545Z,,,,,,,,,,,,,,,,,54,,,,,,,,,,,,,,239.46499999403022,,response,,,,100,,,,,,,Space,keypress(Space),,,,,,,,-- --- ---- --- ------ ----- ------- ---- -- its ------- --<br>------- ---------- ------ -- ----- -- ----- -- ---- ------<br>--- ----- --- --- ------ -------- ----- --- ------ ----- --<br>----- ----- ---------- --- --- ------ ------ ---- -- ------<br>------- --- ------ ----- --- ---- ------- -- ---- --- --<br>------- ------,1019541.2999999821,1019535.599999994,1019279.48,1019289.7999999821,1019296.135,1019545.96,,9,its
screen,html.Screen,2_1_1_1_10,2022-05-03T10:33:31.712Z,,,,,,,,,,,,,,,,,54,,,,,,,,,,,,,,156.33999998215586,,response,,,,100,,,,,,,Space,keypress(Space),,,,,,,,-- --- ---- --- ------ ----- ------- ---- -- --- revenue --<br>------- ---------- ------ -- ----- -- ----- -- ---- ------<br>--- ----- --- --- ------ -------- ----- --- ------ ----- --<br>----- ----- ---------- --- --- ------ ------ ---- -- ------<br>------- --- ------ ----- --- ---- ------- -- ---- --- --<br>------- ------,1019708.599999994,1019702.2999999821,1019529.305,1019541.400000006,1019545.96,1019712.896,,10,revenue
screen,html.Screen,2_1_1_1_11,2022-05-03T10:33:32.187Z,,,,,,,,,,,,,,,,,54,,,,,,,,,,,,,,467.30399998812936,,response,,,,100,,,,,,,Space,keypress(Space),,,,,,,,-- --- ---- --- ------ ----- ------- ---- -- --- ------- by<br>------- ---------- ------ -- ----- -- ----- -- ---- ------<br>--- ----- --- --- ------ -------- ----- --- ------ ----- --<br>----- ----- ---------- --- --- ------ ------ ---- -- ------<br>------- --- ------ ----- --- ---- ------- -- ---- --- --<br>------- ------,1020183.6999999881,1020180.1999999881,1019696.241,1019708.7999999821,1019712.896,1020195.891,,11,by
screen,html.Screen,2_1_1_1_12,2022-05-03T10:33:32.559Z,,,,,,,,,,,,,,,,,54,,,,,,,,,,,,,,354.2089999940945,,response,,,,100,,,,,,,Space,keypress(Space),,,,,,,,-- --- ---- --- ------ ----- ------- ---- -- --- ------- --<br>issuing ---------- ------ -- ----- -- ----- -- ---- ------<br>--- ----- --- --- ------ -------- ----- --- ------ ----- --<br>----- ----- ---------- --- --- ------ ------ ---- -- ------<br>------- --- ------ ----- --- ---- ------- -- ---- --- --<br>------- ------,1020555.599999994,1020550.099999994,1020179.236,1020183.7999999821,1020195.891,1020562.301,,12,issuing
screen,html.Screen,2_1_1_1_13,2022-05-03T10:33:32.841Z,,,,,,,,,,,,,,,,,54,,,,,,,,,,,,,,268.7989999940619,,response,,,,100,,,,,,,Space,keypress(Space),,,,,,,,-- --- ---- --- ------ ----- ------- ---- -- --- ------- --<br>------- government ------ -- ----- -- ----- -- ---- ------<br>--- ----- --- --- ------ -------- ----- --- ------ ----- --<br>----- ----- ---------- --- --- ------ ------ ---- -- ------<br>------- --- ------ ----- --- ---- ------- -- ---- --- --<br>------- ------,1020837,1020831.099999994,1020545.646,1020555.7999999821,1020562.301,1020845.436,,13,government
screen,html.Screen,2_1_1_1_14,2022-05-03T10:33:33.126Z,,,,,,,,,,,,,,,,,54,,,,,,,,,,,,,,270.86399998213165,,response,,,,100,,,,,,,Space,keypress(Space),,,,,,,,-- --- ---- --- ------ ----- ------- ---- -- --- ------- --<br>------- ---------- bonds. -- ----- -- ----- -- ---- ------<br>--- ----- --- --- ------ -------- ----- --- ------ ----- --<br>----- ----- ---------- --- --- ------ ------ ---- -- ------<br>------- --- ------ ----- --- ---- ------- -- ---- --- --<br>------- ------,1021122.1999999881,1021116.2999999821,1020828.781,1020837.1999999881,1020845.436,1021128.571,,14,bonds.
screen,html.Screen,2_1_1_1_15,2022-05-03T10:33:33.623Z,,,,,,,,,,,,,,,,,54,,,,,,,,,,,,,,482.6289999880828,,response,,,,100,,,,,,,Space,keypress(Space),,,,,,,,-- --- ---- --- ------ ----- ------- ---- -- --- ------- --<br>------- ---------- ------ In ----- -- ----- -- ---- ------<br>--- ----- --- --- ------ -------- ----- --- ------ ----- --<br>----- ----- ---------- --- --- ------ ------ ---- -- ------<br>------- --- ------ ----- --- ---- ------- -- ---- --- --<br>------- ------,1021619,1021611.1999999881,1021111.916,1021122.2999999821,1021128.571,1021628.221,,15,In
screen,html.Screen,2_1_1_1_16,2022-05-03T10:33:34.071Z,,,,,,,,,,,,,,,,,54,,,,,,,,,,,,,,432.87899999402,,response,,,,100,,,,,,,Space,keypress(Space),,,,,,,,"-- --- ---- --- ------ ----- ------- ---- -- --- ------- --<br>------- ---------- ------ -- 1727, -- ----- -- ---- ------<br>--- ----- --- --- ------ -------- ----- --- ------ ----- --<br>----- ----- ---------- --- --- ------ ------ ---- -- ------<br>------- --- ------ ----- --- ---- ------- -- ---- --- --<br>------- ------",1022067,1022061.099999994,1021611.566,1021619.1999999881,1021628.221,1022077.906,,16,"1727,"
screen,html.Screen,2_1_1_1_17,2022-05-03T10:33:34.738Z,,,,,,,,,,,,,,,,,54,,,,,,,,,,,,,,649.094000000041,,response,,,,100,,,,,,,Space,keypress(Space),,,,,,,,-- --- ---- --- ------ ----- ------- ---- -- --- ------- --<br>------- ---------- ------ -- ----- in ----- -- ---- ------<br>--- ----- --- --- ------ -------- ----- --- ------ ----- --<br>----- ----- ---------- --- --- ------ ------ ---- -- ------<br>------- --- ------ ----- --- ---- ------- -- ---- --- --<br>------- ------,1022734.599999994,1022727,1022061.251,1022067.1999999881,1022077.906,1022744.106,,17,in
screen,html.Screen,2_1_1_1_18,2022-05-03T10:33:35.420Z,,,,,,,,,,,,,,,,,54,,,,,,,,,,,,,,666.0939999880502,,response,,,,100,,,,,,,Space,keypress(Space),,,,,,,,-- --- ---- --- ------ ----- ------- ---- -- --- ------- --<br>------- ---------- ------ -- ----- -- order -- ---- ------<br>--- ----- --- --- ------ -------- ----- --- ------ ----- --<br>----- ----- ---------- --- --- ------ ------ ---- -- ------<br>------- --- ------ ----- --- ---- ------- -- ---- --- --<br>------- ------,1023415.7999999821,1023410.1999999881,1022727.451,1022734.7999999821,1022744.106,1023426.961,,18,order
screen,html.Screen,2_1_1_1_19,2022-05-03T10:33:35.810Z,,,,,,,,,,,,,,,,,54,,,,,,,,,,,,,,371.9390000059502,,response,,,,100,,,,,,,Space,keypress(Space),,,,,,,,-- --- ---- --- ------ ----- ------- ---- -- --- ------- --<br>------- ---------- ------ -- ----- -- ----- to ---- ------<br>--- ----- --- --- ------ -------- ----- --- ------ ----- --<br>----- ----- ---------- --- --- ------ ------ ---- -- ------<br>------- --- ------ ----- --- ---- ------- -- ---- --- --<br>------- ------,1023806.5,1023798.900000006,1023410.306,1023415.900000006,1023426.961,1023826.681,,19,to
screen,html.Screen,2_1_1_1_20,2022-05-03T10:33:36.108Z,,,,,,,,,,,,,,,,,54,,,,,,,,,,,,,,272.41899999405723,,response,,,,100,,,,,,,Space,keypress(Space),,,,,,,,-- --- ---- --- ------ ----- ------- ---- -- --- ------- --<br>------- ---------- ------ -- ----- -- ----- -- save ------<br>--- ----- --- --- ------ -------- ----- --- ------ ----- --<br>----- ----- ---------- --- --- ------ ------ ---- -- ------<br>------- --- ------ ----- --- ---- ------- -- ---- --- --<br>------- ------,1024104.6999999881,1024099.099999994,1023810.026,1023806.599999994,1023826.681,1024126.471,,20,save
screen,html.Screen,2_1_1_1_21,2022-05-03T10:33:36.435Z,,,,,,,,,,,,,,,,,54,,,,,,,,,,,,,,299.62899999402,,response,,,,100,,,,,,,Space,keypress(Space),,,,,,,,"-- --- ---- --- ------ ----- ------- ---- -- --- ------- --<br>------- ---------- ------ -- ----- -- ----- -- ---- money,<br>--- ----- --- --- ------ -------- ----- --- ------ ----- --<br>----- ----- ---------- --- --- ------ ------ ---- -- ------<br>------- --- ------ ----- --- ---- ------- -- ---- --- --<br>------- ------",1024430.900000006,1024426.099999994,1024109.816,1024104.7999999821,1024126.471,1024442.916,,21,"money,"
screen,html.Screen,2_1_1_1_22,2022-05-03T10:33:36.834Z,,,,,,,,,,,,,,,,,54,,,,,,,,,,,,,,383.1839999940712,,response,,,,100,,,,,,,Space,keypress(Space),,,,,,,,-- --- ---- --- ------ ----- ------- ---- -- --- ------- --<br>------- ---------- ------ -- ----- -- ----- -- ---- ------<br>the ----- --- --- ------ -------- ----- --- ------ ----- --<br>----- ----- ---------- --- --- ------ ------ ---- -- ------<br>------- --- ------ ----- --- ---- ------- -- ---- --- --<br>------- ------,1024830.099999994,1024826.099999994,1024426.261,1024431.099999994,1024442.916,1024842.636,,22,the
screen,html.Screen,2_1_1_1_23,2022-05-03T10:33:37.096Z,,,,,,,,,,,,,,,,,54,,,,,,,,,,,,,,243.26400000590365,,response,,,,100,,,,,,,Space,keypress(Space),,,,,,,,-- --- ---- --- ------ ----- ------- ---- -- --- ------- --<br>------- ---------- ------ -- ----- -- ----- -- ---- ------<br>--- state --- --- ------ -------- ----- --- ------ ----- --<br>----- ----- ---------- --- --- ------ ------ ---- -- ------<br>------- --- ------ ----- --- ---- ------- -- ---- --- --<br>------- ------,1025091.900000006,1025085.900000006,1024825.981,1024830.2999999821,1024842.636,1025109.116,,23,state
screen,html.Screen,2_1_1_1_24,2022-05-03T10:33:37.360Z,,,,,,,,,,,,,,,,,54,,,,,,,,,,,,,,241.88399999996182,,response,,,,100,,,,,,,Space,keypress(Space),,,,,,,,-- --- ---- --- ------ ----- ------- ---- -- --- ------- --<br>------- ---------- ------ -- ----- -- ----- -- ---- ------<br>--- ----- cut --- ------ -------- ----- --- ------ ----- --<br>----- ----- ---------- --- --- ------ ------ ---- -- ------<br>------- --- ------ ----- --- ---- ------- -- ---- --- --<br>------- ------,1025356.5,1025351,1025092.461,1025092.1999999881,1025109.116,1025358.941,,24,cut
screen,html.Screen,2_1_1_1_25,2022-05-03T10:33:37.657Z,,,,,,,,,,,,,,,,,54,,,,,,,,,,,,,,289.1589999940479,,response,,,,100,,,,,,,Space,keypress(Space),,,,,,,,-- --- ---- --- ------ ----- ------- ---- -- --- ------- --<br>------- ---------- ------ -- ----- -- ----- -- ---- ------<br>--- ----- --- the ------ -------- ----- --- ------ ----- --<br>----- ----- ---------- --- --- ------ ------ ---- -- ------<br>------- --- ------ ----- --- ---- ------- -- ---- --- --<br>------- ------,1025653.599999994,1025648.099999994,1025342.286,1025356.6999999881,1025358.941,1025658.731,,25,the
screen,html.Screen,2_1_1_1_26,2022-05-03T10:33:37.923Z,,,,,,,,,,,,,,,,,54,,,,,,,,,,,,,,256.4689999880502,,response,,,,100,,,,,,,Space,keypress(Space),,,,,,,,-- --- ---- --- ------ ----- ------- ---- -- --- ------- --<br>------- ---------- ------ -- ----- -- ----- -- ---- ------<br>--- ----- --- --- bonds' -------- ----- --- ------ ----- --<br>----- ----- ---------- --- --- ------ ------ ---- -- ------<br>------- --- ------ ----- --- ---- ------- -- ---- --- --<br>------- ------,1025919.099999994,1025915.1999999881,1025642.076,1025653.6999999881,1025658.731,1025925.211,,26,bonds'
screen,html.Screen,2_1_1_1_27,2022-05-03T10:33:38.243Z,,,,,,,,,,,,,,,,,54,,,,,,,,,,,,,,307.78899999998976,,response,,,,100,,,,,,,Space,keypress(Space),,,,,,,,-- --- ---- --- ------ ----- ------- ---- -- --- ------- --<br>------- ---------- ------ -- ----- -- ----- -- ---- ------<br>--- ----- --- --- ------ interest ----- --- ------ ----- --<br>----- ----- ---------- --- --- ------ ------ ---- -- ------<br>------- --- ------ ----- --- ---- ------- -- ---- --- --<br>------- ------,1026239.099999994,1026233,1025908.556,1025919.1999999881,1025925.211,1026241.656,,27,interest
screen,html.Screen,2_1_1_1_28,2022-05-03T10:33:38.602Z,,,,,,,,,,,,,,,,,54,,,,,,,,,,,,,,350.344000000041,,response,,,,100,,,,,,,Space,keypress(Space),,,,,,,,-- --- ---- --- ------ ----- ------- ---- -- --- ------- --<br>------- ---------- ------ -- ----- -- ----- -- ---- ------<br>--- ----- --- --- ------ -------- rate. --- ------ ----- --<br>----- ----- ---------- --- --- ------ ------ ---- -- ------<br>------- --- ------ ----- --- ---- ------- -- ---- --- --<br>------- ------,1026597.900000006,1026592,1026225.001,1026239.5,1026241.656,1026608.066,,28,rate.
screen,html.Screen,2_1_1_1_29,2022-05-03T10:33:39.079Z,,,,,,,,,,,,,,,,,54,,,,,,,,,,,,,,461.9340000000084,,response,,,,100,,,,,,,Space,keypress(Space),,,,,,,,-- --- ---- --- ------ ----- ------- ---- -- --- ------- --<br>------- ---------- ------ -- ----- -- ----- -- ---- ------<br>--- ----- --- --- ------ -------- ----- The ------ ----- --<br>----- ----- ---------- --- --- ------ ------ ---- -- ------<br>------- --- ------ ----- --- ---- ------- -- ---- --- --<br>------- ------,1027075.400000006,1027070,1026591.411,1026598,1026608.066,1027091.061,,29,The
screen,html.Screen,2_1_1_1_30,2022-05-03T10:33:39.464Z,,,,,,,,,,,,,,,,,54,,,,,,,,,,,,,,360.8390000059735,,response,,,,100,,,,,,,Space,keypress(Space),,,,,,,,-- --- ---- --- ------ ----- ------- ---- -- --- ------- --<br>------- ---------- ------ -- ----- -- ----- -- ---- ------<br>--- ----- --- --- ------ -------- ----- --- market ----- --<br>----- ----- ---------- --- --- ------ ------ ---- -- ------<br>------- --- ------ ----- --- ---- ------- -- ---- --- --<br>------- ------,1027460.400000006,1027451.900000006,1027074.406,1027075.5,1027091.061,1027474.126,,30,market
screen,html.Screen,2_1_1_1_31,2022-05-03T10:33:39.777Z,,,,,,,,,,,,,,,,,54,,,,,,,,,,,,,,294.77400000591297,,response,,,,100,,,,,,,Space,keypress(Space),,,,,,,,-- --- ---- --- ------ ----- ------- ---- -- --- ------- --<br>------- ---------- ------ -- ----- -- ----- -- ---- ------<br>--- ----- --- --- ------ -------- ----- --- ------ value --<br>----- ----- ---------- --- --- ------ ------ ---- -- ------<br>------- --- ------ ----- --- ---- ------- -- ---- --- --<br>------- ------,1027773.099999994,1027768.900000006,1027457.471,1027460.599999994,1027474.126,1027790.571,,31,value
screen,html.Screen,2_1_1_1_32,2022-05-03T10:33:40.154Z,,,,,,,,,,,,,,,,,54,,,,,,,,,,,,,,353.4290000000037,,response,,,,100,,,,,,,Space,keypress(Space),,,,,,,,-- --- ---- --- ------ ----- ------- ---- -- --- ------- --<br>------- ---------- ------ -- ----- -- ----- -- ---- ------<br>--- ----- --- --- ------ -------- ----- --- ------ ----- of<br>----- ----- ---------- --- --- ------ ------ ---- -- ------<br>------- --- ------ ----- --- ---- ------- -- ---- --- --<br>------- ------,1028150,1028144,1027773.916,1027773.1999999881,1027790.571,1028156.981,,32,of
screen,html.Screen,2_1_1_1_33,2022-05-03T10:33:40.730Z,,,,,,,,,,,,,,,,,54,,,,,,,,,,,,,,564.0189999999711,,response,,,,100,,,,,,,Space,keypress(Space),,,,,,,,-- --- ---- --- ------ ----- ------- ---- -- --- ------- --<br>------- ---------- ------ -- ----- -- ----- -- ---- ------<br>--- ----- --- --- ------ -------- ----- --- ------ ----- --<br>these ----- ---------- --- --- ------ ------ ---- -- ------<br>------- --- ------ ----- --- ---- ------- -- ---- --- --<br>------- ------,1028726.7999999821,1028721,1028140.326,1028150.2999999821,1028156.981,1028739.906,,33,these
screen,html.Screen,2_1_1_1_34,2022-05-03T10:33:41.115Z,,,,,,,,,,,,,,,,,54,,,,,,,,,,,,,,365.094000000041,,response,,,,100,,,,,,,Space,keypress(Space),,,,,,,,-- --- ---- --- ------ ----- ------- ---- -- --- ------- --<br>------- ---------- ------ -- ----- -- ----- -- ---- ------<br>--- ----- --- --- ------ -------- ----- --- ------ ----- --<br>----- bonds ---------- --- --- ------ ------ ---- -- ------<br>------- --- ------ ----- --- ---- ------- -- ---- --- --<br>------- ------,1029111.5,1029105,1028723.251,1028726.900000006,1028739.906,1029122.971,,34,bonds
screen,html.Screen,2_1_1_1_35,2022-05-03T10:33:41.441Z,,,,,,,,,,,,,,,,,54,,,,,,,,,,,,,,306.9290000059409,,response,,,,100,,,,,,,Space,keypress(Space),,,,,,,,"-- --- ---- --- ------ ----- ------- ---- -- --- ------- --<br>------- ---------- ------ -- ----- -- ----- -- ---- ------<br>--- ----- --- --- ------ -------- ----- --- ------ ----- --<br>----- ----- plummeted, --- --- ------ ------ ---- -- ------<br>------- --- ------ ----- --- ---- ------- -- ---- --- --<br>------- ------",1029437.1999999881,1029429.900000006,1029106.316,1029111.7999999821,1029122.971,1029439.416,,35,"plummeted,"
screen,html.Screen,2_1_1_1_36,2022-05-03T10:33:41.864Z,,,,,,,,,,,,,,,,,54,,,,,,,,,,,,,,415.48400000599213,,response,,,,100,,,,,,,Space,keypress(Space),,,,,,,,-- --- ---- --- ------ ----- ------- ---- -- --- ------- --<br>------- ---------- ------ -- ----- -- ----- -- ---- ------<br>--- ----- --- --- ------ -------- ----- --- ------ ----- --<br>----- ----- ---------- and --- ------ ------ ---- -- ------<br>------- --- ------ ----- --- ---- ------- -- ---- --- --<br>------- ------,1029860.599999994,1029854.900000006,1029422.761,1029437.5,1029439.416,1029872.446,,36,and
screen,html.Screen,2_1_1_1_37,2022-05-03T10:33:42.151Z,,,,,,,,,,,,,,,,,54,,,,,,,,,,,,,,269.5540000000037,,response,,,,100,,,,,,,Space,keypress(Space),,,,,,,,-- --- ---- --- ------ ----- ------- ---- -- --- ------- --<br>------- ---------- ------ -- ----- -- ----- -- ---- ------<br>--- ----- --- --- ------ -------- ----- --- ------ ----- --<br>----- ----- ---------- --- the ------ ------ ---- -- ------<br>------- --- ------ ----- --- ---- ------- -- ---- --- --<br>------- ------,1030147.6999999881,1030142,1029855.791,1029861,1029872.446,1030155.962,,37,the
screen,html.Screen,2_1_1_1_38,2022-05-03T10:33:42.486Z,,,,,,,,,,,,,,,,,54,,,,,,,,,,,,,,320.03799999994226,,response,,,,100,,,,,,,Space,keypress(Space),,,,,,,,-- --- ---- --- ------ ----- ------- ---- -- --- ------- --<br>------- ---------- ------ -- ----- -- ----- -- ---- ------<br>--- ----- --- --- ------ -------- ----- --- ------ ----- --<br>----- ----- ---------- --- --- market ------ ---- -- ------<br>------- --- ------ ----- --- ---- ------- -- ---- --- --<br>------- ------,1030482,1030476,1030139.307,1030147.900000006,1030155.962,1030489.062,,38,market
screen,html.Screen,2_1_1_1_39,2022-05-03T10:33:42.864Z,,,,,,,,,,,,,,,,,54,,,,,,,,,,,,,,365.93799999996554,,response,,,,100,,,,,,,Space,keypress(Space),,,,,,,,-- --- ---- --- ------ ----- ------- ---- -- --- ------- --<br>------- ---------- ------ -- ----- -- ----- -- ---- ------<br>--- ----- --- --- ------ -------- ----- --- ------ ----- --<br>----- ----- ---------- --- --- ------ became ---- -- ------<br>------- --- ------ ----- --- ---- ------- -- ---- --- --<br>------- ------,1030860.599999994,1030855,1030472.407,1030482.1999999881,1030489.062,1030872.127,,39,became
screen,html.Screen,2_1_1_1_40,2022-05-03T10:33:43.293Z,,,,,,,,,,,,,,,,,54,,,,,,,,,,,,,,411.97299999406096,,response,,,,100,,,,,,,Space,keypress(Space),,,,,,,,-- --- ---- --- ------ ----- ------- ---- -- --- ------- --<br>------- ---------- ------ -- ----- -- ----- -- ---- ------<br>--- ----- --- --- ------ -------- ----- --- ------ ----- --<br>----- ----- ---------- --- --- ------ ------ wary -- ------<br>------- --- ------ ----- --- ---- ------- -- ---- --- --<br>------- ------,1031289.599999994,1031284.099999994,1030855.472,1030860.6999999881,1030872.127,1031305.157,,40,wary
screen,html.Screen,2_1_1_1_41,2022-05-03T10:33:43.629Z,,,,,,,,,,,,,,,,,54,,,,,,,,,,,,,,314.74300000595395,,response,,,,100,,,,,,,Space,keypress(Space),,,,,,,,-- --- ---- --- ------ ----- ------- ---- -- --- ------- --<br>------- ---------- ------ -- ----- -- ----- -- ---- ------<br>--- ----- --- --- ------ -------- ----- --- ------ ----- --<br>----- ----- ---------- --- --- ------ ------ ---- of ------<br>------- --- ------ ----- --- ---- ------- -- ---- --- --<br>------- ------,1031625.099999994,1031619.900000006,1031288.502,1031289.6999999881,1031305.157,1031638.257,,41,of
screen,html.Screen,2_1_1_1_42,2022-05-03T10:33:44.002Z,,,,,,,,,,,,,,,,,54,,,,,,,,,,,,,,354.74300000001676,,response,,,,100,,,,,,,Space,keypress(Space),,,,,,,,-- --- ---- --- ------ ----- ------- ---- -- --- ------- --<br>------- ---------- ------ -- ----- -- ----- -- ---- ------<br>--- ----- --- --- ------ -------- ----- --- ------ ----- --<br>----- ----- ---------- --- --- ------ ------ ---- -- French<br>------- --- ------ ----- --- ---- ------- -- ---- --- --<br>------- ------,1031998.6999999881,1031993,1031621.602,1031625.2999999821,1031638.257,1032004.667,,42,French
screen,html.Screen,2_1_1_1_43,2022-05-03T10:33:44.355Z,,,,,,,,,,,,,,,,,54,,,,,,,,,,,,,,342.23300000594463,,response,,,,100,,,,,,,Space,keypress(Space),,,,,,,,-- --- ---- --- ------ ----- ------- ---- -- --- ------- --<br>------- ---------- ------ -- ----- -- ----- -- ---- ------<br>--- ----- --- --- ------ -------- ----- --- ------ ----- --<br>----- ----- ---------- --- --- ------ ------ ---- -- ------<br>credit. --- ------ ----- --- ---- ------- -- ---- --- --<br>------- ------,1032351.599999994,1032346.900000006,1031988.012,1031998.900000006,1032004.667,1032354.422,,43,credit.
screen,html.Screen,2_1_1_1_44,2022-05-03T10:33:44.924Z,,,,,,,,,,,,,,,,,54,,,,,,,,,,,,,,561.47800000594,,response,,,,100,,,,,,,Space,keypress(Space),,,,,,,,-- --- ---- --- ------ ----- ------- ---- -- --- ------- --<br>------- ---------- ------ -- ----- -- ----- -- ---- ------<br>--- ----- --- --- ------ -------- ----- --- ------ ----- --<br>----- ----- ---------- --- --- ------ ------ ---- -- ------<br>------- The ------ ----- --- ---- ------- -- ---- --- --<br>------- ------,1032920.5,1032915.900000006,1032337.767,1032351.7999999821,1032354.422,1032937.347,,44,The
screen,html.Screen,2_1_1_1_45,2022-05-03T10:33:45.322Z,,,,,,,,,,,,,,,,,54,,,,,,,,,,,,,,374.5530000060098,,response,,,,100,,,,,,,Space,keypress(Space),,,,,,,,-- --- ---- --- ------ ----- ------- ---- -- --- ------- --<br>------- ---------- ------ -- ----- -- ----- -- ---- ------<br>--- ----- --- --- ------ -------- ----- --- ------ ----- --<br>----- ----- ---------- --- --- ------ ------ ---- -- ------<br>------- --- French ----- --- ---- ------- -- ---- --- --<br>------- ------,1033318.2999999821,1033311.900000006,1032920.692,1032920.6999999881,1032937.347,1033320.412,,45,French
screen,html.Screen,2_1_1_1_46,2022-05-03T10:33:45.684Z,,,,,,,,,,,,,,,,,54,,,,,,,,,,,,,,355.2879999880679,,response,,,,100,,,,,,,Space,keypress(Space),,,,,,,,-- --- ---- --- ------ ----- ------- ---- -- --- ------- --<br>------- ---------- ------ -- ----- -- ----- -- ---- ------<br>--- ----- --- --- ------ -------- ----- --- ------ ----- --<br>----- ----- ---------- --- --- ------ ------ ---- -- ------<br>------- --- ------ state --- ---- ------- -- ---- --- --<br>------- ------,1033680.900000006,1033675.6999999881,1033303.757,1033318.5,1033320.412,1033686.822,,46,state
screen,html.Screen,2_1_1_1_47,2022-05-03T10:33:46.090Z,,,,,,,,,,,,,,,,,54,,,,,,,,,,,,,,395.0780000059167,,response,,,,100,,,,,,,Space,keypress(Space),,,,,,,,-- --- ---- --- ------ ----- ------- ---- -- --- ------- --<br>------- ---------- ------ -- ----- -- ----- -- ---- ------<br>--- ----- --- --- ------ -------- ----- --- ------ ----- --<br>----- ----- ---------- --- --- ------ ------ ---- -- ------<br>------- --- ------ ----- was ---- ------- -- ---- --- --<br>------- ------,1034086.599999994,1034081.900000006,1033670.167,1033681,1033686.822,1034103.197,,47,was
screen,html.Screen,2_1_1_1_48,2022-05-03T10:33:46.398Z,,,,,,,,,,,,,,,,,54,,,,,,,,,,,,,,286.7030000059167,,response,,,,100,,,,,,,Space,keypress(Space),,,,,,,,-- --- ---- --- ------ ----- ------- ---- -- --- ------- --<br>------- ---------- ------ -- ----- -- ----- -- ---- ------<br>--- ----- --- --- ------ -------- ----- --- ------ ----- --<br>----- ----- ---------- --- --- ------ ------ ---- -- ------<br>------- --- ------ ----- --- left ------- -- ---- --- --<br>------- ------,1034394.6999999881,1034389.900000006,1034086.542,1034086.6999999881,1034103.197,1034402.987,,48,left
screen,html.Screen,2_1_1_1_49,2022-05-03T10:33:46.709Z,,,,,,,,,,,,,,,,,54,,,,,,,,,,,,,,297.812999982154,,response,,,,100,,,,,,,Space,keypress(Space),,,,,,,,-- --- ---- --- ------ ----- ------- ---- -- --- ------- --<br>------- ---------- ------ -- ----- -- ----- -- ---- ------<br>--- ----- --- --- ------ -------- ----- --- ------ ----- --<br>----- ----- ---------- --- --- ------ ------ ---- -- ------<br>------- --- ------ ----- --- ---- without -- ---- --- --<br>------- ------,1034706,1034700.7999999821,1034386.332,1034394.900000006,1034402.987,1034719.432,,49,without
screen,html.Screen,2_1_1_1_50,2022-05-03T10:33:47.081Z,,,,,,,,,,,,,,,,,54,,,,,,,,,,,,,,352.46800000593066,,response,,,,100,,,,,,,Space,keypress(Space),,,,,,,,-- --- ---- --- ------ ----- ------- ---- -- --- ------- --<br>------- ---------- ------ -- ----- -- ----- -- ---- ------<br>--- ----- --- --- ------ -------- ----- --- ------ ----- --<br>----- ----- ---------- --- --- ------ ------ ---- -- ------<br>------- --- ------ ----- --- ---- ------- an ---- --- --<br>------- ------,1035077.900000006,1035071.900000006,1034702.777,1034706.1999999881,1034719.432,1035085.842,,50,an
screen,html.Screen,2_1_1_1_51,2022-05-03T10:33:47.419Z,,,,,,,,,,,,,,,,,54,,,,,,,,,,,,,,323.8579999881331,,response,,,,100,,,,,,,Space,keypress(Space),,,,,,,,-- --- ---- --- ------ ----- ------- ---- -- --- ------- --<br>------- ---------- ------ -- ----- -- ----- -- ---- ------<br>--- ----- --- --- ------ -------- ----- --- ------ ----- --<br>----- ----- ---------- --- --- ------ ------ ---- -- ------<br>------- --- ------ ----- --- ---- ------- -- easy --- --<br>------- ------,1035415.7999999821,1035409.6999999881,1035069.187,1035078,1035085.842,1035418.942,,51,easy
screen,html.Screen,2_1_1_1_52,2022-05-03T10:33:47.771Z,,,,,,,,,,,,,,,,,54,,,,,,,,,,,,,,342.95800000592135,,response,,,,100,,,,,,,Space,keypress(Space),,,,,,,,-- --- ---- --- ------ ----- ------- ---- -- --- ------- --<br>------- ---------- ------ -- ----- -- ----- -- ---- ------<br>--- ----- --- --- ------ -------- ----- --- ------ ----- --<br>----- ----- ---------- --- --- ------ ------ ---- -- ------<br>------- --- ------ ----- --- ---- ------- -- ---- way --<br>------- ------,1035767.900000006,1035761.900000006,1035402.287,1035416,1035418.942,1035785.352,,52,way
screen,html.Screen,2_1_1_1_53,2022-05-03T10:33:48.124Z,,,,,,,,,,,,,,,,,54,,,,,,,,,,,,,,330.24799999408424,,response,,,,100,,,,,,,Space,keypress(Space),,,,,,,,-- --- ---- --- ------ ----- ------- ---- -- --- ------- --<br>------- ---------- ------ -- ----- -- ----- -- ---- ------<br>--- ----- --- --- ------ -------- ----- --- ------ ----- --<br>----- ----- ---------- --- --- ------ ------ ---- -- ------<br>------- --- ------ ----- --- ---- ------- -- ---- --- of<br>------- ------,1036121,1036115.599999994,1035768.697,1035768.099999994,1035785.352,1036135.107,,53,of
screen,html.Screen,2_1_1_1_54,2022-05-03T10:33:48.955Z,,,,,,,,,,,,,,,,,54,,,,,,,,,,,,,,810.5929999881191,,response,,,,100,,,,,,,Space,keypress(Space),,,,,,,,-- --- ---- --- ------ ----- ------- ---- -- --- ------- --<br>------- ---------- ------ -- ----- -- ----- -- ---- ------<br>--- ----- --- --- ------ -------- ----- --- ------ ----- --<br>----- ----- ---------- --- --- ------ ------ ---- -- ------<br>------- --- ------ ----- --- ---- ------- -- ---- --- --<br>raising ------,1036951.5,1036945.6999999881,1036118.452,1036121.099999994,1036135.107,1036967.857,,54,raising
screen,html.Screen,2_1_1_1_55,2022-05-03T10:33:49.431Z,,,,,,,,,,,,,,,,,54,,,,,,,,,,,,,,454.7429999940796,,response,,,,100,,,,,,,Space,keypress(Space),,,,,,,,-- --- ---- --- ------ ----- ------- ---- -- --- ------- --<br>------- ---------- ------ -- ----- -- ----- -- ---- ------<br>--- ----- --- --- ------ -------- ----- --- ------ ----- --<br>----- ----- ---------- --- --- ------ ------ ---- -- ------<br>------- --- ------ ----- --- ---- ------- -- ---- --- --<br>------- money.,1037428,1037422.599999994,1036951.202,1036951.6999999881,1036967.857,1037434.197,,55,money.
Item 100,flow.Loop,2_1_1_1,2022-05-03T10:33:49.432Z,,,,,,,,,,,,,,,,,,,,,,,,,,,,,,,21424.15499999409,,completion,,,,,H,,,,,,,,,,,silence,,,,,1037428.5,1037422.599999994,1015981.79,1015984.5,1015998.445,1037434.197,,,
Question 1,html.Screen,2_1_1_2,2022-05-03T10:33:51.588Z,,,,,,,,,,,,,,,,,,,,,,,,,,,,true,TRUE,,2138.102999982075,,response,,,,100,H,,,,,,TRUE,click #choice-1,,,,silence,,,,,1039585,1039572.2999999821,1037417.542,1037428.900000006,1037434.197,1039599.347,,,
Question 2,html.Screen,2_1_1_3,2022-05-03T10:33:54.546Z,,,,,,,,,,,,,,,,,,,,,,,,,,,,false,FALSE,,2931.752999994089,,response,,,,100,H,,,,,,TRUE,click #choice-1,,,,silence,,,,,1042542.6999999881,1042531.099999994,1039582.692,1039585.1999999881,1039599.347,1042547.663,,,
Item 100,flow.Sequence,2_1_1,2022-05-03T10:33:54.547Z,,,,,,,,,,,,,,,,,,,,,,,,,,,,,,,36526.054999994,,completion,,,,,,,,,,,,,,,,,,,,,1042543.7999999821,1042531.099999994,1005988.39,1005988.6999999881,1006005.045,1042547.663,,,
End of Practice,html.Page,2_1_2,2022-05-03T10:33:57.760Z,,,,,,,,,,,,,,,,,,,,,,,,,,,,,,,3208.8370000000577,,form submission,,,,,,,,,,,,,,,,,,,,,1045756.900000006,1045756.5,1042531.008,1042543.900000006,1042547.663,1045762.078,,,
Practice,flow.Sequence,2_1,2022-05-03T10:33:57.760Z,,,,,,,,,,,,,,,,,,,,,,,,,,,,,,,80275.27899999998,,completion,,,,,,,,,,,,,,,,,,,,,1045757.1999999881,1045756.5,965464.566,965471.599999994,965481.221,1045762.078,,,
Trap_instruction,html.Page,2_2_0,2022-05-03T10:34:01.239Z,,,,,,,,,,,,,,,,,,,,,,,,,,,,,,,3473.02199999406,,form submission,,,,,,,,,,,,,,,,,,,,,1049235.5,1049235.099999994,1045745.423,1045757.2999999821,1045762.078,1049259.628,,,
trap_trial,html.Screen,2_2_1,2022-05-03T10:34:04.392Z,,,,,,,,,,,,,,,,,,,,,,,,,,,,true,1,,3116.6719999820925,,response,,,,,,,,,,,1,click #choice-1,,,,,,,,,1052389.199999988,1052376.2999999821,1049226.318,1049235.599999994,1049259.628,1052390.768,,,
end of trap trial,html.Page,2_2_2,2022-05-03T10:34:05.937Z,,,,,,,,,,,,,,,,,,,,,,,,,,,,,,,1542.6320000060368,,form submission,,,,,,,,,,,,,,,,,,,,,1053933.7999999821,1053933.400000006,1052374.113,1052389.2999999821,1052390.768,1053940.163,,,
Trap 1,flow.Sequence,2_2,2022-05-03T10:34:05.937Z,,,,,,,,,,,,,,,,,,,,,,,,,,,,,,,8171.322000005981,,completion,,,,,,,,,,,,,,,,,,,,,1053933.900000006,1053933.400000006,1045745.423,1045757.2999999821,1045762.078,1053940.163,,,
Standby,html.Page,2_3_0,2022-05-03T10:34:13.923Z,,,,,,,,,,,,,,,,,,,,,,,,,,,,,,,7994.40000000014,,timeout,,,,,,,,,,,,,,,,,,,,,1061919.900000006,1061917.908,1053923.508,1053934,1053940.163,1061934.563,,,
Holding screen,html.Screen,2_3_1_0_0,2022-05-03T10:34:20.919Z,,,,,,,,,,,,,,,,,,,,,,,,,,,,,,,6995.49599999981,,timeout,,,,,,,,,,,,,,,,,,,,,1068916.199999988,1068913.404,1061917.908,1061920.2999999821,1061934.563,1068930.059,,,
screen,html.Screen,2_3_1_0_1_0,2022-05-03T10:34:23.006Z,,,,,,,,,,,,,,,,,2,,,,,,,,,,,,,,2067.5409999941476,,response,,,,1,H,,,,,,Space,keypress(Space),,,,speech,,,,Two ---- ------ --- ------- ---------- ------- ----------<br>--- --------- --- ----------- ------- ----- ------- ---<br>--------- ---- -- --- ---- -- --------- -- ---- -------<br>-- --------- ------ --- ----- ------ ---- --- --------- --<br>------ - ---- -- --- ----------- ------- ---- ----- -----<br>--- -------- - ------ ---- -- ----- ---- --- --- -----------<br>-- -------,1071003.5,1070997.599999994,1068913.404,1068916.599999994,1068930.059,1071011.934,,0,Two
screen,html.Screen,2_3_1_0_1_1,2022-05-03T10:34:23.365Z,,,,,,,,,,,,,,,,,2,,,,,,,,,,,,,,344.36599998222664,,response,,,,1,H,,,,,,Space,keypress(Space),,,,speech,,,,--- days ------ --- ------- ---------- ------- ----------<br>--- --------- --- ----------- ------- ----- ------- ---<br>--------- ---- -- --- ---- -- --------- -- ---- -------<br>-- --------- ------ --- ----- ------ ---- --- --------- --<br>------ - ---- -- --- ----------- ------- ---- ----- -----<br>--- -------- - ------ ---- -- ----- ---- --- --- -----------<br>-- -------,1071362.099999994,1071356.2999999821,1070995.279,1071003.599999994,1071011.934,1071378.344,,1,days
screen,html.Screen,2_3_1_0_1_2,2022-05-03T10:34:23.694Z,,,,,,,,,,,,,,,,,2,,,,,,,,,,,,,,307.0560000059195,,response,,,,1,H,,,,,,Space,keypress(Space),,,,speech,,,,"--- ---- later, --- ------- ---------- ------- ----------<br>--- --------- --- ----------- ------- ----- ------- ---<br>--------- ---- -- --- ---- -- --------- -- ---- -------<br>-- --------- ------ --- ----- ------ ---- --- --------- --<br>------ - ---- -- --- ----------- ------- ---- ----- -----<br>--- -------- - ------ ---- -- ----- ---- --- --- -----------<br>-- -------",1071691,1071685.400000006,1071361.689,1071362.199999988,1071378.344,1071694.789,,2,"later,"
screen,html.Screen,2_3_1_0_1_3,2022-05-03T10:34:24.058Z,,,,,,,,,,,,,,,,,2,,,,,,,,,,,,,,355.4109999879729,,response,,,,1,H,,,,,,Space,keypress(Space),,,,speech,,,,--- ---- ------ the ------- ---------- ------- ----------<br>--- --------- --- ----------- ------- ----- ------- ---<br>--------- ---- -- --- ---- -- --------- -- ---- -------<br>-- --------- ------ --- ----- ------ ---- --- --------- --<br>------ - ---- -- --- ----------- ------- ---- ----- -----<br>--- -------- - ------ ---- -- ----- ---- --- --- -----------<br>-- -------,1072055.699999988,1072050.199999988,1071678.134,1071691.599999994,1071694.789,1072061.199,,3,the
screen,html.Screen,2_3_1_0_1_4,2022-05-03T10:34:24.369Z,,,,,,,,,,,,,,,,,2,,,,,,,,,,,,,,299.9009999940172,,response,,,,1,H,,,,,,Space,keypress(Space),,,,speech,,,,--- ---- ------ --- British ---------- ------- ----------<br>--- --------- --- ----------- ------- ----- ------- ---<br>--------- ---- -- --- ---- -- --------- -- ---- -------<br>-- --------- ------ --- ----- ------ ---- --- --------- --<br>------ - ---- -- --- ----------- ------- ---- ----- -----<br>--- -------- - ------ ---- -- ----- ---- --- --- -----------<br>-- -------,1072366.599999994,1072361.099999994,1072044.544,1072055.7999999821,1072061.199,1072377.644,,4,British
screen,html.Screen,2_3_1_0_1_5,2022-05-03T10:34:24.713Z,,,,,,,,,,,,,,,,,2,,,,,,,,,,,,,,325.65599998203106,,response,,,,1,H,,,,,,Space,keypress(Space),,,,speech,,,,--- ---- ------ --- ------- astronomer ------- ----------<br>--- --------- --- ----------- ------- ----- ------- ---<br>--------- ---- -- --- ---- -- --------- -- ---- -------<br>-- --------- ------ --- ----- ------ ---- --- --------- --<br>------ - ---- -- --- ----------- ------- ---- ----- -----<br>--- -------- - ------ ---- -- ----- ---- --- --- -----------<br>-- -------,1072710.2999999821,1072703.2999999821,1072360.989,1072366.900000006,1072377.644,1072727.399,,5,astronomer
screen,html.Screen,2_3_1_0_1_6,2022-05-03T10:34:25.072Z,,,,,,,,,,,,,,,,,2,,,,,,,,,,,,,,332.9009999821428,,response,,,,1,H,,,,,,Space,keypress(Space),,,,speech,,,,--- ---- ------ --- ------- ---------- Richard ----------<br>--- --------- --- ----------- ------- ----- ------- ---<br>--------- ---- -- --- ---- -- --------- -- ---- -------<br>-- --------- ------ --- ----- ------ ---- --- --------- --<br>------ - ---- -- --- ----------- ------- ---- ----- -----<br>--- -------- - ------ ---- -- ----- ---- --- --- -----------<br>-- -------,1073069.5,1073060.2999999821,1072710.744,1072710.5,1072727.399,1073077.154,,6,Richard
screen,html.Screen,2_3_1_0_1_7,2022-05-03T10:34:25.434Z,,,,,,,,,,,,,,,,,2,,,,,,,,,,,,,,348.9459999939427,,response,,,,1,H,,,,,,Space,keypress(Space),,,,speech,,,,--- ---- ------ --- ------- ---------- ------- Carrington<br>--- --------- --- ----------- ------- ----- ------- ---<br>--------- ---- -- --- ---- -- --------- -- ---- -------<br>-- --------- ------ --- ----- ------ ---- --- --------- --<br>------ - ---- -- --- ----------- ------- ---- ----- -----<br>--- -------- - ------ ---- -- ----- ---- --- --- -----------<br>-- -------,1073431.7999999821,1073426.099999994,1073060.499,1073069.599999994,1073077.154,1073443.564,,7,Carrington
screen,html.Screen,2_3_1_0_1_8,2022-05-03T10:34:25.825Z,,,,,,,,,,,,,,,,,2,,,,,,,,,,,,,,374.5359999940265,,response,,,,1,H,,,,,,Space,keypress(Space),,,,speech,,,,--- ---- ------ --- ------- ---------- ------- ----------<br>was --------- --- ----------- ------- ----- ------- ---<br>--------- ---- -- --- ---- -- --------- -- ---- -------<br>-- --------- ------ --- ----- ------ ---- --- --------- --<br>------ - ---- -- --- ----------- ------- ---- ----- -----<br>--- -------- - ------ ---- -- ----- ---- --- --- -----------<br>-- -------,1073823.099999994,1073818.099999994,1073426.909,1073432,1073443.564,1073827.009,,8,was
screen,html.Screen,2_3_1_0_1_9,2022-05-03T10:34:26.186Z,,,,,,,,,,,,,,,,,2,,,,,,,,,,,,,,351.2909999820404,,response,,,,1,H,,,,,,Space,keypress(Space),,,,speech,,,,--- ---- ------ --- ------- ---------- ------- ----------<br>--- observing --- ----------- ------- ----- ------- ---<br>--------- ---- -- --- ---- -- --------- -- ---- -------<br>-- --------- ------ --- ----- ------ ---- --- --------- --<br>------ - ---- -- --- ----------- ------- ---- ----- -----<br>--- -------- - ------ ---- -- ----- ---- --- --- -----------<br>-- -------,1074183.900000006,1074178.2999999821,1073810.354,1073823.199999988,1073827.009,1074193.419,,9,observing
screen,html.Screen,2_3_1_0_1_10,2022-05-03T10:34:26.485Z,,,,,,,,,,,,,,,,,2,,,,,,,,,,,,,,282.8809999821242,,response,,,,1,H,,,,,,Space,keypress(Space),,,,speech,,,,--- ---- ------ --- ------- ---------- ------- ----------<br>--- --------- the ----------- ------- ----- ------- ---<br>--------- ---- -- --- ---- -- --------- -- ---- -------<br>-- --------- ------ --- ----- ------ ---- --- --------- --<br>------ - ---- -- --- ----------- ------- ---- ----- -----<br>--- -------- - ------ ---- -- ----- ---- --- --- -----------<br>-- -------,1074482.400000006,1074476.2999999821,1074176.764,1074184.199999988,1074193.419,1074493.209,,10,the
screen,html.Screen,2_3_1_0_1_11,2022-05-03T10:34:26.811Z,,,,,,,,,,,,,,,,,2,,,,,,,,,,,,,,311.09099998208694,,response,,,,1,H,,,,,,Space,keypress(Space),,,,speech,,,,--- ---- ------ --- ------- ---------- ------- ----------<br>--- --------- --- interesting ------- ----- ------- ---<br>--------- ---- -- --- ---- -- --------- -- ---- -------<br>-- --------- ------ --- ----- ------ ---- --- --------- --<br>------ - ---- -- --- ----------- ------- ---- ----- -----<br>--- -------- - ------ ---- -- ----- ---- --- --- -----------<br>-- -------,1074808.199999988,1074804.2999999821,1074476.554,1074482.599999994,1074493.209,1074809.654,,11,interesting
screen,html.Screen,2_3_1_0_1_12,2022-05-03T10:34:27.113Z,,,,,,,,,,,,,,,,,2,,,,,,,,,,,,,,295.34599999990314,,response,,,,1,H,,,,,,Space,keypress(Space),,,,speech,,,,--- ---- ------ --- ------- ---------- ------- ----------<br>--- --------- --- ----------- sunspot ----- ------- ---<br>--------- ---- -- --- ---- -- --------- -- ---- -------<br>-- --------- ------ --- ----- ------ ---- --- --------- --<br>------ - ---- -- --- ----------- ------- ---- ----- -----<br>--- -------- - ------ ---- -- ----- ---- --- --- -----------<br>-- -------,1075110.5,1075105,1074792.999,1074808.2999999821,1074809.654,1075126.099,,12,sunspot
screen,html.Screen,2_3_1_0_1_13,2022-05-03T10:34:27.529Z,,,,,,,,,,,,,,,,,2,,,,,,,,,,,,,,395.0009999941103,,response,,,,1,H,,,,,,Space,keypress(Space),,,,speech,,,,--- ---- ------ --- ------- ---------- ------- ----------<br>--- --------- --- ----------- ------- group ------- ---<br>--------- ---- -- --- ---- -- --------- -- ---- -------<br>-- --------- ------ --- ----- ------ ---- --- --------- --<br>------ - ---- -- --- ----------- ------- ---- ----- -----<br>--- -------- - ------ ---- -- ----- ---- --- --- -----------<br>-- -------,1075526.5,1075521.099999994,1075109.444,1075110.699999988,1075126.099,1075542.474,,13,group
screen,html.Screen,2_3_1_0_1_14,2022-05-03T10:34:27.875Z,,,,,,,,,,,,,,,,,2,,,,,,,,,,,,,,324.6259999941103,,response,,,,1,H,,,,,,Space,keypress(Space),,,,speech,,,,--- ---- ------ --- ------- ---------- ------- ----------<br>--- --------- --- ----------- ------- ----- through ---<br>--------- ---- -- --- ---- -- --------- -- ---- -------<br>-- --------- ------ --- ----- ------ ---- --- --------- --<br>------ - ---- -- --- ----------- ------- ---- ----- -----<br>--- -------- - ------ ---- -- ----- ---- --- --- -----------<br>-- -------,1075873,1075867.099999994,1075525.819,1075526.699999988,1075542.474,1075875.574,,14,through
screen,html.Screen,2_3_1_0_1_15,2022-05-03T10:34:28.247Z,,,,,,,,,,,,,,,,,2,,,,,,,,,,,,,,364.42599999997765,,response,,,,1,H,,,,,,Space,keypress(Space),,,,speech,,,,--- ---- ------ --- ------- ---------- ------- ----------<br>--- --------- --- ----------- ------- ----- ------- his<br>--------- ---- -- --- ---- -- --------- -- ---- -------<br>-- --------- ------ --- ----- ------ ---- --- --------- --<br>------ - ---- -- --- ----------- ------- ---- ----- -----<br>--- -------- - ------ ---- -- ----- ---- --- --- -----------<br>-- -------,1076244.5,1076240,1075858.919,1075873.199999988,1075875.574,1076258.639,,15,his
screen,html.Screen,2_3_1_0_1_16,2022-05-03T10:34:28.587Z,,,,,,,,,,,,,,,,,2,,,,,,,,,,,,,,321.261000005994,,response,,,,1,H,,,,,,Space,keypress(Space),,,,speech,,,,--- ---- ------ --- ------- ---------- ------- ----------<br>--- --------- --- ----------- ------- ----- ------- ---<br>telescope ---- -- --- ---- -- --------- -- ---- -------<br>-- --------- ------ --- ----- ------ ---- --- --------- --<br>------ - ---- -- --- ----------- ------- ---- ----- -----<br>--- -------- - ------ ---- -- ----- ---- --- --- -----------<br>-- -------,1076584.599999994,1076579.900000006,1076241.984,1076244.599999994,1076258.639,1076591.739,,16,telescope
screen,html.Screen,2_3_1_0_1_17,2022-05-03T10:34:28.936Z,,,,,,,,,,,,,,,,,2,,,,,,,,,,,,,,337.36099999397993,,response,,,,1,H,,,,,,Space,keypress(Space),,,,speech,,,,--- ---- ------ --- ------- ---------- ------- ----------<br>--- --------- --- ----------- ------- ----- ------- ---<br>--------- when -- --- ---- -- --------- -- ---- -------<br>-- --------- ------ --- ----- ------ ---- --- --------- --<br>------ - ---- -- --- ----------- ------- ---- ----- -----<br>--- -------- - ------ ---- -- ----- ---- --- --- -----------<br>-- -------,1076933.5,1076929.099999994,1076575.084,1076585.5,1076591.739,1076941.494,,17,when
screen,html.Screen,2_3_1_0_1_18,2022-05-03T10:34:29.238Z,,,,,,,,,,,,,,,,,2,,,,,,,,,,,,,,289.80599998217076,,response,,,,1,H,,,,,,Space,keypress(Space),,,,speech,,,,--- ---- ------ --- ------- ---------- ------- ----------<br>--- --------- --- ----------- ------- ----- ------- ---<br>--------- ---- he --- ---- -- --------- -- ---- -------<br>-- --------- ------ --- ----- ------ ---- --- --------- --<br>------ - ---- -- --- ----------- ------- ---- ----- -----<br>--- -------- - ------ ---- -- ----- ---- --- --- -----------<br>-- -------,1077235.599999994,1077231.2999999821,1076924.839,1076933.699999988,1076941.494,1077241.284,,18,he
screen,html.Screen,2_3_1_0_1_19,2022-05-03T10:34:29.511Z,,,,,,,,,,,,,,,,,2,,,,,,,,,,,,,,260.7160000000149,,response,,,,1,H,,,,,,Space,keypress(Space),,,,speech,,,,--- ---- ------ --- ------- ---------- ------- ----------<br>--- --------- --- ----------- ------- ----- ------- ---<br>--------- ---- -- saw ---- -- --------- -- ---- -------<br>-- --------- ------ --- ----- ------ ---- --- --------- --<br>------ - ---- -- --- ----------- ------- ---- ----- -----<br>--- -------- - ------ ---- -- ----- ---- --- --- -----------<br>-- -------,1077508.5,1077502,1077224.629,1077235.7999999821,1077241.284,1077524.419,,19,saw
screen,html.Screen,2_3_1_0_1_20,2022-05-03T10:34:29.780Z,,,,,,,,,,,,,,,,,2,,,,,,,,,,,,,,248.48100000596605,,response,,,,1,H,,,,,,Space,keypress(Space),,,,speech,,,,--- ---- ------ --- ------- ---------- ------- ----------<br>--- --------- --- ----------- ------- ----- ------- ---<br>--------- ---- -- --- what -- --------- -- ---- -------<br>-- --------- ------ --- ----- ------ ---- --- --------- --<br>------ - ---- -- --- ----------- ------- ---- ----- -----<br>--- -------- - ------ ---- -- ----- ---- --- --- -----------<br>-- -------,1077777.900000006,1077772.900000006,1077507.764,1077508.599999994,1077524.419,1077790.899,,20,what
screen,html.Screen,2_3_1_0_1_21,2022-05-03T10:34:30.080Z,,,,,,,,,,,,,,,,,2,,,,,,,,,,,,,,281.3009999881033,,response,,,,1,H,,,,,,Space,keypress(Space),,,,speech,,,,--- ---- ------ --- ------- ---------- ------- ----------<br>--- --------- --- ----------- ------- ----- ------- ---<br>--------- ---- -- --- ---- he --------- -- ---- -------<br>-- --------- ------ --- ----- ------ ---- --- --------- --<br>------ - ---- -- --- ----------- ------- ---- ----- -----<br>--- -------- - ------ ---- -- ----- ---- --- --- -----------<br>-- -------,1078078.099999994,1078072.199999988,1077774.244,1077778.099999994,1077790.899,1078090.689,,21,he
screen,html.Screen,2_3_1_0_1_22,2022-05-03T10:34:30.331Z,,,,,,,,,,,,,,,,,2,,,,,,,,,,,,,,232.21100000594743,,response,,,,1,H,,,,,,Space,keypress(Space),,,,speech,,,,--- ---- ------ --- ------- ---------- ------- ----------<br>--- --------- --- ----------- ------- ----- ------- ---<br>--------- ---- -- --- ---- -- described -- ---- -------<br>-- --------- ------ --- ----- ------ ---- --- --------- --<br>------ - ---- -- --- ----------- ------- ---- ----- -----<br>--- -------- - ------ ---- -- ----- ---- --- --- -----------<br>-- -------,1078328.699999988,1078322.900000006,1078074.034,1078078.199999988,1078090.689,1078340.514,,22,described
screen,html.Screen,2_3_1_0_1_23,2022-05-03T10:34:30.590Z,,,,,,,,,,,,,,,,,2,,,,,,,,,,,,,,240.6859999881126,,response,,,,1,H,,,,,,Space,keypress(Space),,,,speech,,,,--- ---- ------ --- ------- ---------- ------- ----------<br>--- --------- --- ----------- ------- ----- ------- ---<br>--------- ---- -- --- ---- -- --------- as ---- -------<br>-- --------- ------ --- ----- ------ ---- --- --------- --<br>------ - ---- -- --- ----------- ------- ---- ----- -----<br>--- -------- - ------ ---- -- ----- ---- --- --- -----------<br>-- -------,1078587.599999994,1078581.199999988,1078323.859,1078328.900000006,1078340.514,1078590.339,,23,as
screen,html.Screen,2_3_1_0_1_24,2022-05-03T10:34:30.852Z,,,,,,,,,,,,,,,,,2,,,,,,,,,,,,,,254.9609999821987,,response,,,,1,H,,,,,,Space,keypress(Space),,,,speech,,,,"--- ---- ------ --- ------- ---------- ------- ----------<br>--- --------- --- ----------- ------- ----- ------- ---<br>--------- ---- -- --- ---- -- --------- -- ""two -------<br>-- --------- ------ --- ----- ------ ---- --- --------- --<br>------ - ---- -- --- ----------- ------- ---- ----- -----<br>--- -------- - ------ ---- -- ----- ---- --- --- -----------<br>-- -------",1078849.2999999821,1078845.2999999821,1078573.684,1078587.900000006,1078590.339,1078856.819,,24,"""two"
screen,html.Screen,2_3_1_0_1_25,2022-05-03T10:34:31.177Z,,,,,,,,,,,,,,,,,2,,,,,,,,,,,,,,311.3809999881778,,response,,,,1,H,,,,,,Space,keypress(Space),,,,speech,,,,--- ---- ------ --- ------- ---------- ------- ----------<br>--- --------- --- ----------- ------- ----- ------- ---<br>--------- ---- -- --- ---- -- --------- -- ---- patches<br>-- --------- ------ --- ----- ------ ---- --- --------- --<br>------ - ---- -- --- ----------- ------- ---- ----- -----<br>--- -------- - ------ ---- -- ----- ---- --- --- -----------<br>-- -------,1079174.2999999821,1079168.199999988,1078840.164,1078849.400000006,1078856.819,1079189.919,,25,patches
screen,html.Screen,2_3_1_0_1_26,2022-05-03T10:34:31.537Z,,,,,,,,,,,,,,,,,2,,,,,,,,,,,,,,339.0810000000056,,response,,,,1,H,,,,,,Space,keypress(Space),,,,speech,,,,--- ---- ------ --- ------- ---------- ------- ----------<br>--- --------- --- ----------- ------- ----- ------- ---<br>--------- ---- -- --- ---- -- --------- -- ---- -------<br>of --------- ------ --- ----- ------ ---- --- --------- --<br>------ - ---- -- --- ----------- ------- ---- ----- -----<br>--- -------- - ------ ---- -- ----- ---- --- --- -----------<br>-- -------,1079534.2999999821,1079529,1079173.264,1079174.400000006,1079189.919,1079539.674,,26,of
screen,html.Screen,2_3_1_0_1_27,2022-05-03T10:34:31.812Z,,,,,,,,,,,,,,,,,2,,,,,,,,,,,,,,265.5259999879636,,response,,,,1,H,,,,,,Space,keypress(Space),,,,speech,,,,--- ---- ------ --- ------- ---------- ------- ----------<br>--- --------- --- ----------- ------- ----- ------- ---<br>--------- ---- -- --- ---- -- --------- -- ---- -------<br>-- intensely ------ --- ----- ------ ---- --- --------- --<br>------ - ---- -- --- ----------- ------- ---- ----- -----<br>--- -------- - ------ ---- -- ----- ---- --- --- -----------<br>-- -------,1079810.099999994,1079805.199999988,1079523.019,1079534.5,1079539.674,1079822.809,,27,intensely
screen,html.Screen,2_3_1_0_1_28,2022-05-03T10:34:32.059Z,,,,,,,,,,,,,,,,,2,,,,,,,,,,,,,,231.0910000060685,,response,,,,1,H,,,,,,Space,keypress(Space),,,,speech,,,,--- ---- ------ --- ------- ---------- ------- ----------<br>--- --------- --- ----------- ------- ----- ------- ---<br>--------- ---- -- --- ---- -- --------- -- ---- -------<br>-- --------- bright --- ----- ------ ---- --- --------- --<br>------ - ---- -- --- ----------- ------- ---- ----- -----<br>--- -------- - ------ ---- -- ----- ---- --- --- -----------<br>-- -------,1080057.199999988,1080053.900000006,1079806.154,1079810.2999999821,1079822.809,1080072.634,,28,bright
screen,html.Screen,2_3_1_0_1_29,2022-05-03T10:34:32.402Z,,,,,,,,,,,,,,,,,2,,,,,,,,,,,,,,320.36599999992177,,response,,,,1,H,,,,,,Space,keypress(Space),,,,speech,,,,--- ---- ------ --- ------- ---------- ------- ----------<br>--- --------- --- ----------- ------- ----- ------- ---<br>--------- ---- -- --- ---- -- --------- -- ---- -------<br>-- --------- ------ and ----- ------ ---- --- --------- --<br>------ - ---- -- --- ----------- ------- ---- ----- -----<br>--- -------- - ------ ---- -- ----- ---- --- --- -----------<br>-- -------,1080399.199999988,1080393,1080055.979,1080057.599999994,1080072.634,1080405.734,,29,and
screen,html.Screen,2_3_1_0_1_30,2022-05-03T10:34:32.722Z,,,,,,,,,,,,,,,,,2,,,,,,,,,,,,,,307.46599998814054,,response,,,,1,H,,,,,,Space,keypress(Space),,,,speech,,,,--- ---- ------ --- ------- ---------- ------- ----------<br>--- --------- --- ----------- ------- ----- ------- ---<br>--------- ---- -- --- ---- -- --------- -- ---- -------<br>-- --------- ------ --- white ------ ---- --- --------- --<br>------ - ---- -- --- ----------- ------- ---- ----- -----<br>--- -------- - ------ ---- -- ----- ---- --- --- -----------<br>-- -------,1080720,1080713.199999988,1080389.079,1080399.400000006,1080405.734,1080722.179,,30,white
screen,html.Screen,2_3_1_0_1_31,2022-05-03T10:34:33.011Z,,,,,,,,,,,,,,,,,2,,,,,,,,,,,,,,281.72100000595674,,response,,,,1,H,,,,,,Space,keypress(Space),,,,speech,,,,"--- ---- ------ --- ------- ---------- ------- ----------<br>--- --------- --- ----------- ------- ----- ------- ---<br>--------- ---- -- --- ---- -- --------- -- ---- -------<br>-- --------- ------ --- ----- light"" ---- --- --------- --<br>------ - ---- -- --- ----------- ------- ---- ----- -----<br>--- -------- - ------ ---- -- ----- ---- --- --- -----------<br>-- -------",1081008.900000006,1081003.900000006,1080705.524,1080720.199999988,1080722.179,1081021.969,,31,"light"""
screen,html.Screen,2_3_1_0_1_32,2022-05-03T10:34:33.327Z,,,,,,,,,,,,,,,,,2,,,,,,,,,,,,,,295.9310000059195,,response,,,,1,H,,,,,,Space,keypress(Space),,,,speech,,,,--- ---- ------ --- ------- ---------- ------- ----------<br>--- --------- --- ----------- ------- ----- ------- ---<br>--------- ---- -- --- ---- -- --------- -- ---- -------<br>-- --------- ------ --- ----- ------ over --- --------- --<br>------ - ---- -- --- ----------- ------- ---- ----- -----<br>--- -------- - ------ ---- -- ----- ---- --- --- -----------<br>-- -------,1081324.400000006,1081317.900000006,1081005.314,1081009.099999994,1081021.969,1081338.414,,32,over
screen,html.Screen,2_3_1_0_1_33,2022-05-03T10:34:33.607Z,,,,,,,,,,,,,,,,,2,,,,,,,,,,,,,,261.38599998201244,,response,,,,1,H,,,,,,Space,keypress(Space),,,,speech,,,,--- ---- ------ --- ------- ---------- ------- ----------<br>--- --------- --- ----------- ------- ----- ------- ---<br>--------- ---- -- --- ---- -- --------- -- ---- -------<br>-- --------- ------ --- ----- ------ ---- the --------- --<br>------ - ---- -- --- ----------- ------- ---- ----- -----<br>--- -------- - ------ ---- -- ----- ---- --- --- -----------<br>-- -------,1081605.099999994,1081599.7999999821,1081321.759,1081324.599999994,1081338.414,1081621.549,,33,the
screen,html.Screen,2_3_1_0_1_34,2022-05-03T10:34:33.852Z,,,,,,,,,,,,,,,,,2,,,,,,,,,,,,,,223.35100000584498,,response,,,,1,H,,,,,,Space,keypress(Space),,,,speech,,,,--- ---- ------ --- ------- ---------- ------- ----------<br>--- --------- --- ----------- ------- ----- ------- ---<br>--------- ---- -- --- ---- -- --------- -- ---- -------<br>-- --------- ------ --- ----- ------ ---- --- sunspots. --<br>------ - ---- -- --- ----------- ------- ---- ----- -----<br>--- -------- - ------ ---- -- ----- ---- --- --- -----------<br>-- -------,1081849.599999994,1081844.900000006,1081604.894,1081605.2999999821,1081621.549,1081854.719,,34,sunspots.
screen,html.Screen,2_3_1_0_1_35,2022-05-03T10:34:34.320Z,,,,,,,,,,,,,,,,,2,,,,,,,,,,,,,,456.38099999399856,,response,,,,1,H,,,,,,Space,keypress(Space),,,,speech,,,,--- ---- ------ --- ------- ---------- ------- ----------<br>--- --------- --- ----------- ------- ----- ------- ---<br>--------- ---- -- --- ---- -- --------- -- ---- -------<br>-- --------- ------ --- ----- ------ ---- --- --------- He<br>------ - ---- -- --- ----------- ------- ---- ----- -----<br>--- -------- - ------ ---- -- ----- ---- --- --- -----------<br>-- -------,1082317.7999999821,1082311.099999994,1081838.064,1081849.699999988,1081854.719,1082321.059,,35,He
screen,html.Screen,2_3_1_0_1_36,2022-05-03T10:34:34.607Z,,,,,,,,,,,,,,,,,2,,,,,,,,,,,,,,277.6409999881871,,response,,,,1,H,,,,,,Space,keypress(Space),,,,speech,,,,--- ---- ------ --- ------- ---------- ------- ----------<br>--- --------- --- ----------- ------- ----- ------- ---<br>--------- ---- -- --- ---- -- --------- -- ---- -------<br>-- --------- ------ --- ----- ------ ---- --- --------- --<br>jotted - ---- -- --- ----------- ------- ---- ----- -----<br>--- -------- - ------ ---- -- ----- ---- --- --- -----------<br>-- -------,1082605,1082598.699999988,1082304.404,1082318.199999988,1082321.059,1082620.849,,36,jotted
screen,html.Screen,2_3_1_0_1_37,2022-05-03T10:34:34.882Z,,,,,,,,,,,,,,,,,2,,,,,,,,,,,,,,253.15100000007078,,response,,,,1,H,,,,,,Space,keypress(Space),,,,speech,,,,--- ---- ------ --- ------- ---------- ------- ----------<br>--- --------- --- ----------- ------- ----- ------- ---<br>--------- ---- -- --- ---- -- --------- -- ---- -------<br>-- --------- ------ --- ----- ------ ---- --- --------- --<br>------ a ---- -- --- ----------- ------- ---- ----- -----<br>--- -------- - ------ ---- -- ----- ---- --- --- -----------<br>-- -------,1082879.900000006,1082874,1082604.194,1082605.5,1082620.849,1082887.329,,37,a
