sender,sender_type,sender_id,timestamp,meta,,Blues,Classical,Country,Dance,Electronic,Folk,Gospel,Hip-Hop,Jazz,Latin,Musical/Film,New-age,Pop,Prolific_id,Provo_ID,R&B,Rap,Reggae,Religious,Rock,Soul,Swing,Traditional,age,artist_name,correct,correctResponse,distraction,duration,education,ended_on,familiarity,gender,headphone_check_performance,item,list,music_frequency,offensiveness,pleasantness,position_correct,preference,response,response_action,snippet_file,song_name,song_rating,sound,stimulus_1,stimulus_2,stimulus_3,text,time_commit,time_end,time_render,time_run,time_show,time_switch,url,word,word_ID
Prolific ID,html.Form,0,2022-05-09T12:35:56.069Z,"{""labjs_version"":""20.2.2"",""labjs_build"":{""flavor"":""production"",""commit"":""a25486e0c714a0ae2ce03ff94b7bb6896854dcfa""},""location"":""https://run.pavlovia.org/mvasilev/prolific3_music_f/"",""userAgent"":""Mozilla/5.0 (Windows NT 10.0; Win64; x64) AppleWebKit/537.36 (KHTML, like Gecko) Chrome/101.0.4951.54 Safari/537.36"",""platform"":""Win32"",""language"":""en-GB"",""locale"":""en-GB"",""timeZone"":""Europe/London"",""timezoneOffset"":-60,""screen_width"":1366,""screen_height"":768,""scroll_width"":1366,""scroll_height"":609,""window_innerWidth"":1366,""window_innerHeight"":657,""devicePixelRatio"":1}",,,,,,,,,,,,,,,5e580bcf4782bd01723249e2,,,,,,,,,,,,,,,5601.7360000238405,,form submission,,,,,,,,,,,,,,,,,,,,,24996.299999952316,24995.600000023842,19360.509,19362.600000023842,19393.864,25017.226,{},,
Introduction,html.Screen,1_0,2022-05-09T12:36:00.419Z,,,,,,,,,,,,,,,,,,,,,,,,,,,,,,,4325.774000000001,,response,,,,,,,,,,,continue,click button,,,,,,,,,29345.899999976158,29343,24977.444,24996.699999928474,25017.226,29381.086,,,
Volume calibration,html.Screen,1_1,2022-05-09T12:36:33.328Z,,,,,,,,,,,,,,,,,,,,,,,,,,,,,,,32871.31399997616,,response,,,,,,,,,,,continue,click button,,,,,,,,,62255.699999928474,62252.39999997616,29327.712,29346.100000023842,29381.086,62262.204,,,
Task instructions,html.Screen,1_2,2022-05-09T12:36:44.821Z,,,,,,,,,,,,,,,,,,,,,,,,,,,,,,,11484.995999928477,,response,,,,,,,,,,,continue,click button,,,,,,,,,73748.19999992847,73747.19999992847,62245.736,62255.799999952316,62262.204,73762.65,,,
Sounds,html.Screen,1_3_0_0,2022-05-09T12:36:49.075Z,,,,,,,,,,,,,,,,,,,,,,,,,,,,,,,4250.209000000003,,timeout,,,,,,,,,3,,,,,,,,I,O,S,,78002,77996.366,73746.043,73748.39999997616,73762.65,78012.859,,,
Judgement,html.Screen,1_3_0_1,2022-05-09T12:36:50.530Z,,,,,,,,,,,,,,,,,,,,,,,,,,,,true,3,,1443.7410000238451,,response,,,,,,,,,3,,3,click #choice-3,,,,,I,O,S,,79457.39999997616,79456.60000002384,77996.366,78002.39999997616,78012.859,79462.882,,,
Trial,flow.Sequence,1_3_0,2022-05-09T12:36:50.530Z,,,,,,,,,,,,,,,,,,,,,,,,,,,,,,,5693.950000023848,,completion,,,,,,,,,3,,,,,,,,I,O,S,,79457.60000002384,79456.60000002384,73746.043,73748.29999995232,73762.65,79462.882,,,
Sounds,html.Screen,1_3_1_0,2022-05-09T12:36:54.770Z,,,,,,,,,,,,,,,,,,,,,,,,,,,,,,,4250.388999999996,,timeout,,,,,,,,,2,,,,,,,,I,S,O,,83697.79999995232,83696.541,79446.451,79461.69999992847,79462.882,83713.271,,,
Judgement,html.Screen,1_3_1_1,2022-05-09T12:36:55.640Z,,,,,,,,,,,,,,,,,,,,,,,,,,,,true,2,,853.0289999523229,,response,,,,,,,,,2,,2,click #choice-2,,,,,I,S,O,,84567.5,84566.29999995232,83696.541,83698.10000002384,83713.271,84579.755,,,
Trial,flow.Sequence,1_3_1,2022-05-09T12:36:55.641Z,,,,,,,,,,,,,,,,,,,,,,,,,,,,,,,5103.4179999523185,,completion,,,,,,,,,2,,,,,,,,I,S,O,,84568,84566.29999995232,79446.451,79457.69999992847,79462.882,84579.755,,,
Sounds,html.Screen,1_3_2_0,2022-05-09T12:36:59.887Z,,,,,,,,,,,,,,,,,,,,,,,,,,,,,,,4250.347999999998,,timeout,,,,,,,,,2,,,,,,,,O,S,I,,88814.69999992847,88813.451,84563.437,84568.19999992847,84579.755,88830.103,,,
Judgement,html.Screen,1_3_2_1,2022-05-09T12:37:00.829Z,,,,,,,,,,,,,,,,,,,,,,,,,,,,true,2,,925.0969999284716,,response,,,,,,,,,2,,2,click #choice-2,,,,,O,S,I,,89756.10000002384,89755.19999992847,88813.451,88814.89999997616,88830.103,89763.374,,,
Trial,flow.Sequence,1_3_2,2022-05-09T12:37:00.829Z,,,,,,,,,,,,,,,,,,,,,,,,,,,,,,,5175.44499992847,,completion,,,,,,,,,2,,,,,,,,O,S,I,,89756.19999992847,89755.19999992847,84563.437,84568.19999992847,84579.755,89763.374,,,
Sounds,html.Screen,1_3_3_0,2022-05-09T12:37:05.071Z,,,,,,,,,,,,,,,,,,,,,,,,,,,,,,,4250.124000000011,,timeout,,,,,,,,,3,,,,,,,,O,I,S,,93998.10000002384,93996.884,89746.683,89756.29999995232,89763.374,94013.498,,,
Judgement,html.Screen,1_3_3_1,2022-05-09T12:37:05.761Z,,,,,,,,,,,,,,,,,,,,,,,,,,,,true,3,,673.9019999761513,,response,,,,,,,,,3,,3,click #choice-3,,,,,O,I,S,,94688.19999992847,94687.39999997616,93996.884,93998.39999997616,94013.498,94696.834,,,
Trial,flow.Sequence,1_3_3,2022-05-09T12:37:05.761Z,,,,,,,,,,,,,,,,,,,,,,,,,,,,,,,4924.025999976162,,completion,,,,,,,,,3,,,,,,,,O,I,S,,94688.39999997616,94687.39999997616,89746.683,89756.29999995232,89763.374,94696.834,,,
Sounds,html.Screen,1_3_4_0,2022-05-09T12:37:10.004Z,,,,,,,,,,,,,,,,,,,,,,,,,,,,,,,4250.292000000001,,timeout,,,,,,,,,1,,,,,,,,S,I,O,,98931.5,98930.413,94680.443,94688.5,94696.834,98947.126,,,
Judgement,html.Screen,1_3_4_1,2022-05-09T12:37:10.600Z,,,,,,,,,,,,,,,,,,,,,,,,,,,,false,1,,579.3739999999962,,response,,,,,,,,,1,,3,click #choice-3,,,,,S,I,O,,99527.39999997616,99526.5,98930.413,98931.79999995232,98947.126,99530.336,,,
Trial,flow.Sequence,1_3_4,2022-05-09T12:37:10.600Z,,,,,,,,,,,,,,,,,,,,,,,,,,,,,,,4829.665999999997,,completion,,,,,,,,,1,,,,,,,,S,I,O,,99527.69999992847,99526.5,94680.443,94688.5,94696.834,99530.336,,,
Sounds,html.Screen,1_3_5_0,2022-05-09T12:37:14.838Z,,,,,,,,,,,,,,,,,,,,,,,,,,,,,,,4250.215000000011,,timeout,,,,,,,,,1,,,,,,,,S,O,I,,103765.10000002384,103763.941,99513.698,99527.89999997616,99530.336,103780.551,,,
Judgement,html.Screen,1_3_5_1,2022-05-09T12:37:15.641Z,,,,,,,,,,,,,,,,,,,,,,,,,,,,true,1,,786.3489999761514,,response,,,,,,,,,1,,1,click #choice-1,,,,,S,O,I,,104568,104566.89999997616,103763.941,103765.29999995232,103780.551,104580.554,,,
Trial,flow.Sequence,1_3_5,2022-05-09T12:37:15.641Z,,,,,,,,,,,,,,,,,,,,,,,,,,,,,,,5036.563999976162,,completion,,,,,,,,,1,,,,,,,,S,O,I,,104568.19999992847,104566.89999997616,99513.698,99527.79999995232,99530.336,104580.554,,,
Task,flow.Loop,1_3,2022-05-09T12:37:15.645Z,,,,,,,,,,,,,,,,,,,,,,,,,,,,,,,30804.249999976164,,completion,,,0.8333333333333334,,,,,,,,,,,,,,,,,,104572.79999995232,104566.89999997616,73746.043,73748.19999992847,73762.65,104580.554,,,
Trap,html.Screen,1_4,2022-05-09T12:37:15.667Z,,,,,,,,,,,,,,,,,,,,,,,,,,,,,,,NaN,,skipped,,,,,,,,,,,,,,,,,,,,,104594.5,104566.89999997616,,104594.39999997616,,104580.554,,,
Thanks,html.Screen,1_5,2022-05-09T12:37:19.151Z,,,,,,,,,,,,,,,,,,,,,,,,,,,,,,,3497.046000023838,,response,,,,,,,,,,,continue,click button,,,,,,,,,108078.5,108077.60000002384,104563.987,104594.60000002384,104580.554,113997.72,,,
Headphone screening,flow.Sequence,1,2022-05-09T12:37:19.151Z,,,,,,,,,,,,,,,,,,,,,,,,,,,,,,,83060.37400002385,,completion,,,,,,,,,,,,,,,,,,,,,108078.60000002384,108077.60000002384,24977.444,24996.699999928474,25017.226,113997.72,,,
Instructions,html.Page,2_0,2022-05-09T12:38:17.453Z,,,,,,,,,,,,,,,,,,,,,,,,,,,,,,,52382.78,,form submission,,,,,,,,,,,,,,,,,,,,,166380.69999992847,166380.5,113981.263,113995.39999997616,113997.72,166383.031,,,
Holding screen,html.Screen,2_1_0_0,2022-05-09T12:38:27.440Z,,,,,,,,,,,,,,,,,,,,,,,,,,,,,,,10017.038,,timeout,,,,,,,,,,,,,,,,,,,,,176368,176366.95,166366.317,166380.89999997616,166383.031,176400.069,,,
screen,html.Screen,2_1_0_1_0,2022-05-09T12:38:28.454Z,,,,,,,,,,,,,,,,,53,,,,,,,,,,,,,,975.9310000000114,,response,,,,99,,,,,,,Space,keypress(Space),,,,,,,,When -- ----- -- ------ - ------- --- ----------<br>------------- ------ ------ ---- ---- ------- ----- -- ----<br>-------- ------- -- ---------- --- - --- ----- ----- ----<br>---- --- --- ----- --- ---- ---- ------- ----- ---- -------<br>--- --- -- ----- -- --- ---- -- --- ---- -- ------ ------<br>--- ----- -- ----,177382,177376,176366.95,176368.5,176400.069,177383.505,,0,When
screen,html.Screen,2_1_0_1_1,2022-05-09T12:38:29.350Z,,,,,,,,,,,,,,,,,53,,,,,,,,,,,,,,893.2949999523116,,response,,,,99,,,,,,,Space,keypress(Space),,,,,,,,---- it ----- -- ------ - ------- --- ----------<br>------------- ------ ------ ---- ---- ------- ----- -- ----<br>-------- ------- -- ---------- --- - --- ----- ----- ----<br>---- --- --- ----- --- ---- ---- ------- ----- ---- -------<br>--- --- -- ----- -- --- ---- -- --- ---- -- ------ ------<br>--- ----- -- ----,178277.89999997616,178276.79999995232,177366.855,177382.10000002384,177383.505,178283.516,,1,it
screen,html.Screen,2_1_0_1_2,2022-05-09T12:38:29.840Z,,,,,,,,,,,,,,,,,53,,,,,,,,,,,,,,483.0840000238386,,response,,,,99,,,,,,,Space,keypress(Space),,,,,,,,---- -- comes -- ------ - ------- --- ----------<br>------------- ------ ------ ---- ---- ------- ----- -- ----<br>-------- ------- -- ---------- --- - --- ----- ----- ----<br>---- --- --- ----- --- ---- ---- ------- ----- ---- -------<br>--- --- -- ----- -- --- ---- -- --- ---- -- ------ ------<br>--- ----- -- ----,178767.79999995232,178766.60000002384,178267.001,178278.19999992847,178283.516,178783.702,,2,comes
screen,html.Screen,2_1_0_1_3,2022-05-09T12:38:30.187Z,,,,,,,,,,,,,,,,,53,,,,,,,,,,,,,,329.1979999761679,,response,,,,99,,,,,,,Space,keypress(Space),,,,,,,,---- -- ----- to ------ - ------- --- ----------<br>------------- ------ ------ ---- ---- ------- ----- -- ----<br>-------- ------- -- ---------- --- - --- ----- ----- ----<br>---- --- --- ----- --- ---- ---- ------- ----- ---- -------<br>--- --- -- ----- -- --- ---- -- --- ---- -- ------ ------<br>--- ----- -- ----,179114.10000002384,179112.89999997616,178767.041,178768,178783.702,179116.873,,3,to
screen,html.Screen,2_1_0_1_4,2022-05-09T12:38:30.517Z,,,,,,,,,,,,,,,,,53,,,,,,,,,,,,,,326.3269999284821,,response,,,,99,,,,,,,Space,keypress(Space),,,,,,,,---- -- ----- -- having - ------- --- ----------<br>------------- ------ ------ ---- ---- ------- ----- -- ----<br>-------- ------- -- ---------- --- - --- ----- ----- ----<br>---- --- --- ----- --- ---- ---- ------- ----- ---- -------<br>--- --- -- ----- -- --- ---- -- --- ---- -- ------ ------<br>--- ----- -- ----,179444.39999997616,179443.19999992847,179100.3,179114.39999997616,179116.873,179450.227,,4,having
screen,html.Screen,2_1_0_1_5,2022-05-09T12:38:30.953Z,,,,,,,,,,,,,,,,,53,,,,,,,,,,,,,,429.0729999523028,,response,,,,99,,,,,,,Space,keypress(Space),,,,,,,,---- -- ----- -- ------ a ------- --- ----------<br>------------- ------ ------ ---- ---- ------- ----- -- ----<br>-------- ------- -- ---------- --- - --- ----- ----- ----<br>---- --- --- ----- --- ---- ---- ------- ----- ---- -------<br>--- --- -- ----- -- --- ---- -- --- ---- -- ------ ------<br>--- ----- -- ----,179880.29999995232,179879.29999995232,179433.668,179444.60000002384,179450.227,179883.604,,5,a
screen,html.Screen,2_1_0_1_6,2022-05-09T12:38:31.281Z,,,,,,,,,,,,,,,,,53,,,,,,,,,,,,,,323.4960000238498,,response,,,,99,,,,,,,Space,keypress(Space),,,,,,,,---- -- ----- -- ------ - lasting --- ----------<br>------------- ------ ------ ---- ---- ------- ----- -- ----<br>-------- ------- -- ---------- --- - --- ----- ----- ----<br>---- --- --- ----- --- ---- ---- ------- ----- ---- -------<br>--- --- -- ----- -- --- ---- -- --- ---- -- ------ ------<br>--- ----- -- ----,180208.10000002384,180207.10000002384,179867.027,179880.5,179883.604,180216.863,,6,lasting
screen,html.Screen,2_1_0_1_7,2022-05-09T12:38:31.744Z,,,,,,,,,,,,,,,,,53,,,,,,,,,,,,,,454.03699997614603,,response,,,,99,,,,,,,Space,keypress(Space),,,,,,,,---- -- ----- -- ------ - ------- and ----------<br>------------- ------ ------ ---- ---- ------- ----- -- ----<br>-------- ------- -- ---------- --- - --- ----- ----- ----<br>---- --- --- ----- --- ---- ---- ------- ----- ---- -------<br>--- --- -- ----- -- --- ---- -- --- ---- -- ------ ------<br>--- ----- -- ----,180672,180670.89999997616,180200.404,180208.29999995232,180216.863,180683.744,,7,and
screen,html.Screen,2_1_0_1_8,2022-05-09T12:38:32.027Z,,,,,,,,,,,,,,,,,53,,,,,,,,,,,,,,270.1559999761521,,response,,,,99,,,,,,,Space,keypress(Space),,,,,,,,---- -- ----- -- ------ - ------- --- fulfilling<br>------------- ------ ------ ---- ---- ------- ----- -- ----<br>-------- ------- -- ---------- --- - --- ----- ----- ----<br>---- --- --- ----- --- ---- ---- ------- ----- ---- -------<br>--- --- -- ----- -- --- ---- -- --- ---- -- ------ ------<br>--- ----- -- ----,180955,180953.89999997616,180667.038,180672.19999992847,180683.744,180967.085,,8,fulfilling
screen,html.Screen,2_1_0_1_9,2022-05-09T12:38:32.593Z,,,,,,,,,,,,,,,,,53,,,,,,,,,,,,,,551.9150000000081,,response,,,,99,,,,,,,Space,keypress(Space),,,,,,,,"---- -- ----- -- ------ - ------- --- ----------<br>relationship, ------ ------ ---- ---- ------- ----- -- ----<br>-------- ------- -- ---------- --- - --- ----- ----- ----<br>---- --- --- ----- --- ---- ---- ------- ----- ---- -------<br>--- --- -- ----- -- --- ---- -- --- ---- -- ------ ------<br>--- ----- -- ----",181520.10000002384,181519,180950.338,180955.19999992847,180967.085,181533.804,,9,"relationship,"
screen,html.Screen,2_1_0_1_10,2022-05-09T12:38:32.979Z,,,,,,,,,,,,,,,,,53,,,,,,,,,,,,,,370.6959999999963,,response,,,,99,,,,,,,Space,keypress(Space),,,,,,,,---- -- ----- -- ------ - ------- --- ----------<br>------------- common ------ ---- ---- ------- ----- -- ----<br>-------- ------- -- ---------- --- - --- ----- ----- ----<br>---- --- --- ----- --- ---- ---- ------- ----- ---- -------<br>--- --- -- ----- -- --- ---- -- --- ---- -- ------ ------<br>--- ----- -- ----,181906,181904.5,181517.135,181520.39999997616,181533.804,181917.109,,10,common
screen,html.Screen,2_1_0_1_11,2022-05-09T12:38:33.262Z,,,,,,,,,,,,,,,,,53,,,,,,,,,,,,,,270.89100000000326,,response,,,,99,,,,,,,Space,keypress(Space),,,,,,,,---- -- ----- -- ------ - ------- --- ----------<br>------------- ------ wisdom ---- ---- ------- ----- -- ----<br>-------- ------- -- ---------- --- - --- ----- ----- ----<br>---- --- --- ----- --- ---- ---- ------- ----- ---- -------<br>--- --- -- ----- -- --- ---- -- --- ---- -- ------ ------<br>--- ----- -- ----,182189.60000002384,182188,181900.393,181906.29999995232,181917.109,182200.436,,11,wisdom
screen,html.Screen,2_1_0_1_12,2022-05-09T12:38:33.624Z,,,,,,,,,,,,,,,,,53,,,,,,,,,,,,,,350.26399992848746,,response,,,,99,,,,,,,Space,keypress(Space),,,,,,,,---- -- ----- -- ------ - ------- --- ----------<br>------------- ------ ------ says ---- ------- ----- -- ----<br>-------- ------- -- ---------- --- - --- ----- ----- ----<br>---- --- --- ----- --- ---- ---- ------- ----- ---- -------<br>--- --- -- ----- -- --- ---- -- --- ---- -- ------ ------<br>--- ----- -- ----,182551.79999995232,182550.69999992847,182183.749,182189.79999995232,182200.436,182567.156,,12,says
screen,html.Screen,2_1_0_1_13,2022-05-09T12:38:34.047Z,,,,,,,,,,,,,,,,,53,,,,,,,,,,,,,,406.0439999284863,,response,,,,99,,,,,,,Space,keypress(Space),,,,,,,,---- -- ----- -- ------ - ------- --- ----------<br>------------- ------ ------ ---- that ------- ----- -- ----<br>-------- ------- -- ---------- --- - --- ----- ----- ----<br>---- --- --- ----- --- ---- ---- ------- ----- ---- -------<br>--- --- -- ----- -- --- ---- -- --- ---- -- ------ ------<br>--- ----- -- ----,182974.19999992847,182973.19999992847,182550.406,182552.19999992847,182567.156,182983.803,,13,that
screen,html.Screen,2_1_0_1_14,2022-05-09T12:38:34.324Z,,,,,,,,,,,,,,,,,53,,,,,,,,,,,,,,266.0969999761437,,response,,,,99,,,,,,,Space,keypress(Space),,,,,,,,---- -- ----- -- ------ - ------- --- ----------<br>------------- ------ ------ ---- ---- feeling ----- -- ----<br>-------- ------- -- ---------- --- - --- ----- ----- ----<br>---- --- --- ----- --- ---- ---- ------- ----- ---- -------<br>--- --- -- ----- -- --- ---- -- --- ---- -- ------ ------<br>--- ----- -- ----,183251.10000002384,183249.89999997616,182967.153,182974.29999995232,182983.803,183267.079,,14,feeling
screen,html.Screen,2_1_0_1_15,2022-05-09T12:38:34.665Z,,,,,,,,,,,,,,,,,53,,,,,,,,,,,,,,323.9210000000021,,response,,,,99,,,,,,,Space,keypress(Space),,,,,,,,---- -- ----- -- ------ - ------- --- ----------<br>------------- ------ ------ ---- ---- ------- close -- ----<br>-------- ------- -- ---------- --- - --- ----- ----- ----<br>---- --- --- ----- --- ---- ---- ------- ----- ---- -------<br>--- --- -- ----- -- --- ---- -- --- ---- -- ------ ------<br>--- ----- -- ----,183592.10000002384,183591,183250.564,183251.29999995232,183267.079,183600.383,,15,close
screen,html.Screen,2_1_0_1_16,2022-05-09T12:38:35.003Z,,,,,,,,,,,,,,,,,53,,,,,,,,,,,,,,328.61699999999837,,response,,,,99,,,,,,,Space,keypress(Space),,,,,,,,---- -- ----- -- ------ - ------- --- ----------<br>------------- ------ ------ ---- ---- ------- ----- to ----<br>-------- ------- -- ---------- --- - --- ----- ----- ----<br>---- --- --- ----- --- ---- ---- ------- ----- ---- -------<br>--- --- -- ----- -- --- ---- -- --- ---- -- ------ ------<br>--- ----- -- ----,183930.10000002384,183929,183583.833,183592.5,183600.383,183933.947,,16,to
screen,html.Screen,2_1_0_1_17,2022-05-09T12:38:35.329Z,,,,,,,,,,,,,,,,,53,,,,,,,,,,,,,,320.9529999761726,,response,,,,99,,,,,,,Space,keypress(Space),,,,,,,,---- -- ----- -- ------ - ------- --- ----------<br>------------- ------ ------ ---- ---- ------- ----- -- your<br>-------- ------- -- ---------- --- - --- ----- ----- ----<br>---- --- --- ----- --- ---- ---- ------- ----- ---- -------<br>--- --- -- ----- -- --- ---- -- --- ---- -- ------ ------<br>--- ----- -- ----,184256.10000002384,184254.89999997616,183917.153,183930.39999997616,183933.947,184267.209,,17,your
screen,html.Screen,2_1_0_1_18,2022-05-09T12:38:35.797Z,,,,,,,,,,,,,,,,,53,,,,,,,,,,,,,,455.6909999761556,,response,,,,99,,,,,,,Space,keypress(Space),,,,,,,,---- -- ----- -- ------ - ------- --- ----------<br>------------- ------ ------ ---- ---- ------- ----- -- ----<br>romantic ------- -- ---------- --- - --- ----- ----- ----<br>---- --- --- ----- --- ---- ---- ------- ----- ---- -------<br>--- --- -- ----- -- --- ---- -- --- ---- -- ------ ------<br>--- ----- -- ----,184724.19999992847,184722.89999997616,184250.518,184256.29999995232,184267.209,184733.892,,18,romantic
screen,html.Screen,2_1_0_1_19,2022-05-09T12:38:36.297Z,,,,,,,,,,,,,,,,,53,,,,,,,,,,,,,,488.7080000238493,,response,,,,99,,,,,,,Space,keypress(Space),,,,,,,,---- -- ----- -- ------ - ------- --- ----------<br>------------- ------ ------ ---- ---- ------- ----- -- ----<br>-------- partner -- ---------- --- - --- ----- ----- ----<br>---- --- --- ----- --- ---- ---- ------- ----- ---- -------<br>--- --- -- ----- -- --- ---- -- --- ---- -- ------ ------<br>--- ----- -- ----,185224.29999995232,185222.60000002384,184717.076,184724.39999997616,184733.892,185233.909,,19,partner
screen,html.Screen,2_1_0_1_20,2022-05-09T12:38:36.607Z,,,,,,,,,,,,,,,,,53,,,,,,,,,,,,,,299.19100002382766,,response,,,,99,,,,,,,Space,keypress(Space),,,,,,,,---- -- ----- -- ------ - ------- --- ----------<br>------------- ------ ------ ---- ---- ------- ----- -- ----<br>-------- ------- is ---------- --- - --- ----- ----- ----<br>---- --- --- ----- --- ---- ---- ------- ----- ---- -------<br>--- --- -- ----- -- --- ---- -- --- ---- -- ------ ------<br>--- ----- -- ----,185534.29999995232,185533.10000002384,185217.285,185224.60000002384,185233.909,185550.582,,20,is
screen,html.Screen,2_1_0_1_21,2022-05-09T12:38:36.934Z,,,,,,,,,,,,,,,,,53,,,,,,,,,,,,,,310.7179999523214,,response,,,,99,,,,,,,Space,keypress(Space),,,,,,,,---- -- ----- -- ------ - ------- --- ----------<br>------------- ------ ------ ---- ---- ------- ----- -- ----<br>-------- ------- -- paramount. --- - --- ----- ----- ----<br>---- --- --- ----- --- ---- ---- ------- ----- ---- -------<br>--- --- -- ----- -- --- ---- -- --- ---- -- ------ ------<br>--- ----- -- ----,185862,185861.29999995232,185533.858,185534.5,185550.582,185867.143,,21,paramount.
screen,html.Screen,2_1_0_1_22,2022-05-09T12:38:37.436Z,,,,,,,,,,,,,,,,,53,,,,,,,,,,,,,,495.35699999998906,,response,,,,99,,,,,,,Space,keypress(Space),,,,,,,,---- -- ----- -- ------ - ------- --- ----------<br>------------- ------ ------ ---- ---- ------- ----- -- ----<br>-------- ------- -- ---------- But - --- ----- ----- ----<br>---- --- --- ----- --- ---- ---- ------- ----- ---- -------<br>--- --- -- ----- -- --- ---- -- --- ---- -- ------ ------<br>--- ----- -- ----,186363.79999995232,186362.5,185850.452,185862,185867.143,186367.166,,22,But
screen,html.Screen,2_1_0_1_23,2022-05-09T12:38:37.678Z,,,,,,,,,,,,,,,,,53,,,,,,,,,,,,,,237.63399995231885,,response,,,,99,,,,,,,Space,keypress(Space),,,,,,,,---- -- ----- -- ------ - ------- --- ----------<br>------------- ------ ------ ---- ---- ------- ----- -- ----<br>-------- ------- -- ---------- --- a --- ----- ----- ----<br>---- --- --- ----- --- ---- ---- ------- ----- ---- -------<br>--- --- -- ----- -- --- ---- -- --- ---- -- ------ ------<br>--- ----- -- ----,186606,186604.79999995232,186350.58,186363.89999997616,186367.166,186617.248,,23,a
screen,html.Screen,2_1_0_1_24,2022-05-09T12:38:37.941Z,,,,,,,,,,,,,,,,,53,,,,,,,,,,,,,,249.55199995232397,,response,,,,99,,,,,,,Space,keypress(Space),,,,,,,,---- -- ----- -- ------ - ------- --- ----------<br>------------- ------ ------ ---- ---- ------- ----- -- ----<br>-------- ------- -- ---------- --- - new ----- ----- ----<br>---- --- --- ----- --- ---- ---- ------- ----- ---- -------<br>--- --- -- ----- -- --- ---- -- --- ---- -- ------ ------<br>--- ----- -- ----,186868.60000002384,186866.79999995232,186600.608,186606.19999992847,186617.248,186883.946,,24,new
screen,html.Screen,2_1_0_1_25,2022-05-09T12:38:38.229Z,,,,,,,,,,,,,,,,,53,,,,,,,,,,,,,,271.1540000238456,,response,,,,99,,,,,,,Space,keypress(Space),,,,,,,,---- -- ----- -- ------ - ------- --- ----------<br>------------- ------ ------ ---- ---- ------- ----- -- ----<br>-------- ------- -- ---------- --- - --- study ----- ----<br>---- --- --- ----- --- ---- ---- ------- ----- ---- -------<br>--- --- -- ----- -- --- ---- -- --- ---- -- ------ ------<br>--- ----- -- ----,187156.19999992847,187155.10000002384,186867.298,186868.89999997616,186883.946,187167.233,,25,study
screen,html.Screen,2_1_0_1_26,2022-05-09T12:38:38.559Z,,,,,,,,,,,,,,,,,53,,,,,,,,,,,,,,318.466999928467,,response,,,,99,,,,,,,Space,keypress(Space),,,,,,,,---- -- ----- -- ------ - ------- --- ----------<br>------------- ------ ------ ---- ---- ------- ----- -- ----<br>-------- ------- -- ---------- --- - --- ----- finds ----<br>---- --- --- ----- --- ---- ---- ------- ----- ---- -------<br>--- --- -- ----- -- --- ---- -- --- ---- -- ------ ------<br>--- ----- -- ----,187486.89999997616,187485.69999992847,187150.667,187156.5,187167.233,187500.667,,26,finds
screen,html.Screen,2_1_0_1_27,2022-05-09T12:38:38.891Z,,,,,,,,,,,,,,,,,53,,,,,,,,,,,,,,316.63299995232956,,response,,,,99,,,,,,,Space,keypress(Space),,,,,,,,---- -- ----- -- ------ - ------- --- ----------<br>------------- ------ ------ ---- ---- ------- ----- -- ----<br>-------- ------- -- ---------- --- - --- ----- ----- that<br>---- --- --- ----- --- ---- ---- ------- ----- ---- -------<br>--- --- -- ----- -- --- ---- -- --- ---- -- ------ ------<br>--- ----- -- ----,187818.39999997616,187817.29999995232,187483.863,187487.10000002384,187500.667,187833.989,,27,that
screen,html.Screen,2_1_0_1_28,2022-05-09T12:38:39.206Z,,,,,,,,,,,,,,,,,53,,,,,,,,,,,,,,298.91099997615675,,response,,,,99,,,,,,,Space,keypress(Space),,,,,,,,---- -- ----- -- ------ - ------- --- ----------<br>------------- ------ ------ ---- ---- ------- ----- -- ----<br>-------- ------- -- ---------- --- - --- ----- ----- ----<br>it's --- --- ----- --- ---- ---- ------- ----- ---- -------<br>--- --- -- ----- -- --- ---- -- --- ---- -- ------ ------<br>--- ----- -- ----,188133.5,188132.89999997616,187817.319,187818.69999992847,187833.989,188150.526,,28,it's
screen,html.Screen,2_1_0_1_29,2022-05-09T12:38:39.466Z,,,,,,,,,,,,,,,,,53,,,,,,,,,,,,,,241.97399999998743,,response,,,,99,,,,,,,Space,keypress(Space),,,,,,,,---- -- ----- -- ------ - ------- --- ----------<br>------------- ------ ------ ---- ---- ------- ----- -- ----<br>-------- ------- -- ---------- --- - --- ----- ----- ----<br>---- not --- ----- --- ---- ---- ------- ----- ---- -------<br>--- --- -- ----- -- --- ---- -- --- ---- -- ------ ------<br>--- ----- -- ----,188393.69999992847,188392.5,188133.916,188133.60000002384,188150.526,188400.601,,29,not
screen,html.Screen,2_1_0_1_30,2022-05-09T12:38:39.831Z,,,,,,,,,,,,,,,,,53,,,,,,,,,,,,,,356.6989999523212,,response,,,,99,,,,,,,Space,keypress(Space),,,,,,,,---- -- ----- -- ------ - ------- --- ----------<br>------------- ------ ------ ---- ---- ------- ----- -- ----<br>-------- ------- -- ---------- --- - --- ----- ----- ----<br>---- --- how ----- --- ---- ---- ------- ----- ---- -------<br>--- --- -- ----- -- --- ---- -- --- ---- -- ------ ------<br>--- ----- -- ----,188758.5,188757.29999995232,188383.849,188394,188400.601,188767.406,,30,how
screen,html.Screen,2_1_0_1_31,2022-05-09T12:38:40.124Z,,,,,,,,,,,,,,,,,53,,,,,,,,,,,,,,283.2939999284863,,response,,,,99,,,,,,,Space,keypress(Space),,,,,,,,---- -- ----- -- ------ - ------- --- ----------<br>------------- ------ ------ ---- ---- ------- ----- -- ----<br>-------- ------- -- ---------- --- - --- ----- ----- ----<br>---- --- --- close --- ---- ---- ------- ----- ---- -------<br>--- --- -- ----- -- --- ---- -- --- ---- -- ------ ------<br>--- ----- -- ----,189051.89999997616,189050.69999992847,188750.738,188758.69999992847,188767.406,189067.454,,31,close
screen,html.Screen,2_1_0_1_32,2022-05-09T12:38:40.402Z,,,,,,,,,,,,,,,,,53,,,,,,,,,,,,,,261.2459999284765,,response,,,,99,,,,,,,Space,keypress(Space),,,,,,,,---- -- ----- -- ------ - ------- --- ----------<br>------------- ------ ------ ---- ---- ------- ----- -- ----<br>-------- ------- -- ---------- --- - --- ----- ----- ----<br>---- --- --- ----- you ---- ---- ------- ----- ---- -------<br>--- --- -- ----- -- --- ---- -- --- ---- -- ------ ------<br>--- ----- -- ----,189329.89999997616,189328.69999992847,189050.683,189052,189067.454,189333.931,,32,you
screen,html.Screen,2_1_0_1_33,2022-05-09T12:38:40.725Z,,,,,,,,,,,,,,,,,53,,,,,,,,,,,,,,315.268999928463,,response,,,,99,,,,,,,Space,keypress(Space),,,,,,,,---- -- ----- -- ------ - ------- --- ----------<br>------------- ------ ------ ---- ---- ------- ----- -- ----<br>-------- ------- -- ---------- --- - --- ----- ----- ----<br>---- --- --- ----- --- feel ---- ------- ----- ---- -------<br>--- --- -- ----- -- --- ---- -- --- ---- -- ------ ------<br>--- ----- -- ----,189652.89999997616,189649.19999992847,189317.335,189330.10000002384,189333.931,189667.374,,33,feel
screen,html.Screen,2_1_0_1_34,2022-05-09T12:38:41.005Z,,,,,,,,,,,,,,,,,53,,,,,,,,,,,,,,263.72600002383115,,response,,,,99,,,,,,,Space,keypress(Space),,,,,,,,---- -- ----- -- ------ - ------- --- ----------<br>------------- ------ ------ ---- ---- ------- ----- -- ----<br>-------- ------- -- ---------- --- - --- ----- ----- ----<br>---- --- --- ----- --- ---- that ------- ----- ---- -------<br>--- --- -- ----- -- --- ---- -- --- ---- -- ------ ------<br>--- ----- -- ----,189932.29999995232,189931.10000002384,189650.778,189653.19999992847,189667.374,189965.609,,34,that
screen,html.Screen,2_1_0_1_35,2022-05-09T12:38:41.331Z,,,,,,,,,,,,,,,,,53,,,,,,,,,,,,,,291.69099995231954,,response,,,,99,,,,,,,Space,keypress(Space),,,,,,,,---- -- ----- -- ------ - ------- --- ----------<br>------------- ------ ------ ---- ---- ------- ----- -- ----<br>-------- ------- -- ---------- --- - --- ----- ----- ----<br>---- --- --- ----- --- ---- ---- matters ----- ---- -------<br>--- --- -- ----- -- --- ---- -- --- ---- -- ------ ------<br>--- ----- -- ----,190258.39999997616,190257.29999995232,189917.425,189932.60000002384,189965.609,190267.342,,35,matters
screen,html.Screen,2_1_0_1_36,2022-05-09T12:38:41.688Z,,,,,,,,,,,,,,,,,53,,,,,,,,,,,,,,347.4579999523121,,response,,,,99,,,,,,,Space,keypress(Space),,,,,,,,"---- -- ----- -- ------ - ------- --- ----------<br>------------- ------ ------ ---- ---- ------- ----- -- ----<br>-------- ------- -- ---------- --- - --- ----- ----- ----<br>---- --- --- ----- --- ---- ---- ------- most, ---- -------<br>--- --- -- ----- -- --- ---- -- --- ---- -- ------ ------<br>--- ----- -- ----",190616,190614.79999995232,190250.813,190258.60000002384,190267.342,190640.497,,36,"most,"
screen,html.Screen,2_1_0_1_37,2022-05-09T12:38:41.987Z,,,,,,,,,,,,,,,,,53,,,,,,,,,,,,,,273.002999999997,,response,,,,99,,,,,,,Space,keypress(Space),,,,,,,,---- -- ----- -- ------ - ------- --- ----------<br>------------- ------ ------ ---- ---- ------- ----- -- ----<br>-------- ------- -- ---------- --- - --- ----- ----- ----<br>---- --- --- ----- --- ---- ---- ------- ----- it's -------<br>--- --- -- ----- -- --- ---- -- --- ---- -- ------ ------<br>--- ----- -- ----,190914.69999992847,190913.5,190600.773,190616.19999992847,190640.497,190917.348,,37,it's
screen,html.Screen,2_1_0_1_38,2022-05-09T12:38:42.276Z,,,,,,,,,,,,,,,,,53,,,,,,,,,,,,,,284.7520000238437,,response,,,,99,,,,,,,Space,keypress(Space),,,,,,,,---- -- ----- -- ------ - ------- --- ----------<br>------------- ------ ------ ---- ---- ------- ----- -- ----<br>-------- ------- -- ---------- --- - --- ----- ----- ----<br>---- --- --- ----- --- ---- ---- ------- ----- ---- whether<br>--- --- -- ----- -- --- ---- -- --- ---- -- ------ ------<br>--- ----- -- ----,191203.29999995232,191202.10000002384,190900.899,190915,190917.348,191217.419,,38,whether
screen,html.Screen,2_1_0_1_39,2022-05-09T12:38:42.579Z,,,,,,,,,,,,,,,,,53,,,,,,,,,,,,,,288.0810000000056,,response,,,,99,,,,,,,Space,keypress(Space),,,,,,,,---- -- ----- -- ------ - ------- --- ----------<br>------------- ------ ------ ---- ---- ------- ----- -- ----<br>-------- ------- -- ---------- --- - --- ----- ----- ----<br>---- --- --- ----- --- ---- ---- ------- ----- ---- -------<br>you --- -- ----- -- --- ---- -- --- ---- -- ------ ------<br>--- ----- -- ----,191506.69999992847,191505.5,191201.358,191203.5,191217.419,191517.461,,39,you
screen,html.Screen,2_1_0_1_40,2022-05-09T12:38:42.834Z,,,,,,,,,,,,,,,,,53,,,,,,,,,,,,,,242.4389999761479,,response,,,,99,,,,,,,Space,keypress(Space),,,,,,,,---- -- ----- -- ------ - ------- --- ----------<br>------------- ------ ------ ---- ---- ------- ----- -- ----<br>-------- ------- -- ---------- --- - --- ----- ----- ----<br>---- --- --- ----- --- ---- ---- ------- ----- ---- -------<br>--- are -- ----- -- --- ---- -- --- ---- -- ------ ------<br>--- ----- -- ----,191761.19999992847,191759.89999997616,191500.773,191506.89999997616,191517.461,191767.379,,40,are
screen,html.Screen,2_1_0_1_41,2022-05-09T12:38:43.087Z,,,,,,,,,,,,,,,,,53,,,,,,,,,,,,,,245.7210000238556,,response,,,,99,,,,,,,Space,keypress(Space),,,,,,,,---- -- ----- -- ------ - ------- --- ----------<br>------------- ------ ------ ---- ---- ------- ----- -- ----<br>-------- ------- -- ---------- --- - --- ----- ----- ----<br>---- --- --- ----- --- ---- ---- ------- ----- ---- -------<br>--- --- as ----- -- --- ---- -- --- ---- -- ------ ------<br>--- ----- -- ----,192014.19999992847,192013.10000002384,191750.764,191761.39999997616,191767.379,192017.4,,41,as
screen,html.Screen,2_1_0_1_42,2022-05-09T12:38:43.384Z,,,,,,,,,,,,,,,,,53,,,,,,,,,,,,,,293.49999997616396,,response,,,,99,,,,,,,Space,keypress(Space),,,,,,,,---- -- ----- -- ------ - ------- --- ----------<br>------------- ------ ------ ---- ---- ------- ----- -- ----<br>-------- ------- -- ---------- --- - --- ----- ----- ----<br>---- --- --- ----- --- ---- ---- ------- ----- ---- -------<br>--- --- -- close -- --- ---- -- --- ---- -- ------ ------<br>--- ----- -- ----,192311.5,192310.89999997616,192000.769,192014.39999997616,192017.4,192317.5,,42,close
screen,html.Screen,2_1_0_1_43,2022-05-09T12:38:43.672Z,,,,,,,,,,,,,,,,,53,,,,,,,,,,,,,,280.5,,response,,,,99,,,,,,,Space,keypress(Space),,,,,,,,---- -- ----- -- ------ - ------- --- ----------<br>------------- ------ ------ ---- ---- ------- ----- -- ----<br>-------- ------- -- ---------- --- - --- ----- ----- ----<br>---- --- --- ----- --- ---- ---- ------- ----- ---- -------<br>--- --- -- ----- as --- ---- -- --- ---- -- ------ ------<br>--- ----- -- ----,192599.29999995232,192598,192300.904,192311.5,192317.5,192631.652,,43,as
screen,html.Screen,2_1_0_1_44,2022-05-09T12:38:43.932Z,,,,,,,,,,,,,,,,,53,,,,,,,,,,,,,,227.24799997615628,,response,,,,99,,,,,,,Space,keypress(Space),,,,,,,,---- -- ----- -- ------ - ------- --- ----------<br>------------- ------ ------ ---- ---- ------- ----- -- ----<br>-------- ------- -- ---------- --- - --- ----- ----- ----<br>---- --- --- ----- --- ---- ---- ------- ----- ---- -------<br>--- --- -- ----- -- you ---- -- --- ---- -- ------ ------<br>--- ----- -- ----,192859.89999997616,192858.89999997616,192584.087,192599.5,192631.652,192867.551,,44,you
screen,html.Screen,2_1_0_1_45,2022-05-09T12:38:44.222Z,,,,,,,,,,,,,,,,,53,,,,,,,,,,,,,,280.94899999999325,,response,,,,99,,,,,,,Space,keypress(Space),,,,,,,,---- -- ----- -- ------ - ------- --- ----------<br>------------- ------ ------ ---- ---- ------- ----- -- ----<br>-------- ------- -- ---------- --- - --- ----- ----- ----<br>---- --- --- ----- --- ---- ---- ------- ----- ---- -------<br>--- --- -- ----- -- --- want -- --- ---- -- ------ ------<br>--- ----- -- ----,193149.79999995232,193148.5,192850.883,192860.10000002384,192867.551,193167.561,,45,want
screen,html.Screen,2_1_0_1_46,2022-05-09T12:38:44.554Z,,,,,,,,,,,,,,,,,53,,,,,,,,,,,,,,313.13899992848746,,response,,,,99,,,,,,,Space,keypress(Space),,,,,,,,---- -- ----- -- ------ - ------- --- ----------<br>------------- ------ ------ ---- ---- ------- ----- -- ----<br>-------- ------- -- ---------- --- - --- ----- ----- ----<br>---- --- --- ----- --- ---- ---- ------- ----- ---- -------<br>--- --- -- ----- -- --- ---- to --- ---- -- ------ ------<br>--- ----- -- ----,193481.89999997616,193480.69999992847,193150.749,193149.89999997616,193167.561,193484.108,,46,to
screen,html.Screen,2_1_0_1_47,2022-05-09T12:38:44.853Z,,,,,,,,,,,,,,,,,53,,,,,,,,,,,,,,295.89199999999255,,response,,,,99,,,,,,,Space,keypress(Space),,,,,,,,"---- -- ----- -- ------ - ------- --- ----------<br>------------- ------ ------ ---- ---- ------- ----- -- ----<br>-------- ------- -- ---------- --- - --- ----- ----- ----<br>---- --- --- ----- --- ---- ---- ------- ----- ---- -------<br>--- --- -- ----- -- --- ---- -- be, ---- -- ------ ------<br>--- ----- -- ----",193780.39999997616,193780,193467.5,193482.10000002384,193484.108,193784.02,,47,"be,"
screen,html.Screen,2_1_0_1_48,2022-05-09T12:38:45.214Z,,,,,,,,,,,,,,,,,53,,,,,,,,,,,,,,355.6799999284849,,response,,,,99,,,,,,,Space,keypress(Space),,,,,,,,---- -- ----- -- ------ - ------- --- ----------<br>------------- ------ ------ ---- ---- ------- ----- -- ----<br>-------- ------- -- ---------- --- - --- ----- ----- ----<br>---- --- --- ----- --- ---- ---- ------- ----- ---- -------<br>--- --- -- ----- -- --- ---- -- --- even -- ------ ------<br>--- ----- -- ----,194141.79999995232,194139.69999992847,193767.566,193780.5,193784.02,194150.948,,48,even
screen,html.Screen,2_1_0_1_49,2022-05-09T12:38:45.478Z,,,,,,,,,,,,,,,,,53,,,,,,,,,,,,,,253.35199995231233,,response,,,,99,,,,,,,Space,keypress(Space),,,,,,,,---- -- ----- -- ------ - ------- --- ----------<br>------------- ------ ------ ---- ---- ------- ----- -- ----<br>-------- ------- -- ---------- --- - --- ----- ----- ----<br>---- --- --- ----- --- ---- ---- ------- ----- ---- -------<br>--- --- -- ----- -- --- ---- -- --- ---- if ------ ------<br>--- ----- -- ----,194405.5,194404.29999995232,194134.068,194142.10000002384,194150.948,194417.631,,49,if
screen,html.Screen,2_1_0_1_50,2022-05-09T12:38:45.701Z,,,,,,,,,,,,,,,,,53,,,,,,,,,,,,,,210.06899992848048,,response,,,,99,,,,,,,Space,keypress(Space),,,,,,,,---- -- ----- -- ------ - ------- --- ----------<br>------------- ------ ------ ---- ---- ------- ----- -- ----<br>-------- ------- -- ---------- --- - --- ----- ----- ----<br>---- --- --- ----- --- ---- ---- ------- ----- ---- -------<br>--- --- -- ----- -- --- ---- -- --- ---- -- that's ------<br>--- ----- -- ----,194628.89999997616,194627.69999992847,194400.865,194405.69999992847,194417.631,194634.193,,50,that's
screen,html.Screen,2_1_0_1_51,2022-05-09T12:38:46.079Z,,,,,,,,,,,,,,,,,53,,,,,,,,,,,,,,371.70699997615884,,response,,,,99,,,,,,,Space,keypress(Space),,,,,,,,---- -- ----- -- ------ - ------- --- ----------<br>------------- ------ ------ ---- ---- ------- ----- -- ----<br>-------- ------- -- ---------- --- - --- ----- ----- ----<br>---- --- --- ----- --- ---- ---- ------- ----- ---- -------<br>--- --- -- ----- -- --- ---- -- --- ---- -- ------ really<br>--- ----- -- ----,195007,195005.89999997616,194617.545,194629.10000002384,194634.193,195017.64,,51,really
screen,html.Screen,2_1_0_1_52,2022-05-09T12:38:46.443Z,,,,,,,,,,,,,,,,,53,,,,,,,,,,,,,,351.4600000238279,,response,,,,99,,,,,,,Space,keypress(Space),,,,,,,,---- -- ----- -- ------ - ------- --- ----------<br>------------- ------ ------ ---- ---- ------- ----- -- ----<br>-------- ------- -- ---------- --- - --- ----- ----- ----<br>---- --- --- ----- --- ---- ---- ------- ----- ---- -------<br>--- --- -- ----- -- --- ---- -- --- ---- -- ------ ------<br>not ----- -- ----,195370.29999995232,195369.10000002384,195000.936,195007.19999992847,195017.64,195384.342,,52,not
screen,html.Screen,2_1_0_1_53,2022-05-09T12:38:46.741Z,,,,,,,,,,,,,,,,,53,,,,,,,,,,,,,,282.75800002383767,,response,,,,99,,,,,,,Space,keypress(Space),,,,,,,,---- -- ----- -- ------ - ------- --- ----------<br>------------- ------ ------ ---- ---- ------- ----- -- ----<br>-------- ------- -- ---------- --- - --- ----- ----- ----<br>---- --- --- ----- --- ---- ---- ------- ----- ---- -------<br>--- --- -- ----- -- --- ---- -- --- ---- -- ------ ------<br>--- close -- ----,195668.39999997616,195667.10000002384,195367.655,195370.60000002384,195384.342,195684.379,,53,close
screen,html.Screen,2_1_0_1_54,2022-05-09T12:38:47.091Z,,,,,,,,,,,,,,,,,53,,,,,,,,,,,,,,333.32099992848816,,response,,,,99,,,,,,,Space,keypress(Space),,,,,,,,---- -- ----- -- ------ - ------- --- ----------<br>------------- ------ ------ ---- ---- ------- ----- -- ----<br>-------- ------- -- ---------- --- - --- ----- ----- ----<br>---- --- --- ----- --- ---- ---- ------- ----- ---- -------<br>--- --- -- ----- -- --- ---- -- --- ---- -- ------ ------<br>--- ----- at ----,196019,196017.69999992847,195667.588,195668.60000002384,195684.379,196034.211,,54,at
screen,html.Screen,2_1_0_1_55,2022-05-09T12:38:47.896Z,,,,,,,,,,,,,,,,,53,,,,,,,,,,,,,,788.2889999999898,,response,,,,99,,,,,,,Space,keypress(Space),,,,,,,,---- -- ----- -- ------ - ------- --- ----------<br>------------- ------ ------ ---- ---- ------- ----- -- ----<br>-------- ------- -- ---------- --- - --- ----- ----- ----<br>---- --- --- ----- --- ---- ---- ------- ----- ---- -------<br>--- --- -- ----- -- --- ---- -- --- ---- -- ------ ------<br>--- ----- -- all.,196823.69999992847,196822.5,196017.59,196019.19999992847,196034.211,196834.277,,55,all.
Item 99,flow.Loop,2_1_0_1,2022-05-09T12:38:47.897Z,,,,,,,,,,,,,,,,,,,,,,,,,,,,,,,20422.43100000001,,completion,,,,,F,,,,,,,,,,,silence,,,,,196824.5,196822.5,176366.95,176368.39999997616,176400.069,196834.277,,,
Question 1,html.Screen,2_1_0_2,2022-05-09T12:38:56.115Z,,,,,,,,,,,,,,,,,,,,,,,,,,,,true,FALSE,,8207.022999952314,,response,,,,99,F,,,,,,FALSE,click #choice-2,,,,silence,,,,,205042.19999992847,205041.29999995232,196817.539,196824.79999995232,196834.277,205051.321,,,
Question 2,html.Screen,2_1_0_3,2022-05-09T12:39:02.827Z,,,,,,,,,,,,,,,,,,,,,,,,,,,,true,TRUE,,6701.878999928478,,response,,,,99,F,,,,,,TRUE,click #choice-1,,,,silence,,,,,211754,211753.19999992847,205034.491,205042.29999995232,205051.321,211768.128,,,
Item 99,flow.Sequence,2_1_0,2022-05-09T12:39:02.827Z,,,,,,,,,,,,,,,,,,,,,,,,,,,,,,,45370.168999928486,,completion,,,,,,,,,,,,,,,,,,,,,211754.19999992847,211753.19999992847,166366.317,166380.89999997616,166383.031,211768.128,,,
Holding screen,html.Screen,2_1_1_0,2022-05-09T12:39:12.825Z,,,,,,,,,,,,,,,,,,,,,,,,,,,,,,,10000.413,,timeout,,,,,,,,,,,,,,,,,,,,,221752.89999997616,221751.973,211751.517,211754.29999995232,211768.128,221768.541,,,
screen,html.Screen,2_1_1_1_0,2022-05-09T12:39:13.519Z,,,,,,,,,,,,,,,,,54,,,,,,,,,,,,,,676.9590000000026,,response,,,,100,,,,,,,Space,keypress(Space),,,,,,,,At --- ---- --- ------ ----- ------- ---- -- --- ------- --<br>------- ---------- ------ -- ----- -- ----- -- ---- ------<br>--- ----- --- --- ------ -------- ----- --- ------ ----- --<br>----- ----- ---------- --- --- ------ ------ ---- -- ------<br>------- --- ------ ----- --- ---- ------- -- ---- --- --<br>------- ------,222446.89999997616,222445.5,221751.973,221753.29999995232,221768.541,222451.94,,0,At
screen,html.Screen,2_1_1_1_1,2022-05-09T12:39:14.025Z,,,,,,,,,,,,,,,,,54,,,,,,,,,,,,,,499.9599999761558,,response,,,,100,,,,,,,Space,keypress(Space),,,,,,,,-- the ---- --- ------ ----- ------- ---- -- --- ------- --<br>------- ---------- ------ -- ----- -- ----- -- ---- ------<br>--- ----- --- --- ------ -------- ----- --- ------ ----- --<br>----- ----- ---------- --- --- ------ ------ ---- -- ------<br>------- --- ------ ----- --- ---- ------- -- ---- --- --<br>------- ------,222952.79999995232,222951.89999997616,222435.354,222447.10000002384,222451.94,222968.689,,1,the
screen,html.Screen,2_1_1_1_2,2022-05-09T12:39:14.287Z,,,,,,,,,,,,,,,,,54,,,,,,,,,,,,,,244.61099995230325,,response,,,,100,,,,,,,Space,keypress(Space),,,,,,,,-- --- time --- ------ ----- ------- ---- -- --- ------- --<br>------- ---------- ------ -- ----- -- ----- -- ---- ------<br>--- ----- --- --- ------ -------- ----- --- ------ ----- --<br>----- ----- ---------- --- --- ------ ------ ---- -- ------<br>------- --- ------ ----- --- ---- ------- -- ---- --- --<br>------- ------,223214.79999995232,223213.29999995232,222952.085,222953.10000002384,222968.689,223218.605,,2,time
screen,html.Screen,2_1_1_1_3,2022-05-09T12:39:14.597Z,,,,,,,,,,,,,,,,,54,,,,,,,,,,,,,,304.59499992846395,,response,,,,100,,,,,,,Space,keypress(Space),,,,,,,,-- --- ---- the ------ ----- ------- ---- -- --- ------- --<br>------- ---------- ------ -- ----- -- ----- -- ---- ------<br>--- ----- --- --- ------ -------- ----- --- ------ ----- --<br>----- ----- ---------- --- --- ------ ------ ---- -- ------<br>------- --- ------ ----- --- ---- ------- -- ---- --- --<br>------- ------,223524.19999992847,223523.19999992847,223202.105,223214.89999997616,223218.605,223535.44,,3,the
screen,html.Screen,2_1_1_1_4,2022-05-09T12:39:14.868Z,,,,,,,,,,,,,,,,,54,,,,,,,,,,,,,,259.16000002383953,,response,,,,100,,,,,,,Space,keypress(Space),,,,,,,,-- --- ---- --- French ----- ------- ---- -- --- ------- --<br>------- ---------- ------ -- ----- -- ----- -- ---- ------<br>--- ----- --- --- ------ -------- ----- --- ------ ----- --<br>----- ----- ---------- --- --- ------ ------ ---- -- ------<br>------- --- ------ ----- --- ---- ------- -- ---- --- --<br>------- ------,223795.60000002384,223794.60000002384,223518.758,223524.39999997616,223535.44,223801.998,,4,French
screen,html.Screen,2_1_1_1_5,2022-05-09T12:39:15.211Z,,,,,,,,,,,,,,,,,54,,,,,,,,,,,,,,335.60200002384954,,response,,,,100,,,,,,,Space,keypress(Space),,,,,,,,-- --- ---- --- ------ crown ------- ---- -- --- ------- --<br>------- ---------- ------ -- ----- -- ----- -- ---- ------<br>--- ----- --- --- ------ -------- ----- --- ------ ----- --<br>----- ----- ---------- --- --- ------ ------ ---- -- ------<br>------- --- ------ ----- --- ---- ------- -- ---- --- --<br>------- ------,224138.89999997616,224137.60000002384,223785.364,223795.79999995232,223801.998,224152.083,,5,crown
screen,html.Screen,2_1_1_1_6,2022-05-09T12:39:15.567Z,,,,,,,,,,,,,,,,,54,,,,,,,,,,,,,,341.716999952303,,response,,,,100,,,,,,,Space,keypress(Space),,,,,,,,-- --- ---- --- ------ ----- secured ---- -- --- ------- --<br>------- ---------- ------ -- ----- -- ----- -- ---- ------<br>--- ----- --- --- ------ -------- ----- --- ------ ----- --<br>----- ----- ---------- --- --- ------ ------ ---- -- ------<br>------- --- ------ ----- --- ---- ------- -- ---- --- --<br>------- ------,224494.69999992847,224493.79999995232,224135.418,224139.19999992847,224152.083,224502.14,,6,secured
screen,html.Screen,2_1_1_1_7,2022-05-09T12:39:16.694Z,,,,,,,,,,,,,,,,,54,,,,,,,,,,,,,,1117.960000023828,,response,,,,100,,,,,,,Space,keypress(Space),,,,,,,,-- --- ---- --- ------ ----- ------- much -- --- ------- --<br>------- ---------- ------ -- ----- -- ----- -- ---- ------<br>--- ----- --- --- ------ -------- ----- --- ------ ----- --<br>----- ----- ---------- --- --- ------ ------ ---- -- ------<br>------- --- ------ ----- --- ---- ------- -- ---- --- --<br>------- ------,225621.10000002384,225620.10000002384,224485.43,224494.89999997616,224502.14,225635.525,,7,much
screen,html.Screen,2_1_1_1_8,2022-05-09T12:39:17.037Z,,,,,,,,,,,,,,,,,54,,,,,,,,,,,,,,326.87499997616396,,response,,,,100,,,,,,,Space,keypress(Space),,,,,,,,-- --- ---- --- ------ ----- ------- ---- of --- ------- --<br>------- ---------- ------ -- ----- -- ----- -- ---- ------<br>--- ----- --- --- ------ -------- ----- --- ------ ----- --<br>----- ----- ---------- --- --- ------ ------ ---- -- ------<br>------- --- ------ ----- --- ---- ------- -- ---- --- --<br>------- ------,225963.39999997616,225962.39999997616,225618.784,225621.39999997616,225635.525,225968.745,,8,of
screen,html.Screen,2_1_1_1_9,2022-05-09T12:39:17.316Z,,,,,,,,,,,,,,,,,54,,,,,,,,,,,,,,273.3550000238465,,response,,,,100,,,,,,,Space,keypress(Space),,,,,,,,-- --- ---- --- ------ ----- ------- ---- -- its ------- --<br>------- ---------- ------ -- ----- -- ----- -- ---- ------<br>--- ----- --- --- ------ -------- ----- --- ------ ----- --<br>----- ----- ---------- --- --- ------ ------ ---- -- ------<br>------- --- ------ ----- --- ---- ------- -- ---- --- --<br>------- ------,226243.29999995232,226242.10000002384,225952.078,225963.69999992847,225968.745,226252.104,,9,its
screen,html.Screen,2_1_1_1_10,2022-05-09T12:39:17.595Z,,,,,,,,,,,,,,,,,54,,,,,,,,,,,,,,268.4960000238498,,response,,,,100,,,,,,,Space,keypress(Space),,,,,,,,-- --- ---- --- ------ ----- ------- ---- -- --- revenue --<br>------- ---------- ------ -- ----- -- ----- -- ---- ------<br>--- ----- --- --- ------ -------- ----- --- ------ ----- --<br>----- ----- ---------- --- --- ------ ------ ---- -- ------<br>------- --- ------ ----- --- ---- ------- -- ---- --- --<br>------- ------,226521.79999995232,226520.60000002384,226235.539,226243.5,226252.104,226535.639,,10,revenue
screen,html.Screen,2_1_1_1_11,2022-05-09T12:39:17.959Z,,,,,,,,,,,,,,,,,54,,,,,,,,,,,,,,349.1609999523207,,response,,,,100,,,,,,,Space,keypress(Space),,,,,,,,-- --- ---- --- ------ ----- ------- ---- -- --- ------- by<br>------- ---------- ------ -- ----- -- ----- -- ---- ------<br>--- ----- --- --- ------ -------- ----- --- ------ ----- --<br>----- ----- ---------- --- --- ------ ------ ---- -- ------<br>------- --- ------ ----- --- ---- ------- -- ---- --- --<br>------- ------,226885.89999997616,226884.79999995232,226518.908,226522.10000002384,226535.639,226902.38,,11,by
screen,html.Screen,2_1_1_1_12,2022-05-09T12:39:18.222Z,,,,,,,,,,,,,,,,,54,,,,,,,,,,,,,,244.91999995231163,,response,,,,100,,,,,,,Space,keypress(Space),,,,,,,,-- --- ---- --- ------ ----- ------- ---- -- --- ------- --<br>issuing ---------- ------ -- ----- -- ----- -- ---- ------<br>--- ----- --- --- ------ -------- ----- --- ------ ----- --<br>----- ----- ---------- --- --- ------ ------ ---- -- ------<br>------- --- ------ ----- --- ---- ------- -- ---- --- --<br>------- ------,227148.5,227147.29999995232,226885.488,226886.19999992847,226902.38,227152.095,,12,issuing
screen,html.Screen,2_1_1_1_13,2022-05-09T12:39:18.540Z,,,,,,,,,,,,,,,,,54,,,,,,,,,,,,,,313.2049999523151,,response,,,,100,,,,,,,Space,keypress(Space),,,,,,,,-- --- ---- --- ------ ----- ------- ---- -- --- ------- --<br>------- government ------ -- ----- -- ----- -- ---- ------<br>--- ----- --- --- ------ -------- ----- --- ------ ----- --<br>----- ----- ---------- --- --- ------ ------ ---- -- ------<br>------- --- ------ ----- --- ---- ------- -- ---- --- --<br>------- ------,227466.39999997616,227465.29999995232,227135.485,227148.79999995232,227152.095,227468.786,,13,government
screen,html.Screen,2_1_1_1_14,2022-05-09T12:39:19.497Z,,,,,,,,,,,,,,,,,54,,,,,,,,,,,,,,953.6139999761654,,response,,,,100,,,,,,,Space,keypress(Space),,,,,,,,-- --- ---- --- ------ ----- ------- ---- -- --- ------- --<br>------- ---------- bonds. -- ----- -- ----- -- ---- ------<br>--- ----- --- --- ------ -------- ----- --- ------ ----- --<br>----- ----- ---------- --- --- ------ ------ ---- -- ------<br>------- --- ------ ----- --- ---- ------- -- ---- --- --<br>------- ------,228423.5,228422.39999997616,227452.257,227466.69999992847,227468.786,228435.499,,14,bonds.
screen,html.Screen,2_1_1_1_15,2022-05-09T12:39:19.806Z,,,,,,,,,,,,,,,,,54,,,,,,,,,,,,,,296.40099997614743,,response,,,,100,,,,,,,Space,keypress(Space),,,,,,,,-- --- ---- --- ------ ----- ------- ---- -- --- ------- --<br>------- ---------- ------ In ----- -- ----- -- ---- ------<br>--- ----- --- --- ------ -------- ----- --- ------ ----- --<br>----- ----- ---------- --- --- ------ ------ ---- -- ------<br>------- --- ------ ----- --- ---- ------- -- ---- --- --<br>------- ------,228733.10000002384,228731.89999997616,228418.95,228423.69999992847,228435.499,228735.497,,15,In
screen,html.Screen,2_1_1_1_16,2022-05-09T12:39:20.159Z,,,,,,,,,,,,,,,,,54,,,,,,,,,,,,,,348.7029999284714,,response,,,,100,,,,,,,Space,keypress(Space),,,,,,,,"-- --- ---- --- ------ ----- ------- ---- -- --- ------- --<br>------- ---------- ------ -- 1727, -- ----- -- ---- ------<br>--- ----- --- --- ------ -------- ----- --- ------ ----- --<br>----- ----- ---------- --- --- ------ ------ ---- -- ------<br>------- --- ------ ----- --- ---- ------- -- ---- --- --<br>------- ------",229085.60000002384,229084.19999992847,228718.816,228733.29999995232,228735.497,229102.369,,16,"1727,"
screen,html.Screen,2_1_1_1_17,2022-05-09T12:39:21.292Z,,,,,,,,,,,,,,,,,54,,,,,,,,,,,,,,1114.9309999523102,,response,,,,100,,,,,,,Space,keypress(Space),,,,,,,,-- --- ---- --- ------ ----- ------- ---- -- --- ------- --<br>------- ---------- ------ -- ----- in ----- -- ---- ------<br>--- ----- --- --- ------ -------- ----- --- ------ ----- --<br>----- ----- ---------- --- --- ------ ------ ---- -- ------<br>------- --- ------ ----- --- ---- ------- -- ---- --- --<br>------- ------,230218.5,230217.29999995232,229085.574,229085.79999995232,229102.369,230235.74,,17,in
screen,html.Screen,2_1_1_1_18,2022-05-09T12:39:21.707Z,,,,,,,,,,,,,,,,,54,,,,,,,,,,,,,,397.0599999523256,,response,,,,100,,,,,,,Space,keypress(Space),,,,,,,,-- --- ---- --- ------ ----- ------- ---- -- --- ------- --<br>------- ---------- ------ -- ----- -- order -- ---- ------<br>--- ----- --- --- ------ -------- ----- --- ------ ----- --<br>----- ----- ---------- --- --- ------ ------ ---- -- ------<br>------- --- ------ ----- --- ---- ------- -- ---- --- --<br>------- ------,230633.89999997616,230632.79999995232,230219.083,230218.79999995232,230235.74,230663.695,,18,order
screen,html.Screen,2_1_1_1_19,2022-05-09T12:39:21.978Z,,,,,,,,,,,,,,,,,54,,,,,,,,,,,,,,239.30499999999302,,response,,,,100,,,,,,,Space,keypress(Space),,,,,,,,-- --- ---- --- ------ ----- ------- ---- -- --- ------- --<br>------- ---------- ------ -- ----- -- ----- to ---- ------<br>--- ----- --- --- ------ -------- ----- --- ------ ----- --<br>----- ----- ---------- --- --- ------ ------ ---- -- ------<br>------- --- ------ ----- --- ---- ------- -- ---- --- --<br>------- ------,230904.39999997616,230903,230618.997,230634.19999992847,230663.695,230919.056,,19,to
screen,html.Screen,2_1_1_1_20,2022-05-09T12:39:22.299Z,,,,,,,,,,,,,,,,,54,,,,,,,,,,,,,,305.643999928463,,response,,,,100,,,,,,,Space,keypress(Space),,,,,,,,-- --- ---- --- ------ ----- ------- ---- -- --- ------- --<br>------- ---------- ------ -- ----- -- ----- -- save ------<br>--- ----- --- --- ------ -------- ----- --- ------ ----- --<br>----- ----- ---------- --- --- ------ ------ ---- -- ------<br>------- --- ------ ----- --- ---- ------- -- ---- --- --<br>------- ------,231225.89999997616,231224.69999992847,230902.406,230904.79999995232,230919.056,231235.612,,20,save
screen,html.Screen,2_1_1_1_21,2022-05-09T12:39:22.644Z,,,,,,,,,,,,,,,,,54,,,,,,,,,,,,,,334.18799995232257,,response,,,,100,,,,,,,Space,keypress(Space),,,,,,,,"-- --- ---- --- ------ ----- ------- ---- -- --- ------- --<br>------- ---------- ------ -- ----- -- ----- -- ---- money,<br>--- ----- --- --- ------ -------- ----- --- ------ ----- --<br>----- ----- ---------- --- --- ------ ------ ---- -- ------<br>------- --- ------ ----- --- ---- ------- -- ---- --- --<br>------- ------",231571,231569.79999995232,231218.988,231226.10000002384,231235.612,231585.646,,21,"money,"
screen,html.Screen,2_1_1_1_22,2022-05-09T12:39:22.991Z,,,,,,,,,,,,,,,,,54,,,,,,,,,,,,,,330.7539999761502,,response,,,,100,,,,,,,Space,keypress(Space),,,,,,,,-- --- ---- --- ------ ----- ------- ---- -- --- ------- --<br>------- ---------- ------ -- ----- -- ----- -- ---- ------<br>the ----- --- --- ------ -------- ----- --- ------ ----- --<br>----- ----- ---------- --- --- ------ ------ ---- -- ------<br>------- --- ------ ----- --- ---- ------- -- ---- --- --<br>------- ------,231917.5,231916.39999997616,231569.021,231571.39999997616,231585.646,231946.618,,22,the
screen,html.Screen,2_1_1_1_23,2022-05-09T12:39:23.265Z,,,,,,,,,,,,,,,,,54,,,,,,,,,,,,,,243.68199995232862,,response,,,,100,,,,,,,Space,keypress(Space),,,,,,,,-- --- ---- --- ------ ----- ------- ---- -- --- ------- --<br>------- ---------- ------ -- ----- -- ----- -- ---- ------<br>--- state --- --- ------ -------- ----- --- ------ ----- --<br>----- ----- ---------- --- --- ------ ------ ---- -- ------<br>------- --- ------ ----- --- ---- ------- -- ---- --- --<br>------- ------,232191.5,232190.29999995232,231902.311,231917.69999992847,231946.618,232202.503,,23,state
screen,html.Screen,2_1_1_1_24,2022-05-09T12:39:23.613Z,,,,,,,,,,,,,,,,,54,,,,,,,,,,,,,,336.0970000238449,,response,,,,100,,,,,,,Space,keypress(Space),,,,,,,,-- --- ---- --- ------ ----- ------- ---- -- --- ------- --<br>------- ---------- ------ -- ----- -- ----- -- ---- ------<br>--- ----- cut --- ------ -------- ----- --- ------ ----- --<br>----- ----- ---------- --- --- ------ ------ ---- -- ------<br>------- --- ------ ----- --- ---- ------- -- ---- --- --<br>------- ------,232539.79999995232,232538.60000002384,232185.727,232191.79999995232,232202.503,232552.439,,24,cut
screen,html.Screen,2_1_1_1_25,2022-05-09T12:39:23.954Z,,,,,,,,,,,,,,,,,54,,,,,,,,,,,,,,327.2609999284614,,response,,,,100,,,,,,,Space,keypress(Space),,,,,,,,-- --- ---- --- ------ ----- ------- ---- -- --- ------- --<br>------- ---------- ------ -- ----- -- ----- -- ---- ------<br>--- ----- --- the ------ -------- ----- --- ------ ----- --<br>----- ----- ---------- --- --- ------ ------ ---- -- ------<br>------- --- ------ ----- --- ---- ------- -- ---- --- --<br>------- ------,232880.89999997616,232879.69999992847,232535.692,232540,232552.439,232885.653,,25,the
screen,html.Screen,2_1_1_1_26,2022-05-09T12:39:24.261Z,,,,,,,,,,,,,,,,,54,,,,,,,,,,,,,,300.64699995232513,,response,,,,100,,,,,,,Space,keypress(Space),,,,,,,,-- --- ---- --- ------ ----- ------- ---- -- --- ------- --<br>------- ---------- ------ -- ----- -- ----- -- ---- ------<br>--- ----- --- --- bonds' -------- ----- --- ------ ----- --<br>----- ----- ---------- --- --- ------ ------ ---- -- ------<br>------- --- ------ ----- --- ---- ------- -- ---- --- --<br>------- ------,233187.39999997616,233186.29999995232,232869.491,232881.10000002384,232885.653,233202.513,,26,bonds'
screen,html.Screen,2_1_1_1_27,2022-05-09T12:39:24.671Z,,,,,,,,,,,,,,,,,54,,,,,,,,,,,,,,394.18699992846814,,response,,,,100,,,,,,,Space,keypress(Space),,,,,,,,-- --- ---- --- ------ ----- ------- ---- -- --- ------- --<br>------- ---------- ------ -- ----- -- ----- -- ---- ------<br>--- ----- --- --- ------ interest ----- --- ------ ----- --<br>----- ----- ---------- --- --- ------ ------ ---- -- ------<br>------- --- ------ ----- --- ---- ------- -- ---- --- --<br>------- ------,233597.89999997616,233596.69999992847,233185.734,233187.60000002384,233202.513,233602.353,,27,interest
screen,html.Screen,2_1_1_1_28,2022-05-09T12:39:24.947Z,,,,,,,,,,,,,,,,,54,,,,,,,,,,,,,,270.6469999999972,,response,,,,100,,,,,,,Space,keypress(Space),,,,,,,,-- --- ---- --- ------ ----- ------- ---- -- --- ------- --<br>------- ---------- ------ -- ----- -- ----- -- ---- ------<br>--- ----- --- --- ------ -------- rate. --- ------ ----- --<br>----- ----- ---------- --- --- ------ ------ ---- -- ------<br>------- --- ------ ----- --- ---- ------- -- ---- --- --<br>------- ------,233874.10000002384,233873,233585.813,233598.19999992847,233602.353,233885.918,,28,rate.
screen,html.Screen,2_1_1_1_29,2022-05-09T12:39:25.474Z,,,,,,,,,,,,,,,,,54,,,,,,,,,,,,,,513.981999976153,,response,,,,100,,,,,,,Space,keypress(Space),,,,,,,,-- --- ---- --- ------ ----- ------- ---- -- --- ------- --<br>------- ---------- ------ -- ----- -- ----- -- ---- ------<br>--- ----- --- --- ------ -------- ----- The ------ ----- --<br>----- ----- ---------- --- --- ------ ------ ---- -- ------<br>------- --- ------ ----- --- ---- ------- -- ---- --- --<br>------- ------,234401,234399.89999997616,233869.187,233874.29999995232,233885.918,234426.31,,29,The
screen,html.Screen,2_1_1_1_30,2022-05-09T12:39:25.748Z,,,,,,,,,,,,,,,,,54,,,,,,,,,,,,,,247.08999997616047,,response,,,,100,,,,,,,Space,keypress(Space),,,,,,,,-- --- ---- --- ------ ----- ------- ---- -- --- ------- --<br>------- ---------- ------ -- ----- -- ----- -- ---- ------<br>--- ----- --- --- ------ -------- ----- --- market ----- --<br>----- ----- ---------- --- --- ------ ------ ---- -- ------<br>------- --- ------ ----- --- ---- ------- -- ---- --- --<br>------- ------,234674.60000002384,234673.39999997616,234385.803,234401.29999995232,234426.31,234685.862,,30,market
screen,html.Screen,2_1_1_1_31,2022-05-09T12:39:26.011Z,,,,,,,,,,,,,,,,,54,,,,,,,,,,,,,,250.43799995232257,,response,,,,100,,,,,,,Space,keypress(Space),,,,,,,,-- --- ---- --- ------ ----- ------- ---- -- --- ------- --<br>------- ---------- ------ -- ----- -- ----- -- ---- ------<br>--- ----- --- --- ------ -------- ----- --- ------ value --<br>----- ----- ---------- --- --- ------ ------ ---- -- ------<br>------- --- ------ ----- --- ---- ------- -- ---- --- --<br>------- ------,234937.79999995232,234936.29999995232,234669.187,234674.79999995232,234685.862,234952.411,,31,value
screen,html.Screen,2_1_1_1_32,2022-05-09T12:39:26.341Z,,,,,,,,,,,,,,,,,54,,,,,,,,,,,,,,314.6890000238491,,response,,,,100,,,,,,,Space,keypress(Space),,,,,,,,-- --- ---- --- ------ ----- ------- ---- -- --- ------- --<br>------- ---------- ------ -- ----- -- ----- -- ---- ------<br>--- ----- --- --- ------ -------- ----- --- ------ ----- of<br>----- ----- ---------- --- --- ------ ------ ---- -- ------<br>------- --- ------ ----- --- ---- ------- -- ---- --- --<br>------- ------,235268.29999995232,235267.10000002384,234935.803,234939.29999995232,234952.411,235302.611,,32,of
screen,html.Screen,2_1_1_1_33,2022-05-09T12:39:26.670Z,,,,,,,,,,,,,,,,,54,,,,,,,,,,,,,,293.2889999761537,,response,,,,100,,,,,,,Space,keypress(Space),,,,,,,,-- --- ---- --- ------ ----- ------- ---- -- --- ------- --<br>------- ---------- ------ -- ----- -- ----- -- ---- ------<br>--- ----- --- --- ------ -------- ----- --- ------ ----- --<br>these ----- ---------- --- --- ------ ------ ---- -- ------<br>------- --- ------ ----- --- ---- ------- -- ---- --- --<br>------- ------,235596.89999997616,235595.89999997616,235285.932,235268.5,235302.611,235602.428,,33,these
screen,html.Screen,2_1_1_1_34,2022-05-09T12:39:26.931Z,,,,,,,,,,,,,,,,,54,,,,,,,,,,,,,,254.17200002382742,,response,,,,100,,,,,,,Space,keypress(Space),,,,,,,,-- --- ---- --- ------ ----- ------- ---- -- --- ------- --<br>------- ---------- ------ -- ----- -- ----- -- ---- ------<br>--- ----- --- --- ------ -------- ----- --- ------ ----- --<br>----- bonds ---------- --- --- ------ ------ ---- -- ------<br>------- --- ------ ----- --- ---- ------- -- ---- --- --<br>------- ------,235857.89999997616,235856.60000002384,235585.821,235597.10000002384,235602.428,235869.234,,34,bonds
screen,html.Screen,2_1_1_1_35,2022-05-09T12:39:27.460Z,,,,,,,,,,,,,,,,,54,,,,,,,,,,,,,,516.6659999761614,,response,,,,100,,,,,,,Space,keypress(Space),,,,,,,,"-- --- ---- --- ------ ----- ------- ---- -- --- ------- --<br>------- ---------- ------ -- ----- -- ----- -- ---- ------<br>--- ----- --- --- ------ -------- ----- --- ------ ----- --<br>----- ----- plummeted, --- --- ------ ------ ---- -- ------<br>------- --- ------ ----- --- ---- ------- -- ---- --- --<br>------- ------",236387,236385.89999997616,235852.558,235858.10000002384,235869.234,236402.568,,35,"plummeted,"
screen,html.Screen,2_1_1_1_36,2022-05-09T12:39:27.816Z,,,,,,,,,,,,,,,,,54,,,,,,,,,,,,,,339.231999952317,,response,,,,100,,,,,,,Space,keypress(Space),,,,,,,,-- --- ---- --- ------ ----- ------- ---- -- --- ------- --<br>------- ---------- ------ -- ----- -- ----- -- ---- ------<br>--- ----- --- --- ------ -------- ----- --- ------ ----- --<br>----- ----- ---------- and --- ------ ------ ---- -- ------<br>------- --- ------ ----- --- ---- ------- -- ---- --- --<br>------- ------,236743,236741.79999995232,236385.845,236387.10000002384,236402.568,236752.616,,36,and
screen,html.Screen,2_1_1_1_37,2022-05-09T12:39:28.082Z,,,,,,,,,,,,,,,,,54,,,,,,,,,,,,,,254.58399992846535,,response,,,,100,,,,,,,Space,keypress(Space),,,,,,,,-- --- ---- --- ------ ----- ------- ---- -- --- ------- --<br>------- ---------- ------ -- ----- -- ----- -- ---- ------<br>--- ----- --- --- ------ -------- ----- --- ------ ----- --<br>----- ----- ---------- --- the ------ ------ ---- -- ------<br>------- --- ------ ----- --- ---- ------- -- ---- --- --<br>------- ------,237008.5,237007.19999992847,236735.944,236743.29999995232,236752.616,237019.256,,37,the
screen,html.Screen,2_1_1_1_38,2022-05-09T12:39:28.395Z,,,,,,,,,,,,,,,,,54,,,,,,,,,,,,,,301.8440000238479,,response,,,,100,,,,,,,Space,keypress(Space),,,,,,,,-- --- ---- --- ------ ----- ------- ---- -- --- ------- --<br>------- ---------- ------ -- ----- -- ----- -- ---- ------<br>--- ----- --- --- ------ -------- ----- --- ------ ----- --<br>----- ----- ---------- --- --- market ------ ---- -- ------<br>------- --- ------ ----- --- ---- ------- -- ---- --- --<br>------- ------,237322.29999995232,237321.10000002384,237002.617,237008.60000002384,237019.256,237336.063,,38,market
screen,html.Screen,2_1_1_1_39,2022-05-09T12:39:28.709Z,,,,,,,,,,,,,,,,,54,,,,,,,,,,,,,,298.43700000000536,,response,,,,100,,,,,,,Space,keypress(Space),,,,,,,,-- --- ---- --- ------ ----- ------- ---- -- --- ------- --<br>------- ---------- ------ -- ----- -- ----- -- ---- ------<br>--- ----- --- --- ------ -------- ----- --- ------ ----- --<br>----- ----- ---------- --- --- ------ became ---- -- ------<br>------- --- ------ ----- --- ---- ------- -- ---- --- --<br>------- ------,237635.69999992847,237634.5,237319.304,237322.5,237336.063,237652.623,,39,became
screen,html.Screen,2_1_1_1_40,2022-05-09T12:39:29.067Z,,,,,,,,,,,,,,,,,54,,,,,,,,,,,,,,340.0769999284821,,response,,,,100,,,,,,,Space,keypress(Space),,,,,,,,-- --- ---- --- ------ ----- ------- ---- -- --- ------- --<br>------- ---------- ------ -- ----- -- ----- -- ---- ------<br>--- ----- --- --- ------ -------- ----- --- ------ ----- --<br>----- ----- ---------- --- --- ------ ------ wary -- ------<br>------- --- ------ ----- --- ---- ------- -- ---- --- --<br>------- ------,237993.89999997616,237992.69999992847,237635.847,237636,237652.623,238002.59,,40,wary
screen,html.Screen,2_1_1_1_41,2022-05-09T12:39:29.463Z,,,,,,,,,,,,,,,,,54,,,,,,,,,,,,,,386.01000002384535,,response,,,,100,,,,,,,Space,keypress(Space),,,,,,,,-- --- ---- --- ------ ----- ------- ---- -- --- ------- --<br>------- ---------- ------ -- ----- -- ----- -- ---- ------<br>--- ----- --- --- ------ -------- ----- --- ------ ----- --<br>----- ----- ---------- --- --- ------ ------ ---- of ------<br>------- --- ------ ----- --- ---- ------- -- ---- --- --<br>------- ------,238389.79999995232,238388.60000002384,237986.005,237994.10000002384,238002.59,238402.616,,41,of
screen,html.Screen,2_1_1_1_42,2022-05-09T12:39:29.721Z,,,,,,,,,,,,,,,,,54,,,,,,,,,,,,,,244.38399999999092,,response,,,,100,,,,,,,Space,keypress(Space),,,,,,,,-- --- ---- --- ------ ----- ------- ---- -- --- ------- --<br>------- ---------- ------ -- ----- -- ----- -- ---- ------<br>--- ----- --- --- ------ -------- ----- --- ------ ----- --<br>----- ----- ---------- --- --- ------ ------ ---- -- French<br>------- --- ------ ----- --- ---- ------- -- ---- --- --<br>------- ------,238648.19999992847,238647,238386.032,238390,238402.616,238652.571,,42,French
screen,html.Screen,2_1_1_1_43,2022-05-09T12:39:30.569Z,,,,,,,,,,,,,,,,,54,,,,,,,,,,,,,,842.22899995232,,response,,,,100,,,,,,,Space,keypress(Space),,,,,,,,-- --- ---- --- ------ ----- ------- ---- -- --- ------- --<br>------- ---------- ------ -- ----- -- ----- -- ---- ------<br>--- ----- --- --- ------ -------- ----- --- ------ ----- --<br>----- ----- ---------- --- --- ------ ------ ---- -- ------<br>credit. --- ------ ----- --- ---- ------- -- ---- --- --<br>------- ------,239495.89999997616,239494.79999995232,238635.954,238648.5,238652.571,239502.624,,43,credit.
screen,html.Screen,2_1_1_1_44,2022-05-09T12:39:30.796Z,,,,,,,,,,,,,,,,,54,,,,,,,,,,,,,,219.17599995230557,,response,,,,100,,,,,,,Space,keypress(Space),,,,,,,,-- --- ---- --- ------ ----- ------- ---- -- --- ------- --<br>------- ---------- ------ -- ----- -- ----- -- ---- ------<br>--- ----- --- --- ------ -------- ----- --- ------ ----- --<br>----- ----- ---------- --- --- ------ ------ ---- -- ------<br>------- The ------ ----- --- ---- ------- -- ---- --- --<br>------- ------,239723,239721.79999995232,239486.071,239496.69999992847,239502.624,239736.111,,44,The
screen,html.Screen,2_1_1_1_45,2022-05-09T12:39:31.088Z,,,,,,,,,,,,,,,,,54,,,,,,,,,,,,,,277.68899995231186,,response,,,,100,,,,,,,Space,keypress(Space),,,,,,,,-- --- ---- --- ------ ----- ------- ---- -- --- ------- --<br>------- ---------- ------ -- ----- -- ----- -- ---- ------<br>--- ----- --- --- ------ -------- ----- --- ------ ----- --<br>----- ----- ---------- --- --- ------ ------ ---- -- ------<br>------- --- French ----- --- ---- ------- -- ---- --- --<br>------- ------,240014.89999997616,240013.79999995232,239719.416,239723.19999992847,239736.111,240019.271,,45,French
screen,html.Screen,2_1_1_1_46,2022-05-09T12:39:31.430Z,,,,,,,,,,,,,,,,,54,,,,,,,,,,,,,,336.32900002383394,,response,,,,100,,,,,,,Space,keypress(Space),,,,,,,,-- --- ---- --- ------ ----- ------- ---- -- --- ------- --<br>------- ---------- ------ -- ----- -- ----- -- ---- ------<br>--- ----- --- --- ------ -------- ----- --- ------ ----- --<br>----- ----- ---------- --- --- ------ ------ ---- -- ------<br>------- --- ------ state --- ---- ------- -- ---- --- --<br>------- ------,240356.79999995232,240355.60000002384,240002.667,240015.10000002384,240019.271,240369.46,,46,state
screen,html.Screen,2_1_1_1_47,2022-05-09T12:39:31.859Z,,,,,,,,,,,,,,,,,54,,,,,,,,,,,,,,415.33999995232443,,response,,,,100,,,,,,,Space,keypress(Space),,,,,,,,-- --- ---- --- ------ ----- ------- ---- -- --- ------- --<br>------- ---------- ------ -- ----- -- ----- -- ---- ------<br>--- ----- --- --- ------ -------- ----- --- ------ ----- --<br>----- ----- ---------- --- --- ------ ------ ---- -- ------<br>------- --- ------ ----- was ---- ------- -- ---- --- --<br>------- ------,240785.89999997616,240784.79999995232,240352.765,240357.10000002384,240369.46,240802.717,,47,was
screen,html.Screen,2_1_1_1_48,2022-05-09T12:39:32.138Z,,,,,,,,,,,,,,,,,54,,,,,,,,,,,,,,261.0829999523121,,response,,,,100,,,,,,,Space,keypress(Space),,,,,,,,-- --- ---- --- ------ ----- ------- ---- -- --- ------- --<br>------- ---------- ------ -- ----- -- ----- -- ---- ------<br>--- ----- --- --- ------ -------- ----- --- ------ ----- --<br>----- ----- ---------- --- --- ------ ------ ---- -- ------<br>------- --- ------ ----- --- left ------- -- ---- --- --<br>------- ------,241065,241063.79999995232,240786.04,240786.10000002384,240802.717,241069.319,,48,left
screen,html.Screen,2_1_1_1_49,2022-05-09T12:39:32.508Z,,,,,,,,,,,,,,,,,54,,,,,,,,,,,,,,364.08099997616955,,response,,,,100,,,,,,,Space,keypress(Space),,,,,,,,-- --- ---- --- ------ ----- ------- ---- -- --- ------- --<br>------- ---------- ------ -- ----- -- ----- -- ---- ------<br>--- ----- --- --- ------ -------- ----- --- ------ ----- --<br>----- ----- ---------- --- --- ------ ------ ---- -- ------<br>------- --- ------ ----- --- ---- without -- ---- --- --<br>------- ------,241434.60000002384,241433.39999997616,241052.803,241065.39999997616,241069.319,241457.973,,49,without
screen,html.Screen,2_1_1_1_50,2022-05-09T12:39:32.801Z,,,,,,,,,,,,,,,,,54,,,,,,,,,,,,,,268.6270000238437,,response,,,,100,,,,,,,Space,keypress(Space),,,,,,,,-- --- ---- --- ------ ----- ------- ---- -- --- ------- --<br>------- ---------- ------ -- ----- -- ----- -- ---- ------<br>--- ----- --- --- ------ -------- ----- --- ------ ----- --<br>----- ----- ---------- --- --- ------ ------ ---- -- ------<br>------- --- ------ ----- --- ---- ------- an ---- --- --<br>------- ------,241727.69999992847,241726.60000002384,241419.515,241434.79999995232,241457.973,241736.06,,50,an
screen,html.Screen,2_1_1_1_51,2022-05-09T12:39:33.104Z,,,,,,,,,,,,,,,,,54,,,,,,,,,,,,,,293.83999997616047,,response,,,,100,,,,,,,Space,keypress(Space),,,,,,,,-- --- ---- --- ------ ----- ------- ---- -- --- ------- --<br>------- ---------- ------ -- ----- -- ----- -- ---- ------<br>--- ----- --- --- ------ -------- ----- --- ------ ----- --<br>----- ----- ---------- --- --- ------ ------ ---- -- ------<br>------- --- ------ ----- --- ---- ------- -- easy --- --<br>------- ------,242031.10000002384,242029.89999997616,241719.503,241728,241736.06,242036.02,,51,easy
screen,html.Screen,2_1_1_1_52,2022-05-09T12:39:33.467Z,,,,,,,,,,,,,,,,,54,,,,,,,,,,,,,,357.08000002385234,,response,,,,100,,,,,,,Space,keypress(Space),,,,,,,,-- --- ---- --- ------ ----- ------- ---- -- --- ------- --<br>------- ---------- ------ -- ----- -- ----- -- ---- ------<br>--- ----- --- --- ------ -------- ----- --- ------ ----- --<br>----- ----- ---------- --- --- ------ ------ ---- -- ------<br>------- --- ------ ----- --- ---- ------- -- ---- way --<br>------- ------,242394.19999992847,242393.10000002384,242019.492,242031.39999997616,242036.02,242402.893,,52,way
screen,html.Screen,2_1_1_1_53,2022-05-09T12:39:33.831Z,,,,,,,,,,,,,,,,,54,,,,,,,,,,,,,,353.60699999998906,,response,,,,100,,,,,,,Space,keypress(Space),,,,,,,,-- --- ---- --- ------ ----- ------- ---- -- --- ------- --<br>------- ---------- ------ -- ----- -- ----- -- ---- ------<br>--- ----- --- --- ------ -------- ----- --- ------ ----- --<br>----- ----- ---------- --- --- ------ ------ ---- -- ------<br>------- --- ------ ----- --- ---- ------- -- ---- --- of<br>------- ------,242757.69999992847,242756.5,242386.119,242394.39999997616,242402.893,242769.485,,53,of
screen,html.Screen,2_1_1_1_54,2022-05-09T12:39:34.537Z,,,,,,,,,,,,,,,,,54,,,,,,,,,,,,,,693.3149999523303,,response,,,,100,,,,,,,Space,keypress(Space),,,,,,,,-- --- ---- --- ------ ----- ------- ---- -- --- ------- --<br>------- ---------- ------ -- ----- -- ----- -- ---- ------<br>--- ----- --- --- ------ -------- ----- --- ------ ----- --<br>----- ----- ---------- --- --- ------ ------ ---- -- ------<br>------- --- ------ ----- --- ---- ------- -- ---- --- --<br>raising ------,243464,243462.79999995232,242752.878,242757.89999997616,242769.485,243469.425,,54,raising
screen,html.Screen,2_1_1_1_55,2022-05-09T12:39:35.225Z,,,,,,,,,,,,,,,,,54,,,,,,,,,,,,,,681.4749999761698,,response,,,,100,,,,,,,Space,keypress(Space),,,,,,,,-- --- ---- --- ------ ----- ------- ---- -- --- ------- --<br>------- ---------- ------ -- ----- -- ----- -- ---- ------<br>--- ----- --- --- ------ -------- ----- --- ------ ----- --<br>----- ----- ---------- --- --- ------ ------ ---- -- ------<br>------- --- ------ ----- --- ---- ------- -- ---- --- --<br>------- money.,244152.10000002384,244150.89999997616,243452.801,243464.19999992847,243469.425,244169.596,,55,money.
Item 100,flow.Loop,2_1_1_1,2022-05-09T12:39:35.226Z,,,,,,,,,,,,,,,,,,,,,,,,,,,,,,,22382.35899997616,,completion,,,,,F,,,,,,,,,,,silence,,,,,244152.5,244150.89999997616,221751.973,221753.10000002384,221768.541,244169.596,,,
Question 1,html.Screen,2_1_1_2,2022-05-09T12:39:38.573Z,,,,,,,,,,,,,,,,,,,,,,,,,,,,true,TRUE,,3329.3039999761677,,response,,,,100,F,,,,,,TRUE,click #choice-1,,,,silence,,,,,247499.89999997616,247498.89999997616,244152.912,244152.69999992847,244169.596,247502.85,,,
Question 2,html.Screen,2_1_1_3,2022-05-09T12:39:40.974Z,,,,,,,,,,,,,,,,,,,,,,,,,,,,true,FALSE,,2397.0499999761523,,response,,,,100,F,,,,,,FALSE,click #choice-2,,,,silence,,,,,249900.69999992847,249899.89999997616,247486.503,247499.89999997616,247502.85,249902.97,,,
Item 100,flow.Sequence,2_1_1,2022-05-09T12:39:40.974Z,,,,,,,,,,,,,,,,,,,,,,,,,,,,,,,38131.77199997616,,completion,,,,,,,,,,,,,,,,,,,,,249900.79999995232,249899.89999997616,211751.517,211754.29999995232,211768.128,249902.97,,,
End of Practice,html.Page,2_1_2,2022-05-09T12:39:47.010Z,,,,,,,,,,,,,,,,,,,,,,,,,,,,,,,6033.829999952315,,form submission,,,,,,,,,,,,,,,,,,,,,255937.19999992847,255936.79999995232,249886.453,249900.89999997616,249902.97,255960.509,,,
Practice,flow.Sequence,2_1,2022-05-09T12:39:47.010Z,,,,,,,,,,,,,,,,,,,,,,,,,,,,,,,89553.76899995233,,completion,,,,,,,,,,,,,,,,,,,,,255937.39999997616,255936.79999995232,166366.317,166380.79999995232,166383.031,255960.509,,,
Trap_instruction,html.Page,2_2_0,2022-05-09T12:39:52.658Z,,,,,,,,,,,,,,,,,,,,,,,,,,,,,,,5624.491000000009,,form submission,,,,,,,,,,,,,,,,,,,,,261585.19999992847,261585,255919.931,255937.39999997616,255960.509,261620.081,,,
trap_trial,html.Screen,2_2_1,2022-05-09T12:39:56.503Z,,,,,,,,,,,,,,,,,,,,,,,,,,,,true,1,,3809.0190000238363,,response,,,,,,,,,,,1,click #choice-1,,,,,,,,,265429.89999997616,265429.10000002384,261570.269,261585.29999995232,261620.081,265436.898,,,
end of trap trial,html.Page,2_2_2,2022-05-09T12:39:58.453Z,,,,,,,,,,,,,,,,,,,,,,,,,,,,,,,1942.7020000238554,,form submission,,,,,,,,,,,,,,,,,,,,,267379.89999997616,267379.60000002384,265420.343,265430,265436.898,267387.051,,,
Trap 1,flow.Sequence,2_2,2022-05-09T12:39:58.453Z,,,,,,,,,,,,,,,,,,,,,,,,,,,,,,,11419.091000023851,,completion,,,,,,,,,,,,,,,,,,,,,267380.10000002384,267379.60000002384,255919.931,255937.39999997616,255960.509,267387.051,,,
Standby,html.Page,2_3_0,2022-05-09T12:40:06.445Z,,,,,,,,,,,,,,,,,,,,,,,,,,,,,,,8000.311000000045,,timeout,,,,,,,,,,,,,,,,,,,,,275371.89999997616,275370.69,267370.413,267380.2999999523,267387.051,275387.362,,,
Holding screen,html.Screen,2_3_1_0_0,2022-05-09T12:40:13.445Z,,,,,,,,,,,,,,,,,,,,,,,,,,,,,,,7000.281999999948,,timeout,,,,,,,,,,,,,,,,,,,,,282372.1999999285,282371.104,275370.69,275372.2999999523,275387.362,282387.644,,,
screen,html.Screen,2_3_1_0_1_0,2022-05-09T12:40:14.507Z,,,,,,,,,,,,,,,,,19,,,,,,,,,,,,,,1044.6559999523452,,response,,,,17,F,,,,,,Space,keypress(Space),,,,lyrical,,,,"Interestingly, --- -------- -------- ---------- ---- -------<br>-- ---------- -- --- ----- ------ ----- ---- --------- ----<br>------- ------ -------- -- ------ ---------- ------ ---<br>------ -- -- ---- -- ---------- -------- ------ ---- -------<br>---- --- --------- ------- ----- --------- ---- ----- --<br>------ -------- -- ------ -- ---- ------------",283433.6999999285,283432.2999999523,282371.104,282374.39999997616,282387.644,283437.69,,0,"Interestingly,"
screen,html.Screen,2_3_1_0_1_1,2022-05-09T12:40:14.981Z,,,,,,,,,,,,,,,,,19,,,,,,,,,,,,,,469.5099999284721,,response,,,,17,F,,,,,,Space,keypress(Space),,,,lyrical,,,,-------------- the -------- -------- ---------- ---- -------<br>-- ---------- -- --- ----- ------ ----- ---- --------- ----<br>------- ------ -------- -- ------ ---------- ------ ---<br>------ -- -- ---- -- ---------- -------- ------ ---- -------<br>---- --- --------- ------- ----- --------- ---- ----- --<br>------ -------- -- ------ -- ---- ------------,283908.39999997616,283907.1999999285,283421.03,283434,283437.69,283921.065,,1,the
screen,html.Screen,2_3_1_0_1_2,2022-05-09T12:40:15.545Z,,,,,,,,,,,,,,,,,19,,,,,,,,,,,,,,550.3349999761558,,response,,,,17,F,,,,,,Space,keypress(Space),,,,lyrical,,,,-------------- --- heaviest -------- ---------- ---- -------<br>-- ---------- -- --- ----- ------ ----- ---- --------- ----<br>------- ------ -------- -- ------ ---------- ------ ---<br>------ -- -- ---- -- ---------- -------- ------ ---- -------<br>---- --- --------- ------- ----- --------- ---- ----- --<br>------ -------- -- ------ -- ---- ------------,284472.2999999523,284471.39999997616,283904.353,283908.6999999285,283921.065,284487.775,,2,heaviest
screen,html.Screen,2_3_1_0_1_3,2022-05-09T12:40:15.897Z,,,,,,,,,,,,,,,,,19,,,,,,,,,,,,,,335.024999952293,,response,,,,17,F,,,,,,Space,keypress(Space),,,,lyrical,,,,-------------- --- -------- isotopes ---------- ---- -------<br>-- ---------- -- --- ----- ------ ----- ---- --------- ----<br>------- ------ -------- -- ------ ---------- ------ ---<br>------ -- -- ---- -- ---------- -------- ------ ---- -------<br>---- --- --------- ------- ----- --------- ---- ----- --<br>------ -------- -- ------ -- ---- ------------,284823.7999999523,284822.7999999523,284471.204,284472.60000002384,284487.775,284837.805,,3,isotopes
screen,html.Screen,2_3_1_0_1_4,2022-05-09T12:40:16.595Z,,,,,,,,,,,,,,,,,19,,,,,,,,,,,,,,683.4949999523233,,response,,,,17,F,,,,,,Space,keypress(Space),,,,lyrical,,,,-------------- --- -------- -------- physicists ---- -------<br>-- ---------- -- --- ----- ------ ----- ---- --------- ----<br>------- ------ -------- -- ------ ---------- ------ ---<br>------ -- -- ---- -- ---------- -------- ------ ---- -------<br>---- --- --------- ------- ----- --------- ---- ----- --<br>------ -------- -- ------ -- ---- ------------,285522.39999997616,285521.2999999523,284821.028,284824.10000002384,284837.805,285537.921,,4,physicists
screen,html.Screen,2_3_1_0_1_5,2022-05-09T12:40:17.057Z,,,,,,,,,,,,,,,,,19,,,,,,,,,,,,,,444.3789999523433,,response,,,,17,F,,,,,,Space,keypress(Space),,,,lyrical,,,,-------------- --- -------- -------- ---------- have -------<br>-- ---------- -- --- ----- ------ ----- ---- --------- ----<br>------- ------ -------- -- ------ ---------- ------ ---<br>------ -- -- ---- -- ---------- -------- ------ ---- -------<br>---- --- --------- ------- ----- --------- ---- ----- --<br>------ -------- -- ------ -- ---- ------------,285983.39999997616,285982.2999999523,285521.14,285522.5,285537.921,285988.118,,5,have
screen,html.Screen,2_3_1_0_1_6,2022-05-09T12:40:17.495Z,,,,,,,,,,,,,,,,,19,,,,,,,,,,,,,,432.6819999522995,,response,,,,17,F,,,,,,Space,keypress(Space),,,,lyrical,,,,-------------- --- -------- -------- ---------- ---- managed<br>-- ---------- -- --- ----- ------ ----- ---- --------- ----<br>------- ------ -------- -- ------ ---------- ------ ---<br>------ -- -- ---- -- ---------- -------- ------ ---- -------<br>---- --- --------- ------- ----- --------- ---- ----- --<br>------ -------- -- ------ -- ---- ------------,286421.6999999285,286420.7999999523,285971.263,285983.89999997616,285988.118,286437.85,,6,managed
screen,html.Screen,2_3_1_0_1_7,2022-05-09T12:40:17.783Z,,,,,,,,,,,,,,,,,19,,,,,,,,,,,,,,270.5499999761814,,response,,,,17,F,,,,,,Space,keypress(Space),,,,lyrical,,,,-------------- --- -------- -------- ---------- ---- -------<br>to ---------- -- --- ----- ------ ----- ---- --------- ----<br>------- ------ -------- -- ------ ---------- ------ ---<br>------ -- -- ---- -- ---------- -------- ------ ---- -------<br>---- --- --------- ------- ----- --------- ---- ----- --<br>------ -------- -- ------ -- ---- ------------,286709.5,286708.39999997616,286421.048,286422,286437.85,286721.28,,7,to
screen,html.Screen,2_3_1_0_1_8,2022-05-09T12:40:18.355Z,,,,,,,,,,,,,,,,,19,,,,,,,,,,,,,,559.8200000238139,,response,,,,17,F,,,,,,Space,keypress(Space),,,,lyrical,,,,-------------- --- -------- -------- ---------- ---- -------<br>-- synthesize -- --- ----- ------ ----- ---- --------- ----<br>------- ------ -------- -- ------ ---------- ------ ---<br>------ -- -- ---- -- ---------- -------- ------ ---- -------<br>---- --- --------- ------- ----- --------- ---- ----- --<br>------ -------- -- ------ -- ---- ------------,287282.10000002384,287281.10000002384,286704.568,286709.7999999523,286721.28,287287.824,,8,synthesize
screen,html.Screen,2_3_1_0_1_9,2022-05-09T12:40:18.708Z,,,,,,,,,,,,,,,,,19,,,,,,,,,,,,,,346.2760000238195,,response,,,,17,F,,,,,,Space,keypress(Space),,,,lyrical,,,,-------------- --- -------- -------- ---------- ---- -------<br>-- ---------- so --- ----- ------ ----- ---- --------- ----<br>------- ------ -------- -- ------ ---------- ------ ---<br>------ -- -- ---- -- ---------- -------- ------ ---- -------<br>---- --- --------- ------- ----- --------- ---- ----- --<br>------ -------- -- ------ -- ---- ------------,287635.2999999523,287634.10000002384,287271.267,287282.2999999523,287287.824,287637.835,,9,so
screen,html.Screen,2_3_1_0_1_10,2022-05-09T12:40:19.101Z,,,,,,,,,,,,,,,,,19,,,,,,,,,,,,,,388.66499999997905,,response,,,,17,F,,,,,,Space,keypress(Space),,,,lyrical,,,,-------------- --- -------- -------- ---------- ---- -------<br>-- ---------- -- far ----- ------ ----- ---- --------- ----<br>------- ------ -------- -- ------ ---------- ------ ---<br>------ -- -- ---- -- ---------- -------- ------ ---- -------<br>---- --- --------- ------- ----- --------- ---- ----- --<br>------ -------- -- ------ -- ---- ------------,288027.89999997616,288026.5,287621.165,287635.5,287637.835,288037.943,,10,far
screen,html.Screen,2_3_1_0_1_11,2022-05-09T12:40:19.410Z,,,,,,,,,,,,,,,,,19,,,,,,,,,,,,,,297.3569999522879,,response,,,,17,F,,,,,,Space,keypress(Space),,,,lyrical,,,,-------------- --- -------- -------- ---------- ---- -------<br>-- ---------- -- --- don't ------ ----- ---- --------- ----<br>------- ------ -------- -- ------ ---------- ------ ---<br>------ -- -- ---- -- ---------- -------- ------ ---- -------<br>---- --- --------- ------- ----- --------- ---- ----- --<br>------ -------- -- ------ -- ---- ------------,288336.39999997616,288335.2999999523,288021.238,288028.10000002384,288037.943,288363.891,,11,don't
screen,html.Screen,2_3_1_0_1_12,2022-05-09T12:40:19.809Z,,,,,,,,,,,,,,,,,19,,,,,,,,,,,,,,370.0089999761549,,response,,,,17,F,,,,,,Space,keypress(Space),,,,lyrical,,,,-------------- --- -------- -------- ---------- ---- -------<br>-- ---------- -- --- ----- behave ----- ---- --------- ----<br>------- ------ -------- -- ------ ---------- ------ ---<br>------ -- -- ---- -- ---------- -------- ------ ---- -------<br>---- --- --------- ------- ----- --------- ---- ----- --<br>------ -------- -- ------ -- ---- ------------,288735.2999999523,288733.89999997616,288321.204,288336.6999999285,288363.891,288737.88,,12,behave
screen,html.Screen,2_3_1_0_1_13,2022-05-09T12:40:20.221Z,,,,,,,,,,,,,,,,,19,,,,,,,,,,,,,,408.2200000238372,,response,,,,17,F,,,,,,Space,keypress(Space),,,,lyrical,,,,-------------- --- -------- -------- ---------- ---- -------<br>-- ---------- -- --- ----- ------ quite ---- --------- ----<br>------- ------ -------- -- ------ ---------- ------ ---<br>------ -- -- ---- -- ---------- -------- ------ ---- -------<br>---- --- --------- ------- ----- --------- ---- ----- --<br>------ -------- -- ------ -- ---- ------------,289147.2999999523,289146.10000002384,288721.328,288735.60000002384,288737.88,289154.761,,13,quite
screen,html.Screen,2_3_1_0_1_14,2022-05-09T12:40:20.514Z,,,,,,,,,,,,,,,,,19,,,,,,,,,,,,,,285.33900002384325,,response,,,,17,F,,,,,,Space,keypress(Space),,,,lyrical,,,,-------------- --- -------- -------- ---------- ---- -------<br>-- ---------- -- --- ----- ------ ----- like --------- ----<br>------- ------ -------- -- ------ ---------- ------ ---<br>------ -- -- ---- -- ---------- -------- ------ ---- -------<br>---- --- --------- ------- ----- --------- ---- ----- --<br>------ -------- -- ------ -- ---- ------------,289441.2999999523,289440.10000002384,289137.96,289147.5,289154.761,289454.624,,14,like
screen,html.Screen,2_3_1_0_1_15,2022-05-09T12:40:20.832Z,,,,,,,,,,,,,,,,,19,,,,,,,,,,,,,,302.8759999999893,,response,,,,17,F,,,,,,Space,keypress(Space),,,,lyrical,,,,-------------- --- -------- -------- ---------- ---- -------<br>-- ---------- -- --- ----- ------ ----- ---- science's ----<br>------- ------ -------- -- ------ ---------- ------ ---<br>------ -- -- ---- -- ---------- -------- ------ ---- -------<br>---- --- --------- ------- ----- --------- ---- ----- --<br>------ -------- -- ------ -- ---- ------------,289758.6999999285,289757.5,289437.967,289441.5,289454.624,289771.209,,15,science's
screen,html.Screen,2_3_1_0_1_16,2022-05-09T12:40:21.259Z,,,,,,,,,,,,,,,,,19,,,,,,,,,,,,,,412.5909999523428,,response,,,,17,F,,,,,,Space,keypress(Space),,,,lyrical,,,,-------------- --- -------- -------- ---------- ---- -------<br>-- ---------- -- --- ----- ------ ----- ---- --------- best<br>------- ------ -------- -- ------ ---------- ------ ---<br>------ -- -- ---- -- ---------- -------- ------ ---- -------<br>---- --- --------- ------- ----- --------- ---- ----- --<br>------ -------- -- ------ -- ---- ------------,290185.1999999285,290183.7999999523,289754.633,289758.89999997616,289771.209,290187.931,,16,best
screen,html.Screen,2_3_1_0_1_17,2022-05-09T12:40:21.676Z,,,,,,,,,,,,,,,,,19,,,,,,,,,,,,,,413.2689999284921,,response,,,,17,F,,,,,,Space,keypress(Space),,,,lyrical,,,,-------------- --- -------- -------- ---------- ---- -------<br>-- ---------- -- --- ----- ------ ----- ---- --------- ----<br>current ------ -------- -- ------ ---------- ------ ---<br>------ -- -- ---- -- ---------- -------- ------ ---- -------<br>---- --- --------- ------- ----- --------- ---- ----- --<br>------ -------- -- ------ -- ---- ------------,290602.39999997616,290601.1999999285,290171.324,290185.5,290187.931,290604.615,,17,current
screen,html.Screen,2_3_1_0_1_18,2022-05-09T12:40:22.345Z,,,,,,,,,,,,,,,,,19,,,,,,,,,,,,,,665.8850000000093,,response,,,,17,F,,,,,,Space,keypress(Space),,,,lyrical,,,,-------------- --- -------- -------- ---------- ---- -------<br>-- ---------- -- --- ----- ------ ----- ---- --------- ----<br>------- models -------- -- ------ ---------- ------ ---<br>------ -- -- ---- -- ---------- -------- ------ ---- -------<br>---- --- --------- ------- ----- --------- ---- ----- --<br>------ -------- -- ------ -- ---- ------------,291271.60000002384,291270.5,290588.101,290602.60000002384,290604.615,291288.129,,18,models
screen,html.Screen,2_3_1_0_1_19,2022-05-09T12:40:22.706Z,,,,,,,,,,,,,,,,,19,,,,,,,,,,,,,,343.4710000238265,,response,,,,17,F,,,,,,Space,keypress(Space),,,,lyrical,,,,"-------------- --- -------- -------- ---------- ---- -------<br>-- ---------- -- --- ----- ------ ----- ---- --------- ----<br>------- ------ predict, -- ------ ---------- ------ ---<br>------ -- -- ---- -- ---------- -------- ------ ---- -------<br>---- --- --------- ------- ----- --------- ---- ----- --<br>------ -------- -- ------ -- ---- ------------",291632.6999999285,291631.60000002384,291271.428,291271.7999999523,291288.129,291637.996,,19,"predict,"
screen,html.Screen,2_3_1_0_1_20,2022-05-09T12:40:23.215Z,,,,,,,,,,,,,,,,,19,,,,,,,,,,,,,,502.9039999761735,,response,,,,17,F,,,,,,Space,keypress(Space),,,,lyrical,,,,-------------- --- -------- -------- ---------- ---- -------<br>-- ---------- -- --- ----- ------ ----- ---- --------- ----<br>------- ------ -------- so ------ ---------- ------ ---<br>------ -- -- ---- -- ---------- -------- ------ ---- -------<br>---- --- --------- ------- ----- --------- ---- ----- --<br>------ -------- -- ------ -- ---- ------------,292142,292140.89999997616,291621.445,291632.89999997616,291637.996,292154.856,,20,so
screen,html.Screen,2_3_1_0_1_21,2022-05-09T12:40:23.604Z,,,,,,,,,,,,,,,,,19,,,,,,,,,,,,,,374.54399997612927,,response,,,,17,F,,,,,,Space,keypress(Space),,,,lyrical,,,,-------------- --- -------- -------- ---------- ---- -------<br>-- ---------- -- --- ----- ------ ----- ---- --------- ----<br>------- ------ -------- -- stable ---------- ------ ---<br>------ -- -- ---- -- ---------- -------- ------ ---- -------<br>---- --- --------- ------- ----- --------- ---- ----- --<br>------ -------- -- ------ -- ---- ------------,292530.6999999285,292529.39999997616,292138.088,292142.2999999523,292154.856,292538.077,,21,stable
screen,html.Screen,2_3_1_0_1_22,2022-05-09T12:40:24.354Z,,,,,,,,,,,,,,,,,19,,,,,,,,,,,,,,741.1229999284842,,response,,,,17,F,,,,,,Space,keypress(Space),,,,lyrical,,,,-------------- --- -------- -------- ---------- ---- -------<br>-- ---------- -- --- ----- ------ ----- ---- --------- ----<br>------- ------ -------- -- ------ superheavy ------ ---<br>------ -- -- ---- -- ---------- -------- ------ ---- -------<br>---- --- --------- ------- ----- --------- ---- ----- --<br>------ -------- -- ------ -- ---- ------------,293280.60000002384,293279.1999999285,292521.399,292531,292538.077,293288.15,,22,superheavy
screen,html.Screen,2_3_1_0_1_23,2022-05-09T12:40:25.082Z,,,,,,,,,,,,,,,,,19,,,,,,,,,,,,,,719.149999952293,,response,,,,17,F,,,,,,Space,keypress(Space),,,,lyrical,,,,-------------- --- -------- -------- ---------- ---- -------<br>-- ---------- -- --- ----- ------ ----- ---- --------- ----<br>------- ------ -------- -- ------ ---------- nuclei ---<br>------ -- -- ---- -- ---------- -------- ------ ---- -------<br>---- --- --------- ------- ----- --------- ---- ----- --<br>------ -------- -- ------ -- ---- ------------,294008.5,294007.2999999523,293271.431,293280.89999997616,293288.15,294021.507,,23,nuclei
screen,html.Screen,2_3_1_0_1_24,2022-05-09T12:40:25.460Z,,,,,,,,,,,,,,,,,19,,,,,,,,,,,,,,363.99300000001676,,response,,,,17,F,,,,,,Space,keypress(Space),,,,lyrical,,,,-------------- --- -------- -------- ---------- ---- -------<br>-- ---------- -- --- ----- ------ ----- ---- --------- ----<br>------- ------ -------- -- ------ ---------- ------ are<br>------ -- -- ---- -- ---------- -------- ------ ---- -------<br>---- --- --------- ------- ----- --------- ---- ----- --<br>------ -------- -- ------ -- ---- ------------,294386.6999999285,294385.5,294004.87,294008.6999999285,294021.507,294413.789,,24,are
screen,html.Screen,2_3_1_0_1_25,2022-05-09T12:40:25.851Z,,,,,,,,,,,,,,,,,19,,,,,,,,,,,,,,361.71100000001024,,response,,,,17,F,,,,,,Space,keypress(Space),,,,lyrical,,,,-------------- --- -------- -------- ---------- ---- -------<br>-- ---------- -- --- ----- ------ ----- ---- --------- ----<br>------- ------ -------- -- ------ ---------- ------ ---<br>likely -- -- ---- -- ---------- -------- ------ ---- -------<br>---- --- --------- ------- ----- --------- ---- ----- --<br>------ -------- -- ------ -- ---- ------------,294777.2999999523,294775.5,294371.478,294386.89999997616,294413.789,294788.063,,25,likely
screen,html.Screen,2_3_1_0_1_26,2022-05-09T12:40:26.193Z,,,,,,,,,,,,,,,,,19,,,,,,,,,,,,,,330.1369999284507,,response,,,,17,F,,,,,,Space,keypress(Space),,,,lyrical,,,,-------------- --- -------- -------- ---------- ---- -------<br>-- ---------- -- --- ----- ------ ----- ---- --------- ----<br>------- ------ -------- -- ------ ---------- ------ ---<br>------ to -- ---- -- ---------- -------- ------ ---- -------<br>---- --- --------- ------- ----- --------- ---- ----- --<br>------ -------- -- ------ -- ---- ------------,295119.39999997616,295118.1999999285,294771.571,294777.60000002384,294788.063,295121.429,,26,to
screen,html.Screen,2_3_1_0_1_27,2022-05-09T12:40:26.566Z,,,,,,,,,,,,,,,,,19,,,,,,,,,,,,,,370.4709999761544,,response,,,,17,F,,,,,,Space,keypress(Space),,,,lyrical,,,,-------------- --- -------- -------- ---------- ---- -------<br>-- ---------- -- --- ----- ------ ----- ---- --------- ----<br>------- ------ -------- -- ------ ---------- ------ ---<br>------ -- be ---- -- ---------- -------- ------ ---- -------<br>---- --- --------- ------- ----- --------- ---- ----- --<br>------ -------- -- ------ -- ---- ------------,295493,295491.89999997616,295104.792,295119.60000002384,295121.429,295504.865,,27,be
screen,html.Screen,2_3_1_0_1_28,2022-05-09T12:40:26.872Z,,,,,,,,,,,,,,,,,19,,,,,,,,,,,,,,292.23500002385117,,response,,,,17,F,,,,,,Space,keypress(Space),,,,lyrical,,,,-------------- --- -------- -------- ---------- ---- -------<br>-- ---------- -- --- ----- ------ ----- ---- --------- ----<br>------- ------ -------- -- ------ ---------- ------ ---<br>------ -- -- full -- ---------- -------- ------ ---- -------<br>---- --- --------- ------- ----- --------- ---- ----- --<br>------ -------- -- ------ -- ---- ------------,295798.2999999523,295797.10000002384,295488.213,295493.1999999285,295504.865,295804.813,,28,full
screen,html.Screen,2_3_1_0_1_29,2022-05-09T12:40:27.201Z,,,,,,,,,,,,,,,,,19,,,,,,,,,,,,,,321.2870000238181,,response,,,,17,F,,,,,,Space,keypress(Space),,,,lyrical,,,,-------------- --- -------- -------- ---------- ---- -------<br>-- ---------- -- --- ----- ------ ----- ---- --------- ----<br>------- ------ -------- -- ------ ---------- ------ ---<br>------ -- -- ---- of ---------- -------- ------ ---- -------<br>---- --- --------- ------- ----- --------- ---- ----- --<br>------ -------- -- ------ -- ---- ------------,296127.2999999523,296126.10000002384,295788.273,295798.5,295804.813,296138.291,,29,of
screen,html.Screen,2_3_1_0_1_30,2022-05-09T12:40:27.743Z,,,,,,,,,,,,,,,,,19,,,,,,,,,,,,,,530.3090000238153,,response,,,,17,F,,,,,,Space,keypress(Space),,,,lyrical,,,,-------------- --- -------- -------- ---------- ---- -------<br>-- ---------- -- --- ----- ------ ----- ---- --------- ----<br>------- ------ -------- -- ------ ---------- ------ ---<br>------ -- -- ---- -- surprises. -------- ------ ---- -------<br>---- --- --------- ------- ----- --------- ---- ----- --<br>------ -------- -- ------ -- ---- ------------,296669.7999999523,296668.60000002384,296121.563,296127.60000002384,296138.291,296693.511,,30,surprises.
screen,html.Screen,2_3_1_0_1_31,2022-05-09T12:40:28.056Z,,,,,,,,,,,,,,,,,19,,,,,,,,,,,,,,287.7889999523177,,response,,,,17,F,,,,,,Space,keypress(Space),,,,lyrical,,,,-------------- --- -------- -------- ---------- ---- -------<br>-- ---------- -- --- ----- ------ ----- ---- --------- ----<br>------- ------ -------- -- ------ ---------- ------ ---<br>------ -- -- ---- -- ---------- Chemists ------ ---- -------<br>---- --- --------- ------- ----- --------- ---- ----- --<br>------ -------- -- ------ -- ---- ------------,296982.39999997616,296981.2999999523,296655.049,296670,296693.511,296988.201,,31,Chemists
screen,html.Screen,2_3_1_0_1_32,2022-05-09T12:40:28.414Z,,,,,,,,,,,,,,,,,19,,,,,,,,,,,,,,351.6989999761572,,response,,,,17,F,,,,,,Space,keypress(Space),,,,lyrical,,,,-------------- --- -------- -------- ---------- ---- -------<br>-- ---------- -- --- ----- ------ ----- ---- --------- ----<br>------- ------ -------- -- ------ ---------- ------ ---<br>------ -- -- ---- -- ---------- -------- cannot ---- -------<br>---- --- --------- ------- ----- --------- ---- ----- --<br>------ -------- -- ------ -- ---- ------------,297341.10000002384,297339.89999997616,296971.688,296982.6999999285,296988.201,297354.929,,32,cannot
screen,html.Screen,2_3_1_0_1_33,2022-05-09T12:40:28.778Z,,,,,,,,,,,,,,,,,19,,,,,,,,,,,,,,348.4709999761544,,response,,,,17,F,,,,,,Space,keypress(Space),,,,lyrical,,,,-------------- --- -------- -------- ---------- ---- -------<br>-- ---------- -- --- ----- ------ ----- ---- --------- ----<br>------- ------ -------- -- ------ ---------- ------ ---<br>------ -- -- ---- -- ---------- -------- ------ even -------<br>---- --- --------- ------- ----- --------- ---- ----- --<br>------ -------- -- ------ -- ---- ------------,297704.7999999523,297703.39999997616,297338.408,297341.39999997616,297354.929,297721.715,,33,even
screen,html.Screen,2_3_1_0_1_34,2022-05-09T12:40:29.155Z,,,,,,,,,,,,,,,,,19,,,,,,,,,,,,,,358.7849999999744,,response,,,,17,F,,,,,,Space,keypress(Space),,,,lyrical,,,,-------------- --- -------- -------- ---------- ---- -------<br>-- ---------- -- --- ----- ------ ----- ---- --------- ----<br>------- ------ -------- -- ------ ---------- ------ ---<br>------ -- -- ---- -- ---------- -------- ------ ---- predict<br>---- --- --------- ------- ----- --------- ---- ----- --<br>------ -------- -- ------ -- ---- ------------,298081.60000002384,298080.5,297705.002,297705,297721.715,298088.252,,34,predict
screen,html.Screen,2_3_1_0_1_35,2022-05-09T12:40:29.569Z,,,,,,,,,,,,,,,,,19,,,,,,,,,,,,,,405.94799992849585,,response,,,,17,F,,,,,,Space,keypress(Space),,,,lyrical,,,,-------------- --- -------- -------- ---------- ---- -------<br>-- ---------- -- --- ----- ------ ----- ---- --------- ----<br>------- ------ -------- -- ------ ---------- ------ ---<br>------ -- -- ---- -- ---------- -------- ------ ---- -------<br>with --- --------- ------- ----- --------- ---- ----- --<br>------ -------- -- ------ -- ---- ------------,298495.39999997616,298494.1999999285,298071.584,298081.89999997616,298088.252,298504.958,,35,with
screen,html.Screen,2_3_1_0_1_36,2022-05-09T12:40:30.248Z,,,,,,,,,,,,,,,,,19,,,,,,,,,,,,,,668.2419999284903,,response,,,,17,F,,,,,,Space,keypress(Space),,,,lyrical,,,,-------------- --- -------- -------- ---------- ---- -------<br>-- ---------- -- --- ----- ------ ----- ---- --------- ----<br>------- ------ -------- -- ------ ---------- ------ ---<br>------ -- -- ---- -- ---------- -------- ------ ---- -------<br>---- any --------- ------- ----- --------- ---- ----- --<br>------ -------- -- ------ -- ---- ------------,299174.60000002384,299173.1999999285,298488.269,298495.60000002384,298504.958,299188.366,,36,any
screen,html.Screen,2_3_1_0_1_37,2022-05-09T12:40:31.088Z,,,,,,,,,,,,,,,,,19,,,,,,,,,,,,,,825.0339999761782,,response,,,,17,F,,,,,,Space,keypress(Space),,,,lyrical,,,,-------------- --- -------- -------- ---------- ---- -------<br>-- ---------- -- --- ----- ------ ----- ---- --------- ----<br>------- ------ -------- -- ------ ---------- ------ ---<br>------ -- -- ---- -- ---------- -------- ------ ---- -------<br>---- --- certainty ------- ----- --------- ---- ----- --<br>------ -------- -- ------ -- ---- ------------,300014.89999997616,300013.39999997616,299171.733,299174.7999999523,299188.366,300021.665,,37,certainty
screen,html.Screen,2_3_1_0_1_38,2022-05-09T12:40:31.421Z,,,,,,,,,,,,,,,,,19,,,,,,,,,,,,,,324.63499995233724,,response,,,,17,F,,,,,,Space,keypress(Space),,,,lyrical,,,,-------------- --- -------- -------- ---------- ---- -------<br>-- ---------- -- --- ----- ------ ----- ---- --------- ----<br>------- ------ -------- -- ------ ---------- ------ ---<br>------ -- -- ---- -- ---------- -------- ------ ---- -------<br>---- --- --------- whether ----- --------- ---- ----- --<br>------ -------- -- ------ -- ---- ------------,300347.5,300346.2999999523,300004.974,300015.1999999285,300021.665,300354.969,,38,whether
