sender,sender_type,sender_id,timestamp,meta,,Blues,Classical,Country,Dance,Electronic,Folk,Gospel,Hip-Hop,Jazz,Latin,Musical/Film,New-age,Pop,Prolific_id,Provo_ID,R&B,Rap,Reggae,Religious,Rock,Soul,Swing,Traditional,age,artist_name,correct,correctResponse,distraction,duration,education,ended_on,familiarity,gender,headphone_check_performance,item,list,music_frequency,offensiveness,pleasantness,position_correct,preference,response,response_action,snippet_file,song_name,song_rating,sound,stimulus_1,stimulus_2,stimulus_3,text,time_commit,time_end,time_render,time_run,time_show,time_switch,url,word,word_ID
Prolific ID,html.Form,0,2022-05-02T10:35:14.625Z,"{""labjs_version"":""20.2.2"",""labjs_build"":{""flavor"":""production"",""commit"":""a25486e0c714a0ae2ce03ff94b7bb6896854dcfa""},""location"":""https://run.pavlovia.org/mvasilev/prolific3_music_f/"",""userAgent"":""Mozilla/5.0 (X11; CrOS x86_64 14526.89.0) AppleWebKit/537.36 (KHTML, like Gecko) Chrome/100.0.4896.133 Safari/537.36"",""platform"":""Linux x86_64"",""language"":""en-GB"",""locale"":""en-GB"",""timeZone"":""Europe/London"",""timezoneOffset"":-60,""screen_width"":1536,""screen_height"":864,""scroll_width"":1396,""scroll_height"":601,""window_innerWidth"":1396,""window_innerHeight"":649,""devicePixelRatio"":1.375}",,,,,,,,,,,,,,,5f4cbdf9f599118d27c21442,,,,,,,,,,,,,,,9098.29,,form submission,,,,,,,,,,,,,,,,,,,,,39048.5,39048,29649.722,29908.59999999999,29949.71,39083.413,{},,
Introduction,html.Screen,1_0,2022-05-02T10:35:18.353Z,,,,,,,,,,,,,,,,,,,,,,,,,,,,,,,3686.4869999999937,,response,,,,,,,,,,,continue,click button,,,,,,,,,42776.7,42769.899999999994,39033.404,39048.899999999994,39083.413,42783.458,,,
Volume calibration,html.Screen,1_1,2022-05-02T10:35:32.475Z,,,,,,,,,,,,,,,,,,,,,,,,,,,,,,,14112.842000000004,,response,,,,,,,,,,,continue,click button,,,,,,,,,56899.09999999999,56896.3,42766.792,42776.8,42783.458,56917.035,,,
Task instructions,html.Screen,1_2,2022-05-02T10:35:38.331Z,,,,,,,,,,,,,,,,,,,,,,,,,,,,,,,5832.864999999991,,response,,,,,,,,,,,continue,click button,,,,,,,,,62754.399999999994,62749.899999999994,56900.369,56899.3,56917.035,62767.118,,,
Sounds,html.Screen,1_3_0_0,2022-05-02T10:35:42.580Z,,,,,,,,,,,,,,,,,,,,,,,,,,,,,,,4249.889999999999,,timeout,,,,,,,,,1,,,,,,,,S,I,O,,67003.4,67000.342,62750.452,62754.5,62767.118,67017.008,,,
Judgement,html.Screen,1_3_0_1,2022-05-02T10:35:43.594Z,,,,,,,,,,,,,,,,,,,,,,,,,,,,true,1,,995.0919999999896,,response,,,,,,,,,1,,1,click #choice-1,,,,,S,I,O,,68017.59999999999,68012.09999999999,67000.342,67003.59999999999,67017.008,68033.887,,,
Trial,flow.Sequence,1_3_0,2022-05-02T10:35:43.594Z,,,,,,,,,,,,,,,,,,,,,,,,,,,,,,,5244.981999999989,,completion,,,,,,,,,1,,,,,,,,S,I,O,,68017.90000000001,68012.09999999999,62750.452,62754.5,62767.118,68033.887,,,
Sounds,html.Screen,1_3_1_0,2022-05-02T10:35:47.845Z,,,,,,,,,,,,,,,,,,,,,,,,,,,,,,,4249.853999999992,,timeout,,,,,,,,,1,,,,,,,,S,O,I,,72268.40000000001,72267.075,68017.221,68018.09999999999,68033.887,72283.741,,,
Judgement,html.Screen,1_3_1_1,2022-05-02T10:35:48.367Z,,,,,,,,,,,,,,,,,,,,,,,,,,,,true,1,,503.6590000000142,,response,,,,,,,,,1,,1,click #choice-1,,,,,S,O,I,,72790.59999999999,72787.40000000001,72267.075,72268.49999999999,72283.741,72800.627,,,
Trial,flow.Sequence,1_3_1,2022-05-02T10:35:48.367Z,,,,,,,,,,,,,,,,,,,,,,,,,,,,,,,4753.513000000006,,completion,,,,,,,,,1,,,,,,,,S,O,I,,72790.8,72787.40000000001,68017.221,68017.99999999999,68033.887,72800.627,,,
Sounds,html.Screen,1_3_2_0,2022-05-02T10:35:52.612Z,,,,,,,,,,,,,,,,,,,,,,,,,,,,,,,4249.871000000014,,timeout,,,,,,,,,3,,,,,,,,I,O,S,,77035.3,77033.832,72783.961,72790.99999999999,72800.627,77050.498,,,
Judgement,html.Screen,1_3_2_1,2022-05-02T10:35:53.366Z,,,,,,,,,,,,,,,,,,,,,,,,,,,,true,3,,734.9020000000019,,response,,,,,,,,,3,,3,click #choice-3,,,,,I,O,S,,77789.7,77785.40000000001,77033.832,77035.49999999999,77050.498,77800.726,,,
Trial,flow.Sequence,1_3_2,2022-05-02T10:35:53.366Z,,,,,,,,,,,,,,,,,,,,,,,,,,,,,,,4984.773000000016,,completion,,,,,,,,,3,,,,,,,,I,O,S,,77789.90000000001,77785.40000000001,72783.961,72790.90000000001,72800.627,77800.726,,,
Sounds,html.Screen,1_3_3_0,2022-05-02T10:35:57.611Z,,,,,,,,,,,,,,,,,,,,,,,,,,,,,,,4249.847999999998,,timeout,,,,,,,,,2,,,,,,,,I,S,O,,82034.90000000001,82033.908,77784.06,77789.99999999999,77800.726,82050.574,,,
Judgement,html.Screen,1_3_3_1,2022-05-02T10:35:58.349Z,,,,,,,,,,,,,,,,,,,,,,,,,,,,true,2,,718.6260000000038,,response,,,,,,,,,2,,2,click #choice-2,,,,,I,S,O,,82772.99999999999,82769.2,82033.908,82035.09999999999,82050.574,82784.137,,,
Trial,flow.Sequence,1_3_3,2022-05-02T10:35:58.349Z,,,,,,,,,,,,,,,,,,,,,,,,,,,,,,,4968.474000000002,,completion,,,,,,,,,2,,,,,,,,I,S,O,,82773.2,82769.2,77784.06,77789.99999999999,77800.726,82784.137,,,
Sounds,html.Screen,1_3_4_0,2022-05-02T10:36:02.595Z,,,,,,,,,,,,,,,,,,,,,,,,,,,,,,,4250.035999999993,,timeout,,,,,,,,,3,,,,,,,,O,I,S,,87018.59999999999,87017.507,82767.471,82773.3,82784.137,87034.173,,,
Judgement,html.Screen,1_3_4_1,2022-05-02T10:36:03.342Z,,,,,,,,,,,,,,,,,,,,,,,,,,,,true,3,,728.6270000000077,,response,,,,,,,,,3,,3,click #choice-3,,,,,O,I,S,,87765.90000000001,87762.8,87017.507,87018.7,87034.173,87767.559,,,
Trial,flow.Sequence,1_3_4,2022-05-02T10:36:03.342Z,,,,,,,,,,,,,,,,,,,,,,,,,,,,,,,4978.6630000000005,,completion,,,,,,,,,3,,,,,,,,O,I,S,,87766.09999999999,87762.8,82767.471,82773.3,82784.137,87767.559,,,
Sounds,html.Screen,1_3_5_0,2022-05-02T10:36:07.578Z,,,,,,,,,,,,,,,,,,,,,,,,,,,,,,,4249.859000000011,,timeout,,,,,,,,,2,,,,,,,,O,S,I,,92001.8,92000.752,87750.893,87766.3,87767.559,92017.418,,,
Judgement,html.Screen,1_3_5_1,2022-05-02T10:36:08.381Z,,,,,,,,,,,,,,,,,,,,,,,,,,,,false,2,,782.9820000000036,,response,,,,,,,,,2,,1,click #choice-1,,,,,O,S,I,,92804.49999999999,92800.40000000001,92000.752,92001.90000000001,92017.418,92817.637,,,
Trial,flow.Sequence,1_3_5,2022-05-02T10:36:08.381Z,,,,,,,,,,,,,,,,,,,,,,,,,,,,,,,5032.841000000015,,completion,,,,,,,,,2,,,,,,,,O,S,I,,92804.7,92800.40000000001,87750.893,87766.3,87767.559,92817.637,,,
Task,flow.Loop,1_3,2022-05-02T10:36:08.388Z,,,,,,,,,,,,,,,,,,,,,,,,,,,,,,,30033.282000000007,,completion,,,0.8333333333333334,,,,,,,,,,,,,,,,,,92811.59999999999,92800.40000000001,62750.452,62754.5,62767.118,92817.637,,,
Trap,html.Screen,1_4,2022-05-02T10:36:08.389Z,,,,,,,,,,,,,,,,,,,,,,,,,,,,,,,NaN,,skipped,,,,,,,,,,,,,,,,,,,,,92813.2,92800.40000000001,,92813.09999999999,,92817.637,,,
Thanks,html.Screen,1_5,2022-05-02T10:36:10.838Z,,,,,,,,,,,,,,,,,,,,,,,,,,,,,,,2440.962999999989,,response,,,,,,,,,,,continue,click button,,,,,,,,,95261.40000000001,95258.59999999999,92800.971,92813.3,92817.637,99717.548,,,
Headphone screening,flow.Sequence,1,2022-05-02T10:36:10.838Z,,,,,,,,,,,,,,,,,,,,,,,,,,,,,,,56175.18699999999,,completion,,,,,,,,,,,,,,,,,,,,,95261.7,95258.59999999999,39033.404,39048.8,39083.413,99717.548,,,
Instructions,html.Page,2_0,2022-05-02T10:36:36.303Z,,,,,,,,,,,,,,,,,,,,,,,,,,,,,,,21008.45199999999,,form submission,,,,,,,,,,,,,,,,,,,,,120726.40000000001,120725.99999999999,99700.882,99686.8,99717.548,120734.777,,,
Holding screen,html.Screen,2_1_0_0,2022-05-02T10:36:46.296Z,,,,,,,,,,,,,,,,,,,,,,,,,,,,,,,10000.145999999993,,timeout,,,,,,,,,,,,,,,,,,,,,130719.3,130718.257,120718.111,120726.7,120734.777,130734.923,,,
screen,html.Screen,2_1_0_1_0,2022-05-02T10:36:47.212Z,,,,,,,,,,,,,,,,,53,,,,,,,,,,,,,,895.5770000000048,,response,,,,99,,,,,,,Space,keypress(Space),,,,,,,,When -- ----- -- ------ - ------- --- ----------<br>------------- ------ ------ ---- ---- ------- ----- -- ----<br>-------- ------- -- ---------- --- - --- ----- ----- ----<br>---- --- --- ----- --- ---- ---- ------- ----- ---- -------<br>--- --- -- ----- -- --- ---- -- --- ---- -- ------ ------<br>--- ----- -- ----,131635.90000000002,131630.5,130718.257,130719.59999999999,130734.923,131651.62,,0,When
screen,html.Screen,2_1_0_1_1,2022-05-02T10:36:47.595Z,,,,,,,,,,,,,,,,,53,,,,,,,,,,,,,,364.88000000000466,,response,,,,99,,,,,,,Space,keypress(Space),,,,,,,,---- it ----- -- ------ - ------- --- ----------<br>------------- ------ ------ ---- ---- ------- ----- -- ----<br>-------- ------- -- ---------- --- - --- ----- ----- ----<br>---- --- --- ----- --- ---- ---- ------- ----- ---- -------<br>--- --- -- ----- -- --- ---- -- --- ---- -- ------ ------<br>--- ----- -- ----,132018.40000000002,132016.5,131634.954,131636,131651.62,132034.979,,1,it
screen,html.Screen,2_1_0_1_2,2022-05-02T10:36:47.877Z,,,,,,,,,,,,,,,,,53,,,,,,,,,,,,,,263.9210000000312,,response,,,,99,,,,,,,Space,keypress(Space),,,,,,,,---- -- comes -- ------ - ------- --- ----------<br>------------- ------ ------ ---- ---- ------- ----- -- ----<br>-------- ------- -- ---------- --- - --- ----- ----- ----<br>---- --- --- ----- --- ---- ---- ------- ----- ---- -------<br>--- --- -- ----- -- --- ---- -- --- ---- -- ------ ------<br>--- ----- -- ----,132300.59999999998,132298.90000000002,132018.313,132018.59999999998,132034.979,132301.668,,2,comes
screen,html.Screen,2_1_0_1_3,2022-05-02T10:36:48.086Z,,,,,,,,,,,,,,,,,53,,,,,,,,,,,,,,205.73200000001816,,response,,,,99,,,,,,,Space,keypress(Space),,,,,,,,---- -- ----- to ------ - ------- --- ----------<br>------------- ------ ------ ---- ---- ------- ----- -- ----<br>-------- ------- -- ---------- --- - --- ----- ----- ----<br>---- --- --- ----- --- ---- ---- ------- ----- ---- -------<br>--- --- -- ----- -- --- ---- -- --- ---- -- ------ ------<br>--- ----- -- ----,132509.5,132507.40000000002,132285.002,132300.59999999998,132301.668,132518.333,,3,to
screen,html.Screen,2_1_0_1_4,2022-05-02T10:36:48.360Z,,,,,,,,,,,,,,,,,53,,,,,,,,,,,,,,263.06700000001,,response,,,,99,,,,,,,Space,keypress(Space),,,,,,,,---- -- ----- -- having - ------- --- ----------<br>------------- ------ ------ ---- ---- ------- ----- -- ----<br>-------- ------- -- ---------- --- - --- ----- ----- ----<br>---- --- --- ----- --- ---- ---- ------- ----- ---- -------<br>--- --- -- ----- -- --- ---- -- --- ---- -- ------ ------<br>--- ----- -- ----,132783.5,132781.40000000002,132501.667,132509.59999999998,132518.333,132784.996,,4,having
screen,html.Screen,2_1_0_1_5,2022-05-02T10:36:48.610Z,,,,,,,,,,,,,,,,,53,,,,,,,,,,,,,,246.50399999998626,,response,,,,99,,,,,,,Space,keypress(Space),,,,,,,,---- -- ----- -- ------ a ------- --- ----------<br>------------- ------ ------ ---- ---- ------- ----- -- ----<br>-------- ------- -- ---------- --- - --- ----- ----- ----<br>---- --- --- ----- --- ---- ---- ------- ----- ---- -------<br>--- --- -- ----- -- --- ---- -- --- ---- -- ------ ------<br>--- ----- -- ----,133033.3,133031.5,132768.33,132783.59999999998,132784.996,133035.012,,5,a
screen,html.Screen,2_1_0_1_6,2022-05-02T10:36:48.811Z,,,,,,,,,,,,,,,,,53,,,,,,,,,,,,,,197.9880000000121,,response,,,,99,,,,,,,Space,keypress(Space),,,,,,,,---- -- ----- -- ------ - lasting --- ----------<br>------------- ------ ------ ---- ---- ------- ----- -- ----<br>-------- ------- -- ---------- --- - --- ----- ----- ----<br>---- --- --- ----- --- ---- ---- ------- ----- ---- -------<br>--- --- -- ----- -- --- ---- -- --- ---- -- ------ ------<br>--- ----- -- ----,133235,133233,133018.346,133033.5,133035.012,133251.68,,6,lasting
screen,html.Screen,2_1_0_1_7,2022-05-02T10:36:48.971Z,,,,,,,,,,,,,,,,,53,,,,,,,,,,,,,,140.9199999999837,,response,,,,99,,,,,,,Space,keypress(Space),,,,,,,,---- -- ----- -- ------ - ------- and ----------<br>------------- ------ ------ ---- ---- ------- ----- -- ----<br>-------- ------- -- ---------- --- - --- ----- ----- ----<br>---- --- --- ----- --- ---- ---- ------- ----- ---- -------<br>--- --- -- ----- -- --- ---- -- --- ---- -- ------ ------<br>--- ----- -- ----,133394.5,133392.59999999998,133235.014,133235.09999999998,133251.68,133401.687,,7,and
screen,html.Screen,2_1_0_1_8,2022-05-02T10:36:49.193Z,,,,,,,,,,,,,,,,,53,,,,,,,,,,,,,,213.112999999983,,response,,,,99,,,,,,,Space,keypress(Space),,,,,,,,---- -- ----- -- ------ - ------- --- fulfilling<br>------------- ------ ------ ---- ---- ------- ----- -- ----<br>-------- ------- -- ---------- --- - --- ----- ----- ----<br>---- --- --- ----- --- ---- ---- ------- ----- ---- -------<br>--- --- -- ----- -- --- ---- -- --- ---- -- ------ ------<br>--- ----- -- ----,133616.8,133614.8,133385.021,133394.7,133401.687,133618.356,,8,fulfilling
screen,html.Screen,2_1_0_1_9,2022-05-02T10:36:49.590Z,,,,,,,,,,,,,,,,,53,,,,,,,,,,,,,,393.9439999999886,,response,,,,99,,,,,,,Space,keypress(Space),,,,,,,,"---- -- ----- -- ------ - ------- --- ----------<br>relationship, ------ ------ ---- ---- ------- ----- -- ----<br>-------- ------- -- ---------- --- - --- ----- ----- ----<br>---- --- --- ----- --- ---- ---- ------- ----- ---- -------<br>--- --- -- ----- -- --- ---- -- --- ---- -- ------ ------<br>--- ----- -- ----",134014.2,134012.3,133601.69,133617,133618.356,134018.353,,9,"relationship,"
screen,html.Screen,2_1_0_1_10,2022-05-02T10:36:49.799Z,,,,,,,,,,,,,,,,,53,,,,,,,,,,,,,,202.44699999998556,,response,,,,99,,,,,,,Space,keypress(Space),,,,,,,,---- -- ----- -- ------ - ------- --- ----------<br>------------- common ------ ---- ---- ------- ----- -- ----<br>-------- ------- -- ---------- --- - --- ----- ----- ----<br>---- --- --- ----- --- ---- ---- ------- ----- ---- -------<br>--- --- -- ----- -- --- ---- -- --- ---- -- ------ ------<br>--- ----- -- ----,134222.7,134220.8,134001.687,134014.3,134018.353,134235.033,,10,common
screen,html.Screen,2_1_0_1_11,2022-05-02T10:36:50.000Z,,,,,,,,,,,,,,,,,53,,,,,,,,,,,,,,185.26699999999255,,response,,,,99,,,,,,,Space,keypress(Space),,,,,,,,---- -- ----- -- ------ - ------- --- ----------<br>------------- ------ wisdom ---- ---- ------- ----- -- ----<br>-------- ------- -- ---------- --- - --- ----- ----- ----<br>---- --- --- ----- --- ---- ---- ------- ----- ---- -------<br>--- --- -- ----- -- --- ---- -- --- ---- -- ------ ------<br>--- ----- -- ----,134423.5,134420.3,134218.367,134222.90000000002,134235.033,134435.034,,11,wisdom
screen,html.Screen,2_1_0_1_12,2022-05-02T10:36:50.719Z,,,,,,,,,,,,,,,,,53,,,,,,,,,,,,,,705.7659999999742,,response,,,,99,,,,,,,Space,keypress(Space),,,,,,,,---- -- ----- -- ------ - ------- --- ----------<br>------------- ------ ------ says ---- ------- ----- -- ----<br>-------- ------- -- ---------- --- - --- ----- ----- ----<br>---- --- --- ----- --- ---- ---- ------- ----- ---- -------<br>--- --- -- ----- -- --- ---- -- --- ---- -- ------ ------<br>--- ----- -- ----,135143,135140.8,134418.368,134423.7,134435.034,135151.685,,12,says
screen,html.Screen,2_1_0_1_13,2022-05-02T10:36:51.035Z,,,,,,,,,,,,,,,,,53,,,,,,,,,,,,,,304.91499999997905,,response,,,,99,,,,,,,Space,keypress(Space),,,,,,,,---- -- ----- -- ------ - ------- --- ----------<br>------------- ------ ------ ---- that ------- ----- -- ----<br>-------- ------- -- ---------- --- - --- ----- ----- ----<br>---- --- --- ----- --- ---- ---- ------- ----- ---- -------<br>--- --- -- ----- -- --- ---- -- --- ---- -- ------ ------<br>--- ----- -- ----,135458.59999999998,135456.59999999998,135135.019,135143.09999999998,135151.685,135468.375,,13,that
screen,html.Screen,2_1_0_1_14,2022-05-02T10:36:51.243Z,,,,,,,,,,,,,,,,,53,,,,,,,,,,,,,,196.125,,response,,,,99,,,,,,,Space,keypress(Space),,,,,,,,---- -- ----- -- ------ - ------- --- ----------<br>------------- ------ ------ ---- ---- feeling ----- -- ----<br>-------- ------- -- ---------- --- - --- ----- ----- ----<br>---- --- --- ----- --- ---- ---- ------- ----- ---- -------<br>--- --- -- ----- -- --- ---- -- --- ---- -- ------ ------<br>--- ----- -- ----,135666.3,135664.5,135451.709,135458.8,135468.375,135668.383,,14,feeling
screen,html.Screen,2_1_0_1_15,2022-05-02T10:36:51.739Z,,,,,,,,,,,,,,,,,53,,,,,,,,,,,,,,492.81700000001,,response,,,,99,,,,,,,Space,keypress(Space),,,,,,,,---- -- ----- -- ------ - ------- --- ----------<br>------------- ------ ------ ---- ---- ------- close -- ----<br>-------- ------- -- ---------- --- - --- ----- ----- ----<br>---- --- --- ----- --- ---- ---- ------- ----- ---- -------<br>--- --- -- ----- -- --- ---- -- --- ---- -- ------ ------<br>--- ----- -- ----,136162.90000000002,136161.2,135651.717,135666.40000000002,135668.383,136168.377,,15,close
screen,html.Screen,2_1_0_1_16,2022-05-02T10:36:51.920Z,,,,,,,,,,,,,,,,,53,,,,,,,,,,,,,,173.82300000000396,,response,,,,99,,,,,,,Space,keypress(Space),,,,,,,,---- -- ----- -- ------ - ------- --- ----------<br>------------- ------ ------ ---- ---- ------- ----- to ----<br>-------- ------- -- ---------- --- - --- ----- ----- ----<br>---- --- --- ----- --- ---- ---- ------- ----- ---- -------<br>--- --- -- ----- -- --- ---- -- --- ---- -- ------ ------<br>--- ----- -- ----,136343.90000000002,136342.2,136151.711,136163,136168.377,136351.732,,16,to
screen,html.Screen,2_1_0_1_17,2022-05-02T10:36:52.104Z,,,,,,,,,,,,,,,,,53,,,,,,,,,,,,,,173.76800000001094,,response,,,,99,,,,,,,Space,keypress(Space),,,,,,,,---- -- ----- -- ------ - ------- --- ----------<br>------------- ------ ------ ---- ---- ------- ----- -- your<br>-------- ------- -- ---------- --- - --- ----- ----- ----<br>---- --- --- ----- --- ---- ---- ------- ----- ---- -------<br>--- --- -- ----- -- --- ---- -- --- ---- -- ------ ------<br>--- ----- -- ----,136527.7,136525.5,136335.066,136344,136351.732,136535.066,,17,your
screen,html.Screen,2_1_0_1_18,2022-05-02T10:36:52.293Z,,,,,,,,,,,,,,,,,53,,,,,,,,,,,,,,179.13400000002002,,response,,,,99,,,,,,,Space,keypress(Space),,,,,,,,---- -- ----- -- ------ - ------- --- ----------<br>------------- ------ ------ ---- ---- ------- ----- -- ----<br>romantic ------- -- ---------- --- - --- ----- ----- ----<br>---- --- --- ----- --- ---- ---- ------- ----- ---- -------<br>--- --- -- ----- -- --- ---- -- --- ---- -- ------ ------<br>--- ----- -- ----,136716.59999999998,136714.2,136518.4,136527.90000000002,136535.066,136718.415,,18,romantic
screen,html.Screen,2_1_0_1_19,2022-05-02T10:36:52.667Z,,,,,,,,,,,,,,,,,53,,,,,,,,,,,,,,370.48500000001513,,response,,,,99,,,,,,,Space,keypress(Space),,,,,,,,---- -- ----- -- ------ - ------- --- ----------<br>------------- ------ ------ ---- ---- ------- ----- -- ----<br>-------- partner -- ---------- --- - --- ----- ----- ----<br>---- --- --- ----- --- ---- ---- ------- ----- ---- -------<br>--- --- -- ----- -- --- ---- -- --- ---- -- ------ ------<br>--- ----- -- ----,137090.7,137088.90000000002,136701.749,136716.59999999998,136718.415,137101.744,,19,partner
screen,html.Screen,2_1_0_1_20,2022-05-02T10:36:52.886Z,,,,,,,,,,,,,,,,,53,,,,,,,,,,,,,,206.65600000001723,,response,,,,99,,,,,,,Space,keypress(Space),,,,,,,,---- -- ----- -- ------ - ------- --- ----------<br>------------- ------ ------ ---- ---- ------- ----- -- ----<br>-------- ------- is ---------- --- - --- ----- ----- ----<br>---- --- --- ----- --- ---- ---- ------- ----- ---- -------<br>--- --- -- ----- -- --- ---- -- --- ---- -- ------ ------<br>--- ----- -- ----,137310,137308.40000000002,137085.078,137090.8,137101.744,137318.421,,20,is
screen,html.Screen,2_1_0_1_21,2022-05-02T10:36:53.085Z,,,,,,,,,,,,,,,,,53,,,,,,,,,,,,,,187.87899999998626,,response,,,,99,,,,,,,Space,keypress(Space),,,,,,,,---- -- ----- -- ------ - ------- --- ----------<br>------------- ------ ------ ---- ---- ------- ----- -- ----<br>-------- ------- -- paramount. --- - --- ----- ----- ----<br>---- --- --- ----- --- ---- ---- ------- ----- ---- -------<br>--- --- -- ----- -- --- ---- -- --- ---- -- ------ ------<br>--- ----- -- ----,137508.40000000002,137506.3,137301.755,137310.2,137318.421,137518.418,,21,paramount.
screen,html.Screen,2_1_0_1_22,2022-05-02T10:36:53.315Z,,,,,,,,,,,,,,,,,53,,,,,,,,,,,,,,217.58199999999488,,response,,,,99,,,,,,,Space,keypress(Space),,,,,,,,---- -- ----- -- ------ - ------- --- ----------<br>------------- ------ ------ ---- ---- ------- ----- -- ----<br>-------- ------- -- ---------- But - --- ----- ----- ----<br>---- --- --- ----- --- ---- ---- ------- ----- ---- -------<br>--- --- -- ----- -- --- ---- -- --- ---- -- ------ ------<br>--- ----- -- ----,137738.5,137736,137501.752,137508.59999999998,137518.418,137751.754,,22,But
screen,html.Screen,2_1_0_1_23,2022-05-02T10:36:53.793Z,,,,,,,,,,,,,,,,,53,,,,,,,,,,,,,,462.74600000001374,,response,,,,99,,,,,,,Space,keypress(Space),,,,,,,,---- -- ----- -- ------ - ------- --- ----------<br>------------- ------ ------ ---- ---- ------- ----- -- ----<br>-------- ------- -- ---------- --- a --- ----- ----- ----<br>---- --- --- ----- --- ---- ---- ------- ----- ---- -------<br>--- --- -- ----- -- --- ---- -- --- ---- -- ------ ------<br>--- ----- -- ----,138216.5,138214.5,137735.088,137738.59999999998,137751.754,138218.417,,23,a
screen,html.Screen,2_1_0_1_24,2022-05-02T10:36:53.986Z,,,,,,,,,,,,,,,,,53,,,,,,,,,,,,,,188.7830000000249,,response,,,,99,,,,,,,Space,keypress(Space),,,,,,,,---- -- ----- -- ------ - ------- --- ----------<br>------------- ------ ------ ---- ---- ------- ----- -- ----<br>-------- ------- -- ---------- --- - new ----- ----- ----<br>---- --- --- ----- --- ---- ---- ------- ----- ---- -------<br>--- --- -- ----- -- --- ---- -- --- ---- -- ------ ------<br>--- ----- -- ----,138409.2,138407.2,138201.751,138216.59999999998,138218.417,138418.432,,24,new
screen,html.Screen,2_1_0_1_25,2022-05-02T10:36:54.149Z,,,,,,,,,,,,,,,,,53,,,,,,,,,,,,,,152.46800000002258,,response,,,,99,,,,,,,Space,keypress(Space),,,,,,,,---- -- ----- -- ------ - ------- --- ----------<br>------------- ------ ------ ---- ---- ------- ----- -- ----<br>-------- ------- -- ---------- --- - --- study ----- ----<br>---- --- --- ----- --- ---- ---- ------- ----- ---- -------<br>--- --- -- ----- -- --- ---- -- --- ---- -- ------ ------<br>--- ----- -- ----,138572.7,138570.90000000002,138401.766,138409.40000000002,138418.432,138585.111,,25,study
screen,html.Screen,2_1_0_1_26,2022-05-02T10:36:54.310Z,,,,,,,,,,,,,,,,,53,,,,,,,,,,,,,,147.4889999999723,,response,,,,99,,,,,,,Space,keypress(Space),,,,,,,,---- -- ----- -- ------ - ------- --- ----------<br>------------- ------ ------ ---- ---- ------- ----- -- ----<br>-------- ------- -- ---------- --- - --- ----- finds ----<br>---- --- --- ----- --- ---- ---- ------- ----- ---- -------<br>--- --- -- ----- -- --- ---- -- --- ---- -- ------ ------<br>--- ----- -- ----,138734.2,138732.59999999998,138568.445,138572.8,138585.111,138735.106,,26,finds
screen,html.Screen,2_1_0_1_27,2022-05-02T10:36:54.513Z,,,,,,,,,,,,,,,,,53,,,,,,,,,,,,,,199.79400000002352,,response,,,,99,,,,,,,Space,keypress(Space),,,,,,,,---- -- ----- -- ------ - ------- --- ----------<br>------------- ------ ------ ---- ---- ------- ----- -- ----<br>-------- ------- -- ---------- --- - --- ----- ----- that<br>---- --- --- ----- --- ---- ---- ------- ----- ---- -------<br>--- --- -- ----- -- --- ---- -- --- ---- -- ------ ------<br>--- ----- -- ----,138936.59999999998,138934.90000000002,138718.44,138734.3,138735.106,138951.784,,27,that
screen,html.Screen,2_1_0_1_28,2022-05-02T10:36:54.905Z,,,,,,,,,,,,,,,,,53,,,,,,,,,,,,,,375.8159999999625,,response,,,,99,,,,,,,Space,keypress(Space),,,,,,,,---- -- ----- -- ------ - ------- --- ----------<br>------------- ------ ------ ---- ---- ------- ----- -- ----<br>-------- ------- -- ---------- --- - --- ----- ----- ----<br>it's --- --- ----- --- ---- ---- ------- ----- ---- -------<br>--- --- -- ----- -- --- ---- -- --- ---- -- ------ ------<br>--- ----- -- ----,139329.09999999998,139327.59999999998,138935.118,138936.7,138951.784,139335.104,,28,it's
screen,html.Screen,2_1_0_1_29,2022-05-02T10:36:55.116Z,,,,,,,,,,,,,,,,,53,,,,,,,,,,,,,,202.89600000000792,,response,,,,99,,,,,,,Space,keypress(Space),,,,,,,,---- -- ----- -- ------ - ------- --- ----------<br>------------- ------ ------ ---- ---- ------- ----- -- ----<br>-------- ------- -- ---------- --- - --- ----- ----- ----<br>---- not --- ----- --- ---- ---- ------- ----- ---- -------<br>--- --- -- ----- -- --- ---- -- --- ---- -- ------ ------<br>--- ----- -- ----,139539.8,139538,139318.438,139329.40000000002,139335.104,139551.787,,29,not
screen,html.Screen,2_1_0_1_30,2022-05-02T10:36:55.275Z,,,,,,,,,,,,,,,,,53,,,,,,,,,,,,,,144.81299999996554,,response,,,,99,,,,,,,Space,keypress(Space),,,,,,,,---- -- ----- -- ------ - ------- --- ----------<br>------------- ------ ------ ---- ---- ------- ----- -- ----<br>-------- ------- -- ---------- --- - --- ----- ----- ----<br>---- --- how ----- --- ---- ---- ------- ----- ---- -------<br>--- --- -- ----- -- --- ---- -- --- ---- -- ------ ------<br>--- ----- -- ----,139698.7,139696.59999999998,139535.121,139539.90000000002,139551.787,139701.8,,30,how
screen,html.Screen,2_1_0_1_31,2022-05-02T10:36:55.440Z,,,,,,,,,,,,,,,,,53,,,,,,,,,,,,,,159.60000000003492,,response,,,,99,,,,,,,Space,keypress(Space),,,,,,,,---- -- ----- -- ------ - ------- --- ----------<br>------------- ------ ------ ---- ---- ------- ----- -- ----<br>-------- ------- -- ---------- --- - --- ----- ----- ----<br>---- --- --- close --- ---- ---- ------- ----- ---- -------<br>--- --- -- ----- -- --- ---- -- --- ---- -- ------ ------<br>--- ----- -- ----,139863.3,139861.40000000002,139685.134,139698.8,139701.8,139868.459,,31,close
screen,html.Screen,2_1_0_1_32,2022-05-02T10:36:55.617Z,,,,,,,,,,,,,,,,,53,,,,,,,,,,,,,,170.74100000000908,,response,,,,99,,,,,,,Space,keypress(Space),,,,,,,,---- -- ----- -- ------ - ------- --- ----------<br>------------- ------ ------ ---- ---- ------- ----- -- ----<br>-------- ------- -- ---------- --- - --- ----- ----- ----<br>---- --- --- ----- you ---- ---- ------- ----- ---- -------<br>--- --- -- ----- -- --- ---- -- --- ---- -- ------ ------<br>--- ----- -- ----,140041.09999999998,140039.2,139851.793,139863.40000000002,139868.459,140051.8,,32,you
screen,html.Screen,2_1_0_1_33,2022-05-02T10:36:55.806Z,,,,,,,,,,,,,,,,,53,,,,,,,,,,,,,,174.5,,response,,,,99,,,,,,,Space,keypress(Space),,,,,,,,---- -- ----- -- ------ - ------- --- ----------<br>------------- ------ ------ ---- ---- ------- ----- -- ----<br>-------- ------- -- ---------- --- - --- ----- ----- ----<br>---- --- --- ----- --- feel ---- ------- ----- ---- -------<br>--- --- -- ----- -- --- ---- -- --- ---- -- ------ ------<br>--- ----- -- ----,140229.40000000002,140226.3,140035.134,140041.3,140051.8,140235.13,,33,feel
screen,html.Screen,2_1_0_1_34,2022-05-02T10:36:56.018Z,,,,,,,,,,,,,,,,,53,,,,,,,,,,,,,,204.6699999999837,,response,,,,99,,,,,,,Space,keypress(Space),,,,,,,,---- -- ----- -- ------ - ------- --- ----------<br>------------- ------ ------ ---- ---- ------- ----- -- ----<br>-------- ------- -- ---------- --- - --- ----- ----- ----<br>---- --- --- ----- --- ---- that ------- ----- ---- -------<br>--- --- -- ----- -- --- ---- -- --- ---- -- ------ ------<br>--- ----- -- ----,140441.5,140439.8,140218.464,140229.5,140235.13,140451.811,,34,that
screen,html.Screen,2_1_0_1_35,2022-05-02T10:36:56.213Z,,,,,,,,,,,,,,,,,53,,,,,,,,,,,,,,182.78899999998976,,response,,,,99,,,,,,,Space,keypress(Space),,,,,,,,---- -- ----- -- ------ - ------- --- ----------<br>------------- ------ ------ ---- ---- ------- ----- -- ----<br>-------- ------- -- ---------- --- - --- ----- ----- ----<br>---- --- --- ----- --- ---- ---- matters ----- ---- -------<br>--- --- -- ----- -- --- ---- -- --- ---- -- ------ ------<br>--- ----- -- ----,140636.59999999998,140634.59999999998,140435.145,140441.7,140451.811,140651.804,,35,matters
screen,html.Screen,2_1_0_1_36,2022-05-02T10:36:56.386Z,,,,,,,,,,,,,,,,,53,,,,,,,,,,,,,,155.59600000001956,,response,,,,99,,,,,,,Space,keypress(Space),,,,,,,,"---- -- ----- -- ------ - ------- --- ----------<br>------------- ------ ------ ---- ---- ------- ----- -- ----<br>-------- ------- -- ---------- --- - --- ----- ----- ----<br>---- --- --- ----- --- ---- ---- ------- most, ---- -------<br>--- --- -- ----- -- --- ---- -- --- ---- -- ------ ------<br>--- ----- -- ----",140809.59999999998,140807.40000000002,140635.138,140636.7,140651.804,140818.476,,36,"most,"
screen,html.Screen,2_1_0_1_37,2022-05-02T10:36:56.810Z,,,,,,,,,,,,,,,,,53,,,,,,,,,,,,,,413.5240000000049,,response,,,,99,,,,,,,Space,keypress(Space),,,,,,,,---- -- ----- -- ------ - ------- --- ----------<br>------------- ------ ------ ---- ---- ------- ----- -- ----<br>-------- ------- -- ---------- --- - --- ----- ----- ----<br>---- --- --- ----- --- ---- ---- ------- ----- it's -------<br>--- --- -- ----- -- --- ---- -- --- ---- -- ------ ------<br>--- ----- -- ----,141233.8,141232,140801.81,140809.7,140818.476,141235.136,,37,it's
screen,html.Screen,2_1_0_1_38,2022-05-02T10:36:57.040Z,,,,,,,,,,,,,,,,,53,,,,,,,,,,,,,,227.06400000001304,,response,,,,99,,,,,,,Space,keypress(Space),,,,,,,,---- -- ----- -- ------ - ------- --- ----------<br>------------- ------ ------ ---- ---- ------- ----- -- ----<br>-------- ------- -- ---------- --- - --- ----- ----- ----<br>---- --- --- ----- --- ---- ---- ------- ----- ---- whether<br>--- --- -- ----- -- --- ---- -- --- ---- -- ------ ------<br>--- ----- -- ----,141464,141462.2,141218.47,141233.90000000002,141235.136,141468.486,,38,whether
screen,html.Screen,2_1_0_1_39,2022-05-02T10:36:57.260Z,,,,,,,,,,,,,,,,,53,,,,,,,,,,,,,,213.21400000000722,,response,,,,99,,,,,,,Space,keypress(Space),,,,,,,,---- -- ----- -- ------ - ------- --- ----------<br>------------- ------ ------ ---- ---- ------- ----- -- ----<br>-------- ------- -- ---------- --- - --- ----- ----- ----<br>---- --- --- ----- --- ---- ---- ------- ----- ---- -------<br>you --- -- ----- -- --- ---- -- --- ---- -- ------ ------<br>--- ----- -- ----,141684.09999999998,141681.7,141451.82,141464.3,141468.486,141685.158,,39,you
screen,html.Screen,2_1_0_1_40,2022-05-02T10:36:57.482Z,,,,,,,,,,,,,,,,,53,,,,,,,,,,,,,,218.3420000000042,,response,,,,99,,,,,,,Space,keypress(Space),,,,,,,,---- -- ----- -- ------ - ------- --- ----------<br>------------- ------ ------ ---- ---- ------- ----- -- ----<br>-------- ------- -- ---------- --- - --- ----- ----- ----<br>---- --- --- ----- --- ---- ---- ------- ----- ---- -------<br>--- are -- ----- -- --- ---- -- --- ---- -- ------ ------<br>--- ----- -- ----,141905.5,141903.5,141668.492,141684.3,141685.158,141918.49,,40,are
screen,html.Screen,2_1_0_1_41,2022-05-02T10:36:57.625Z,,,,,,,,,,,,,,,,,53,,,,,,,,,,,,,,128.30999999999767,,response,,,,99,,,,,,,Space,keypress(Space),,,,,,,,---- -- ----- -- ------ - ------- --- ----------<br>------------- ------ ------ ---- ---- ------- ----- -- ----<br>-------- ------- -- ---------- --- - --- ----- ----- ----<br>---- --- --- ----- --- ---- ---- ------- ----- ---- -------<br>--- --- as ----- -- --- ---- -- --- ---- -- ------ ------<br>--- ----- -- ----,142048.59999999998,142046.8,141901.824,141905.7,141918.49,142051.83,,41,as
screen,html.Screen,2_1_0_1_42,2022-05-02T10:36:57.792Z,,,,,,,,,,,,,,,,,53,,,,,,,,,,,,,,162.37000000002445,,response,,,,99,,,,,,,Space,keypress(Space),,,,,,,,---- -- ----- -- ------ - ------- --- ----------<br>------------- ------ ------ ---- ---- ------- ----- -- ----<br>-------- ------- -- ---------- --- - --- ----- ----- ----<br>---- --- --- ----- --- ---- ---- ------- ----- ---- -------<br>--- --- -- close -- --- ---- -- --- ---- -- ------ ------<br>--- ----- -- ----,142215.7,142214.2,142035.164,142048.8,142051.83,142218.498,,42,close
screen,html.Screen,2_1_0_1_43,2022-05-02T10:36:57.974Z,,,,,,,,,,,,,,,,,53,,,,,,,,,,,,,,177.30199999999604,,response,,,,99,,,,,,,Space,keypress(Space),,,,,,,,---- -- ----- -- ------ - ------- --- ----------<br>------------- ------ ------ ---- ---- ------- ----- -- ----<br>-------- ------- -- ---------- --- - --- ----- ----- ----<br>---- --- --- ----- --- ---- ---- ------- ----- ---- -------<br>--- --- -- ----- as --- ---- -- --- ---- -- ------ ------<br>--- ----- -- ----,142397.40000000002,142395.8,142201.832,142215.7,142218.498,142401.836,,43,as
screen,html.Screen,2_1_0_1_44,2022-05-02T10:36:58.198Z,,,,,,,,,,,,,,,,,53,,,,,,,,,,,,,,218.56400000001304,,response,,,,99,,,,,,,Space,keypress(Space),,,,,,,,---- -- ----- -- ------ - ------- --- ----------<br>------------- ------ ------ ---- ---- ------- ----- -- ----<br>-------- ------- -- ---------- --- - --- ----- ----- ----<br>---- --- --- ----- --- ---- ---- ------- ----- ---- -------<br>--- --- -- ----- -- you ---- -- --- ---- -- ------ ------<br>--- ----- -- ----,142622.2,142620.40000000002,142385.17,142397.5,142401.836,142635.176,,44,you
screen,html.Screen,2_1_0_1_45,2022-05-02T10:36:58.591Z,,,,,,,,,,,,,,,,,53,,,,,,,,,,,,,,368.92399999996996,,response,,,,99,,,,,,,Space,keypress(Space),,,,,,,,---- -- ----- -- ------ - ------- --- ----------<br>------------- ------ ------ ---- ---- ------- ----- -- ----<br>-------- ------- -- ---------- --- - --- ----- ----- ----<br>---- --- --- ----- --- ---- ---- ------- ----- ---- -------<br>--- --- -- ----- -- --- want -- --- ---- -- ------ ------<br>--- ----- -- ----,143014.3,143004.09999999998,142618.51,142622.3,142635.176,143018.5,,45,want
screen,html.Screen,2_1_0_1_46,2022-05-02T10:36:58.766Z,,,,,,,,,,,,,,,,,53,,,,,,,,,,,,,,169.70000000001164,,response,,,,99,,,,,,,Space,keypress(Space),,,,,,,,---- -- ----- -- ------ - ------- --- ----------<br>------------- ------ ------ ---- ---- ------- ----- -- ----<br>-------- ------- -- ---------- --- - --- ----- ----- ----<br>---- --- --- ----- --- ---- ---- ------- ----- ---- -------<br>--- --- -- ----- -- --- ---- to --- ---- -- ------ ------<br>--- ----- -- ----,143189.8,143188.2,143001.834,143014.5,143018.5,143201.859,,46,to
screen,html.Screen,2_1_0_1_47,2022-05-02T10:36:58.977Z,,,,,,,,,,,,,,,,,53,,,,,,,,,,,,,,197.04100000002654,,response,,,,99,,,,,,,Space,keypress(Space),,,,,,,,"---- -- ----- -- ------ - ------- --- ----------<br>------------- ------ ------ ---- ---- ------- ----- -- ----<br>-------- ------- -- ---------- --- - --- ----- ----- ----<br>---- --- --- ----- --- ---- ---- ------- ----- ---- -------<br>--- --- -- ----- -- --- ---- -- be, ---- -- ------ ------<br>--- ----- -- ----",143400.7,143398.90000000002,143185.193,143190.09999999998,143201.859,143401.851,,47,"be,"
screen,html.Screen,2_1_0_1_48,2022-05-02T10:36:59.183Z,,,,,,,,,,,,,,,,,53,,,,,,,,,,,,,,203.04900000002817,,response,,,,99,,,,,,,Space,keypress(Space),,,,,,,,---- -- ----- -- ------ - ------- --- ----------<br>------------- ------ ------ ---- ---- ------- ----- -- ----<br>-------- ------- -- ---------- --- - --- ----- ----- ----<br>---- --- --- ----- --- ---- ---- ------- ----- ---- -------<br>--- --- -- ----- -- --- ---- -- --- even -- ------ ------<br>--- ----- -- ----,143606.8,143604.90000000002,143385.185,143401,143401.851,143618.518,,48,even
screen,html.Screen,2_1_0_1_49,2022-05-02T10:36:59.789Z,,,,,,,,,,,,,,,,,53,,,,,,,,,,,,,,592.3820000000123,,response,,,,99,,,,,,,Space,keypress(Space),,,,,,,,---- -- ----- -- ------ - ------- --- ----------<br>------------- ------ ------ ---- ---- ------- ----- -- ----<br>-------- ------- -- ---------- --- - --- ----- ----- ----<br>---- --- --- ----- --- ---- ---- ------- ----- ---- -------<br>--- --- -- ----- -- --- ---- -- --- ---- if ------ ------<br>--- ----- -- ----,144212.90000000002,144210.90000000002,143601.852,143606.90000000002,143618.518,144218.509,,49,if
screen,html.Screen,2_1_0_1_50,2022-05-02T10:37:00.092Z,,,,,,,,,,,,,,,,,53,,,,,,,,,,,,,,286.9910000000091,,response,,,,99,,,,,,,Space,keypress(Space),,,,,,,,---- -- ----- -- ------ - ------- --- ----------<br>------------- ------ ------ ---- ---- ------- ----- -- ----<br>-------- ------- -- ---------- --- - --- ----- ----- ----<br>---- --- --- ----- --- ---- ---- ------- ----- ---- -------<br>--- --- -- ----- -- --- ---- -- --- ---- -- that's ------<br>--- ----- -- ----,144515.8,144505.5,144201.843,144213.09999999998,144218.509,144535.203,,50,that's
screen,html.Screen,2_1_0_1_51,2022-05-02T10:37:00.260Z,,,,,,,,,,,,,,,,,53,,,,,,,,,,,,,,146.3969999999681,,response,,,,99,,,,,,,Space,keypress(Space),,,,,,,,---- -- ----- -- ------ - ------- --- ----------<br>------------- ------ ------ ---- ---- ------- ----- -- ----<br>-------- ------- -- ---------- --- - --- ----- ----- ----<br>---- --- --- ----- --- ---- ---- ------- ----- ---- -------<br>--- --- -- ----- -- --- ---- -- --- ---- -- ------ really<br>--- ----- -- ----,144683.90000000002,144681.59999999998,144518.537,144517.2,144535.203,144701.879,,51,really
screen,html.Screen,2_1_0_1_52,2022-05-02T10:37:00.695Z,,,,,,,,,,,,,,,,,53,,,,,,,,,,,,,,415.22099999999045,,response,,,,99,,,,,,,Space,keypress(Space),,,,,,,,---- -- ----- -- ------ - ------- --- ----------<br>------------- ------ ------ ---- ---- ------- ----- -- ----<br>-------- ------- -- ---------- --- - --- ----- ----- ----<br>---- --- --- ----- --- ---- ---- ------- ----- ---- -------<br>--- --- -- ----- -- --- ---- -- --- ---- -- ------ ------<br>not ----- -- ----,145119.09999999998,145117.09999999998,144685.213,144684,144701.879,145135.207,,52,not
screen,html.Screen,2_1_0_1_53,2022-05-02T10:37:00.898Z,,,,,,,,,,,,,,,,,53,,,,,,,,,,,,,,185.1930000000284,,response,,,,99,,,,,,,Space,keypress(Space),,,,,,,,---- -- ----- -- ------ - ------- --- ----------<br>------------- ------ ------ ---- ---- ------- ----- -- ----<br>-------- ------- -- ---------- --- - --- ----- ----- ----<br>---- --- --- ----- --- ---- ---- ------- ----- ---- -------<br>--- --- -- ----- -- --- ---- -- --- ---- -- ------ ------<br>--- close -- ----,145322.09999999998,145320.40000000002,145118.541,145119.09999999998,145135.207,145335.225,,53,close
screen,html.Screen,2_1_0_1_54,2022-05-02T10:37:01.089Z,,,,,,,,,,,,,,,,,53,,,,,,,,,,,,,,175.17500000001746,,response,,,,99,,,,,,,Space,keypress(Space),,,,,,,,---- -- ----- -- ------ - ------- --- ----------<br>------------- ------ ------ ---- ---- ------- ----- -- ----<br>-------- ------- -- ---------- --- - --- ----- ----- ----<br>---- --- --- ----- --- ---- ---- ------- ----- ---- -------<br>--- --- -- ----- -- --- ---- -- --- ---- -- ------ ------<br>--- ----- at ----,145512.40000000002,145510.40000000002,145318.559,145322.2,145335.225,145518.561,,54,at
screen,html.Screen,2_1_0_1_55,2022-05-02T10:37:01.478Z,,,,,,,,,,,,,,,,,53,,,,,,,,,,,,,,381.6390000000247,,response,,,,99,,,,,,,Space,keypress(Space),,,,,,,,---- -- ----- -- ------ - ------- --- ----------<br>------------- ------ ------ ---- ---- ------- ----- -- ----<br>-------- ------- -- ---------- --- - --- ----- ----- ----<br>---- --- --- ----- --- ---- ---- ------- ----- ---- -------<br>--- --- -- ----- -- --- ---- -- --- ---- -- ------ ------<br>--- ----- -- all.,145902.2,145900.2,145501.895,145512.5,145518.561,145918.556,,55,all.
Item 99,flow.Loop,2_1_0_1,2022-05-02T10:37:01.479Z,,,,,,,,,,,,,,,,,,,,,,,,,,,,,,,15165.277000000016,,completion,,,,,F,,,,,,,,,,,silence,,,,,145902.40000000002,145900.2,130718.257,130719.49999999999,130734.923,145918.556,,,
Question 1,html.Screen,2_1_0_2,2022-05-02T10:37:05.124Z,,,,,,,,,,,,,,,,,,,,,,,,,,,,true,FALSE,,3626.743999999977,,response,,,,99,F,,,,,,FALSE,click #choice-2,,,,silence,,,,,149548.2,149545.3,145901.89,145902.59999999998,145918.556,149551.942,,,
Question 2,html.Screen,2_1_0_3,2022-05-02T10:37:10.959Z,,,,,,,,,,,,,,,,,,,,,,,,,,,,true,TRUE,,5826.458000000013,,response,,,,99,F,,,,,,TRUE,click #choice-1,,,,silence,,,,,155382.5,155378.40000000002,149535.276,149548.40000000002,149551.942,155385.375,,,
Item 99,flow.Sequence,2_1_0,2022-05-02T10:37:10.959Z,,,,,,,,,,,,,,,,,,,,,,,,,,,,,,,34643.62300000002,,completion,,,,,,,,,,,,,,,,,,,,,155382.7,155378.40000000002,120718.111,120726.7,120734.777,155385.375,,,
Holding screen,html.Screen,2_1_1_0,2022-05-02T10:37:20.946Z,,,,,,,,,,,,,,,,,,,,,,,,,,,,,,,10000.140000000014,,timeout,,,,,,,,,,,,,,,,,,,,,165369.90000000002,165368.849,155368.709,155382.8,155385.375,165385.515,,,
screen,html.Screen,2_1_1_1_0,2022-05-02T10:37:21.647Z,,,,,,,,,,,,,,,,,54,,,,,,,,,,,,,,682.5849999999627,,response,,,,100,,,,,,,Space,keypress(Space),,,,,,,,At --- ---- --- ------ ----- ------- ---- -- --- ------- --<br>------- ---------- ------ -- ----- -- ----- -- ---- ------<br>--- ----- --- --- ------ -------- ----- --- ------ ----- --<br>----- ----- ---------- --- --- ------ ------ ---- -- ------<br>------- --- ------ ----- --- ---- ------- -- ---- --- --<br>------- ------,166070.5,166068.09999999998,165368.849,165370.09999999998,165385.515,166085.55,,0,At
screen,html.Screen,2_1_1_1_1,2022-05-02T10:37:21.900Z,,,,,,,,,,,,,,,,,54,,,,,,,,,,,,,,236.95000000001164,,response,,,,100,,,,,,,Space,keypress(Space),,,,,,,,-- the ---- --- ------ ----- ------- ---- -- --- ------- --<br>------- ---------- ------ -- ----- -- ----- -- ---- ------<br>--- ----- --- --- ------ -------- ----- --- ------ ----- --<br>----- ----- ---------- --- --- ------ ------ ---- -- ------<br>------- --- ------ ----- --- ---- ------- -- ---- --- --<br>------- ------,166324.2,166322.5,166068.884,166070.7,166085.55,166335.579,,1,the
screen,html.Screen,2_1_1_1_2,2022-05-02T10:37:22.042Z,,,,,,,,,,,,,,,,,54,,,,,,,,,,,,,,129.12100000001374,,response,,,,100,,,,,,,Space,keypress(Space),,,,,,,,-- --- time --- ------ ----- ------- ---- -- --- ------- --<br>------- ---------- ------ -- ----- -- ----- -- ---- ------<br>--- ----- --- --- ------ -------- ----- --- ------ ----- --<br>----- ----- ---------- --- --- ------ ------ ---- -- ------<br>------- --- ------ ----- --- ---- ------- -- ---- --- --<br>------- ------,166466.2,166464.7,166318.913,166324.40000000002,166335.579,166468.912,,2,time
screen,html.Screen,2_1_1_1_3,2022-05-02T10:37:22.245Z,,,,,,,,,,,,,,,,,54,,,,,,,,,,,,,,197.88799999997718,,response,,,,100,,,,,,,Space,keypress(Space),,,,,,,,-- --- ---- the ------ ----- ------- ---- -- --- ------- --<br>------- ---------- ------ -- ----- -- ----- -- ---- ------<br>--- ----- --- --- ------ -------- ----- --- ------ ----- --<br>----- ----- ---------- --- --- ------ ------ ---- -- ------<br>------- --- ------ ----- --- ---- ------- -- ---- --- --<br>------- ------,166668.40000000002,166666.8,166452.246,166466.3,166468.912,166685.58,,3,the
screen,html.Screen,2_1_1_1_4,2022-05-02T10:37:22.394Z,,,,,,,,,,,,,,,,,54,,,,,,,,,,,,,,130.72000000000116,,response,,,,100,,,,,,,Space,keypress(Space),,,,,,,,-- --- ---- --- French ----- ------- ---- -- --- ------- --<br>------- ---------- ------ -- ----- -- ----- -- ---- ------<br>--- ----- --- --- ------ -------- ----- --- ------ ----- --<br>----- ----- ---------- --- --- ------ ------ ---- -- ------<br>------- --- ------ ----- --- ---- ------- -- ---- --- --<br>------- ------,166817.90000000002,166816.3,166668.914,166668.59999999998,166685.58,166835.597,,4,French
screen,html.Screen,2_1_1_1_5,2022-05-02T10:37:22.535Z,,,,,,,,,,,,,,,,,54,,,,,,,,,,,,,,121.70299999997951,,response,,,,100,,,,,,,Space,keypress(Space),,,,,,,,-- --- ---- --- ------ crown ------- ---- -- --- ------- --<br>------- ---------- ------ -- ----- -- ----- -- ---- ------<br>--- ----- --- --- ------ -------- ----- --- ------ ----- --<br>----- ----- ---------- --- --- ------ ------ ---- -- ------<br>------- --- ------ ----- --- ---- ------- -- ---- --- --<br>------- ------,166959.2,166957.3,166818.931,166818,166835.597,166968.934,,5,crown
screen,html.Screen,2_1_1_1_6,2022-05-02T10:37:22.680Z,,,,,,,,,,,,,,,,,54,,,,,,,,,,,,,,132.76600000000326,,response,,,,100,,,,,,,Space,keypress(Space),,,,,,,,-- --- ---- --- ------ ----- secured ---- -- --- ------- --<br>------- ---------- ------ -- ----- -- ----- -- ---- ------<br>--- ----- --- --- ------ -------- ----- --- ------ ----- --<br>----- ----- ---------- --- --- ------ ------ ---- -- ------<br>------- --- ------ ----- --- ---- ------- -- ---- --- --<br>------- ------,167103.40000000002,167101.7,166952.268,166959.3,166968.934,167118.928,,6,secured
screen,html.Screen,2_1_1_1_7,2022-05-02T10:37:23.315Z,,,,,,,,,,,,,,,,,54,,,,,,,,,,,,,,617.4720000000088,,response,,,,100,,,,,,,Space,keypress(Space),,,,,,,,-- --- ---- --- ------ ----- ------- much -- --- ------- --<br>------- ---------- ------ -- ----- -- ----- -- ---- ------<br>--- ----- --- --- ------ -------- ----- --- ------ ----- --<br>----- ----- ---------- --- --- ------ ------ ---- -- ------<br>------- --- ------ ----- --- ---- ------- -- ---- --- --<br>------- ------,167738.5,167736.40000000002,167102.262,167103.5,167118.928,167752.238,,7,much
screen,html.Screen,2_1_1_1_8,2022-05-02T10:37:23.482Z,,,,,,,,,,,,,,,,,54,,,,,,,,,,,,,,152.2619999999879,,response,,,,100,,,,,,,Space,keypress(Space),,,,,,,,-- --- ---- --- ------ ----- ------- ---- of --- ------- --<br>------- ---------- ------ -- ----- -- ----- -- ---- ------<br>--- ----- --- --- ------ -------- ----- --- ------ ----- --<br>----- ----- ---------- --- --- ------ ------ ---- -- ------<br>------- --- ------ ----- --- ---- ------- -- ---- --- --<br>------- ------,167906.2,167904.5,167735.572,167738.59999999998,167752.238,167918.938,,8,of
screen,html.Screen,2_1_1_1_9,2022-05-02T10:37:23.663Z,,,,,,,,,,,,,,,,,54,,,,,,,,,,,,,,166.46200000002864,,response,,,,100,,,,,,,Space,keypress(Space),,,,,,,,-- --- ---- --- ------ ----- ------- ---- -- its ------- --<br>------- ---------- ------ -- ----- -- ----- -- ---- ------<br>--- ----- --- --- ------ -------- ----- --- ------ ----- --<br>----- ----- ---------- --- --- ------ ------ ---- -- ------<br>------- --- ------ ----- --- ---- ------- -- ---- --- --<br>------- ------,168087.09999999998,168085.40000000002,167902.272,167906.3,167918.938,168102.28,,9,its
screen,html.Screen,2_1_1_1_10,2022-05-02T10:37:24.084Z,,,,,,,,,,,,,,,,,54,,,,,,,,,,,,,,403.22000000000116,,response,,,,100,,,,,,,Space,keypress(Space),,,,,,,,-- --- ---- --- ------ ----- ------- ---- -- --- revenue --<br>------- ---------- ------ -- ----- -- ----- -- ---- ------<br>--- ----- --- --- ------ -------- ----- --- ------ ----- --<br>----- ----- ---------- --- --- ------ ------ ---- -- ------<br>------- --- ------ ----- --- ---- ------- -- ---- --- --<br>------- ------,168507.59999999998,168505.5,168085.614,168087.3,168102.28,168518.935,,10,revenue
screen,html.Screen,2_1_1_1_11,2022-05-02T10:37:24.253Z,,,,,,,,,,,,,,,,,54,,,,,,,,,,,,,,155.66499999997905,,response,,,,100,,,,,,,Space,keypress(Space),,,,,,,,-- --- ---- --- ------ ----- ------- ---- -- --- ------- by<br>------- ---------- ------ -- ----- -- ----- -- ---- ------<br>--- ----- --- --- ------ -------- ----- --- ------ ----- --<br>----- ----- ---------- --- --- ------ ------ ---- -- ------<br>------- --- ------ ----- --- ---- ------- -- ---- --- --<br>------- ------,168676.8,168674.59999999998,168502.269,168507.59999999998,168518.935,168685.625,,11,by
screen,html.Screen,2_1_1_1_12,2022-05-02T10:37:24.576Z,,,,,,,,,,,,,,,,,54,,,,,,,,,,,,,,311.875,,response,,,,100,,,,,,,Space,keypress(Space),,,,,,,,-- --- ---- --- ------ ----- ------- ---- -- --- ------- --<br>issuing ---------- ------ -- ----- -- ----- -- ---- ------<br>--- ----- --- --- ------ -------- ----- --- ------ ----- --<br>----- ----- ---------- --- --- ------ ------ ---- -- ------<br>------- --- ------ ----- --- ---- ------- -- ---- --- --<br>------- ------,168999.90000000002,168997.5,168668.959,168676.90000000002,168685.625,169002.281,,12,issuing
screen,html.Screen,2_1_1_1_13,2022-05-02T10:37:24.746Z,,,,,,,,,,,,,,,,,54,,,,,,,,,,,,,,165.21900000001187,,response,,,,100,,,,,,,Space,keypress(Space),,,,,,,,-- --- ---- --- ------ ----- ------- ---- -- --- ------- --<br>------- government ------ -- ----- -- ----- -- ---- ------<br>--- ----- --- --- ------ -------- ----- --- ------ ----- --<br>----- ----- ---------- --- --- ------ ------ ---- -- ------<br>------- --- ------ ----- --- ---- ------- -- ---- --- --<br>------- ------,169169.40000000002,169167.5,168985.615,169000,169002.281,169185.634,,13,government
screen,html.Screen,2_1_1_1_14,2022-05-02T10:37:24.908Z,,,,,,,,,,,,,,,,,54,,,,,,,,,,,,,,143.86600000000908,,response,,,,100,,,,,,,Space,keypress(Space),,,,,,,,-- --- ---- --- ------ ----- ------- ---- -- --- ------- --<br>------- ---------- bonds. -- ----- -- ----- -- ---- ------<br>--- ----- --- --- ------ -------- ----- --- ------ ----- --<br>----- ----- ---------- --- --- ------ ------ ---- -- ------<br>------- --- ------ ----- --- ---- ------- -- ---- --- --<br>------- ------,169331.5,169329.5,169168.968,169169.5,169185.634,169335.638,,14,bonds.
screen,html.Screen,2_1_1_1_15,2022-05-02T10:37:25.094Z,,,,,,,,,,,,,,,,,54,,,,,,,,,,,,,,179.762000000017,,response,,,,100,,,,,,,Space,keypress(Space),,,,,,,,-- --- ---- --- ------ ----- ------- ---- -- --- ------- --<br>------- ---------- ------ In ----- -- ----- -- ---- ------<br>--- ----- --- --- ------ -------- ----- --- ------ ----- --<br>----- ----- ---------- --- --- ------ ------ ---- -- ------<br>------- --- ------ ----- --- ---- ------- -- ---- --- --<br>------- ------,169517.40000000002,169515.40000000002,169318.972,169331.59999999998,169335.638,169518.97,,15,In
screen,html.Screen,2_1_1_1_16,2022-05-02T10:37:25.383Z,,,,,,,,,,,,,,,,,54,,,,,,,,,,,,,,285.2300000000105,,response,,,,100,,,,,,,Space,keypress(Space),,,,,,,,"-- --- ---- --- ------ ----- ------- ---- -- --- ------- --<br>------- ---------- ------ -- 1727, -- ----- -- ---- ------<br>--- ----- --- --- ------ -------- ----- --- ------ ----- --<br>----- ----- ---------- --- --- ------ ------ ---- -- ------<br>------- --- ------ ----- --- ---- ------- -- ---- --- --<br>------- ------",169806.3,169804.2,169502.304,169517.5,169518.97,169818.961,,16,"1727,"
screen,html.Screen,2_1_1_1_17,2022-05-02T10:37:25.872Z,,,,,,,,,,,,,,,,,54,,,,,,,,,,,,,,474.53899999998976,,response,,,,100,,,,,,,Space,keypress(Space),,,,,,,,-- --- ---- --- ------ ----- ------- ---- -- --- ------- --<br>------- ---------- ------ -- ----- in ----- -- ---- ------<br>--- ----- --- --- ------ -------- ----- --- ------ ----- --<br>----- ----- ---------- --- --- ------ ------ ---- -- ------<br>------- --- ------ ----- --- ---- ------- -- ---- --- --<br>------- ------,170295.59999999998,170293.5,169802.295,169806.40000000002,169818.961,170302.29,,17,in
screen,html.Screen,2_1_1_1_18,2022-05-02T10:37:26.041Z,,,,,,,,,,,,,,,,,54,,,,,,,,,,,,,,160.61000000001513,,response,,,,100,,,,,,,Space,keypress(Space),,,,,,,,-- --- ---- --- ------ ----- ------- ---- -- --- ------- --<br>------- ---------- ------ -- ----- -- order -- ---- ------<br>--- ----- --- --- ------ -------- ----- --- ------ ----- --<br>----- ----- ---------- --- --- ------ ------ ---- -- ------<br>------- --- ------ ----- --- ---- ------- -- ---- --- --<br>------- ------,170464.59999999998,170462.90000000002,170285.624,170295.8,170302.29,170468.979,,18,order
screen,html.Screen,2_1_1_1_19,2022-05-02T10:37:26.239Z,,,,,,,,,,,,,,,,,54,,,,,,,,,,,,,,191.52100000000792,,response,,,,100,,,,,,,Space,keypress(Space),,,,,,,,-- --- ---- --- ------ ----- ------- ---- -- --- ------- --<br>------- ---------- ------ -- ----- -- ----- to ---- ------<br>--- ----- --- --- ------ -------- ----- --- ------ ----- --<br>----- ----- ---------- --- --- ------ ------ ---- -- ------<br>------- --- ------ ----- --- ---- ------- -- ---- --- --<br>------- ------,170662.40000000002,170660.5,170452.313,170464.8,170468.979,170668.991,,19,to
screen,html.Screen,2_1_1_1_20,2022-05-02T10:37:26.703Z,,,,,,,,,,,,,,,,,54,,,,,,,,,,,,,,456.20900000000256,,response,,,,100,,,,,,,Space,keypress(Space),,,,,,,,-- --- ---- --- ------ ----- ------- ---- -- --- ------- --<br>------- ---------- ------ -- ----- -- ----- -- save ------<br>--- ----- --- --- ------ -------- ----- --- ------ ----- --<br>----- ----- ---------- --- --- ------ ------ ---- -- ------<br>------- --- ------ ----- --- ---- ------- -- ---- --- --<br>------- ------,171126.90000000002,171125.2,170652.325,170662.59999999998,170668.991,171135.643,,20,save
screen,html.Screen,2_1_1_1_21,2022-05-02T10:37:26.862Z,,,,,,,,,,,,,,,,,54,,,,,,,,,,,,,,147.95699999996577,,response,,,,100,,,,,,,Space,keypress(Space),,,,,,,,"-- --- ---- --- ------ ----- ------- ---- -- --- ------- --<br>------- ---------- ------ -- ----- -- ----- -- ---- money,<br>--- ----- --- --- ------ -------- ----- --- ------ ----- --<br>----- ----- ---------- --- --- ------ ------ ---- -- ------<br>------- --- ------ ----- --- ---- ------- -- ---- --- --<br>------- ------",171285.40000000002,171283.59999999998,171118.977,171127.09999999998,171135.643,171302.326,,21,"money,"
screen,html.Screen,2_1_1_1_22,2022-05-02T10:37:27.178Z,,,,,,,,,,,,,,,,,54,,,,,,,,,,,,,,296.8740000000107,,response,,,,100,,,,,,,Space,keypress(Space),,,,,,,,-- --- ---- --- ------ ----- ------- ---- -- --- ------- --<br>------- ---------- ------ -- ----- -- ----- -- ---- ------<br>the ----- --- --- ------ -------- ----- --- ------ ----- --<br>----- ----- ---------- --- --- ------ ------ ---- -- ------<br>------- --- ------ ----- --- ---- ------- -- ---- --- --<br>------- ------,171601.5,171599.2,171285.66,171285.5,171302.326,171602.327,,22,the
screen,html.Screen,2_1_1_1_23,2022-05-02T10:37:27.360Z,,,,,,,,,,,,,,,,,54,,,,,,,,,,,,,,179.67300000000978,,response,,,,100,,,,,,,Space,keypress(Space),,,,,,,,-- --- ---- --- ------ ----- ------- ---- -- --- ------- --<br>------- ---------- ------ -- ----- -- ----- -- ---- ------<br>--- state --- --- ------ -------- ----- --- ------ ----- --<br>----- ----- ---------- --- --- ------ ------ ---- -- ------<br>------- --- ------ ----- --- ---- ------- -- ---- --- --<br>------- ------,171784.09999999998,171782,171585.661,171601.59999999998,171602.327,171785.67,,23,state
screen,html.Screen,2_1_1_1_24,2022-05-02T10:37:27.538Z,,,,,,,,,,,,,,,,,54,,,,,,,,,,,,,,174.62999999997555,,response,,,,100,,,,,,,Space,keypress(Space),,,,,,,,-- --- ---- --- ------ ----- ------- ---- -- --- ------- --<br>------- ---------- ------ -- ----- -- ----- -- ---- ------<br>--- ----- cut --- ------ -------- ----- --- ------ ----- --<br>----- ----- ---------- --- --- ------ ------ ---- -- ------<br>------- --- ------ ----- --- ---- ------- -- ---- --- --<br>------- ------,171962.09999999998,171960.3,171769.004,171784.3,171785.67,171969.011,,24,cut
screen,html.Screen,2_1_1_1_25,2022-05-02T10:37:27.704Z,,,,,,,,,,,,,,,,,54,,,,,,,,,,,,,,156.68900000001304,,response,,,,100,,,,,,,Space,keypress(Space),,,,,,,,-- --- ---- --- ------ ----- ------- ---- -- --- ------- --<br>------- ---------- ------ -- ----- -- ----- -- ---- ------<br>--- ----- --- the ------ -------- ----- --- ------ ----- --<br>----- ----- ---------- --- --- ------ ------ ---- -- ------<br>------- --- ------ ----- --- ---- ------- -- ---- --- --<br>------- ------,172127.5,172125.7,171952.345,171962.3,171969.011,172135.684,,25,the
screen,html.Screen,2_1_1_1_26,2022-05-02T10:37:27.876Z,,,,,,,,,,,,,,,,,54,,,,,,,,,,,,,,162.11599999997998,,response,,,,100,,,,,,,Space,keypress(Space),,,,,,,,-- --- ---- --- ------ ----- ------- ---- -- --- ------- --<br>------- ---------- ------ -- ----- -- ----- -- ---- ------<br>--- ----- --- --- bonds' -------- ----- --- ------ ----- --<br>----- ----- ---------- --- --- ------ ------ ---- -- ------<br>------- --- ------ ----- --- ---- ------- -- ---- --- --<br>------- ------,172299.40000000002,172297.8,172119.018,172127.7,172135.684,172302.343,,26,bonds'
screen,html.Screen,2_1_1_1_27,2022-05-02T10:37:28.155Z,,,,,,,,,,,,,,,,,54,,,,,,,,,,,,,,274.35700000001816,,response,,,,100,,,,,,,Space,keypress(Space),,,,,,,,-- --- ---- --- ------ ----- ------- ---- -- --- ------- --<br>------- ---------- ------ -- ----- -- ----- -- ---- ------<br>--- ----- --- --- ------ interest ----- --- ------ ----- --<br>----- ----- ---------- --- --- ------ ------ ---- -- ------<br>------- --- ------ ----- --- ---- ------- -- ---- --- --<br>------- ------,172578.40000000002,172576.7,172285.677,172299.40000000002,172302.343,172585.677,,27,interest
screen,html.Screen,2_1_1_1_28,2022-05-02T10:37:28.346Z,,,,,,,,,,,,,,,,,54,,,,,,,,,,,,,,182.92299999998068,,response,,,,100,,,,,,,Space,keypress(Space),,,,,,,,-- --- ---- --- ------ ----- ------- ---- -- --- ------- --<br>------- ---------- ------ -- ----- -- ----- -- ---- ------<br>--- ----- --- --- ------ -------- rate. --- ------ ----- --<br>----- ----- ---------- --- --- ------ ------ ---- -- ------<br>------- --- ------ ----- --- ---- ------- -- ---- --- --<br>------- ------,172770.09999999998,172768.59999999998,172569.011,172578.59999999998,172585.677,172785.684,,28,rate.
screen,html.Screen,2_1_1_1_29,2022-05-02T10:37:28.515Z,,,,,,,,,,,,,,,,,54,,,,,,,,,,,,,,151.11599999997998,,response,,,,100,,,,,,,Space,keypress(Space),,,,,,,,-- --- ---- --- ------ ----- ------- ---- -- --- ------- --<br>------- ---------- ------ -- ----- -- ----- -- ---- ------<br>--- ----- --- --- ------ -------- ----- The ------ ----- --<br>----- ----- ---------- --- --- ------ ------ ---- -- ------<br>------- --- ------ ----- --- ---- ------- -- ---- --- --<br>------- ------,172938.5,172936.8,172769.018,172770.09999999998,172785.684,172952.363,,29,The
screen,html.Screen,2_1_1_1_30,2022-05-02T10:37:28.690Z,,,,,,,,,,,,,,,,,54,,,,,,,,,,,,,,159.43699999997625,,response,,,,100,,,,,,,Space,keypress(Space),,,,,,,,-- --- ---- --- ------ ----- ------- ---- -- --- ------- --<br>------- ---------- ------ -- ----- -- ----- -- ---- ------<br>--- ----- --- --- ------ -------- ----- --- market ----- --<br>----- ----- ---------- --- --- ------ ------ ---- -- ------<br>------- --- ------ ----- --- ---- ------- -- ---- --- --<br>------- ------,173113.40000000002,173111.8,172935.697,172938.59999999998,172952.363,173119.026,,30,market
screen,html.Screen,2_1_1_1_31,2022-05-02T10:37:29.095Z,,,,,,,,,,,,,,,,,54,,,,,,,,,,,,,,397.4739999999874,,response,,,,100,,,,,,,Space,keypress(Space),,,,,,,,-- --- ---- --- ------ ----- ------- ---- -- --- ------- --<br>------- ---------- ------ -- ----- -- ----- -- ---- ------<br>--- ----- --- --- ------ -------- ----- --- ------ value --<br>----- ----- ---------- --- --- ------ ------ ---- -- ------<br>------- --- ------ ----- --- ---- ------- -- ---- --- --<br>------- ------,173518.2,173516.5,173102.36,173113.5,173119.026,173535.688,,31,value
screen,html.Screen,2_1_1_1_32,2022-05-02T10:37:29.300Z,,,,,,,,,,,,,,,,,54,,,,,,,,,,,,,,186.21200000002864,,response,,,,100,,,,,,,Space,keypress(Space),,,,,,,,-- --- ---- --- ------ ----- ------- ---- -- --- ------- --<br>------- ---------- ------ -- ----- -- ----- -- ---- ------<br>--- ----- --- --- ------ -------- ----- --- ------ ----- of<br>----- ----- ---------- --- --- ------ ------ ---- -- ------<br>------- --- ------ ----- --- ---- ------- -- ---- --- --<br>------- ------,173723.59999999998,173721.90000000002,173519.022,173518.40000000002,173535.688,173735.706,,32,of
screen,html.Screen,2_1_1_1_33,2022-05-02T10:37:29.465Z,,,,,,,,,,,,,,,,,54,,,,,,,,,,,,,,151.2939999999944,,response,,,,100,,,,,,,Space,keypress(Space),,,,,,,,-- --- ---- --- ------ ----- ------- ---- -- --- ------- --<br>------- ---------- ------ -- ----- -- ----- -- ---- ------<br>--- ----- --- --- ------ -------- ----- --- ------ ----- --<br>these ----- ---------- --- --- ------ ------ ---- -- ------<br>------- --- ------ ----- --- ---- ------- -- ---- --- --<br>------- ------,173888.8,173887,173719.04,173723.8,173735.706,173902.377,,33,these
screen,html.Screen,2_1_1_1_34,2022-05-02T10:37:29.632Z,,,,,,,,,,,,,,,,,54,,,,,,,,,,,,,,151.32300000000396,,response,,,,100,,,,,,,Space,keypress(Space),,,,,,,,-- --- ---- --- ------ ----- ------- ---- -- --- ------- --<br>------- ---------- ------ -- ----- -- ----- -- ---- ------<br>--- ----- --- --- ------ -------- ----- --- ------ ----- --<br>----- bonds ---------- --- --- ------ ------ ---- -- ------<br>------- --- ------ ----- --- ---- ------- -- ---- --- --<br>------- ------,174055.3,174053.7,173885.711,173888.90000000002,173902.377,174069.049,,34,bonds
screen,html.Screen,2_1_1_1_35,2022-05-02T10:37:29.805Z,,,,,,,,,,,,,,,,,54,,,,,,,,,,,,,,157.95100000000093,,response,,,,100,,,,,,,Space,keypress(Space),,,,,,,,"-- --- ---- --- ------ ----- ------- ---- -- --- ------- --<br>------- ---------- ------ -- ----- -- ----- -- ---- ------<br>--- ----- --- --- ------ -------- ----- --- ------ ----- --<br>----- ----- plummeted, --- --- ------ ------ ---- -- ------<br>------- --- ------ ----- --- ---- ------- -- ---- --- --<br>------- ------",174228.59999999998,174227,174052.383,174055.5,174069.049,174235.709,,35,"plummeted,"
screen,html.Screen,2_1_1_1_36,2022-05-02T10:37:30.125Z,,,,,,,,,,,,,,,,,54,,,,,,,,,,,,,,311.1910000000207,,response,,,,100,,,,,,,Space,keypress(Space),,,,,,,,-- --- ---- --- ------ ----- ------- ---- -- --- ------- --<br>------- ---------- ------ -- ----- -- ----- -- ---- ------<br>--- ----- --- --- ------ -------- ----- --- ------ ----- --<br>----- ----- ---------- and --- ------ ------ ---- -- ------<br>------- --- ------ ----- --- ---- ------- -- ---- --- --<br>------- ------,174548.90000000002,174546.90000000002,174219.043,174228.7,174235.709,174552.374,,36,and
screen,html.Screen,2_1_1_1_37,2022-05-02T10:37:30.314Z,,,,,,,,,,,,,,,,,54,,,,,,,,,,,,,,184.1259999999893,,response,,,,100,,,,,,,Space,keypress(Space),,,,,,,,-- --- ---- --- ------ ----- ------- ---- -- --- ------- --<br>------- ---------- ------ -- ----- -- ----- -- ---- ------<br>--- ----- --- --- ------ -------- ----- --- ------ ----- --<br>----- ----- ---------- --- the ------ ------ ---- -- ------<br>------- --- ------ ----- --- ---- ------- -- ---- --- --<br>------- ------,174738.2,174736.5,174535.708,174548.90000000002,174552.374,174752.387,,37,the
screen,html.Screen,2_1_1_1_38,2022-05-02T10:37:30.480Z,,,,,,,,,,,,,,,,,54,,,,,,,,,,,,,,148.71299999998882,,response,,,,100,,,,,,,Space,keypress(Space),,,,,,,,-- --- ---- --- ------ ----- ------- ---- -- --- ------- --<br>------- ---------- ------ -- ----- -- ----- -- ---- ------<br>--- ----- --- --- ------ -------- ----- --- ------ ----- --<br>----- ----- ---------- --- --- market ------ ---- -- ------<br>------- --- ------ ----- --- ---- ------- -- ---- --- --<br>------- ------,174903.40000000002,174901.09999999998,174735.721,174738.40000000002,174752.387,174919.055,,38,market
screen,html.Screen,2_1_1_1_39,2022-05-02T10:37:30.862Z,,,,,,,,,,,,,,,,,54,,,,,,,,,,,,,,365.0449999999837,,response,,,,100,,,,,,,Space,keypress(Space),,,,,,,,-- --- ---- --- ------ ----- ------- ---- -- --- ------- --<br>------- ---------- ------ -- ----- -- ----- -- ---- ------<br>--- ----- --- --- ------ -------- ----- --- ------ ----- --<br>----- ----- ---------- --- --- ------ became ---- -- ------<br>------- --- ------ ----- --- ---- ------- -- ---- --- --<br>------- ------,175285.90000000002,175284.09999999998,174902.389,174903.59999999998,174919.055,175302.384,,39,became
screen,html.Screen,2_1_1_1_40,2022-05-02T10:37:31.048Z,,,,,,,,,,,,,,,,,54,,,,,,,,,,,,,,167.81600000002072,,response,,,,100,,,,,,,Space,keypress(Space),,,,,,,,-- --- ---- --- ------ ----- ------- ---- -- --- ------- --<br>------- ---------- ------ -- ----- -- ----- -- ---- ------<br>--- ----- --- --- ------ -------- ----- --- ------ ----- --<br>----- ----- ---------- --- --- ------ ------ wary -- ------<br>------- --- ------ ----- --- ---- ------- -- ---- --- --<br>------- ------,175472.09999999998,175470.2,175285.718,175286.09999999998,175302.384,175485.734,,40,wary
screen,html.Screen,2_1_1_1_41,2022-05-02T10:37:31.212Z,,,,,,,,,,,,,,,,,54,,,,,,,,,,,,,,148.26600000000326,,response,,,,100,,,,,,,Space,keypress(Space),,,,,,,,-- --- ---- --- ------ ----- ------- ---- -- --- ------- --<br>------- ---------- ------ -- ----- -- ----- -- ---- ------<br>--- ----- --- --- ------ -------- ----- --- ------ ----- --<br>----- ----- ---------- --- --- ------ ------ ---- of ------<br>------- --- ------ ----- --- ---- ------- -- ---- --- --<br>------- ------,175635.8,175634,175469.068,175472.40000000002,175485.734,175652.401,,41,of
screen,html.Screen,2_1_1_1_42,2022-05-02T10:37:31.601Z,,,,,,,,,,,,,,,,,54,,,,,,,,,,,,,,370.19899999996414,,response,,,,100,,,,,,,Space,keypress(Space),,,,,,,,-- --- ---- --- ------ ----- ------- ---- -- --- ------- --<br>------- ---------- ------ -- ----- -- ----- -- ---- ------<br>--- ----- --- --- ------ -------- ----- --- ------ ----- --<br>----- ----- ---------- --- --- ------ ------ ---- -- French<br>------- --- ------ ----- --- ---- ------- -- ---- --- --<br>------- ------,176024.8,176022.59999999998,175635.735,175636,175652.401,176035.74,,42,French
screen,html.Screen,2_1_1_1_43,2022-05-02T10:37:31.832Z,,,,,,,,,,,,,,,,,54,,,,,,,,,,,,,,217.55999999999767,,response,,,,100,,,,,,,Space,keypress(Space),,,,,,,,-- --- ---- --- ------ ----- ------- ---- -- --- ------- --<br>------- ---------- ------ -- ----- -- ----- -- ---- ------<br>--- ----- --- --- ------ -------- ----- --- ------ ----- --<br>----- ----- ---------- --- --- ------ ------ ---- -- ------<br>credit. --- ------ ----- --- ---- ------- -- ---- --- --<br>------- ------,176255.90000000002,176253.3,176019.074,176024.90000000002,176035.74,176269.078,,43,credit.
screen,html.Screen,2_1_1_1_44,2022-05-02T10:37:31.995Z,,,,,,,,,,,,,,,,,54,,,,,,,,,,,,,,147.5219999999681,,response,,,,100,,,,,,,Space,keypress(Space),,,,,,,,-- --- ---- --- ------ ----- ------- ---- -- --- ------- --<br>------- ---------- ------ -- ----- -- ----- -- ---- ------<br>--- ----- --- --- ------ -------- ----- --- ------ ----- --<br>----- ----- ---------- --- --- ------ ------ ---- -- ------<br>------- The ------ ----- --- ---- ------- -- ---- --- --<br>------- ------,176418.40000000002,176416.59999999998,176252.412,176256.09999999998,176269.078,176435.747,,44,The
screen,html.Screen,2_1_1_1_45,2022-05-02T10:37:32.175Z,,,,,,,,,,,,,,,,,54,,,,,,,,,,,,,,160.75299999999697,,response,,,,100,,,,,,,Space,keypress(Space),,,,,,,,-- --- ---- --- ------ ----- ------- ---- -- --- ------- --<br>------- ---------- ------ -- ----- -- ----- -- ---- ------<br>--- ----- --- --- ------ -------- ----- --- ------ ----- --<br>----- ----- ---------- --- --- ------ ------ ---- -- ------<br>------- --- French ----- --- ---- ------- -- ---- --- --<br>------- ------,176598.40000000002,176596.5,176419.081,176418.5,176435.747,176602.43,,45,French
screen,html.Screen,2_1_1_1_46,2022-05-02T10:37:32.744Z,,,,,,,,,,,,,,,,,54,,,,,,,,,,,,,,563.1699999999837,,response,,,,100,,,,,,,Space,keypress(Space),,,,,,,,-- --- ---- --- ------ ----- ------- ---- -- --- ------- --<br>------- ---------- ------ -- ----- -- ----- -- ---- ------<br>--- ----- --- --- ------ -------- ----- --- ------ ----- --<br>----- ----- ---------- --- --- ------ ------ ---- -- ------<br>------- --- ------ state --- ---- ------- -- ---- --- --<br>------- ------,177167.5,177165.59999999998,176585.764,176598.5,176602.43,177169.076,,46,state
screen,html.Screen,2_1_1_1_47,2022-05-02T10:37:32.974Z,,,,,,,,,,,,,,,,,54,,,,,,,,,,,,,,226.82400000002235,,response,,,,100,,,,,,,Space,keypress(Space),,,,,,,,-- --- ---- --- ------ ----- ------- ---- -- --- ------- --<br>------- ---------- ------ -- ----- -- ----- -- ---- ------<br>--- ----- --- --- ------ -------- ----- --- ------ ----- --<br>----- ----- ---------- --- --- ------ ------ ---- -- ------<br>------- --- ------ ----- was ---- ------- -- ---- --- --<br>------- ------,177397.90000000002,177395.90000000002,177152.41,177167.59999999998,177169.076,177402.434,,47,was
screen,html.Screen,2_1_1_1_48,2022-05-02T10:37:33.144Z,,,,,,,,,,,,,,,,,54,,,,,,,,,,,,,,162.66599999996834,,response,,,,100,,,,,,,Space,keypress(Space),,,,,,,,-- --- ---- --- ------ ----- ------- ---- -- --- ------- --<br>------- ---------- ------ -- ----- -- ----- -- ---- ------<br>--- ----- --- --- ------ -------- ----- --- ------ ----- --<br>----- ----- ---------- --- --- ------ ------ ---- -- ------<br>------- --- ------ ----- --- left ------- -- ---- --- --<br>------- ------,177567.2,177565.09999999998,177385.768,177398,177402.434,177569.101,,48,left
screen,html.Screen,2_1_1_1_49,2022-05-02T10:37:33.313Z,,,,,,,,,,,,,,,,,54,,,,,,,,,,,,,,165.9989999999816,,response,,,,100,,,,,,,Space,keypress(Space),,,,,,,,-- --- ---- --- ------ ----- ------- ---- -- --- ------- --<br>------- ---------- ------ -- ----- -- ----- -- ---- ------<br>--- ----- --- --- ------ -------- ----- --- ------ ----- --<br>----- ----- ---------- --- --- ------ ------ ---- -- ------<br>------- --- ------ ----- --- ---- without -- ---- --- --<br>------- ------,177737.2,177735.09999999998,177552.435,177567.40000000002,177569.101,177752.441,,49,without
screen,html.Screen,2_1_1_1_50,2022-05-02T10:37:33.488Z,,,,,,,,,,,,,,,,,54,,,,,,,,,,,,,,157.05900000000838,,response,,,,100,,,,,,,Space,keypress(Space),,,,,,,,-- --- ---- --- ------ ----- ------- ---- -- --- ------- --<br>------- ---------- ------ -- ----- -- ----- -- ---- ------<br>--- ----- --- --- ------ -------- ----- --- ------ ----- --<br>----- ----- ---------- --- --- ------ ------ ---- -- ------<br>------- --- ------ ----- --- ---- ------- an ---- --- --<br>------- ------,177911.3,177909.5,177735.775,177737.40000000002,177752.441,177919.111,,50,an
screen,html.Screen,2_1_1_1_51,2022-05-02T10:37:34.006Z,,,,,,,,,,,,,,,,,54,,,,,,,,,,,,,,508.28900000001886,,response,,,,100,,,,,,,Space,keypress(Space),,,,,,,,-- --- ---- --- ------ ----- ------- ---- -- --- ------- --<br>------- ---------- ------ -- ----- -- ----- -- ---- ------<br>--- ----- --- --- ------ -------- ----- --- ------ ----- --<br>----- ----- ---------- --- --- ------ ------ ---- -- ------<br>------- --- ------ ----- --- ---- ------- -- easy --- --<br>------- ------,178429.2,178427.40000000002,177902.445,177911.5,177919.111,178435.773,,51,easy
screen,html.Screen,2_1_1_1_52,2022-05-02T10:37:34.182Z,,,,,,,,,,,,,,,,,54,,,,,,,,,,,,,,167.42700000002515,,response,,,,100,,,,,,,Space,keypress(Space),,,,,,,,-- --- ---- --- ------ ----- ------- ---- -- --- ------- --<br>------- ---------- ------ -- ----- -- ----- -- ---- ------<br>--- ----- --- --- ------ -------- ----- --- ------ ----- --<br>----- ----- ---------- --- --- ------ ------ ---- -- ------<br>------- --- ------ ----- --- ---- ------- -- ---- way --<br>------- ------,178605.3,178603.2,178419.107,178429.40000000002,178435.773,178619.128,,52,way
screen,html.Screen,2_1_1_1_53,2022-05-02T10:37:34.372Z,,,,,,,,,,,,,,,,,54,,,,,,,,,,,,,,175.17199999999139,,response,,,,100,,,,,,,Space,keypress(Space),,,,,,,,-- --- ---- --- ------ ----- ------- ---- -- --- ------- --<br>------- ---------- ------ -- ----- -- ----- -- ---- ------<br>--- ----- --- --- ------ -------- ----- --- ------ ----- --<br>----- ----- ---------- --- --- ------ ------ ---- -- ------<br>------- --- ------ ----- --- ---- ------- -- ---- --- of<br>------- ------,178796.2,178794.3,178602.462,178605.40000000002,178619.128,178802.462,,53,of
screen,html.Screen,2_1_1_1_54,2022-05-02T10:37:34.807Z,,,,,,,,,,,,,,,,,54,,,,,,,,,,,,,,426.1379999999772,,response,,,,100,,,,,,,Space,keypress(Space),,,,,,,,-- --- ---- --- ------ ----- ------- ---- -- --- ------- --<br>------- ---------- ------ -- ----- -- ----- -- ---- ------<br>--- ----- --- --- ------ -------- ----- --- ------ ----- --<br>----- ----- ---------- --- --- ------ ------ ---- -- ------<br>------- --- ------ ----- --- ---- ------- -- ---- --- --<br>raising ------,179230.40000000002,179228.59999999998,178785.796,178796.3,178802.462,179235.781,,54,raising
screen,html.Screen,2_1_1_1_55,2022-05-02T10:37:35.381Z,,,,,,,,,,,,,,,,,54,,,,,,,,,,,,,,567.5190000000002,,response,,,,100,,,,,,,Space,keypress(Space),,,,,,,,-- --- ---- --- ------ ----- ------- ---- -- --- ------- --<br>------- ---------- ------ -- ----- -- ----- -- ---- ------<br>--- ----- --- --- ------ -------- ----- --- ------ ----- --<br>----- ----- ---------- --- --- ------ ------ ---- -- ------<br>------- --- ------ ----- --- ---- ------- -- ---- --- --<br>------- money.,179804.90000000002,179803.3,179219.115,179230.5,179235.781,179819.121,,55,money.
Item 100,flow.Loop,2_1_1_1,2022-05-02T10:37:35.381Z,,,,,,,,,,,,,,,,,,,,,,,,,,,,,,,14417.784999999974,,completion,,,,,F,,,,,,,,,,,silence,,,,,179805.09999999998,179803.3,165368.849,165370,165385.515,179819.121,,,
Question 1,html.Screen,2_1_1_2,2022-05-02T10:37:37.789Z,,,,,,,,,,,,,,,,,,,,,,,,,,,,true,TRUE,,2389.8789999999863,,response,,,,100,F,,,,,,TRUE,click #choice-1,,,,silence,,,,,182212.7,182209,179802.455,179805.3,179819.121,182219.17,,,
Question 2,html.Screen,2_1_1_3,2022-05-02T10:37:39.968Z,,,,,,,,,,,,,,,,,,,,,,,,,,,,true,FALSE,,2169.2300000000105,,response,,,,100,F,,,,,,FALSE,click #choice-2,,,,silence,,,,,184391.3,184388.40000000002,182202.504,182212.90000000002,182219.17,184402.559,,,
Item 100,flow.Sequence,2_1_1,2022-05-02T10:37:39.968Z,,,,,,,,,,,,,,,,,,,,,,,,,,,,,,,29003.025000000023,,completion,,,,,,,,,,,,,,,,,,,,,184391.5,184388.40000000002,155368.709,155382.8,155385.375,184402.559,,,
End of Practice,html.Page,2_1_2,2022-05-02T10:37:59.963Z,,,,,,,,,,,,,,,,,,,,,,,,,,,,,,,19999.201,,timeout,,,,,,,,,,,,,,,,,,,,,204386.40000000002,204385.094,184385.893,184391.59999999998,184402.559,204401.76,,,
Practice,flow.Sequence,2_1,2022-05-02T10:37:59.963Z,,,,,,,,,,,,,,,,,,,,,,,,,,,,,,,83650.31700000001,,completion,,,,,,,,,,,,,,,,,,,,,204386.60000000003,204385.094,120718.111,120726.59999999999,120734.777,204401.76,,,
Trap_instruction,html.Page,2_2_0,2022-05-02T10:38:19.963Z,,,,,,,,,,,,,,,,,,,,,,,,,,,,,,,20017.008,,timeout,,,,,,,,,,,,,,,,,,,,,224386.5,224385.436,204385.094,204386.60000000003,204401.76,224418.768,,,
trap_trial,html.Screen,2_2_1,2022-05-02T10:38:23.843Z,,,,,,,,,,,,,,,,,,,,,,,,,,,,true,1,,3844.1320000000123,,response,,,,,,,,,,,1,click #choice-1,,,,,,,,,228267,228262.90000000002,224385.436,224386.60000000003,224418.768,228269.77,,,
end of trap trial,html.Page,2_2_2,2022-05-02T10:38:27.437Z,,,,,,,,,,,,,,,,,,,,,,,,,,,,,,,3590.529999999999,,form submission,,,,,,,,,,,,,,,,,,,,,231860.7,231860.3,228253.104,228267.10000000003,228269.77,231870.019,,,
Trap 1,flow.Sequence,2_2,2022-05-02T10:38:27.437Z,,,,,,,,,,,,,,,,,,,,,,,,,,,,,,,27458.53999999998,,completion,,,,,,,,,,,,,,,,,,,,,231860.90000000002,231860.3,204385.094,204386.60000000003,204401.76,231870.019,,,
Standby,html.Page,2_3_0,2022-05-02T10:38:35.431Z,,,,,,,,,,,,,,,,,,,,,,,,,,,,,,,7999.70199999999,,timeout,,,,,,,,,,,,,,,,,,,,,239854.2,239853.055,231853.353,231861.10000000003,231870.019,239869.721,,,
Holding screen,html.Screen,2_3_1_0_0,2022-05-02T10:38:42.431Z,,,,,,,,,,,,,,,,,,,,,,,,,,,,,,,7000.521000000008,,timeout,,,,,,,,,,,,,,,,,,,,,246854.60000000003,246853.576,239853.055,239854.5,239869.721,246870.242,,,
screen,html.Screen,2_3_1_0_1_0,2022-05-02T10:38:43.906Z,,,,,,,,,,,,,,,,,40,,,,,,,,,,,,,,1455.2580000000016,,response,,,,9,F,,,,,,Space,keypress(Space),,,,lyrical,,,,Police -- ------- ---- ---- ---- - -------- ----- --- --<br>----- ----- ------ -- ---- -- --- - ---- -- - ----- -----<br>------ ---- ------ ---- - -------- ------- -- --- --------<br>-------- ----------- ---- ------ ---- ------ ---- --- ---<br>-------- --- -----,248329.40000000002,248325.5,246853.576,246854.7,246870.242,248336.904,,0,Police
screen,html.Screen,2_3_1_0_1_1,2022-05-02T10:38:44.233Z,,,,,,,,,,,,,,,,,40,,,,,,,,,,,,,,317.6960000000254,,response,,,,9,F,,,,,,Space,keypress(Space),,,,lyrical,,,,------ in ------- ---- ---- ---- - -------- ----- --- --<br>----- ----- ------ -- ---- -- --- - ---- -- - ----- -----<br>------ ---- ------ ---- - -------- ------- -- --- --------<br>-------- ----------- ---- ------ ---- ------ ---- --- ---<br>-------- --- -----,248656.2,248654.60000000003,248320.238,248329.60000000003,248336.904,248670.304,,1,in
screen,html.Screen,2_3_1_0_1_2,2022-05-02T10:38:44.367Z,,,,,,,,,,,,,,,,,40,,,,,,,,,,,,,,118.99599999998463,,response,,,,9,F,,,,,,Space,keypress(Space),,,,lyrical,,,,------ -- Georgia ---- ---- ---- - -------- ----- --- --<br>----- ----- ------ -- ---- -- --- - ---- -- - ----- -----<br>------ ---- ------ ---- - -------- ------- -- --- --------<br>-------- ----------- ---- ------ ---- ------ ---- --- ---<br>-------- --- -----,248790.90000000002,248789.3,248653.638,248656.40000000002,248670.304,248803.66,,2,Georgia
screen,html.Screen,2_3_1_0_1_3,2022-05-02T10:38:44.521Z,,,,,,,,,,,,,,,,,40,,,,,,,,,,,,,,139.8399999999965,,response,,,,9,F,,,,,,Space,keypress(Space),,,,lyrical,,,,------ -- ------- have ---- ---- - -------- ----- --- --<br>----- ----- ------ -- ---- -- --- - ---- -- - ----- -----<br>------ ---- ------ ---- - -------- ------- -- --- --------<br>-------- ----------- ---- ------ ---- ------ ---- --- ---<br>-------- --- -----,248945.10000000003,248943.5,248786.994,248791.10000000003,248803.66,248953.654,,3,have
screen,html.Screen,2_3_1_0_1_4,2022-05-02T10:38:44.690Z,,,,,,,,,,,,,,,,,40,,,,,,,,,,,,,,157.94600000002538,,response,,,,9,F,,,,,,Space,keypress(Space),,,,lyrical,,,,------ -- ------- ---- shut ---- - -------- ----- --- --<br>----- ----- ------ -- ---- -- --- - ---- -- - ----- -----<br>------ ---- ------ ---- - -------- ------- -- --- --------<br>-------- ----------- ---- ------ ---- ------ ---- --- ---<br>-------- --- -----,249113.40000000002,249111.60000000003,248936.988,248945.2,248953.654,249120.326,,4,shut
screen,html.Screen,2_3_1_0_1_5,2022-05-02T10:38:44.884Z,,,,,,,,,,,,,,,,,40,,,,,,,,,,,,,,186.17399999999907,,response,,,,9,F,,,,,,Space,keypress(Space),,,,lyrical,,,,------ -- ------- ---- ---- down - -------- ----- --- --<br>----- ----- ------ -- ---- -- --- - ---- -- - ----- -----<br>------ ---- ------ ---- - -------- ------- -- --- --------<br>-------- ----------- ---- ------ ---- ------ ---- --- ---<br>-------- --- -----,249308,249306.5,249103.66,249113.60000000003,249120.326,249320.336,,5,down
screen,html.Screen,2_3_1_0_1_6,2022-05-02T10:38:45.065Z,,,,,,,,,,,,,,,,,40,,,,,,,,,,,,,,166.3640000000014,,response,,,,9,F,,,,,,Space,keypress(Space),,,,lyrical,,,,------ -- ------- ---- ---- ---- a -------- ----- --- --<br>----- ----- ------ -- ---- -- --- - ---- -- - ----- -----<br>------ ---- ------ ---- - -------- ------- -- --- --------<br>-------- ----------- ---- ------ ---- ------ ---- --- ---<br>-------- --- -----,249488.5,249486.7,249303.67,249308.2,249320.336,249503.671,,6,a
screen,html.Screen,2_3_1_0_1_7,2022-05-02T10:38:45.210Z,,,,,,,,,,,,,,,,,40,,,,,,,,,,,,,,128.52900000000955,,response,,,,9,F,,,,,,Space,keypress(Space),,,,lyrical,,,,------ -- ------- ---- ---- ---- - lemonade ----- --- --<br>----- ----- ------ -- ---- -- --- - ---- -- - ----- -----<br>------ ---- ------ ---- - -------- ------- -- --- --------<br>-------- ----------- ---- ------ ---- ------ ---- --- ---<br>-------- --- -----,249633.90000000002,249632.2,249487.005,249488.60000000003,249503.671,249637.009,,7,lemonade
screen,html.Screen,2_3_1_0_1_8,2022-05-02T10:38:45.368Z,,,,,,,,,,,,,,,,,40,,,,,,,,,,,,,,152.89100000003236,,response,,,,9,F,,,,,,Space,keypress(Space),,,,lyrical,,,,------ -- ------- ---- ---- ---- - -------- stand --- --<br>----- ----- ------ -- ---- -- --- - ---- -- - ----- -----<br>------ ---- ------ ---- - -------- ------- -- --- --------<br>-------- ----------- ---- ------ ---- ------ ---- --- ---<br>-------- --- -----,249791.40000000002,249789.90000000002,249620.343,249634.10000000003,249637.009,249803.667,,8,stand
screen,html.Screen,2_3_1_0_1_9,2022-05-02T10:38:45.535Z,,,,,,,,,,,,,,,,,40,,,,,,,,,,,,,,153.5330000000249,,response,,,,9,F,,,,,,Space,keypress(Space),,,,lyrical,,,,------ -- ------- ---- ---- ---- - -------- ----- run --<br>----- ----- ------ -- ---- -- --- - ---- -- - ----- -----<br>------ ---- ------ ---- - -------- ------- -- --- --------<br>-------- ----------- ---- ------ ---- ------ ---- --- ---<br>-------- --- -----,249958.7,249957.2,249787.001,249791.60000000003,249803.667,249970.349,,9,run
screen,html.Screen,2_3_1_0_1_10,2022-05-02T10:38:45.725Z,,,,,,,,,,,,,,,,,40,,,,,,,,,,,,,,176.65100000001257,,response,,,,9,F,,,,,,Space,keypress(Space),,,,lyrical,,,,------ -- ------- ---- ---- ---- - -------- ----- --- by<br>----- ----- ------ -- ---- -- --- - ---- -- - ----- -----<br>------ ---- ------ ---- - -------- ------- -- --- --------<br>-------- ----------- ---- ------ ---- ------ ---- --- ---<br>-------- --- -----,250148.40000000002,250147,249953.683,249958.90000000002,249970.349,250153.672,,10,by
screen,html.Screen,2_3_1_0_1_11,2022-05-02T10:38:46.198Z,,,,,,,,,,,,,,,,,40,,,,,,,,,,,,,,465.8280000000086,,response,,,,9,F,,,,,,Space,keypress(Space),,,,lyrical,,,,------ -- ------- ---- ---- ---- - -------- ----- --- --<br>three ----- ------ -- ---- -- --- - ---- -- - ----- -----<br>------ ---- ------ ---- - -------- ------- -- --- --------<br>-------- ----------- ---- ------ ---- ------ ---- --- ---<br>-------- --- -----,250621.60000000003,250619.5,250137.006,250148.7,250153.672,250637.003,,11,three
screen,html.Screen,2_3_1_0_1_12,2022-05-02T10:38:46.371Z,,,,,,,,,,,,,,,,,40,,,,,,,,,,,,,,155.49700000000303,,response,,,,9,F,,,,,,Space,keypress(Space),,,,lyrical,,,,------ -- ------- ---- ---- ---- - -------- ----- --- --<br>----- girls ------ -- ---- -- --- - ---- -- - ----- -----<br>------ ---- ------ ---- - -------- ------- -- --- --------<br>-------- ----------- ---- ------ ---- ------ ---- --- ---<br>-------- --- -----,250794.60000000003,250792.5,250620.337,250622,250637.003,250803.696,,12,girls
screen,html.Screen,2_3_1_0_1_13,2022-05-02T10:38:46.531Z,,,,,,,,,,,,,,,,,40,,,,,,,,,,,,,,149.704000000027,,response,,,,9,F,,,,,,Space,keypress(Space),,,,lyrical,,,,------ -- ------- ---- ---- ---- - -------- ----- --- --<br>----- ----- trying -- ---- -- --- - ---- -- - ----- -----<br>------ ---- ------ ---- - -------- ------- -- --- --------<br>-------- ----------- ---- ------ ---- ------ ---- --- ---<br>-------- --- -----,250954.90000000002,250953.40000000002,250787.03,250794.7,250803.696,250970.357,,13,trying
screen,html.Screen,2_3_1_0_1_14,2022-05-02T10:38:46.696Z,,,,,,,,,,,,,,,,,40,,,,,,,,,,,,,,147.4429999999993,,response,,,,9,F,,,,,,Space,keypress(Space),,,,lyrical,,,,------ -- ------- ---- ---- ---- - -------- ----- --- --<br>----- ----- ------ to ---- -- --- - ---- -- - ----- -----<br>------ ---- ------ ---- - -------- ------- -- --- --------<br>-------- ----------- ---- ------ ---- ------ ---- --- ---<br>-------- --- -----,251119.7,251117.8,250953.691,250955.10000000003,250970.357,251137.035,,14,to
screen,html.Screen,2_3_1_0_1_15,2022-05-02T10:38:46.850Z,,,,,,,,,,,,,,,,,40,,,,,,,,,,,,,,135.3650000000198,,response,,,,9,F,,,,,,Space,keypress(Space),,,,lyrical,,,,------ -- ------- ---- ---- ---- - -------- ----- --- --<br>----- ----- ------ -- save -- --- - ---- -- - ----- -----<br>------ ---- ------ ---- - -------- ------- -- --- --------<br>-------- ----------- ---- ------ ---- ------ ---- --- ---<br>-------- --- -----,251274,251272.40000000002,251120.369,251119.8,251137.035,251287.039,,15,save
screen,html.Screen,2_3_1_0_1_16,2022-05-02T10:38:47.011Z,,,,,,,,,,,,,,,,,40,,,,,,,,,,,,,,145.7609999999986,,response,,,,9,F,,,,,,Space,keypress(Space),,,,lyrical,,,,------ -- ------- ---- ---- ---- - -------- ----- --- --<br>----- ----- ------ -- ---- up --- - ---- -- - ----- -----<br>------ ---- ------ ---- - -------- ------- -- --- --------<br>-------- ----------- ---- ------ ---- ------ ---- --- ---<br>-------- --- -----,251434.40000000002,251432.8,251270.373,251274.2,251287.039,251437.042,,16,up
screen,html.Screen,2_3_1_0_1_17,2022-05-02T10:38:47.188Z,,,,,,,,,,,,,,,,,40,,,,,,,,,,,,,,172.75800000000163,,response,,,,9,F,,,,,,Space,keypress(Space),,,,lyrical,,,,------ -- ------- ---- ---- ---- - -------- ----- --- --<br>----- ----- ------ -- ---- -- for - ---- -- - ----- -----<br>------ ---- ------ ---- - -------- ------- -- --- --------<br>-------- ----------- ---- ------ ---- ------ ---- --- ---<br>-------- --- -----,251611.7,251609.8,251420.376,251434.60000000003,251437.042,251620.371,,17,for
screen,html.Screen,2_3_1_0_1_18,2022-05-02T10:38:47.362Z,,,,,,,,,,,,,,,,,40,,,,,,,,,,,,,,163.12899999998626,,response,,,,9,F,,,,,,Space,keypress(Space),,,,lyrical,,,,------ -- ------- ---- ---- ---- - -------- ----- --- --<br>----- ----- ------ -- ---- -- --- a ---- -- - ----- -----<br>------ ---- ------ ---- - -------- ------- -- --- --------<br>-------- ----------- ---- ------ ---- ------ ---- --- ---<br>-------- --- -----,251785.3,251783.5,251603.705,251611.90000000002,251620.371,251787.034,,18,a
screen,html.Screen,2_3_1_0_1_19,2022-05-02T10:38:47.554Z,,,,,,,,,,,,,,,,,40,,,,,,,,,,,,,,188.56600000002072,,response,,,,9,F,,,,,,Space,keypress(Space),,,,lyrical,,,,------ -- ------- ---- ---- ---- - -------- ----- --- --<br>----- ----- ------ -- ---- -- --- - trip -- - ----- -----<br>------ ---- ------ ---- - -------- ------- -- --- --------<br>-------- ----------- ---- ------ ---- ------ ---- --- ---<br>-------- --- -----,251977.8,251975.60000000003,251770.368,251785.5,251787.034,251987.043,,19,trip
screen,html.Screen,2_3_1_0_1_20,2022-05-02T10:38:47.712Z,,,,,,,,,,,,,,,,,40,,,,,,,,,,,,,,146.95699999999488,,response,,,,9,F,,,,,,Space,keypress(Space),,,,lyrical,,,,------ -- ------- ---- ---- ---- - -------- ----- --- --<br>----- ----- ------ -- ---- -- --- - ---- to - ----- -----<br>------ ---- ------ ---- - -------- ------- -- --- --------<br>-------- ----------- ---- ------ ---- ------ ---- --- ---<br>-------- --- -----,252135.5,252134,251970.377,251977.90000000002,251987.043,252137.049,,20,to
screen,html.Screen,2_3_1_0_1_21,2022-05-02T10:38:47.879Z,,,,,,,,,,,,,,,,,40,,,,,,,,,,,,,,164.45100000000093,,response,,,,9,F,,,,,,Space,keypress(Space),,,,lyrical,,,,------ -- ------- ---- ---- ---- - -------- ----- --- --<br>----- ----- ------ -- ---- -- --- - ---- -- a ----- -----<br>------ ---- ------ ---- - -------- ------- -- --- --------<br>-------- ----------- ---- ------ ---- ------ ---- --- ---<br>-------- --- -----,252303.10000000003,252301.5,252120.383,252135.60000000003,252137.049,252320.384,,21,a
screen,html.Screen,2_3_1_0_1_22,2022-05-02T10:38:48.038Z,,,,,,,,,,,,,,,,,40,,,,,,,,,,,,,,139.61600000000908,,response,,,,9,F,,,,,,Space,keypress(Space),,,,lyrical,,,,------ -- ------- ---- ---- ---- - -------- ----- --- --<br>----- ----- ------ -- ---- -- --- - ---- -- - water -----<br>------ ---- ------ ---- - -------- ------- -- --- --------<br>-------- ----------- ---- ------ ---- ------ ---- --- ---<br>-------- --- -----,252461.8,252460,252303.718,252303.2,252320.384,252470.384,,22,water
screen,html.Screen,2_3_1_0_1_23,2022-05-02T10:38:48.217Z,,,,,,,,,,,,,,,,,40,,,,,,,,,,,,,,168.41599999999744,,response,,,,9,F,,,,,,Space,keypress(Space),,,,lyrical,,,,"------ -- ------- ---- ---- ---- - -------- ----- --- --<br>----- ----- ------ -- ---- -- --- - ---- -- - ----- park,<br>------ ---- ------ ---- - -------- ------- -- --- --------<br>-------- ----------- ---- ------ ---- ------ ---- --- ---<br>-------- --- -----",252640.60000000003,252638.8,252453.718,252461.90000000002,252470.384,252653.716,,23,"park,"
screen,html.Screen,2_3_1_0_1_24,2022-05-02T10:38:48.756Z,,,,,,,,,,,,,,,,,40,,,,,,,,,,,,,,524.5840000000026,,response,,,,9,F,,,,,,Space,keypress(Space),,,,lyrical,,,,------ -- ------- ---- ---- ---- - -------- ----- --- --<br>----- ----- ------ -- ---- -- --- - ---- -- - ----- -----<br>saying ---- ------ ---- - -------- ------- -- --- --------<br>-------- ----------- ---- ------ ---- ------ ---- --- ---<br>-------- --- -----,253179.90000000002,253178.3,252637.05,252640.7,252653.716,253187.046,,24,saying
screen,html.Screen,2_3_1_0_1_25,2022-05-02T10:38:48.936Z,,,,,,,,,,,,,,,,,40,,,,,,,,,,,,,,170.55400000003283,,response,,,,9,F,,,,,,Space,keypress(Space),,,,lyrical,,,,------ -- ------- ---- ---- ---- - -------- ----- --- --<br>----- ----- ------ -- ---- -- --- - ---- -- - ----- -----<br>------ they ------ ---- - -------- ------- -- --- --------<br>-------- ----------- ---- ------ ---- ------ ---- --- ---<br>-------- --- -----,253359.7,253357.60000000003,253170.38,253180.10000000003,253187.046,253370.403,,25,they
screen,html.Screen,2_3_1_0_1_26,2022-05-02T10:38:49.088Z,,,,,,,,,,,,,,,,,40,,,,,,,,,,,,,,139.2970000000205,,response,,,,9,F,,,,,,Space,keypress(Space),,,,lyrical,,,,------ -- ------- ---- ---- ---- - -------- ----- --- --<br>----- ----- ------ -- ---- -- --- - ---- -- - ----- -----<br>------ ---- didn't ---- - -------- ------- -- --- --------<br>-------- ----------- ---- ------ ---- ------ ---- --- ---<br>-------- --- -----,253511.5,253509.7,253353.737,253359.90000000002,253370.403,253520.407,,26,didn't
screen,html.Screen,2_3_1_0_1_27,2022-05-02T10:38:49.265Z,,,,,,,,,,,,,,,,,40,,,,,,,,,,,,,,165.79300000000512,,response,,,,9,F,,,,,,Space,keypress(Space),,,,lyrical,,,,------ -- ------- ---- ---- ---- - -------- ----- --- --<br>----- ----- ------ -- ---- -- --- - ---- -- - ----- -----<br>------ ---- ------ have - -------- ------- -- --- --------<br>-------- ----------- ---- ------ ---- ------ ---- --- ---<br>-------- --- -----,253688.40000000002,253686.2,253503.741,253511.7,253520.407,253703.734,,27,have
screen,html.Screen,2_3_1_0_1_28,2022-05-02T10:38:49.438Z,,,,,,,,,,,,,,,,,40,,,,,,,,,,,,,,156.66600000002654,,response,,,,9,F,,,,,,Space,keypress(Space),,,,lyrical,,,,------ -- ------- ---- ---- ---- - -------- ----- --- --<br>----- ----- ------ -- ---- -- --- - ---- -- - ----- -----<br>------ ---- ------ ---- a -------- ------- -- --- --------<br>-------- ----------- ---- ------ ---- ------ ---- --- ---<br>-------- --- -----,253862.10000000003,253860.40000000002,253687.068,253688.5,253703.734,253870.405,,28,a
screen,html.Screen,2_3_1_0_1_29,2022-05-02T10:38:49.617Z,,,,,,,,,,,,,,,,,40,,,,,,,,,,,,,,168.7950000000128,,response,,,,9,F,,,,,,Space,keypress(Space),,,,lyrical,,,,------ -- ------- ---- ---- ---- - -------- ----- --- --<br>----- ----- ------ -- ---- -- --- - ---- -- - ----- -----<br>------ ---- ------ ---- - business ------- -- --- --------<br>-------- ----------- ---- ------ ---- ------ ---- --- ---<br>-------- --- -----,254040.7,254039.2,253853.739,253862.3,253870.405,254053.744,,29,business
screen,html.Screen,2_3_1_0_1_30,2022-05-02T10:38:49.801Z,,,,,,,,,,,,,,,,,40,,,,,,,,,,,,,,169.4560000000056,,response,,,,9,F,,,,,,Space,keypress(Space),,,,lyrical,,,,------ -- ------- ---- ---- ---- - -------- ----- --- --<br>----- ----- ------ -- ---- -- --- - ---- -- - ----- -----<br>------ ---- ------ ---- - -------- license -- --- --------<br>-------- ----------- ---- ------ ---- ------ ---- --- ---<br>-------- --- -----,254224.8,254223.2,254037.078,254040.8,254053.744,254237.106,,30,license
screen,html.Screen,2_3_1_0_1_31,2022-05-02T10:38:49.988Z,,,,,,,,,,,,,,,,,40,,,,,,,,,,,,,,172.79400000002352,,response,,,,9,F,,,,,,Space,keypress(Space),,,,lyrical,,,,------ -- ------- ---- ---- ---- - -------- ----- --- --<br>----- ----- ------ -- ---- -- --- - ---- -- - ----- -----<br>------ ---- ------ ---- - -------- ------- or --- --------<br>-------- ----------- ---- ------ ---- ------ ---- --- ---<br>-------- --- -----,254411.5,254409.90000000002,254220.44,254225,254237.106,254420.414,,31,or
screen,html.Screen,2_3_1_0_1_32,2022-05-02T10:38:50.187Z,,,,,,,,,,,,,,,,,40,,,,,,,,,,,,,,188.08600000001024,,response,,,,9,F,,,,,,Space,keypress(Space),,,,lyrical,,,,------ -- ------- ---- ---- ---- - -------- ----- --- --<br>----- ----- ------ -- ---- -- --- - ---- -- - ----- -----<br>------ ---- ------ ---- - -------- ------- -- the --------<br>-------- ----------- ---- ------ ---- ------ ---- --- ---<br>-------- --- -----,254610.40000000002,254608.5,254403.748,254411.60000000003,254420.414,254620.415,,32,the
screen,html.Screen,2_3_1_0_1_33,2022-05-02T10:38:50.360Z,,,,,,,,,,,,,,,,,40,,,,,,,,,,,,,,161.08499999999185,,response,,,,9,F,,,,,,Space,keypress(Space),,,,lyrical,,,,------ -- ------- ---- ---- ---- - -------- ----- --- --<br>----- ----- ------ -- ---- -- --- - ---- -- - ----- -----<br>------ ---- ------ ---- - -------- ------- -- --- required<br>-------- ----------- ---- ------ ---- ------ ---- --- ---<br>-------- --- -----,254783.7,254781.5,254603.749,254610.5,254620.415,254787.091,,33,required
screen,html.Screen,2_3_1_0_1_34,2022-05-02T10:38:50.655Z,,,,,,,,,,,,,,,,,40,,,,,,,,,,,,,,289.70900000000256,,response,,,,9,F,,,,,,Space,keypress(Space),,,,lyrical,,,,------ -- ------- ---- ---- ---- - -------- ----- --- --<br>----- ----- ------ -- ---- -- --- - ---- -- - ----- -----<br>------ ---- ------ ---- - -------- ------- -- --- --------<br>permits. ----------- ---- ------ ---- ------ ---- --- ---<br>-------- --- -----,255078.3,255076.8,254770.425,254783.90000000002,254787.091,255087.094,,34,permits.
screen,html.Screen,2_3_1_0_1_35,2022-05-02T10:38:50.854Z,,,,,,,,,,,,,,,,,40,,,,,,,,,,,,,,189.10599999999977,,response,,,,9,F,,,,,,Space,keypress(Space),,,,lyrical,,,,------ -- ------- ---- ---- ---- - -------- ----- --- --<br>----- ----- ------ -- ---- -- --- - ---- -- - ----- -----<br>------ ---- ------ ---- - -------- ------- -- --- --------<br>-------- Morningstar ---- ------ ---- ------ ---- --- ---<br>-------- --- -----,255278,255276.2,255070.428,255078.5,255087.094,255287.105,,35,Morningstar
screen,html.Screen,2_3_1_0_1_36,2022-05-02T10:38:51.010Z,,,,,,,,,,,,,,,,,40,,,,,,,,,,,,,,144.39499999998952,,response,,,,9,F,,,,,,Space,keypress(Space),,,,lyrical,,,,------ -- ------- ---- ---- ---- - -------- ----- --- --<br>----- ----- ------ -- ---- -- --- - ---- -- - ----- -----<br>------ ---- ------ ---- - -------- ------- -- --- --------<br>-------- ----------- says ------ ---- ------ ---- --- ---<br>-------- --- -----,255433.5,255431.5,255270.439,255278.10000000003,255287.105,255437.096,,36,says
screen,html.Screen,2_3_1_0_1_37,2022-05-02T10:38:51.171Z,,,,,,,,,,,,,,,,,40,,,,,,,,,,,,,,156.2039999999979,,response,,,,9,F,,,,,,Space,keypress(Space),,,,lyrical,,,,------ -- ------- ---- ---- ---- - -------- ----- --- --<br>----- ----- ------ -- ---- -- --- - ---- -- - ----- -----<br>------ ---- ------ ---- - -------- ------- -- --- --------<br>-------- ----------- ---- police ---- ------ ---- --- ---<br>-------- --- -----,255595,255593.3,255420.43,255433.7,255437.096,255603.778,,37,police
screen,html.Screen,2_3_1_0_1_38,2022-05-02T10:38:52.631Z,,,,,,,,,,,,,,,,,40,,,,,,,,,,,,,,1449.1220000000321,,response,,,,9,F,,,,,,Space,keypress(Space),,,,lyrical,,,,------ -- ------- ---- ---- ---- - -------- ----- --- --<br>----- ----- ------ -- ---- -- --- - ---- -- - ----- -----<br>------ ---- ------ ---- - -------- ------- -- --- --------<br>-------- ----------- ---- ------ also ------ ---- --- ---<br>-------- --- -----,257054.7,257052.90000000002,255587.112,255595.2,255603.778,257070.394,,38,also
screen,html.Screen,2_3_1_0_1_39,2022-05-02T10:38:52.830Z,,,,,,,,,,,,,,,,,40,,,,,,,,,,,,,,181.3060000000114,,response,,,,9,F,,,,,,Space,keypress(Space),,,,lyrical,,,,------ -- ------- ---- ---- ---- - -------- ----- --- --<br>----- ----- ------ -- ---- -- --- - ---- -- - ----- -----<br>------ ---- ------ ---- - -------- ------- -- --- --------<br>-------- ----------- ---- ------ ---- didn't ---- --- ---<br>-------- --- -----,257253.5,257251.7,257053.728,257054.90000000002,257070.394,257270.466,,39,didn't
screen,html.Screen,2_3_1_0_1_40,2022-05-02T10:38:53.008Z,,,,,,,,,,,,,,,,,40,,,,,,,,,,,,,,159.43400000003749,,response,,,,9,F,,,,,,Space,keypress(Space),,,,lyrical,,,,------ -- ------- ---- ---- ---- - -------- ----- --- --<br>----- ----- ------ -- ---- -- --- - ---- -- - ----- -----<br>------ ---- ------ ---- - -------- ------- -- --- --------<br>-------- ----------- ---- ------ ---- ------ know --- ---<br>-------- --- -----,257431.40000000002,257429.90000000002,257253.8,257253.60000000003,257270.466,257437.129,,40,know
screen,html.Screen,2_3_1_0_1_41,2022-05-02T10:38:53.443Z,,,,,,,,,,,,,,,,,40,,,,,,,,,,,,,,428.0710000000254,,response,,,,9,F,,,,,,Space,keypress(Space),,,,lyrical,,,,------ -- ------- ---- ---- ---- - -------- ----- --- --<br>----- ----- ------ -- ---- -- --- - ---- -- - ----- -----<br>------ ---- ------ ---- - -------- ------- -- --- --------<br>-------- ----------- ---- ------ ---- ------ ---- how ---<br>-------- --- -----,257866.90000000002,257865.2,257420.463,257431.60000000003,257437.129,257870.464,,41,how
screen,html.Screen,2_3_1_0_1_42,2022-05-02T10:38:53.663Z,,,,,,,,,,,,,,,,,40,,,,,,,,,,,,,,214.93600000001607,,response,,,,9,F,,,,,,Space,keypress(Space),,,,lyrical,,,,------ -- ------- ---- ---- ---- - -------- ----- --- --<br>----- ----- ------ -- ---- -- --- - ---- -- - ----- -----<br>------ ---- ------ ---- - -------- ------- -- --- --------<br>-------- ----------- ---- ------ ---- ------ ---- --- the<br>-------- --- -----,258087.10000000003,258085.40000000002,257853.798,257866.90000000002,257870.464,258103.818,,42,the
screen,html.Screen,2_3_1_0_1_43,2022-05-02T10:38:54.059Z,,,,,,,,,,,,,,,,,40,,,,,,,,,,,,,,376.38200000001234,,response,,,,9,F,,,,,,Space,keypress(Space),,,,lyrical,,,,------ -- ------- ---- ---- ---- - -------- ----- --- --<br>----- ----- ------ -- ---- -- --- - ---- -- - ----- -----<br>------ ---- ------ ---- - -------- ------- -- --- --------<br>-------- ----------- ---- ------ ---- ------ ---- --- ---<br>lemonade --- -----,258482.90000000002,258480.2,258087.152,258087.3,258103.818,258487.145,,43,lemonade
screen,html.Screen,2_3_1_0_1_44,2022-05-02T10:38:54.444Z,,,,,,,,,,,,,,,,,40,,,,,,,,,,,,,,378.65499999999884,,response,,,,9,F,,,,,,Space,keypress(Space),,,,lyrical,,,,------ -- ------- ---- ---- ---- - -------- ----- --- --<br>----- ----- ------ -- ---- -- --- - ---- -- - ----- -----<br>------ ---- ------ ---- - -------- ------- -- --- --------<br>-------- ----------- ---- ------ ---- ------ ---- --- ---<br>-------- was -----,258868.10000000003,258865.8,258470.479,258483.40000000002,258487.145,258870.476,,44,was
screen,html.Screen,2_3_1_0_1_45,2022-05-02T10:38:54.618Z,,,,,,,,,,,,,,,,,40,,,,,,,,,,,,,,170.1240000000398,,response,,,,9,F,,,,,,Space,keypress(Space),,,,lyrical,,,,------ -- ------- ---- ---- ---- - -------- ----- --- --<br>----- ----- ------ -- ---- -- --- - ---- -- - ----- -----<br>------ ---- ------ ---- - -------- ------- -- --- --------<br>-------- ----------- ---- ------ ---- ------ ---- --- ---<br>-------- --- made.,259042.2,259040.60000000003,258853.81,258868.3,258870.476,259053.823,,45,made.
Item 9,flow.Loop,2_3_1_0_1,2022-05-02T10:38:54.619Z,,,,,,,,,,,,,,,,,,,,,,,,,,,,,,,12170.358000000037,,completion,,,,,,,,,,,,,,,,,,,,,259042.5,259040.60000000003,246853.576,246854.7,246870.242,259053.823,,,
Question 1,html.Screen,2_3_1_0_2,2022-05-02T10:38:57.245Z,,,,,,,,,,,,,,,,,,,,,,,,,,,,true,FALSE,,2611.277000000031,,response,,,,9,F,,,,,,FALSE,click #choice-2,,,,lyrical,,,,,261668.3,261665.10000000003,259037.157,259042.5,259053.823,261670.522,,,
Question 2,html.Screen,2_3_1_0_3,2022-05-02T10:38:59.919Z,,,,,,,,,,,,,,,,,,,,,,,,,,,,true,FALSE,,2668.6780000000144,,response,,,,9,F,,,,,,FALSE,click #choice-2,,,,lyrical,,,,,264342.4,264339.2,261653.856,261668.5,261670.522,264353.904,,,
Item 9,flow.Sequence,2_3_1_0,2022-05-02T10:38:59.919Z,,,,,,,,,,,,,,,,,,,,,,,,,,,,,,,24469.47900000002,,completion,,,,,,,,,,,,,,,,,,,,,264342.60000000003,264339.2,239853.055,239854.40000000002,239869.721,264353.904,,,
Holding screen,html.Screen,2_3_1_1_0,2022-05-02T10:39:06.915Z,,,,,,,,,,,,,,,,,,,,,,,,,,,,,,,7000.085000000021,,timeout,,,,,,,,,,,,,,,,,,,,,271338.3,271337.323,264337.238,264342.8,264353.904,271353.989,,,
screen,html.Screen,2_3_1_1_1_0,2022-05-02T10:39:08.062Z,,,,,,,,,,,,,,,,,19,,,,,,,,,,,,,,1128.810999999987,,response,,,,17,F,,,,,,Space,keypress(Space),,,,lyrical,,,,"Interestingly, --- -------- -------- ---------- ---- -------<br>-- ---------- -- --- ----- ------ ----- ---- --------- ----<br>------- ------ -------- -- ------ ---------- ------ ---<br>------ -- -- ---- -- ---------- -------- ------ ---- -------<br>---- --- --------- ------- ----- --------- ---- ----- --<br>------ -------- -- ------ -- ---- ------------",272486,272482.8,271337.323,271338.5,271353.989,272487.337,,0,"Interestingly,"
screen,html.Screen,2_3_1_1_1_1,2022-05-02T10:39:08.250Z,,,,,,,,,,,,,,,,,19,,,,,,,,,,,,,,185.16300000000047,,response,,,,17,F,,,,,,Space,keypress(Space),,,,lyrical,,,,-------------- the -------- -------- ---------- ---- -------<br>-- ---------- -- --- ----- ------ ----- ---- --------- ----<br>------- ------ -------- -- ------ ---------- ------ ---<br>------ -- -- ---- -- ---------- -------- ------ ---- -------<br>---- --- --------- ------- ----- --------- ---- ----- --<br>------ -------- -- ------ -- ---- ------------,272674,272672.5,272470.671,272486.2,272487.337,272687.388,,1,the
