sender,sender_type,sender_id,timestamp,meta,,Blues,Classical,Country,Dance,Electronic,Folk,Gospel,Hip-Hop,Jazz,Latin,Musical/Film,New-age,Pop,Prolific_id,Provo_ID,R&B,Rap,Reggae,Religious,Rock,Soul,Swing,Traditional,age,artist_name,correct,correctResponse,distraction,duration,education,ended_on,familiarity,gender,headphone_check_performance,item,list,music_frequency,offensiveness,pleasantness,position_correct,preference,response,response_action,snippet_file,song_name,song_rating,sound,stimulus_1,stimulus_2,stimulus_3,text,time_commit,time_end,time_render,time_run,time_show,time_switch,url,word,word_ID
Prolific ID,html.Form,0,2022-05-02T12:40:53.656Z,"{""labjs_version"":""20.2.2"",""labjs_build"":{""flavor"":""production"",""commit"":""a25486e0c714a0ae2ce03ff94b7bb6896854dcfa""},""location"":""https://run.pavlovia.org/mvasilev/prolific3_music_g/"",""userAgent"":""Mozilla/5.0 (Macintosh; Intel Mac OS X 10_15_7) AppleWebKit/605.1.15 (KHTML, like Gecko) Version/15.4 Safari/605.1.15"",""platform"":""MacIntel"",""language"":""en-GB"",""locale"":""en-GB"",""timeZone"":""Europe/London"",""timezoneOffset"":-60,""screen_width"":1280,""screen_height"":800,""scroll_width"":1280,""scroll_height"":574,""window_innerWidth"":1280,""window_innerHeight"":622,""devicePixelRatio"":2}",,,,,,,,,,,,,,,5c28cac3867f660001ae9c4a,,,,,,,,,,,,,,,9500,,form submission,,,,,,,,,,,,,,,,,,,,,18601,18600,9070,9030,9100,18640,{},,
Introduction,html.Screen,1_0,2022-05-02T12:40:57.577Z,,,,,,,,,,,,,,,,,,,,,,,,,,,,,,,4015,,response,,,,,,,,,,,continue,click button,,,,,,,,,22522.000000000004,22640,18625,18601,18640,22547,,,
Volume calibration,html.Screen,1_1,2022-05-02T12:41:08.192Z,,,,,,,,,,,,,,,,,,,,,,,,,,,,,,,10728,,response,,,,,,,,,,,continue,click button,,,,,,,,,33137,33257,22529,22522.000000000004,22547,33164,,,
Task instructions,html.Screen,1_2,2022-05-02T12:41:14.876Z,,,,,,,,,,,,,,,,,,,,,,,,,,,,,,,6794,,response,,,,,,,,,,,continue,click button,,,,,,,,,39821,39941,33147,33138,33164,39844,,,
Sounds,html.Screen,1_3_0_0,2022-05-02T12:41:19.138Z,,,,,,,,,,,,,,,,,,,,,,,,,,,,,,,4253,,timeout,,,,,,,,,1,,,,,,,,S,I,O,,44083,44081,39830,39822,39844,44097,,,
Judgement,html.Screen,1_3_0_1,2022-05-02T12:41:21.142Z,,,,,,,,,,,,,,,,,,,,,,,,,,,,true,1,,2127,,response,,,,,,,,,1,,1,click #choice-1,,,,,S,I,O,,46087,46208,44081,44084,44097,46110,,,
Trial,flow.Sequence,1_3_0,2022-05-02T12:41:21.143Z,,,,,,,,,,,,,,,,,,,,,,,,,,,,,,,6364,,completion,,,,,,,,,1,,,,,,,,S,I,O,,46088,46208,39830,39822,39844,46110,,,
Sounds,html.Screen,1_3_1_0,2022-05-02T12:41:25.402Z,,,,,,,,,,,,,,,,,,,,,,,,,,,,,,,4254,,timeout,,,,,,,,,3,,,,,,,,O,I,S,,50348,50347,46097,46089,46110,50364,,,
Judgement,html.Screen,1_3_1_1,2022-05-02T12:41:26.089Z,,,,,,,,,,,,,,,,,,,,,,,,,,,,true,3,,811,,response,,,,,,,,,3,,3,click #choice-3,,,,,O,I,S,,51035.00000000001,51158,50347,50348,50364,51062,,,
Trial,flow.Sequence,1_3_1,2022-05-02T12:41:26.090Z,,,,,,,,,,,,,,,,,,,,,,,,,,,,,,,5048,,completion,,,,,,,,,3,,,,,,,,O,I,S,,51036,51158,46097,46089,46110,51062,,,
Sounds,html.Screen,1_3_2_0,2022-05-02T12:41:30.352Z,,,,,,,,,,,,,,,,,,,,,,,,,,,,,,,4252,,timeout,,,,,,,,,2,,,,,,,,O,S,I,,55298,55298,51048,51036,51062,55314,,,
Judgement,html.Screen,1_3_2_1,2022-05-02T12:41:30.959Z,,,,,,,,,,,,,,,,,,,,,,,,,,,,true,2,,727,,response,,,,,,,,,2,,2,click #choice-2,,,,,O,S,I,,55905,56025,55298,55298,55314,55929,,,
Trial,flow.Sequence,1_3_2,2022-05-02T12:41:30.959Z,,,,,,,,,,,,,,,,,,,,,,,,,,,,,,,4963,,completion,,,,,,,,,2,,,,,,,,O,S,I,,55905,56025,51048,51036,51062,55929,,,
Sounds,html.Screen,1_3_3_0,2022-05-02T12:41:35.219Z,,,,,,,,,,,,,,,,,,,,,,,,,,,,,,,4252,,timeout,,,,,,,,,3,,,,,,,,I,O,S,,60165,60164,55914,55905,55929,60181,,,
Judgement,html.Screen,1_3_3_1,2022-05-02T12:41:35.859Z,,,,,,,,,,,,,,,,,,,,,,,,,,,,true,3,,762,,response,,,,,,,,,3,,3,click #choice-3,,,,,I,O,S,,60805,60926,60164,60165,60181,60829,,,
Trial,flow.Sequence,1_3_3,2022-05-02T12:41:35.860Z,,,,,,,,,,,,,,,,,,,,,,,,,,,,,,,4997,,completion,,,,,,,,,3,,,,,,,,I,O,S,,60806.00000000001,60926,55914,55905,55929,60829,,,
Sounds,html.Screen,1_3_4_0,2022-05-02T12:41:40.118Z,,,,,,,,,,,,,,,,,,,,,,,,,,,,,,,4252,,timeout,,,,,,,,,2,,,,,,,,I,S,O,,65065,65064,60814,60806.00000000001,60829,65081,,,
Judgement,html.Screen,1_3_4_1,2022-05-02T12:41:40.826Z,,,,,,,,,,,,,,,,,,,,,,,,,,,,true,2,,829,,response,,,,,,,,,2,,2,click #choice-2,,,,,I,S,O,,65772,65893,65064,65065,65081,65795,,,
Trial,flow.Sequence,1_3_4,2022-05-02T12:41:40.826Z,,,,,,,,,,,,,,,,,,,,,,,,,,,,,,,5064,,completion,,,,,,,,,2,,,,,,,,I,S,O,,65772,65893,60814,60806.00000000001,60829,65795,,,
Sounds,html.Screen,1_3_5_0,2022-05-02T12:41:45.086Z,,,,,,,,,,,,,,,,,,,,,,,,,,,,,,,4253,,timeout,,,,,,,,,1,,,,,,,,S,O,I,,70032,70031,65781,65773,65795,70048,,,
Judgement,html.Screen,1_3_5_1,2022-05-02T12:41:46.042Z,,,,,,,,,,,,,,,,,,,,,,,,,,,,true,1,,1079,,response,,,,,,,,,1,,1,click #choice-1,,,,,S,O,I,,70988,71110,70031,70033,70048,71031,,,
Trial,flow.Sequence,1_3_5,2022-05-02T12:41:46.042Z,,,,,,,,,,,,,,,,,,,,,,,,,,,,,,,5315,,completion,,,,,,,,,1,,,,,,,,S,O,I,,70989,71110,65781,65773,65795,71031,,,
Task,flow.Loop,1_3,2022-05-02T12:41:46.047Z,,,,,,,,,,,,,,,,,,,,,,,,,,,,,,,31266,,completion,,,1,,,,,,,,,,,,,,,,,,70994,71110,39830,39822,39844,71031,,,
Trap,html.Screen,1_4,2022-05-02T12:41:46.049Z,,,,,,,,,,,,,,,,,,,,,,,,,,,,,,,NaN,,skipped,,,,,,,,,,,,,,,,,,,,,70995,71110,,70995,,71031,,,
Thanks,html.Screen,1_5,2022-05-02T12:41:49.873Z,,,,,,,,,,,,,,,,,,,,,,,,,,,,,,,3928,,response,,,,,,,,,,,continue,click button,,,,,,,,,74819,74943,71015,70995,71031,77331,,,
Headphone screening,flow.Sequence,1,2022-05-02T12:41:49.873Z,,,,,,,,,,,,,,,,,,,,,,,,,,,,,,,56303,,completion,,,,,,,,,,,,,,,,,,,,,74820.00000000001,74943,18625,18601,18640,77331,,,
Instructions,html.Page,2_0,2022-05-02T12:42:09.360Z,,,,,,,,,,,,,,,,,,,,,,,,,,,,,,,16955,,form submission,,,,,,,,,,,,,,,,,,,,,94307,94286,77315,77307,77331,94348,,,
Holding screen,html.Screen,2_1_0_0,2022-05-02T12:42:19.386Z,,,,,,,,,,,,,,,,,,,,,,,,,,,,,,,10025,,timeout,,,,,,,,,,,,,,,,,,,,,104333,104332,94332,94316,94348,104373,,,
screen,html.Screen,2_1_0_1_0,2022-05-02T12:42:20.429Z,,,,,,,,,,,,,,,,,53,,,,,,,,,,,,,,1168,,response,,,,99,,,,,,,Space,keypress(Space),,,,,,,,When -- ----- -- ------ - ------- --- ----------<br>------------- ------ ------ ---- ---- ------- ----- -- ----<br>-------- ------- -- ---------- --- - --- ----- ----- ----<br>---- --- --- ----- --- ---- ---- ------- ----- ---- -------<br>--- --- -- ----- -- --- ---- -- --- ---- -- ------ ------<br>--- ----- -- ----,105377,105500,104332,104335.00000000001,104373,105399,,0,When
screen,html.Screen,2_1_0_1_1,2022-05-02T12:42:21.110Z,,,,,,,,,,,,,,,,,53,,,,,,,,,,,,,,798,,response,,,,99,,,,,,,Space,keypress(Space),,,,,,,,---- it ----- -- ------ - ------- --- ----------<br>------------- ------ ------ ---- ---- ------- ----- -- ----<br>-------- ------- -- ---------- --- - --- ----- ----- ----<br>---- --- --- ----- --- ---- ---- ------- ----- ---- -------<br>--- --- -- ----- -- --- ---- -- --- ---- -- ------ ------<br>--- ----- -- ----,106057,106180,105382,105377,105399,106082,,1,it
screen,html.Screen,2_1_0_1_2,2022-05-02T12:42:21.669Z,,,,,,,,,,,,,,,,,53,,,,,,,,,,,,,,676,,response,,,,99,,,,,,,Space,keypress(Space),,,,,,,,---- -- comes -- ------ - ------- --- ----------<br>------------- ------ ------ ---- ---- ------- ----- -- ----<br>-------- ------- -- ---------- --- - --- ----- ----- ----<br>---- --- --- ----- --- ---- ---- ------- ----- ---- -------<br>--- --- -- ----- -- --- ---- -- --- ---- -- ------ ------<br>--- ----- -- ----,106616,106741,106065,106060,106082,106649,,2,comes
screen,html.Screen,2_1_0_1_3,2022-05-02T12:42:22.424Z,,,,,,,,,,,,,,,,,53,,,,,,,,,,,,,,862,,response,,,,99,,,,,,,Space,keypress(Space),,,,,,,,---- -- ----- to ------ - ------- --- ----------<br>------------- ------ ------ ---- ---- ------- ----- -- ----<br>-------- ------- -- ---------- --- - --- ----- ----- ----<br>---- --- --- ----- --- ---- ---- ------- ----- ---- -------<br>--- --- -- ----- -- --- ---- -- --- ---- -- ------ ------<br>--- ----- -- ----,107371.00000000001,107494,106632,106618.00000000001,106649,107400,,3,to
screen,html.Screen,2_1_0_1_4,2022-05-02T12:42:22.960Z,,,,,,,,,,,,,,,,,53,,,,,,,,,,,,,,649,,response,,,,99,,,,,,,Space,keypress(Space),,,,,,,,---- -- ----- -- having - ------- --- ----------<br>------------- ------ ------ ---- ---- ------- ----- -- ----<br>-------- ------- -- ---------- --- - --- ----- ----- ----<br>---- --- --- ----- --- ---- ---- ------- ----- ---- -------<br>--- --- -- ----- -- --- ---- -- --- ---- -- ------ ------<br>--- ----- -- ----,107908,108031,107382,107372,107400,107932,,4,having
screen,html.Screen,2_1_0_1_5,2022-05-02T12:42:23.394Z,,,,,,,,,,,,,,,,,53,,,,,,,,,,,,,,551.0000000000146,,response,,,,99,,,,,,,Space,keypress(Space),,,,,,,,---- -- ----- -- ------ a ------- --- ----------<br>------------- ------ ------ ---- ---- ------- ----- -- ----<br>-------- ------- -- ---------- --- - --- ----- ----- ----<br>---- --- --- ----- --- ---- ---- ------- ----- ---- -------<br>--- --- -- ----- -- --- ---- -- --- ---- -- ------ ------<br>--- ----- -- ----,108341.00000000001,108466.00000000001,107915,107908,107932,108366,,5,a
screen,html.Screen,2_1_0_1_6,2022-05-02T12:42:23.903Z,,,,,,,,,,,,,,,,,53,,,,,,,,,,,,,,627,,response,,,,99,,,,,,,Space,keypress(Space),,,,,,,,---- -- ----- -- ------ - lasting --- ----------<br>------------- ------ ------ ---- ---- ------- ----- -- ----<br>-------- ------- -- ---------- --- - --- ----- ----- ----<br>---- --- --- ----- --- ---- ---- ------- ----- ---- -------<br>--- --- -- ----- -- --- ---- -- --- ---- -- ------ ------<br>--- ----- -- ----,108851,108976,108349,108342,108366,108882,,6,lasting
screen,html.Screen,2_1_0_1_7,2022-05-02T12:42:24.303Z,,,,,,,,,,,,,,,,,53,,,,,,,,,,,,,,510,,response,,,,99,,,,,,,Space,keypress(Space),,,,,,,,---- -- ----- -- ------ - ------- and ----------<br>------------- ------ ------ ---- ---- ------- ----- -- ----<br>-------- ------- -- ---------- --- - --- ----- ----- ----<br>---- --- --- ----- --- ---- ---- ------- ----- ---- -------<br>--- --- -- ----- -- --- ---- -- --- ---- -- ------ ------<br>--- ----- -- ----,109251,109375,108865,108852,108882,109282,,7,and
screen,html.Screen,2_1_0_1_8,2022-05-02T12:42:24.814Z,,,,,,,,,,,,,,,,,53,,,,,,,,,,,,,,620,,response,,,,99,,,,,,,Space,keypress(Space),,,,,,,,---- -- ----- -- ------ - ------- --- fulfilling<br>------------- ------ ------ ---- ---- ------- ----- -- ----<br>-------- ------- -- ---------- --- - --- ----- ----- ----<br>---- --- --- ----- --- ---- ---- ------- ----- ---- -------<br>--- --- -- ----- -- --- ---- -- --- ---- -- ------ ------<br>--- ----- -- ----,109762,109886,109266,109251,109282,109799,,8,fulfilling
screen,html.Screen,2_1_0_1_9,2022-05-02T12:42:25.360Z,,,,,,,,,,,,,,,,,53,,,,,,,,,,,,,,650,,response,,,,99,,,,,,,Space,keypress(Space),,,,,,,,"---- -- ----- -- ------ - ------- --- ----------<br>relationship, ------ ------ ---- ---- ------- ----- -- ----<br>-------- ------- -- ---------- --- - --- ----- ----- ----<br>---- --- --- ----- --- ---- ---- ------- ----- ---- -------<br>--- --- -- ----- -- --- ---- -- --- ---- -- ------ ------<br>--- ----- -- ----",110307,110432,109782,109762,109799,110332,,9,"relationship,"
screen,html.Screen,2_1_0_1_10,2022-05-02T12:42:25.920Z,,,,,,,,,,,,,,,,,53,,,,,,,,,,,,,,677,,response,,,,99,,,,,,,Space,keypress(Space),,,,,,,,---- -- ----- -- ------ - ------- --- ----------<br>------------- common ------ ---- ---- ------- ----- -- ----<br>-------- ------- -- ---------- --- - --- ----- ----- ----<br>---- --- --- ----- --- ---- ---- ------- ----- ---- -------<br>--- --- -- ----- -- --- ---- -- --- ---- -- ------ ------<br>--- ----- -- ----,110868.00000000001,110992,110315,110308,110332,110899,,10,common
screen,html.Screen,2_1_0_1_11,2022-05-02T12:42:26.471Z,,,,,,,,,,,,,,,,,53,,,,,,,,,,,,,,662,,response,,,,99,,,,,,,Space,keypress(Space),,,,,,,,---- -- ----- -- ------ - ------- --- ----------<br>------------- ------ wisdom ---- ---- ------- ----- -- ----<br>-------- ------- -- ---------- --- - --- ----- ----- ----<br>---- --- --- ----- --- ---- ---- ------- ----- ---- -------<br>--- --- -- ----- -- --- ---- -- --- ---- -- ------ ------<br>--- ----- -- ----,111419,111544,110882,110870,110899,111449,,11,wisdom
screen,html.Screen,2_1_0_1_12,2022-05-02T12:42:26.970Z,,,,,,,,,,,,,,,,,53,,,,,,,,,,,,,,609,,response,,,,99,,,,,,,Space,keypress(Space),,,,,,,,---- -- ----- -- ------ - ------- --- ----------<br>------------- ------ ------ says ---- ------- ----- -- ----<br>-------- ------- -- ---------- --- - --- ----- ----- ----<br>---- --- --- ----- --- ---- ---- ------- ----- ---- -------<br>--- --- -- ----- -- --- ---- -- --- ---- -- ------ ------<br>--- ----- -- ----,111918,112041,111432,111419,111449,111949,,12,says
screen,html.Screen,2_1_0_1_13,2022-05-02T12:42:27.429Z,,,,,,,,,,,,,,,,,53,,,,,,,,,,,,,,570,,response,,,,99,,,,,,,Space,keypress(Space),,,,,,,,---- -- ----- -- ------ - ------- --- ----------<br>------------- ------ ------ ---- that ------- ----- -- ----<br>-------- ------- -- ---------- --- - --- ----- ----- ----<br>---- --- --- ----- --- ---- ---- ------- ----- ---- -------<br>--- --- -- ----- -- --- ---- -- --- ---- -- ------ ------<br>--- ----- -- ----,112376,112502,111932,111918,111949,112399,,13,that
screen,html.Screen,2_1_0_1_14,2022-05-02T12:42:27.909Z,,,,,,,,,,,,,,,,,53,,,,,,,,,,,,,,599.0000000000146,,response,,,,99,,,,,,,Space,keypress(Space),,,,,,,,---- -- ----- -- ------ - ------- --- ----------<br>------------- ------ ------ ---- ---- feeling ----- -- ----<br>-------- ------- -- ---------- --- - --- ----- ----- ----<br>---- --- --- ----- --- ---- ---- ------- ----- ---- -------<br>--- --- -- ----- -- --- ---- -- --- ---- -- ------ ------<br>--- ----- -- ----,112856.00000000001,112981.00000000001,112382,112377,112399,112882,,14,feeling
screen,html.Screen,2_1_0_1_15,2022-05-02T12:42:28.280Z,,,,,,,,,,,,,,,,,53,,,,,,,,,,,,,,487.00000000001455,,response,,,,99,,,,,,,Space,keypress(Space),,,,,,,,---- -- ----- -- ------ - ------- --- ----------<br>------------- ------ ------ ---- ---- ------- close -- ----<br>-------- ------- -- ---------- --- - --- ----- ----- ----<br>---- --- --- ----- --- ---- ---- ------- ----- ---- -------<br>--- --- -- ----- -- --- ---- -- --- ---- -- ------ ------<br>--- ----- -- ----,113227,113353.00000000001,112866,112857,112882,113249,,15,close
screen,html.Screen,2_1_0_1_16,2022-05-02T12:42:28.702Z,,,,,,,,,,,,,,,,,53,,,,,,,,,,,,,,543,,response,,,,99,,,,,,,Space,keypress(Space),,,,,,,,---- -- ----- -- ------ - ------- --- ----------<br>------------- ------ ------ ---- ---- ------- ----- to ----<br>-------- ------- -- ---------- --- - --- ----- ----- ----<br>---- --- --- ----- --- ---- ---- ------- ----- ---- -------<br>--- --- -- ----- -- --- ---- -- --- ---- -- ------ ------<br>--- ----- -- ----,113649,113775,113232,113229,113249,113682,,16,to
screen,html.Screen,2_1_0_1_17,2022-05-02T12:42:29.170Z,,,,,,,,,,,,,,,,,53,,,,,,,,,,,,,,574.0000000000146,,response,,,,99,,,,,,,Space,keypress(Space),,,,,,,,---- -- ----- -- ------ - ------- --- ----------<br>------------- ------ ------ ---- ---- ------- ----- -- your<br>-------- ------- -- ---------- --- - --- ----- ----- ----<br>---- --- --- ----- --- ---- ---- ------- ----- ---- -------<br>--- --- -- ----- -- --- ---- -- --- ---- -- ------ ------<br>--- ----- -- ----,114118.00000000001,114240.00000000001,113666,113650,113682,114149,,17,your
screen,html.Screen,2_1_0_1_18,2022-05-02T12:42:29.691Z,,,,,,,,,,,,,,,,,53,,,,,,,,,,,,,,633,,response,,,,99,,,,,,,Space,keypress(Space),,,,,,,,---- -- ----- -- ------ - ------- --- ----------<br>------------- ------ ------ ---- ---- ------- ----- -- ----<br>romantic ------- -- ---------- --- - --- ----- ----- ----<br>---- --- --- ----- --- ---- ---- ------- ----- ---- -------<br>--- --- -- ----- -- --- ---- -- --- ---- -- ------ ------<br>--- ----- -- ----,114639,114765,114132,114118.00000000001,114149,114666,,18,romantic
screen,html.Screen,2_1_0_1_19,2022-05-02T12:42:30.151Z,,,,,,,,,,,,,,,,,53,,,,,,,,,,,,,,577,,response,,,,99,,,,,,,Space,keypress(Space),,,,,,,,---- -- ----- -- ------ - ------- --- ----------<br>------------- ------ ------ ---- ---- ------- ----- -- ----<br>-------- partner -- ---------- --- - --- ----- ----- ----<br>---- --- --- ----- --- ---- ---- ------- ----- ---- -------<br>--- --- -- ----- -- --- ---- -- --- ---- -- ------ ------<br>--- ----- -- ----,115099,115226,114649,114640,114666,115132,,19,partner
screen,html.Screen,2_1_0_1_20,2022-05-02T12:42:30.850Z,,,,,,,,,,,,,,,,,53,,,,,,,,,,,,,,802,,response,,,,99,,,,,,,Space,keypress(Space),,,,,,,,---- -- ----- -- ------ - ------- --- ----------<br>------------- ------ ------ ---- ---- ------- ----- -- ----<br>-------- ------- is ---------- --- - --- ----- ----- ----<br>---- --- --- ----- --- ---- ---- ------- ----- ---- -------<br>--- --- -- ----- -- --- ---- -- --- ---- -- ------ ------<br>--- ----- -- ----,115798,115918,115116,115099,115132,115832,,20,is
screen,html.Screen,2_1_0_1_21,2022-05-02T12:42:31.249Z,,,,,,,,,,,,,,,,,53,,,,,,,,,,,,,,506,,response,,,,99,,,,,,,Space,keypress(Space),,,,,,,,---- -- ----- -- ------ - ------- --- ----------<br>------------- ------ ------ ---- ---- ------- ----- -- ----<br>-------- ------- -- paramount. --- - --- ----- ----- ----<br>---- --- --- ----- --- ---- ---- ------- ----- ---- -------<br>--- --- -- ----- -- --- ---- -- --- ---- -- ------ ------<br>--- ----- -- ----,116197,116322,115816,115798,115832,116215,,21,paramount.
screen,html.Screen,2_1_0_1_22,2022-05-02T12:42:31.711Z,,,,,,,,,,,,,,,,,53,,,,,,,,,,,,,,583,,response,,,,99,,,,,,,Space,keypress(Space),,,,,,,,---- -- ----- -- ------ - ------- --- ----------<br>------------- ------ ------ ---- ---- ------- ----- -- ----<br>-------- ------- -- ---------- But - --- ----- ----- ----<br>---- --- --- ----- --- ---- ---- ------- ----- ---- -------<br>--- --- -- ----- -- --- ---- -- --- ---- -- ------ ------<br>--- ----- -- ----,116659,116783,116200,116197,116215,116682,,22,But
screen,html.Screen,2_1_0_1_23,2022-05-02T12:42:32.161Z,,,,,,,,,,,,,,,,,53,,,,,,,,,,,,,,569.0000000000146,,response,,,,99,,,,,,,Space,keypress(Space),,,,,,,,---- -- ----- -- ------ - ------- --- ----------<br>------------- ------ ------ ---- ---- ------- ----- -- ----<br>-------- ------- -- ---------- --- a --- ----- ----- ----<br>---- --- --- ----- --- ---- ---- ------- ----- ---- -------<br>--- --- -- ----- -- --- ---- -- --- ---- -- ------ ------<br>--- ----- -- ----,117109.00000000001,117234.00000000001,116665,116660,116682,117132,,23,a
screen,html.Screen,2_1_0_1_24,2022-05-02T12:42:32.574Z,,,,,,,,,,,,,,,,,53,,,,,,,,,,,,,,533,,response,,,,99,,,,,,,Space,keypress(Space),,,,,,,,---- -- ----- -- ------ - ------- --- ----------<br>------------- ------ ------ ---- ---- ------- ----- -- ----<br>-------- ------- -- ---------- --- - new ----- ----- ----<br>---- --- --- ----- --- ---- ---- ------- ----- ---- -------<br>--- --- -- ----- -- --- ---- -- --- ---- -- ------ ------<br>--- ----- -- ----,117522,117648,117115,117109.00000000001,117132,117549,,24,new
screen,html.Screen,2_1_0_1_25,2022-05-02T12:42:32.958Z,,,,,,,,,,,,,,,,,53,,,,,,,,,,,,,,501,,response,,,,99,,,,,,,Space,keypress(Space),,,,,,,,---- -- ----- -- ------ - ------- --- ----------<br>------------- ------ ------ ---- ---- ------- ----- -- ----<br>-------- ------- -- ---------- --- - --- study ----- ----<br>---- --- --- ----- --- ---- ---- ------- ----- ---- -------<br>--- --- -- ----- -- --- ---- -- --- ---- -- ------ ------<br>--- ----- -- ----,117906,118033,117532,117522,117549,117932,,25,study
screen,html.Screen,2_1_0_1_26,2022-05-02T12:42:33.389Z,,,,,,,,,,,,,,,,,53,,,,,,,,,,,,,,546,,response,,,,99,,,,,,,Space,keypress(Space),,,,,,,,---- -- ----- -- ------ - ------- --- ----------<br>------------- ------ ------ ---- ---- ------- ----- -- ----<br>-------- ------- -- ---------- --- - --- ----- finds ----<br>---- --- --- ----- --- ---- ---- ------- ----- ---- -------<br>--- --- -- ----- -- --- ---- -- --- ---- -- ------ ------<br>--- ----- -- ----,118336,118462,117916,117906,117932,118366,,26,finds
screen,html.Screen,2_1_0_1_27,2022-05-02T12:42:33.739Z,,,,,,,,,,,,,,,,,53,,,,,,,,,,,,,,462,,response,,,,99,,,,,,,Space,keypress(Space),,,,,,,,---- -- ----- -- ------ - ------- --- ----------<br>------------- ------ ------ ---- ---- ------- ----- -- ----<br>-------- ------- -- ---------- --- - --- ----- ----- that<br>---- --- --- ----- --- ---- ---- ------- ----- ---- -------<br>--- --- -- ----- -- --- ---- -- --- ---- -- ------ ------<br>--- ----- -- ----,118686,118811,118349,118337,118366,118716,,27,that
screen,html.Screen,2_1_0_1_28,2022-05-02T12:42:34.210Z,,,,,,,,,,,,,,,,,53,,,,,,,,,,,,,,583,,response,,,,99,,,,,,,Space,keypress(Space),,,,,,,,---- -- ----- -- ------ - ------- --- ----------<br>------------- ------ ------ ---- ---- ------- ----- -- ----<br>-------- ------- -- ---------- --- - --- ----- ----- ----<br>it's --- --- ----- --- ---- ---- ------- ----- ---- -------<br>--- --- -- ----- -- --- ---- -- --- ---- -- ------ ------<br>--- ----- -- ----,119158,119282,118699,118687,118716,119183,,28,it's
screen,html.Screen,2_1_0_1_29,2022-05-02T12:42:34.594Z,,,,,,,,,,,,,,,,,53,,,,,,,,,,,,,,501,,response,,,,99,,,,,,,Space,keypress(Space),,,,,,,,---- -- ----- -- ------ - ------- --- ----------<br>------------- ------ ------ ---- ---- ------- ----- -- ----<br>-------- ------- -- ---------- --- - --- ----- ----- ----<br>---- not --- ----- --- ---- ---- ------- ----- ---- -------<br>--- --- -- ----- -- --- ---- -- --- ---- -- ------ ------<br>--- ----- -- ----,119542,119667,119166,119158,119183,119566,,29,not
screen,html.Screen,2_1_0_1_30,2022-05-02T12:42:35.032Z,,,,,,,,,,,,,,,,,53,,,,,,,,,,,,,,555,,response,,,,99,,,,,,,Space,keypress(Space),,,,,,,,---- -- ----- -- ------ - ------- --- ----------<br>------------- ------ ------ ---- ---- ------- ----- -- ----<br>-------- ------- -- ---------- --- - --- ----- ----- ----<br>---- --- how ----- --- ---- ---- ------- ----- ---- -------<br>--- --- -- ----- -- --- ---- -- --- ---- -- ------ ------<br>--- ----- -- ----,119980,120104,119549,119542,119566,120016,,30,how
screen,html.Screen,2_1_0_1_31,2022-05-02T12:42:35.459Z,,,,,,,,,,,,,,,,,53,,,,,,,,,,,,,,534,,response,,,,99,,,,,,,Space,keypress(Space),,,,,,,,---- -- ----- -- ------ - ------- --- ----------<br>------------- ------ ------ ---- ---- ------- ----- -- ----<br>-------- ------- -- ---------- --- - --- ----- ----- ----<br>---- --- --- close --- ---- ---- ------- ----- ---- -------<br>--- --- -- ----- -- --- ---- -- --- ---- -- ------ ------<br>--- ----- -- ----,120407,120533,119999,119981.00000000001,120016,120433,,31,close
screen,html.Screen,2_1_0_1_32,2022-05-02T12:42:35.913Z,,,,,,,,,,,,,,,,,53,,,,,,,,,,,,,,570,,response,,,,99,,,,,,,Space,keypress(Space),,,,,,,,---- -- ----- -- ------ - ------- --- ----------<br>------------- ------ ------ ---- ---- ------- ----- -- ----<br>-------- ------- -- ---------- --- - --- ----- ----- ----<br>---- --- --- ----- you ---- ---- ------- ----- ---- -------<br>--- --- -- ----- -- --- ---- -- --- ---- -- ------ ------<br>--- ----- -- ----,120861,120986,120416,120407,120433,120883,,32,you
screen,html.Screen,2_1_0_1_33,2022-05-02T12:42:36.427Z,,,,,,,,,,,,,,,,,53,,,,,,,,,,,,,,635,,response,,,,99,,,,,,,Space,keypress(Space),,,,,,,,---- -- ----- -- ------ - ------- --- ----------<br>------------- ------ ------ ---- ---- ------- ----- -- ----<br>-------- ------- -- ---------- --- - --- ----- ----- ----<br>---- --- --- ----- --- feel ---- ------- ----- ---- -------<br>--- --- -- ----- -- --- ---- -- --- ---- -- ------ ------<br>--- ----- -- ----,121375,121500,120865,120861,120883,121399,,33,feel
screen,html.Screen,2_1_0_1_34,2022-05-02T12:42:37.040Z,,,,,,,,,,,,,,,,,53,,,,,,,,,,,,,,732,,response,,,,99,,,,,,,Space,keypress(Space),,,,,,,,---- -- ----- -- ------ - ------- --- ----------<br>------------- ------ ------ ---- ---- ------- ----- -- ----<br>-------- ------- -- ---------- --- - --- ----- ----- ----<br>---- --- --- ----- --- ---- that ------- ----- ---- -------<br>--- --- -- ----- -- --- ---- -- --- ---- -- ------ ------<br>--- ----- -- ----,121988,122114,121382,121375,121399,122015,,34,that
screen,html.Screen,2_1_0_1_35,2022-05-02T12:42:37.552Z,,,,,,,,,,,,,,,,,53,,,,,,,,,,,,,,627,,response,,,,99,,,,,,,Space,keypress(Space),,,,,,,,---- -- ----- -- ------ - ------- --- ----------<br>------------- ------ ------ ---- ---- ------- ----- -- ----<br>-------- ------- -- ---------- --- - --- ----- ----- ----<br>---- --- --- ----- --- ---- ---- matters ----- ---- -------<br>--- --- -- ----- -- --- ---- -- --- ---- -- ------ ------<br>--- ----- -- ----,122501,122626,121999,121989,122015,122532,,35,matters
screen,html.Screen,2_1_0_1_36,2022-05-02T12:42:37.960Z,,,,,,,,,,,,,,,,,53,,,,,,,,,,,,,,517,,response,,,,99,,,,,,,Space,keypress(Space),,,,,,,,"---- -- ----- -- ------ - ------- --- ----------<br>------------- ------ ------ ---- ---- ------- ----- -- ----<br>-------- ------- -- ---------- --- - --- ----- ----- ----<br>---- --- --- ----- --- ---- ---- ------- most, ---- -------<br>--- --- -- ----- -- --- ---- -- --- ---- -- ------ ------<br>--- ----- -- ----",122908,123033,122516,122501,122532,122933,,36,"most,"
screen,html.Screen,2_1_0_1_37,2022-05-02T12:42:38.376Z,,,,,,,,,,,,,,,,,53,,,,,,,,,,,,,,534,,response,,,,99,,,,,,,Space,keypress(Space),,,,,,,,---- -- ----- -- ------ - ------- --- ----------<br>------------- ------ ------ ---- ---- ------- ----- -- ----<br>-------- ------- -- ---------- --- - --- ----- ----- ----<br>---- --- --- ----- --- ---- ---- ------- ----- it's -------<br>--- --- -- ----- -- --- ---- -- --- ---- -- ------ ------<br>--- ----- -- ----,123324,123450,122916,122908,122933,123349,,37,it's
screen,html.Screen,2_1_0_1_38,2022-05-02T12:42:38.790Z,,,,,,,,,,,,,,,,,53,,,,,,,,,,,,,,531,,response,,,,99,,,,,,,Space,keypress(Space),,,,,,,,---- -- ----- -- ------ - ------- --- ----------<br>------------- ------ ------ ---- ---- ------- ----- -- ----<br>-------- ------- -- ---------- --- - --- ----- ----- ----<br>---- --- --- ----- --- ---- ---- ------- ----- ---- whether<br>--- --- -- ----- -- --- ---- -- --- ---- -- ------ ------<br>--- ----- -- ----,123739,123864,123333,123325,123349,123766,,38,whether
screen,html.Screen,2_1_0_1_39,2022-05-02T12:42:39.207Z,,,,,,,,,,,,,,,,,53,,,,,,,,,,,,,,529,,response,,,,99,,,,,,,Space,keypress(Space),,,,,,,,---- -- ----- -- ------ - ------- --- ----------<br>------------- ------ ------ ---- ---- ------- ----- -- ----<br>-------- ------- -- ---------- --- - --- ----- ----- ----<br>---- --- --- ----- --- ---- ---- ------- ----- ---- -------<br>you --- -- ----- -- --- ---- -- --- ---- -- ------ ------<br>--- ----- -- ----,124155,124278,123749,123739,123766,124183,,39,you
screen,html.Screen,2_1_0_1_40,2022-05-02T12:42:39.657Z,,,,,,,,,,,,,,,,,53,,,,,,,,,,,,,,564,,response,,,,99,,,,,,,Space,keypress(Space),,,,,,,,---- -- ----- -- ------ - ------- --- ----------<br>------------- ------ ------ ---- ---- ------- ----- -- ----<br>-------- ------- -- ---------- --- - --- ----- ----- ----<br>---- --- --- ----- --- ---- ---- ------- ----- ---- -------<br>--- are -- ----- -- --- ---- -- --- ---- -- ------ ------<br>--- ----- -- ----,124605,124730,124166,124156,124183,124633,,40,are
screen,html.Screen,2_1_0_1_41,2022-05-02T12:42:40.034Z,,,,,,,,,,,,,,,,,53,,,,,,,,,,,,,,491,,response,,,,99,,,,,,,Space,keypress(Space),,,,,,,,---- -- ----- -- ------ - ------- --- ----------<br>------------- ------ ------ ---- ---- ------- ----- -- ----<br>-------- ------- -- ---------- --- - --- ----- ----- ----<br>---- --- --- ----- --- ---- ---- ------- ----- ---- -------<br>--- --- as ----- -- --- ---- -- --- ---- -- ------ ------<br>--- ----- -- ----,124982,125107,124616,124606.00000000001,124633,124999,,41,as
screen,html.Screen,2_1_0_1_42,2022-05-02T12:42:40.479Z,,,,,,,,,,,,,,,,,53,,,,,,,,,,,,,,568,,response,,,,99,,,,,,,Space,keypress(Space),,,,,,,,---- -- ----- -- ------ - ------- --- ----------<br>------------- ------ ------ ---- ---- ------- ----- -- ----<br>-------- ------- -- ---------- --- - --- ----- ----- ----<br>---- --- --- ----- --- ---- ---- ------- ----- ---- -------<br>--- --- -- close -- --- ---- -- --- ---- -- ------ ------<br>--- ----- -- ----,125427,125553,124985,124982,124999,125449,,42,close
screen,html.Screen,2_1_0_1_43,2022-05-02T12:42:40.892Z,,,,,,,,,,,,,,,,,53,,,,,,,,,,,,,,533,,response,,,,99,,,,,,,Space,keypress(Space),,,,,,,,---- -- ----- -- ------ - ------- --- ----------<br>------------- ------ ------ ---- ---- ------- ----- -- ----<br>-------- ------- -- ---------- --- - --- ----- ----- ----<br>---- --- --- ----- --- ---- ---- ------- ----- ---- -------<br>--- --- -- ----- as --- ---- -- --- ---- -- ------ ------<br>--- ----- -- ----,125840,125965,125432,125427,125449,125866,,43,as
screen,html.Screen,2_1_0_1_44,2022-05-02T12:42:41.307Z,,,,,,,,,,,,,,,,,53,,,,,,,,,,,,,,532,,response,,,,99,,,,,,,Space,keypress(Space),,,,,,,,---- -- ----- -- ------ - ------- --- ----------<br>------------- ------ ------ ---- ---- ------- ----- -- ----<br>-------- ------- -- ---------- --- - --- ----- ----- ----<br>---- --- --- ----- --- ---- ---- ------- ----- ---- -------<br>--- --- -- ----- -- you ---- -- --- ---- -- ------ ------<br>--- ----- -- ----,126256,126381,125849,125840,125866,126282,,44,you
screen,html.Screen,2_1_0_1_45,2022-05-02T12:42:41.703Z,,,,,,,,,,,,,,,,,53,,,,,,,,,,,,,,511,,response,,,,99,,,,,,,Space,keypress(Space),,,,,,,,---- -- ----- -- ------ - ------- --- ----------<br>------------- ------ ------ ---- ---- ------- ----- -- ----<br>-------- ------- -- ---------- --- - --- ----- ----- ----<br>---- --- --- ----- --- ---- ---- ------- ----- ---- -------<br>--- --- -- ----- -- --- want -- --- ---- -- ------ ------<br>--- ----- -- ----,126651,126777,126266,126256,126282,126683,,45,want
screen,html.Screen,2_1_0_1_46,2022-05-02T12:42:42.089Z,,,,,,,,,,,,,,,,,53,,,,,,,,,,,,,,497,,response,,,,99,,,,,,,Space,keypress(Space),,,,,,,,---- -- ----- -- ------ - ------- --- ----------<br>------------- ------ ------ ---- ---- ------- ----- -- ----<br>-------- ------- -- ---------- --- - --- ----- ----- ----<br>---- --- --- ----- --- ---- ---- ------- ----- ---- -------<br>--- --- -- ----- -- --- ---- to --- ---- -- ------ ------<br>--- ----- -- ----,127037,127163,126666,126654,126683,127066,,46,to
screen,html.Screen,2_1_0_1_47,2022-05-02T12:42:42.536Z,,,,,,,,,,,,,,,,,53,,,,,,,,,,,,,,561,,response,,,,99,,,,,,,Space,keypress(Space),,,,,,,,"---- -- ----- -- ------ - ------- --- ----------<br>------------- ------ ------ ---- ---- ------- ----- -- ----<br>-------- ------- -- ---------- --- - --- ----- ----- ----<br>---- --- --- ----- --- ---- ---- ------- ----- ---- -------<br>--- --- -- ----- -- --- ---- -- be, ---- -- ------ ------<br>--- ----- -- ----",127485,127610,127049,127037,127066,127515,,47,"be,"
screen,html.Screen,2_1_0_1_48,2022-05-02T12:42:42.923Z,,,,,,,,,,,,,,,,,53,,,,,,,,,,,,,,498,,response,,,,99,,,,,,,Space,keypress(Space),,,,,,,,---- -- ----- -- ------ - ------- --- ----------<br>------------- ------ ------ ---- ---- ------- ----- -- ----<br>-------- ------- -- ---------- --- - --- ----- ----- ----<br>---- --- --- ----- --- ---- ---- ------- ----- ---- -------<br>--- --- -- ----- -- --- ---- -- --- even -- ------ ------<br>--- ----- -- ----,127871.00000000001,127997,127499,127485,127515,127899,,48,even
screen,html.Screen,2_1_0_1_49,2022-05-02T12:42:43.306Z,,,,,,,,,,,,,,,,,53,,,,,,,,,,,,,,497,,response,,,,99,,,,,,,Space,keypress(Space),,,,,,,,---- -- ----- -- ------ - ------- --- ----------<br>------------- ------ ------ ---- ---- ------- ----- -- ----<br>-------- ------- -- ---------- --- - --- ----- ----- ----<br>---- --- --- ----- --- ---- ---- ------- ----- ---- -------<br>--- --- -- ----- -- --- ---- -- --- ---- if ------ ------<br>--- ----- -- ----,128253.99999999999,128380,127883,127871.00000000001,127899,128283,,49,if
screen,html.Screen,2_1_0_1_50,2022-05-02T12:42:43.671Z,,,,,,,,,,,,,,,,,53,,,,,,,,,,,,,,478,,response,,,,99,,,,,,,Space,keypress(Space),,,,,,,,---- -- ----- -- ------ - ------- --- ----------<br>------------- ------ ------ ---- ---- ------- ----- -- ----<br>-------- ------- -- ---------- --- - --- ----- ----- ----<br>---- --- --- ----- --- ---- ---- ------- ----- ---- -------<br>--- --- -- ----- -- --- ---- -- --- ---- -- that's ------<br>--- ----- -- ----,128619,128743,128265,128253.99999999999,128283,128650,,50,that's
screen,html.Screen,2_1_0_1_51,2022-05-02T12:42:44.143Z,,,,,,,,,,,,,,,,,53,,,,,,,,,,,,,,584.0000000000146,,response,,,,99,,,,,,,Space,keypress(Space),,,,,,,,---- -- ----- -- ------ - ------- --- ----------<br>------------- ------ ------ ---- ---- ------- ----- -- ----<br>-------- ------- -- ---------- --- - --- ----- ----- ----<br>---- --- --- ----- --- ---- ---- ------- ----- ---- -------<br>--- --- -- ----- -- --- ---- -- --- ---- -- ------ really<br>--- ----- -- ----,129092.00000000001,129217.00000000001,128633,128619,128650,129116,,51,really
screen,html.Screen,2_1_0_1_52,2022-05-02T12:42:44.550Z,,,,,,,,,,,,,,,,,53,,,,,,,,,,,,,,523.9999999999854,,response,,,,99,,,,,,,Space,keypress(Space),,,,,,,,---- -- ----- -- ------ - ------- --- ----------<br>------------- ------ ------ ---- ---- ------- ----- -- ----<br>-------- ------- -- ---------- --- - --- ----- ----- ----<br>---- --- --- ----- --- ---- ---- ------- ----- ---- -------<br>--- --- -- ----- -- --- ---- -- --- ---- -- ------ ------<br>not ----- -- ----,129497.99999999999,129622.99999999999,129099,129092.99999999999,129116,129532,,52,not
screen,html.Screen,2_1_0_1_53,2022-05-02T12:42:44.904Z,,,,,,,,,,,,,,,,,53,,,,,,,,,,,,,,461,,response,,,,99,,,,,,,Space,keypress(Space),,,,,,,,---- -- ----- -- ------ - ------- --- ----------<br>------------- ------ ------ ---- ---- ------- ----- -- ----<br>-------- ------- -- ---------- --- - --- ----- ----- ----<br>---- --- --- ----- --- ---- ---- ------- ----- ---- -------<br>--- --- -- ----- -- --- ---- -- --- ---- -- ------ ------<br>--- close -- ----,129852,129977,129516,129497.99999999999,129532,129883,,53,close
screen,html.Screen,2_1_0_1_54,2022-05-02T12:42:45.832Z,,,,,,,,,,,,,,,,,53,,,,,,,,,,,,,,1041.0000000000146,,response,,,,99,,,,,,,Space,keypress(Space),,,,,,,,---- -- ----- -- ------ - ------- --- ----------<br>------------- ------ ------ ---- ---- ------- ----- -- ----<br>-------- ------- -- ---------- --- - --- ----- ----- ----<br>---- --- --- ----- --- ---- ---- ------- ----- ---- -------<br>--- --- -- ----- -- --- ---- -- --- ---- -- ------ ------<br>--- ----- at ----,130781,130907.00000000001,129866,129852,129883,130816,,54,at
screen,html.Screen,2_1_0_1_55,2022-05-02T12:42:46.179Z,,,,,,,,,,,,,,,,,53,,,,,,,,,,,,,,454,,response,,,,99,,,,,,,Space,keypress(Space),,,,,,,,---- -- ----- -- ------ - ------- --- ----------<br>------------- ------ ------ ---- ---- ------- ----- -- ----<br>-------- ------- -- ---------- --- - --- ----- ----- ----<br>---- --- --- ----- --- ---- ---- ------- ----- ---- -------<br>--- --- -- ----- -- --- ---- -- --- ---- -- ------ ------<br>--- ----- -- all.,131128,131253,130799,130781,130816,131149,,55,all.
Item 99,flow.Loop,2_1_0_1,2022-05-02T12:42:46.181Z,,,,,,,,,,,,,,,,,,,,,,,,,,,,,,,26880,,completion,,,,,G,,,,,,,,,,,silence,,,,,131129,131253,104332,104335.00000000001,104373,131149,,,
Question 1,html.Screen,2_1_0_2,2022-05-02T12:42:50.673Z,,,,,,,,,,,,,,,,,,,,,,,,,,,,true,FALSE,,4605,,response,,,,99,G,,,,,,FALSE,click #choice-2,,,,silence,,,,,135622,135746,131141,131129,131149,135649,,,
Question 2,html.Screen,2_1_0_3,2022-05-02T12:42:56.242Z,,,,,,,,,,,,,,,,,,,,,,,,,,,,true,TRUE,,5682,,response,,,,99,G,,,,,,TRUE,click #choice-1,,,,silence,,,,,141190,141314,135632,135622,135649,141216,,,
Item 99,flow.Sequence,2_1_0,2022-05-02T12:42:56.242Z,,,,,,,,,,,,,,,,,,,,,,,,,,,,,,,46966,,completion,,,,,,,,,,,,,,,,,,,,,141191,141314,94332,94316,94348,141216,,,
Holding screen,html.Screen,2_1_1_0,2022-05-02T12:43:06.253Z,,,,,,,,,,,,,,,,,,,,,,,,,,,,,,,10001,,timeout,,,,,,,,,,,,,,,,,,,,,151202,151201,141203,141191,141216,151217,,,
screen,html.Screen,2_1_1_1_0,2022-05-02T12:43:07.292Z,,,,,,,,,,,,,,,,,54,,,,,,,,,,,,,,1166,,response,,,,100,,,,,,,Space,keypress(Space),,,,,,,,At --- ---- --- ------ ----- ------- ---- -- --- ------- --<br>------- ---------- ------ -- ----- -- ----- -- ---- ------<br>--- ----- --- --- ------ -------- ----- --- ------ ----- --<br>----- ----- ---------- --- --- ------ ------ ---- -- ------<br>------- --- ------ ----- --- ---- ------- -- ---- --- --<br>------- ------,152241,152367,151201,151204,151217,152267,,0,At
screen,html.Screen,2_1_1_1_1,2022-05-02T12:43:07.834Z,,,,,,,,,,,,,,,,,54,,,,,,,,,,,,,,661,,response,,,,100,,,,,,,Space,keypress(Space),,,,,,,,-- the ---- --- ------ ----- ------- ---- -- --- ------- --<br>------- ---------- ------ -- ----- -- ----- -- ---- ------<br>--- ----- --- --- ------ -------- ----- --- ------ ----- --<br>----- ----- ---------- --- --- ------ ------ ---- -- ------<br>------- --- ------ ----- --- ---- ------- -- ---- --- --<br>------- ------,152783.00000000003,152911,152250,152241,152267,152817,,1,the
screen,html.Screen,2_1_1_1_2,2022-05-02T12:43:08.417Z,,,,,,,,,,,,,,,,,54,,,,,,,,,,,,,,693,,response,,,,100,,,,,,,Space,keypress(Space),,,,,,,,-- --- time --- ------ ----- ------- ---- -- --- ------- --<br>------- ---------- ------ -- ----- -- ----- -- ---- ------<br>--- ----- --- --- ------ -------- ----- --- ------ ----- --<br>----- ----- ---------- --- --- ------ ------ ---- -- ------<br>------- --- ------ ----- --- ---- ------- -- ---- --- --<br>------- ------,153367,153493,152800,152783.00000000003,152817,153400,,2,time
screen,html.Screen,2_1_1_1_3,2022-05-02T12:43:09.055Z,,,,,,,,,,,,,,,,,54,,,,,,,,,,,,,,748,,response,,,,100,,,,,,,Space,keypress(Space),,,,,,,,-- --- ---- the ------ ----- ------- ---- -- --- ------- --<br>------- ---------- ------ -- ----- -- ----- -- ---- ------<br>--- ----- --- --- ------ -------- ----- --- ------ ----- --<br>----- ----- ---------- --- --- ------ ------ ---- -- ------<br>------- --- ------ ----- --- ---- ------- -- ---- --- --<br>------- ------,154004,154131,153383,153367,153400,154033,,3,the
screen,html.Screen,2_1_1_1_4,2022-05-02T12:43:09.430Z,,,,,,,,,,,,,,,,,54,,,,,,,,,,,,,,489,,response,,,,100,,,,,,,Space,keypress(Space),,,,,,,,-- --- ---- --- French ----- ------- ---- -- --- ------- --<br>------- ---------- ------ -- ----- -- ----- -- ---- ------<br>--- ----- --- --- ------ -------- ----- --- ------ ----- --<br>----- ----- ---------- --- --- ------ ------ ---- -- ------<br>------- --- ------ ----- --- ---- ------- -- ---- --- --<br>------- ------,154379,154506,154017,154004,154033,154400,,4,French
screen,html.Screen,2_1_1_1_5,2022-05-02T12:43:10.158Z,,,,,,,,,,,,,,,,,54,,,,,,,,,,,,,,851,,response,,,,100,,,,,,,Space,keypress(Space),,,,,,,,-- --- ---- --- ------ crown ------- ---- -- --- ------- --<br>------- ---------- ------ -- ----- -- ----- -- ---- ------<br>--- ----- --- --- ------ -------- ----- --- ------ ----- --<br>----- ----- ---------- --- --- ------ ------ ---- -- ------<br>------- --- ------ ----- --- ---- ------- -- ---- --- --<br>------- ------,155108,155234,154383,154380,154400,155133,,5,crown
screen,html.Screen,2_1_1_1_6,2022-05-02T12:43:10.667Z,,,,,,,,,,,,,,,,,54,,,,,,,,,,,,,,626,,response,,,,100,,,,,,,Space,keypress(Space),,,,,,,,-- --- ---- --- ------ ----- secured ---- -- --- ------- --<br>------- ---------- ------ -- ----- -- ----- -- ---- ------<br>--- ----- --- --- ------ -------- ----- --- ------ ----- --<br>----- ----- ---------- --- --- ------ ------ ---- -- ------<br>------- --- ------ ----- --- ---- ------- -- ---- --- --<br>------- ------,155616,155743,155117,155108,155133,155650,,6,secured
screen,html.Screen,2_1_1_1_7,2022-05-02T12:43:11.205Z,,,,,,,,,,,,,,,,,54,,,,,,,,,,,,,,647,,response,,,,100,,,,,,,Space,keypress(Space),,,,,,,,-- --- ---- --- ------ ----- ------- much -- --- ------- --<br>------- ---------- ------ -- ----- -- ----- -- ---- ------<br>--- ----- --- --- ------ -------- ----- --- ------ ----- --<br>----- ----- ---------- --- --- ------ ------ ---- -- ------<br>------- --- ------ ----- --- ---- ------- -- ---- --- --<br>------- ------,156154,156281,155634,155618,155650,156185,,7,much
screen,html.Screen,2_1_1_1_8,2022-05-02T12:43:11.683Z,,,,,,,,,,,,,,,,,54,,,,,,,,,,,,,,592,,response,,,,100,,,,,,,Space,keypress(Space),,,,,,,,-- --- ---- --- ------ ----- ------- ---- of --- ------- --<br>------- ---------- ------ -- ----- -- ----- -- ---- ------<br>--- ----- --- --- ------ -------- ----- --- ------ ----- --<br>----- ----- ---------- --- --- ------ ------ ---- -- ------<br>------- --- ------ ----- --- ---- ------- -- ---- --- --<br>------- ------,156632,156758,156166,156155,156185,156667,,8,of
screen,html.Screen,2_1_1_1_9,2022-05-02T12:43:12.062Z,,,,,,,,,,,,,,,,,54,,,,,,,,,,,,,,488,,response,,,,100,,,,,,,Space,keypress(Space),,,,,,,,-- --- ---- --- ------ ----- ------- ---- -- its ------- --<br>------- ---------- ------ -- ----- -- ----- -- ---- ------<br>--- ----- --- --- ------ -------- ----- --- ------ ----- --<br>----- ----- ---------- --- --- ------ ------ ---- -- ------<br>------- --- ------ ----- --- ---- ------- -- ---- --- --<br>------- ------,157012,157138,156650,156633,156667,157034,,9,its
screen,html.Screen,2_1_1_1_10,2022-05-02T12:43:12.754Z,,,,,,,,,,,,,,,,,54,,,,,,,,,,,,,,809,,response,,,,100,,,,,,,Space,keypress(Space),,,,,,,,-- --- ---- --- ------ ----- ------- ---- -- --- revenue --<br>------- ---------- ------ -- ----- -- ----- -- ---- ------<br>--- ----- --- --- ------ -------- ----- --- ------ ----- --<br>----- ----- ---------- --- --- ------ ------ ---- -- ------<br>------- --- ------ ----- --- ---- ------- -- ---- --- --<br>------- ------,157703,157826,157017,157012,157034,157733,,10,revenue
screen,html.Screen,2_1_1_1_11,2022-05-02T12:43:13.248Z,,,,,,,,,,,,,,,,,54,,,,,,,,,,,,,,606,,response,,,,100,,,,,,,Space,keypress(Space),,,,,,,,-- --- ---- --- ------ ----- ------- ---- -- --- ------- by<br>------- ---------- ------ -- ----- -- ----- -- ---- ------<br>--- ----- --- --- ------ -------- ----- --- ------ ----- --<br>----- ----- ---------- --- --- ------ ------ ---- -- ------<br>------- --- ------ ----- --- ---- ------- -- ---- --- --<br>------- ------,158197,158322,157716,157703,157733,158234,,11,by
screen,html.Screen,2_1_1_1_12,2022-05-02T12:43:13.780Z,,,,,,,,,,,,,,,,,54,,,,,,,,,,,,,,639,,response,,,,100,,,,,,,Space,keypress(Space),,,,,,,,-- --- ---- --- ------ ----- ------- ---- -- --- ------- --<br>issuing ---------- ------ -- ----- -- ----- -- ---- ------<br>--- ----- --- --- ------ -------- ----- --- ------ ----- --<br>----- ----- ---------- --- --- ------ ------ ---- -- ------<br>------- --- ------ ----- --- ---- ------- -- ---- --- --<br>------- ------,158730,158856,158217,158198,158234,158767,,12,issuing
screen,html.Screen,2_1_1_1_13,2022-05-02T12:43:14.322Z,,,,,,,,,,,,,,,,,54,,,,,,,,,,,,,,649,,response,,,,100,,,,,,,Space,keypress(Space),,,,,,,,-- --- ---- --- ------ ----- ------- ---- -- --- ------- --<br>------- government ------ -- ----- -- ----- -- ---- ------<br>--- ----- --- --- ------ -------- ----- --- ------ ----- --<br>----- ----- ---------- --- --- ------ ------ ---- -- ------<br>------- --- ------ ----- --- ---- ------- -- ---- --- --<br>------- ------,159272,159399,158750,158730,158767,159300,,13,government
screen,html.Screen,2_1_1_1_14,2022-05-02T12:43:14.906Z,,,,,,,,,,,,,,,,,54,,,,,,,,,,,,,,698,,response,,,,100,,,,,,,Space,keypress(Space),,,,,,,,-- --- ---- --- ------ ----- ------- ---- -- --- ------- --<br>------- ---------- bonds. -- ----- -- ----- -- ---- ------<br>--- ----- --- --- ------ -------- ----- --- ------ ----- --<br>----- ----- ---------- --- --- ------ ------ ---- -- ------<br>------- --- ------ ----- --- ---- ------- -- ---- --- --<br>------- ------,159856,159982,159284,159274,159300,159884,,14,bonds.
screen,html.Screen,2_1_1_1_15,2022-05-02T12:43:15.407Z,,,,,,,,,,,,,,,,,54,,,,,,,,,,,,,,616,,response,,,,100,,,,,,,Space,keypress(Space),,,,,,,,-- --- ---- --- ------ ----- ------- ---- -- --- ------- --<br>------- ---------- ------ In ----- -- ----- -- ---- ------<br>--- ----- --- --- ------ -------- ----- --- ------ ----- --<br>----- ----- ---------- --- --- ------ ------ ---- -- ------<br>------- --- ------ ----- --- ---- ------- -- ---- --- --<br>------- ------,160356,160483,159867,159856,159884,160383,,15,In
screen,html.Screen,2_1_1_1_16,2022-05-02T12:43:16.012Z,,,,,,,,,,,,,,,,,54,,,,,,,,,,,,,,721,,response,,,,100,,,,,,,Space,keypress(Space),,,,,,,,"-- --- ---- --- ------ ----- ------- ---- -- --- ------- --<br>------- ---------- ------ -- 1727, -- ----- -- ---- ------<br>--- ----- --- --- ------ -------- ----- --- ------ ----- --<br>----- ----- ---------- --- --- ------ ------ ---- -- ------<br>------- --- ------ ----- --- ---- ------- -- ---- --- --<br>------- ------",160961,161088,160367,160357,160383,161000,,16,"1727,"
screen,html.Screen,2_1_1_1_17,2022-05-02T12:43:16.398Z,,,,,,,,,,,,,,,,,54,,,,,,,,,,,,,,489,,response,,,,100,,,,,,,Space,keypress(Space),,,,,,,,-- --- ---- --- ------ ----- ------- ---- -- --- ------- --<br>------- ---------- ------ -- ----- in ----- -- ---- ------<br>--- ----- --- --- ------ -------- ----- --- ------ ----- --<br>----- ----- ---------- --- --- ------ ------ ---- -- ------<br>------- --- ------ ----- --- ---- ------- -- ---- --- --<br>------- ------,161347,161473,160984,160962.00000000003,161000,161384,,17,in
screen,html.Screen,2_1_1_1_18,2022-05-02T12:43:16.906Z,,,,,,,,,,,,,,,,,54,,,,,,,,,,,,,,615,,response,,,,100,,,,,,,Space,keypress(Space),,,,,,,,-- --- ---- --- ------ ----- ------- ---- -- --- ------- --<br>------- ---------- ------ -- ----- -- order -- ---- ------<br>--- ----- --- --- ------ -------- ----- --- ------ ----- --<br>----- ----- ---------- --- --- ------ ------ ---- -- ------<br>------- --- ------ ----- --- ---- ------- -- ---- --- --<br>------- ------,161855,161982,161367,161347,161384,161884,,18,order
screen,html.Screen,2_1_1_1_19,2022-05-02T12:43:17.360Z,,,,,,,,,,,,,,,,,54,,,,,,,,,,,,,,569,,response,,,,100,,,,,,,Space,keypress(Space),,,,,,,,-- --- ---- --- ------ ----- ------- ---- -- --- ------- --<br>------- ---------- ------ -- ----- -- ----- to ---- ------<br>--- ----- --- --- ------ -------- ----- --- ------ ----- --<br>----- ----- ---------- --- --- ------ ------ ---- -- ------<br>------- --- ------ ----- --- ---- ------- -- ---- --- --<br>------- ------,162309,162435,161866,161856,161884,162334,,19,to
screen,html.Screen,2_1_1_1_20,2022-05-02T12:43:17.810Z,,,,,,,,,,,,,,,,,54,,,,,,,,,,,,,,568,,response,,,,100,,,,,,,Space,keypress(Space),,,,,,,,-- --- ---- --- ------ ----- ------- ---- -- --- ------- --<br>------- ---------- ------ -- ----- -- ----- -- save ------<br>--- ----- --- --- ------ -------- ----- --- ------ ----- --<br>----- ----- ---------- --- --- ------ ------ ---- -- ------<br>------- --- ------ ----- --- ---- ------- -- ---- --- --<br>------- ------,162760,162885,162317,162310,162334,162784,,20,save
screen,html.Screen,2_1_1_1_21,2022-05-02T12:43:18.233Z,,,,,,,,,,,,,,,,,54,,,,,,,,,,,,,,542,,response,,,,100,,,,,,,Space,keypress(Space),,,,,,,,"-- --- ---- --- ------ ----- ------- ---- -- --- ------- --<br>------- ---------- ------ -- ----- -- ----- -- ---- money,<br>--- ----- --- --- ------ -------- ----- --- ------ ----- --<br>----- ----- ---------- --- --- ------ ------ ---- -- ------<br>------- --- ------ ----- --- ---- ------- -- ---- --- --<br>------- ------",163182.00000000003,163309,162767,162760,162784,163217,,21,"money,"
screen,html.Screen,2_1_1_1_22,2022-05-02T12:43:18.738Z,,,,,,,,,,,,,,,,,54,,,,,,,,,,,,,,615,,response,,,,100,,,,,,,Space,keypress(Space),,,,,,,,-- --- ---- --- ------ ----- ------- ---- -- --- ------- --<br>------- ---------- ------ -- ----- -- ----- -- ---- ------<br>the ----- --- --- ------ -------- ----- --- ------ ----- --<br>----- ----- ---------- --- --- ------ ------ ---- -- ------<br>------- --- ------ ----- --- ---- ------- -- ---- --- --<br>------- ------,163688.00000000003,163815,163200,163182.00000000003,163217,163717,,22,the
screen,html.Screen,2_1_1_1_23,2022-05-02T12:43:19.132Z,,,,,,,,,,,,,,,,,54,,,,,,,,,,,,,,508,,response,,,,100,,,,,,,Space,keypress(Space),,,,,,,,-- --- ---- --- ------ ----- ------- ---- -- --- ------- --<br>------- ---------- ------ -- ----- -- ----- -- ---- ------<br>--- state --- --- ------ -------- ----- --- ------ ----- --<br>----- ----- ---------- --- --- ------ ------ ---- -- ------<br>------- --- ------ ----- --- ---- ------- -- ---- --- --<br>------- ------,164081.00000000003,164208,163700,163688.00000000003,163717,164100,,23,state
screen,html.Screen,2_1_1_1_24,2022-05-02T12:43:19.635Z,,,,,,,,,,,,,,,,,54,,,,,,,,,,,,,,627,,response,,,,100,,,,,,,Space,keypress(Space),,,,,,,,-- --- ---- --- ------ ----- ------- ---- -- --- ------- --<br>------- ---------- ------ -- ----- -- ----- -- ---- ------<br>--- ----- cut --- ------ -------- ----- --- ------ ----- --<br>----- ----- ---------- --- --- ------ ------ ---- -- ------<br>------- --- ------ ----- --- ---- ------- -- ---- --- --<br>------- ------,164584,164711,164084,164081.00000000003,164100,164617,,24,cut
screen,html.Screen,2_1_1_1_25,2022-05-02T12:43:20.061Z,,,,,,,,,,,,,,,,,54,,,,,,,,,,,,,,537,,response,,,,100,,,,,,,Space,keypress(Space),,,,,,,,-- --- ---- --- ------ ----- ------- ---- -- --- ------- --<br>------- ---------- ------ -- ----- -- ----- -- ---- ------<br>--- ----- --- the ------ -------- ----- --- ------ ----- --<br>----- ----- ---------- --- --- ------ ------ ---- -- ------<br>------- --- ------ ----- --- ---- ------- -- ---- --- --<br>------- ------,165010,165137,164600,164585,164617,165034,,25,the
screen,html.Screen,2_1_1_1_26,2022-05-02T12:43:20.518Z,,,,,,,,,,,,,,,,,54,,,,,,,,,,,,,,578,,response,,,,100,,,,,,,Space,keypress(Space),,,,,,,,-- --- ---- --- ------ ----- ------- ---- -- --- ------- --<br>------- ---------- ------ -- ----- -- ----- -- ---- ------<br>--- ----- --- --- bonds' -------- ----- --- ------ ----- --<br>----- ----- ---------- --- --- ------ ------ ---- -- ------<br>------- --- ------ ----- --- ---- ------- -- ---- --- --<br>------- ------,165468,165595,165017,165011,165034,165500,,26,bonds'
screen,html.Screen,2_1_1_1_27,2022-05-02T12:43:21.047Z,,,,,,,,,,,,,,,,,54,,,,,,,,,,,,,,639,,response,,,,100,,,,,,,Space,keypress(Space),,,,,,,,-- --- ---- --- ------ ----- ------- ---- -- --- ------- --<br>------- ---------- ------ -- ----- -- ----- -- ---- ------<br>--- ----- --- --- ------ interest ----- --- ------ ----- --<br>----- ----- ---------- --- --- ------ ------ ---- -- ------<br>------- --- ------ ----- --- ---- ------- -- ---- --- --<br>------- ------,165997,166122,165483,165468,165500,166034,,27,interest
screen,html.Screen,2_1_1_1_28,2022-05-02T12:43:21.453Z,,,,,,,,,,,,,,,,,54,,,,,,,,,,,,,,513,,response,,,,100,,,,,,,Space,keypress(Space),,,,,,,,-- --- ---- --- ------ ----- ------- ---- -- --- ------- --<br>------- ---------- ------ -- ----- -- ----- -- ---- ------<br>--- ----- --- --- ------ -------- rate. --- ------ ----- --<br>----- ----- ---------- --- --- ------ ------ ---- -- ------<br>------- --- ------ ----- --- ---- ------- -- ---- --- --<br>------- ------,166402.00000000003,166530,166017,165997,166034,166434,,28,rate.
screen,html.Screen,2_1_1_1_29,2022-05-02T12:43:21.912Z,,,,,,,,,,,,,,,,,54,,,,,,,,,,,,,,571,,response,,,,100,,,,,,,Space,keypress(Space),,,,,,,,-- --- ---- --- ------ ----- ------- ---- -- --- ------- --<br>------- ---------- ------ -- ----- -- ----- -- ---- ------<br>--- ----- --- --- ------ -------- ----- The ------ ----- --<br>----- ----- ---------- --- --- ------ ------ ---- -- ------<br>------- --- ------ ----- --- ---- ------- -- ---- --- --<br>------- ------,166862,166988,166417,166404,166434,166901,,29,The
screen,html.Screen,2_1_1_1_30,2022-05-02T12:43:22.303Z,,,,,,,,,,,,,,,,,54,,,,,,,,,,,,,,494,,response,,,,100,,,,,,,Space,keypress(Space),,,,,,,,-- --- ---- --- ------ ----- ------- ---- -- --- ------- --<br>------- ---------- ------ -- ----- -- ----- -- ---- ------<br>--- ----- --- --- ------ -------- ----- --- market ----- --<br>----- ----- ---------- --- --- ------ ------ ---- -- ------<br>------- --- ------ ----- --- ---- ------- -- ---- --- --<br>------- ------,167252,167378,166884,166862,166901,167284,,30,market
screen,html.Screen,2_1_1_1_31,2022-05-02T12:43:22.765Z,,,,,,,,,,,,,,,,,54,,,,,,,,,,,,,,574,,response,,,,100,,,,,,,Space,keypress(Space),,,,,,,,-- --- ---- --- ------ ----- ------- ---- -- --- ------- --<br>------- ---------- ------ -- ----- -- ----- -- ---- ------<br>--- ----- --- --- ------ -------- ----- --- ------ value --<br>----- ----- ---------- --- --- ------ ------ ---- -- ------<br>------- --- ------ ----- --- ---- ------- -- ---- --- --<br>------- ------,167714,167841,167267,167253,167284,167750,,31,value
screen,html.Screen,2_1_1_1_32,2022-05-02T12:43:23.181Z,,,,,,,,,,,,,,,,,54,,,,,,,,,,,,,,524,,response,,,,100,,,,,,,Space,keypress(Space),,,,,,,,-- --- ---- --- ------ ----- ------- ---- -- --- ------- --<br>------- ---------- ------ -- ----- -- ----- -- ---- ------<br>--- ----- --- --- ------ -------- ----- --- ------ ----- of<br>----- ----- ---------- --- --- ------ ------ ---- -- ------<br>------- --- ------ ----- --- ---- ------- -- ---- --- --<br>------- ------,168131,168258,167734,167714,167750,168167,,32,of
screen,html.Screen,2_1_1_1_33,2022-05-02T12:43:23.585Z,,,,,,,,,,,,,,,,,54,,,,,,,,,,,,,,513,,response,,,,100,,,,,,,Space,keypress(Space),,,,,,,,-- --- ---- --- ------ ----- ------- ---- -- --- ------- --<br>------- ---------- ------ -- ----- -- ----- -- ---- ------<br>--- ----- --- --- ------ -------- ----- --- ------ ----- --<br>these ----- ---------- --- --- ------ ------ ---- -- ------<br>------- --- ------ ----- --- ---- ------- -- ---- --- --<br>------- ------,168534,168663,168150,168131,168167,168567,,33,these
screen,html.Screen,2_1_1_1_34,2022-05-02T12:43:24.054Z,,,,,,,,,,,,,,,,,54,,,,,,,,,,,,,,581,,response,,,,100,,,,,,,Space,keypress(Space),,,,,,,,-- --- ---- --- ------ ----- ------- ---- -- --- ------- --<br>------- ---------- ------ -- ----- -- ----- -- ---- ------<br>--- ----- --- --- ------ -------- ----- --- ------ ----- --<br>----- bonds ---------- --- --- ------ ------ ---- -- ------<br>------- --- ------ ----- --- ---- ------- -- ---- --- --<br>------- ------,169004,169131,168550,168535,168567,169034,,34,bonds
screen,html.Screen,2_1_1_1_35,2022-05-02T12:43:24.499Z,,,,,,,,,,,,,,,,,54,,,,,,,,,,,,,,558.0000000000291,,response,,,,100,,,,,,,Space,keypress(Space),,,,,,,,"-- --- ---- --- ------ ----- ------- ---- -- --- ------- --<br>------- ---------- ------ -- ----- -- ----- -- ---- ------<br>--- ----- --- --- ------ -------- ----- --- ------ ----- --<br>----- ----- plummeted, --- --- ------ ------ ---- -- ------<br>------- --- ------ ----- --- ---- ------- -- ---- --- --<br>------- ------",169448,169575.00000000003,169017,169006,169034,169484,,35,"plummeted,"
screen,html.Screen,2_1_1_1_36,2022-05-02T12:43:24.895Z,,,,,,,,,,,,,,,,,54,,,,,,,,,,,,,,504,,response,,,,100,,,,,,,Space,keypress(Space),,,,,,,,-- --- ---- --- ------ ----- ------- ---- -- --- ------- --<br>------- ---------- ------ -- ----- -- ----- -- ---- ------<br>--- ----- --- --- ------ -------- ----- --- ------ ----- --<br>----- ----- ---------- and --- ------ ------ ---- -- ------<br>------- --- ------ ----- --- ---- ------- -- ---- --- --<br>------- ------,169844,169971,169467,169449,169484,169866,,36,and
screen,html.Screen,2_1_1_1_37,2022-05-02T12:43:25.338Z,,,,,,,,,,,,,,,,,54,,,,,,,,,,,,,,565,,response,,,,100,,,,,,,Space,keypress(Space),,,,,,,,-- --- ---- --- ------ ----- ------- ---- -- --- ------- --<br>------- ---------- ------ -- ----- -- ----- -- ---- ------<br>--- ----- --- --- ------ -------- ----- --- ------ ----- --<br>----- ----- ---------- --- the ------ ------ ---- -- ------<br>------- --- ------ ----- --- ---- ------- -- ---- --- --<br>------- ------,170288,170415,169850,169847,169866,170317,,37,the
screen,html.Screen,2_1_1_1_38,2022-05-02T12:43:25.734Z,,,,,,,,,,,,,,,,,54,,,,,,,,,,,,,,510,,response,,,,100,,,,,,,Space,keypress(Space),,,,,,,,-- --- ---- --- ------ ----- ------- ---- -- --- ------- --<br>------- ---------- ------ -- ----- -- ----- -- ---- ------<br>--- ----- --- --- ------ -------- ----- --- ------ ----- --<br>----- ----- ---------- --- --- market ------ ---- -- ------<br>------- --- ------ ----- --- ---- ------- -- ---- --- --<br>------- ------,170684,170811,170301,170288,170317,170717,,38,market
screen,html.Screen,2_1_1_1_39,2022-05-02T12:43:26.276Z,,,,,,,,,,,,,,,,,54,,,,,,,,,,,,,,652,,response,,,,100,,,,,,,Space,keypress(Space),,,,,,,,-- --- ---- --- ------ ----- ------- ---- -- --- ------- --<br>------- ---------- ------ -- ----- -- ----- -- ---- ------<br>--- ----- --- --- ------ -------- ----- --- ------ ----- --<br>----- ----- ---------- --- --- ------ became ---- -- ------<br>------- --- ------ ----- --- ---- ------- -- ---- --- --<br>------- ------,171226,171353,170701,170684,170717,171251,,39,became
screen,html.Screen,2_1_1_1_40,2022-05-02T12:43:26.644Z,,,,,,,,,,,,,,,,,54,,,,,,,,,,,,,,487,,response,,,,100,,,,,,,Space,keypress(Space),,,,,,,,-- --- ---- --- ------ ----- ------- ---- -- --- ------- --<br>------- ---------- ------ -- ----- -- ----- -- ---- ------<br>--- ----- --- --- ------ -------- ----- --- ------ ----- --<br>----- ----- ---------- --- --- ------ ------ wary -- ------<br>------- --- ------ ----- --- ---- ------- -- ---- --- --<br>------- ------,171594,171720,171233,171227,171251,171617,,40,wary
screen,html.Screen,2_1_1_1_41,2022-05-02T12:43:27.127Z,,,,,,,,,,,,,,,,,54,,,,,,,,,,,,,,604,,response,,,,100,,,,,,,Space,keypress(Space),,,,,,,,-- --- ---- --- ------ ----- ------- ---- -- --- ------- --<br>------- ---------- ------ -- ----- -- ----- -- ---- ------<br>--- ----- --- --- ------ -------- ----- --- ------ ----- --<br>----- ----- ---------- --- --- ------ ------ ---- of ------<br>------- --- ------ ----- --- ---- ------- -- ---- --- --<br>------- ------,172077,172204,171600,171594,171617,172101,,41,of
screen,html.Screen,2_1_1_1_42,2022-05-02T12:43:27.508Z,,,,,,,,,,,,,,,,,54,,,,,,,,,,,,,,500,,response,,,,100,,,,,,,Space,keypress(Space),,,,,,,,-- --- ---- --- ------ ----- ------- ---- -- --- ------- --<br>------- ---------- ------ -- ----- -- ----- -- ---- ------<br>--- ----- --- --- ------ -------- ----- --- ------ ----- --<br>----- ----- ---------- --- --- ------ ------ ---- -- French<br>------- --- ------ ----- --- ---- ------- -- ---- --- --<br>------- ------,172458,172583,172083,172077,172101,172484,,42,French
screen,html.Screen,2_1_1_1_43,2022-05-02T12:43:27.955Z,,,,,,,,,,,,,,,,,54,,,,,,,,,,,,,,564,,response,,,,100,,,,,,,Space,keypress(Space),,,,,,,,-- --- ---- --- ------ ----- ------- ---- -- --- ------- --<br>------- ---------- ------ -- ----- -- ----- -- ---- ------<br>--- ----- --- --- ------ -------- ----- --- ------ ----- --<br>----- ----- ---------- --- --- ------ ------ ---- -- ------<br>credit. --- ------ ----- --- ---- ------- -- ---- --- --<br>------- ------,172904,173031,172467,172458,172484,172934,,43,credit.
screen,html.Screen,2_1_1_1_44,2022-05-02T12:43:28.403Z,,,,,,,,,,,,,,,,,54,,,,,,,,,,,,,,561,,response,,,,100,,,,,,,Space,keypress(Space),,,,,,,,-- --- ---- --- ------ ----- ------- ---- -- --- ------- --<br>------- ---------- ------ -- ----- -- ----- -- ---- ------<br>--- ----- --- --- ------ -------- ----- --- ------ ----- --<br>----- ----- ---------- --- --- ------ ------ ---- -- ------<br>------- The ------ ----- --- ---- ------- -- ---- --- --<br>------- ------,173352,173478,172917,172905,172934,173384,,44,The
screen,html.Screen,2_1_1_1_45,2022-05-02T12:43:28.837Z,,,,,,,,,,,,,,,,,54,,,,,,,,,,,,,,546,,response,,,,100,,,,,,,Space,keypress(Space),,,,,,,,-- --- ---- --- ------ ----- ------- ---- -- --- ------- --<br>------- ---------- ------ -- ----- -- ----- -- ---- ------<br>--- ----- --- --- ------ -------- ----- --- ------ ----- --<br>----- ----- ---------- --- --- ------ ------ ---- -- ------<br>------- --- French ----- --- ---- ------- -- ---- --- --<br>------- ------,173787,173913,173367,173353,173384,173817,,45,French
screen,html.Screen,2_1_1_1_46,2022-05-02T12:43:29.364Z,,,,,,,,,,,,,,,,,54,,,,,,,,,,,,,,641,,response,,,,100,,,,,,,Space,keypress(Space),,,,,,,,-- --- ---- --- ------ ----- ------- ---- -- --- ------- --<br>------- ---------- ------ -- ----- -- ----- -- ---- ------<br>--- ----- --- --- ------ -------- ----- --- ------ ----- --<br>----- ----- ---------- --- --- ------ ------ ---- -- ------<br>------- --- ------ state --- ---- ------- -- ---- --- --<br>------- ------,174314,174442,173801,173788,173817,174351,,46,state
screen,html.Screen,2_1_1_1_47,2022-05-02T12:43:29.793Z,,,,,,,,,,,,,,,,,54,,,,,,,,,,,,,,536,,response,,,,100,,,,,,,Space,keypress(Space),,,,,,,,-- --- ---- --- ------ ----- ------- ---- -- --- ------- --<br>------- ---------- ------ -- ----- -- ----- -- ---- ------<br>--- ----- --- --- ------ -------- ----- --- ------ ----- --<br>----- ----- ---------- --- --- ------ ------ ---- -- ------<br>------- --- ------ ----- was ---- ------- -- ---- --- --<br>------- ------,174743,174870,174334,174314,174351,174767,,47,was
screen,html.Screen,2_1_1_1_48,2022-05-02T12:43:30.171Z,,,,,,,,,,,,,,,,,54,,,,,,,,,,,,,,499,,response,,,,100,,,,,,,Space,keypress(Space),,,,,,,,-- --- ---- --- ------ ----- ------- ---- -- --- ------- --<br>------- ---------- ------ -- ----- -- ----- -- ---- ------<br>--- ----- --- --- ------ -------- ----- --- ------ ----- --<br>----- ----- ---------- --- --- ------ ------ ---- -- ------<br>------- --- ------ ----- --- left ------- -- ---- --- --<br>------- ------,175121,175249,174750,174745,174767,175151,,48,left
screen,html.Screen,2_1_1_1_49,2022-05-02T12:43:30.560Z,,,,,,,,,,,,,,,,,54,,,,,,,,,,,,,,503,,response,,,,100,,,,,,,Space,keypress(Space),,,,,,,,-- --- ---- --- ------ ----- ------- ---- -- --- ------- --<br>------- ---------- ------ -- ----- -- ----- -- ---- ------<br>--- ----- --- --- ------ -------- ----- --- ------ ----- --<br>----- ----- ---------- --- --- ------ ------ ---- -- ------<br>------- --- ------ ----- --- ---- without -- ---- --- --<br>------- ------,175510,175637,175134,175122,175151,175534,,49,without
screen,html.Screen,2_1_1_1_50,2022-05-02T12:43:30.964Z,,,,,,,,,,,,,,,,,54,,,,,,,,,,,,,,524,,response,,,,100,,,,,,,Space,keypress(Space),,,,,,,,-- --- ---- --- ------ ----- ------- ---- -- --- ------- --<br>------- ---------- ------ -- ----- -- ----- -- ---- ------<br>--- ----- --- --- ------ -------- ----- --- ------ ----- --<br>----- ----- ---------- --- --- ------ ------ ---- -- ------<br>------- --- ------ ----- --- ---- ------- an ---- --- --<br>------- ------,175914.00000000003,176041,175517,175510,175534,175951,,50,an
screen,html.Screen,2_1_1_1_51,2022-05-02T12:43:31.337Z,,,,,,,,,,,,,,,,,54,,,,,,,,,,,,,,481,,response,,,,100,,,,,,,Space,keypress(Space),,,,,,,,-- --- ---- --- ------ ----- ------- ---- -- --- ------- --<br>------- ---------- ------ -- ----- -- ----- -- ---- ------<br>--- ----- --- --- ------ -------- ----- --- ------ ----- --<br>----- ----- ---------- --- --- ------ ------ ---- -- ------<br>------- --- ------ ----- --- ---- ------- -- easy --- --<br>------- ------,176287,176415,175934,175914.00000000003,175951,176317,,51,easy
screen,html.Screen,2_1_1_1_52,2022-05-02T12:43:31.838Z,,,,,,,,,,,,,,,,,54,,,,,,,,,,,,,,614,,response,,,,100,,,,,,,Space,keypress(Space),,,,,,,,-- --- ---- --- ------ ----- ------- ---- -- --- ------- --<br>------- ---------- ------ -- ----- -- ----- -- ---- ------<br>--- ----- --- --- ------ -------- ----- --- ------ ----- --<br>----- ----- ---------- --- --- ------ ------ ---- -- ------<br>------- --- ------ ----- --- ---- ------- -- ---- way --<br>------- ------,176787,176915,176301,176287,176317,176817,,52,way
screen,html.Screen,2_1_1_1_53,2022-05-02T12:43:32.309Z,,,,,,,,,,,,,,,,,54,,,,,,,,,,,,,,585,,response,,,,100,,,,,,,Space,keypress(Space),,,,,,,,-- --- ---- --- ------ ----- ------- ---- -- --- ------- --<br>------- ---------- ------ -- ----- -- ----- -- ---- ------<br>--- ----- --- --- ------ -------- ----- --- ------ ----- --<br>----- ----- ---------- --- --- ------ ------ ---- -- ------<br>------- --- ------ ----- --- ---- ------- -- ---- --- of<br>------- ------,177259,177386,176801,176788,176817,177284,,53,of
screen,html.Screen,2_1_1_1_54,2022-05-02T12:43:32.731Z,,,,,,,,,,,,,,,,,54,,,,,,,,,,,,,,541,,response,,,,100,,,,,,,Space,keypress(Space),,,,,,,,-- --- ---- --- ------ ----- ------- ---- -- --- ------- --<br>------- ---------- ------ -- ----- -- ----- -- ---- ------<br>--- ----- --- --- ------ -------- ----- --- ------ ----- --<br>----- ----- ---------- --- --- ------ ------ ---- -- ------<br>------- --- ------ ----- --- ---- ------- -- ---- --- --<br>raising ------,177680,177808,177267,177259,177284,177717,,54,raising
screen,html.Screen,2_1_1_1_55,2022-05-02T12:43:33.198Z,,,,,,,,,,,,,,,,,54,,,,,,,,,,,,,,574,,response,,,,100,,,,,,,Space,keypress(Space),,,,,,,,-- --- ---- --- ------ ----- ------- ---- -- --- ------- --<br>------- ---------- ------ -- ----- -- ----- -- ---- ------<br>--- ----- --- --- ------ -------- ----- --- ------ ----- --<br>----- ----- ---------- --- --- ------ ------ ---- -- ------<br>------- --- ------ ----- --- ---- ------- -- ---- --- --<br>------- money.,178147,178275,177701,177681,177717,178184,,55,money.
Item 100,flow.Loop,2_1_1_1,2022-05-02T12:43:33.199Z,,,,,,,,,,,,,,,,,,,,,,,,,,,,,,,27058,,completion,,,,,G,,,,,,,,,,,silence,,,,,178149,178275,151201,151204,151217,178184,,,
Question 1,html.Screen,2_1_1_2,2022-05-02T12:43:36.821Z,,,,,,,,,,,,,,,,,,,,,,,,,,,,true,TRUE,,3732,,response,,,,100,G,,,,,,TRUE,click #choice-1,,,,silence,,,,,181771.00000000003,181899,178167,178149,178184,181801,,,
Question 2,html.Screen,2_1_1_3,2022-05-02T12:43:39.907Z,,,,,,,,,,,,,,,,,,,,,,,,,,,,true,FALSE,,3199,,response,,,,100,G,,,,,,FALSE,click #choice-2,,,,silence,,,,,184857,184983,181784,181771.00000000003,181801,184884,,,
Item 100,flow.Sequence,2_1_1,2022-05-02T12:43:39.908Z,,,,,,,,,,,,,,,,,,,,,,,,,,,,,,,43767,,completion,,,,,,,,,,,,,,,,,,,,,184858,184983,141203,141191,141216,184884,,,
End of Practice,html.Page,2_1_2,2022-05-02T12:43:44.629Z,,,,,,,,,,,,,,,,,,,,,,,,,,,,,,,4695,,form submission,,,,,,,,,,,,,,,,,,,,,189579,189579,184874,184858,184884,189600,,,
Practice,flow.Sequence,2_1,2022-05-02T12:43:44.629Z,,,,,,,,,,,,,,,,,,,,,,,,,,,,,,,95231,,completion,,,,,,,,,,,,,,,,,,,,,189580,189579,94332,94315,94348,189600,,,
Trap_instruction,html.Page,2_2_0,2022-05-02T12:43:50.027Z,,,,,,,,,,,,,,,,,,,,,,,,,,,,,,,5377,,form submission,,,,,,,,,,,,,,,,,,,,,194977,194977,189583,189580,189600,195001,,,
trap_trial,html.Screen,2_2_1,2022-05-02T12:43:53.124Z,,,,,,,,,,,,,,,,,,,,,,,,,,,,true,1,,3212.000000000029,,response,,,,,,,,,,,1,click #choice-1,,,,,,,,,198074,198200.00000000003,194988,194977,195001,198090,,,
end of trap trial,html.Page,2_2_2,2022-05-02T12:43:55.142Z,,,,,,,,,,,,,,,,,,,,,,,,,,,,,,,2002,,form submission,,,,,,,,,,,,,,,,,,,,,200093.00000000003,200092,198087,198075.00000000003,198090,200115,,,
Trap 1,flow.Sequence,2_2,2022-05-02T12:43:55.143Z,,,,,,,,,,,,,,,,,,,,,,,,,,,,,,,10492,,completion,,,,,,,,,,,,,,,,,,,,,200093.00000000003,200092,189583,189580,189600,200115,,,
Standby,html.Page,2_3_0,2022-05-02T12:44:03.152Z,,,,,,,,,,,,,,,,,,,,,,,,,,,,,,,8003,,timeout,,,,,,,,,,,,,,,,,,,,,208103,208101,200101,200095,200115,208118,,,
Holding screen,html.Screen,2_3_1_0_0,2022-05-02T12:44:10.151Z,,,,,,,,,,,,,,,,,,,,,,,,,,,,,,,7002,,timeout,,,,,,,,,,,,,,,,,,,,,215103,215102,208101,208104,208118,215120,,,
screen,html.Screen,2_3_1_0_1_0,2022-05-02T12:44:10.908Z,,,,,,,,,,,,,,,,,51,,,,,,,,,,,,,,884.0000000000291,,response,,,,13,G,,,,,,Space,keypress(Space),,,,instrumental,,,,American -------- --- --- ---- --- --- ------ -- --------<br>---- --------- --- ------- ------------ ---------- ---------<br>--- ---------- ------- ---------- ------- -- -------- ----<br>---- --- ------ ----- ------ -- ---- --- ----- -- - -------<br>-------- -- --- --- -- ----- ----------- ----- -----------<br>---- --- ---------- --- ---- --- -- ----------,215859,215986.00000000003,215102,215103,215120,215885,,0,American
screen,html.Screen,2_3_1_0_1_1,2022-05-02T12:44:11.400Z,,,,,,,,,,,,,,,,,51,,,,,,,,,,,,,,612.0000000000291,,response,,,,13,G,,,,,,Space,keypress(Space),,,,instrumental,,,,-------- industry --- --- ---- --- --- ------ -- --------<br>---- --------- --- ------- ------------ ---------- ---------<br>--- ---------- ------- ---------- ------- -- -------- ----<br>---- --- ------ ----- ------ -- ---- --- ----- -- - -------<br>-------- -- --- --- -- ----- ----------- ----- -----------<br>---- --- ---------- --- ---- --- -- ----------,216352,216480.00000000003,215868,215859,215885,216387,,1,industry
screen,html.Screen,2_3_1_0_1_2,2022-05-02T12:44:11.917Z,,,,,,,,,,,,,,,,,51,,,,,,,,,,,,,,628,,response,,,,13,G,,,,,,Space,keypress(Space),,,,instrumental,,,,-------- -------- may --- ---- --- --- ------ -- --------<br>---- --------- --- ------- ------------ ---------- ---------<br>--- ---------- ------- ---------- ------- -- -------- ----<br>---- --- ------ ----- ------ -- ---- --- ----- -- - -------<br>-------- -- --- --- -- ----- ----------- ----- -----------<br>---- --- ---------- --- ---- --- -- ----------,216868,216996,216368,216352,216387,216902,,2,may
screen,html.Screen,2_3_1_0_1_3,2022-05-02T12:44:12.393Z,,,,,,,,,,,,,,,,,51,,,,,,,,,,,,,,588,,response,,,,13,G,,,,,,Space,keypress(Space),,,,instrumental,,,,-------- -------- --- not ---- --- --- ------ -- --------<br>---- --------- --- ------- ------------ ---------- ---------<br>--- ---------- ------- ---------- ------- -- -------- ----<br>---- --- ------ ----- ------ -- ---- --- ----- -- - -------<br>-------- -- --- --- -- ----- ----------- ----- -----------<br>---- --- ---------- --- ---- --- -- ----------,217344,217473,216885,216869,216902,217368,,3,not
screen,html.Screen,2_3_1_0_1_4,2022-05-02T12:44:12.876Z,,,,,,,,,,,,,,,,,51,,,,,,,,,,,,,,605.0000000000291,,response,,,,13,G,,,,,,Space,keypress(Space),,,,instrumental,,,,-------- -------- --- --- know --- --- ------ -- --------<br>---- --------- --- ------- ------------ ---------- ---------<br>--- ---------- ------- ---------- ------- -- -------- ----<br>---- --- ------ ----- ------ -- ---- --- ----- -- - -------<br>-------- -- --- --- -- ----- ----------- ----- -----------<br>---- --- ---------- --- ---- --- -- ----------,217828,217956.00000000003,217351,217345,217368,217851,,4,know
screen,html.Screen,2_3_1_0_1_5,2022-05-02T12:44:13.390Z,,,,,,,,,,,,,,,,,51,,,,,,,,,,,,,,635,,response,,,,13,G,,,,,,Space,keypress(Space),,,,instrumental,,,,"-------- -------- --- --- ---- it, --- ------ -- --------<br>---- --------- --- ------- ------------ ---------- ---------<br>--- ---------- ------- ---------- ------- -- -------- ----<br>---- --- ------ ----- ------ -- ---- --- ----- -- - -------<br>-------- -- --- --- -- ----- ----------- ----- -----------<br>---- --- ---------- --- ---- --- -- ----------",218341,218470,217835,217828,217851,218369,,5,"it,"
screen,html.Screen,2_3_1_0_1_6,2022-05-02T12:44:13.864Z,,,,,,,,,,,,,,,,,51,,,,,,,,,,,,,,592.0000000000291,,response,,,,13,G,,,,,,Space,keypress(Space),,,,instrumental,,,,-------- -------- --- --- ---- --- but ------ -- --------<br>---- --------- --- ------- ------------ ---------- ---------<br>--- ---------- ------- ---------- ------- -- -------- ----<br>---- --- ------ ----- ------ -- ---- --- ----- -- - -------<br>-------- -- --- --- -- ----- ----------- ----- -----------<br>---- --- ---------- --- ---- --- -- ----------,218815,218944.00000000003,218352,218342,218369,218852,,6,but
screen,html.Screen,2_3_1_0_1_7,2022-05-02T12:44:14.346Z,,,,,,,,,,,,,,,,,51,,,,,,,,,,,,,,591.0000000000291,,response,,,,13,G,,,,,,Space,keypress(Space),,,,instrumental,,,,-------- -------- --- --- ---- --- --- debate -- --------<br>---- --------- --- ------- ------------ ---------- ---------<br>--- ---------- ------- ---------- ------- -- -------- ----<br>---- --- ------ ----- ------ -- ---- --- ----- -- - -------<br>-------- -- --- --- -- ----- ----------- ----- -----------<br>---- --- ---------- --- ---- --- -- ----------,219298,219426.00000000003,218835,218816,218852,219335,,7,debate
screen,html.Screen,2_3_1_0_1_8,2022-05-02T12:44:14.782Z,,,,,,,,,,,,,,,,,51,,,,,,,,,,,,,,544,,response,,,,13,G,,,,,,Space,keypress(Space),,,,instrumental,,,,-------- -------- --- --- ---- --- --- ------ in --------<br>---- --------- --- ------- ------------ ---------- ---------<br>--- ---------- ------- ---------- ------- -- -------- ----<br>---- --- ------ ----- ------ -- ---- --- ----- -- - -------<br>-------- -- --- --- -- ----- ----------- ----- -----------<br>---- --- ---------- --- ---- --- -- ----------,219733,219862,219318,219298,219335,219768,,8,in
screen,html.Screen,2_3_1_0_1_9,2022-05-02T12:44:15.223Z,,,,,,,,,,,,,,,,,51,,,,,,,,,,,,,,551,,response,,,,13,G,,,,,,Space,keypress(Space),,,,instrumental,,,,-------- -------- --- --- ---- --- --- ------ -- Congress<br>---- --------- --- ------- ------------ ---------- ---------<br>--- ---------- ------- ---------- ------- -- -------- ----<br>---- --- ------ ----- ------ -- ---- --- ----- -- - -------<br>-------- -- --- --- -- ----- ----------- ----- -----------<br>---- --- ---------- --- ---- --- -- ----------,220175,220303,219752,219734,219768,220202,,9,Congress
screen,html.Screen,2_3_1_0_1_10,2022-05-02T12:44:15.712Z,,,,,,,,,,,,,,,,,51,,,,,,,,,,,,,,607,,response,,,,13,G,,,,,,Space,keypress(Space),,,,instrumental,,,,-------- -------- --- --- ---- --- --- ------ -- --------<br>over --------- --- ------- ------------ ---------- ---------<br>--- ---------- ------- ---------- ------- -- -------- ----<br>---- --- ------ ----- ------ -- ---- --- ----- -- - -------<br>-------- -- --- --- -- ----- ----------- ----- -----------<br>---- --- ---------- --- ---- --- -- ----------,220663,220792,220185,220175,220202,220702,,10,over
screen,html.Screen,2_3_1_0_1_11,2022-05-02T12:44:16.231Z,,,,,,,,,,,,,,,,,51,,,,,,,,,,,,,,627,,response,,,,13,G,,,,,,Space,keypress(Space),,,,instrumental,,,,-------- -------- --- --- ---- --- --- ------ -- --------<br>---- reforming --- ------- ------------ ---------- ---------<br>--- ---------- ------- ---------- ------- -- -------- ----<br>---- --- ------ ----- ------ -- ---- --- ----- -- - -------<br>-------- -- --- --- -- ----- ----------- ----- -----------<br>---- --- ---------- --- ---- --- -- ----------,221183,221312,220685,220666,220702,221219,,11,reforming
screen,html.Screen,2_3_1_0_1_12,2022-05-02T12:44:16.683Z,,,,,,,,,,,,,,,,,51,,,,,,,,,,,,,,561,,response,,,,13,G,,,,,,Space,keypress(Space),,,,instrumental,,,,-------- -------- --- --- ---- --- --- ------ -- --------<br>---- --------- the ------- ------------ ---------- ---------<br>--- ---------- ------- ---------- ------- -- -------- ----<br>---- --- ------ ----- ------ -- ---- --- ----- -- - -------<br>-------- -- --- --- -- ----- ----------- ----- -----------<br>---- --- ---------- --- ---- --- -- ----------,221634,221763,221202,221183,221219,221669,,12,the
screen,html.Screen,2_3_1_0_1_13,2022-05-02T12:44:17.112Z,,,,,,,,,,,,,,,,,51,,,,,,,,,,,,,,540,,response,,,,13,G,,,,,,Space,keypress(Space),,,,instrumental,,,,-------- -------- --- --- ---- --- --- ------ -- --------<br>---- --------- --- federal ------------ ---------- ---------<br>--- ---------- ------- ---------- ------- -- -------- ----<br>---- --- ------ ----- ------ -- ---- --- ----- -- - -------<br>-------- -- --- --- -- ----- ----------- ----- -----------<br>---- --- ---------- --- ---- --- -- ----------,222063.00000000003,222192,221652,221635,221669,222085,,13,federal
screen,html.Screen,2_3_1_0_1_14,2022-05-02T12:44:17.566Z,,,,,,,,,,,,,,,,,51,,,,,,,,,,,,,,578.0000000000291,,response,,,,13,G,,,,,,Space,keypress(Space),,,,instrumental,,,,-------- -------- --- --- ---- --- --- ------ -- --------<br>---- --------- --- ------- government's ---------- ---------<br>--- ---------- ------- ---------- ------- -- -------- ----<br>---- --- ------ ----- ------ -- ---- --- ----- -- - -------<br>-------- -- --- --- -- ----- ----------- ----- -----------<br>---- --- ---------- --- ---- --- -- ----------,222518,222646.00000000003,222068,222063.00000000003,222085,222552,,14,government's
screen,html.Screen,2_3_1_0_1_15,2022-05-02T12:44:18.110Z,,,,,,,,,,,,,,,,,51,,,,,,,,,,,,,,655,,response,,,,13,G,,,,,,Space,keypress(Space),,,,instrumental,,,,-------- -------- --- --- ---- --- --- ------ -- --------<br>---- --------- --- ------- ------------ regulatory ---------<br>--- ---------- ------- ---------- ------- -- -------- ----<br>---- --- ------ ----- ------ -- ---- --- ----- -- - -------<br>-------- -- --- --- -- ----- ----------- ----- -----------<br>---- --- ---------- --- ---- --- -- ----------,223061,223190,222535,222518,222552,223084,,15,regulatory
screen,html.Screen,2_3_1_0_1_16,2022-05-02T12:44:18.828Z,,,,,,,,,,,,,,,,,51,,,,,,,,,,,,,,840.0000000000291,,response,,,,13,G,,,,,,Space,keypress(Space),,,,instrumental,,,,-------- -------- --- --- ---- --- --- ------ -- --------<br>---- --------- --- ------- ------------ ---------- apparatus<br>--- ---------- ------- ---------- ------- -- -------- ----<br>---- --- ------ ----- ------ -- ---- --- ----- -- - -------<br>-------- -- --- --- -- ----- ----------- ----- -----------<br>---- --- ---------- --- ---- --- -- ----------,223779,223908.00000000003,223068,223061,223084,223802,,16,apparatus
screen,html.Screen,2_3_1_0_1_17,2022-05-02T12:44:19.294Z,,,,,,,,,,,,,,,,,51,,,,,,,,,,,,,,587,,response,,,,13,G,,,,,,Space,keypress(Space),,,,instrumental,,,,-------- -------- --- --- ---- --- --- ------ -- --------<br>---- --------- --- ------- ------------ ---------- ---------<br>may ---------- ------- ---------- ------- -- -------- ----<br>---- --- ------ ----- ------ -- ---- --- ----- -- - -------<br>-------- -- --- --- -- ----- ----------- ----- -----------<br>---- --- ---------- --- ---- --- -- ----------,224245,224372,223785,223780,223802,224269,,17,may
screen,html.Screen,2_3_1_0_1_18,2022-05-02T12:44:19.745Z,,,,,,,,,,,,,,,,,51,,,,,,,,,,,,,,574.0000000000291,,response,,,,13,G,,,,,,Space,keypress(Space),,,,instrumental,,,,-------- -------- --- --- ---- --- --- ------ -- --------<br>---- --------- --- ------- ------------ ---------- ---------<br>--- profoundly ------- ---------- ------- -- -------- ----<br>---- --- ------ ----- ------ -- ---- --- ----- -- - -------<br>-------- -- --- --- -- ----- ----------- ----- -----------<br>---- --- ---------- --- ---- --- -- ----------,224696,224825.00000000003,224251,224245,224269,224719,,18,profoundly
screen,html.Screen,2_3_1_0_1_19,2022-05-02T12:44:20.260Z,,,,,,,,,,,,,,,,,51,,,,,,,,,,,,,,640,,response,,,,13,G,,,,,,Space,keypress(Space),,,,instrumental,,,,-------- -------- --- --- ---- --- --- ------ -- --------<br>---- --------- --- ------- ------------ ---------- ---------<br>--- ---------- improve ---------- ------- -- -------- ----<br>---- --- ------ ----- ------ -- ---- --- ----- -- - -------<br>-------- -- --- --- -- ----- ----------- ----- -----------<br>---- --- ---------- --- ---- --- -- ----------,225212.00000000003,225341,224701,224697,224719,225235,,19,improve
screen,html.Screen,2_3_1_0_1_20,2022-05-02T12:44:20.734Z,,,,,,,,,,,,,,,,,51,,,,,,,,,,,,,,597,,response,,,,13,G,,,,,,Space,keypress(Space),,,,instrumental,,,,-------- -------- --- --- ---- --- --- ------ -- --------<br>---- --------- --- ------- ------------ ---------- ---------<br>--- ---------- ------- companies' ------- -- -------- ----<br>---- --- ------ ----- ------ -- ---- --- ----- -- - -------<br>-------- -- --- --- -- ----- ----------- ----- -----------<br>---- --- ---------- --- ---- --- -- ----------,225686,225815,225218,225212.00000000003,225235,225719,,20,companies'
screen,html.Screen,2_3_1_0_1_21,2022-05-02T12:44:21.199Z,,,,,,,,,,,,,,,,,51,,,,,,,,,,,,,,578,,response,,,,13,G,,,,,,Space,keypress(Space),,,,instrumental,,,,-------- -------- --- --- ---- --- --- ------ -- --------<br>---- --------- --- ------- ------------ ---------- ---------<br>--- ---------- ------- ---------- ability -- -------- ----<br>---- --- ------ ----- ------ -- ---- --- ----- -- - -------<br>-------- -- --- --- -- ----- ----------- ----- -----------<br>---- --- ---------- --- ---- --- -- ----------,226150,226280,225702,225686,225719,226185,,21,ability
screen,html.Screen,2_3_1_0_1_22,2022-05-02T12:44:21.579Z,,,,,,,,,,,,,,,,,51,,,,,,,,,,,,,,490,,response,,,,13,G,,,,,,Space,keypress(Space),,,,instrumental,,,,-------- -------- --- --- ---- --- --- ------ -- --------<br>---- --------- --- ------- ------------ ---------- ---------<br>--- ---------- ------- ---------- ------- to -------- ----<br>---- --- ------ ----- ------ -- ---- --- ----- -- - -------<br>-------- -- --- --- -- ----- ----------- ----- -----------<br>---- --- ---------- --- ---- --- -- ----------,226530,226659,226169,226150,226185,226552,,22,to
screen,html.Screen,2_3_1_0_1_23,2022-05-02T12:44:21.996Z,,,,,,,,,,,,,,,,,51,,,,,,,,,,,,,,541,,response,,,,13,G,,,,,,Space,keypress(Space),,,,instrumental,,,,-------- -------- --- --- ---- --- --- ------ -- --------<br>---- --------- --- ------- ------------ ---------- ---------<br>--- ---------- ------- ---------- ------- -- survive. ----<br>---- --- ------ ----- ------ -- ---- --- ----- -- - -------<br>-------- -- --- --- -- ----- ----------- ----- -----------<br>---- --- ---------- --- ---- --- -- ----------,226947,227076,226535,226532,226552,226985,,23,survive.
screen,html.Screen,2_3_1_0_1_24,2022-05-02T12:44:22.510Z,,,,,,,,,,,,,,,,,51,,,,,,,,,,,,,,621,,response,,,,13,G,,,,,,Space,keypress(Space),,,,instrumental,,,,-------- -------- --- --- ---- --- --- ------ -- --------<br>---- --------- --- ------- ------------ ---------- ---------<br>--- ---------- ------- ---------- ------- -- -------- This<br>---- --- ------ ----- ------ -- ---- --- ----- -- - -------<br>-------- -- --- --- -- ----- ----------- ----- -----------<br>---- --- ---------- --- ---- --- -- ----------,227462.00000000003,227590,226969,226948,226985,227485,,24,This
screen,html.Screen,2_3_1_0_1_25,2022-05-02T12:44:22.936Z,,,,,,,,,,,,,,,,,51,,,,,,,,,,,,,,550,,response,,,,13,G,,,,,,Space,keypress(Space),,,,instrumental,,,,-------- -------- --- --- ---- --- --- ------ -- --------<br>---- --------- --- ------- ------------ ---------- ---------<br>--- ---------- ------- ---------- ------- -- -------- ----<br>week --- ------ ----- ------ -- ---- --- ----- -- - -------<br>-------- -- --- --- -- ----- ----------- ----- -----------<br>---- --- ---------- --- ---- --- -- ----------,227888,228018,227468,227462.00000000003,227485,227919,,25,week
screen,html.Screen,2_3_1_0_1_26,2022-05-02T12:44:23.335Z,,,,,,,,,,,,,,,,,51,,,,,,,,,,,,,,513,,response,,,,13,G,,,,,,Space,keypress(Space),,,,instrumental,,,,-------- -------- --- --- ---- --- --- ------ -- --------<br>---- --------- --- ------- ------------ ---------- ---------<br>--- ---------- ------- ---------- ------- -- -------- ----<br>---- the ------ ----- ------ -- ---- --- ----- -- - -------<br>-------- -- --- --- -- ----- ----------- ----- -----------<br>---- --- ---------- --- ---- --- -- ----------,228287,228415,227902,227888,227919,228319,,26,the
screen,html.Screen,2_3_1_0_1_27,2022-05-02T12:44:23.730Z,,,,,,,,,,,,,,,,,51,,,,,,,,,,,,,,510,,response,,,,13,G,,,,,,Space,keypress(Space),,,,instrumental,,,,-------- -------- --- --- ---- --- --- ------ -- --------<br>---- --------- --- ------- ------------ ---------- ---------<br>--- ---------- ------- ---------- ------- -- -------- ----<br>---- --- Senate ----- ------ -- ---- --- ----- -- - -------<br>-------- -- --- --- -- ----- ----------- ----- -----------<br>---- --- ---------- --- ---- --- -- ----------,228682.00000000003,228811,228301,228287,228319,228702,,27,Senate
screen,html.Screen,2_3_1_0_1_28,2022-05-02T12:44:24.211Z,,,,,,,,,,,,,,,,,51,,,,,,,,,,,,,,606,,response,,,,13,G,,,,,,Space,keypress(Space),,,,instrumental,,,,-------- -------- --- --- ---- --- --- ------ -- --------<br>---- --------- --- ------- ------------ ---------- ---------<br>--- ---------- ------- ---------- ------- -- -------- ----<br>---- --- ------ seems ------ -- ---- --- ----- -- - -------<br>-------- -- --- --- -- ----- ----------- ----- -----------<br>---- --- ---------- --- ---- --- -- ----------,229163,229292,228686,228683,228702,229185,,28,seems
screen,html.Screen,2_3_1_0_1_29,2022-05-02T12:44:24.628Z,,,,,,,,,,,,,,,,,51,,,,,,,,,,,,,,540,,response,,,,13,G,,,,,,Space,keypress(Space),,,,instrumental,,,,-------- -------- --- --- ---- --- --- ------ -- --------<br>---- --------- --- ------- ------------ ---------- ---------<br>--- ---------- ------- ---------- ------- -- -------- ----<br>---- --- ------ ----- poised -- ---- --- ----- -- - -------<br>-------- -- --- --- -- ----- ----------- ----- -----------<br>---- --- ---------- --- ---- --- -- ----------,229579,229708,229168,229163,229185,229602,,29,poised
screen,html.Screen,2_3_1_0_1_30,2022-05-02T12:44:25.084Z,,,,,,,,,,,,,,,,,51,,,,,,,,,,,,,,579.0000000000291,,response,,,,13,G,,,,,,Space,keypress(Space),,,,instrumental,,,,-------- -------- --- --- ---- --- --- ------ -- --------<br>---- --------- --- ------- ------------ ---------- ---------<br>--- ---------- ------- ---------- ------- -- -------- ----<br>---- --- ------ ----- ------ to ---- --- ----- -- - -------<br>-------- -- --- --- -- ----- ----------- ----- -----------<br>---- --- ---------- --- ---- --- -- ----------,230035,230164.00000000003,229585,229580,229602,230068,,30,to
screen,html.Screen,2_3_1_0_1_31,2022-05-02T12:44:25.508Z,,,,,,,,,,,,,,,,,51,,,,,,,,,,,,,,537,,response,,,,13,G,,,,,,Space,keypress(Space),,,,instrumental,,,,-------- -------- --- --- ---- --- --- ------ -- --------<br>---- --------- --- ------- ------------ ---------- ---------<br>--- ---------- ------- ---------- ------- -- -------- ----<br>---- --- ------ ----- ------ -- join --- ----- -- - -------<br>-------- -- --- --- -- ----- ----------- ----- -----------<br>---- --- ---------- --- ---- --- -- ----------,230460,230589,230052,230036,230068,230485,,31,join
screen,html.Screen,2_3_1_0_1_32,2022-05-02T12:44:25.915Z,,,,,,,,,,,,,,,,,51,,,,,,,,,,,,,,528,,response,,,,13,G,,,,,,Space,keypress(Space),,,,instrumental,,,,-------- -------- --- --- ---- --- --- ------ -- --------<br>---- --------- --- ------- ------------ ---------- ---------<br>--- ---------- ------- ---------- ------- -- -------- ----<br>---- --- ------ ----- ------ -- ---- the ----- -- - -------<br>-------- -- --- --- -- ----- ----------- ----- -----------<br>---- --- ---------- --- ---- --- -- ----------,230867.00000000003,230997,230469,230460,230485,230902,,32,the
screen,html.Screen,2_3_1_0_1_33,2022-05-02T12:44:26.301Z,,,,,,,,,,,,,,,,,51,,,,,,,,,,,,,,497,,response,,,,13,G,,,,,,Space,keypress(Space),,,,instrumental,,,,-------- -------- --- --- ---- --- --- ------ -- --------<br>---- --------- --- ------- ------------ ---------- ---------<br>--- ---------- ------- ---------- ------- -- -------- ----<br>---- --- ------ ----- ------ -- ---- --- House -- - -------<br>-------- -- --- --- -- ----- ----------- ----- -----------<br>---- --- ---------- --- ---- --- -- ----------,231253,231382,230885,230867.00000000003,230902,231285,,33,House
screen,html.Screen,2_3_1_0_1_34,2022-05-02T12:44:26.639Z,,,,,,,,,,,,,,,,,51,,,,,,,,,,,,,,451,,response,,,,13,G,,,,,,Space,keypress(Space),,,,instrumental,,,,-------- -------- --- --- ---- --- --- ------ -- --------<br>---- --------- --- ------- ------------ ---------- ---------<br>--- ---------- ------- ---------- ------- -- -------- ----<br>---- --- ------ ----- ------ -- ---- --- ----- in - -------<br>-------- -- --- --- -- ----- ----------- ----- -----------<br>---- --- ---------- --- ---- --- -- ----------,231590,231720,231269,231253,231285,231619,,34,in
screen,html.Screen,2_3_1_0_1_35,2022-05-02T12:44:27.066Z,,,,,,,,,,,,,,,,,51,,,,,,,,,,,,,,544.0000000000291,,response,,,,13,G,,,,,,Space,keypress(Space),,,,instrumental,,,,-------- -------- --- --- ---- --- --- ------ -- --------<br>---- --------- --- ------- ------------ ---------- ---------<br>--- ---------- ------- ---------- ------- -- -------- ----<br>---- --- ------ ----- ------ -- ---- --- ----- -- a -------<br>-------- -- --- --- -- ----- ----------- ----- -----------<br>---- --- ---------- --- ---- --- -- ----------,232017,232146.00000000003,231602,231591,231619,232052,,35,a
screen,html.Screen,2_3_1_0_1_36,2022-05-02T12:44:27.641Z,,,,,,,,,,,,,,,,,51,,,,,,,,,,,,,,689.0000000000291,,response,,,,13,G,,,,,,Space,keypress(Space),,,,instrumental,,,,-------- -------- --- --- ---- --- --- ------ -- --------<br>---- --------- --- ------- ------------ ---------- ---------<br>--- ---------- ------- ---------- ------- -- -------- ----<br>---- --- ------ ----- ------ -- ---- --- ----- -- - massive<br>-------- -- --- --- -- ----- ----------- ----- -----------<br>---- --- ---------- --- ---- --- -- ----------,232593.00000000003,232724.00000000003,232035,232019,232052,232619,,36,massive
screen,html.Screen,2_3_1_0_1_37,2022-05-02T12:44:28.154Z,,,,,,,,,,,,,,,,,51,,,,,,,,,,,,,,635,,response,,,,13,G,,,,,,Space,keypress(Space),,,,instrumental,,,,-------- -------- --- --- ---- --- --- ------ -- --------<br>---- --------- --- ------- ------------ ---------- ---------<br>--- ---------- ------- ---------- ------- -- -------- ----<br>---- --- ------ ----- ------ -- ---- --- ----- -- - -------<br>overhaul -- --- --- -- ----- ----------- ----- -----------<br>---- --- ---------- --- ---- --- -- ----------,233106,233237,232602,232593.00000000003,232619,233135,,37,overhaul
screen,html.Screen,2_3_1_0_1_38,2022-05-02T12:44:28.712Z,,,,,,,,,,,,,,,,,51,,,,,,,,,,,,,,674,,response,,,,13,G,,,,,,Space,keypress(Space),,,,instrumental,,,,-------- -------- --- --- ---- --- --- ------ -- --------<br>---- --------- --- ------- ------------ ---------- ---------<br>--- ---------- ------- ---------- ------- -- -------- ----<br>---- --- ------ ----- ------ -- ---- --- ----- -- - -------<br>-------- of --- --- -- ----- ----------- ----- -----------<br>---- --- ---------- --- ---- --- -- ----------,233663,233793,233119,233106,233135,233685,,38,of
screen,html.Screen,2_3_1_0_1_39,2022-05-02T12:44:29.148Z,,,,,,,,,,,,,,,,,51,,,,,,,,,,,,,,561,,response,,,,13,G,,,,,,Space,keypress(Space),,,,instrumental,,,,-------- -------- --- --- ---- --- --- ------ -- --------<br>---- --------- --- ------- ------------ ---------- ---------<br>--- ---------- ------- ---------- ------- -- -------- ----<br>---- --- ------ ----- ------ -- ---- --- ----- -- - -------<br>-------- -- the --- -- ----- ----------- ----- -----------<br>---- --- ---------- --- ---- --- -- ----------,234100,234229,233668,233664.00000000003,233685,234136,,39,the
screen,html.Screen,2_3_1_0_1_40,2022-05-02T12:44:29.628Z,,,,,,,,,,,,,,,,,51,,,,,,,,,,,,,,590,,response,,,,13,G,,,,,,Space,keypress(Space),,,,instrumental,,,,-------- -------- --- --- ---- --- --- ------ -- --------<br>---- --------- --- ------- ------------ ---------- ---------<br>--- ---------- ------- ---------- ------- -- -------- ----<br>---- --- ------ ----- ------ -- ---- --- ----- -- - -------<br>-------- -- --- way -- ----- ----------- ----- -----------<br>---- --- ---------- --- ---- --- -- ----------,234580,234709,234119,234100,234136,234602,,40,way
screen,html.Screen,2_3_1_0_1_41,2022-05-02T12:44:30.105Z,,,,,,,,,,,,,,,,,51,,,,,,,,,,,,,,602,,response,,,,13,G,,,,,,Space,keypress(Space),,,,instrumental,,,,-------- -------- --- --- ---- --- --- ------ -- --------<br>---- --------- --- ------- ------------ ---------- ---------<br>--- ---------- ------- ---------- ------- -- -------- ----<br>---- --- ------ ----- ------ -- ---- --- ----- -- - -------<br>-------- -- --- --- in ----- ----------- ----- -----------<br>---- --- ---------- --- ---- --- -- ----------,235057.00000000003,235187,234585,234580,234602,235086,,41,in
screen,html.Screen,2_3_1_0_1_42,2022-05-02T12:44:30.639Z,,,,,,,,,,,,,,,,,51,,,,,,,,,,,,,,652,,response,,,,13,G,,,,,,Space,keypress(Space),,,,instrumental,,,,-------- -------- --- --- ---- --- --- ------ -- --------<br>---- --------- --- ------- ------------ ---------- ---------<br>--- ---------- ------- ---------- ------- -- -------- ----<br>---- --- ------ ----- ------ -- ---- --- ----- -- - -------<br>-------- -- --- --- -- which ----------- ----- -----------<br>---- --- ---------- --- ---- --- -- ----------,235591,235721,235069,235057.00000000003,235086,235619,,42,which
screen,html.Screen,2_3_1_0_1_43,2022-05-02T12:44:31.147Z,,,,,,,,,,,,,,,,,51,,,,,,,,,,,,,,627,,response,,,,13,G,,,,,,Space,keypress(Space),,,,instrumental,,,,-------- -------- --- --- ---- --- --- ------ -- --------<br>---- --------- --- ------- ------------ ---------- ---------<br>--- ---------- ------- ---------- ------- -- -------- ----<br>---- --- ------ ----- ------ -- ---- --- ----- -- - -------<br>-------- -- --- --- -- ----- bureaucrats ----- -----------<br>---- --- ---------- --- ---- --- -- ----------,236099.00000000003,236229,235602,235591,235619,236135,,43,bureaucrats
screen,html.Screen,2_3_1_0_1_44,2022-05-02T12:44:31.534Z,,,,,,,,,,,,,,,,,51,,,,,,,,,,,,,,497,,response,,,,13,G,,,,,,Space,keypress(Space),,,,instrumental,,,,-------- -------- --- --- ---- --- --- ------ -- --------<br>---- --------- --- ------- ------------ ---------- ---------<br>--- ---------- ------- ---------- ------- -- -------- ----<br>---- --- ------ ----- ------ -- ---- --- ----- -- - -------<br>-------- -- --- --- -- ----- ----------- enact -----------<br>---- --- ---------- --- ---- --- -- ----------,236486.00000000003,236616,236119,236099.00000000003,236135,236519,,44,enact
screen,html.Screen,2_3_1_0_1_45,2022-05-02T12:44:32.035Z,,,,,,,,,,,,,,,,,51,,,,,,,,,,,,,,614,,response,,,,13,G,,,,,,Space,keypress(Space),,,,instrumental,,,,-------- -------- --- --- ---- --- --- ------ -- --------<br>---- --------- --- ------- ------------ ---------- ---------<br>--- ---------- ------- ---------- ------- -- -------- ----<br>---- --- ------ ----- ------ -- ---- --- ----- -- - -------<br>-------- -- --- --- -- ----- ----------- ----- regulations<br>---- --- ---------- --- ---- --- -- ----------,236987,237116,236502,236486.00000000003,236519,237019,,45,regulations
screen,html.Screen,2_3_1_0_1_46,2022-05-02T12:44:32.502Z,,,,,,,,,,,,,,,,,51,,,,,,,,,,,,,,582,,response,,,,13,G,,,,,,Space,keypress(Space),,,,instrumental,,,,-------- -------- --- --- ---- --- --- ------ -- --------<br>---- --------- --- ------- ------------ ---------- ---------<br>--- ---------- ------- ---------- ------- -- -------- ----<br>---- --- ------ ----- ------ -- ---- --- ----- -- - -------<br>-------- -- --- --- -- ----- ----------- ----- -----------<br>that --- ---------- --- ---- --- -- ----------,237454,237584,237002,236988,237019,237486,,46,that
screen,html.Screen,2_3_1_0_1_47,2022-05-02T12:44:32.984Z,,,,,,,,,,,,,,,,,51,,,,,,,,,,,,,,597,,response,,,,13,G,,,,,,Space,keypress(Space),,,,instrumental,,,,-------- -------- --- --- ---- --- --- ------ -- --------<br>---- --------- --- ------- ------------ ---------- ---------<br>--- ---------- ------- ---------- ------- -- -------- ----<br>---- --- ------ ----- ------ -- ---- --- ----- -- - -------<br>-------- -- --- --- -- ----- ----------- ----- -----------<br>---- are ---------- --- ---- --- -- ----------,237936,238066,237469,237454,237486,237969,,47,are
screen,html.Screen,2_3_1_0_1_48,2022-05-02T12:44:33.375Z,,,,,,,,,,,,,,,,,51,,,,,,,,,,,,,,504.0000000000291,,response,,,,13,G,,,,,,Space,keypress(Space),,,,instrumental,,,,-------- -------- --- --- ---- --- --- ------ -- --------<br>---- --------- --- ------- ------------ ---------- ---------<br>--- ---------- ------- ---------- ------- -- -------- ----<br>---- --- ------ ----- ------ -- ---- --- ----- -- - -------<br>-------- -- --- --- -- ----- ----------- ----- -----------<br>---- --- strangling --- ---- --- -- ----------,238327,238456.00000000003,237952,237937,237969,238352,,48,strangling
screen,html.Screen,2_3_1_0_1_49,2022-05-02T12:44:33.854Z,,,,,,,,,,,,,,,,,51,,,,,,,,,,,,,,600,,response,,,,13,G,,,,,,Space,keypress(Space),,,,instrumental,,,,-------- -------- --- --- ---- --- --- ------ -- --------<br>---- --------- --- ------- ------------ ---------- ---------<br>--- ---------- ------- ---------- ------- -- -------- ----<br>---- --- ------ ----- ------ -- ---- --- ----- -- - -------<br>-------- -- --- --- -- ----- ----------- ----- -----------<br>---- --- ---------- the ---- --- -- ----------,238806,238936,238336,238328,238352,238836,,49,the
screen,html.Screen,2_3_1_0_1_50,2022-05-02T12:44:34.175Z,,,,,,,,,,,,,,,,,51,,,,,,,,,,,,,,437,,response,,,,13,G,,,,,,Space,keypress(Space),,,,instrumental,,,,-------- -------- --- --- ---- --- --- ------ -- --------<br>---- --------- --- ------- ------------ ---------- ---------<br>--- ---------- ------- ---------- ------- -- -------- ----<br>---- --- ------ ----- ------ -- ---- --- ----- -- - -------<br>-------- -- --- --- -- ----- ----------- ----- -----------<br>---- --- ---------- --- life --- -- ----------,239127,239256,238819,238807.00000000003,238836,239152,,50,life
screen,html.Screen,2_3_1_0_1_51,2022-05-02T12:44:34.513Z,,,,,,,,,,,,,,,,,51,,,,,,,,,,,,,,460,,response,,,,13,G,,,,,,Space,keypress(Space),,,,instrumental,,,,-------- -------- --- --- ---- --- --- ------ -- --------<br>---- --------- --- ------- ------------ ---------- ---------<br>--- ---------- ------- ---------- ------- -- -------- ----<br>---- --- ------ ----- ------ -- ---- --- ----- -- - -------<br>-------- -- --- --- -- ----- ----------- ----- -----------<br>---- --- ---------- --- ---- out -- ----------,239465,239595,239135,239127,239152,239486,,51,out
screen,html.Screen,2_3_1_0_1_52,2022-05-02T12:44:34.939Z,,,,,,,,,,,,,,,,,51,,,,,,,,,,,,,,551,,response,,,,13,G,,,,,,Space,keypress(Space),,,,instrumental,,,,-------- -------- --- --- ---- --- --- ------ -- --------<br>---- --------- --- ------- ------------ ---------- ---------<br>--- ---------- ------- ---------- ------- -- -------- ----<br>---- --- ------ ----- ------ -- ---- --- ----- -- - -------<br>-------- -- --- --- -- ----- ----------- ----- -----------<br>---- --- ---------- --- ---- --- of ----------,239891,240020,239469,239466,239486,239919,,52,of
screen,html.Screen,2_3_1_0_1_53,2022-05-02T12:44:35.423Z,,,,,,,,,,,,,,,,,51,,,,,,,,,,,,,,603,,response,,,,13,G,,,,,,Space,keypress(Space),,,,instrumental,,,,-------- -------- --- --- ---- --- --- ------ -- --------<br>---- --------- --- ------- ------------ ---------- ---------<br>--- ---------- ------- ---------- ------- -- -------- ----<br>---- --- ------ ----- ------ -- ---- --- ----- -- - -------<br>-------- -- --- --- -- ----- ----------- ----- -----------<br>---- --- ---------- --- ---- --- -- companies.,240375,240505,239902,239891,239919,240401,,53,companies.
Item 13,flow.Loop,2_3_1_0_1,2022-05-02T12:44:35.424Z,,,,,,,,,,,,,,,,,,,,,,,,,,,,,,,25385,,completion,,,,,,,,,,,,,,,,,,,,,240376,240505,215102,215103,215120,240401,,,
Question 1,html.Screen,2_3_1_0_2,2022-05-02T12:44:40.308Z,,,,,,,,,,,,,,,,,,,,,,,,,,,,true,FALSE,,5001,,response,,,,13,G,,,,,,FALSE,click #choice-2,,,,instrumental,,,,,245260,245386,240385,240377,240401,245285,,,
Question 2,html.Screen,2_3_1_0_3,2022-05-02T12:44:43.924Z,,,,,,,,,,,,,,,,,,,,,,,,,,,,true,TRUE,,3731,,response,,,,13,G,,,,,,TRUE,click #choice-1,,,,instrumental,,,,,248876,249003,245272,245261,245285,248902,,,
Item 13,flow.Sequence,2_3_1_0,2022-05-02T12:44:43.925Z,,,,,,,,,,,,,,,,,,,,,,,,,,,,,,,40885,,completion,,,,,,,,,,,,,,,,,,,,,248877,249003,208101,208103,208118,248902,,,
Holding screen,html.Screen,2_3_1_1_0,2022-05-02T12:44:50.935Z,,,,,,,,,,,,,,,,,,,,,,,,,,,,,,,7001,,timeout,,,,,,,,,,,,,,,,,,,,,255888,255887,248888,248877,248902,255903,,,
