sender,sender_type,sender_id,timestamp,meta,,Blues,Classical,Country,Dance,Electronic,Folk,Gospel,Hip-Hop,Jazz,Latin,Musical/Film,New-age,Pop,Provo_ID,R&B,Rap,Reggae,Religious,Rock,Soul,Swing,Traditional,age,artist_name,correct,correctResponse,distraction,duration,education,ended_on,familiarity,gender,headphone_check_performance,item,list,music_frequency,offensiveness,pleasantness,position_correct,preference,response,response_action,snippet_file,song_name,song_rating,sound,stimulus_1,stimulus_2,stimulus_3,text,time_commit,time_end,time_render,time_run,time_show,time_switch,url,word,word_ID
Introduction,html.Screen,0_0,2021-04-19T10:27:53.914Z,"{""labjs_version"":""20.2.2"",""labjs_build"":{""flavor"":""production"",""commit"":""a25486e0c714a0ae2ce03ff94b7bb6896854dcfa""},""location"":""https://run.pavlovia.org/mvasilev/music_f/"",""userAgent"":""Mozilla/5.0 (Macintosh; Intel Mac OS X 10_15_5) AppleWebKit/537.36 (KHTML, like Gecko) Chrome/89.0.4389.114 Safari/537.36"",""platform"":""MacIntel"",""language"":""en-GB"",""locale"":""en-GB"",""timeZone"":""Europe/London"",""timezoneOffset"":-60,""screen_width"":1440,""screen_height"":900,""scroll_width"":1440,""scroll_height"":684,""window_innerWidth"":1440,""window_innerHeight"":732,""devicePixelRatio"":2}",,,,,,,,,,,,,,,,,,,,,,,,,,,,,4964.872000023935,,response,,,,,,,,,,,continue,click button,,,,,,,,,12556.09500000719,12553.200000023935,7554.996,7568.170000042301,7588.328,12558.192,{},,
Volume calibration,html.Screen,0_1,2021-04-19T10:28:23.754Z,,,,,,,,,,,,,,,,,,,,,,,,,,,,,,29829.4530000098,,response,,,,,,,,,,,continue,click button,,,,,,,,,42396.39500004705,42387.6450000098,12541.526,12556.350000028033,12558.192,42407.249,,,
Task instructions,html.Screen,0_2,2021-04-19T10:28:44.023Z,,,,,,,,,,,,,,,,,,,,,,,,,,,,,,20256.781000043564,,response,,,,,,,,,,,continue,click button,,,,,,,,,62666.24000004958,62664.03000004357,42390.583,42400.90000000782,42407.249,62674.023,,,
Sounds,html.Screen,0_3_0_0,2021-04-19T10:28:48.269Z,,,,,,,,,,,,,,,,,,,,,,,,,,,,,,4249.830000000002,,timeout,,,,,,,,,3,,,,,,,,O,I,S,,66913.06500002975,66907.187,62657.357,62666.59500001697,62674.023,66923.853,,,
Judgement,html.Screen,0_3_0_1,2021-04-19T10:28:49.548Z,,,,,,,,,,,,,,,,,,,,,,,,,,,true,3,,1263.9120000387775,,response,,,,,,,,,3,,3,click #choice-3,,,,,O,I,S,,68191.47000001976,68187.76500003878,66907.187,66913.30500005279,66923.853,68207.135,,,
Trial,flow.Sequence,0_3_0,2021-04-19T10:28:49.548Z,,,,,,,,,,,,,,,,,,,,,,,,,,,,,,5513.742000038779,,completion,,,,,,,,,3,,,,,,,,O,I,S,,68191.82000000728,68187.76500003878,62657.357,62666.530000045896,62674.023,68207.135,,,
Sounds,html.Screen,0_3_1_0,2021-04-19T10:28:53.799Z,,,,,,,,,,,,,,,,,,,,,,,,,,,,,,4249.830000000002,,timeout,,,,,,,,,3,,,,,,,,I,O,S,,72442.68000003649,72440.299,68190.469,68191.95000000764,68207.135,72456.965,,,
Judgement,html.Screen,0_3_1_1,2021-04-19T10:28:55.853Z,,,,,,,,,,,,,,,,,,,,,,,,,,,true,3,,2024.3350000431237,,response,,,,,,,,,3,,3,click #choice-3,,,,,I,O,S,,74496.93500000285,74481.30000004312,72440.299,72442.99000001047,72456.965,74517.962,,,
Trial,flow.Sequence,0_3_1,2021-04-19T10:28:55.853Z,,,,,,,,,,,,,,,,,,,,,,,,,,,,,,6274.1650000431255,,completion,,,,,,,,,3,,,,,,,,I,O,S,,74497.29000002844,74481.30000004312,68190.469,68191.9100000523,68207.135,74517.962,,,
Sounds,html.Screen,0_3_2_0,2021-04-19T10:29:00.110Z,,,,,,,,,,,,,,,,,,,,,,,,,,,,,,4249.830000000002,,timeout,,,,,,,,,1,,,,,,,,S,I,O,,78753.65500000771,78751.126,74501.296,74497.49000003794,74517.962,78767.792,,,
Judgement,html.Screen,0_3_2_1,2021-04-19T10:29:00.950Z,,,,,,,,,,,,,,,,,,,,,,,,,,,true,1,,824.3130000470119,,response,,,,,,,,,1,,1,click #choice-1,,,,,S,I,O,,79594.3800000241,79592.10500004701,78751.126,78753.77000001026,78767.792,79601.092,,,
Trial,flow.Sequence,0_3_2,2021-04-19T10:29:00.951Z,,,,,,,,,,,,,,,,,,,,,,,,,,,,,,5074.143000047014,,completion,,,,,,,,,1,,,,,,,,S,I,O,,79594.74500000942,79592.10500004701,74501.296,74497.42500000866,74517.962,79601.092,,,
Sounds,html.Screen,0_3_3_0,2021-04-19T10:29:05.193Z,,,,,,,,,,,,,,,,,,,,,,,,,,,,,,4249.830000000002,,timeout,,,,,,,,,2,,,,,,,,I,S,O,,83837.10000000428,83834.256,79584.426,79594.91500002332,79601.092,83850.922,,,
Judgement,html.Screen,0_3_3_1,2021-04-19T10:29:05.964Z,,,,,,,,,,,,,,,,,,,,,,,,,,,true,2,,753.9030000458151,,response,,,,,,,,,2,,2,click #choice-2,,,,,I,S,O,,84608.61000005389,84604.82500004582,83834.256,83837.36500004306,83850.922,84624.125,,,
Trial,flow.Sequence,0_3_3,2021-04-19T10:29:05.965Z,,,,,,,,,,,,,,,,,,,,,,,,,,,,,,5003.733000045817,,completion,,,,,,,,,2,,,,,,,,I,S,O,,84608.90500003006,84604.82500004582,79584.426,79594.85500003211,79601.092,84624.125,,,
Sounds,html.Screen,0_3_4_0,2021-04-19T10:29:10.215Z,,,,,,,,,,,,,,,,,,,,,,,,,,,,,,4249.830000000002,,timeout,,,,,,,,,2,,,,,,,,O,S,I,,88859.20500004431,88857.289,84607.459,84609.08000002382,84624.125,88873.955,,,
Judgement,html.Screen,0_3_4_1,2021-04-19T10:29:10.641Z,,,,,,,,,,,,,,,,,,,,,,,,,,,true,2,,409.72000001331617,,response,,,,,,,,,2,,2,click #choice-2,,,,,O,S,I,,89285.46500002267,89283.67500001332,88857.289,88859.35500002233,88873.955,89290.605,,,
Trial,flow.Sequence,0_3_4,2021-04-19T10:29:10.641Z,,,,,,,,,,,,,,,,,,,,,,,,,,,,,,4659.550000013318,,completion,,,,,,,,,2,,,,,,,,O,S,I,,89285.72500002338,89283.67500001332,84607.459,84609.02500001248,84624.125,89290.605,,,
Sounds,html.Screen,0_3_5_0,2021-04-19T10:29:14.881Z,,,,,,,,,,,,,,,,,,,,,,,,,,,,,,4249.830000000002,,timeout,,,,,,,,,1,,,,,,,,S,O,I,,93525.9650000371,93523.769,89273.939,89285.81500001019,89290.605,93540.435,,,
Judgement,html.Screen,0_3_5_1,2021-04-19T10:29:15.572Z,,,,,,,,,,,,,,,,,,,,,,,,,,,true,1,,674.9650000446127,,response,,,,,,,,,1,,1,click #choice-1,,,,,S,O,I,,94217.01000002213,94215.40000004461,93523.769,93526.14500001073,93540.435,94221.183,,,
Trial,flow.Sequence,0_3_5,2021-04-19T10:29:15.573Z,,,,,,,,,,,,,,,,,,,,,,,,,,,,,,4924.795000044614,,completion,,,,,,,,,1,,,,,,,,S,O,I,,94217.22000004956,94215.40000004461,89273.939,89285.79000005266,89290.605,94221.183,,,
Task,flow.Loop,0_3,2021-04-19T10:29:15.576Z,,,,,,,,,,,,,,,,,,,,,,,,,,,,,,31541.37700004461,,completion,,,1,,,,,,,,,,,,,,,,,,94220.63000005437,94215.40000004461,62657.357,62666.47000005469,62674.023,94221.183,,,
Trap,html.Screen,0_4,2021-04-19T10:29:15.579Z,,,,,,,,,,,,,,,,,,,,,,,,,,,,,,NaN,,skipped,,,,,,,,,,,,,,,,,,,,,94223.44000003068,94215.40000004461,,94223.26500003692,,94221.183,,,
Thanks,html.Screen,0_5,2021-04-19T10:29:21.232Z,,,,,,,,,,,,,,,,,,,,,,,,,,,,,,5651.657000025458,,response,,,,,,,,,,,continue,click button,,,,,,,,,99877.28000001516,99872.84000002546,94204.517,94223.53500005556,94221.183,115218.528,,,
Headphone screening,flow.Sequence,0,2021-04-19T10:29:21.233Z,,,,,,,,,,,,,,,,,,,,,,,,,,,,,,92284.51200002547,,completion,,,,,,,,,,,,,,,,,,,,,99877.71500000963,99872.84000002546,7554.996,7568.145000026561,7588.328,115218.528,,,
Instructions,html.Page,1_0,2021-04-19T10:29:59.894Z,,,,,,,,,,,,,,,,,,,,,,,,,,,,,,23321.307000003217,,form submission,,,,,,,,,,,,,,,,,,,,,138540.05000001052,138539.83500000322,115201.862,115215.88500001235,115218.528,138537.801,,,
Holding screen,html.Screen,1_1_0_0,2021-04-19T10:30:09.875Z,,,,,,,,,,,,,,,,,,,,,,,,,,,,,,9999.600000000006,,timeout,,,,,,,,,,,,,,,,,,,,,148522.01000001514,148520.735,138521.135,138540.20000004675,138537.801,148537.401,,,
screen,html.Screen,1_1_0_1_0,2021-04-19T10:30:11.256Z,,,,,,,,,,,,,,,,53,,,,,,,,,,,,,,1360.599000044691,,response,,,,99,,,,,,,Space,keypress(Space),,,,,,,,When -- ----- -- ------ - ------- --- ----------<br>------------- ------ ------ ---- ---- ------- ----- -- ----<br>-------- ------- -- ---------- --- - --- ----- ----- ----<br>---- --- --- ----- --- ---- ---- ------- ----- ---- -------<br>--- --- -- ----- -- --- ---- -- --- ---- -- ------ ------<br>--- ----- -- ----,149902.5650000549,149898.0000000447,148520.735,148522.26000005612,148537.401,149904.013,,0,When
screen,html.Screen,1_1_0_1_1,2021-04-19T10:30:11.998Z,,,,,,,,,,,,,,,,53,,,,,,,,,,,,,,737.8420000525948,,response,,,,99,,,,,,,Space,keypress(Space),,,,,,,,---- it ----- -- ------ - ------- --- ----------<br>------------- ------ ------ ---- ---- ------- ----- -- ----<br>-------- ------- -- ---------- --- - --- ----- ----- ----<br>---- --- --- ----- --- ---- ---- ------- ----- ---- -------<br>--- --- -- ----- -- --- ---- -- --- ---- -- ------ ------<br>--- ----- -- ----,150644.895000034,150641.8550000526,149887.347,149902.67999999924,149904.013,150658.407,,1,it
screen,html.Screen,1_1_0_1_2,2021-04-19T10:30:12.724Z,,,,,,,,,,,,,,,,53,,,,,,,,,,,,,,709.4080000050599,,response,,,,99,,,,,,,Space,keypress(Space),,,,,,,,---- -- comes -- ------ - ------- --- ----------<br>------------- ------ ------ ---- ---- ------- ----- -- ----<br>-------- ------- -- ---------- --- - --- ----- ----- ----<br>---- --- --- ----- --- ---- ---- ------- ----- ---- -------<br>--- --- -- ----- -- --- ---- -- --- ---- -- ------ ------<br>--- ----- -- ----,151370.98500004504,151367.81500000507,150641.741,150645.02500003437,150658.407,151375.045,,2,comes
screen,html.Screen,1_1_0_1_3,2021-04-19T10:30:13.130Z,,,,,,,,,,,,,,,,53,,,,,,,,,,,,,,397.7450000172539,,response,,,,99,,,,,,,Space,keypress(Space),,,,,,,,---- -- ----- to ------ - ------- --- ----------<br>------------- ------ ------ ---- ---- ------- ----- -- ----<br>-------- ------- -- ---------- --- - --- ----- ----- ----<br>---- --- --- ----- --- ---- ---- ------- ----- ---- -------<br>--- --- -- ----- -- --- ---- -- --- ---- -- ------ ------<br>--- ----- -- ----,151776.5650000074,151772.79000001727,151358.379,151371.1150000454,151375.045,151791.695,,3,to
screen,html.Screen,1_1_0_1_4,2021-04-19T10:30:13.717Z,,,,,,,,,,,,,,,,53,,,,,,,,,,,,,,568.1250000123982,,response,,,,99,,,,,,,Space,keypress(Space),,,,,,,,---- -- ----- -- having - ------- --- ----------<br>------------- ------ ------ ---- ---- ------- ----- -- ----<br>-------- ------- -- ---------- --- - --- ----- ----- ----<br>---- --- --- ----- --- ---- ---- ------- ----- ---- -------<br>--- --- -- ----- -- --- ---- -- --- ---- -- ------ ------<br>--- ----- -- ----,152363.955000008,152359.8200000124,151775.029,151776.7500000191,151791.695,152375.005,,4,having
screen,html.Screen,1_1_0_1_5,2021-04-19T10:30:14.164Z,,,,,,,,,,,,,,,,53,,,,,,,,,,,,,,430.81000002881046,,response,,,,99,,,,,,,Space,keypress(Space),,,,,,,,---- -- ----- -- ------ a ------- --- ----------<br>------------- ------ ------ ---- ---- ------- ----- -- ----<br>-------- ------- -- ---------- --- - --- ----- ----- ----<br>---- --- --- ----- --- ---- ---- ------- ----- ---- -------<br>--- --- -- ----- -- --- ---- -- --- ---- -- ------ ------<br>--- ----- -- ----,152810.48500002362,152805.81500002882,152358.339,152365.24000001373,152375.005,152824.987,,5,a
screen,html.Screen,1_1_0_1_6,2021-04-19T10:30:14.700Z,,,,,,,,,,,,,,,,53,,,,,,,,,,,,,,516.6680000547494,,response,,,,99,,,,,,,Space,keypress(Space),,,,,,,,---- -- ----- -- ------ - lasting --- ----------<br>------------- ------ ------ ---- ---- ------- ----- -- ----<br>-------- ------- -- ---------- --- - --- ----- ----- ----<br>---- --- --- ----- --- ---- ---- ------- ----- ---- -------<br>--- --- -- ----- -- --- ---- -- --- ---- -- ------ ------<br>--- ----- -- ----,153346.30500001367,153341.65500005474,152808.321,152810.67500001518,152824.987,153358.299,,6,lasting
screen,html.Screen,1_1_0_1_7,2021-04-19T10:30:15.252Z,,,,,,,,,,,,,,,,53,,,,,,,,,,,,,,537.4710000028135,,response,,,,99,,,,,,,Space,keypress(Space),,,,,,,,---- -- ----- -- ------ - ------- and ----------<br>------------- ------ ------ ---- ---- ------- ----- -- ----<br>-------- ------- -- ---------- --- - --- ----- ----- ----<br>---- --- --- ----- --- ---- ---- ------- ----- ---- -------<br>--- --- -- ----- -- --- ---- -- --- ---- -- ------ ------<br>--- ----- -- ----,153898.6150000128,153895.7700000028,153341.633,153346.4850000455,153358.299,153908.277,,7,and
screen,html.Screen,1_1_0_1_8,2021-04-19T10:30:15.792Z,,,,,,,,,,,,,,,,53,,,,,,,,,,,,,,526.5480000039097,,response,,,,99,,,,,,,Space,keypress(Space),,,,,,,,---- -- ----- -- ------ - ------- --- fulfilling<br>------------- ------ ------ ---- ---- ------- ----- -- ----<br>-------- ------- -- ---------- --- - --- ----- ----- ----<br>---- --- --- ----- --- ---- ---- ------- ----- ---- -------<br>--- --- -- ----- -- --- ---- -- --- ---- -- ------ ------<br>--- ----- -- ----,154438.30500001786,154434.8250000039,153891.611,153898.7550000311,153908.277,154441.589,,8,fulfilling
screen,html.Screen,1_1_0_1_9,2021-04-19T10:30:16.310Z,,,,,,,,,,,,,,,,53,,,,,,,,,,,,,,511.33600004870095,,response,,,,99,,,,,,,Space,keypress(Space),,,,,,,,"---- -- ----- -- ------ - ------- --- ----------<br>relationship, ------ ------ ---- ---- ------- ----- -- ----<br>-------- ------- -- ---------- --- - --- ----- ----- ----<br>---- --- --- ----- --- ---- ---- ------- ----- ---- -------<br>--- --- -- ----- -- --- ---- -- --- ---- -- ------ ------<br>--- ----- -- ----",154956.65000000736,154952.9250000487,154424.923,154438.43500001822,154441.589,154958.235,,9,"relationship,"
screen,html.Screen,1_1_0_1_10,2021-04-19T10:30:16.973Z,,,,,,,,,,,,,,,,53,,,,,,,,,,,,,,656.435000039055,,response,,,,99,,,,,,,Space,keypress(Space),,,,,,,,---- -- ----- -- ------ - ------- --- ----------<br>------------- common ------ ---- ---- ------- ----- -- ----<br>-------- ------- -- ---------- --- - --- ----- ----- ----<br>---- --- --- ----- --- ---- ---- ------- ----- ---- -------<br>--- --- -- ----- -- --- ---- -- --- ---- -- ------ ------<br>--- ----- -- ----,155619.3450000137,155614.67000003904,154941.569,154956.8150000414,154958.235,155624.875,,10,common
screen,html.Screen,1_1_0_1_11,2021-04-19T10:30:17.438Z,,,,,,,,,,,,,,,,53,,,,,,,,,,,,,,454.92000002693385,,response,,,,99,,,,,,,Space,keypress(Space),,,,,,,,---- -- ----- -- ------ - ------- --- ----------<br>------------- ------ wisdom ---- ---- ------- ----- -- ----<br>-------- ------- -- ---------- --- - --- ----- ----- ----<br>---- --- --- ----- --- ---- ---- ------- ----- ---- -------<br>--- --- -- ----- -- --- ---- -- --- ---- -- ------ ------<br>--- ----- -- ----,156085.19000001252,156079.79500002693,155608.209,155619.6550000459,155624.875,156091.523,,11,wisdom
screen,html.Screen,1_1_0_1_12,2021-04-19T10:30:17.937Z,,,,,,,,,,,,,,,,53,,,,,,,,,,,,,,488.2220000536763,,response,,,,99,,,,,,,Space,keypress(Space),,,,,,,,---- -- ----- -- ------ - ------- --- ----------<br>------------- ------ ------ says ---- ------- ----- -- ----<br>-------- ------- -- ---------- --- - --- ----- ----- ----<br>---- --- --- ----- --- ---- ---- ------- ----- ---- -------<br>--- --- -- ----- -- --- ---- -- --- ---- -- ------ ------<br>--- ----- -- ----,156584.0100000496,156579.74500005366,156074.857,156085.40500001982,156091.523,156591.503,,12,says
screen,html.Screen,1_1_0_1_13,2021-04-19T10:30:18.363Z,,,,,,,,,,,,,,,,53,,,,,,,,,,,,,,414.2470000111789,,response,,,,99,,,,,,,Space,keypress(Space),,,,,,,,---- -- ----- -- ------ - ------- --- ----------<br>------------- ------ ------ ---- that ------- ----- -- ----<br>-------- ------- -- ---------- --- - --- ----- ----- ----<br>---- --- --- ----- --- ---- ---- ------- ----- ---- -------<br>--- --- -- ----- -- --- ---- -- --- ---- -- ------ ------<br>--- ----- -- ----,157009.38500004122,157005.75000001118,156574.837,156584.1950000031,156591.503,157024.819,,13,that
screen,html.Screen,1_1_0_1_14,2021-04-19T10:30:18.822Z,,,,,,,,,,,,,,,,53,,,,,,,,,,,,,,440.00100005199783,,response,,,,99,,,,,,,Space,keypress(Space),,,,,,,,---- -- ----- -- ------ - ------- --- ----------<br>------------- ------ ------ ---- ---- feeling ----- -- ----<br>-------- ------- -- ---------- --- - --- ----- ----- ----<br>---- --- --- ----- --- ---- ---- ------- ----- ---- -------<br>--- --- -- ----- -- --- ---- -- --- ---- -- ------ ------<br>--- ----- -- ----,157469.0900000278,157464.820000052,157008.153,157009.5399999991,157024.819,157474.801,,14,feeling
screen,html.Screen,1_1_0_1_15,2021-04-19T10:30:19.300Z,,,,,,,,,,,,,,,,53,,,,,,,,,,,,,,467.9940000390343,,response,,,,99,,,,,,,Space,keypress(Space),,,,,,,,---- -- ----- -- ------ - ------- --- ----------<br>------------- ------ ------ ---- ---- ------- close -- ----<br>-------- ------- -- ---------- --- - --- ----- ----- ----<br>---- --- --- ----- --- ---- ---- ------- ----- ---- -------<br>--- --- -- ----- -- --- ---- -- --- ---- -- ------ ------<br>--- ----- -- ----,157947.20500003314,157942.79500003904,157458.135,157469.27000000142,157474.801,157958.115,,15,close
screen,html.Screen,1_1_0_1_16,2021-04-19T10:30:19.693Z,,,,,,,,,,,,,,,,53,,,,,,,,,,,,,,378.2350000559818,,response,,,,99,,,,,,,Space,keypress(Space),,,,,,,,---- -- ----- -- ------ - ------- --- ----------<br>------------- ------ ------ ---- ---- ------- ----- to ----<br>-------- ------- -- ---------- --- - --- ----- ----- ----<br>---- --- --- ----- --- ---- ---- ------- ----- ---- -------<br>--- --- -- ----- -- --- ---- -- --- ---- -- ------ ------<br>--- ----- -- ----,158340.19000001717,158336.35000005597,157941.449,157947.39000004483,157958.115,158341.433,,16,to
screen,html.Screen,1_1_0_1_17,2021-04-19T10:30:20.133Z,,,,,,,,,,,,,,,,53,,,,,,,,,,,,,,434.3270000477496,,response,,,,99,,,,,,,Space,keypress(Space),,,,,,,,---- -- ----- -- ------ - ------- --- ----------<br>------------- ------ ------ ---- ---- ------- ----- -- your<br>-------- ------- -- ---------- --- - --- ----- ----- ----<br>---- --- --- ----- --- ---- ---- ------- ----- ---- -------<br>--- --- -- ----- -- --- ---- -- --- ---- -- ------ ------<br>--- ----- -- ----,158780.3600000334,158775.76000004774,158324.767,158340.35000001313,158341.433,158791.415,,17,your
screen,html.Screen,1_1_0_1_18,2021-04-19T10:30:20.663Z,,,,,,,,,,,,,,,,53,,,,,,,,,,,,,,516.2550000092306,,response,,,,99,,,,,,,Space,keypress(Space),,,,,,,,---- -- ----- -- ------ - ------- --- ----------<br>------------- ------ ------ ---- ---- ------- ----- -- ----<br>romantic ------- -- ---------- --- - --- ----- ----- ----<br>---- --- --- ----- --- ---- ---- ------- ----- ---- -------<br>--- --- -- ----- -- --- ---- -- --- ---- -- ------ ------<br>--- ----- -- ----,159310.10000000242,159307.67000000924,158774.749,158780.55500000482,158791.415,159324.727,,18,romantic
screen,html.Screen,1_1_0_1_19,2021-04-19T10:30:21.088Z,,,,,,,,,,,,,,,,53,,,,,,,,,,,,,,406.923000030627,,response,,,,99,,,,,,,Space,keypress(Space),,,,,,,,---- -- ----- -- ------ - ------- --- ----------<br>------------- ------ ------ ---- ---- ------- ----- -- ----<br>-------- partner -- ---------- --- - --- ----- ----- ----<br>---- --- --- ----- --- ---- ---- ------- ----- ---- -------<br>--- --- -- ----- -- --- ---- -- --- ---- -- ------ ------<br>--- ----- -- ----,159735.18000001786,159731.65000003064,159308.061,159310.1950000273,159324.727,159740.261,,19,partner
screen,html.Screen,1_1_0_1_20,2021-04-19T10:30:21.571Z,,,,,,,,,,,,,,,,53,,,,,,,,,,,,,,471.38900001201546,,response,,,,99,,,,,,,Space,keypress(Space),,,,,,,,---- -- ----- -- ------ - ------- --- ----------<br>------------- ------ ------ ---- ---- ------- ----- -- ----<br>-------- ------- is ---------- --- - --- ----- ----- ----<br>---- --- --- ----- --- ---- ---- ------- ----- ---- -------<br>--- --- -- ----- -- --- ---- -- --- ---- -- ------ ------<br>--- ----- -- ----,160218.0750000407,160211.650000012,159723.595,159735.30500003835,159740.261,160223.575,,20,is
screen,html.Screen,1_1_0_1_21,2021-04-19T10:30:22.227Z,,,,,,,,,,,,,,,,53,,,,,,,,,,,,,,646.3150000308524,,response,,,,99,,,,,,,Space,keypress(Space),,,,,,,,---- -- ----- -- ------ - ------- --- ----------<br>------------- ------ ------ ---- ---- ------- ----- -- ----<br>-------- ------- -- paramount. --- - --- ----- ----- ----<br>---- --- --- ----- --- ---- ---- ------- ----- ---- -------<br>--- --- -- ----- -- --- ---- -- --- ---- -- ------ ------<br>--- ----- -- ----,160874.06000000192,160869.89000003086,160206.909,160218.2600000524,160223.575,160890.215,,21,paramount.
screen,html.Screen,1_1_0_1_22,2021-04-19T10:30:22.843Z,,,,,,,,,,,,,,,,53,,,,,,,,,,,,,,594.4450000164506,,response,,,,99,,,,,,,Space,keypress(Space),,,,,,,,---- -- ----- -- ------ - ------- --- ----------<br>------------- ------ ------ ---- ---- ------- ----- -- ----<br>-------- ------- -- ---------- But - --- ----- ----- ----<br>---- --- --- ----- --- ---- ---- ------- ----- ---- -------<br>--- --- -- ----- -- --- ---- -- --- ---- -- ------ ------<br>--- ----- -- ----,161490.37000001408,161484.66000001645,160873.549,160874.22500003595,160890.215,161506.857,,22,But
screen,html.Screen,1_1_0_1_23,2021-04-19T10:30:23.280Z,,,,,,,,,,,,,,,,53,,,,,,,,,,,,,,417.75300004551536,,response,,,,99,,,,,,,Space,keypress(Space),,,,,,,,---- -- ----- -- ------ - ------- --- ----------<br>------------- ------ ------ ---- ---- ------- ----- -- ----<br>-------- ------- -- ---------- --- a --- ----- ----- ----<br>---- --- --- ----- --- ---- ---- ------- ----- ---- -------<br>--- --- -- ----- -- --- ---- -- --- ---- -- ------ ------<br>--- ----- -- ----,161927.09500005003,161924.6100000455,161490.191,161490.62000005506,161506.857,161940.173,,23,a
screen,html.Screen,1_1_0_1_24,2021-04-19T10:30:23.668Z,,,,,,,,,,,,,,,,53,,,,,,,,,,,,,,369.5220000035479,,response,,,,99,,,,,,,Space,keypress(Space),,,,,,,,---- -- ----- -- ------ - ------- --- ----------<br>------------- ------ ------ ---- ---- ------- ----- -- ----<br>-------- ------- -- ---------- --- - new ----- ----- ----<br>---- --- --- ----- --- ---- ---- ------- ----- ---- -------<br>--- --- -- ----- -- --- ---- -- --- ---- -- ------ ------<br>--- ----- -- ----,162315.18500001403,162309.69500000356,161923.507,161927.20000003465,161940.173,162323.491,,24,new
screen,html.Screen,1_1_0_1_25,2021-04-19T10:30:24.089Z,,,,,,,,,,,,,,,,53,,,,,,,,,,,,,,409.04900005544187,,response,,,,99,,,,,,,Space,keypress(Space),,,,,,,,---- -- ----- -- ------ - ------- --- ----------<br>------------- ------ ------ ---- ---- ------- ----- -- ----<br>-------- ------- -- ---------- --- - --- study ----- ----<br>---- --- --- ----- --- ---- ---- ------- ----- ---- -------<br>--- --- -- ----- -- --- ---- -- --- ---- -- ------ ------<br>--- ----- -- ----,162736.3400000031,162732.54000005545,162306.825,162315.3750000056,162323.491,162740.141,,25,study
screen,html.Screen,1_1_0_1_26,2021-04-19T10:30:24.503Z,,,,,,,,,,,,,,,,53,,,,,,,,,,,,,,405.35400000429945,,response,,,,99,,,,,,,Space,keypress(Space),,,,,,,,---- -- ----- -- ------ - ------- --- ----------<br>------------- ------ ------ ---- ---- ------- ----- -- ----<br>-------- ------- -- ---------- --- - --- ----- finds ----<br>---- --- --- ----- --- ---- ---- ------- ----- ---- -------<br>--- --- -- ----- -- --- ---- -- --- ---- -- ------ ------<br>--- ----- -- ----,163150.00500000315,163145.4950000043,162723.475,162736.50500003714,162740.141,163156.791,,26,finds
screen,html.Screen,1_1_0_1_27,2021-04-19T10:30:24.875Z,,,,,,,,,,,,,,,,53,,,,,,,,,,,,,,362.5940000505361,,response,,,,99,,,,,,,Space,keypress(Space),,,,,,,,---- -- ----- -- ------ - ------- --- ----------<br>------------- ------ ------ ---- ---- ------- ----- -- ----<br>-------- ------- -- ---------- --- - --- ----- ----- that<br>---- --- --- ----- --- ---- ---- ------- ----- ---- -------<br>--- --- -- ----- -- --- ---- -- --- ---- -- ------ ------<br>--- ----- -- ----,163522.48500002315,163519.38500005053,163140.125,163150.18500003498,163156.791,163523.443,,27,that
screen,html.Screen,1_1_0_1_28,2021-04-19T10:30:25.313Z,,,,,,,,,,,,,,,,53,,,,,,,,,,,,,,434.0870000142313,,response,,,,99,,,,,,,Space,keypress(Space),,,,,,,,---- -- ----- -- ------ - ------- --- ----------<br>------------- ------ ------ ---- ---- ------- ----- -- ----<br>-------- ------- -- ---------- --- - --- ----- ----- ----<br>it's --- --- ----- --- ---- ---- ------- ----- ---- -------<br>--- --- -- ----- -- --- ---- -- --- ---- -- ------ ------<br>--- ----- -- ----,163960.11000004364,163957.53000001423,163506.777,163522.58000004804,163523.443,163973.425,,28,it's
screen,html.Screen,1_1_0_1_29,2021-04-19T10:30:25.722Z,,,,,,,,,,,,,,,,53,,,,,,,,,,,,,,382.1300000164774,,response,,,,99,,,,,,,Space,keypress(Space),,,,,,,,---- -- ----- -- ------ - ------- --- ----------<br>------------- ------ ------ ---- ---- ------- ----- -- ----<br>-------- ------- -- ---------- --- - --- ----- ----- ----<br>---- not --- ----- --- ---- ---- ------- ----- ---- -------<br>--- --- -- ----- -- --- ---- -- --- ---- -- ------ ------<br>--- ----- -- ----,164368.85000002803,164355.55500001647,163956.759,163960.23500000592,163973.425,164373.409,,29,not
screen,html.Screen,1_1_0_1_30,2021-04-19T10:30:26.176Z,,,,,,,,,,,,,,,,53,,,,,,,,,,,,,,446.94600003256346,,response,,,,99,,,,,,,Space,keypress(Space),,,,,,,,---- -- ----- -- ------ - ------- --- ----------<br>------------- ------ ------ ---- ---- ------- ----- -- ----<br>-------- ------- -- ---------- --- - --- ----- ----- ----<br>---- --- how ----- --- ---- ---- ------- ----- ---- -------<br>--- --- -- ----- -- --- ---- -- --- ---- -- ------ ------<br>--- ----- -- ----,164823.29000002937,164820.35500003258,164356.743,164368.97000001045,164373.409,164840.057,,30,how
screen,html.Screen,1_1_0_1_31,2021-04-19T10:30:26.651Z,,,,,,,,,,,,,,,,53,,,,,,,,,,,,,,455.4080000319809,,response,,,,99,,,,,,,Space,keypress(Space),,,,,,,,---- -- ----- -- ------ - ------- --- ----------<br>------------- ------ ------ ---- ---- ------- ----- -- ----<br>-------- ------- -- ---------- --- - --- ----- ----- ----<br>---- --- --- close --- ---- ---- ------- ----- ---- -------<br>--- --- -- ----- -- --- ---- -- --- ---- -- ------ ------<br>--- ----- -- ----,165298.060000001,165295.46500003198,164823.391,164823.4250000096,164840.057,165306.705,,31,close
screen,html.Screen,1_1_0_1_32,2021-04-19T10:30:27.167Z,,,,,,,,,,,,,,,,53,,,,,,,,,,,,,,500.7200000063458,,response,,,,99,,,,,,,Space,keypress(Space),,,,,,,,---- -- ----- -- ------ - ------- --- ----------<br>------------- ------ ------ ---- ---- ------- ----- -- ----<br>-------- ------- -- ---------- --- - --- ----- ----- ----<br>---- --- --- ----- you ---- ---- ------- ----- ---- -------<br>--- --- -- ----- -- --- ---- -- --- ---- -- ------ ------<br>--- ----- -- ----,165813.76500002807,165807.42500000633,165290.039,165298.17500000354,165306.705,165823.351,,32,you
screen,html.Screen,1_1_0_1_33,2021-04-19T10:30:27.646Z,,,,,,,,,,,,,,,,53,,,,,,,,,,,,,,467.1190000071947,,response,,,,99,,,,,,,Space,keypress(Space),,,,,,,,---- -- ----- -- ------ - ------- --- ----------<br>------------- ------ ------ ---- ---- ------- ----- -- ----<br>-------- ------- -- ---------- --- - --- ----- ----- ----<br>---- --- --- ----- --- feel ---- ------- ----- ---- -------<br>--- --- -- ----- -- --- ---- -- --- ---- -- ------ ------<br>--- ----- -- ----,166293.04499999853,166290.4700000072,165806.685,165813.94000002183,165823.351,166306.665,,33,feel
screen,html.Screen,1_1_0_1_34,2021-04-19T10:30:28.141Z,,,,,,,,,,,,,,,,53,,,,,,,,,,,,,,477.6850000308186,,response,,,,99,,,,,,,Space,keypress(Space),,,,,,,,---- -- ----- -- ------ - ------- --- ----------<br>------------- ------ ------ ---- ---- ------- ----- -- ----<br>-------- ------- -- ---------- --- - --- ----- ----- ----<br>---- --- --- ----- --- ---- that ------- ----- ---- -------<br>--- --- -- ----- -- --- ---- -- --- ---- -- ------ ------<br>--- ----- -- ----,166788.05000003194,166784.35000003083,166289.999,166293.16000000108,166306.665,166789.979,,34,that
screen,html.Screen,1_1_0_1_35,2021-04-19T10:30:28.579Z,,,,,,,,,,,,,,,,53,,,,,,,,,,,,,,433.3060000145924,,response,,,,99,,,,,,,Space,keypress(Space),,,,,,,,---- -- ----- -- ------ - ------- --- ----------<br>------------- ------ ------ ---- ---- ------- ----- -- ----<br>-------- ------- -- ---------- --- - --- ----- ----- ----<br>---- --- --- ----- --- ---- ---- matters ----- ---- -------<br>--- --- -- ----- -- --- ---- -- --- ---- -- ------ ------<br>--- ----- -- ----,167226.1100000469,167223.28500001458,166773.313,166788.17500005243,166789.979,167239.961,,35,matters
screen,html.Screen,1_1_0_1_36,2021-04-19T10:30:29.014Z,,,,,,,,,,,,,,,,53,,,,,,,,,,,,,,418.4290000550682,,response,,,,99,,,,,,,Space,keypress(Space),,,,,,,,"---- -- ----- -- ------ - ------- --- ----------<br>------------- ------ ------ ---- ---- ------- ----- -- ----<br>-------- ------- -- ---------- --- - --- ----- ----- ----<br>---- --- --- ----- --- ---- ---- ------- most, ---- -------<br>--- --- -- ----- -- --- ---- -- --- ---- -- ------ ------<br>--- ----- -- ----",167661.2450000248,167658.39000005508,167223.295,167226.25000000698,167239.961,167673.277,,36,"most,"
screen,html.Screen,1_1_0_1_37,2021-04-19T10:30:29.651Z,,,,,,,,,,,,,,,,53,,,,,,,,,,,,,,621.0380000064615,,response,,,,99,,,,,,,Space,keypress(Space),,,,,,,,---- -- ----- -- ------ - ------- --- ----------<br>------------- ------ ------ ---- ---- ------- ----- -- ----<br>-------- ------- -- ---------- --- - --- ----- ----- ----<br>---- --- --- ----- --- ---- ---- ------- ----- it's -------<br>--- --- -- ----- -- --- ---- -- --- ---- -- ------ ------<br>--- ----- -- ----,168298.04000002332,168294.31500000646,167656.611,167661.37000004528,167673.277,168306.585,,37,it's
screen,html.Screen,1_1_0_1_38,2021-04-19T10:30:30.106Z,,,,,,,,,,,,,,,,53,,,,,,,,,,,,,,443.6850000186532,,response,,,,99,,,,,,,Space,keypress(Space),,,,,,,,---- -- ----- -- ------ - ------- --- ----------<br>------------- ------ ------ ---- ---- ------- ----- -- ----<br>-------- ------- -- ---------- --- - --- ----- ----- ----<br>---- --- --- ----- --- ---- ---- ------- ----- ---- whether<br>--- --- -- ----- -- --- ---- -- --- ---- -- ------ ------<br>--- ----- -- ----,168753.5050000297,168750.27000001865,168289.919,168298.20499999914,168306.585,168756.567,,38,whether
screen,html.Screen,1_1_0_1_39,2021-04-19T10:30:30.496Z,,,,,,,,,,,,,,,,53,,,,,,,,,,,,,,381.82800001630676,,response,,,,99,,,,,,,Space,keypress(Space),,,,,,,,---- -- ----- -- ------ - ------- --- ----------<br>------------- ------ ------ ---- ---- ------- ----- -- ----<br>-------- ------- -- ---------- --- - --- ----- ----- ----<br>---- --- --- ----- --- ---- ---- ------- ----- ---- -------<br>you --- -- ----- -- --- ---- -- --- ---- -- ------ ------<br>--- ----- -- ----,169143.35000002757,169138.39500001632,168739.901,168753.5950000165,168756.567,169156.551,,39,you
screen,html.Screen,1_1_0_1_40,2021-04-19T10:30:30.972Z,,,,,,,,,,,,,,,,53,,,,,,,,,,,,,,457.1440000072762,,response,,,,99,,,,,,,Space,keypress(Space),,,,,,,,---- -- ----- -- ------ - ------- --- ----------<br>------------- ------ ------ ---- ---- ------- ----- -- ----<br>-------- ------- -- ---------- --- - --- ----- ----- ----<br>---- --- --- ----- --- ---- ---- ------- ----- ---- -------<br>--- are -- ----- -- --- ---- -- --- ---- -- ------ ------<br>--- ----- -- ----,169619.72000001697,169613.69500000728,169139.885,169143.57000001473,169156.551,169623.199,,40,are
screen,html.Screen,1_1_0_1_41,2021-04-19T10:30:31.615Z,,,,,,,,,,,,,,,,53,,,,,,,,,,,,,,636.1310000298836,,response,,,,99,,,,,,,Space,keypress(Space),,,,,,,,---- -- ----- -- ------ - ------- --- ----------<br>------------- ------ ------ ---- ---- ------- ----- -- ----<br>-------- ------- -- ---------- --- - --- ----- ----- ----<br>---- --- --- ----- --- ---- ---- ------- ----- ---- -------<br>--- --- as ----- -- --- ---- -- --- ---- -- ------ ------<br>--- ----- -- ----,170262.630000012,170259.33000002988,169606.533,169619.9000000488,169623.199,170275.228,,41,as
screen,html.Screen,1_1_0_1_42,2021-04-19T10:30:32.060Z,,,,,,,,,,,,,,,,53,,,,,,,,,,,,,,427.14200001361314,,response,,,,99,,,,,,,Space,keypress(Space),,,,,,,,---- -- ----- -- ------ - ------- --- ----------<br>------------- ------ ------ ---- ---- ------- ----- -- ----<br>-------- ------- -- ---------- --- - --- ----- ----- ----<br>---- --- --- ----- --- ---- ---- ------- ----- ---- -------<br>--- --- -- close -- --- ---- -- --- ---- -- ------ ------<br>--- ----- -- ----,170707.00000005309,170702.37000001362,170258.562,170262.76000001235,170275.228,170725.21,,42,close
screen,html.Screen,1_1_0_1_43,2021-04-19T10:30:32.972Z,,,,,,,,,,,,,,,,53,,,,,,,,,,,,,,888.2600000402599,,response,,,,99,,,,,,,Space,keypress(Space),,,,,,,,---- -- ----- -- ------ - ------- --- ----------<br>------------- ------ ------ ---- ---- ------- ----- -- ----<br>-------- ------- -- ---------- --- - --- ----- ----- ----<br>---- --- --- ----- --- ---- ---- ------- ----- ---- -------<br>--- --- -- ----- as --- ---- -- --- ---- -- ------ ------<br>--- ----- -- ----,171618.94000001485,171613.47000004025,170708.544,170709.3000000459,170725.21,171625.174,,43,as
screen,html.Screen,1_1_0_1_44,2021-04-19T10:30:33.535Z,,,,,,,,,,,,,,,,53,,,,,,,,,,,,,,552.1160000214586,,response,,,,99,,,,,,,Space,keypress(Space),,,,,,,,---- -- ----- -- ------ - ------- --- ----------<br>------------- ------ ------ ---- ---- ------- ----- -- ----<br>-------- ------- -- ---------- --- - --- ----- ----- ----<br>---- --- --- ----- --- ---- ---- ------- ----- ---- -------<br>--- --- -- ----- -- you ---- -- --- ---- -- ------ ------<br>--- ----- -- ----,172182.65000003157,172177.29000002146,171608.508,171619.13500004448,171625.174,172191.818,,44,you
screen,html.Screen,1_1_0_1_45,2021-04-19T10:30:33.973Z,,,,,,,,,,,,,,,,53,,,,,,,,,,,,,,426.4020000039309,,response,,,,99,,,,,,,Space,keypress(Space),,,,,,,,---- -- ----- -- ------ - ------- --- ----------<br>------------- ------ ------ ---- ---- ------- ----- -- ----<br>-------- ------- -- ---------- --- - --- ----- ----- ----<br>---- --- --- ----- --- ---- ---- ------- ----- ---- -------<br>--- --- -- ----- -- --- want -- --- ---- -- ------ ------<br>--- ----- -- ----,172620.55000005057,172618.22000000393,172175.152,172182.85000004107,172191.818,172625.134,,45,want
screen,html.Screen,1_1_0_1_46,2021-04-19T10:30:34.316Z,,,,,,,,,,,,,,,,53,,,,,,,,,,,,,,335.05100003266125,,response,,,,99,,,,,,,Space,keypress(Space),,,,,,,,---- -- ----- -- ------ - ------- --- ----------<br>------------- ------ ------ ---- ---- ------- ----- -- ----<br>-------- ------- -- ---------- --- - --- ----- ----- ----<br>---- --- --- ----- --- ---- ---- ------- ----- ---- -------<br>--- --- -- ----- -- --- ---- to --- ---- -- ------ ------<br>--- ----- -- ----,172963.76500005135,172960.18500003265,172608.468,172620.66500005312,172625.134,172975.12,,46,to
screen,html.Screen,1_1_0_1_47,2021-04-19T10:30:35.714Z,,,,,,,,,,,,,,,,53,,,,,,,,,,,,,,1383.1500000261003,,response,,,,99,,,,,,,Space,keypress(Space),,,,,,,,"---- -- ----- -- ------ - ------- --- ----------<br>------------- ------ ------ ---- ---- ------- ----- -- ----<br>-------- ------- -- ---------- --- - --- ----- ----- ----<br>---- --- --- ----- --- ---- ---- ------- ----- ---- -------<br>--- --- -- ----- -- --- ---- -- be, ---- -- ------ ------<br>--- ----- -- ----",174361.43000004813,174358.2700000261,172958.454,172963.9100000495,172975.12,174375.064,,47,"be,"
screen,html.Screen,1_1_0_1_48,2021-04-19T10:30:36.131Z,,,,,,,,,,,,,,,,53,,,,,,,,,,,,,,397.08100005355664,,response,,,,99,,,,,,,Space,keypress(Space),,,,,,,,---- -- ----- -- ------ - ------- --- ----------<br>------------- ------ ------ ---- ---- ------- ----- -- ----<br>-------- ------- -- ---------- --- - --- ----- ----- ----<br>---- --- --- ----- --- ---- ---- ------- ----- ---- -------<br>--- --- -- ----- -- --- ---- -- --- even -- ------ ------<br>--- ----- -- ----,174778.16000004532,174772.14500005357,174358.398,174361.55000003055,174375.064,174791.714,,48,even
screen,html.Screen,1_1_0_1_49,2021-04-19T10:30:38.952Z,,,,,,,,,,,,,,,,53,,,,,,,,,,,,,,2803.6110000020417,,response,,,,99,,,,,,,Space,keypress(Space),,,,,,,,---- -- ----- -- ------ - ------- --- ----------<br>------------- ------ ------ ---- ---- ------- ----- -- ----<br>-------- ------- -- ---------- --- - --- ----- ----- ----<br>---- --- --- ----- --- ---- ---- ------- ----- ---- -------<br>--- --- -- ----- -- --- ---- -- --- ---- if ------ ------<br>--- ----- -- ----,177599.5750000002,177595.32500000205,174775.048,174778.33500003908,174791.714,177608.268,,49,if
screen,html.Screen,1_1_0_1_50,2021-04-19T10:30:39.443Z,,,,,,,,,,,,,,,,53,,,,,,,,,,,,,,480.0320000030624,,response,,,,99,,,,,,,Space,keypress(Space),,,,,,,,---- -- ----- -- ------ - ------- --- ----------<br>------------- ------ ------ ---- ---- ------- ----- -- ----<br>-------- ------- -- ---------- --- - --- ----- ----- ----<br>---- --- --- ----- --- ---- ---- ------- ----- ---- -------<br>--- --- -- ----- -- --- ---- -- --- ---- -- that's ------<br>--- ----- -- ----,178091.04000002844,178088.30000000307,177591.602,177599.74500001408,177608.268,178108.248,,50,that's
screen,html.Screen,1_1_0_1_51,2021-04-19T10:30:39.918Z,,,,,,,,,,,,,,,,53,,,,,,,,,,,,,,453.9170000102895,,response,,,,99,,,,,,,Space,keypress(Space),,,,,,,,---- -- ----- -- ------ - ------- --- ----------<br>------------- ------ ------ ---- ---- ------- ----- -- ----<br>-------- ------- -- ---------- --- - --- ----- ----- ----<br>---- --- --- ----- --- ---- ---- ------- ----- ---- -------<br>--- --- -- ----- -- --- ---- -- --- ---- -- ------ really<br>--- ----- -- ----,178565.70500001544,178562.16500001028,178091.582,178091.19500004454,178108.248,178574.896,,51,really
screen,html.Screen,1_1_0_1_52,2021-04-19T10:30:40.320Z,,,,,,,,,,,,,,,,53,,,,,,,,,,,,,,389.18900004326133,,response,,,,99,,,,,,,Space,keypress(Space),,,,,,,,---- -- ----- -- ------ - ------- --- ----------<br>------------- ------ ------ ---- ---- ------- ----- -- ----<br>-------- ------- -- ---------- --- - --- ----- ----- ----<br>---- --- --- ----- --- ---- ---- ------- ----- ---- -------<br>--- --- -- ----- -- --- ---- -- --- ---- -- ------ ------<br>not ----- -- ----,178967.79000002425,178964.08500004327,178558.23,178565.83000003593,178574.896,178974.88,,52,not
screen,html.Screen,1_1_0_1_53,2021-04-19T10:30:40.732Z,,,,,,,,,,,,,,,,53,,,,,,,,,,,,,,400.1400000358699,,response,,,,99,,,,,,,Space,keypress(Space),,,,,,,,---- -- ----- -- ------ - ------- --- ----------<br>------------- ------ ------ ---- ---- ------- ----- -- ----<br>-------- ------- -- ---------- --- - --- ----- ----- ----<br>---- --- --- ----- --- ---- ---- ------- ----- ---- -------<br>--- --- -- ----- -- --- ---- -- --- ---- -- ------ ------<br>--- close -- ----,179379.89500002004,179375.02000003587,178958.214,178967.9350000224,178974.88,179391.53,,53,close
screen,html.Screen,1_1_0_1_54,2021-04-19T10:30:41.062Z,,,,,,,,,,,,,,,,53,,,,,,,,,,,,,,313.520000047778,,response,,,,99,,,,,,,Space,keypress(Space),,,,,,,,---- -- ----- -- ------ - ------- --- ----------<br>------------- ------ ------ ---- ---- ------- ----- -- ----<br>-------- ------- -- ---------- --- - --- ----- ----- ----<br>---- --- --- ----- --- ---- ---- ------- ----- ---- -------<br>--- --- -- ----- -- --- ---- -- --- ---- -- ------ ------<br>--- ----- at ----,179710.14999999898,179705.05000004778,179374.864,179380.06000005407,179391.53,179724.85,,54,at
screen,html.Screen,1_1_0_1_55,2021-04-19T10:30:41.719Z,,,,,,,,,,,,,,,,53,,,,,,,,,,,,,,635.1550000240968,,response,,,,99,,,,,,,Space,keypress(Space),,,,,,,,---- -- ----- -- ------ - ------- --- ----------<br>------------- ------ ------ ---- ---- ------- ----- -- ----<br>-------- ------- -- ---------- --- - --- ----- ----- ----<br>---- --- --- ----- --- ---- ---- ------- ----- ---- -------<br>--- --- -- ----- -- --- ---- -- --- ---- -- ------ ------<br>--- ----- -- all.,180366.93000001833,180360.0050000241,179708.184,179710.35000000848,179724.85,180375.587,,55,all.
Item 99,flow.Loop,1_1_0_1,2021-04-19T10:30:41.720Z,,,,,,,,,,,,,,,,,,,,,,,,,,,,,,31822.60400002409,,completion,,,,,F,,,,,,,,,,,silence,,,,,180367.32499999925,180360.0050000241,148520.735,148522.16500003124,148537.401,180375.587,,,
Question 1,html.Screen,1_1_0_2,2021-04-19T10:30:49.901Z,,,,,,,,,,,,,,,,,,,,,,,,,,,true,FALSE,,8171.843000035093,,response,,,,99,F,,,,,,FALSE,click #choice-2,,,,silence,,,,,188549.45000004955,188547.4300000351,180358.921,180367.5500000245,180375.587,188558.593,,,
Question 2,html.Screen,1_1_0_3,2021-04-19T10:30:53.908Z,,,,,,,,,,,,,,,,,,,,,,,,,,,true,TRUE,,3995.352000050596,,response,,,,99,F,,,,,,TRUE,click #choice-1,,,,silence,,,,,192556.10000004526,192553.9450000506,188541.927,188549.57500001183,188558.593,192566.035,,,
Item 99,flow.Sequence,1_1_0,2021-04-19T10:30:53.908Z,,,,,,,,,,,,,,,,,,,,,,,,,,,,,,54016.14400005058,,completion,,,,,,,,,,,,,,,,,,,,,192556.28499999875,192553.9450000506,138521.135,138540.18000001088,138537.801,192566.035,,,
Holding screen,html.Screen,1_1_1_0,2021-04-19T10:31:03.900Z,,,,,,,,,,,,,,,,,,,,,,,,,,,,,,9997.359999999986,,timeout,,,,,,,,,,,,,,,,,,,,,202548.4900000156,202546.729,192549.369,192556.53500003973,192566.035,202563.395,,,
screen,html.Screen,1_1_1_1_0,2021-04-19T10:31:05.264Z,,,,,,,,,,,,,,,,54,,,,,,,,,,,,,,1346.1450000223995,,response,,,,100,,,,,,,Space,keypress(Space),,,,,,,,At --- ---- --- ------ ----- ------- ---- -- --- ------- --<br>------- ---------- ------ -- ----- -- ----- -- ---- ------<br>--- ----- --- --- ------ -------- ----- --- ------ ----- --<br>----- ----- ---------- --- --- ------ ------ ---- -- ------<br>------- --- ------ ----- --- ---- ------- -- ---- --- --<br>------- ------,203912.46500000125,203909.5400000224,202546.729,202548.77500003204,202563.395,203913.341,,0,At
screen,html.Screen,1_1_1_1_1,2021-04-19T10:31:05.757Z,,,,,,,,,,,,,,,,54,,,,,,,,,,,,,,488.2940000165545,,response,,,,100,,,,,,,Space,keypress(Space),,,,,,,,-- the ---- --- ------ ----- ------- ---- -- --- ------- --<br>------- ---------- ------ -- ----- -- ----- -- ---- ------<br>--- ----- --- --- ------ -------- ----- --- ------ ----- --<br>----- ----- ---------- --- --- ------ ------ ---- -- ------<br>------- --- ------ ----- --- ---- ------- -- ---- --- --<br>------- ------,204405.32499999972,204401.63500001654,203896.675,203912.565000006,203913.341,204413.321,,1,the
screen,html.Screen,1_1_1_1_2,2021-04-19T10:31:06.184Z,,,,,,,,,,,,,,,,54,,,,,,,,,,,,,,414.329000050202,,response,,,,100,,,,,,,Space,keypress(Space),,,,,,,,-- --- time --- ------ ----- ------- ---- -- --- ------- --<br>------- ---------- ------ -- ----- -- ----- -- ---- ------<br>--- ----- --- --- ------ -------- ----- --- ------ ----- --<br>----- ----- ---------- --- --- ------ ------ ---- -- ------<br>------- --- ------ ----- --- ---- ------- -- ---- --- --<br>------- ------,204832.9800000065,204827.6500000502,204396.655,204405.42500000447,204413.321,204846.637,,2,time
screen,html.Screen,1_1_1_1_3,2021-04-19T10:31:06.570Z,,,,,,,,,,,,,,,,54,,,,,,,,,,,,,,368.68800005561206,,response,,,,100,,,,,,,Space,keypress(Space),,,,,,,,-- --- ---- the ------ ----- ------- ---- -- --- ------- --<br>------- ---------- ------ -- ----- -- ----- -- ---- ------<br>--- ----- --- --- ------ -------- ----- --- ------ ----- --<br>----- ----- ---------- --- --- ------ ------ ---- -- ------<br>------- --- ------ ----- --- ---- ------- -- ---- --- --<br>------- ------,205218.39500003261,205215.3250000556,204829.971,204833.14500004053,204846.637,205229.955,,3,the
screen,html.Screen,1_1_1_1_4,2021-04-19T10:31:07.006Z,,,,,,,,,,,,,,,,54,,,,,,,,,,,,,,420.71000002286746,,response,,,,100,,,,,,,Space,keypress(Space),,,,,,,,-- --- ---- --- French ----- ------- ---- -- --- ------- --<br>------- ---------- ------ -- ----- -- ----- -- ---- ------<br>--- ----- --- --- ------ -------- ----- --- ------ ----- --<br>----- ----- ---------- --- --- ------ ------ ---- -- ------<br>------- --- ------ ----- --- ---- ------- -- ---- --- --<br>------- ------,205655.03000002354,205650.66500002285,205213.289,205218.51000003517,205229.955,205663.271,,4,French
screen,html.Screen,1_1_1_1_5,2021-04-19T10:31:07.435Z,,,,,,,,,,,,,,,,54,,,,,,,,,,,,,,416.48900005145697,,response,,,,100,,,,,,,Space,keypress(Space),,,,,,,,-- --- ---- --- ------ crown ------- ---- -- --- ------- --<br>------- ---------- ------ -- ----- -- ----- -- ---- ------<br>--- ----- --- --- ------ -------- ----- --- ------ ----- --<br>----- ----- ---------- --- --- ------ ------ ---- -- ------<br>------- --- ------ ----- --- ---- ------- -- ---- --- --<br>------- ------,206083.33000005223,206079.76000005146,205646.605,205655.20000003744,205663.271,206096.587,,5,crown
screen,html.Screen,1_1_1_1_6,2021-04-19T10:31:07.877Z,,,,,,,,,,,,,,,,54,,,,,,,,,,,,,,424.83800004265504,,response,,,,100,,,,,,,Space,keypress(Space),,,,,,,,-- --- ---- --- ------ ----- secured ---- -- --- ------- --<br>------- ---------- ------ -- ----- -- ----- -- ---- ------<br>--- ----- --- --- ------ -------- ----- --- ------ ----- --<br>----- ----- ---------- --- --- ------ ------ ---- -- ------<br>------- --- ------ ----- --- ---- ------- -- ---- --- --<br>------- ------,206525.54500004044,206521.42500004265,206079.921,206083.44500005478,206096.587,206529.903,,6,secured
screen,html.Screen,1_1_1_1_7,2021-04-19T10:31:08.329Z,,,,,,,,,,,,,,,,54,,,,,,,,,,,,,,444.44700003316393,,response,,,,100,,,,,,,Space,keypress(Space),,,,,,,,-- --- ---- --- ------ ----- ------- much -- --- ------- --<br>------- ---------- ------ -- ----- -- ----- -- ---- ------<br>--- ----- --- --- ------ -------- ----- --- ------ ----- --<br>----- ----- ---------- --- --- ------ ------ ---- -- ------<br>------- --- ------ ----- --- ---- ------- -- ---- --- --<br>------- ------,206977.25000005448,206974.35000003316,206513.237,206525.7500000298,206529.903,206979.885,,7,much
screen,html.Screen,1_1_1_1_8,2021-04-19T10:31:08.778Z,,,,,,,,,,,,,,,,54,,,,,,,,,,,,,,441.5750000413973,,response,,,,100,,,,,,,Space,keypress(Space),,,,,,,,-- --- ---- --- ------ ----- ------- ---- of --- ------- --<br>------- ---------- ------ -- ----- -- ----- -- ---- ------<br>--- ----- --- --- ------ -------- ----- --- ------ ----- --<br>----- ----- ---------- --- --- ------ ------ ---- -- ------<br>------- --- ------ ----- --- ---- ------- -- ---- --- --<br>------- ------,207427.12500004563,207421.4600000414,206963.219,206977.40500001237,206979.885,207429.867,,8,of
screen,html.Screen,1_1_1_1_9,2021-04-19T10:31:09.089Z,,,,,,,,,,,,,,,,54,,,,,,,,,,,,,,303.5130000487843,,response,,,,100,,,,,,,Space,keypress(Space),,,,,,,,-- --- ---- --- ------ ----- ------- ---- -- its ------- --<br>------- ---------- ------ -- ----- -- ----- -- ---- ------<br>--- ----- --- --- ------ -------- ----- --- ------ ----- --<br>----- ----- ---------- --- --- ------ ------ ---- -- ------<br>------- --- ------ ----- --- ---- ------- -- ---- --- --<br>------- ------,207737.4650000129,207733.38000004878,207413.201,207427.29000002146,207429.867,207746.521,,9,its
screen,html.Screen,1_1_1_1_10,2021-04-19T10:31:09.601Z,,,,,,,,,,,,,,,,54,,,,,,,,,,,,,,498.9240000077407,,response,,,,100,,,,,,,Space,keypress(Space),,,,,,,,-- --- ---- --- ------ ----- ------- ---- -- --- revenue --<br>------- ---------- ------ -- ----- -- ----- -- ---- ------<br>--- ----- --- --- ------ -------- ----- --- ------ ----- --<br>----- ----- ---------- --- --- ------ ------ ---- -- ------<br>------- --- ------ ----- --- ---- ------- -- ---- --- --<br>------- ------,208249.80500002857,208245.44500000775,207729.855,207737.60000005132,207746.521,208263.167,,10,revenue
screen,html.Screen,1_1_1_1_11,2021-04-19T10:31:10.032Z,,,,,,,,,,,,,,,,54,,,,,,,,,,,,,,414.283000017429,,response,,,,100,,,,,,,Space,keypress(Space),,,,,,,,-- --- ---- --- ------ ----- ------- ---- -- --- ------- by<br>------- ---------- ------ -- ----- -- ----- -- ---- ------<br>--- ----- --- --- ------ -------- ----- --- ------ ----- --<br>----- ----- ---------- --- --- ------ ------ ---- -- ------<br>------- --- ------ ----- --- ---- ------- -- ---- --- --<br>------- ------,208680.46000000322,208677.45000001742,208246.501,208250.05500001134,208263.167,208696.483,,11,by
screen,html.Screen,1_1_1_1_12,2021-04-19T10:31:10.541Z,,,,,,,,,,,,,,,,54,,,,,,,,,,,,,,489.89700002828613,,response,,,,100,,,,,,,Space,keypress(Space),,,,,,,,-- --- ---- --- ------ ----- ------- ---- -- --- ------- --<br>issuing ---------- ------ -- ----- -- ----- -- ---- ------<br>--- ----- --- --- ------ -------- ----- --- ------ ----- --<br>----- ----- ---------- --- --- ------ ------ ---- -- ------<br>------- --- ------ ----- --- ---- ------- -- ---- --- --<br>------- ------,209190.12000004295,209186.3800000283,208679.817,208680.58000004385,208696.483,209196.463,,12,issuing
screen,html.Screen,1_1_1_1_13,2021-04-19T10:31:11.016Z,,,,,,,,,,,,,,,,54,,,,,,,,,,,,,,462.8770000129007,,response,,,,100,,,,,,,Space,keypress(Space),,,,,,,,-- --- ---- --- ------ ----- ------- ---- -- --- ------- --<br>------- government ------ -- ----- -- ----- -- ---- ------<br>--- ----- --- --- ------ -------- ----- --- ------ ----- --<br>----- ----- ---------- --- --- ------ ------ ---- -- ------<br>------- --- ------ ----- --- ---- ------- -- ---- --- --<br>------- ------,209664.8100000457,209659.3400000129,209179.797,209190.27000002097,209196.463,209679.777,,13,government
screen,html.Screen,1_1_1_1_14,2021-04-19T10:31:11.524Z,,,,,,,,,,,,,,,,54,,,,,,,,,,,,,,490.58800002723,,response,,,,100,,,,,,,Space,keypress(Space),,,,,,,,-- --- ---- --- ------ ----- ------- ---- -- --- ------- --<br>------- ---------- bonds. -- ----- -- ----- -- ---- ------<br>--- ----- --- --- ------ -------- ----- --- ------ ----- --<br>----- ----- ---------- --- --- ------ ------ ---- -- ------<br>------- --- ------ ----- --- ---- ------- -- ---- --- --<br>------- ------,210172.95500001637,210170.36500002723,209663.111,209665.0550000486,209679.777,210179.757,,14,bonds.
screen,html.Screen,1_1_1_1_15,2021-04-19T10:31:11.985Z,,,,,,,,,,,,,,,,54,,,,,,,,,,,,,,448.6230000091891,,response,,,,100,,,,,,,Space,keypress(Space),,,,,,,,-- --- ---- --- ------ ----- ------- ---- -- --- ------- --<br>------- ---------- ------ In ----- -- ----- -- ---- ------<br>--- ----- --- --- ------ -------- ----- --- ------ ----- --<br>----- ----- ---------- --- --- ------ ------ ---- -- ------<br>------- --- ------ ----- --- ---- ------- -- ---- --- --<br>------- ------,210633.46000004094,210628.3800000092,210163.091,210173.05500002112,210179.757,210646.405,,15,In
screen,html.Screen,1_1_1_1_16,2021-04-19T10:31:13.455Z,,,,,,,,,,,,,,,,54,,,,,,,,,,,,,,1451.9900000372727,,response,,,,100,,,,,,,Space,keypress(Space),,,,,,,,"-- --- ---- --- ------ ----- ------- ---- -- --- ------- --<br>------- ---------- ------ -- 1727, -- ----- -- ---- ------<br>--- ----- --- --- ------ -------- ----- --- ------ ----- --<br>----- ----- ---------- --- --- ------ ------ ---- -- ------<br>------- --- ------ ----- --- ---- ------- -- ---- --- --<br>------- ------",212103.4900000086,212098.39500003727,210629.739,210633.61499999883,210646.405,212113.013,,16,"1727,"
screen,html.Screen,1_1_1_1_17,2021-04-19T10:31:13.983Z,,,,,,,,,,,,,,,,54,,,,,,,,,,,,,,512.1770000497636,,response,,,,100,,,,,,,Space,keypress(Space),,,,,,,,-- --- ---- --- ------ ----- ------- ---- -- --- ------- --<br>------- ---------- ------ -- ----- in ----- -- ---- ------<br>--- ----- --- --- ------ -------- ----- --- ------ ----- --<br>----- ----- ---------- --- --- ------ ------ ---- -- ------<br>------- --- ------ ----- --- ---- ------- -- ---- --- --<br>------- ------,212632.05000001471,212625.19000004977,212096.347,212103.6150000291,212113.013,212637.401,,17,in
screen,html.Screen,1_1_1_1_18,2021-04-19T10:31:14.532Z,,,,,,,,,,,,,,,,54,,,,,,,,,,,,,,539.824000050372,,response,,,,100,,,,,,,Space,keypress(Space),,,,,,,,-- --- ---- --- ------ ----- ------- ---- -- --- ------- --<br>------- ---------- ------ -- ----- -- order -- ---- ------<br>--- ----- --- --- ------ -------- ----- --- ------ ----- --<br>----- ----- ---------- --- --- ------ ------ ---- -- ------<br>------- --- ------ ----- --- ---- ------- -- ---- --- --<br>------- ------,213180.47000002116,213177.22500005038,212620.735,212632.29000003776,212637.401,213187.379,,18,order
screen,html.Screen,1_1_1_1_19,2021-04-19T10:31:14.881Z,,,,,,,,,,,,,,,,54,,,,,,,,,,,,,,340.01600004101056,,response,,,,100,,,,,,,Space,keypress(Space),,,,,,,,-- --- ---- --- ------ ----- ------- ---- -- --- ------- --<br>------- ---------- ------ -- ----- -- ----- to ---- ------<br>--- ----- --- --- ------ -------- ----- --- ------ ----- --<br>----- ----- ---------- --- --- ------ ------ ---- -- ------<br>------- --- ------ ----- --- ---- ------- -- ---- --- --<br>------- ------,213529.7900000005,213527.395000041,213170.713,213180.63000001712,213187.379,213537.365,,19,to
screen,html.Screen,1_1_1_1_20,2021-04-19T10:31:15.227Z,,,,,,,,,,,,,,,,54,,,,,,,,,,,,,,335.94500005361624,,response,,,,100,,,,,,,Space,keypress(Space),,,,,,,,-- --- ---- --- ------ ----- ------- ---- -- --- ------- --<br>------- ---------- ------ -- ----- -- ----- -- save ------<br>--- ----- --- --- ------ -------- ----- --- ------ ----- --<br>----- ----- ---------- --- --- ------ ------ ---- -- ------<br>------- --- ------ ----- --- ---- ------- -- ---- --- --<br>------- ------,213876.23500003247,213873.3100000536,213520.699,213529.92000000086,213537.365,213887.351,,20,save
screen,html.Screen,1_1_1_1_21,2021-04-19T10:31:15.940Z,,,,,,,,,,,,,,,,54,,,,,,,,,,,,,,694.5040000549343,,response,,,,100,,,,,,,Space,keypress(Space),,,,,,,,"-- --- ---- --- ------ ----- ------- ---- -- --- ------- --<br>------- ---------- ------ -- ----- -- ----- -- ---- money,<br>--- ----- --- --- ------ -------- ----- --- ------ ----- --<br>----- ----- ---------- --- --- ------ ------ ---- -- ------<br>------- --- ------ ----- --- ---- ------- -- ---- --- --<br>------- ------",214588.93500000704,214581.85500005493,213870.685,213876.41000002623,213887.351,214603.989,,21,"money,"
screen,html.Screen,1_1_1_1_22,2021-04-19T10:31:16.687Z,,,,,,,,,,,,,,,,54,,,,,,,,,,,,,,729.2860000408837,,response,,,,100,,,,,,,Space,keypress(Space),,,,,,,,-- --- ---- --- ------ ----- ------- ---- -- --- ------- --<br>------- ---------- ------ -- ----- -- ----- -- ---- ------<br>the ----- --- --- ------ -------- ----- --- ------ ----- --<br>----- ----- ---------- --- --- ------ ------ ---- -- ------<br>------- --- ------ ----- --- ---- ------- -- ---- --- --<br>------- ------,215335.5450000381,215333.27500004089,214587.323,214589.07500002533,214603.989,215337.293,,22,the
screen,html.Screen,1_1_1_1_23,2021-04-19T10:31:17.212Z,,,,,,,,,,,,,,,,54,,,,,,,,,,,,,,517.8970000311383,,response,,,,100,,,,,,,Space,keypress(Space),,,,,,,,-- --- ---- --- ------ ----- ------- ---- -- --- ------- --<br>------- ---------- ------ -- ----- -- ----- -- ---- ------<br>--- state --- --- ------ -------- ----- --- ------ ----- --<br>----- ----- ---------- --- --- ------ ------ ---- -- ------<br>------- --- ------ ----- --- ---- ------- -- ---- --- --<br>------- ------,215860.84000003757,215855.19000003114,215320.627,215335.66000004066,215337.293,215870.605,,23,state
screen,html.Screen,1_1_1_1_24,2021-04-19T10:31:17.581Z,,,,,,,,,,,,,,,,54,,,,,,,,,,,,,,353.6350000104576,,response,,,,100,,,,,,,Space,keypress(Space),,,,,,,,-- --- ---- --- ------ ----- ------- ---- -- --- ------- --<br>------- ---------- ------ -- ----- -- ----- -- ---- ------<br>--- ----- cut --- ------ -------- ----- --- ------ ----- --<br>----- ----- ---------- --- --- ------ ------ ---- -- ------<br>------- --- ------ ----- --- ---- ------- -- ---- --- --<br>------- ------,216229.85500004143,216224.24000001047,215853.939,215861.07000004267,215870.605,216237.257,,24,cut
screen,html.Screen,1_1_1_1_25,2021-04-19T10:31:17.982Z,,,,,,,,,,,,,,,,54,,,,,,,,,,,,,,390.01300005542,,response,,,,100,,,,,,,Space,keypress(Space),,,,,,,,-- --- ---- --- ------ ----- ------- ---- -- --- ------- --<br>------- ---------- ------ -- ----- -- ----- -- ---- ------<br>--- ----- --- the ------ -------- ----- --- ------ ----- --<br>----- ----- ---------- --- --- ------ ------ ---- -- ------<br>------- --- ------ ----- --- ---- ------- -- ---- --- --<br>------- ------,216630.47500001267,216627.27000005543,216220.591,216230.01500003738,216237.257,216637.241,,25,the
screen,html.Screen,1_1_1_1_26,2021-04-19T10:31:18.395Z,,,,,,,,,,,,,,,,54,,,,,,,,,,,,,,402.9740000445454,,response,,,,100,,,,,,,Space,keypress(Space),,,,,,,,-- --- ---- --- ------ ----- ------- ---- -- --- ------- --<br>------- ---------- ------ -- ----- -- ----- -- ---- ------<br>--- ----- --- --- bonds' -------- ----- --- ------ ----- --<br>----- ----- ---------- --- --- ------ ------ ---- -- ------<br>------- --- ------ ----- --- ---- ------- -- ---- --- --<br>------- ------,217044.07000000356,217040.21500004455,216620.575,216630.63500000862,216637.241,217053.891,,26,bonds'
screen,html.Screen,1_1_1_1_27,2021-04-19T10:31:18.895Z,,,,,,,,,,,,,,,,54,,,,,,,,,,,,,,488.1340000315686,,response,,,,100,,,,,,,Space,keypress(Space),,,,,,,,-- --- ---- --- ------ ----- ------- ---- -- --- ------- --<br>------- ---------- ------ -- ----- -- ----- -- ---- ------<br>--- ----- --- --- ------ interest ----- --- ------ ----- --<br>----- ----- ---------- --- --- ------ ------ ---- -- ------<br>------- --- ------ ----- --- ---- ------- -- ---- --- --<br>------- ------,217544.1250000149,217542.02500003157,217037.225,217044.54500001157,217053.891,217553.871,,27,interest
screen,html.Screen,1_1_1_1_28,2021-04-19T10:31:19.325Z,,,,,,,,,,,,,,,,54,,,,,,,,,,,,,,417.05900001039845,,response,,,,100,,,,,,,Space,keypress(Space),,,,,,,,-- --- ---- --- ------ ----- ------- ---- -- --- ------- --<br>------- ---------- ------ -- ----- -- ----- -- ---- ------<br>--- ----- --- --- ------ -------- rate. --- ------ ----- --<br>----- ----- ---------- --- --- ------ ------ ---- -- ------<br>------- --- ------ ----- --- ---- ------- -- ---- --- --<br>------- ------,217974.1150000482,217970.9300000104,217537.205,217544.20500004198,217553.871,217987.187,,28,rate.
screen,html.Screen,1_1_1_1_29,2021-04-19T10:31:19.742Z,,,,,,,,,,,,,,,,54,,,,,,,,,,,,,,398.9780000326282,,response,,,,100,,,,,,,Space,keypress(Space),,,,,,,,-- --- ---- --- ------ ----- ------- ---- -- --- ------- --<br>------- ---------- ------ -- ----- -- ----- -- ---- ------<br>--- ----- --- --- ------ -------- ----- The ------ ----- --<br>----- ----- ---------- --- --- ------ ------ ---- -- ------<br>------- --- ------ ----- --- ---- ------- -- ---- --- --<br>------- ------,218390.73000004282,218386.16500003263,217970.521,217974.27000000607,217987.187,218403.837,,29,The
screen,html.Screen,1_1_1_1_30,2021-04-19T10:31:20.157Z,,,,,,,,,,,,,,,,54,,,,,,,,,,,,,,398.3480000368436,,response,,,,100,,,,,,,Space,keypress(Space),,,,,,,,-- --- ---- --- ------ ----- ------- ---- -- --- ------- --<br>------- ---------- ------ -- ----- -- ----- -- ---- ------<br>--- ----- --- --- ------ -------- ----- --- market ----- --<br>----- ----- ---------- --- --- ------ ------ ---- -- ------<br>------- --- ------ ----- --- ---- ------- -- ---- --- --<br>------- ------,218806.24000000535,218802.18500003684,218387.171,218390.91000001645,218403.837,218820.487,,30,market
screen,html.Screen,1_1_1_1_31,2021-04-19T10:31:20.487Z,,,,,,,,,,,,,,,,54,,,,,,,,,,,,,,312.638000051229,,response,,,,100,,,,,,,Space,keypress(Space),,,,,,,,-- --- ---- --- ------ ----- ------- ---- -- --- ------- --<br>------- ---------- ------ -- ----- -- ----- -- ---- ------<br>--- ----- --- --- ------ -------- ----- --- ------ value --<br>----- ----- ---------- --- --- ------ ------ ---- -- ------<br>------- --- ------ ----- --- ---- ------- -- ---- --- --<br>------- ------,219135.76000003377,219133.12500005122,218803.821,218806.47500004852,218820.487,219137.141,,31,value
screen,html.Screen,1_1_1_1_32,2021-04-19T10:31:20.923Z,,,,,,,,,,,,,,,,54,,,,,,,,,,,,,,432.01900001364993,,response,,,,100,,,,,,,Space,keypress(Space),,,,,,,,-- --- ---- --- ------ ----- ------- ---- -- --- ------- --<br>------- ---------- ------ -- ----- -- ----- -- ---- ------<br>--- ----- --- --- ------ -------- ----- --- ------ ----- of<br>----- ----- ---------- --- --- ------ ------ ---- -- ------<br>------- --- ------ ----- --- ---- ------- -- ---- --- --<br>------- ------,219571.72500004526,219569.16000001365,219120.475,219135.86000003852,219137.141,219587.123,,32,of
screen,html.Screen,1_1_1_1_33,2021-04-19T10:31:21.326Z,,,,,,,,,,,,,,,,54,,,,,,,,,,,,,,384.9670000538754,,response,,,,100,,,,,,,Space,keypress(Space),,,,,,,,-- --- ---- --- ------ ----- ------- ---- -- --- ------- --<br>------- ---------- ------ -- ----- -- ----- -- ---- ------<br>--- ----- --- --- ------ -------- ----- --- ------ ----- --<br>these ----- ---------- --- --- ------ ------ ---- -- ------<br>------- --- ------ ----- --- ---- ------- -- ---- --- --<br>------- ------,219974.90000003017,219972.09000005387,219570.457,219571.83500000974,219587.123,219987.107,,33,these
screen,html.Screen,1_1_1_1_34,2021-04-19T10:31:21.708Z,,,,,,,,,,,,,,,,54,,,,,,,,,,,,,,363.3180000114662,,response,,,,100,,,,,,,Space,keypress(Space),,,,,,,,-- --- ---- --- ------ ----- ------- ---- -- --- ------- --<br>------- ---------- ------ -- ----- -- ----- -- ---- ------<br>--- ----- --- --- ------ -------- ----- --- ------ ----- --<br>----- bonds ---------- --- --- ------ ------ ---- -- ------<br>------- --- ------ ----- --- ---- ------- -- ---- --- --<br>------- ------,220356.60500003723,220350.42500001146,219970.441,219975.00000003492,219987.107,220370.425,,34,bonds
screen,html.Screen,1_1_1_1_35,2021-04-19T10:31:22.122Z,,,,,,,,,,,,,,,,54,,,,,,,,,,,,,,397.6700000067358,,response,,,,100,,,,,,,Space,keypress(Space),,,,,,,,"-- --- ---- --- ------ ----- ------- ---- -- --- ------- --<br>------- ---------- ------ -- ----- -- ----- -- ---- ------<br>--- ----- --- --- ------ -------- ----- --- ------ ----- --<br>----- ----- plummeted, --- --- ------ ------ ---- -- ------<br>------- --- ------ ----- --- ---- ------- -- ---- --- --<br>------- ------",220770.94500005478,220768.09500000672,220353.759,220356.81500000646,220370.425,220787.075,,35,"plummeted,"
screen,html.Screen,1_1_1_1_36,2021-04-19T10:31:22.569Z,,,,,,,,,,,,,,,,54,,,,,,,,,,,,,,426.19500000745757,,response,,,,100,,,,,,,Space,keypress(Space),,,,,,,,-- --- ---- --- ------ ----- ------- ---- -- --- ------- --<br>------- ---------- ------ -- ----- -- ----- -- ---- ------<br>--- ----- --- --- ------ -------- ----- --- ------ ----- --<br>----- ----- ---------- and --- ------ ------ ---- -- ------<br>------- --- ------ ----- --- ---- ------- -- ---- --- --<br>------- ------,221218.35999999894,221213.27000000747,220770.409,220771.080000035,220787.075,221220.391,,36,and
screen,html.Screen,1_1_1_1_37,2021-04-19T10:31:22.970Z,,,,,,,,,,,,,,,,54,,,,,,,,,,,,,,393.84400004456984,,response,,,,100,,,,,,,Space,keypress(Space),,,,,,,,-- --- ---- --- ------ ----- ------- ---- -- --- ------- --<br>------- ---------- ------ -- ----- -- ----- -- ---- ------<br>--- ----- --- --- ------ -------- ----- --- ------ ----- --<br>----- ----- ---------- --- the ------ ------ ---- -- ------<br>------- --- ------ ----- --- ---- ------- -- ---- --- --<br>------- ------,221618.85000002803,221614.23500004457,221203.725,221218.57000002638,221220.391,221624.579,,37,the
screen,html.Screen,1_1_1_1_38,2021-04-19T10:31:23.373Z,,,,,,,,,,,,,,,,54,,,,,,,,,,,,,,391.6210000127612,,response,,,,100,,,,,,,Space,keypress(Space),,,,,,,,-- --- ---- --- ------ ----- ------- ---- -- --- ------- --<br>------- ---------- ------ -- ----- -- ----- -- ---- ------<br>--- ----- --- --- ------ -------- ----- --- ------ ----- --<br>----- ----- ---------- --- --- market ------ ---- -- ------<br>------- --- ------ ----- --- ---- ------- -- ---- --- --<br>------- ------,222022.29000005173,222016.20000001276,221607.913,221619.06500003533,221624.579,222024.563,,38,market
screen,html.Screen,1_1_1_1_39,2021-04-19T10:31:23.833Z,,,,,,,,,,,,,,,,54,,,,,,,,,,,,,,453.5170000298822,,response,,,,100,,,,,,,Space,keypress(Space),,,,,,,,-- --- ---- --- ------ ----- ------- ---- -- --- ------- --<br>------- ---------- ------ -- ----- -- ----- -- ---- ------<br>--- ----- --- --- ------ -------- ----- --- ------ ----- --<br>----- ----- ---------- --- --- ------ became ---- -- ------<br>------- --- ------ ----- --- ---- ------- -- ---- --- --<br>------- ------,222481.96000000462,222478.08000002988,222007.897,222022.4600000074,222024.563,222491.211,,39,became
screen,html.Screen,1_1_1_1_40,2021-04-19T10:31:24.277Z,,,,,,,,,,,,,,,,54,,,,,,,,,,,,,,428.9590000557946,,response,,,,100,,,,,,,Space,keypress(Space),,,,,,,,-- --- ---- --- ------ ----- ------- ---- -- --- ------- --<br>------- ---------- ------ -- ----- -- ----- -- ---- ------<br>--- ----- --- --- ------ -------- ----- --- ------ ----- --<br>----- ----- ---------- --- --- ------ ------ wary -- ------<br>------- --- ------ ----- --- ---- ------- -- ---- --- --<br>------- ------,222925.97500002012,222920.1700000558,222474.545,222482.1000000229,222491.211,222941.193,,40,wary
screen,html.Screen,1_1_1_1_41,2021-04-19T10:31:24.692Z,,,,,,,,,,,,,,,,54,,,,,,,,,,,,,,397.04200003200094,,response,,,,100,,,,,,,Space,keypress(Space),,,,,,,,-- --- ---- --- ------ ----- ------- ---- -- --- ------- --<br>------- ---------- ------ -- ----- -- ----- -- ---- ------<br>--- ----- --- --- ------ -------- ----- --- ------ ----- --<br>----- ----- ---------- --- --- ------ ------ ---- of ------<br>------- --- ------ ----- --- ---- ------- -- ---- --- --<br>------- ------,223341.2750000134,223338.235000032,222924.527,222926.19500000728,222941.193,223357.843,,41,of
screen,html.Screen,1_1_1_1_42,2021-04-19T10:31:25.190Z,,,,,,,,,,,,,,,,54,,,,,,,,,,,,,,479.102000046405,,response,,,,100,,,,,,,Space,keypress(Space),,,,,,,,-- --- ---- --- ------ ----- ------- ---- -- --- ------- --<br>------- ---------- ------ -- ----- -- ----- -- ---- ------<br>--- ----- --- --- ------ -------- ----- --- ------ ----- --<br>----- ----- ---------- --- --- ------ ------ ---- -- French<br>------- --- ------ ----- --- ---- ------- -- ---- --- --<br>------- ------,223839.37500003958,223836.9450000464,223341.177,223341.42500004964,223357.843,223841.157,,42,French
screen,html.Screen,1_1_1_1_43,2021-04-19T10:31:25.870Z,,,,,,,,,,,,,,,,54,,,,,,,,,,,,,,672.8030000111321,,response,,,,100,,,,,,,Space,keypress(Space),,,,,,,,-- --- ---- --- ------ ----- ------- ---- -- --- ------- --<br>------- ---------- ------ -- ----- -- ----- -- ---- ------<br>--- ----- --- --- ------ -------- ----- --- ------ ----- --<br>----- ----- ---------- --- --- ------ ------ ---- -- ------<br>credit. --- ------ ----- --- ---- ------- -- ---- --- --<br>------- ------,224519.15000000736,224513.96000001114,223824.491,223839.48500000406,223841.157,224524.463,,43,credit.
screen,html.Screen,1_1_1_1_44,2021-04-19T10:31:26.516Z,,,,,,,,,,,,,,,,54,,,,,,,,,,,,,,635.1820000070147,,response,,,,100,,,,,,,Space,keypress(Space),,,,,,,,-- --- ---- --- ------ ----- ------- ---- -- --- ------- --<br>------- ---------- ------ -- ----- -- ----- -- ---- ------<br>--- ----- --- --- ------ -------- ----- --- ------ ----- --<br>----- ----- ---------- --- --- ------ ------ ---- -- ------<br>------- The ------ ----- --- ---- ------- -- ---- --- --<br>------- ------,225164.92000001017,225159.645000007,224507.797,224519.35000001686,224524.463,225174.437,,44,The
screen,html.Screen,1_1_1_1_45,2021-04-19T10:31:27.284Z,,,,,,,,,,,,,,,,54,,,,,,,,,,,,,,756.5780000383093,,response,,,,100,,,,,,,Space,keypress(Space),,,,,,,,-- --- ---- --- ------ ----- ------- ---- -- --- ------- --<br>------- ---------- ------ -- ----- -- ----- -- ---- ------<br>--- ----- --- --- ------ -------- ----- --- ------ ----- --<br>----- ----- ---------- --- --- ------ ------ ---- -- ------<br>------- --- French ----- --- ---- ------- -- ---- --- --<br>------- ------,225933.6000000476,225931.01500003831,225157.771,225165.0400000508,225174.437,225941.073,,45,French
screen,html.Screen,1_1_1_1_46,2021-04-19T10:31:27.866Z,,,,,,,,,,,,,,,,54,,,,,,,,,,,,,,571.7420000236889,,response,,,,100,,,,,,,Space,keypress(Space),,,,,,,,-- --- ---- --- ------ ----- ------- ---- -- --- ------- --<br>------- ---------- ------ -- ----- -- ----- -- ---- ------<br>--- ----- --- --- ------ -------- ----- --- ------ ----- --<br>----- ----- ---------- --- --- ------ ------ ---- -- ------<br>------- --- ------ state --- ---- ------- -- ---- --- --<br>------- ------,226514.8600000539,226512.8150000237,225924.407,225933.6900000344,225941.073,226524.383,,46,state
screen,html.Screen,1_1_1_1_47,2021-04-19T10:31:28.278Z,,,,,,,,,,,,,,,,54,,,,,,,,,,,,,,399.0420000445156,,response,,,,100,,,,,,,Space,keypress(Space),,,,,,,,-- --- ---- --- ------ ----- ------- ---- -- --- ------- --<br>------- ---------- ------ -- ----- -- ----- -- ---- ------<br>--- ----- --- --- ------ -------- ----- --- ------ ----- --<br>----- ----- ---------- --- --- ------ ------ ---- -- ------<br>------- --- ------ ----- was ---- ------- -- ---- --- --<br>------- ------,226927.26000002585,226923.42500004452,226507.717,226514.97000001837,226524.383,226941.033,,47,was
screen,html.Screen,1_1_1_1_48,2021-04-19T10:31:28.666Z,,,,,,,,,,,,,,,,54,,,,,,,,,,,,,,371.81200000765966,,response,,,,100,,,,,,,Space,keypress(Space),,,,,,,,-- --- ---- --- ------ ----- ------- ---- -- --- ------- --<br>------- ---------- ------ -- ----- -- ----- -- ---- ------<br>--- ----- --- --- ------ -------- ----- --- ------ ----- --<br>----- ----- ---------- --- --- ------ ------ ---- -- ------<br>------- --- ------ ----- --- left ------- -- ---- --- --<br>------- ------,227315.34500000998,227312.84500000766,226924.367,226927.43999999948,226941.033,227324.351,,48,left
screen,html.Screen,1_1_1_1_49,2021-04-19T10:31:29.092Z,,,,,,,,,,,,,,,,54,,,,,,,,,,,,,,414.4990000233811,,response,,,,100,,,,,,,Space,keypress(Space),,,,,,,,-- --- ---- --- ------ ----- ------- ---- -- --- ------- --<br>------- ---------- ------ -- ----- -- ----- -- ---- ------<br>--- ----- --- --- ------ -------- ----- --- ------ ----- --<br>----- ----- ---------- --- --- ------ ------ ---- -- ------<br>------- --- ------ ----- --- ---- without -- ---- --- --<br>------- ------,227741.74500000663,227738.85000002338,227307.685,227315.52000000374,227324.351,227757.667,,49,without
screen,html.Screen,1_1_1_1_50,2021-04-19T10:31:29.447Z,,,,,,,,,,,,,,,,54,,,,,,,,,,,,,,336.1230000135547,,response,,,,100,,,,,,,Space,keypress(Space),,,,,,,,-- --- ---- --- ------ ----- ------- ---- -- --- ------- --<br>------- ---------- ------ -- ----- -- ----- -- ---- ------<br>--- ----- --- --- ------ -------- ----- --- ------ ----- --<br>----- ----- ---------- --- --- ------ ------ ---- -- ------<br>------- --- ------ ----- --- ---- ------- an ---- --- --<br>------- ------,228096.13499999978,228093.79000001354,227741.001,227741.88500002492,227757.667,228107.653,,50,an
screen,html.Screen,1_1_1_1_51,2021-04-19T10:31:29.834Z,,,,,,,,,,,,,,,,54,,,,,,,,,,,,,,370.5520000503748,,response,,,,100,,,,,,,Space,keypress(Space),,,,,,,,-- --- ---- --- ------ ----- ------- ---- -- --- ------- --<br>------- ---------- ------ -- ----- -- ----- -- ---- ------<br>--- ----- --- --- ------ -------- ----- --- ------ ----- --<br>----- ----- ---------- --- --- ------ ------ ---- -- ------<br>------- --- ------ ----- --- ---- ------- -- easy --- --<br>------- ------,228483.07500005467,228478.20500005037,228090.987,228096.29000001587,228107.653,228490.971,,51,easy
screen,html.Screen,1_1_1_1_52,2021-04-19T10:31:30.114Z,,,,,,,,,,,,,,,,54,,,,,,,,,,,,,,270.03400003668503,,response,,,,100,,,,,,,Space,keypress(Space),,,,,,,,-- --- ---- --- ------ ----- ------- ---- -- --- ------- --<br>------- ---------- ------ -- ----- -- ----- -- ---- ------<br>--- ----- --- --- ------ -------- ----- --- ------ ----- --<br>----- ----- ---------- --- --- ------ ------ ---- -- ------<br>------- --- ------ ----- --- ---- ------- -- ---- way --<br>------- ------,228763.23500002036,228761.00500003668,228474.305,228483.26000000816,228490.971,228774.293,,52,way
screen,html.Screen,1_1_1_1_53,2021-04-19T10:31:30.613Z,,,,,,,,,,,,,,,,54,,,,,,,,,,,,,,486.52200004510814,,response,,,,100,,,,,,,Space,keypress(Space),,,,,,,,-- --- ---- --- ------ ----- ------- ---- -- --- ------- --<br>------- ---------- ------ -- ----- -- ----- -- ---- ------<br>--- ----- --- --- ------ -------- ----- --- ------ ----- --<br>----- ----- ---------- --- --- ------ ------ ---- -- ------<br>------- --- ------ ----- --- ---- ------- -- ---- --- of<br>------- ------,229262.81000004383,229260.8150000451,228757.627,228763.35500000278,228774.293,229274.273,,53,of
screen,html.Screen,1_1_1_1_54,2021-04-19T10:31:31.043Z,,,,,,,,,,,,,,,,54,,,,,,,,,,,,,,413.5320000523352,,response,,,,100,,,,,,,Space,keypress(Space),,,,,,,,-- --- ---- --- ------ ----- ------- ---- -- --- ------- --<br>------- ---------- ------ -- ----- -- ----- -- ---- ------<br>--- ----- --- --- ------ -------- ----- --- ------ ----- --<br>----- ----- ---------- --- --- ------ ------ ---- -- ------<br>------- --- ------ ----- --- ---- ------- -- ---- --- --<br>raising ------,229692.90500000352,229687.80500005232,229257.607,229262.89500005078,229274.273,229707.589,,54,raising
screen,html.Screen,1_1_1_1_55,2021-04-19T10:31:31.504Z,,,,,,,,,,,,,,,,54,,,,,,,,,,,,,,443.1560000499303,,response,,,,100,,,,,,,Space,keypress(Space),,,,,,,,-- --- ---- --- ------ ----- ------- ---- -- --- ------- --<br>------- ---------- ------ -- ----- -- ----- -- ---- ------<br>--- ----- --- --- ------ -------- ----- --- ------ ----- --<br>----- ----- ---------- --- --- ------ ------ ---- -- ------<br>------- --- ------ ----- --- ---- ------- -- ---- --- --<br>------- money.,230153.2250000164,230150.74500004994,229690.923,229692.99500004854,229707.589,230157.571,,55,money.
Item 100,flow.Loop,1_1_1_1,2021-04-19T10:31:31.504Z,,,,,,,,,,,,,,,,,,,,,,,,,,,,,,27587.350000049948,,completion,,,,,F,,,,,,,,,,,silence,,,,,230153.61500001745,230150.74500004994,202546.729,202548.6900000251,202563.395,230157.571,,,
Question 1,html.Screen,1_1_1_2,2021-04-19T10:31:34.580Z,,,,,,,,,,,,,,,,,,,,,,,,,,,true,TRUE,,3070.264000026975,,response,,,,100,F,,,,,,TRUE,click #choice-1,,,,silence,,,,,233229.79000001214,233227.83500002697,230140.905,230153.7450000178,230157.571,233240.916,,,
Question 2,html.Screen,1_1_1_3,2021-04-19T10:31:37.398Z,,,,,,,,,,,,,,,,,,,,,,,,,,,true,FALSE,,2797.8490000047896,,response,,,,100,F,,,,,,FALSE,click #choice-2,,,,silence,,,,,236047.3350000102,236038.7650000048,233224.25,233229.90000003483,233240.916,236057.47,,,
Item 100,flow.Sequence,1_1_1,2021-04-19T10:31:37.398Z,,,,,,,,,,,,,,,,,,,,,,,,,,,,,,43472.73000000478,,completion,,,,,,,,,,,,,,,,,,,,,236047.49500000617,236038.7650000048,192549.369,192556.4950000262,192566.035,236057.47,,,
End of Practice,html.Page,1_1_2,2021-04-19T10:31:40.041Z,,,,,,,,,,,,,,,,,,,,,,,,,,,,,,2633.350000017992,,form submission,,,,,,,,,,,,,,,,,,,,,238691.0050000297,238690.820000018,236040.804,236047.6150000468,236057.47,238690.698,,,
Practice,flow.Sequence,1_1,2021-04-19T10:31:40.041Z,,,,,,,,,,,,,,,,,,,,,,,,,,,,,,100153.01900001799,,completion,,,,,,,,,,,,,,,,,,,,,238691.1400000099,238690.820000018,138521.135,138540.15000001527,138537.801,238690.698,,,
Trap_instruction,html.Page,1_2_0,2021-04-19T10:31:47.105Z,,,,,,,,,,,,,,,,,,,,,,,,,,,,,,7063.5320000204665,,form submission,,,,,,,,,,,,,,,,,,,,,245754.50000003912,245754.23000002047,238674.032,238691.2500000326,238690.698,245767.734,,,
trap_trial,html.Screen,1_2_1,2021-04-19T10:31:51.103Z,,,,,,,,,,,,,,,,,,,,,,,,,,,true,1,,3982.9360000376473,,response,,,,,,,,,,,1,click #choice-1,,,,,,,,,249752.63500004075,249750.67000003764,245751.068,245754.61500004167,245767.734,249767.574,,,
end of trap trial,html.Page,1_2_2,2021-04-19T10:31:52.809Z,,,,,,,,,,,,,,,,,,,,,,,,,,,,,,1691.1060000397556,,form submission,,,,,,,,,,,,,,,,,,,,,251458.94500002032,251458.68000003975,249750.908,249752.80000001658,249767.574,251467.506,,,
Trap 1,flow.Sequence,1_2,2021-04-19T10:31:52.809Z,,,,,,,,,,,,,,,,,,,,,,,,,,,,,,12767.982000039745,,completion,,,,,,,,,,,,,,,,,,,,,251459.11500003422,251458.68000003975,238674.032,238691.19500002125,238690.698,251467.506,,,
Standby,html.Page,1_3_0,2021-04-19T10:32:00.802Z,,,,,,,,,,,,,,,,,,,,,,,,,,,,,,7999.679999999993,,timeout,,,,,,,,,,,,,,,,,,,,,259452.09000003524,259450.52,251450.84,251459.33000004152,251467.506,259467.186,,,
Holding screen,html.Screen,1_3_1_0_0,2021-04-19T10:32:07.811Z,,,,,,,,,,,,,,,,,,,,,,,,,,,,,,7007.905000000028,,timeout,,,,,,,,,,,,,,,,,,,,,266461.5150000318,266458.425,259450.52,259452.47500005644,259467.186,266475.091,,,
screen,html.Screen,1_3_1_0_1_0,2021-04-19T10:32:11.721Z,,,,,,,,,,,,,,,,11,,,,,,,,,,,,,,3890.164000011515,,response,,,,4,F,,,,,,Space,keypress(Space),,,,instrumental,,,,Known -- ---- --- -- --- -------- ------------ ---------- --<br>- ------- ------ --------- -- ------------ -- --- ---- -----<br>------ ---- ---- ------ ------ ------- --- ----- ---------<br>---- --- -------- -------- --- --- -- ------- --- --- -----<br>-- --- ------ ------- --- --- -------- ---- --------- --<br>---------- -- -------- ----------------,270371.42999999924,270365.25500001153,266458.425,266462.0850000065,266475.091,270374.935,,0,Known
screen,html.Screen,1_3_1_0_1_1,2021-04-19T10:32:12.207Z,,,,,,,,,,,,,,,,11,,,,,,,,,,,,,,479.5550000561052,,response,,,,4,F,,,,,,Space,keypress(Space),,,,instrumental,,,,----- as ---- --- -- --- -------- ------------ ---------- --<br>- ------- ------ --------- -- ------------ -- --- ---- -----<br>------ ---- ---- ------ ------ ------- --- ----- ---------<br>---- --- -------- -------- --- --- -- ------- --- --- -----<br>-- --- ------ ------- --- --- -------- ---- --------- --<br>---------- -- -------- ----------------,270857.85000002943,270854.4900000561,270358.269,270371.7150000157,270374.935,270874.915,,1,as
screen,html.Screen,1_3_1_0_1_2,2021-04-19T10:32:12.689Z,,,,,,,,,,,,,,,,11,,,,,,,,,,,,,,459.5050000283518,,response,,,,4,F,,,,,,Space,keypress(Space),,,,instrumental,,,,----- -- Rapa --- -- --- -------- ------------ ---------- --<br>- ------- ------ --------- -- ------------ -- --- ---- -----<br>------ ---- ---- ------ ------ ------- --- ----- ---------<br>---- --- -------- -------- --- --- -- ------- --- --- -----<br>-- --- ------ ------- --- --- -------- ---- --------- --<br>---------- -- -------- ----------------,271339.67500005383,271334.42000002833,270858.249,270857.9800000298,270874.915,271355.131,,2,Rapa
screen,html.Screen,1_3_1_0_1_3,2021-04-19T10:32:13.327Z,,,,,,,,,,,,,,,,11,,,,,,,,,,,,,,620.2590000359924,,response,,,,4,F,,,,,,Space,keypress(Space),,,,instrumental,,,,----- -- ---- Nui -- --- -------- ------------ ---------- --<br>- ------- ------ --------- -- ------------ -- --- ---- -----<br>------ ---- ---- ------ ------ ------- --- ----- ---------<br>---- --- -------- -------- --- --- -- ------- --- --- -----<br>-- --- ------ ------- --- --- -------- ---- --------- --<br>---------- -- -------- ----------------,271978.1350000412,271975.390000036,271338.465,271339.85500002746,271355.131,271988.439,,3,Nui
screen,html.Screen,1_3_1_0_1_4,2021-04-19T10:32:13.952Z,,,,,,,,,,,,,,,,11,,,,,,,,,,,,,,611.7810000220779,,response,,,,4,F,,,,,,Space,keypress(Space),,,,instrumental,,,,----- -- ---- --- to --- -------- ------------ ---------- --<br>- ------- ------ --------- -- ------------ -- --- ---- -----<br>------ ---- ---- ------ ------ ------- --- ----- ---------<br>---- --- -------- -------- --- --- -- ------- --- --- -----<br>-- --- ------ ------- --- --- -------- ---- --------- --<br>---------- -- -------- ----------------,272603.11500000535,272600.2200000221,271971.773,271978.2899999991,271988.439,272605.081,,4,to
screen,html.Screen,1_3_1_0_1_5,2021-04-19T10:32:14.360Z,,,,,,,,,,,,,,,,11,,,,,,,,,,,,,,402.0990000150632,,response,,,,4,F,,,,,,Space,keypress(Space),,,,instrumental,,,,----- -- ---- --- -- the -------- ------------ ---------- --<br>- ------- ------ --------- -- ------------ -- --- ---- -----<br>------ ---- ---- ------ ------ ------- --- ----- ---------<br>---- --- -------- -------- --- --- -- ------- --- --- -----<br>-- --- ------ ------- --- --- -------- ---- --------- --<br>---------- -- -------- ----------------,273010.5700000422,273007.18000001507,272588.415,272603.2600000035,272605.081,273021.731,,5,the
screen,html.Screen,1_3_1_0_1_6,2021-04-19T10:32:14.957Z,,,,,,,,,,,,,,,,11,,,,,,,,,,,,,,580.6840000302764,,response,,,,4,F,,,,,,Space,keypress(Space),,,,instrumental,,,,----- -- ---- --- -- --- island's ------------ ---------- --<br>- ------- ------ --------- -- ------------ -- --- ---- -----<br>------ ---- ---- ------ ------ ------- --- ----- ---------<br>---- --- -------- -------- --- --- -- ------- --- --- -----<br>-- --- ------ ------- --- --- -------- ---- --------- --<br>---------- -- -------- ----------------,273608.06500003673,273602.4150000303,273005.065,273010.6900000246,273021.731,273621.707,,6,island's
screen,html.Screen,1_3_1_0_1_7,2021-04-19T10:32:15.783Z,,,,,,,,,,,,,,,,11,,,,,,,,,,,,,,806.5930000286899,,response,,,,4,F,,,,,,Space,keypress(Space),,,,instrumental,,,,"----- -- ---- --- -- --- -------- inhabitants, ---------- --<br>- ------- ------ --------- -- ------------ -- --- ---- -----<br>------ ---- ---- ------ ------ ------- --- ----- ---------<br>---- --- -------- -------- --- --- -- ------- --- --- -----<br>-- --- ------ ------- --- --- -------- ---- --------- --<br>---------- -- -------- ----------------",274433.6699999985,274428.3000000287,273605.041,273608.1750000012,273621.707,274438.341,,7,"inhabitants,"
screen,html.Screen,1_3_1_0_1_8,2021-04-19T10:32:16.893Z,,,,,,,,,,,,,,,,11,,,,,,,,,,,,,,1102.8390000001527,,response,,,,4,F,,,,,,Space,keypress(Space),,,,instrumental,,,,----- -- ---- --- -- --- -------- ------------ Rongorongo --<br>- ------- ------ --------- -- ------------ -- --- ---- -----<br>------ ---- ---- ------ ------ ------- --- ----- ---------<br>---- --- -------- -------- --- --- -- ------- --- --- -----<br>-- --- ------ ------- --- --- -------- ---- --------- --<br>---------- -- -------- ----------------,275543.6950000003,275541.18000000017,274421.675,274433.8900000439,274438.341,275554.963,,8,Rongorongo
screen,html.Screen,1_3_1_0_1_9,2021-04-19T10:32:17.403Z,,,,,,,,,,,,,,,,11,,,,,,,,,,,,,,496.3070000545122,,response,,,,4,F,,,,,,Space,keypress(Space),,,,instrumental,,,,----- -- ---- --- -- --- -------- ------------ ---------- is<br>- ------- ------ --------- -- ------------ -- --- ---- -----<br>------ ---- ---- ------ ------ ------- --- ----- ---------<br>---- --- -------- -------- --- --- -- ------- --- --- -----<br>-- --- ------ ------- --- --- -------- ---- --------- --<br>---------- -- -------- ----------------,276054.2050000513,276051.2700000545,275538.297,275543.880000012,275554.963,276054.943,,9,is
screen,html.Screen,1_3_1_0_1_10,2021-04-19T10:32:17.823Z,,,,,,,,,,,,,,,,11,,,,,,,,,,,,,,414.29700000578305,,response,,,,4,F,,,,,,Space,keypress(Space),,,,instrumental,,,,----- -- ---- --- -- --- -------- ------------ ---------- --<br>a ------- ------ --------- -- ------------ -- --- ---- -----<br>------ ---- ---- ------ ------ ------- --- ----- ---------<br>---- --- -------- -------- --- --- -- ------- --- --- -----<br>-- --- ------ ------- --- --- -------- ---- --------- --<br>---------- -- -------- ----------------,276473.63000002224,276469.2400000058,276038.277,276054.3700000271,276054.943,276488.259,,10,a
screen,html.Screen,1_3_1_0_1_11,2021-04-19T10:32:18.227Z,,,,,,,,,,,,,,,,11,,,,,,,,,,,,,,387.00600003876025,,response,,,,4,F,,,,,,Space,keypress(Space),,,,instrumental,,,,----- -- ---- --- -- --- -------- ------------ ---------- --<br>- writing ------ --------- -- ------------ -- --- ---- -----<br>------ ---- ---- ------ ------ ------- --- ----- ---------<br>---- --- -------- -------- --- --- -- ------- --- --- -----<br>-- --- ------ ------- --- --- -------- ---- --------- --<br>---------- -- -------- ----------------,276877.76000000304,276875.2650000388,276471.593,276473.730000027,276488.259,276888.243,,11,writing
screen,html.Screen,1_3_1_0_1_12,2021-04-19T10:32:18.661Z,,,,,,,,,,,,,,,,11,,,,,,,,,,,,,,420.93700004019774,,response,,,,4,F,,,,,,Space,keypress(Space),,,,instrumental,,,,----- -- ---- --- -- --- -------- ------------ ---------- --<br>- ------- system --------- -- ------------ -- --- ---- -----<br>------ ---- ---- ------ ------ ------- --- ----- ---------<br>---- --- -------- -------- --- --- -- ------- --- --- -----<br>-- --- ------ ------- --- --- -------- ---- --------- --<br>---------- -- -------- ----------------,277311.790000007,277309.1800000402,276871.577,276877.89500004146,276888.243,277321.559,,12,system
screen,html.Screen,1_3_1_0_1_13,2021-04-19T10:32:19.325Z,,,,,,,,,,,,,,,,11,,,,,,,,,,,,,,652.6460000349907,,response,,,,4,F,,,,,,Space,keypress(Space),,,,instrumental,,,,----- -- ---- --- -- --- -------- ------------ ---------- --<br>- ------- ------ comprised -- ------------ -- --- ---- -----<br>------ ---- ---- ------ ------ ------- --- ----- ---------<br>---- --- -------- -------- --- --- -- ------- --- --- -----<br>-- --- ------ ------- --- --- -------- ---- --------- --<br>---------- -- -------- ----------------,277976.48500005016,277974.205000035,277304.893,277311.94000004325,277321.559,277988.199,,13,comprised
screen,html.Screen,1_3_1_0_1_14,2021-04-19T10:32:19.684Z,,,,,,,,,,,,,,,,11,,,,,,,,,,,,,,340.90600001160055,,response,,,,4,F,,,,,,Space,keypress(Space),,,,instrumental,,,,----- -- ---- --- -- --- -------- ------------ ---------- --<br>- ------- ------ --------- of ------------ -- --- ---- -----<br>------ ---- ---- ------ ------ ------- --- ----- ---------<br>---- --- -------- -------- --- --- -- ------- --- --- -----<br>-- --- ------ ------- --- --- -------- ---- --------- --<br>---------- -- -------- ----------------,278335.0550000323,278329.1050000116,277971.533,277976.6000000527,277988.199,278338.185,,14,of
screen,html.Screen,1_3_1_0_1_15,2021-04-19T10:32:20.613Z,,,,,,,,,,,,,,,,11,,,,,,,,,,,,,,921.0450000251294,,response,,,,4,F,,,,,,Space,keypress(Space),,,,instrumental,,,,----- -- ---- --- -- --- -------- ------------ ---------- --<br>- ------- ------ --------- -- pictographs. -- --- ---- -----<br>------ ---- ---- ------ ------ ------- --- ----- ---------<br>---- --- -------- -------- --- --- -- ------- --- --- -----<br>-- --- ------ ------- --- --- -------- ---- --------- --<br>---------- -- -------- ----------------,279263.6600000551,279259.2300000251,278321.519,278335.2650000015,278338.185,279271.481,,15,pictographs.
screen,html.Screen,1_3_1_0_1_16,2021-04-19T10:32:20.985Z,,,,,,,,,,,,,,,,11,,,,,,,,,,,,,,358.8390000547515,,response,,,,4,F,,,,,,Space,keypress(Space),,,,instrumental,,,,----- -- ---- --- -- --- -------- ------------ ---------- --<br>- ------- ------ --------- -- ------------ It --- ---- -----<br>------ ---- ---- ------ ------ ------- --- ----- ---------<br>---- --- -------- -------- --- --- -- ------- --- --- -----<br>-- --- ------ ------- --- --- -------- ---- --------- --<br>---------- -- -------- ----------------,279636.24000002164,279630.3200000548,279254.815,279263.9950000448,279271.481,279638.133,,16,It
screen,html.Screen,1_3_1_0_1_17,2021-04-19T10:32:21.355Z,,,,,,,,,,,,,,,,11,,,,,,,,,,,,,,362.9770000120043,,response,,,,4,F,,,,,,Space,keypress(Space),,,,instrumental,,,,----- -- ---- --- -- --- -------- ------------ ---------- --<br>- ------- ------ --------- -- ------------ -- has ---- -----<br>------ ---- ---- ------ ------ ------- --- ----- ---------<br>---- --- -------- -------- --- --- -- ------- --- --- -----<br>-- --- ------ ------- --- --- -------- ---- --------- --<br>---------- -- -------- ----------------,280006.00000005215,280001.110000012,279621.467,279636.4650000469,279638.133,280021.451,,17,has
screen,html.Screen,1_3_1_0_1_18,2021-04-19T10:32:21.620Z,,,,,,,,,,,,,,,,11,,,,,,,,,,,,,,244.56400000106078,,response,,,,4,F,,,,,,Space,keypress(Space),,,,instrumental,,,,----- -- ---- --- -- --- -------- ------------ ---------- --<br>- ------- ------ --------- -- ------------ -- --- been -----<br>------ ---- ---- ------ ------ ------- --- ----- ---------<br>---- --- -------- -------- --- --- -- ------- --- --- -----<br>-- --- ------ ------- --- --- -------- ---- --------- --<br>---------- -- -------- ----------------,280271.27000002656,280266.01500000106,280004.785,280006.09500001883,280021.451,280288.107,,18,been
screen,html.Screen,1_3_1_0_1_19,2021-04-19T10:32:21.972Z,,,,,,,,,,,,,,,,11,,,,,,,,,,,,,,329.96300002589123,,response,,,,4,F,,,,,,Space,keypress(Space),,,,instrumental,,,,----- -- ---- --- -- --- -------- ------------ ---------- --<br>- ------- ------ --------- -- ------------ -- --- ---- found<br>------ ---- ---- ------ ------ ------- --- ----- ---------<br>---- --- -------- -------- --- --- -- ------- --- --- -----<br>-- --- ------ ------- --- --- -------- ---- --------- --<br>---------- -- -------- ----------------,280623.3300000313,280618.0700000259,280271.441,280271.4600000181,280288.107,280638.093,,19,found
screen,html.Screen,1_3_1_0_1_20,2021-04-19T10:32:22.405Z,,,,,,,,,,,,,,,,11,,,,,,,,,,,,,,415.07200004847255,,response,,,,4,F,,,,,,Space,keypress(Space),,,,instrumental,,,,----- -- ---- --- -- --- -------- ------------ ---------- --<br>- ------- ------ --------- -- ------------ -- --- ---- -----<br>carved ---- ---- ------ ------ ------- --- ----- ---------<br>---- --- -------- -------- --- --- -- ------- --- --- -----<br>-- --- ------ ------- --- --- -------- ---- --------- --<br>---------- -- -------- ----------------,281056.5050000441,281053.16500004847,280621.427,280623.49000002723,280638.093,281071.409,,20,carved
screen,html.Screen,1_3_1_0_1_21,2021-04-19T10:32:22.870Z,,,,,,,,,,,,,,,,11,,,,,,,,,,,,,,445.6660000397824,,response,,,,4,F,,,,,,Space,keypress(Space),,,,instrumental,,,,----- -- ---- --- -- --- -------- ------------ ---------- --<br>- ------- ------ --------- -- ------------ -- --- ---- -----<br>------ into ---- ------ ------ ------- --- ----- ---------<br>---- --- -------- -------- --- --- -- ------- --- --- -----<br>-- --- ------ ------- --- --- -------- ---- --------- --<br>---------- -- -------- ----------------,281521.0450000013,281517.07500003977,281054.743,281056.65500002215,281071.409,281532.77,,21,into
screen,html.Screen,1_3_1_0_1_22,2021-04-19T10:32:23.195Z,,,,,,,,,,,,,,,,11,,,,,,,,,,,,,,311.19500000728294,,response,,,,4,F,,,,,,Space,keypress(Space),,,,instrumental,,,,----- -- ---- --- -- --- -------- ------------ ---------- --<br>- ------- ------ --------- -- ------------ -- --- ---- -----<br>------ ---- many ------ ------ ------- --- ----- ---------<br>---- --- -------- -------- --- --- -- ------- --- --- -----<br>-- --- ------ ------- --- --- -------- ---- --------- --<br>---------- -- -------- ----------------,281846.5600000345,281843.9650000073,281516.104,281521.2000000174,281532.77,281849.424,,22,many
screen,html.Screen,1_3_1_0_1_23,2021-04-19T10:32:23.480Z,,,,,,,,,,,,,,,,11,,,,,,,,,,,,,,276.586000007228,,response,,,,4,F,,,,,,Space,keypress(Space),,,,instrumental,,,,----- -- ---- --- -- --- -------- ------------ ---------- --<br>- ------- ------ --------- -- ------------ -- --- ---- -----<br>------ ---- ---- oblong ------ ------- --- ----- ---------<br>---- --- -------- -------- --- --- -- ------- --- --- -----<br>-- --- ------ ------- --- --- -------- ---- --------- --<br>---------- -- -------- ----------------,282131.14000001224,282126.0100000072,281832.758,281846.669999999,281849.424,282132.746,,23,oblong
screen,html.Screen,1_3_1_0_1_24,2021-04-19T10:32:23.982Z,,,,,,,,,,,,,,,,11,,,,,,,,,,,,,,495.2740000037593,,response,,,,4,F,,,,,,Space,keypress(Space),,,,instrumental,,,,----- -- ---- --- -- --- -------- ------------ ---------- --<br>- ------- ------ --------- -- ------------ -- --- ---- -----<br>------ ---- ---- ------ wooden ------- --- ----- ---------<br>---- --- -------- -------- --- --- -- ------- --- --- -----<br>-- --- ------ ------- --- --- -------- ---- --------- --<br>---------- -- -------- ----------------,282633.73500003945,282628.02000000374,282116.08,282131.46000000415,282132.746,282649.392,,24,wooden
screen,html.Screen,1_3_1_0_1_25,2021-04-19T10:32:24.384Z,,,,,,,,,,,,,,,,11,,,,,,,,,,,,,,379.7580000166781,,response,,,,4,F,,,,,,Space,keypress(Space),,,,instrumental,,,,----- -- ---- --- -- --- -------- ------------ ---------- --<br>- ------- ------ --------- -- ------------ -- --- ---- -----<br>------ ---- ---- ------ ------ tablets --- ----- ---------<br>---- --- -------- -------- --- --- -- ------- --- --- -----<br>-- --- ------ ------- --- --- -------- ---- --------- --<br>---------- -- -------- ----------------,283034.9400000414,283029.15000001667,282632.726,282634.02500003576,282649.392,283049.376,,25,tablets
screen,html.Screen,1_3_1_0_1_26,2021-04-19T10:32:24.848Z,,,,,,,,,,,,,,,,11,,,,,,,,,,,,,,444.71400005108444,,response,,,,4,F,,,,,,Space,keypress(Space),,,,instrumental,,,,----- -- ---- --- -- --- -------- ------------ ---------- --<br>- ------- ------ --------- -- ------------ -- --- ---- -----<br>------ ---- ---- ------ ------ ------- and ----- ---------<br>---- --- -------- -------- --- --- -- ------- --- --- -----<br>-- --- ------ ------- --- --- -------- ---- --------- --<br>---------- -- -------- ----------------,283499.56500000553,283494.0900000511,283032.71,283035.2100000018,283049.376,283516.024,,26,and
screen,html.Screen,1_3_1_0_1_27,2021-04-19T10:32:25.286Z,,,,,,,,,,,,,,,,11,,,,,,,,,,,,,,417.1360000150744,,response,,,,4,F,,,,,,Space,keypress(Space),,,,instrumental,,,,----- -- ---- --- -- --- -------- ------------ ---------- --<br>- ------- ------ --------- -- ------------ -- --- ---- -----<br>------ ---- ---- ------ ------ ------- --- other ---------<br>---- --- -------- -------- --- --- -- ------- --- --- -----<br>-- --- ------ ------- --- --- -------- ---- --------- --<br>---------- -- -------- ----------------,283937.2350000194,283933.16000001505,283499.358,283499.7250000015,283516.024,283949.34,,27,other
screen,html.Screen,1_3_1_0_1_28,2021-04-19T10:32:25.652Z,,,,,,,,,,,,,,,,11,,,,,,,,,,,,,,348.6950000434299,,response,,,,4,F,,,,,,Space,keypress(Space),,,,instrumental,,,,----- -- ---- --- -- --- -------- ------------ ---------- --<br>- ------- ------ --------- -- ------------ -- --- ---- -----<br>------ ---- ---- ------ ------ ------- --- ----- artifacts<br>---- --- -------- -------- --- --- -- ------- --- --- -----<br>-- --- ------ ------- --- --- -------- ---- --------- --<br>---------- -- -------- ----------------,284303.0200000503,284298.03500004346,283932.674,283937.3650000198,283949.34,284315.992,,28,artifacts
screen,html.Screen,1_3_1_0_1_29,2021-04-19T10:32:26.100Z,,,,,,,,,,,,,,,,11,,,,,,,,,,,,,,431.1680000280612,,response,,,,4,F,,,,,,Space,keypress(Space),,,,instrumental,,,,----- -- ---- --- -- --- -------- ------------ ---------- --<br>- ------- ------ --------- -- ------------ -- --- ---- -----<br>------ ---- ---- ------ ------ ------- --- ----- ---------<br>from --- -------- -------- --- --- -- ------- --- --- -----<br>-- --- ------ ------- --- --- -------- ---- --------- --<br>---------- -- -------- ----------------,284751.3200000394,284747.1600000281,284299.326,284303.1300000148,284315.992,284765.974,,29,from
screen,html.Screen,1_3_1_0_1_30,2021-04-19T10:32:26.689Z,,,,,,,,,,,,,,,,11,,,,,,,,,,,,,,572.2660000118776,,response,,,,4,F,,,,,,Space,keypress(Space),,,,instrumental,,,,----- -- ---- --- -- --- -------- ------------ ---------- --<br>- ------- ------ --------- -- ------------ -- --- ---- -----<br>------ ---- ---- ------ ------ ------- --- ----- ---------<br>---- the -------- -------- --- --- -- ------- --- --- -----<br>-- --- ------ ------- --- --- -------- ---- --------- --<br>---------- -- -------- ----------------,285340.28500004206,285338.24000001187,284749.308,284751.46500003757,284765.974,285349.284,,30,the
screen,html.Screen,1_3_1_0_1_31,2021-04-19T10:32:27.059Z,,,,,,,,,,,,,,,,11,,,,,,,,,,,,,,358.73600002005696,,response,,,,4,F,,,,,,Space,keypress(Space),,,,instrumental,,,,----- -- ---- --- -- --- -------- ------------ ---------- --<br>- ------- ------ --------- -- ------------ -- --- ---- -----<br>------ ---- ---- ------ ------ ------- --- ----- ---------<br>---- --- island's -------- --- --- -- ------- --- --- -----<br>-- --- ------ ------- --- --- -------- ---- --------- --<br>---------- -- -------- ----------------,285710.4099999997,285708.02000002004,285332.618,285340.3750000289,285349.284,285715.936,,31,island's
screen,html.Screen,1_3_1_0_1_32,2021-04-19T10:32:27.477Z,,,,,,,,,,,,,,,,11,,,,,,,,,,,,,,409.1490000069607,,response,,,,4,F,,,,,,Space,keypress(Space),,,,instrumental,,,,----- -- ---- --- -- --- -------- ------------ ---------- --<br>- ------- ------ --------- -- ------------ -- --- ---- -----<br>------ ---- ---- ------ ------ ------- --- ----- ---------<br>---- --- -------- history. --- --- -- ------- --- --- -----<br>-- --- ------ ------- --- --- -------- ---- --------- --<br>---------- -- -------- ----------------,286128.88000003295,286125.08500000695,285699.27,285710.5000000447,285715.936,286132.586,,32,history.
screen,html.Screen,1_3_1_0_1_33,2021-04-19T10:32:27.891Z,,,,,,,,,,,,,,,,11,,,,,,,,,,,,,,407.4540000507841,,response,,,,4,F,,,,,,Space,keypress(Space),,,,instrumental,,,,----- -- ---- --- -- --- -------- ------------ ---------- --<br>- ------- ------ --------- -- ------------ -- --- ---- -----<br>------ ---- ---- ------ ------ ------- --- ----- ---------<br>---- --- -------- -------- The --- -- ------- --- --- -----<br>-- --- ------ ------- --- --- -------- ---- --------- --<br>---------- -- -------- ----------------,286542.6500000176,286540.0400000508,286115.92,286129.0250000311,286132.586,286549.236,,33,The
screen,html.Screen,1_3_1_0_1_34,2021-04-19T10:32:28.290Z,,,,,,,,,,,,,,,,11,,,,,,,,,,,,,,389.6190000149072,,response,,,,4,F,,,,,,Space,keypress(Space),,,,instrumental,,,,----- -- ---- --- -- --- -------- ------------ ---------- --<br>- ------- ------ --------- -- ------------ -- --- ---- -----<br>------ ---- ---- ------ ------ ------- --- ----- ---------<br>---- --- -------- -------- --- art -- ------- --- --- -----<br>-- --- ------ ------- --- --- -------- ---- --------- --<br>---------- -- -------- ----------------,286941.48500001756,286938.8550000149,286532.57,286542.785000056,286549.236,286949.22,,34,art
screen,html.Screen,1_3_1_0_1_35,2021-04-19T10:32:28.633Z,,,,,,,,,,,,,,,,11,,,,,,,,,,,,,,331.5750000278931,,response,,,,4,F,,,,,,Space,keypress(Space),,,,instrumental,,,,----- -- ---- --- -- --- -------- ------------ ---------- --<br>- ------- ------ --------- -- ------------ -- --- ---- -----<br>------ ---- ---- ------ ------ ------- --- ----- ---------<br>---- --- -------- -------- --- --- of ------- --- --- -----<br>-- --- ------ ------- --- --- -------- ---- --------- --<br>---------- -- -------- ----------------,287284.1400000034,287280.79500002787,286932.554,286941.620000056,286949.22,287299.206,,35,of
screen,html.Screen,1_3_1_0_1_36,2021-04-19T10:32:29.133Z,,,,,,,,,,,,,,,,11,,,,,,,,,,,,,,481.6990000505466,,response,,,,4,F,,,,,,Space,keypress(Space),,,,instrumental,,,,----- -- ---- --- -- --- -------- ------------ ---------- --<br>- ------- ------ --------- -- ------------ -- --- ---- -----<br>------ ---- ---- ------ ------ ------- --- ----- ---------<br>---- --- -------- -------- --- --- -- writing --- --- -----<br>-- --- ------ ------- --- --- -------- ---- --------- --<br>---------- -- -------- ----------------,287783.9700000477,287780.90500005055,287282.54,287284.2500000261,287299.206,287799.186,,36,writing
screen,html.Screen,1_3_1_0_1_37,2021-04-19T10:32:29.513Z,,,,,,,,,,,,,,,,11,,,,,,,,,,,,,,359.8539999986533,,response,,,,4,F,,,,,,Space,keypress(Space),,,,instrumental,,,,----- -- ---- --- -- --- -------- ------------ ---------- --<br>- ------- ------ --------- -- ------------ -- --- ---- -----<br>------ ---- ---- ------ ------ ------- --- ----- ---------<br>---- --- -------- -------- --- --- -- ------- was --- -----<br>-- --- ------ ------- --- --- -------- ---- --------- --<br>---------- -- -------- ----------------,288164.3750000512,288159.03999999864,287782.52,287784.0800000122,287799.186,288165.838,,37,was
screen,html.Screen,1_3_1_0_1_38,2021-04-19T10:32:29.834Z,,,,,,,,,,,,,,,,11,,,,,,,,,,,,,,316.2220000093803,,response,,,,4,F,,,,,,Space,keypress(Space),,,,instrumental,,,,----- -- ---- --- -- --- -------- ------------ ---------- --<br>- ------- ------ --------- -- ------------ -- --- ---- -----<br>------ ---- ---- ------ ------ ------- --- ----- ---------<br>---- --- -------- -------- --- --- -- ------- --- not -----<br>-- --- ------ ------- --- --- -------- ---- --------- --<br>---------- -- -------- ----------------,288485.55000004126,288482.06000000937,288149.172,288164.5750000025,288165.838,288499.158,,38,not
