sender,sender_type,sender_id,timestamp,meta,,Blues,Classical,Country,Dance,Electronic,Folk,Gospel,Hip-Hop,Jazz,Latin,Musical/Film,New-age,Pop,Provo_ID,R&B,Rap,Reggae,Religious,Rock,Soul,Swing,Traditional,age,artist_name,correct,correctResponse,distraction,duration,ended_on,familiarity,gender,headphone_check_performance,item,list,offensiveness,pleasantness,position_correct,preference,response,response_action,snippet_file,song_name,song_rating,sound,stimulus_1,stimulus_2,stimulus_3,text,time_commit,time_end,time_render,time_run,time_show,time_switch,url,word,word_ID
Introduction,html.Screen,0_0,2021-03-25T02:12:39.360Z,"{""labjs_version"":""20.2.2"",""labjs_build"":{""flavor"":""production"",""commit"":""a25486e0c714a0ae2ce03ff94b7bb6896854dcfa""},""location"":""https://run.pavlovia.org/mvasilev/music_b/"",""userAgent"":""Mozilla/5.0 (Windows NT 10.0; Win64; x64) AppleWebKit/537.36 (KHTML, like Gecko) Chrome/89.0.4389.90 Safari/537.36"",""platform"":""Win32"",""language"":""de-DE"",""locale"":""en-US"",""timeZone"":""Europe/London"",""timezoneOffset"":0,""screen_width"":2560,""screen_height"":1440,""scroll_width"":3200,""scroll_height"":1621,""window_innerWidth"":3200,""window_innerHeight"":1668,""devicePixelRatio"":0.800000011920929}",,,,,,,,,,,,,,,,,,,,,,,,,,,,,8712.578999996907,response,,,,,,,,,,continue,click button,,,,,,,,,17198.49500001874,17197.054999996908,8467.908,8451.375000004191,8484.476,17206.952,{},,
Volume calibration,html.Screen,0_1,2021-03-25T02:12:41.537Z,,,,,,,,,,,,,,,,,,,,,,,,,,,,,,2165.6530000404928,response,,,,,,,,,,continue,click button,,,,,,,,,19375.135000038426,19372.605000040494,17190.331,17198.774999997113,17206.952,19375.045,,,
Task instructions,html.Screen,0_2,2021-03-25T02:12:42.999Z,,,,,,,,,,,,,,,,,,,,,,,,,,,,,,1461.36000000911,response,,,,,,,,,,continue,click button,,,,,,,,,20837.014999997336,20836.40500000911,19358.365,19375.30000001425,19375.045,20842.676,,,
Sounds,html.Screen,0_3_0_0,2021-03-25T02:12:47.245Z,,,,,,,,,,,,,,,,,,,,,,,,,,,,,,4252.718000000001,timeout,,,,,,,,1,,,,,,,,S,I,O,,25083.50499998778,25078.769,20826.036,20837.230000004638,20842.676,25095.394,,,
Judgement,html.Screen,0_3_0_1,2021-03-25T02:12:47.958Z,,,,,,,,,,,,,,,,,,,,,,,,,,,true,1,,700.2460000257415,response,,,,,,,,1,,1,click #choice-1,,,,,S,I,O,,25796.65000003297,25795.64000002574,25078.769,25083.890000008978,25095.394,25812.63,,,
Trial,flow.Sequence,0_3_0,2021-03-25T02:12:47.959Z,,,,,,,,,,,,,,,,,,,,,,,,,,,,,,4952.964000025742,completion,,,,,,,,1,,,,,,,,S,I,O,,25797.060000011697,25795.64000002574,20826.036,20837.180000031367,20842.676,25812.63,,,
Sounds,html.Screen,0_3_1_0,2021-03-25T02:12:52.212Z,,,,,,,,,,,,,,,,,,,,,,,,,,,,,,4252.742999999999,timeout,,,,,,,,3,,,,,,,,I,O,S,,30049.809999996796,30048.763,25795.835,25797.239999985322,25812.63,30065.373,,,
Judgement,html.Screen,0_3_1_1,2021-03-25T02:12:53.773Z,,,,,,,,,,,,,,,,,,,,,,,,,,,true,3,,1545.4320000038933,response,,,,,,,,3,,3,click #choice-3,,,,,I,O,S,,31611.610000021756,31610.805000003893,30048.763,30050.150000024587,30065.373,31616.345,,,
Trial,flow.Sequence,0_3_1,2021-03-25T02:12:53.774Z,,,,,,,,,,,,,,,,,,,,,,,,,,,,,,5798.175000003892,completion,,,,,,,,3,,,,,,,,I,O,S,,31611.84999998659,31610.805000003893,25795.835,25797.19000001205,25812.63,31616.345,,,
Sounds,html.Screen,0_3_2_0,2021-03-25T02:12:58.015Z,,,,,,,,,,,,,,,,,,,,,,,,,,,,,,4252.909,timeout,,,,,,,,2,,,,,,,,O,S,I,,35853.4300000174,35852.517,31599.755,31612.005000002682,31616.345,35869.254,,,
Judgement,html.Screen,0_3_2_1,2021-03-25T02:12:58.492Z,,,,,,,,,,,,,,,,,,,,,,,,,,,true,2,,460.7809999917663,response,,,,,,,,2,,2,click #choice-2,,,,,O,S,I,,36330.71499998914,36330.03499999177,35852.517,35853.665000002366,35869.254,36336.125,,,
Trial,flow.Sequence,0_3_2,2021-03-25T02:12:58.493Z,,,,,,,,,,,,,,,,,,,,,,,,,,,,,,4713.689999991766,completion,,,,,,,,2,,,,,,,,O,S,I,,36330.92500001658,36330.03499999177,31599.755,31611.95500002941,31616.345,36336.125,,,
Sounds,html.Screen,0_3_3_0,2021-03-25T02:13:02.735Z,,,,,,,,,,,,,,,,,,,,,,,,,,,,,,4252.889999999999,timeout,,,,,,,,2,,,,,,,,I,S,O,,40573.190000024624,40572.289,36319.564,36331.059999996796,36336.125,40589.015,,,
Judgement,html.Screen,0_3_3_1,2021-03-25T02:13:03.444Z,,,,,,,,,,,,,,,,,,,,,,,,,,,true,2,,692.3550000406249,response,,,,,,,,2,,2,click #choice-2,,,,,I,S,O,,41282.095000031404,41281.370000040624,40572.289,40573.414999991655,40589.015,41289.424,,,
Trial,flow.Sequence,0_3_3,2021-03-25T02:13:03.444Z,,,,,,,,,,,,,,,,,,,,,,,,,,,,,,4945.245000040624,completion,,,,,,,,2,,,,,,,,I,S,O,,41282.29000000283,41281.370000040624,36319.564,36331.01500000339,36336.125,41289.424,,,
Sounds,html.Screen,0_3_4_0,2021-03-25T02:13:07.688Z,,,,,,,,,,,,,,,,,,,,,,,,,,,,,,4252.860000000001,timeout,,,,,,,,1,,,,,,,,S,O,I,,45526.490000018384,45525.538,41272.818,41282.41500002332,41289.424,45542.284,,,
Judgement,html.Screen,0_3_4_1,2021-03-25T02:13:08.211Z,,,,,,,,,,,,,,,,,,,,,,,,,,,true,1,,506.3360000159446,response,,,,,,,,1,,1,click #choice-1,,,,,S,O,I,,46049.43000001367,46048.620000015944,45525.538,45526.72000002349,45542.284,46059.24,,,
Trial,flow.Sequence,0_3_4,2021-03-25T02:13:08.211Z,,,,,,,,,,,,,,,,,,,,,,,,,,,,,,4759.196000015945,completion,,,,,,,,1,,,,,,,,S,O,I,,46049.620000005234,46048.620000015944,41272.818,41282.37500000978,41289.424,46059.24,,,
Sounds,html.Screen,0_3_5_0,2021-03-25T02:13:12.458Z,,,,,,,,,,,,,,,,,,,,,,,,,,,,,,4252.840000000004,timeout,,,,,,,,3,,,,,,,,O,I,S,,50296.31499998504,50295.389,46042.573,46049.74500002572,46059.24,50312.08,,,
Judgement,html.Screen,0_3_5_1,2021-03-25T02:13:13.098Z,,,,,,,,,,,,,,,,,,,,,,,,,,,true,3,,623.7550000111369,response,,,,,,,,3,,3,click #choice-3,,,,,O,I,S,,50936.61500001326,50935.83500001114,50295.389,50296.54499999015,50312.08,50945.79,,,
Trial,flow.Sequence,0_3_5,2021-03-25T02:13:13.099Z,,,,,,,,,,,,,,,,,,,,,,,,,,,,,,4876.595000011141,completion,,,,,,,,3,,,,,,,,O,I,S,,50936.805000004824,50935.83500001114,46042.573,46049.70500001218,46059.24,50945.79,,,
Task,flow.Loop,0_3,2021-03-25T02:13:13.102Z,,,,,,,,,,,,,,,,,,,,,,,,,,,,,,30093.15900001114,completion,,,1,,,,,,,,,,,,,,,,,50940.75499998871,50935.83500001114,20826.036,20837.13500003796,20842.676,50945.79,,,
Trap,html.Screen,0_4,2021-03-25T02:13:13.105Z,,,,,,,,,,,,,,,,,,,,,,,,,,,,,,NaN,skipped,,,,,,,,,,,,,,,,,,,,50943.000000028405,50935.83500001114,,50942.86499998998,,50945.79,,,
Thanks,html.Screen,0_5,2021-03-25T02:13:17.498Z,,,,,,,,,,,,,,,,,,,,,,,,,,,,,,4389.315000005568,response,,,,,,,,,,continue,click button,,,,,,,,,55335.825000016484,55335.10500000557,50929.153,50943.11500003096,50945.79,56549.331,,,
Headphone screening,flow.Sequence,0,2021-03-25T02:13:17.498Z,,,,,,,,,,,,,,,,,,,,,,,,,,,,,,46850.62900000557,completion,,,,,,,,,,,,,,,,,,,,55336.01500000805,55335.10500000557,8467.908,8451.349999988452,8484.476,56549.331,,,
Instructions,html.Page,1_0,2021-03-25T02:13:22.172Z,,,,,,,,,,,,,,,,,,,,,,,,,,,,,,3460.428999986274,form submission,,,,,,,,,,,,,,,,,,,,60010.18500002101,60009.75999998627,56532.765,56541.55999998329,56549.331,60018.422,,,
Holding screen,html.Screen,1_1_0_0,2021-03-25T02:13:29.169Z,,,,,,,,,,,,,,,,,,,,,,,,,,,,,,7021.2980000000025,timeout,,,,,,,,,,,,,,,,,,,,67007.13500002166,67006.36,60001.783,60010.40000002831,60018.422,67039.72,,,
screen,html.Screen,1_1_0_1_0,2021-03-25T02:13:29.933Z,,,,,,,,,,,,,,,,53,,,,,,,,,,,,,,726.7700000090699,response,,,,99,,,,,,Space,keypress(Space),,,,,,,,When -- ----- -- ------ - ------- --- ----------<br>------------- ------ ------ ---- ---- ------- ----- -- ----<br>-------- ------- -- ---------- --- - --- ----- ----- ----<br>---- --- --- ----- --- ---- ---- ------- ----- ---- -------<br>--- --- -- ----- -- --- ---- -- --- ---- -- ------ ------<br>--- ----- -- ----,67771.0950000328,67766.49000000907,67006.36,67007.48999998905,67039.72,67773.537,,0,When
screen,html.Screen,1_1_0_1_1,2021-03-25T02:13:30.280Z,,,,,,,,,,,,,,,,53,,,,,,,,,,,,,,343.8029999970604,response,,,,99,,,,,,Space,keypress(Space),,,,,,,,---- it ----- -- ------ - ------- --- ----------<br>------------- ------ ------ ---- ---- ------- ----- -- ----<br>-------- ------- -- ---------- --- - --- ----- ----- ----<br>---- --- --- ----- --- ---- ---- ------- ----- ---- -------<br>--- --- -- ----- -- --- ---- -- --- ---- -- ------ ------<br>--- ----- -- ----,68118.15500003286,68117.33999999706,67756.949,67771.37500001118,67773.537,68123.763,,1,it
screen,html.Screen,1_1_0_1_2,2021-03-25T02:13:30.600Z,,,,,,,,,,,,,,,,53,,,,,,,,,,,,,,313.62700003551436,response,,,,99,,,,,,Space,keypress(Space),,,,,,,,---- -- comes -- ------ - ------- --- ----------<br>------------- ------ ------ ---- ---- ------- ----- -- ----<br>-------- ------- -- ---------- --- - --- ----- ----- ----<br>---- --- --- ----- --- ---- ---- ------- ----- ---- -------<br>--- --- -- ----- -- --- ---- -- --- ---- -- ------ ------<br>--- ----- -- ----,68438.29000002006,68437.39000003552,68107.127,68118.37999999989,68123.763,68440.653,,2,comes
screen,html.Screen,1_1_0_1_3,2021-03-25T02:13:30.936Z,,,,,,,,,,,,,,,,53,,,,,,,,,,,,,,332.66199999854143,response,,,,99,,,,,,Space,keypress(Space),,,,,,,,---- -- ----- to ------ - ------- --- ----------<br>------------- ------ ------ ---- ---- ------- ----- -- ----<br>-------- ------- -- ---------- --- - --- ----- ----- ----<br>---- --- --- ----- --- ---- ---- ------- ----- ---- -------<br>--- --- -- ----- -- --- ---- -- --- ---- -- ------ ------<br>--- ----- -- ----,68774.12000001641,68773.31499999855,68423.999,68438.5299999849,68440.653,68790.896,,3,to
screen,html.Screen,1_1_0_1_4,2021-03-25T02:13:31.256Z,,,,,,,,,,,,,,,,53,,,,,,,,,,,,,,302.31900000078895,response,,,,99,,,,,,Space,keypress(Space),,,,,,,,---- -- ----- -- having - ------- --- ----------<br>------------- ------ ------ ---- ---- ------- ----- -- ----<br>-------- ------- -- ---------- --- - --- ----- ----- ----<br>---- --- --- ----- --- ---- ---- ------- ----- ---- -------<br>--- --- -- ----- -- --- ---- -- --- ---- -- ------ ------<br>--- ----- -- ----,69093.99000002304,69093.21500000078,68774.232,68774.35000002151,68790.896,69107.733,,4,having
screen,html.Screen,1_1_0_1_5,2021-03-25T02:13:31.600Z,,,,,,,,,,,,,,,,53,,,,,,,,,,,,,,329.3919999967475,response,,,,99,,,,,,Space,keypress(Space),,,,,,,,---- -- ----- -- ------ a ------- --- ----------<br>------------- ------ ------ ---- ---- ------- ----- -- ----<br>-------- ------- -- ---------- --- - --- ----- ----- ----<br>---- --- --- ----- --- ---- ---- ------- ----- ---- -------<br>--- --- -- ----- -- --- ---- -- --- ---- -- ------ ------<br>--- ----- -- ----,69437.89000000106,69437.12499999674,69091.097,69094.21499999007,69107.733,69441.271,,5,a
screen,html.Screen,1_1_0_1_6,2021-03-25T02:13:31.927Z,,,,,,,,,,,,,,,,53,,,,,,,,,,,,,,323.7789999872475,response,,,,99,,,,,,Space,keypress(Space),,,,,,,,---- -- ----- -- ------ - lasting --- ----------<br>------------- ------ ------ ---- ---- ------- ----- -- ----<br>-------- ------- -- ---------- --- - --- ----- ----- ----<br>---- --- --- ----- --- ---- ---- ------- ----- ---- -------<br>--- --- -- ----- -- --- ---- -- --- ---- -- ------ ------<br>--- ----- -- ----,69765.76500001829,69765.04999998724,69424.663,69438.10999998823,69441.271,69774.75,,6,lasting
screen,html.Screen,1_1_0_1_7,2021-03-25T02:13:32.271Z,,,,,,,,,,,,,,,,53,,,,,,,,,,,,,,334.2349999989383,response,,,,99,,,,,,Space,keypress(Space),,,,,,,,---- -- ----- -- ------ - ------- and ----------<br>------------- ------ ------ ---- ---- ------- ----- -- ----<br>-------- ------- -- ---------- --- - --- ----- ----- ----<br>---- --- --- ----- --- ---- ---- ------- ----- ---- -------<br>--- --- -- ----- -- --- ---- -- --- ---- -- ------ ------<br>--- ----- -- ----,70109.75499998312,70108.98499999894,69758.201,69765.98500000546,69774.75,70125.065,,7,and
screen,html.Screen,1_1_0_1_8,2021-03-25T02:13:32.688Z,,,,,,,,,,,,,,,,53,,,,,,,,,,,,,,399.94000000314554,response,,,,99,,,,,,Space,keypress(Space),,,,,,,,---- -- ----- -- ------ - ------- --- fulfilling<br>------------- ------ ------ ---- ---- ------- ----- -- ----<br>-------- ------- -- ---------- --- - --- ----- ----- ----<br>---- --- --- ----- --- ---- ---- ------- ----- ---- -------<br>--- --- -- ----- -- --- ---- -- --- ---- -- ------ ------<br>--- ----- -- ----,70525.82500001881,70525.00500000315,70108.436,70109.98499998823,70125.065,70542.063,,8,fulfilling
screen,html.Screen,1_1_0_1_9,2021-03-25T02:13:33.167Z,,,,,,,,,,,,,,,,53,,,,,,,,,,,,,,462.8870000313909,response,,,,99,,,,,,Space,keypress(Space),,,,,,,,"---- -- ----- -- ------ - ------- --- ----------<br>relationship, ------ ------ ---- ---- ------- ----- -- ----<br>-------- ------- -- ---------- --- - --- ----- ----- ----<br>---- --- --- ----- --- ---- ---- ------- ----- ---- -------<br>--- --- -- ----- -- --- ---- -- --- ---- -- ------ ------<br>--- ----- -- ----",71005.73000003351,71004.95000003139,70525.4,70526.06499998365,70542.063,71009.005,,9,"relationship,"
screen,html.Screen,1_1_0_1_10,2021-03-25T02:13:33.687Z,,,,,,,,,,,,,,,,53,,,,,,,,,,,,,,515.8050000317162,response,,,,99,,,,,,Space,keypress(Space),,,,,,,,---- -- ----- -- ------ - ------- --- ----------<br>------------- common ------ ---- ---- ------- ----- -- ----<br>-------- ------- -- ---------- --- - --- ----- ----- ----<br>---- --- --- ----- --- ---- ---- ------- ----- ---- -------<br>--- --- -- ----- -- --- ---- -- --- ---- -- ------ ------<br>--- ----- -- ----,71525.62000002945,71524.81000003172,70992.371,71005.96000003861,71009.005,71542.712,,10,common
screen,html.Screen,1_1_0_1_11,2021-03-25T02:13:34.127Z,,,,,,,,,,,,,,,,53,,,,,,,,,,,,,,422.09299999597715,response,,,,99,,,,,,Space,keypress(Space),,,,,,,,---- -- ----- -- ------ - ------- --- ----------<br>------------- ------ wisdom ---- ---- ------- ----- -- ----<br>-------- ------- -- ---------- --- - --- ----- ----- ----<br>---- --- --- ----- --- ---- ---- ------- ----- ---- -------<br>--- --- -- ----- -- --- ---- -- --- ---- -- ------ ------<br>--- ----- -- ----,71965.6299999915,71964.80499999598,71526.062,71525.85999999428,71542.712,71976.232,,11,wisdom
screen,html.Screen,1_1_0_1_12,2021-03-25T02:13:34.527Z,,,,,,,,,,,,,,,,53,,,,,,,,,,,,,,388.4580000167043,response,,,,99,,,,,,Space,keypress(Space),,,,,,,,---- -- ----- -- ------ - ------- --- ----------<br>------------- ------ ------ says ---- ------- ----- -- ----<br>-------- ------- -- ---------- --- - --- ----- ----- ----<br>---- --- --- ----- --- ---- ---- ------- ----- ---- -------<br>--- --- -- ----- -- --- ---- -- --- ---- -- ------ ------<br>--- ----- -- ----,72365.44999998296,72364.69000001671,71959.664,71965.85500001675,71976.232,72376.55,,12,says
screen,html.Screen,1_1_0_1_13,2021-03-25T02:13:34.935Z,,,,,,,,,,,,,,,,53,,,,,,,,,,,,,,396.0599999854312,response,,,,99,,,,,,Space,keypress(Space),,,,,,,,---- -- ----- -- ------ - ------- --- ----------<br>------------- ------ ------ ---- that ------- ----- -- ----<br>-------- ------- -- ---------- --- - --- ----- ----- ----<br>---- --- --- ----- --- ---- ---- ------- ----- ---- -------<br>--- --- -- ----- -- --- ---- -- --- ---- -- ------ ------<br>--- ----- -- ----,72773.38000002783,72772.60999998543,72359.924,72365.690000006,72376.55,72776.827,,13,that
screen,html.Screen,1_1_0_1_14,2021-03-25T02:13:35.311Z,,,,,,,,,,,,,,,,53,,,,,,,,,,,,,,371.7229999835108,response,,,,99,,,,,,Space,keypress(Space),,,,,,,,---- -- ----- -- ------ - ------- --- ----------<br>------------- ------ ------ ---- ---- feeling ----- -- ----<br>-------- ------- -- ---------- --- - --- ----- ----- ----<br>---- --- --- ----- --- ---- ---- ------- ----- ---- -------<br>--- --- -- ----- -- --- ---- -- --- ---- -- ------ ------<br>--- ----- -- ----,73149.32999998564,73148.54999998352,72760.183,72773.61000003293,72776.827,73160.33,,14,feeling
screen,html.Screen,1_1_0_1_15,2021-03-25T02:13:35.695Z,,,,,,,,,,,,,,,,53,,,,,,,,,,,,,,372.1300000167248,response,,,,99,,,,,,Space,keypress(Space),,,,,,,,---- -- ----- -- ------ - ------- --- ----------<br>------------- ------ ------ ---- ---- ------- close -- ----<br>-------- ------- -- ---------- --- - --- ----- ----- ----<br>---- --- --- ----- --- ---- ---- ------- ----- ---- -------<br>--- --- -- ----- -- --- ---- -- --- ---- -- ------ ------<br>--- ----- -- ----,73533.1700000097,73532.46000001673,73143.768,73149.57000000868,73160.33,73543.975,,15,close
screen,html.Screen,1_1_0_1_16,2021-03-25T02:13:36.071Z,,,,,,,,,,,,,,,,53,,,,,,,,,,,,,,364.5599999950209,response,,,,99,,,,,,Space,keypress(Space),,,,,,,,---- -- ----- -- ------ - ------- --- ----------<br>------------- ------ ------ ---- ---- ------- ----- to ----<br>-------- ------- -- ---------- --- - --- ----- ----- ----<br>---- --- --- ----- --- ---- ---- ------- ----- ---- -------<br>--- --- -- ----- -- --- ---- -- --- ---- -- ------ ------<br>--- ----- -- ----,73909.33500003302,73908.53499999503,73527.352,73533.38999999687,73543.975,73936.9,,16,to
screen,html.Screen,1_1_0_1_17,2021-03-25T02:13:36.519Z,,,,,,,,,,,,,,,,53,,,,,,,,,,,,,,419.5299999852723,response,,,,99,,,,,,Space,keypress(Space),,,,,,,,---- -- ----- -- ------ - ------- --- ----------<br>------------- ------ ------ ---- ---- ------- ----- -- your<br>-------- ------- -- ---------- --- - --- ----- ----- ----<br>---- --- --- ----- --- ---- ---- ------- ----- ---- -------<br>--- --- -- ----- -- --- ---- -- --- ---- -- ------ ------<br>--- ----- -- ----,74357.23000002326,74356.42999998527,73894.257,73909.570000018,73936.9,74361.197,,17,your
screen,html.Screen,1_1_0_1_18,2021-03-25T02:13:36.903Z,,,,,,,,,,,,,,,,53,,,,,,,,,,,,,,379.13300000054005,response,,,,99,,,,,,Space,keypress(Space),,,,,,,,---- -- ----- -- ------ - ------- --- ----------<br>------------- ------ ------ ---- ---- ------- ----- -- ----<br>romantic ------- -- ---------- --- - --- ----- ----- ----<br>---- --- --- ----- --- ---- ---- ------- ----- ---- -------<br>--- --- -- ----- -- --- ---- -- --- ---- -- ------ ------<br>--- ----- -- ----,74741.02499999572,74740.33000000054,74344.564,74357.46000002837,74361.197,74744.78,,18,romantic
screen,html.Screen,1_1_0_1_19,2021-03-25T02:13:37.319Z,,,,,,,,,,,,,,,,53,,,,,,,,,,,,,,411.53500002928195,response,,,,99,,,,,,Space,keypress(Space),,,,,,,,---- -- ----- -- ------ - ------- --- ----------<br>------------- ------ ------ ---- ---- ------- ----- -- ----<br>-------- partner -- ---------- --- - --- ----- ----- ----<br>---- --- --- ----- --- ---- ---- ------- ----- ---- -------<br>--- --- -- ----- -- --- ---- -- --- ---- -- ------ ------<br>--- ----- -- ----,75157.10000001127,75156.31500002928,74728.143,74741.25500000082,74744.78,75161.683,,19,partner
screen,html.Screen,1_1_0_1_20,2021-03-25T02:13:37.711Z,,,,,,,,,,,,,,,,53,,,,,,,,,,,,,,386.51200003940903,response,,,,99,,,,,,Space,keypress(Space),,,,,,,,---- -- ----- -- ------ - ------- --- ----------<br>------------- ------ ------ ---- ---- ------- ----- -- ----<br>-------- ------- is ---------- --- - --- ----- ----- ----<br>---- --- --- ----- --- ---- ---- ------- ----- ---- -------<br>--- --- -- ----- -- --- ---- -- --- ---- -- ------ ------<br>--- ----- -- ----,75549.04499999247,75548.19500003941,75145.092,75157.32500003651,75161.683,75561.95,,20,is
screen,html.Screen,1_1_0_1_21,2021-03-25T02:13:38.079Z,,,,,,,,,,,,,,,,53,,,,,,,,,,,,,,354.1400000133581,response,,,,99,,,,,,Space,keypress(Space),,,,,,,,---- -- ----- -- ------ - ------- --- ----------<br>------------- ------ ------ ---- ---- ------- ----- -- ----<br>-------- ------- -- paramount. --- - --- ----- ----- ----<br>---- --- --- ----- --- ---- ---- ------- ----- ---- -------<br>--- --- -- ----- -- --- ---- -- --- ---- -- ------ ------<br>--- ----- -- ----,75916.88000003342,75916.09000001336,75545.308,75549.31000003126,75561.95,75928.852,,21,paramount.
screen,html.Screen,1_1_0_1_22,2021-03-25T02:13:38.535Z,,,,,,,,,,,,,,,,53,,,,,,,,,,,,,,443.29300003028766,response,,,,99,,,,,,Space,keypress(Space),,,,,,,,---- -- ----- -- ------ - ------- --- ----------<br>------------- ------ ------ ---- ---- ------- ----- -- ----<br>-------- ------- -- ---------- But - --- ----- ----- ----<br>---- --- --- ----- --- ---- ---- ------- ----- ---- -------<br>--- --- -- ----- -- --- ---- -- --- ---- -- ------ ------<br>--- ----- -- ----,76373.01999999909,76372.14500003029,75912.213,75917.10500000045,75928.852,76379.156,,22,But
screen,html.Screen,1_1_0_1_23,2021-03-25T02:13:38.903Z,,,,,,,,,,,,,,,,53,,,,,,,,,,,,,,360.94399999543384,response,,,,99,,,,,,Space,keypress(Space),,,,,,,,---- -- ----- -- ------ - ------- --- ----------<br>------------- ------ ------ ---- ---- ------- ----- -- ----<br>-------- ------- -- ---------- --- a --- ----- ----- ----<br>---- --- --- ----- --- ---- ---- ------- ----- ---- -------<br>--- --- -- ----- -- --- ---- -- --- ---- -- ------ ------<br>--- ----- -- ----,76740.8900000155,76740.09999999544,76362.566,76373.25000000419,76379.156,76746.063,,23,a
screen,html.Screen,1_1_0_1_24,2021-03-25T02:13:39.263Z,,,,,,,,,,,,,,,,53,,,,,,,,,,,,,,353.95700001259684,response,,,,99,,,,,,Space,keypress(Space),,,,,,,,---- -- ----- -- ------ - ------- --- ----------<br>------------- ------ ------ ---- ---- ------- ----- -- ----<br>-------- ------- -- ---------- --- - new ----- ----- ----<br>---- --- --- ----- --- ---- ---- ------- ----- ---- -------<br>--- --- -- ----- -- --- ---- -- --- ---- -- ------ ------<br>--- ----- -- ----,77100.81000003265,77100.02000001259,76729.456,76741.13000003854,76746.063,77112.982,,24,new
screen,html.Screen,1_1_0_1_25,2021-03-25T02:13:39.630Z,,,,,,,,,,,,,,,,53,,,,,,,,,,,,,,354.94799998433155,response,,,,99,,,,,,Space,keypress(Space),,,,,,,,---- -- ----- -- ------ - ------- --- ----------<br>------------- ------ ------ ---- ---- ------- ----- -- ----<br>-------- ------- -- ---------- --- - --- study ----- ----<br>---- --- --- ----- --- ---- ---- ------- ----- ---- -------<br>--- --- -- ----- -- --- ---- -- --- ---- -- ------ ------<br>--- ----- -- ----,77468.70999998646,77467.92999998434,77096.324,77101.04500001762,77112.982,77479.893,,25,study
screen,html.Screen,1_1_0_1_26,2021-03-25T02:13:40.063Z,,,,,,,,,,,,,,,,53,,,,,,,,,,,,,,420.8819999873376,response,,,,99,,,,,,Space,keypress(Space),,,,,,,,---- -- ----- -- ------ - ------- --- ----------<br>------------- ------ ------ ---- ---- ------- ----- -- ----<br>-------- ------- -- ---------- --- - --- ----- finds ----<br>---- --- --- ----- --- ---- ---- ------- ----- ---- -------<br>--- --- -- ----- -- --- ---- -- --- ---- -- ------ ------<br>--- ----- -- ----,77901.55000000959,77900.77499998733,77463.276,77468.9350000117,77479.893,77913.57,,26,finds
screen,html.Screen,1_1_0_1_27,2021-03-25T02:13:40.478Z,,,,,,,,,,,,,,,,53,,,,,,,,,,,,,,402.3050000293297,response,,,,99,,,,,,Space,keypress(Space),,,,,,,,---- -- ----- -- ------ - ------- --- ----------<br>------------- ------ ------ ---- ---- ------- ----- -- ----<br>-------- ------- -- ---------- --- - --- ----- ----- that<br>---- --- --- ----- --- ---- ---- ------- ----- ---- -------<br>--- --- -- ----- -- --- ---- -- --- ---- -- ------ ------<br>--- ----- -- ----,78316.76499999594,78315.87500002934,77896.85,77901.77500003483,77913.57,78330.437,,27,that
screen,html.Screen,1_1_0_1_28,2021-03-25T02:13:40.910Z,,,,,,,,,,,,,,,,53,,,,,,,,,,,,,,417.24300002949894,response,,,,99,,,,,,Space,keypress(Space),,,,,,,,---- -- ----- -- ------ - ------- --- ----------<br>------------- ------ ------ ---- ---- ------- ----- -- ----<br>-------- ------- -- ---------- --- - --- ----- ----- ----<br>it's --- --- ----- --- ---- ---- ------- ----- ---- -------<br>--- --- -- ----- -- --- ---- -- --- ---- -- ------ ------<br>--- ----- -- ----,78748.45499999356,78747.6800000295,78313.836,78317.00999999885,78330.437,78764.138,,28,it's
screen,html.Screen,1_1_0_1_29,2021-03-25T02:13:41.326Z,,,,,,,,,,,,,,,,53,,,,,,,,,,,,,,399.5470000359055,response,,,,99,,,,,,Space,keypress(Space),,,,,,,,---- -- ----- -- ------ - ------- --- ----------<br>------------- ------ ------ ---- ---- ------- ----- -- ----<br>-------- ------- -- ---------- --- - --- ----- ----- ----<br>---- not --- ----- --- ---- ---- ------- ----- ---- -------<br>--- --- -- ----- -- --- ---- -- --- ---- -- ------ ------<br>--- ----- -- ----,79164.46500003804,79163.68500003591,78747.461,78748.68499999866,78764.138,79181.062,,29,not
screen,html.Screen,1_1_0_1_30,2021-03-25T02:13:41.726Z,,,,,,,,,,,,,,,,53,,,,,,,,,,,,,,382.5829999874404,response,,,,99,,,,,,Space,keypress(Space),,,,,,,,---- -- ----- -- ------ - ------- --- ----------<br>------------- ------ ------ ---- ---- ------- ----- -- ----<br>-------- ------- -- ---------- --- - --- ----- ----- ----<br>---- --- how ----- --- ---- ---- ------- ----- ---- -------<br>--- --- -- ----- -- --- ---- -- --- ---- -- ------ ------<br>--- ----- -- ----,79564.39499999397,79563.64499998745,79164.399,79164.69499998493,79181.062,79581.334,,30,how
screen,html.Screen,1_1_0_1_31,2021-03-25T02:13:42.110Z,,,,,,,,,,,,,,,,53,,,,,,,,,,,,,,366.2210000206542,response,,,,99,,,,,,Space,keypress(Space),,,,,,,,---- -- ----- -- ------ - ------- --- ----------<br>------------- ------ ------ ---- ---- ------- ----- -- ----<br>-------- ------- -- ---------- --- - --- ----- ----- ----<br>---- --- --- close --- ---- ---- ------- ----- ---- -------<br>--- --- -- ----- -- --- ---- -- --- ---- -- ------ ------<br>--- ----- -- ----,79948.36000003852,79947.55500002066,79564.658,79564.63000003714,79581.334,79964.912,,31,close
screen,html.Screen,1_1_0_1_32,2021-03-25T02:13:42.518Z,,,,,,,,,,,,,,,,53,,,,,,,,,,,,,,390.76800003695826,response,,,,99,,,,,,Space,keypress(Space),,,,,,,,---- -- ----- -- ------ - ------- --- ----------<br>------------- ------ ------ ---- ---- ------- ----- -- ----<br>-------- ------- -- ---------- --- - --- ----- ----- ----<br>---- --- --- ----- you ---- ---- ------- ----- ---- -------<br>--- --- -- ----- -- --- ---- -- --- ---- -- ------ ------<br>--- ----- -- ----,80356.46000003908,80355.68000003695,79948.259,79948.58500000555,79964.912,80365.163,,32,you
screen,html.Screen,1_1_0_1_33,2021-03-25T02:13:42.926Z,,,,,,,,,,,,,,,,53,,,,,,,,,,,,,,398.2270000364515,response,,,,99,,,,,,Space,keypress(Space),,,,,,,,---- -- ----- -- ------ - ------- --- ----------<br>------------- ------ ------ ---- ---- ------- ----- -- ----<br>-------- ------- -- ---------- --- - --- ----- ----- ----<br>---- --- --- ----- --- feel ---- ------- ----- ---- -------<br>--- --- -- ----- -- --- ---- -- --- ---- -- ------ ------<br>--- ----- -- ----,80764.13000002503,80763.39000003645,80348.507,80356.69500002405,80365.163,80782.079,,33,feel
screen,html.Screen,1_1_0_1_34,2021-03-25T02:13:43.294Z,,,,,,,,,,,,,,,,53,,,,,,,,,,,,,,349.1910000125936,response,,,,99,,,,,,Space,keypress(Space),,,,,,,,---- -- ----- -- ------ - ------- --- ----------<br>------------- ------ ------ ---- ---- ------- ----- -- ----<br>-------- ------- -- ---------- --- - --- ----- ----- ----<br>---- --- --- ----- --- ---- that ------- ----- ---- -------<br>--- --- -- ----- -- --- ---- -- --- ---- -- ------ ------<br>--- ----- -- ----,81132.02000001911,81131.27000001259,80748.77,80764.3500000122,80782.079,81149.026,,34,that
screen,html.Screen,1_1_0_1_35,2021-03-25T02:13:43.686Z,,,,,,,,,,,,,,,,53,,,,,,,,,,,,,,374.19900001173664,response,,,,99,,,,,,Space,keypress(Space),,,,,,,,---- -- ----- -- ------ - ------- --- ----------<br>------------- ------ ------ ---- ---- ------- ----- -- ----<br>-------- ------- -- ---------- --- - --- ----- ----- ----<br>---- --- --- ----- --- ---- ---- matters ----- ---- -------<br>--- --- -- ----- -- --- ---- -- --- ---- -- ------ ------<br>--- ----- -- ----,81523.92000000691,81523.22500001173,81132.349,81132.25999998394,81149.026,81532.531,,35,matters
screen,html.Screen,1_1_0_1_36,2021-03-25T02:13:44.062Z,,,,,,,,,,,,,,,,53,,,,,,,,,,,,,,366.6689999852824,response,,,,99,,,,,,Space,keypress(Space),,,,,,,,"---- -- ----- -- ------ - ------- --- ----------<br>------------- ------ ------ ---- ---- ------- ----- -- ----<br>-------- ------- -- ---------- --- - --- ----- ----- ----<br>---- --- --- ----- --- ---- ---- ------- most, ---- -------<br>--- --- -- ----- -- --- ---- -- --- ---- -- ------ ------<br>--- ----- -- ----",81899.94500001194,81899.19999998529,81515.937,81524.14500003215,81532.531,81916.182,,36,"most,"
screen,html.Screen,1_1_0_1_37,2021-03-25T02:13:44.446Z,,,,,,,,,,,,,,,,53,,,,,,,,,,,,,,366.92800001849537,response,,,,99,,,,,,Space,keypress(Space),,,,,,,,---- -- ----- -- ------ - ------- --- ----------<br>------------- ------ ------ ---- ---- ------- ----- -- ----<br>-------- ------- -- ---------- --- - --- ----- ----- ----<br>---- --- --- ----- --- ---- ---- ------- ----- it's -------<br>--- --- -- ----- -- --- ---- -- --- ---- -- ------ ------<br>--- ----- -- ----,82283.83000002941,82283.1100000185,81899.458,81900.19000001485,81916.182,82299.781,,37,it's
screen,html.Screen,1_1_0_1_38,2021-03-25T02:13:44.878Z,,,,,,,,,,,,,,,,53,,,,,,,,,,,,,,415.32899999008805,response,,,,99,,,,,,Space,keypress(Space),,,,,,,,---- -- ----- -- ------ - ------- --- ----------<br>------------- ------ ------ ---- ---- ------- ----- -- ----<br>-------- ------- -- ---------- --- - --- ----- ----- ----<br>---- --- --- ----- --- ---- ---- ------- ----- ---- whether<br>--- --- -- ----- -- --- ---- -- --- ---- -- ------ ------<br>--- ----- -- ----,82715.88000003248,82715.10999999009,82283.109,82284.05499999644,82299.781,82750.026,,38,whether
screen,html.Screen,1_1_0_1_39,2021-03-25T02:13:45.277Z,,,,,,,,,,,,,,,,53,,,,,,,,,,,,,,364.83400003060524,response,,,,99,,,,,,Space,keypress(Space),,,,,,,,---- -- ----- -- ------ - ------- --- ----------<br>------------- ------ ------ ---- ---- ------- ----- -- ----<br>-------- ------- -- ---------- --- - --- ----- ----- ----<br>---- --- --- ----- --- ---- ---- ------- ----- ---- -------<br>you --- -- ----- -- --- ---- -- --- ---- -- ------ ------<br>--- ----- -- ----,83115.59000000125,83114.8600000306,82733.358,82716.12500003539,82750.026,83144.149,,39,you
screen,html.Screen,1_1_0_1_40,2021-03-25T02:13:45.662Z,,,,,,,,,,,,,,,,53,,,,,,,,,,,,,,354.96600001325714,response,,,,99,,,,,,Space,keypress(Space),,,,,,,,---- -- ----- -- ------ - ------- --- ----------<br>------------- ------ ------ ---- ---- ------- ----- -- ----<br>-------- ------- -- ---------- --- - --- ----- ----- ----<br>---- --- --- ----- --- ---- ---- ------- ----- ---- -------<br>--- are -- ----- -- --- ---- -- --- ---- -- ------ ------<br>--- ----- -- ----,83499.87500003772,83499.11500001326,83100.311,83115.82000000635,83144.149,83517.25,,40,are
screen,html.Screen,1_1_0_1_41,2021-03-25T02:13:46.101Z,,,,,,,,,,,,,,,,53,,,,,,,,,,,,,,421.7050000196323,response,,,,99,,,,,,Space,keypress(Space),,,,,,,,---- -- ----- -- ------ - ------- --- ----------<br>------------- ------ ------ ---- ---- ------- ----- -- ----<br>-------- ------- -- ---------- --- - --- ----- ----- ----<br>---- --- --- ----- --- ---- ---- ------- ----- ---- -------<br>--- --- as ----- -- --- ---- -- --- ---- -- ------ ------<br>--- ----- -- ----,83939.75499999942,83938.95500001963,83500.571,83500.11500000255,83517.25,83950.805,,41,as
screen,html.Screen,1_1_0_1_42,2021-03-25T02:13:46.533Z,,,,,,,,,,,,,,,,53,,,,,,,,,,,,,,420.13000001356704,response,,,,99,,,,,,Space,keypress(Space),,,,,,,,---- -- ----- -- ------ - ------- --- ----------<br>------------- ------ ------ ---- ---- ------- ----- -- ----<br>-------- ------- -- ---------- --- - --- ----- ----- ----<br>---- --- --- ----- --- ---- ---- ------- ----- ---- -------<br>--- --- -- close -- --- ---- -- --- ---- -- ------ ------<br>--- ----- -- ----,84371.71000003582,84370.93500001356,83934.2,83939.98000002466,83950.805,84384.445,,42,close
screen,html.Screen,1_1_0_1_43,2021-03-25T02:13:46.909Z,,,,,,,,,,,,,,,,53,,,,,,,,,,,,,,362.2700000156765,response,,,,99,,,,,,Space,keypress(Space),,,,,,,,---- -- ----- -- ------ - ------- --- ----------<br>------------- ------ ------ ---- ---- ------- ----- -- ----<br>-------- ------- -- ---------- --- - --- ----- ----- ----<br>---- --- --- ----- --- ---- ---- ------- ----- ---- -------<br>--- --- -- ----- as --- ---- -- --- ---- -- ------ ------<br>--- ----- -- ----,84747.47500004014,84746.71500001568,84367.818,84371.94500002079,84384.445,84751.348,,43,as
screen,html.Screen,1_1_0_1_44,2021-03-25T02:13:47.285Z,,,,,,,,,,,,,,,,53,,,,,,,,,,,,,,371.40200003865175,response,,,,99,,,,,,Space,keypress(Space),,,,,,,,---- -- ----- -- ------ - ------- --- ----------<br>------------- ------ ------ ---- ---- ------- ----- -- ----<br>-------- ------- -- ---------- --- - --- ----- ----- ----<br>---- --- --- ----- --- ---- ---- ------- ----- ---- -------<br>--- --- -- ----- -- you ---- -- --- ---- -- ------ ------<br>--- ----- -- ----,85123.54500003858,85122.75000003865,84734.713,84747.70499998704,84751.348,85134.933,,44,you
screen,html.Screen,1_1_0_1_45,2021-03-25T02:13:47.669Z,,,,,,,,,,,,,,,,53,,,,,,,,,,,,,,371.7570000092528,response,,,,99,,,,,,Space,keypress(Space),,,,,,,,---- -- ----- -- ------ - ------- --- ----------<br>------------- ------ ------ ---- ---- ------- ----- -- ----<br>-------- ------- -- ---------- --- - --- ----- ----- ----<br>---- --- --- ----- --- ---- ---- ------- ----- ---- -------<br>--- --- -- ----- -- --- want -- --- ---- -- ------ ------<br>--- ----- -- ----,85507.44499999564,85506.69000000926,85118.301,85123.77499998547,85134.933,85518.528,,45,want
screen,html.Screen,1_1_0_1_46,2021-03-25T02:13:48.037Z,,,,,,,,,,,,,,,,53,,,,,,,,,,,,,,356.08700003700505,response,,,,99,,,,,,Space,keypress(Space),,,,,,,,---- -- ----- -- ------ - ------- --- ----------<br>------------- ------ ------ ---- ---- ------- ----- -- ----<br>-------- ------- -- ---------- --- - --- ----- ----- ----<br>---- --- --- ----- --- ---- ---- ------- ----- ---- -------<br>--- --- -- ----- -- --- ---- to --- ---- -- ------ ------<br>--- ----- -- ----,85875.37500000326,85874.61500003701,85501.888,85507.67500000075,85518.528,85885.431,,46,to
screen,html.Screen,1_1_0_1_47,2021-03-25T02:13:48.445Z,,,,,,,,,,,,,,,,53,,,,,,,,,,,,,,397.24400002403127,response,,,,99,,,,,,Space,keypress(Space),,,,,,,,"---- -- ----- -- ------ - ------- --- ----------<br>------------- ------ ------ ---- ---- ------- ----- -- ----<br>-------- ------- -- ---------- --- - --- ----- ----- ----<br>---- --- --- ----- --- ---- ---- ------- ----- ---- -------<br>--- --- -- ----- -- --- ---- -- be, ---- -- ------ ------<br>--- ----- -- ----",86283.47000002395,86282.67500002403,85868.793,85875.60999998823,85885.431,86285.69,,47,"be,"
screen,html.Screen,1_1_0_1_48,2021-03-25T02:13:48.549Z,,,,,,,,,,,,,,,,53,,,,,,,,,,,,,,100.85500001575565,response,,,,99,,,,,,Space,keypress(Space),,,,,,,,---- -- ----- -- ------ - ------- --- ----------<br>------------- ------ ------ ---- ---- ------- ----- -- ----<br>-------- ------- -- ---------- --- - --- ----- ----- ----<br>---- --- --- ----- --- ---- ---- ------- ----- ---- -------<br>--- --- -- ----- -- --- ---- -- --- even -- ------ ------<br>--- ----- -- ----,86387.30500004021,86386.54500001576,86269.036,86283.70999998879,86285.69,86402.401,,48,even
screen,html.Screen,1_1_0_1_49,2021-03-25T02:13:48.949Z,,,,,,,,,,,,,,,,53,,,,,,,,,,,,,,384.0389999962208,response,,,,99,,,,,,Space,keypress(Space),,,,,,,,---- -- ----- -- ------ - ------- --- ----------<br>------------- ------ ------ ---- ---- ------- ----- -- ----<br>-------- ------- -- ---------- --- - --- ----- ----- ----<br>---- --- --- ----- --- ---- ---- ------- ----- ---- -------<br>--- --- -- ----- -- --- ---- -- --- ---- if ------ ------<br>--- ----- -- ----,86787.1799999848,86786.43999999622,86385.767,86387.52500002738,86402.401,86802.738,,49,if
screen,html.Screen,1_1_0_1_50,2021-03-25T02:13:49.285Z,,,,,,,,,,,,,,,,53,,,,,,,,,,,,,,319.6619999929244,response,,,,99,,,,,,Space,keypress(Space),,,,,,,,---- -- ----- -- ------ - ------- --- ----------<br>------------- ------ ------ ---- ---- ------- ----- -- ----<br>-------- ------- -- ---------- --- - --- ----- ----- ----<br>---- --- --- ----- --- ---- ---- ------- ----- ---- -------<br>--- --- -- ----- -- --- ---- -- --- ---- -- that's ------<br>--- ----- -- ----,87123.17999999505,87122.39999999292,86786.069,86787.41500002798,86802.738,87136.25,,50,that's
screen,html.Screen,1_1_0_1_51,2021-03-25T02:13:49.565Z,,,,,,,,,,,,,,,,53,,,,,,,,,,,,,,266.06999999377877,response,,,,99,,,,,,Space,keypress(Space),,,,,,,,---- -- ----- -- ------ - ------- --- ----------<br>------------- ------ ------ ---- ---- ------- ----- -- ----<br>-------- ------- -- ---------- --- - --- ----- ----- ----<br>---- --- --- ----- --- ---- ---- ------- ----- ---- -------<br>--- --- -- ----- -- --- ---- -- --- ---- -- ------ really<br>--- ----- -- ----,87403.0999999959,87402.31999999378,87119.626,87123.41000000015,87136.25,87419.762,,51,really
screen,html.Screen,1_1_0_1_52,2021-03-25T02:13:49.909Z,,,,,,,,,,,,,,,,53,,,,,,,,,,,,,,326.52800003915036,response,,,,99,,,,,,Space,keypress(Space),,,,,,,,---- -- ----- -- ------ - ------- --- ----------<br>------------- ------ ------ ---- ---- ------- ----- -- ----<br>-------- ------- -- ---------- --- - --- ----- ----- ----<br>---- --- --- ----- --- ---- ---- ------- ----- ---- -------<br>--- --- -- ----- -- --- ---- -- --- ---- -- ------ ------<br>not ----- -- ----,87747.0500000054,87746.29000003915,87403.12,87403.32500002114,87419.762,87753.203,,52,not
screen,html.Screen,1_1_0_1_53,2021-03-25T02:13:50.149Z,,,,,,,,,,,,,,,,53,,,,,,,,,,,,,,233.79700002282334,response,,,,99,,,,,,Space,keypress(Space),,,,,,,,---- -- ----- -- ------ - ------- --- ----------<br>------------- ------ ------ ---- ---- ------- ----- -- ----<br>-------- ------- -- ---------- --- - --- ----- ----- ----<br>---- --- --- ----- --- ---- ---- ------- ----- ---- -------<br>--- --- -- ----- -- --- ---- -- --- ---- -- ------ ------<br>--- close -- ----,87987.7550000092,87987.00000002282,87736.678,87747.27500003064,87753.203,88003.528,,53,close
screen,html.Screen,1_1_0_1_54,2021-03-25T02:13:50.349Z,,,,,,,,,,,,,,,,53,,,,,,,,,,,,,,182.6370000209863,response,,,,99,,,,,,Space,keypress(Space),,,,,,,,---- -- ----- -- ------ - ------- --- ----------<br>------------- ------ ------ ---- ---- ------- ----- -- ----<br>-------- ------- -- ---------- --- - --- ----- ----- ----<br>---- --- --- ----- --- ---- ---- ------- ----- ---- -------<br>--- --- -- ----- -- --- ---- -- --- ---- -- ------ ------<br>--- ----- at ----,88186.90999998944,88186.16500002099,87986.836,87988.0000000121,88003.528,88203.663,,54,at
screen,html.Screen,1_1_0_1_55,2021-03-25T02:13:50.597Z,,,,,,,,,,,,,,,,53,,,,,,,,,,,,,,230.6270000046934,response,,,,99,,,,,,Space,keypress(Space),,,,,,,,---- -- ----- -- ------ - ------- --- ----------<br>------------- ------ ------ ---- ---- ------- ----- -- ----<br>-------- ------- -- ---------- --- - --- ----- ----- ----<br>---- --- --- ----- --- ---- ---- ------- ----- ---- -------<br>--- --- -- ----- -- --- ---- -- --- ---- -- ------ ------<br>--- ----- -- all.,88435.1200000383,88434.2900000047,88186.954,88187.13000003481,88203.663,88466.753,,55,all.
Item 99,flow.Loop,1_1_0_1,2021-03-25T02:13:50.597Z,,,,,,,,,,,,,,,,,,,,,,,,,,,,,,21394.570000004693,completion,,,,,B,,,,,,,,,,silence,,,,,88435.5649999925,88434.2900000047,67006.36,67007.38500000443,67039.72,88466.753,,,
Question 1,html.Screen,1_1_0_2,2021-03-25T02:13:54.484Z,,,,,,,,,,,,,,,,,,,,,,,,,,,true,FALSE,,3854.5020000171207,response,,,,99,B,,,,,FALSE,click #choice-2,,,,silence,,,,,92322.00500002364,92321.25500001712,88420.45,88435.765000002,88466.753,92322.97,,,
Question 2,html.Screen,1_1_0_3,2021-03-25T02:13:55.572Z,,,,,,,,,,,,,,,,,,,,,,,,,,,true,TRUE,,1086.199999998993,response,,,,99,B,,,,,TRUE,click #choice-1,,,,silence,,,,,93409.86499999417,93409.169999999,92306.323,92322.1800000174,92322.97,93423.637,,,
Item 99,flow.Sequence,1_1_0,2021-03-25T02:13:55.572Z,,,,,,,,,,,,,,,,,,,,,,,,,,,,,,33390.747999998996,completion,,,,,,,,,,,,,,,,,,,,93410.06500000367,93409.169999999,60001.783,60010.364999994636,60018.422,93423.637,,,
Holding screen,html.Screen,1_1_1_0,2021-03-25T02:14:02.578Z,,,,,,,,,,,,,,,,,,,,,,,,,,,,,,7004.679999999993,timeout,,,,,,,,,,,,,,,,,,,,100416.54000000563,100411.568,93407.039,93410.19999998389,93423.637,100428.317,,,
screen,html.Screen,1_1_1_1_0,2021-03-25T02:14:04.492Z,,,,,,,,,,,,,,,,54,,,,,,,,,,,,,,1900.7230000405543,response,,,,100,,,,,,Space,keypress(Space),,,,,,,,At --- ---- --- ------ ----- ------- ---- -- --- ------- --<br>------- ---------- ------ -- ----- -- ----- -- ---- ------<br>--- ----- --- --- ------ -------- ----- --- ------ ----- --<br>----- ----- ---------- --- --- ------ ------ ---- -- ------<br>------- --- ------ ----- --- ---- ------- -- ---- --- --<br>------- ------,102329.89500003168,102329.04000004055,100411.568,100416.83000000194,100428.317,102346.256,,0,At
screen,html.Screen,1_1_1_1_1,2021-03-25T02:14:05.290Z,,,,,,,,,,,,,,,,54,,,,,,,,,,,,,,781.6740000169375,response,,,,100,,,,,,Space,keypress(Space),,,,,,,,-- the ---- --- ------ ----- ------- ---- -- --- ------- --<br>------- ---------- ------ -- ----- -- ----- -- ---- ------<br>--- ----- --- --- ------ -------- ----- --- ------ ----- --<br>----- ----- ---------- --- --- ------ ------ ---- -- ------<br>------- --- ------ ----- --- ---- ------- -- ---- --- --<br>------- ------,103128.70500003919,103127.93000001693,102313.143,102330.14999999432,102346.256,103153.657,,1,the
screen,html.Screen,1_1_1_1_2,2021-03-25T02:14:05.995Z,,,,,,,,,,,,,,,,54,,,,,,,,,,,,,,678.4230000219541,response,,,,100,,,,,,Space,keypress(Space),,,,,,,,-- --- time --- ------ ----- ------- ---- -- --- ------- --<br>------- ---------- ------ -- ----- -- ----- -- ---- ------<br>--- ----- --- --- ------ -------- ----- --- ------ ----- --<br>----- ----- ---------- --- --- ------ ------ ---- -- ------<br>------- --- ------ ----- --- ---- ------- -- ---- --- --<br>------- ------,103832.83500000834,103832.08000002196,103113.515,103128.94500000402,103153.657,103847.226,,2,time
screen,html.Screen,1_1_1_1_3,2021-03-25T02:14:06.434Z,,,,,,,,,,,,,,,,54,,,,,,,,,,,,,,424.54900003017974,response,,,,100,,,,,,Space,keypress(Space),,,,,,,,-- --- ---- the ------ ----- ------- ---- -- --- ------- --<br>------- ---------- ------ -- ----- -- ----- -- ---- ------<br>--- ----- --- --- ------ -------- ----- --- ------ ----- --<br>----- ----- ---------- --- --- ------ ------ ---- -- ------<br>------- --- ------ ----- --- ---- ------- -- ---- --- --<br>------- ------,104272.56000001216,104271.77500003017,103830.638,103833.06000003358,103847.226,104280.748,,3,the
screen,html.Screen,1_1_1_1_4,2021-03-25T02:14:06.930Z,,,,,,,,,,,,,,,,54,,,,,,,,,,,,,,486.9570000056556,response,,,,100,,,,,,Space,keypress(Space),,,,,,,,-- --- ---- --- French ----- ------- ---- -- --- ------- --<br>------- ---------- ------ -- ----- -- ----- -- ---- ------<br>--- ----- --- --- ------ -------- ----- --- ------ ----- --<br>----- ----- ---------- --- --- ------ ------ ---- -- ------<br>------- --- ------ ----- --- ---- ------- -- ---- --- --<br>------- ------,104768.47000000998,104767.70500000566,104264.218,104272.79000001727,104280.748,104781.176,,4,French
screen,html.Screen,1_1_1_1_5,2021-03-25T02:14:07.394Z,,,,,,,,,,,,,,,,54,,,,,,,,,,,,,,450.51900002404,response,,,,100,,,,,,Space,keypress(Space),,,,,,,,-- --- ---- --- ------ crown ------- ---- -- --- ------- --<br>------- ---------- ------ -- ----- -- ----- -- ---- ------<br>--- ----- --- --- ------ -------- ----- --- ------ ----- --<br>----- ----- ---------- --- --- ------ ------ ---- -- ------<br>------- --- ------ ----- --- ---- ------- -- ---- --- --<br>------- ------,105232.51500003971,105231.69500002405,104764.559,104768.69500003522,104781.176,105248.137,,5,crown
screen,html.Screen,1_1_1_1_6,2021-03-25T02:14:07.994Z,,,,,,,,,,,,,,,,54,,,,,,,,,,,,,,583.368000009199,response,,,,100,,,,,,Space,keypress(Space),,,,,,,,-- --- ---- --- ------ ----- secured ---- -- --- ------- --<br>------- ---------- ------ -- ----- -- ----- -- ---- ------<br>--- ----- --- --- ------ -------- ----- --- ------ ----- --<br>----- ----- ---------- --- --- ------ ------ ---- -- ------<br>------- --- ------ ----- --- ---- ------- -- ---- --- --<br>------- ------,105832.21500000218,105831.5050000092,105231.526,105232.75000002468,105248.137,105848.588,,6,secured
screen,html.Screen,1_1_1_1_7,2021-03-25T02:14:08.586Z,,,,,,,,,,,,,,,,54,,,,,,,,,,,,,,574.8219999885041,response,,,,100,,,,,,Space,keypress(Space),,,,,,,,-- --- ---- --- ------ ----- ------- much -- --- ------- --<br>------- ---------- ------ -- ----- -- ----- -- ---- ------<br>--- ----- --- --- ------ -------- ----- --- ------ ----- --<br>----- ----- ---------- --- --- ------ ------ ---- -- ------<br>------- --- ------ ----- --- ---- ------- -- ---- --- --<br>------- ------,106424.14000001736,106423.40999998851,105831.945,105832.44000002742,105848.588,106432.165,,7,much
screen,html.Screen,1_1_1_1_8,2021-03-25T02:14:09.114Z,,,,,,,,,,,,,,,,54,,,,,,,,,,,,,,519.2549999976036,response,,,,100,,,,,,Space,keypress(Space),,,,,,,,-- --- ---- --- ------ ----- ------- ---- of --- ------- --<br>------- ---------- ------ -- ----- -- ----- -- ---- ------<br>--- ----- --- --- ------ -------- ----- --- ------ ----- --<br>----- ----- ---------- --- --- ------ ------ ---- -- ------<br>------- --- ------ ----- --- ---- ------- -- ---- --- --<br>------- ------,106952.19000003999,106951.4199999976,106415.66,106424.36499998439,106432.165,106965.995,,8,of
screen,html.Screen,1_1_1_1_9,2021-03-25T02:14:09.586Z,,,,,,,,,,,,,,,,54,,,,,,,,,,,,,,457.25000001268927,response,,,,100,,,,,,Space,keypress(Space),,,,,,,,-- --- ---- --- ------ ----- ------- ---- -- its ------- --<br>------- ---------- ------ -- ----- -- ----- -- ---- ------<br>--- ----- --- --- ------ -------- ----- --- ------ ----- --<br>----- ----- ---------- --- --- ------ ------ ---- -- ------<br>------- --- ------ ----- --- ---- ------- -- ---- --- --<br>------- ------,107423.935000028,107423.24500001268,106949.332,106952.41500000702,106965.995,107432.789,,9,its
screen,html.Screen,1_1_1_1_10,2021-03-25T02:14:10.114Z,,,,,,,,,,,,,,,,54,,,,,,,,,,,,,,518.4510000239679,response,,,,100,,,,,,Space,keypress(Space),,,,,,,,-- --- ---- --- ------ ----- ------- ---- -- --- revenue --<br>------- ---------- ------ -- ----- -- ----- -- ---- ------<br>--- ----- --- --- ------ -------- ----- --- ------ ----- --<br>----- ----- ---------- --- --- ------ ------ ---- -- ------<br>------- --- ------ ----- --- ---- ------- -- ---- --- --<br>------- ------,107951.98499999242,107951.24000002397,107416.295,107425.6250000326,107432.789,107966.6,,10,revenue
screen,html.Screen,1_1_1_1_11,2021-03-25T02:14:10.625Z,,,,,,,,,,,,,,,,54,,,,,,,,,,,,,,496.57000000271364,response,,,,100,,,,,,Space,keypress(Space),,,,,,,,-- --- ---- --- ------ ----- ------- ---- -- --- ------- by<br>------- ---------- ------ -- ----- -- ----- -- ---- ------<br>--- ----- --- --- ------ -------- ----- --- ------ ----- --<br>----- ----- ---------- --- --- ------ ------ ---- -- ------<br>------- --- ------ ----- --- ---- ------- -- ---- --- --<br>------- ------,108463.99499999825,108463.17000000272,107949.925,107952.21000001766,107966.6,108466.934,,11,by
screen,html.Screen,1_1_1_1_12,2021-03-25T02:14:11.001Z,,,,,,,,,,,,,,,,54,,,,,,,,,,,,,,372.1909999986092,response,,,,100,,,,,,Space,keypress(Space),,,,,,,,-- --- ---- --- ------ ----- ------- ---- -- --- ------- --<br>issuing ---------- ------ -- ----- -- ----- -- ---- ------<br>--- ----- --- --- ------ -------- ----- --- ------ ----- --<br>----- ----- ---------- --- --- ------ ------ ---- -- ------<br>------- --- ------ ----- --- ---- ------- -- ---- --- --<br>------- ------,108839.80000001611,108839.1249999986,108450.322,108464.22000002349,108466.934,108850.461,,12,issuing
screen,html.Screen,1_1_1_1_13,2021-03-25T02:14:11.401Z,,,,,,,,,,,,,,,,54,,,,,,,,,,,,,,388.5190000237344,response,,,,100,,,,,,Space,keypress(Space),,,,,,,,-- --- ---- --- ------ ----- ------- ---- -- --- ------- --<br>------- government ------ -- ----- -- ----- -- ---- ------<br>--- ----- --- --- ------ -------- ----- --- ------ ----- --<br>----- ----- ---------- --- --- ------ ------ ---- -- ------<br>------- --- ------ ----- --- ---- ------- -- ---- --- --<br>------- ------,109239.71500003245,109238.98000002373,108833.88,108840.02000000328,108850.461,109250.704,,13,government
screen,html.Screen,1_1_1_1_14,2021-03-25T02:14:11.801Z,,,,,,,,,,,,,,,,54,,,,,,,,,,,,,,388.2159999975993,response,,,,100,,,,,,Space,keypress(Space),,,,,,,,-- --- ---- --- ------ ----- ------- ---- -- --- ------- --<br>------- ---------- bonds. -- ----- -- ----- -- ---- ------<br>--- ----- --- --- ------ -------- ----- --- ------ ----- --<br>----- ----- ---------- --- --- ------ ------ ---- -- ------<br>------- --- ------ ----- --- ---- ------- -- ---- --- --<br>------- ------,109639.63500002865,109638.9199999976,109234.15,109239.93500001961,109250.704,109650.971,,14,bonds.
screen,html.Screen,1_1_1_1_15,2021-03-25T02:14:12.225Z,,,,,,,,,,,,,,,,54,,,,,,,,,,,,,,411.93900003693125,response,,,,100,,,,,,Space,keypress(Space),,,,,,,,-- --- ---- --- ------ ----- ------- ---- -- --- ------- --<br>------- ---------- ------ In ----- -- ----- -- ---- ------<br>--- ----- --- --- ------ -------- ----- --- ------ ----- --<br>----- ----- ---------- --- --- ------ ------ ---- -- ------<br>------- --- ------ ----- --- ---- ------- -- ---- --- --<br>------- ------,110063.66500002332,110062.91000003694,109634.413,109639.86500003375,109650.971,110067.998,,15,In
screen,html.Screen,1_1_1_1_16,2021-03-25T02:14:12.641Z,,,,,,,,,,,,,,,,54,,,,,,,,,,,,,,410.80700002064987,response,,,,100,,,,,,Space,keypress(Space),,,,,,,,"-- --- ---- --- ------ ----- ------- ---- -- --- ------- --<br>------- ---------- ------ -- 1727, -- ----- -- ---- ------<br>--- ----- --- --- ------ -------- ----- --- ------ ----- --<br>----- ----- ---------- --- --- ------ ------ ---- -- ------<br>------- --- ------ ----- --- ---- ------- -- ---- --- --<br>------- ------",110479.5349999913,110478.80500002066,110051.356,110063.90499998815,110067.998,110484.948,,16,"1727,"
screen,html.Screen,1_1_1_1_17,2021-03-25T02:14:13.041Z,,,,,,,,,,,,,,,,54,,,,,,,,,,,,,,393.88200000146753,response,,,,100,,,,,,Space,keypress(Space),,,,,,,,-- --- ---- --- ------ ----- ------- ---- -- --- ------- --<br>------- ---------- ------ -- ----- in ----- -- ---- ------<br>--- ----- --- --- ------ -------- ----- --- ------ ----- --<br>----- ----- ---------- --- --- ------ ------ ---- -- ------<br>------- --- ------ ----- --- ---- ------- -- ---- --- --<br>------- ------,110879.58000000799,110878.83000000147,110468.296,110479.76000001654,110484.948,110885.089,,17,in
screen,html.Screen,1_1_1_1_18,2021-03-25T02:14:13.488Z,,,,,,,,,,,,,,,,54,,,,,,,,,,,,,,441.47599999574595,response,,,,100,,,,,,Space,keypress(Space),,,,,,,,-- --- ---- --- ------ ----- ------- ---- -- --- ------- --<br>------- ---------- ------ -- ----- -- order -- ---- ------<br>--- ----- --- --- ------ -------- ----- --- ------ ----- --<br>----- ----- ---------- --- --- ------ ------ ---- -- ------<br>------- --- ------ ----- --- ---- ------- -- ---- --- --<br>------- ------,111327.25500001106,111326.56499999575,110868.556,110879.8100000131,110885.089,111335.452,,18,order
screen,html.Screen,1_1_1_1_19,2021-03-25T02:14:13.968Z,,,,,,,,,,,,,,,,54,,,,,,,,,,,,,,471.1730000265379,response,,,,100,,,,,,Space,keypress(Space),,,,,,,,-- --- ---- --- ------ ----- ------- ---- -- --- ------- --<br>------- ---------- ------ -- ----- -- ----- to ---- ------<br>--- ----- --- --- ------ -------- ----- --- ------ ----- --<br>----- ----- ---------- --- --- ------ ------ ---- -- ------<br>------- --- ------ ----- --- ---- ------- -- ---- --- --<br>------- ------,111807.38499999279,111806.62500002654,111318.858,111327.47000001837,111335.452,111819.109,,19,to
screen,html.Screen,1_1_1_1_20,2021-03-25T02:14:14.384Z,,,,,,,,,,,,,,,,54,,,,,,,,,,,,,,403.40600003040163,response,,,,100,,,,,,Space,keypress(Space),,,,,,,,-- --- ---- --- ------ ----- ------- ---- -- --- ------- --<br>------- ---------- ------ -- ----- -- ----- -- save ------<br>--- ----- --- --- ------ -------- ----- --- ------ ----- --<br>----- ----- ---------- --- --- ------ ------ ---- -- ------<br>------- --- ------ ----- --- ---- ------- -- ---- --- --<br>------- ------,112223.22500002338,112222.5150000304,111802.509,111807.61000001803,111819.109,112236.112,,20,save
screen,html.Screen,1_1_1_1_21,2021-03-25T02:14:14.777Z,,,,,,,,,,,,,,,,54,,,,,,,,,,,,,,379.34300002103555,response,,,,100,,,,,,Space,keypress(Space),,,,,,,,"-- --- ---- --- ------ ----- ------- ---- -- --- ------- --<br>------- ---------- ------ -- ----- -- ----- -- ---- money,<br>--- ----- --- --- ------ -------- ----- --- ------ ----- --<br>----- ----- ---------- --- --- ------ ------ ---- -- ------<br>------- --- ------ ----- --- ---- ------- -- ---- --- --<br>------- ------",112616.26000003889,112615.45500002103,112219.437,112223.45500002848,112236.112,112619.665,,21,"money,"
screen,html.Screen,1_1_1_1_22,2021-03-25T02:14:15.208Z,,,,,,,,,,,,,,,,54,,,,,,,,,,,,,,426.77999998540326,response,,,,100,,,,,,Space,keypress(Space),,,,,,,,-- --- ---- --- ------ ----- ------- ---- -- --- ------- --<br>------- ---------- ------ -- ----- -- ----- -- ---- ------<br>the ----- --- --- ------ -------- ----- --- ------ ----- --<br>----- ----- ---------- --- --- ------ ------ ---- -- ------<br>------- --- ------ ----- --- ---- ------- -- ---- --- --<br>------- ------,113047.20000002999,113046.4449999854,112603.02,112616.49500002386,112619.665,113053.196,,22,the
screen,html.Screen,1_1_1_1_23,2021-03-25T02:14:15.600Z,,,,,,,,,,,,,,,,54,,,,,,,,,,,,,,385.2190000405535,response,,,,100,,,,,,Space,keypress(Space),,,,,,,,-- --- ---- --- ------ ----- ------- ---- -- --- ------- --<br>------- ---------- ------ -- ----- -- ----- -- ---- ------<br>--- state --- --- ------ -------- ----- --- ------ ----- --<br>----- ----- ---------- --- --- ------ ------ ---- -- ------<br>------- --- ------ ----- --- ---- ------- -- ---- --- --<br>------- ------,113439.15500002913,113438.41500004055,113036.648,113047.42499999702,113053.196,113453.576,,23,state
screen,html.Screen,1_1_1_1_24,2021-03-25T02:14:16.160Z,,,,,,,,,,,,,,,,54,,,,,,,,,,,,,,544.784000026877,response,,,,100,,,,,,Space,keypress(Space),,,,,,,,-- --- ---- --- ------ ----- ------- ---- -- --- ------- --<br>------- ---------- ------ -- ----- -- ----- -- ---- ------<br>--- ----- cut --- ------ -------- ----- --- ------ ----- --<br>----- ----- ---------- --- --- ------ ------ ---- -- ------<br>------- --- ------ ----- --- ---- ------- -- ---- --- --<br>------- ------,113999.23000001581,113998.36000002688,113436.908,113439.3750000163,113453.576,114003.869,,24,cut
screen,html.Screen,1_1_1_1_25,2021-03-25T02:14:16.936Z,,,,,,,,,,,,,,,,54,,,,,,,,,,,,,,770.3060000277474,response,,,,100,,,,,,Space,keypress(Space),,,,,,,,-- --- ---- --- ------ ----- ------- ---- -- --- ------- --<br>------- ---------- ------ -- ----- -- ----- -- ---- ------<br>--- ----- --- the ------ -------- ----- --- ------ ----- --<br>----- ----- ---------- --- --- ------ ------ ---- -- ------<br>------- --- ------ ----- --- ---- ------- -- ---- --- --<br>------- ------,114774.93000001414,114774.17500002775,113987.301,113999.46500000078,114003.869,114787.673,,25,the
screen,html.Screen,1_1_1_1_26,2021-03-25T02:14:17.488Z,,,,,,,,,,,,,,,,54,,,,,,,,,,,,,,538.3569999965403,response,,,,100,,,,,,Space,keypress(Space),,,,,,,,-- --- ---- --- ------ ----- ------- ---- -- --- ------- --<br>------- ---------- ------ -- ----- -- ----- -- ---- ------<br>--- ----- --- --- bonds' -------- ----- --- ------ ----- --<br>----- ----- ---------- --- --- ------ ------ ---- -- ------<br>------- --- ------ ----- --- ---- ------- -- ---- --- --<br>------- ------,115326.79000002099,115326.02999999654,114771.173,114775.16000001924,114787.673,115338.098,,26,bonds'
screen,html.Screen,1_1_1_1_27,2021-03-25T02:14:17.888Z,,,,,,,,,,,,,,,,54,,,,,,,,,,,,,,387.892000006279,response,,,,100,,,,,,Space,keypress(Space),,,,,,,,-- --- ---- --- ------ ----- ------- ---- -- --- ------- --<br>------- ---------- ------ -- ----- -- ----- -- ---- ------<br>--- ----- --- --- ------ interest ----- --- ------ ----- --<br>----- ----- ---------- --- --- ------ ------ ---- -- ------<br>------- --- ------ ----- --- ---- ------- -- ---- --- --<br>------- ------,115726.73500003293,115725.99000000628,115321.5,115327.01499998802,115338.098,115738.356,,27,interest
screen,html.Screen,1_1_1_1_28,2021-03-25T02:14:18.312Z,,,,,,,,,,,,,,,,54,,,,,,,,,,,,,,411.56399999620044,response,,,,100,,,,,,Space,keypress(Space),,,,,,,,-- --- ---- --- ------ ----- ------- ---- -- --- ------- --<br>------- ---------- ------ -- ----- -- ----- -- ---- ------<br>--- ----- --- --- ------ -------- rate. --- ------ ----- --<br>----- ----- ---------- --- --- ------ ------ ---- -- ------<br>------- --- ------ ----- --- ---- ------- -- ---- --- --<br>------- ------,116150.7500000298,116149.9199999962,115721.753,115726.95999999996,115738.356,116155.313,,28,rate.
screen,html.Screen,1_1_1_1_29,2021-03-25T02:14:18.808Z,,,,,,,,,,,,,,,,54,,,,,,,,,,,,,,490.9570000265667,response,,,,100,,,,,,Space,keypress(Space),,,,,,,,-- --- ---- --- ------ ----- ------- ---- -- --- ------- --<br>------- ---------- ------ -- ----- -- ----- -- ---- ------<br>--- ----- --- --- ------ -------- ----- The ------ ----- --<br>----- ----- ---------- --- --- ------ ------ ---- -- ------<br>------- --- ------ ----- --- ---- ------- -- ---- --- --<br>------- ------,116646.92999998806,116646.27000002656,116138.692,116150.9800000349,116155.313,116655.656,,29,The
screen,html.Screen,1_1_1_1_30,2021-03-25T02:14:19.400Z,,,,,,,,,,,,,,,,54,,,,,,,,,,,,,,582.1690000183444,response,,,,100,,,,,,Space,keypress(Space),,,,,,,,-- --- ---- --- ------ ----- ------- ---- -- --- ------- --<br>------- ---------- ------ -- ----- -- ----- -- ---- ------<br>--- ----- --- --- ------ -------- ----- --- market ----- --<br>----- ----- ---------- --- --- ------ ------ ---- -- ------<br>------- --- ------ ----- --- ---- ------- -- ---- --- --<br>------- ------,117238.59500000253,117237.82500001835,116639.03,116647.1550000133,116655.656,117272.747,,30,market
screen,html.Screen,1_1_1_1_31,2021-03-25T02:14:19.959Z,,,,,,,,,,,,,,,,54,,,,,,,,,,,,,,524.8580000288493,response,,,,100,,,,,,Space,keypress(Space),,,,,,,,-- --- ---- --- ------ ----- ------- ---- -- --- ------- --<br>------- ---------- ------ -- ----- -- ----- -- ---- ------<br>--- ----- --- --- ------ -------- ----- --- ------ value --<br>----- ----- ---------- --- --- ------ ------ ---- -- ------<br>------- --- ------ ----- --- ---- ------- -- ---- --- --<br>------- ------,117798.33000001963,117797.60500002885,117256.044,117238.82500000764,117272.747,117806.301,,31,value
screen,html.Screen,1_1_1_1_32,2021-03-25T02:14:20.487Z,,,,,,,,,,,,,,,,54,,,,,,,,,,,,,,519.2040000152483,response,,,,100,,,,,,Space,keypress(Space),,,,,,,,-- --- ---- --- ------ ----- ------- ---- -- --- ------- --<br>------- ---------- ------ -- ----- -- ----- -- ---- ------<br>--- ----- --- --- ------ -------- ----- --- ------ ----- of<br>----- ----- ---------- --- --- ------ ------ ---- -- ------<br>------- --- ------ ----- --- ---- ------- -- ---- --- --<br>------- ------,118326.2199999881,118325.50500001526,117789.783,117798.53999998886,117806.301,118340.123,,32,of
screen,html.Screen,1_1_1_1_33,2021-03-25T02:14:22.319Z,,,,,,,,,,,,,,,,54,,,,,,,,,,,,,,1817.286999985241,response,,,,100,,,,,,Space,keypress(Space),,,,,,,,-- --- ---- --- ------ ----- ------- ---- -- --- ------- --<br>------- ---------- ------ -- ----- -- ----- -- ---- ------<br>--- ----- --- --- ------ -------- ----- --- ------ ----- --<br>these ----- ---------- --- --- ------ ------ ---- -- ------<br>------- --- ------ ----- --- ---- ------- -- ---- --- --<br>------- ------,120158.21500000311,120157.40999998525,118323.467,118326.42500003567,118340.123,120174.673,,33,these
screen,html.Screen,1_1_1_1_34,2021-03-25T02:14:22.863Z,,,,,,,,,,,,,,,,54,,,,,,,,,,,,,,526.5570000060397,response,,,,100,,,,,,Space,keypress(Space),,,,,,,,-- --- ---- --- ------ ----- ------- ---- -- --- ------- --<br>------- ---------- ------ -- ----- -- ----- -- ---- ------<br>--- ----- --- --- ------ -------- ----- --- ------ ----- --<br>----- bonds ---------- --- --- ------ ------ ---- -- ------<br>------- --- ------ ----- --- ---- ------- -- ---- --- --<br>------- ------,120701.97500003269,120701.23000000603,120158.191,120158.44000002835,120174.673,120708.197,,34,bonds
screen,html.Screen,1_1_1_1_35,2021-03-25T02:14:23.271Z,,,,,,,,,,,,,,,,54,,,,,,,,,,,,,,401.0180000040418,response,,,,100,,,,,,Space,keypress(Space),,,,,,,,"-- --- ---- --- ------ ----- ------- ---- -- --- ------- --<br>------- ---------- ------ -- ----- -- ----- -- ---- ------<br>--- ----- --- --- ------ -------- ----- --- ------ ----- --<br>----- ----- plummeted, --- --- ------ ------ ---- -- ------<br>------- --- ------ ----- --- ---- ------- -- ---- --- --<br>------- ------",121110.0050000241,121109.21500000404,120691.693,120702.19000003999,120708.197,121125.29,,35,"plummeted,"
screen,html.Screen,1_1_1_1_36,2021-03-25T02:14:24.567Z,,,,,,,,,,,,,,,,54,,,,,,,,,,,,,,1279.7550000213523,response,,,,100,,,,,,Space,keypress(Space),,,,,,,,-- --- ---- --- ------ ----- ------- ---- -- --- ------- --<br>------- ---------- ------ -- ----- -- ----- -- ---- ------<br>--- ----- --- --- ------ -------- ----- --- ------ ----- --<br>----- ----- ---------- and --- ------ ------ ---- -- ------<br>------- --- ------ ----- --- ---- ------- -- ---- --- --<br>------- ------,122405.81000002567,122405.04500002135,121108.615,121110.2200000314,121125.29,122409.387,,36,and
screen,html.Screen,1_1_1_1_37,2021-03-25T02:14:24.992Z,,,,,,,,,,,,,,,,54,,,,,,,,,,,,,,420.3579999954527,response,,,,100,,,,,,Space,keypress(Space),,,,,,,,-- --- ---- --- ------ ----- ------- ---- -- --- ------- --<br>------- ---------- ------ -- ----- -- ----- -- ---- ------<br>--- ----- --- --- ------ -------- ----- --- ------ ----- --<br>----- ----- ---------- --- the ------ ------ ---- -- ------<br>------- --- ------ ----- --- ---- ------- -- ---- --- --<br>------- ------,122830.48000000417,122829.74499999546,122392.916,122406.0349999927,122409.387,122843.024,,37,the
screen,html.Screen,1_1_1_1_38,2021-03-25T02:14:25.399Z,,,,,,,,,,,,,,,,54,,,,,,,,,,,,,,393.8060000089172,response,,,,100,,,,,,Space,keypress(Space),,,,,,,,-- --- ---- --- ------ ----- ------- ---- -- --- ------- --<br>------- ---------- ------ -- ----- -- ----- -- ---- ------<br>--- ----- --- --- ------ -------- ----- --- ------ ----- --<br>----- ----- ---------- --- --- market ------ ---- -- ------<br>------- --- ------ ----- --- ---- ------- -- ---- --- --<br>------- ------,123237.52000002423,123236.83000000892,122826.416,122830.70500002941,122843.024,123243.255,,38,market
screen,html.Screen,1_1_1_1_39,2021-03-25T02:14:25.857Z,,,,,,,,,,,,,,,,54,,,,,,,,,,,,,,449.3950000408804,response,,,,100,,,,,,Space,keypress(Space),,,,,,,,-- --- ---- --- ------ ----- ------- ---- -- --- ------- --<br>------- ---------- ------ -- ----- -- ----- -- ---- ------<br>--- ----- --- --- ------ -------- ----- --- ------ ----- --<br>----- ----- ---------- --- --- ------ became ---- -- ------<br>------- --- ------ ----- --- ---- ------- -- ---- --- --<br>------- ------,123695.89500001166,123692.65000004089,123226.677,123237.7400000114,123243.255,123710.317,,39,became
screen,html.Screen,1_1_1_1_40,2021-03-25T02:14:26.239Z,,,,,,,,,,,,,,,,54,,,,,,,,,,,,,,366.3030000071012,response,,,,100,,,,,,Space,keypress(Space),,,,,,,,-- --- ---- --- ------ ----- ------- ---- -- --- ------- --<br>------- ---------- ------ -- ----- -- ----- -- ---- ------<br>--- ----- --- --- ------ -------- ----- --- ------ ----- --<br>----- ----- ---------- --- --- ------ ------ wary -- ------<br>------- --- ------ ----- --- ---- ------- -- ---- --- --<br>------- ------,124077.56499998504,124076.6200000071,123693.658,123696.1200000369,123710.317,124093.89,,40,wary
screen,html.Screen,1_1_1_1_41,2021-03-25T02:14:26.686Z,,,,,,,,,,,,,,,,54,,,,,,,,,,,,,,430.83500002477376,response,,,,100,,,,,,Space,keypress(Space),,,,,,,,-- --- ---- --- ------ ----- ------- ---- -- --- ------- --<br>------- ---------- ------ -- ----- -- ----- -- ---- ------<br>--- ----- --- --- ------ -------- ----- --- ------ ----- --<br>----- ----- ---------- --- --- ------ ------ ---- of ------<br>------- --- ------ ----- --- ---- ------- -- ---- --- --<br>------- ------,124525.35499999067,124524.72500002477,124077.196,124077.77000003261,124093.89,124527.486,,41,of
screen,html.Screen,1_1_1_1_42,2021-03-25T02:14:27.366Z,,,,,,,,,,,,,,,,54,,,,,,,,,,,,,,677.0739999837533,response,,,,100,,,,,,Space,keypress(Space),,,,,,,,-- --- ---- --- ------ ----- ------- ---- -- --- ------- --<br>------- ---------- ------ -- ----- -- ----- -- ---- ------<br>--- ----- --- --- ------ -------- ----- --- ------ ----- --<br>----- ----- ---------- --- --- ------ ------ ---- -- French<br>------- --- ------ ----- --- ---- ------- -- ---- --- --<br>------- ------,125205.33000002615,125204.55999998376,124510.853,124525.55500000017,124527.486,125211.154,,42,French
screen,html.Screen,1_1_1_1_43,2021-03-25T02:14:27.854Z,,,,,,,,,,,,,,,,54,,,,,,,,,,,,,,481.2860000134533,response,,,,100,,,,,,Space,keypress(Space),,,,,,,,-- --- ---- --- ------ ----- ------- ---- -- --- ------- --<br>------- ---------- ------ -- ----- -- ----- -- ---- ------<br>--- ----- --- --- ------ -------- ----- --- ------ ----- --<br>----- ----- ---------- --- --- ------ ------ ---- -- ------<br>credit. --- ------ ----- --- ---- ------- -- ---- --- --<br>------- ------,125693.1699999841,125692.44000001345,125194.668,125205.53999999538,125211.154,125713.541,,43,credit.
screen,html.Screen,1_1_1_1_44,2021-03-25T02:14:28.366Z,,,,,,,,,,,,,,,,54,,,,,,,,,,,,,,490.8739999856043,response,,,,100,,,,,,Space,keypress(Space),,,,,,,,-- --- ---- --- ------ ----- ------- ---- -- --- ------- --<br>------- ---------- ------ -- ----- -- ----- -- ---- ------<br>--- ----- --- --- ------ -------- ----- --- ------ ----- --<br>----- ----- ---------- --- --- ------ ------ ---- -- ------<br>------- The ------ ----- --- ---- ------- -- ---- --- --<br>------- ------,126205.2150000236,126204.4149999856,125678.297,125693.38000001153,125713.541,126211.875,,44,The
screen,html.Screen,1_1_1_1_45,2021-03-25T02:14:28.766Z,,,,,,,,,,,,,,,,54,,,,,,,,,,,,,,392.4400000041351,response,,,,100,,,,,,Space,keypress(Space),,,,,,,,-- --- ---- --- ------ ----- ------- ---- -- --- ------- --<br>------- ---------- ------ -- ----- -- ----- -- ---- ------<br>--- ----- --- --- ------ -------- ----- --- ------ ----- --<br>----- ----- ---------- --- --- ------ ------ ---- -- ------<br>------- --- French ----- --- ---- ------- -- ---- --- --<br>------- ------,126605.05499999272,126604.31500000414,126195.305,126205.42499999283,126211.875,126612.14,,45,French
screen,html.Screen,1_1_1_1_46,2021-03-25T02:14:29.158Z,,,,,,,,,,,,,,,,54,,,,,,,,,,,,,,384.1500000391534,response,,,,100,,,,,,Space,keypress(Space),,,,,,,,-- --- ---- --- ------ ----- ------- ---- -- --- ------- --<br>------- ---------- ------ -- ----- -- ----- -- ---- ------<br>--- ----- --- --- ------ -------- ----- --- ------ ----- --<br>----- ----- ---------- --- --- ------ ------ ---- -- ------<br>------- --- ------ state --- ---- ------- -- ---- --- --<br>------- ------,126997.00000003213,126996.29000003915,126595.55,126605.25500000222,126612.14,127012.486,,46,state
screen,html.Screen,1_1_1_1_47,2021-03-25T02:14:29.606Z,,,,,,,,,,,,,,,,54,,,,,,,,,,,,,,431.67400001364877,response,,,,100,,,,,,Space,keypress(Space),,,,,,,,-- --- ---- --- ------ ----- ------- ---- -- --- ------- --<br>------- ---------- ------ -- ----- -- ----- -- ---- ------<br>--- ----- --- --- ------ -------- ----- --- ------ ----- --<br>----- ----- ---------- --- --- ------ ------ ---- -- ------<br>------- --- ------ ----- was ---- ------- -- ---- --- --<br>------- ------,127444.87000000663,127444.16000001365,126995.758,126997.21000000136,127012.486,127469.693,,47,was
screen,html.Screen,1_1_1_1_48,2021-03-25T02:14:30.022Z,,,,,,,,,,,,,,,,54,,,,,,,,,,,,,,390.4670000401966,response,,,,100,,,,,,Space,keypress(Space),,,,,,,,-- --- ---- --- ------ ----- ------- ---- -- --- ------- --<br>------- ---------- ------ -- ----- -- ----- -- ---- ------<br>--- ----- --- --- ------ -------- ----- --- ------ ----- --<br>----- ----- ---------- --- --- ------ ------ ---- -- ------<br>------- --- ------ ----- --- left ------- -- ---- --- --<br>------- ------,127860.8499999973,127860.1600000402,127429.449,127445.07000001613,127469.693,127863.02,,48,left
screen,html.Screen,1_1_1_1_49,2021-03-25T02:14:30.390Z,,,,,,,,,,,,,,,,54,,,,,,,,,,,,,,365.0200000163313,response,,,,100,,,,,,Space,keypress(Space),,,,,,,,-- --- ---- --- ------ ----- ------- ---- -- --- ------- --<br>------- ---------- ------ -- ----- -- ----- -- ---- ------<br>--- ----- --- --- ------ -------- ----- --- ------ ----- --<br>----- ----- ---------- --- --- ------ ------ ---- -- ------<br>------- --- ------ ----- --- ---- without -- ---- --- --<br>------- ------,128228.73000003165,128228.04000001634,127846.371,127861.06000002474,127863.02,128246.587,,49,without
screen,html.Screen,1_1_1_1_50,2021-03-25T02:14:30.806Z,,,,,,,,,,,,,,,,54,,,,,,,,,,,,,,397.47800000041025,response,,,,100,,,,,,Space,keypress(Space),,,,,,,,-- --- ---- --- ------ ----- ------- ---- -- --- ------- --<br>------- ---------- ------ -- ----- -- ----- -- ---- ------<br>--- ----- --- --- ------ -------- ----- --- ------ ----- --<br>----- ----- ---------- --- --- ------ ------ ---- -- ------<br>------- --- ------ ----- --- ---- ------- an ---- --- --<br>------- ------,128644.87000001827,128644.06500000041,128213.274,128228.93500002101,128246.587,128646.86,,50,an
screen,html.Screen,1_1_1_1_51,2021-03-25T02:14:31.230Z,,,,,,,,,,,,,,,,54,,,,,,,,,,,,,,421.1150000126654,response,,,,100,,,,,,Space,keypress(Space),,,,,,,,-- --- ---- --- ------ ----- ------- ---- -- --- ------- --<br>------- ---------- ------ -- ----- -- ----- -- ---- ------<br>--- ----- --- --- ------ -------- ----- --- ------ ----- --<br>----- ----- ---------- --- --- ------ ------ ---- -- ------<br>------- --- ------ ----- --- ---- ------- -- easy --- --<br>------- ------,129068.6599999899,129067.97500001267,128630.185,128645.0799999875,128646.86,129080.406,,51,easy
screen,html.Screen,1_1_1_1_52,2021-03-25T02:14:31.750Z,,,,,,,,,,,,,,,,54,,,,,,,,,,,,,,507.4990000221442,response,,,,100,,,,,,Space,keypress(Space),,,,,,,,-- --- ---- --- ------ ----- ------- ---- -- --- ------- --<br>------- ---------- ------ -- ----- -- ----- -- ---- ------<br>--- ----- --- --- ------ -------- ----- --- ------ ----- --<br>----- ----- ---------- --- --- ------ ------ ---- -- ------<br>------- --- ------ ----- --- ---- ------- -- ---- way --<br>------- ------,129588.61999999499,129587.90500002215,129063.839,129068.88000003528,129080.406,129597.353,,52,way
screen,html.Screen,1_1_1_1_53,2021-03-25T02:14:32.142Z,,,,,,,,,,,,,,,,54,,,,,,,,,,,,,,382.43700001214165,response,,,,100,,,,,,Space,keypress(Space),,,,,,,,-- --- ---- --- ------ ----- ------- ---- -- --- ------- --<br>------- ---------- ------ -- ----- -- ----- -- ---- ------<br>--- ----- --- --- ------ -------- ----- --- ------ ----- --<br>----- ----- ---------- --- --- ------ ------ ---- -- ------<br>------- --- ------ ----- --- ---- ------- -- ---- --- of<br>------- ------,129980.48500000732,129979.79000001214,129580.865,129588.82499998435,129597.353,130014.455,,53,of
screen,html.Screen,1_1_1_1_54,2021-03-25T02:14:32.557Z,,,,,,,,,,,,,,,,54,,,,,,,,,,,,,,381.1749999845197,response,,,,100,,,,,,Space,keypress(Space),,,,,,,,-- --- ---- --- ------ ----- ------- ---- -- --- ------- --<br>------- ---------- ------ -- ----- -- ----- -- ---- ------<br>--- ----- --- --- ------ -------- ----- --- ------ ----- --<br>----- ----- ---------- --- --- ------ ------ ---- -- ------<br>------- --- ------ ----- --- ---- ------- -- ---- --- --<br>raising ------,130396.37000003131,130395.62999998452,129997.751,129980.69500003476,130014.455,130421.994,,54,raising
screen,html.Screen,1_1_1_1_55,2021-03-25T02:14:33.070Z,,,,,,,,,,,,,,,,54,,,,,,,,,,,,,,485.76600003096974,response,,,,100,,,,,,Space,keypress(Space),,,,,,,,-- --- ---- --- ------ ----- ------- ---- -- --- ------- --<br>------- ---------- ------ -- ----- -- ----- -- ---- ------<br>--- ----- --- --- ------ -------- ----- --- ------ ----- --<br>----- ----- ---------- --- --- ------ ------ ---- -- ------<br>------- --- ------ ----- --- ---- ------- -- ---- --- --<br>------- money.,130908.5100000375,130907.76000003098,130381.367,130396.57000004081,130421.994,130915.016,,55,money.
Item 100,flow.Loop,1_1_1_1,2021-03-25T02:14:33.070Z,,,,,,,,,,,,,,,,,,,,,,,,,,,,,,30479.44300003098,completion,,,,,B,,,,,,,,,,silence,,,,,130908.90500001842,130907.76000003098,100411.568,100416.75500001293,100428.317,130915.016,,,
Question 1,html.Screen,1_1_1_2,2021-03-25T02:14:35.261Z,,,,,,,,,,,,,,,,,,,,,,,,,,,true,TRUE,,2184.1590000393917,response,,,,100,B,,,,,TRUE,click #choice-1,,,,silence,,,,,133099.9099999899,133099.1750000394,130898.391,130909.07500003232,130915.016,133116.472,,,
Question 2,html.Screen,1_1_1_3,2021-03-25T02:14:39.340Z,,,,,,,,,,,,,,,,,,,,,,,,,,,true,FALSE,,4061.9979999843636,response,,,,100,B,,,,,FALSE,click #choice-2,,,,silence,,,,,137179.16500003776,137178.46999998437,133083.103,133100.03000003053,133116.472,137185.778,,,
Item 100,flow.Sequence,1_1_1,2021-03-25T02:14:39.340Z,,,,,,,,,,,,,,,,,,,,,,,,,,,,,,43754.83299998437,completion,,,,,,,,,,,,,,,,,,,,137179.34000003152,137178.46999998437,93407.039,93410.16000002855,93423.637,137185.778,,,
End of Practice,html.Page,1_1_2,2021-03-25T02:14:41.709Z,,,,,,,,,,,,,,,,,,,,,,,,,,,,,,2361.576999987883,form submission,,,,,,,,,,,,,,,,,,,,139547.69999999553,139547.35499998787,137169.115,137179.4200000004,137185.778,139553.987,,,
Practice,flow.Sequence,1_1,2021-03-25T02:14:41.709Z,,,,,,,,,,,,,,,,,,,,,,,,,,,,,,79528.93299998788,completion,,,,,,,,,,,,,,,,,,,,139547.88500000723,139547.35499998787,60001.783,60010.3250000393,60018.422,139553.987,,,
Trap_instruction,html.Page,1_2_0,2021-03-25T02:14:43.229Z,,,,,,,,,,,,,,,,,,,,,,,,,,,,,,1513.112999985664,form submission,,,,,,,,,,,,,,,,,,,,141067.42000003578,141067.09999998566,139537.348,139547.9950000299,139553.987,141088.358,,,
trap_trial,html.Screen,1_2_1,2021-03-25T02:14:52.994Z,,,,,,,,,,,,,,,,,,,,,,,,,,,true,1,,9744.052000031807,response,,,,,,,,,,1,click #choice-1,,,,,,,,,150833.08499999112,150832.4100000318,141055.017,141067.53000000026,141088.358,150844.736,,,
end of trap trial,html.Page,1_2_2,2021-03-25T02:14:54.819Z,,,,,,,,,,,,,,,,,,,,,,,,,,,,,,1812.6540000075765,form submission,,,,,,,,,,,,,,,,,,,,152657.76500001084,152657.39000000758,150828.087,150833.2100000116,150844.736,152662.621,,,
Trap 1,flow.Sequence,1_2,2021-03-25T02:14:54.819Z,,,,,,,,,,,,,,,,,,,,,,,,,,,,,,13103.403000007587,completion,,,,,,,,,,,,,,,,,,,,152657.98000001814,152657.39000000758,139537.348,139547.9650000343,139553.987,152662.621,,,
Holding screen,html.Screen,1_3_0_0,2021-03-25T02:15:01.812Z,,,,,,,,,,,,,,,,,,,,,,,,,,,,,,7004.562999999995,timeout,,,,,,,,,,,,,,,,,,,,159651.24500001548,159650.552,152645.959,152658.12999999616,152662.621,159667.184,,,
screen,html.Screen,1_3_0_1_0,2021-03-25T02:15:02.769Z,,,,,,,,,,,,,,,,48,,,,,,,,,,,,,,939.8509999936214,response,,,,10,B,,,,,Space,keypress(Space),,,,lyrical,,,,As -- --- ------ ------- --------- ----------- --------<br>--------- -------- --- ------- -- ------- ---- -- ------<br>-- --- -------- -------- ---------- ---- ---- ---- ------<br>-- --------- -- ---- -- --- -- --- ------- -- - -----<br>---------- -- -- -- ---- ----- -- ------ -- --- ------<br>-------,160607.86500002723,160607.03499999363,159650.552,159651.50999999605,159667.184,160617.826,,0,As
screen,html.Screen,1_3_0_1_1,2021-03-25T02:15:03.242Z,,,,,,,,,,,,,,,,48,,,,,,,,,,,,,,462.0789999914123,response,,,,10,B,,,,,Space,keypress(Space),,,,lyrical,,,,-- in --- ------ ------- --------- ----------- --------<br>--------- -------- --- ------- -- ------- ---- -- ------<br>-- --- -------- -------- ---------- ---- ---- ---- ------<br>-- --------- -- ---- -- --- -- --- ------- -- - -----<br>---------- -- -- -- ---- ----- -- ------ -- --- ------<br>-------,161080.68499999354,161079.9049999914,160601.316,160608.1300000078,160617.826,161084.838,,1,in
screen,html.Screen,1_3_0_1_2,2021-03-25T02:15:03.769Z,,,,,,,,,,,,,,,,48,,,,,,,,,,,,,,522.0570000335574,response,,,,10,B,,,,,Space,keypress(Space),,,,lyrical,,,,-- -- the ------ ------- --------- ----------- --------<br>--------- -------- --- ------- -- ------- ---- -- ------<br>-- --- -------- -------- ---------- ---- ---- ---- ------<br>-- --------- -- ---- -- --- -- --- ------- -- - -----<br>---------- -- -- -- ---- ----- -- ------ -- --- ------<br>-------,161607.65000001993,161606.89500003355,161068.199,161080.88500000304,161084.838,161618.512,,2,the
screen,html.Screen,1_3_0_1_3,2021-03-25T02:15:04.321Z,,,,,,,,,,,,,,,,48,,,,,,,,,,,,,,540.5579999942565,response,,,,10,B,,,,,Space,keypress(Space),,,,lyrical,,,,-- -- --- United ------- --------- ----------- --------<br>--------- -------- --- ------- -- ------- ---- -- ------<br>-- --- -------- -------- ---------- ---- ---- ---- ------<br>-- --------- -- ---- -- --- -- --- ------- -- - -----<br>---------- -- -- -- ---- ----- -- ------ -- --- ------<br>-------,162159.84999999637,162159.06999999424,161601.895,161607.85000002943,161618.512,162168.869,,3,United
screen,html.Screen,1_3_0_1_4,2021-03-25T02:15:04.857Z,,,,,,,,,,,,,,,,48,,,,,,,,,,,,,,525.890999983938,response,,,,10,B,,,,,Space,keypress(Space),,,,lyrical,,,,"-- -- --- ------ States, --------- ----------- --------<br>--------- -------- --- ------- -- ------- ---- -- ------<br>-- --- -------- -------- ---------- ---- ---- ---- ------<br>-- --------- -- ---- -- --- -- --- ------- -- - -----<br>---------- -- -- -- ---- ----- -- ------ -- --- ------<br>-------",162695.52499998827,162694.75999998394,162152.264,162160.05499998573,162168.869,162702.468,,4,"States,"
screen,html.Screen,1_3_0_1_5,2021-03-25T02:15:05.401Z,,,,,,,,,,,,,,,,48,,,,,,,,,,,,,,536.1920000318205,response,,,,10,B,,,,,Space,keypress(Space),,,,lyrical,,,,-- -- --- ------ ------- Colombian ----------- --------<br>--------- -------- --- ------- -- ------- ---- -- ------<br>-- --- -------- -------- ---------- ---- ---- ---- ------<br>-- --------- -- ---- -- --- -- --- ------- -- - -----<br>---------- -- -- -- ---- ----- -- ------ -- --- ------<br>-------,163239.39500004053,163238.6600000318,162685.944,162695.73000003584,162702.468,163252.961,,5,Colombian
screen,html.Screen,1_3_0_1_6,2021-03-25T02:15:06.153Z,,,,,,,,,,,,,,,,48,,,,,,,,,,,,,,737.6589999968419,response,,,,10,B,,,,,Space,keypress(Space),,,,lyrical,,,,-- -- --- ------ ------- --------- legislation --------<br>--------- -------- --- ------- -- ------- ---- -- ------<br>-- --- -------- -------- ---------- ---- ---- ---- ------<br>-- --------- -- ---- -- --- -- --- ------- -- - -----<br>---------- -- -- -- ---- ----- -- ------ -- --- ------<br>-------,163991.39999999898,163990.61999999685,163236.313,163239.59000001196,163252.961,164003.412,,6,legislation
screen,html.Screen,1_3_0_1_7,2021-03-25T02:15:06.776Z,,,,,,,,,,,,,,,,48,,,,,,,,,,,,,,611.06799998926,response,,,,10,B,,,,,Space,keypress(Space),,,,lyrical,,,,-- -- --- ------ ------- --------- ----------- requires<br>--------- -------- --- ------- -- ------- ---- -- ------<br>-- --- -------- -------- ---------- ---- ---- ---- ------<br>-- --------- -- ---- -- --- -- --- ------- -- - -----<br>---------- -- -- -- ---- ----- -- ------ -- --- ------<br>-------,164615.23500003386,164614.47999998927,163986.829,163991.6100000264,164003.412,164620.407,,7,requires
screen,html.Screen,1_3_0_1_8,2021-03-25T02:15:07.448Z,,,,,,,,,,,,,,,,48,,,,,,,,,,,,,,665.9980000207433,response,,,,10,B,,,,,Space,keypress(Space),,,,lyrical,,,,-- -- --- ------ ------- --------- ----------- --------<br>travelers -------- --- ------- -- ------- ---- -- ------<br>-- --- -------- -------- ---------- ---- ---- ---- ------<br>-- --------- -- ---- -- --- -- --- ------- -- - -----<br>---------- -- -- -- ---- ----- -- ------ -- --- ------<br>-------,165287.17500000494,165286.40500002075,164603.882,164615.44999998296,164620.407,165304.308,,8,travelers
screen,html.Screen,1_3_0_1_9,2021-03-25T02:15:08.048Z,,,,,,,,,,,,,,,,48,,,,,,,,,,,,,,581.9870000329975,response,,,,10,B,,,,,Space,keypress(Space),,,,lyrical,,,,-- -- --- ------ ------- --------- ----------- --------<br>--------- entering --- ------- -- ------- ---- -- ------<br>-- --- -------- -------- ---------- ---- ---- ---- ------<br>-- --------- -- ---- -- --- -- --- ------- -- - -----<br>---------- -- -- -- ---- ----- -- ------ -- --- ------<br>-------,165887.05000001937,165886.295000033,165287.674,165287.47500001919,165304.308,165904.633,,9,entering
screen,html.Screen,1_3_0_1_10,2021-03-25T02:15:08.656Z,,,,,,,,,,,,,,,,48,,,,,,,,,,,,,,589.4370000151976,response,,,,10,B,,,,,Space,keypress(Space),,,,lyrical,,,,-- -- --- ------ ------- --------- ----------- --------<br>--------- -------- the ------- -- ------- ---- -- ------<br>-- --- -------- -------- ---------- ---- ---- ---- ------<br>-- --------- -- ---- -- --- -- --- ------- -- - -----<br>---------- -- -- -- ---- ----- -- ------ -- --- ------<br>-------,166494.82000002172,166494.0700000152,165871.375,165887.25000002887,165904.633,166505.048,,10,the
screen,html.Screen,1_3_0_1_11,2021-03-25T02:15:09.248Z,,,,,,,,,,,,,,,,48,,,,,,,,,,,,,,581.0970000083908,response,,,,10,B,,,,,Space,keypress(Space),,,,lyrical,,,,-- -- --- ------ ------- --------- ----------- --------<br>--------- -------- --- country -- ------- ---- -- ------<br>-- --- -------- -------- ---------- ---- ---- ---- ------<br>-- --------- -- ---- -- --- -- --- ------- -- - -----<br>---------- -- -- -- ---- ----- -- ------ -- --- ------<br>-------,167086.95500000613,167086.1450000084,166488.454,166495.02000003122,166505.048,167088.783,,11,country
screen,html.Screen,1_3_0_1_12,2021-03-25T02:15:09.792Z,,,,,,,,,,,,,,,,48,,,,,,,,,,,,,,541.3420000251499,response,,,,10,B,,,,,Space,keypress(Space),,,,lyrical,,,,-- -- --- ------ ------- --------- ----------- --------<br>--------- -------- --- ------- to ------- ---- -- ------<br>-- --- -------- -------- ---------- ---- ---- ---- ------<br>-- --------- -- ---- -- --- -- --- ------- -- - -----<br>---------- -- -- -- ---- ----- -- ------ -- --- ------<br>-------,167630.8699999936,167630.12500002515,167072.159,167087.1749999933,167088.783,167639.114,,12,to
screen,html.Screen,1_3_0_1_13,2021-03-25T02:15:10.280Z,,,,,,,,,,,,,,,,48,,,,,,,,,,,,,,478.92600003030384,response,,,,10,B,,,,,Space,keypress(Space),,,,lyrical,,,,-- -- --- ------ ------- --------- ----------- --------<br>--------- -------- --- ------- -- declare ---- -- ------<br>-- --- -------- -------- ---------- ---- ---- ---- ------<br>-- --------- -- ---- -- --- -- --- ------- -- - -----<br>---------- -- -- -- ---- ----- -- ------ -- --- ------<br>-------,168118.7800000189,168118.0400000303,167622.521,167631.07499998296,167639.114,168122.782,,13,declare
screen,html.Screen,1_3_0_1_14,2021-03-25T02:15:10.919Z,,,,,,,,,,,,,,,,48,,,,,,,,,,,,,,635.0580000347691,response,,,,10,B,,,,,Space,keypress(Space),,,,lyrical,,,,-- -- --- ------ ------- --------- ----------- --------<br>--------- -------- --- ------- -- ------- cash -- ------<br>-- --- -------- -------- ---------- ---- ---- ---- ------<br>-- --------- -- ---- -- --- -- --- ------- -- - -----<br>---------- -- -- -- ---- ----- -- ------ -- --- ------<br>-------,168758.55999998748,168757.84000003478,168106.101,168118.98500000825,168122.782,168773.245,,14,cash
screen,html.Screen,1_3_0_1_15,2021-03-25T02:15:11.415Z,,,,,,,,,,,,,,,,48,,,,,,,,,,,,,,480.51000001246575,response,,,,10,B,,,,,Space,keypress(Space),,,,lyrical,,,,-- -- --- ------ ------- --------- ----------- --------<br>--------- -------- --- ------- -- ------- ---- in ------<br>-- --- -------- -------- ---------- ---- ---- ---- ------<br>-- --------- -- ---- -- --- -- --- ------- -- - -----<br>---------- -- -- -- ---- ----- -- ------ -- --- ------<br>-------,169254.52000001678,169253.75500001246,168756.559,168758.76500003505,168773.245,169256.861,,15,in
screen,html.Screen,1_3_0_1_16,2021-03-25T02:15:11.943Z,,,,,,,,,,,,,,,,48,,,,,,,,,,,,,,524.8089999966614,response,,,,10,B,,,,,Space,keypress(Space),,,,lyrical,,,,-- -- --- ------ ------- --------- ----------- --------<br>--------- -------- --- ------- -- ------- ---- -- excess<br>-- --- -------- -------- ---------- ---- ---- ---- ------<br>-- --------- -- ---- -- --- -- --- ------- -- - -----<br>---------- -- -- -- ---- ----- -- ------ -- --- ------<br>-------,169782.40500000538,169781.66999999667,169240.241,169254.729999986,169256.861,169790.537,,16,excess
screen,html.Screen,1_3_0_1_17,2021-03-25T02:15:12.471Z,,,,,,,,,,,,,,,,48,,,,,,,,,,,,,,519.1080000302754,response,,,,10,B,,,,,Space,keypress(Space),,,,lyrical,,,,-- -- --- ------ ------- --------- ----------- --------<br>--------- -------- --- ------- -- ------- ---- -- ------<br>of --- -------- -------- ---------- ---- ---- ---- ------<br>-- --------- -- ---- -- --- -- --- ------- -- - -----<br>---------- -- -- -- ---- ----- -- ------ -- --- ------<br>-------,170310.40000001667,170309.6450000303,169773.934,169782.61500003282,169790.537,170324.212,,17,of
screen,html.Screen,1_3_0_1_18,2021-03-25T02:15:12.991Z,,,,,,,,,,,,,,,,48,,,,,,,,,,,,,,505.31799998815404,response,,,,10,B,,,,,Space,keypress(Space),,,,lyrical,,,,-- -- --- ------ ------- --------- ----------- --------<br>--------- -------- --- ------- -- ------- ---- -- ------<br>-- ten -------- -------- ---------- ---- ---- ---- ------<br>-- --------- -- ---- -- --- -- --- ------- -- - -----<br>---------- -- -- -- ---- ----- -- ------ -- --- ------<br>-------,170830.30000003055,170829.52999998815,170307.62,170310.60500000603,170324.212,170841.225,,18,ten
screen,html.Screen,1_3_0_1_19,2021-03-25T02:15:13.679Z,,,,,,,,,,,,,,,,48,,,,,,,,,,,,,,677.0300000026764,response,,,,10,B,,,,,Space,keypress(Space),,,,lyrical,,,,-- -- --- ------ ------- --------- ----------- --------<br>--------- -------- --- ------- -- ------- ---- -- ------<br>-- --- thousand -------- ---------- ---- ---- ---- ------<br>-- --------- -- ---- -- --- -- --- ------- -- - -----<br>---------- -- -- -- ---- ----- -- ------ -- --- ------<br>-------,171518.98500003153,171518.25500000268,170824.618,170830.50999999978,170841.225,171524.981,,19,thousand
screen,html.Screen,1_3_0_1_20,2021-03-25T02:15:14.678Z,,,,,,,,,,,,,,,,48,,,,,,,,,,,,,,992.1990000243823,response,,,,10,B,,,,,Space,keypress(Space),,,,lyrical,,,,-- -- --- ------ ------- --------- ----------- --------<br>--------- -------- --- ------- -- ------- ---- -- ------<br>-- --- -------- dollars. ---------- ---- ---- ---- ------<br>-- --------- -- ---- -- --- -- --- ------- -- - -----<br>---------- -- -- -- ---- ----- -- ------ -- --- ------<br>-------,172517.87500001956,172517.18000002438,171508.372,171519.20000003884,171524.981,172525.58,,20,dollars.
screen,html.Screen,1_3_0_1_21,2021-03-25T02:15:15.294Z,,,,,,,,,,,,,,,,48,,,,,,,,,,,,,,607.6299999999756,response,,,,10,B,,,,,Space,keypress(Space),,,,lyrical,,,,-- -- --- ------ ------- --------- ----------- --------<br>--------- -------- --- ------- -- ------- ---- -- ------<br>-- --- -------- -------- Concealing ---- ---- ---- ------<br>-- --------- -- ---- -- --- -- --- ------- -- - -----<br>---------- -- -- -- ---- ----- -- ------ -- --- ------<br>-------,173134.01000003796,173133.20999999996,172509.129,172518.06999999098,172525.58,173142.746,,21,Concealing
screen,html.Screen,1_3_0_1_22,2021-03-25T02:15:15.942Z,,,,,,,,,,,,,,,,48,,,,,,,,,,,,,,638.2589999970805,response,,,,10,B,,,,,Space,keypress(Space),,,,lyrical,,,,-- -- --- ------ ------- --------- ----------- --------<br>--------- -------- --- ------- -- ------- ---- -- ------<br>-- --- -------- -------- ---------- more ---- ---- ------<br>-- --------- -- ---- -- --- -- --- ------- -- - -----<br>---------- -- -- -- ---- ----- -- ------ -- --- ------<br>-------,173781.79999999702,173781.0049999971,173126.147,173134.21500002733,173142.746,173793.164,,22,more
screen,html.Screen,1_3_0_1_23,2021-03-25T02:15:16.502Z,,,,,,,,,,,,,,,,48,,,,,,,,,,,,,,547.8060000193072,response,,,,10,B,,,,,Space,keypress(Space),,,,lyrical,,,,-- -- --- ------ ------- --------- ----------- --------<br>--------- -------- --- ------- -- ------- ---- -- ------<br>-- --- -------- -------- ---------- ---- than ---- ------<br>-- --------- -- ---- -- --- -- --- ------- -- - -----<br>---------- -- -- -- ---- ----- -- ------ -- --- ------<br>-------,174341.72500000568,174340.9700000193,173776.578,173782.01000002446,173793.164,174343.537,,23,than
screen,html.Screen,1_3_0_1_24,2021-03-25T02:15:17.078Z,,,,,,,,,,,,,,,,48,,,,,,,,,,,,,,573.3630000110716,response,,,,10,B,,,,,Space,keypress(Space),,,,lyrical,,,,-- -- --- ------ ------- --------- ----------- --------<br>--------- -------- --- ------- -- ------- ---- -- ------<br>-- --- -------- -------- ---------- ---- ---- that ------<br>-- --------- -- ---- -- --- -- --- ------- -- - -----<br>---------- -- -- -- ---- ----- -- ------ -- --- ------<br>-------,174917.63999999966,174916.90000001108,174326.929,174341.92999999505,174343.537,174927.231,,24,that
screen,html.Screen,1_3_0_1_25,2021-03-25T02:15:17.622Z,,,,,,,,,,,,,,,,48,,,,,,,,,,,,,,533.5040000296722,response,,,,10,B,,,,,Space,keypress(Space),,,,lyrical,,,,-- -- --- ------ ------- --------- ----------- --------<br>--------- -------- --- ------- -- ------- ---- -- ------<br>-- --- -------- -------- ---------- ---- ---- ---- amount<br>-- --------- -- ---- -- --- -- --- ------- -- - -----<br>---------- -- -- -- ---- ----- -- ------ -- --- ------<br>-------,175461.46000002045,175460.73500002967,174910.648,174917.84499998903,174927.231,175477.658,,25,amount
screen,html.Screen,1_3_0_1_26,2021-03-25T02:15:18.270Z,,,,,,,,,,,,,,,,48,,,,,,,,,,,,,,631.0620000183699,response,,,,10,B,,,,,Space,keypress(Space),,,,lyrical,,,,-- -- --- ------ ------- --------- ----------- --------<br>--------- -------- --- ------- -- ------- ---- -- ------<br>-- --- -------- -------- ---------- ---- ---- ---- ------<br>to --------- -- ---- -- --- -- --- ------- -- - -----<br>---------- -- -- -- ---- ----- -- ------ -- --- ------<br>-------,176109.4799999846,176108.72000001837,175461.007,175461.66999998968,175477.658,176111.372,,26,to
screen,html.Screen,1_3_0_1_27,2021-03-25T02:15:18.966Z,,,,,,,,,,,,,,,,48,,,,,,,,,,,,,,693.2079999963462,response,,,,10,B,,,,,Space,keypress(Space),,,,lyrical,,,,-- -- --- ------ ------- --------- ----------- --------<br>--------- -------- --- ------- -- ------- ---- -- ------<br>-- --- -------- -------- ---------- ---- ---- ---- ------<br>-- transport -- ---- -- --- -- --- ------- -- - -----<br>---------- -- -- -- ---- ----- -- ------ -- --- ------<br>-------,176805.35000003874,176804.57999999635,176094.766,176109.6799999941,176111.372,176811.741,,27,transport
screen,html.Screen,1_3_0_1_28,2021-03-25T02:15:20.005Z,,,,,,,,,,,,,,,,48,,,,,,,,,,,,,,1032.7090000332391,response,,,,10,B,,,,,Space,keypress(Space),,,,lyrical,,,,-- -- --- ------ ------- --------- ----------- --------<br>--------- -------- --- ------- -- ------- ---- -- ------<br>-- --- -------- -------- ---------- ---- ---- ---- ------<br>-- --------- it ---- -- --- -- --- ------- -- - -----<br>---------- -- -- -- ---- ----- -- ------ -- --- ------<br>-------,177845.2399999951,177844.45000003325,176795.238,176805.60500000138,176811.741,177862.52,,28,it
screen,html.Screen,1_3_0_1_29,2021-03-25T02:15:20.525Z,,,,,,,,,,,,,,,,48,,,,,,,,,,,,,,501.7699999977194,response,,,,10,B,,,,,Space,keypress(Space),,,,lyrical,,,,-- -- --- ------ ------- --------- ----------- --------<br>--------- -------- --- ------- -- ------- ---- -- ------<br>-- --- -------- -------- ---------- ---- ---- ---- ------<br>-- --------- -- into -- --- -- --- ------- -- - -----<br>---------- -- -- -- ---- ----- -- ------ -- --- ------<br>-------,178364.99000003096,178364.2899999977,177829.299,177845.46500002034,177862.52,178379.503,,29,into
screen,html.Screen,1_3_0_1_30,2021-03-25T02:15:20.998Z,,,,,,,,,,,,,,,,48,,,,,,,,,,,,,,456.5970000149973,response,,,,10,B,,,,,Space,keypress(Space),,,,lyrical,,,,-- -- --- ------ ------- --------- ----------- --------<br>--------- -------- --- ------- -- ------- ---- -- ------<br>-- --- -------- -------- ---------- ---- ---- ---- ------<br>-- --------- -- ---- or --- -- --- ------- -- - -----<br>---------- -- -- -- ---- ----- -- ------ -- --- ------<br>-------,178837.60999998776,178836.100000015,178362.904,178365.2000000002,178379.503,178846.418,,30,or
screen,html.Screen,1_3_0_1_31,2021-03-25T02:15:21.493Z,,,,,,,,,,,,,,,,48,,,,,,,,,,,,,,485.82699999777833,response,,,,10,B,,,,,Space,keypress(Space),,,,lyrical,,,,-- -- --- ------ ------- --------- ----------- --------<br>--------- -------- --- ------- -- ------- ---- -- ------<br>-- --- -------- -------- ---------- ---- ---- ---- ------<br>-- --------- -- ---- -- out -- --- ------- -- - -----<br>---------- -- -- -- ---- ----- -- ------ -- --- ------<br>-------,179333.06000003358,179332.24499999778,178829.871,178837.8200000152,178846.418,179346.867,,31,out
screen,html.Screen,1_3_0_1_32,2021-03-25T02:15:21.973Z,,,,,,,,,,,,,,,,48,,,,,,,,,,,,,,465.26300003481447,response,,,,10,B,,,,,Space,keypress(Space),,,,lyrical,,,,-- -- --- ------ ------- --------- ----------- --------<br>--------- -------- --- ------- -- ------- ---- -- ------<br>-- --- -------- -------- ---------- ---- ---- ---- ------<br>-- --------- -- ---- -- --- of --- ------- -- - -----<br>---------- -- -- -- ---- ----- -- ------ -- --- ------<br>-------,179812.86000000546,179812.1300000348,179330.207,179333.28000002075,179346.867,179830.476,,32,of
screen,html.Screen,1_3_0_1_33,2021-03-25T02:15:22.525Z,,,,,,,,,,,,,,,,48,,,,,,,,,,,,,,533.5839999926102,response,,,,10,B,,,,,Space,keypress(Space),,,,lyrical,,,,-- -- --- ------ ------- --------- ----------- --------<br>--------- -------- --- ------- -- ------- ---- -- ------<br>-- --- -------- -------- ---------- ---- ---- ---- ------<br>-- --------- -- ---- -- --- -- the ------- -- - -----<br>---------- -- -- -- ---- ----- -- ------ -- --- ------<br>-------,180364.83500001486,180364.0599999926,179797.122,179813.0700000329,179830.476,180380.836,,33,the
screen,html.Screen,1_3_0_1_34,2021-03-25T02:15:23.021Z,,,,,,,,,,,,,,,,48,,,,,,,,,,,,,,479.1140000127489,response,,,,10,B,,,,,Space,keypress(Space),,,,lyrical,,,,-- -- --- ------ ------- --------- ----------- --------<br>--------- -------- --- ------- -- ------- ---- -- ------<br>-- --- -------- -------- ---------- ---- ---- ---- ------<br>-- --------- -- ---- -- --- -- --- country -- - -----<br>---------- -- -- -- ---- ----- -- ------ -- --- ------<br>-------,180860.72500003502,180859.95000001276,180364.228,180365.0600000401,180380.836,180864.498,,34,country
screen,html.Screen,1_3_0_1_35,2021-03-25T02:15:23.501Z,,,,,,,,,,,,,,,,48,,,,,,,,,,,,,,475.38700002306723,response,,,,10,B,,,,,Space,keypress(Space),,,,lyrical,,,,-- -- --- ------ ------- --------- ----------- --------<br>--------- -------- --- ------- -- ------- ---- -- ------<br>-- --- -------- -------- ---------- ---- ---- ---- ------<br>-- --------- -- ---- -- --- -- --- ------- is - -----<br>---------- -- -- -- ---- ----- -- ------ -- --- ------<br>-------,181340.6449999893,181339.88500002306,180847.868,180860.93500000425,180864.498,181348.048,,35,is
screen,html.Screen,1_3_0_1_36,2021-03-25T02:15:23.958Z,,,,,,,,,,,,,,,,48,,,,,,,,,,,,,,448.58700003515696,response,,,,10,B,,,,,Space,keypress(Space),,,,lyrical,,,,-- -- --- ------ ------- --------- ----------- --------<br>--------- -------- --- ------- -- ------- ---- -- ------<br>-- --- -------- -------- ---------- ---- ---- ---- ------<br>-- --------- -- ---- -- --- -- --- ------- -- a -----<br>---------- -- -- -- ---- ----- -- ------ -- --- ------<br>-------,181797.3800000036,181796.63500003517,181331.531,181340.85500001675,181348.048,181815.112,,36,a
screen,html.Screen,1_3_0_1_37,2021-03-25T02:15:24.565Z,,,,,,,,,,,,,,,,48,,,,,,,,,,,,,,588.6130000401463,response,,,,10,B,,,,,Space,keypress(Space),,,,lyrical,,,,-- -- --- ------ ------- --------- ----------- --------<br>--------- -------- --- ------- -- ------- ---- -- ------<br>-- --- -------- -------- ---------- ---- ---- ---- ------<br>-- --------- -- ---- -- --- -- --- ------- -- - crime<br>---------- -- -- -- ---- ----- -- ------ -- --- ------<br>-------,182404.49500002433,182403.72500004014,181781.808,181797.58499999298,181815.112,182415.485,,37,crime
screen,html.Screen,1_3_0_1_38,2021-03-25T02:15:25.117Z,,,,,,,,,,,,,,,,48,,,,,,,,,,,,,,540.2250000092899,response,,,,10,B,,,,,Space,keypress(Space),,,,lyrical,,,,-- -- --- ------ ------- --------- ----------- --------<br>--------- -------- --- ------- -- ------- ---- -- ------<br>-- --- -------- -------- ---------- ---- ---- ---- ------<br>-- --------- -- ---- -- --- -- --- ------- -- - -----<br>punishable -- -- -- ---- ----- -- ------ -- --- ------<br>-------,182956.4600000158,182955.71000000928,182398.866,182404.71000003163,182415.485,182965.849,,38,punishable
screen,html.Screen,1_3_0_1_39,2021-03-25T02:15:25.620Z,,,,,,,,,,,,,,,,48,,,,,,,,,,,,,,493.67600001295796,response,,,,10,B,,,,,Space,keypress(Space),,,,lyrical,,,,-- -- --- ------ ------- --------- ----------- --------<br>--------- -------- --- ------- -- ------- ---- -- ------<br>-- --- -------- -------- ---------- ---- ---- ---- ------<br>-- --------- -- ---- -- --- -- --- ------- -- - -----<br>---------- by -- -- ---- ----- -- ------ -- --- ------<br>-------,183460.2549999836,183459.52500001295,182949.258,182956.66500000516,182965.849,183466.145,,39,by
screen,html.Screen,1_3_0_1_40,2021-03-25T02:15:26.108Z,,,,,,,,,,,,,,,,48,,,,,,,,,,,,,,481.32500001371955,response,,,,10,B,,,,,Space,keypress(Space),,,,lyrical,,,,-- -- --- ------ ------- --------- ----------- --------<br>--------- -------- --- ------- -- ------- ---- -- ------<br>-- --- -------- -------- ---------- ---- ---- ---- ------<br>-- --------- -- ---- -- --- -- --- ------- -- - -----<br>---------- -- up -- ---- ----- -- ------ -- --- ------<br>-------,183948.24500003597,183947.4700000137,183449.577,183460.46000003116,183466.145,183975.187,,40,up
screen,html.Screen,1_3_0_1_41,2021-03-25T02:15:26.532Z,,,,,,,,,,,,,,,,48,,,,,,,,,,,,,,396.12799999667914,response,,,,10,B,,,,,Space,keypress(Space),,,,lyrical,,,,-- -- --- ------ ------- --------- ----------- --------<br>--------- -------- --- ------- -- ------- ---- -- ------<br>-- --- -------- -------- ---------- ---- ---- ---- ------<br>-- --------- -- ---- -- --- -- --- ------- -- - -----<br>---------- -- -- to ---- ----- -- ------ -- --- ------<br>-------,184372.05499998527,184371.31499999668,183933.192,183948.45000002533,183975.187,184383.441,,41,to
screen,html.Screen,1_3_0_1_42,2021-03-25T02:15:27.021Z,,,,,,,,,,,,,,,,48,,,,,,,,,,,,,,476.14900000730995,response,,,,10,B,,,,,Space,keypress(Space),,,,lyrical,,,,-- -- --- ------ ------- --------- ----------- --------<br>--------- -------- --- ------- -- ------- ---- -- ------<br>-- --- -------- -------- ---------- ---- ---- ---- ------<br>-- --------- -- ---- -- --- -- --- ------- -- - -----<br>---------- -- -- -- five ----- -- ------ -- --- ------<br>-------,184860.29000004055,184859.5900000073,184366.839,184372.26000003284,184383.441,184866.995,,42,five
screen,html.Screen,1_3_0_1_43,2021-03-25T02:15:27.460Z,,,,,,,,,,,,,,,,48,,,,,,,,,,,,,,432.31500003125984,response,,,,10,B,,,,,Space,keypress(Space),,,,lyrical,,,,-- -- --- ------ ------- --------- ----------- --------<br>--------- -------- --- ------- -- ------- ---- -- ------<br>-- --- -------- -------- ---------- ---- ---- ---- ------<br>-- --------- -- ---- -- --- -- --- ------- -- - -----<br>---------- -- -- -- ---- years -- ------ -- --- ------<br>-------,185300.12000002898,185299.31000003126,184850.497,184860.48999999184,184866.995,185317.429,,43,years
