sender,sender_type,sender_id,timestamp,meta,,Blues,Classical,Country,Dance,Electronic,Folk,Gospel,Hip-Hop,Jazz,Latin,Musical/Film,New-age,Pop,Provo_ID,R&B,Rap,Reggae,Religious,Rock,Soul,Swing,Traditional,age,artist_name,correct,correctResponse,distraction,duration,education,ended_on,familiarity,gender,headphone_check_performance,item,list,music_frequency,offensiveness,pleasantness,position_correct,preference,response,response_action,snippet_file,song_name,song_rating,sound,stimulus_1,stimulus_2,stimulus_3,text,time_commit,time_end,time_render,time_run,time_show,time_switch,url,word,word_ID
Introduction,html.Screen,0_0,2021-04-27T14:27:22.248Z,"{""labjs_version"":""20.2.2"",""labjs_build"":{""flavor"":""production"",""commit"":""a25486e0c714a0ae2ce03ff94b7bb6896854dcfa""},""location"":""https://run.pavlovia.org/mvasilev/music_a/"",""userAgent"":""Mozilla/5.0 (Macintosh; Intel Mac OS X 10_15_7) AppleWebKit/537.36 (KHTML, like Gecko) Chrome/89.0.4389.90 Safari/537.36"",""platform"":""MacIntel"",""language"":""en-GB"",""locale"":""en-GB"",""timeZone"":""Europe/London"",""timezoneOffset"":-60,""screen_width"":1440,""screen_height"":900,""scroll_width"":1440,""scroll_height"":741,""window_innerWidth"":1440,""window_innerHeight"":789,""devicePixelRatio"":2}",,,,,,,,,,,,,,,,,,,,,,,,,,,,,26929.602000007486,,response,,,,,,,,,,,continue,click button,,,,,,,,,62562.69000004977,62552.91500000749,35606.647,35606.47999995854,35623.313,62558.777,{},,
Volume calibration,html.Screen,0_1,2021-04-27T14:27:54.621Z,,,,,,,,,,,,,,,,,,,,,,,,,,,,,,32369.92799996934,,response,,,,,,,,,,,continue,click button,,,,,,,,,94936.92000000738,94928.70499996934,62542.111,62564.119999995455,62558.777,94945.77,,,
Task instructions,html.Screen,0_2,2021-04-27T14:27:59.145Z,,,,,,,,,,,,,,,,,,,,,,,,,,,,,,4511.0550000011135,,response,,,,,,,,,,,continue,click button,,,,,,,,,99461.03000000585,99456.82500000112,94929.104,94937.20000004396,94945.77,99462.256,,,
Sounds,html.Screen,0_3_0_0,2021-04-27T14:28:03.385Z,,,,,,,,,,,,,,,,,,,,,,,,,,,,,,4249.830000000002,,timeout,,,,,,,,,1,,,,,,,,S,O,I,,103702.00000004843,103695.42,99445.59,99461.48499997798,99462.256,103712.086,,,
Judgement,html.Screen,0_3_0_1,2021-04-27T14:28:06.174Z,,,,,,,,,,,,,,,,,,,,,,,,,,,true,1,,2775.5790000223933,,response,,,,,,,,,1,,1,click #choice-1,,,,,S,O,I,,106490.55500002578,106487.66500002239,103695.42,103702.2799999686,103712.086,106495.493,,,
Trial,flow.Sequence,0_3_0,2021-04-27T14:28:06.174Z,,,,,,,,,,,,,,,,,,,,,,,,,,,,,,7025.409000022395,,completion,,,,,,,,,1,,,,,,,,S,O,I,,106491.04999995325,106487.66500002239,99445.59,99461.40000002924,99462.256,106495.493,,,
Sounds,html.Screen,0_3_1_0,2021-04-27T14:28:10.414Z,,,,,,,,,,,,,,,,,,,,,,,,,,,,,,4249.830000000002,,timeout,,,,,,,,,2,,,,,,,,I,S,O,,110731.09000001568,110728.657,106478.827,106491.26000003889,106495.493,110745.323,,,
Judgement,html.Screen,0_3_1_1,2021-04-27T14:28:11.054Z,,,,,,,,,,,,,,,,,,,,,,,,,,,true,2,,621.1220000505855,,response,,,,,,,,,2,,2,click #choice-2,,,,,I,S,O,,111371.10500002746,111366.44500005059,110728.657,110731.44999996293,110745.323,111378.631,,,
Trial,flow.Sequence,0_3_1,2021-04-27T14:28:11.054Z,,,,,,,,,,,,,,,,,,,,,,,,,,,,,,4870.952000050587,,completion,,,,,,,,,2,,,,,,,,I,S,O,,111371.43000005744,111366.44500005059,106478.827,106491.20000004768,106495.493,111378.631,,,
Sounds,html.Screen,0_3_2_0,2021-04-27T14:28:15.297Z,,,,,,,,,,,,,,,,,,,,,,,,,,,,,,4249.830000000002,,timeout,,,,,,,,,1,,,,,,,,S,I,O,,115613.94499999005,115611.795,111361.965,111371.65500002448,111378.631,115628.461,,,
Judgement,html.Screen,0_3_2_1,2021-04-27T14:28:15.920Z,,,,,,,,,,,,,,,,,,,,,,,,,,,true,1,,604.4540000587149,,response,,,,,,,,,1,,1,click #choice-1,,,,,S,I,O,,116237.41000005975,116232.91500005871,115611.795,115614.21499995049,115628.461,116249.636,,,
Trial,flow.Sequence,0_3_2,2021-04-27T14:28:15.921Z,,,,,,,,,,,,,,,,,,,,,,,,,,,,,,4854.284000058717,,completion,,,,,,,,,1,,,,,,,,S,I,O,,116237.86500003189,116232.91500005871,111361.965,111371.58499995712,111378.631,116249.636,,,
Sounds,html.Screen,0_3_3_0,2021-04-27T14:28:20.168Z,,,,,,,,,,,,,,,,,,,,,,,,,,,,,,4249.830000000002,,timeout,,,,,,,,,2,,,,,,,,O,S,I,,120485.18499999773,120482.8,116232.97,116238.2000000216,116249.636,120499.466,,,
Judgement,html.Screen,0_3_3_1,2021-04-27T14:28:20.698Z,,,,,,,,,,,,,,,,,,,,,,,,,,,true,2,,511.764000061914,,response,,,,,,,,,2,,2,click #choice-2,,,,,O,S,I,,121015.84500004537,121011.23000006191,120482.8,120485.65499996766,120499.466,121016.112,,,
Trial,flow.Sequence,0_3_3,2021-04-27T14:28:20.699Z,,,,,,,,,,,,,,,,,,,,,,,,,,,,,,4761.594000061916,,completion,,,,,,,,,2,,,,,,,,O,S,I,,121016.16999995895,121011.23000006191,116232.97,116238.07500000112,116249.636,121016.112,,,
Sounds,html.Screen,0_3_4_0,2021-04-27T14:28:24.934Z,,,,,,,,,,,,,,,,,,,,,,,,,,,,,,4249.830000000002,,timeout,,,,,,,,,3,,,,,,,,I,O,S,,125251.78000004962,125249.276,120999.446,121016.38000004459,121016.112,125265.942,,,
Judgement,html.Screen,0_3_4_1,2021-04-27T14:28:25.414Z,,,,,,,,,,,,,,,,,,,,,,,,,,,true,3,,461.02300003803975,,response,,,,,,,,,3,,3,click #choice-3,,,,,I,O,S,,125731.30500002299,125726.96500003804,125249.276,125251.96999998298,125265.942,125732.59,,,
Trial,flow.Sequence,0_3_4,2021-04-27T14:28:25.414Z,,,,,,,,,,,,,,,,,,,,,,,,,,,,,,4710.8530000380415,,completion,,,,,,,,,3,,,,,,,,I,O,S,,125731.58500005957,125726.96500003804,120999.446,121016.29499997944,121016.112,125732.59,,,
Sounds,html.Screen,0_3_5_0,2021-04-27T14:28:29.652Z,,,,,,,,,,,,,,,,,,,,,,,,,,,,,,4249.830000000002,,timeout,,,,,,,,,3,,,,,,,,O,I,S,,129969.57499999553,129965.754,125715.924,125731.75999999512,125732.59,129982.42,,,
Judgement,html.Screen,0_3_5_1,2021-04-27T14:28:30.181Z,,,,,,,,,,,,,,,,,,,,,,,,,,,true,3,,511.47499996323313,,response,,,,,,,,,3,,3,click #choice-3,,,,,O,I,S,,130498.35999996867,130493.89499996323,129965.754,129969.83499999624,129982.42,130512.858,,,
Trial,flow.Sequence,0_3_5,2021-04-27T14:28:30.181Z,,,,,,,,,,,,,,,,,,,,,,,,,,,,,,4761.304999963235,,completion,,,,,,,,,3,,,,,,,,O,I,S,,130498.83000005502,130493.89499996323,125715.924,125731.70500004198,125732.59,130512.858,,,
Task,flow.Loop,0_3,2021-04-27T14:28:30.190Z,,,,,,,,,,,,,,,,,,,,,,,,,,,,,,31031.638999963237,,completion,,,1,,,,,,,,,,,,,,,,,,130507.77499994729,130493.89499996323,99445.59,99461.31499996409,99462.256,130512.858,,,
Trap,html.Screen,0_4,2021-04-27T14:28:30.195Z,,,,,,,,,,,,,,,,,,,,,,,,,,,,,,NaN,,skipped,,,,,,,,,,,,,,,,,,,,,130512.31000002008,130493.89499996323,,130512.04000005964,,130512.858,,,
Thanks,html.Screen,0_5,2021-04-27T14:28:32.736Z,,,,,,,,,,,,,,,,,,,,,,,,,,,,,,2534.8119999999326,,response,,,,,,,,,,,continue,click button,,,,,,,,,133053.91500005499,133047.66999999993,130496.192,130512.62000005227,130512.858,139545.83,,,
Headphone screening,flow.Sequence,0,2021-04-27T14:28:32.737Z,,,,,,,,,,,,,,,,,,,,,,,,,,,,,,97424.35699999993,,completion,,,,,,,,,,,,,,,,,,,,,133054.4200000586,133047.66999999993,35606.647,35606.43499996513,35623.313,139545.83,,,
Instructions,html.Page,1_0,2021-04-27T14:28:53.863Z,,,,,,,,,,,,,,,,,,,,,,,,,,,,,,14635.929999948567,,form submission,,,,,,,,,,,,,,,,,,,,,154182.1550000459,154181.75999994855,139529.164,139543.73000003397,139545.83,154178.311,,,
Holding screen,html.Screen,1_1_0_0,2021-04-27T14:29:03.845Z,,,,,,,,,,,,,,,,,,,,,,,,,,,,,,9999.600000000006,,timeout,,,,,,,,,,,,,,,,,,,,,164164.04499998316,164161.245,154161.645,154182.40499997046,154178.311,164177.911,,,
screen,html.Screen,1_1_0_1_0,2021-04-27T14:29:04.705Z,,,,,,,,,,,,,,,,53,,,,,,,,,,,,,,836.9090000403521,,response,,,,99,,,,,,,Space,keypress(Space),,,,,,,,When -- ----- -- ------ - ------- --- ----------<br>------------- ------ ------ ---- ---- ------- ----- -- ----<br>-------- ------- -- ---------- --- - --- ----- ----- ----<br>---- --- --- ----- --- ---- ---- ------- ----- ---- -------<br>--- --- -- ----- -- --- ---- -- --- ---- -- ------ ------<br>--- ----- -- ----,165024.16000002995,165014.82000004034,164161.245,164164.4549999619,164177.911,165027.877,,0,When
screen,html.Screen,1_1_0_1_1,2021-04-27T14:29:05.083Z,,,,,,,,,,,,,,,,53,,,,,,,,,,,,,,366.7979999886302,,response,,,,99,,,,,,,Space,keypress(Space),,,,,,,,---- it ----- -- ------ - ------- --- ----------<br>------------- ------ ------ ---- ---- ------- ----- -- ----<br>-------- ------- -- ---------- --- - --- ----- ----- ----<br>---- --- --- ----- --- ---- ---- ------- ----- ---- -------<br>--- --- -- ----- -- --- ---- -- --- ---- -- ------ ------<br>--- ----- -- ----,165402.1799999755,165394.67499998864,165011.211,165024.40500003286,165027.877,165410.651,,1,it
screen,html.Screen,1_1_0_1_2,2021-04-27T14:29:05.547Z,,,,,,,,,,,,,,,,53,,,,,,,,,,,,,,449.82900003209943,,response,,,,99,,,,,,,Space,keypress(Space),,,,,,,,---- -- comes -- ------ - ------- --- ----------<br>------------- ------ ------ ---- ---- ------- ----- -- ----<br>-------- ------- -- ---------- --- - --- ----- ----- ----<br>---- --- --- ----- --- ---- ---- ------- ----- ---- -------<br>--- --- -- ----- -- --- ---- -- --- ---- -- ------ ------<br>--- ----- -- ----,165865.9800000023,165860.4800000321,165393.985,165402.3599999491,165410.651,165877.299,,2,comes
screen,html.Screen,1_1_0_1_3,2021-04-27T14:29:05.987Z,,,,,,,,,,,,,,,,53,,,,,,,,,,,,,,422.36600005684886,,response,,,,99,,,,,,,Space,keypress(Space),,,,,,,,---- -- ----- to ------ - ------- --- ----------<br>------------- ------ ------ ---- ---- ------- ----- -- ----<br>-------- ------- -- ---------- --- - --- ----- ----- ----<br>---- --- --- ----- --- ---- ---- ------- ----- ---- -------<br>--- --- -- ----- -- --- ---- -- --- ---- -- ------ ------<br>--- ----- -- ----,166306.510000024,166299.66500005685,165860.633,165866.15500005428,165877.299,166310.615,,3,to
screen,html.Screen,1_1_0_1_4,2021-04-27T14:29:06.441Z,,,,,,,,,,,,,,,,53,,,,,,,,,,,,,,443.09000003919937,,response,,,,99,,,,,,,Space,keypress(Space),,,,,,,,---- -- ----- -- having - ------- --- ----------<br>------------- ------ ------ ---- ---- ------- ----- -- ----<br>-------- ------- -- ---------- --- - --- ----- ----- ----<br>---- --- --- ----- --- ---- ---- ------- ----- ---- -------<br>--- --- -- ----- -- --- ---- -- --- ---- -- ------ ------<br>--- ----- -- ----,166760.04500000272,166753.7050000392,166293.949,166306.68499995954,166310.615,166777.263,,4,having
screen,html.Screen,1_1_0_1_5,2021-04-27T14:29:06.831Z,,,,,,,,,,,,,,,,53,,,,,,,,,,,,,,366.36200002607075,,response,,,,99,,,,,,,Space,keypress(Space),,,,,,,,---- -- ----- -- ------ a ------- --- ----------<br>------------- ------ ------ ---- ---- ------- ----- -- ----<br>-------- ------- -- ---------- --- - --- ----- ----- ----<br>---- --- --- ----- --- ---- ---- ------- ----- ---- -------<br>--- --- -- ----- -- --- ---- -- --- ---- -- ------ ------<br>--- ----- -- ----,167150.44999995735,167143.62500002608,166760.597,166760.24500001222,166777.263,167160.581,,5,a
screen,html.Screen,1_1_0_1_6,2021-04-27T14:29:07.252Z,,,,,,,,,,,,,,,,53,,,,,,,,,,,,,,404.029000001261,,response,,,,99,,,,,,,Space,keypress(Space),,,,,,,,---- -- ----- -- ------ - lasting --- ----------<br>------------- ------ ------ ---- ---- ------- ----- -- ----<br>-------- ------- -- ---------- --- - --- ----- ----- ----<br>---- --- --- ----- --- ---- ---- ------- ----- ---- -------<br>--- --- -- ----- -- --- ---- -- --- ---- -- ------ ------<br>--- ----- -- ----,167571.0399999516,167564.61000000127,167143.915,167150.6250000093,167160.581,167577.231,,6,lasting
screen,html.Screen,1_1_0_1_7,2021-04-27T14:29:07.636Z,,,,,,,,,,,,,,,,53,,,,,,,,,,,,,,371.3789999630826,,response,,,,99,,,,,,,Space,keypress(Space),,,,,,,,---- -- ----- -- ------ - ------- and ----------<br>------------- ------ ------ ---- ---- ------- ----- -- ----<br>-------- ------- -- ---------- --- - --- ----- ----- ----<br>---- --- --- ----- --- ---- ---- ------- ----- ---- -------<br>--- --- -- ----- -- --- ---- -- --- ---- -- ------ ------<br>--- ----- -- ----,167955.169999972,167948.60999996308,167560.565,167571.26500003505,167577.231,167960.549,,7,and
screen,html.Screen,1_1_0_1_8,2021-04-27T14:29:08.248Z,,,,,,,,,,,,,,,,53,,,,,,,,,,,,,,599.6010000339011,,response,,,,99,,,,,,,Space,keypress(Space),,,,,,,,---- -- ----- -- ------ - ------- --- fulfilling<br>------------- ------ ------ ---- ---- ------- ----- -- ----<br>-------- ------- -- ---------- --- - --- ----- ----- ----<br>---- --- --- ----- --- ---- ---- ------- ----- ---- -------<br>--- --- -- ----- -- --- ---- -- --- ---- -- ------ ------<br>--- ----- -- ----,168566.90500001423,168560.1500000339,167943.883,167955.35499998368,167960.549,168577.191,,8,fulfilling
screen,html.Screen,1_1_0_1_9,2021-04-27T14:29:08.665Z,,,,,,,,,,,,,,,,53,,,,,,,,,,,,,,399.559000030742,,response,,,,99,,,,,,,Space,keypress(Space),,,,,,,,"---- -- ----- -- ------ - ------- --- ----------<br>relationship, ------ ------ ---- ---- ------- ----- -- ----<br>-------- ------- -- ---------- --- - --- ----- ----- ----<br>---- --- --- ----- --- ---- ---- ------- ----- ---- -------<br>--- --- -- ----- -- --- ---- -- --- ---- -- ------ ------<br>--- ----- -- ----",168984.04999997,168976.75000003073,168560.525,168567.09499994759,168577.191,168993.841,,9,"relationship,"
screen,html.Screen,1_1_0_1_10,2021-04-27T14:29:09.153Z,,,,,,,,,,,,,,,,53,,,,,,,,,,,,,,471.5840000603639,,response,,,,99,,,,,,,Space,keypress(Space),,,,,,,,---- -- ----- -- ------ - ------- --- ----------<br>------------- common ------ ---- ---- ------- ----- -- ----<br>-------- ------- -- ---------- --- - --- ----- ----- ----<br>---- --- --- ----- --- ---- ---- ------- ----- ---- -------<br>--- --- -- ----- -- --- ---- -- --- ---- -- ------ ------<br>--- ----- -- ----,169472.0199999865,169465.42500006035,168977.175,168984.23000006005,168993.841,169477.155,,10,common
screen,html.Screen,1_1_0_1_11,2021-04-27T14:29:09.583Z,,,,,,,,,,,,,,,,53,,,,,,,,,,,,,,419.36499995112536,,response,,,,99,,,,,,,Space,keypress(Space),,,,,,,,---- -- ----- -- ------ - ------- --- ----------<br>------------- ------ wisdom ---- ---- ------- ----- -- ----<br>-------- ------- -- ---------- --- - --- ----- ----- ----<br>---- --- --- ----- --- ---- ---- ------- ----- ---- -------<br>--- --- -- ----- -- --- ---- -- --- ---- -- ------ ------<br>--- ----- -- ----,169902.780000004,169896.51999995112,169460.489,169472.36999997403,169477.155,169910.471,,11,wisdom
screen,html.Screen,1_1_0_1_12,2021-04-27T14:29:10.085Z,,,,,,,,,,,,,,,,53,,,,,,,,,,,,,,487.9139999494946,,response,,,,99,,,,,,,Space,keypress(Space),,,,,,,,---- -- ----- -- ------ - ------- --- ----------<br>------------- ------ ------ says ---- ------- ----- -- ----<br>-------- ------- -- ---------- --- - --- ----- ----- ----<br>---- --- --- ----- --- ---- ---- ------- ----- ---- -------<br>--- --- -- ----- -- --- ---- -- --- ---- -- ------ ------<br>--- ----- -- ----,170404.32500001043,170398.38499994949,169893.805,169902.96500001568,169910.471,170410.451,,12,says
screen,html.Screen,1_1_0_1_13,2021-04-27T14:29:10.449Z,,,,,,,,,,,,,,,,53,,,,,,,,,,,,,,351.1240000113612,,response,,,,99,,,,,,,Space,keypress(Space),,,,,,,,---- -- ----- -- ------ - ------- --- ----------<br>------------- ------ ------ ---- that ------- ----- -- ----<br>-------- ------- -- ---------- --- - --- ----- ----- ----<br>---- --- --- ----- --- ---- ---- ------- ----- ---- -------<br>--- --- -- ----- -- --- ---- -- --- ---- -- ------ ------<br>--- ----- -- ----,170768.81000003777,170761.57500001136,170393.785,170404.53499997966,170410.451,170777.103,,13,that
screen,html.Screen,1_1_0_1_14,2021-04-27T14:29:10.851Z,,,,,,,,,,,,,,,,53,,,,,,,,,,,,,,388.3220000137808,,response,,,,99,,,,,,,Space,keypress(Space),,,,,,,,---- -- ----- -- ------ - ------- --- ----------<br>------------- ------ ------ ---- ---- feeling ----- -- ----<br>-------- ------- -- ---------- --- - --- ----- ----- ----<br>---- --- --- ----- --- ---- ---- ------- ----- ---- -------<br>--- --- -- ----- -- --- ---- -- --- ---- -- ------ ------<br>--- ----- -- ----,171170.92000006232,171165.42500001378,170760.437,170768.99500004947,170777.103,171177.087,,14,feeling
screen,html.Screen,1_1_0_1_15,2021-04-27T14:29:11.236Z,,,,,,,,,,,,,,,,53,,,,,,,,,,,,,,371.4679999866639,,response,,,,99,,,,,,,Space,keypress(Space),,,,,,,,---- -- ----- -- ------ - ------- --- ----------<br>------------- ------ ------ ---- ---- ------- close -- ----<br>-------- ------- -- ---------- --- - --- ----- ----- ----<br>---- --- --- ----- --- ---- ---- ------- ----- ---- -------<br>--- --- -- ----- -- --- ---- -- --- ---- -- ------ ------<br>--- ----- -- ----,171555.05500000436,171548.55499998666,171160.421,171171.1049999576,171177.087,171560.405,,15,close
screen,html.Screen,1_1_0_1_16,2021-04-27T14:29:11.637Z,,,,,,,,,,,,,,,,53,,,,,,,,,,,,,,387.95500003852067,,response,,,,99,,,,,,,Space,keypress(Space),,,,,,,,---- -- ----- -- ------ - ------- --- ----------<br>------------- ------ ------ ---- ---- ------- ----- to ----<br>-------- ------- -- ---------- --- - --- ----- ----- ----<br>---- --- --- ----- --- ---- ---- ------- ----- ---- -------<br>--- --- -- ----- -- --- ---- -- --- ---- -- ------ ------<br>--- ----- -- ----,171956.09999995213,171948.36000003852,171543.739,171555.23499997798,171560.405,171960.389,,16,to
screen,html.Screen,1_1_0_1_17,2021-04-27T14:29:12.049Z,,,,,,,,,,,,,,,,53,,,,,,,,,,,,,,400.01600004310603,,response,,,,99,,,,,,,Space,keypress(Space),,,,,,,,---- -- ----- -- ------ - ------- --- ----------<br>------------- ------ ------ ---- ---- ------- ----- -- your<br>-------- ------- -- ---------- --- - --- ----- ----- ----<br>---- --- --- ----- --- ---- ---- ------- ----- ---- -------<br>--- --- -- ----- -- --- ---- -- --- ---- -- ------ ------<br>--- ----- -- ----,172368.10500000138,172360.4050000431,171943.723,171956.28499996383,171960.389,172377.039,,17,your
screen,html.Screen,1_1_0_1_18,2021-04-27T14:29:12.453Z,,,,,,,,,,,,,,,,53,,,,,,,,,,,,,,389.3459999662591,,response,,,,99,,,,,,,Space,keypress(Space),,,,,,,,---- -- ----- -- ------ - ------- --- ----------<br>------------- ------ ------ ---- ---- ------- ----- -- ----<br>romantic ------- -- ---------- --- - --- ----- ----- ----<br>---- --- --- ----- --- ---- ---- ------- ----- ---- -------<br>--- --- -- ----- -- --- ---- -- --- ---- -- ------ ------<br>--- ----- -- ----,172772.67500001471,172766.38499996625,172360.373,172368.30500001088,172377.039,172777.023,,18,romantic
screen,html.Screen,1_1_0_1_19,2021-04-27T14:29:12.839Z,,,,,,,,,,,,,,,,53,,,,,,,,,,,,,,374.6219999762834,,response,,,,99,,,,,,,Space,keypress(Space),,,,,,,,---- -- ----- -- ------ - ------- --- ----------<br>------------- ------ ------ ---- ---- ------- ----- -- ----<br>-------- partner -- ---------- --- - --- ----- ----- ----<br>---- --- --- ----- --- ---- ---- ------- ----- ---- -------<br>--- --- -- ----- -- --- ---- -- --- ---- -- ------ ------<br>--- ----- -- ----,173158.10500003863,173151.64499997627,172760.357,172772.8750000242,172777.023,173160.341,,19,partner
screen,html.Screen,1_1_0_1_20,2021-04-27T14:29:13.242Z,,,,,,,,,,,,,,,,53,,,,,,,,,,,,,,393.08400004918803,,response,,,,99,,,,,,,Space,keypress(Space),,,,,,,,---- -- ----- -- ------ - ------- --- ----------<br>------------- ------ ------ ---- ---- ------- ----- -- ----<br>-------- ------- is ---------- --- - --- ----- ----- ----<br>---- --- --- ----- --- ---- ---- ------- ----- ---- -------<br>--- --- -- ----- -- --- ---- -- --- ---- -- ------ ------<br>--- ----- -- ----,173561.14999996498,173553.42500004917,173143.675,173158.27999997418,173160.341,173576.991,,20,is
screen,html.Screen,1_1_0_1_21,2021-04-27T14:29:14.369Z,,,,,,,,,,,,,,,,53,,,,,,,,,,,,,,1105.3839999748452,,response,,,,99,,,,,,,Space,keypress(Space),,,,,,,,---- -- ----- -- ------ - ------- --- ----------<br>------------- ------ ------ ---- ---- ------- ----- -- ----<br>-------- ------- -- paramount. --- - --- ----- ----- ----<br>---- --- --- ----- --- ---- ---- ------- ----- ---- -------<br>--- --- -- ----- -- --- ---- -- --- ---- -- ------ ------<br>--- ----- -- ----,174688.45000001602,174682.37499997485,173560.325,173561.40500004403,173576.991,174693.613,,21,paramount.
screen,html.Screen,1_1_0_1_22,2021-04-27T14:29:14.834Z,,,,,,,,,,,,,,,,53,,,,,,,,,,,,,,452.7470000133617,,response,,,,99,,,,,,,Space,keypress(Space),,,,,,,,---- -- ----- -- ------ - ------- --- ----------<br>------------- ------ ------ ---- ---- ------- ----- -- ----<br>-------- ------- -- ---------- But - --- ----- ----- ----<br>---- --- --- ----- --- ---- ---- ------- ----- ---- -------<br>--- --- -- ----- -- --- ---- -- --- ---- -- ------ ------<br>--- ----- -- ----,175153.96500006318,175146.36000001337,174676.947,174688.6200000299,174693.613,175160.261,,22,But
screen,html.Screen,1_1_0_1_23,2021-04-27T14:29:15.290Z,,,,,,,,,,,,,,,,53,,,,,,,,,,,,,,443.16399997932604,,response,,,,99,,,,,,,Space,keypress(Space),,,,,,,,---- -- ----- -- ------ - ------- --- ----------<br>------------- ------ ------ ---- ---- ------- ----- -- ----<br>-------- ------- -- ---------- --- a --- ----- ----- ----<br>---- --- --- ----- --- ---- ---- ------- ----- ---- -------<br>--- --- -- ----- -- --- ---- -- --- ---- -- ------ ------<br>--- ----- -- ----,175610.02500005998,175603.42499997932,175143.595,175154.13499996066,175160.261,175619.268,,23,a
screen,html.Screen,1_1_0_1_24,2021-04-27T14:29:15.670Z,,,,,,,,,,,,,,,,53,,,,,,,,,,,,,,362.99199996065,,response,,,,99,,,,,,,Space,keypress(Space),,,,,,,,---- -- ----- -- ------ - ------- --- ----------<br>------------- ------ ------ ---- ---- ------- ----- -- ----<br>-------- ------- -- ---------- --- - new ----- ----- ----<br>---- --- --- ----- --- ---- ---- ------- ----- ---- -------<br>--- --- -- ----- -- --- ---- -- --- ---- -- ------ ------<br>--- ----- -- ----,175989.54500001855,175982.25999996066,175602.602,175610.22999999113,175619.268,176002.586,,24,new
screen,html.Screen,1_1_0_1_25,2021-04-27T14:29:16.058Z,,,,,,,,,,,,,,,,53,,,,,,,,,,,,,,368.8590000552358,,response,,,,99,,,,,,,Space,keypress(Space),,,,,,,,---- -- ----- -- ------ - ------- --- ----------<br>------------- ------ ------ ---- ---- ------- ----- -- ----<br>-------- ------- -- ---------- --- - --- study ----- ----<br>---- --- --- ----- --- ---- ---- ------- ----- ---- -------<br>--- --- -- ----- -- --- ---- -- --- ---- -- ------ ------<br>--- ----- -- ----,176378.08499997482,176371.44500005525,175985.92,175989.72499999218,176002.586,176385.904,,25,study
screen,html.Screen,1_1_0_1_26,2021-04-27T14:29:16.468Z,,,,,,,,,,,,,,,,53,,,,,,,,,,,,,,394.7159999758878,,response,,,,99,,,,,,,Space,keypress(Space),,,,,,,,---- -- ----- -- ------ - ------- --- ----------<br>------------- ------ ------ ---- ---- ------- ----- -- ----<br>-------- ------- -- ---------- --- - --- ----- finds ----<br>---- --- --- ----- --- ---- ---- ------- ----- ---- -------<br>--- --- -- ----- -- --- ---- -- --- ---- -- ------ ------<br>--- ----- -- ----,176787.55500004627,176780.6199999759,176369.238,176378.26000002678,176385.904,176802.554,,26,finds
screen,html.Screen,1_1_0_1_27,2021-04-27T14:29:16.936Z,,,,,,,,,,,,,,,,53,,,,,,,,,,,,,,446.0410000118427,,response,,,,99,,,,,,,Space,keypress(Space),,,,,,,,---- -- ----- -- ------ - ------- --- ----------<br>------------- ------ ------ ---- ---- ------- ----- -- ----<br>-------- ------- -- ---------- --- - --- ----- ----- that<br>---- --- --- ----- --- ---- ---- ------- ----- ---- -------<br>--- --- -- ----- -- --- ---- -- --- ---- -- ------ ------<br>--- ----- -- ----,177255.37999998778,177248.59500001185,176785.888,176787.74000005797,176802.554,177269.202,,27,that
screen,html.Screen,1_1_0_1_28,2021-04-27T14:29:17.351Z,,,,,,,,,,,,,,,,53,,,,,,,,,,,,,,397.89799996238435,,response,,,,99,,,,,,,Space,keypress(Space),,,,,,,,---- -- ----- -- ------ - ------- --- ----------<br>------------- ------ ------ ---- ---- ------- ----- -- ----<br>-------- ------- -- ---------- --- - --- ----- ----- ----<br>it's --- --- ----- --- ---- ---- ------- ----- ---- -------<br>--- --- -- ----- -- --- ---- -- --- ---- -- ------ ------<br>--- ----- -- ----,177670.8599999547,177667.09999996237,177252.536,177255.5599999614,177269.202,177685.852,,28,it's
screen,html.Screen,1_1_0_1_29,2021-04-27T14:29:17.787Z,,,,,,,,,,,,,,,,53,,,,,,,,,,,,,,414.4280000132858,,response,,,,99,,,,,,,Space,keypress(Space),,,,,,,,---- -- ----- -- ------ - ------- --- ----------<br>------------- ------ ------ ---- ---- ------- ----- -- ----<br>-------- ------- -- ---------- --- - --- ----- ----- ----<br>---- not --- ----- --- ---- ---- ------- ----- ---- -------<br>--- --- -- ----- -- --- ---- -- --- ---- -- ------ ------<br>--- ----- -- ----,178106.93999996874,178100.2800000133,177669.186,177671.05000000447,177685.852,178119.168,,29,not
screen,html.Screen,1_1_0_1_30,2021-04-27T14:29:18.212Z,,,,,,,,,,,,,,,,53,,,,,,,,,,,,,,405.1770000416436,,response,,,,99,,,,,,,Space,keypress(Space),,,,,,,,---- -- ----- -- ------ - ------- --- ----------<br>------------- ------ ------ ---- ---- ------- ----- -- ----<br>-------- ------- -- ---------- --- - --- ----- ----- ----<br>---- --- how ----- --- ---- ---- ------- ----- ---- -------<br>--- --- -- ----- -- --- ---- -- --- ---- -- ------ ------<br>--- ----- -- ----,178531.65500005707,178524.34500004165,178102.502,178107.13999997824,178119.168,178535.818,,30,how
screen,html.Screen,1_1_0_1_31,2021-04-27T14:29:18.613Z,,,,,,,,,,,,,,,,53,,,,,,,,,,,,,,391.33700004123966,,response,,,,99,,,,,,,Space,keypress(Space),,,,,,,,---- -- ----- -- ------ - ------- --- ----------<br>------------- ------ ------ ---- ---- ------- ----- -- ----<br>-------- ------- -- ---------- --- - --- ----- ----- ----<br>---- --- --- close --- ---- ---- ------- ----- ---- -------<br>--- --- -- ----- -- --- ---- -- --- ---- -- ------ ------<br>--- ----- -- ----,178932.829999947,178927.15500004124,178519.152,178531.83999995235,178535.818,178935.802,,31,close
screen,html.Screen,1_1_0_1_32,2021-04-27T14:29:19.048Z,,,,,,,,,,,,,,,,53,,,,,,,,,,,,,,425.70799995880225,,response,,,,99,,,,,,,Space,keypress(Space),,,,,,,,---- -- ----- -- ------ - ------- --- ----------<br>------------- ------ ------ ---- ---- ------- ----- -- ----<br>-------- ------- -- ---------- --- - --- ----- ----- ----<br>---- --- --- ----- you ---- ---- ------- ----- ---- -------<br>--- --- -- ----- -- --- ---- -- --- ---- -- ------ ------<br>--- ----- -- ----,179368.3149999706,179361.5099999588,178919.136,178933.01000003703,178935.802,179369.118,,32,you
screen,html.Screen,1_1_0_1_33,2021-04-27T14:29:19.473Z,,,,,,,,,,,,,,,,53,,,,,,,,,,,,,,418.12199997602147,,response,,,,99,,,,,,,Space,keypress(Space),,,,,,,,---- -- ----- -- ------ - ------- --- ----------<br>------------- ------ ------ ---- ---- ------- ----- -- ----<br>-------- ------- -- ---------- --- - --- ----- ----- ----<br>---- --- --- ----- --- feel ---- ------- ----- ---- -------<br>--- --- -- ----- -- --- ---- -- --- ---- -- ------ ------<br>--- ----- -- ----,179792.77499997988,179787.239999976,179352.452,179368.49000002258,179369.118,179802.434,,33,feel
screen,html.Screen,1_1_0_1_34,2021-04-27T14:29:19.814Z,,,,,,,,,,,,,,,,53,,,,,,,,,,,,,,325.3759999762988,,response,,,,99,,,,,,,Space,keypress(Space),,,,,,,,---- -- ----- -- ------ - ------- --- ----------<br>------------- ------ ------ ---- ---- ------- ----- -- ----<br>-------- ------- -- ---------- --- - --- ----- ----- ----<br>---- --- --- ----- --- ---- that ------- ----- ---- -------<br>--- --- -- ----- -- --- ---- -- --- ---- -- ------ ------<br>--- ----- -- ----,180134.2200000072,180127.8099999763,179785.768,179792.94499999378,179802.434,180135.754,,34,that
screen,html.Screen,1_1_0_1_35,2021-04-27T14:29:20.262Z,,,,,,,,,,,,,,,,53,,,,,,,,,,,,,,439.6060000171128,,response,,,,99,,,,,,,Space,keypress(Space),,,,,,,,---- -- ----- -- ------ - ------- --- ----------<br>------------- ------ ------ ---- ---- ------- ----- -- ----<br>-------- ------- -- ---------- --- - --- ----- ----- ----<br>---- --- --- ----- --- ---- ---- matters ----- ---- -------<br>--- --- -- ----- -- --- ---- -- --- ---- -- ------ ------<br>--- ----- -- ----,180582.04999996815,180575.3600000171,180119.088,180134.41000005696,180135.754,180585.736,,35,matters
screen,html.Screen,1_1_0_1_36,2021-04-27T14:29:20.635Z,,,,,,,,,,,,,,,,53,,,,,,,,,,,,,,362.4339999887452,,response,,,,99,,,,,,,Space,keypress(Space),,,,,,,,"---- -- ----- -- ------ - ------- --- ----------<br>------------- ------ ------ ---- ---- ------- ----- -- ----<br>-------- ------- -- ---------- --- - --- ----- ----- ----<br>---- --- --- ----- --- ---- ---- ------- most, ---- -------<br>--- --- -- ----- -- --- ---- -- --- ---- -- ------ ------<br>--- ----- -- ----",180954.87000001594,180948.16999998875,180569.07,180582.22500002012,180585.736,180969.054,,36,"most,"
screen,html.Screen,1_1_0_1_37,2021-04-27T14:29:21.120Z,,,,,,,,,,,,,,,,53,,,,,,,,,,,,,,465.1310000200756,,response,,,,99,,,,,,,Space,keypress(Space),,,,,,,,---- -- ----- -- ------ - ------- --- ----------<br>------------- ------ ------ ---- ---- ------- ----- -- ----<br>-------- ------- -- ---------- --- - --- ----- ----- ----<br>---- --- --- ----- --- ---- ---- ------- ----- it's -------<br>--- --- -- ----- -- --- ---- -- --- ---- -- ------ ------<br>--- ----- -- ----,181440.22999994922,181434.18500002008,180952.388,180955.12000005692,180969.054,181452.368,,37,it's
screen,html.Screen,1_1_0_1_38,2021-04-27T14:29:21.579Z,,,,,,,,,,,,,,,,53,,,,,,,,,,,,,,439.06199995966745,,response,,,,99,,,,,,,Space,keypress(Space),,,,,,,,---- -- ----- -- ------ - ------- --- ----------<br>------------- ------ ------ ---- ---- ------- ----- -- ----<br>-------- ------- -- ---------- --- - --- ----- ----- ----<br>---- --- --- ----- --- ---- ---- ------- ----- ---- whether<br>--- --- -- ----- -- --- ---- -- --- ---- -- ------ ------<br>--- ----- -- ----,181898.91500002705,181891.42999995966,181435.702,181440.39999996312,181452.368,181902.35,,38,whether
screen,html.Screen,1_1_0_1_39,2021-04-27T14:29:21.984Z,,,,,,,,,,,,,,,,53,,,,,,,,,,,,,,395.20000001750304,,response,,,,99,,,,,,,Space,keypress(Space),,,,,,,,---- -- ----- -- ------ - ------- --- ----------<br>------------- ------ ------ ---- ---- ------- ----- -- ----<br>-------- ------- -- ---------- --- - --- ----- ----- ----<br>---- --- --- ----- --- ---- ---- ------- ----- ---- -------<br>you --- -- ----- -- --- ---- -- --- ---- -- ------ ------<br>--- ----- -- ----,182303.77999995835,182297.5500000175,181885.684,181899.08000000287,181902.35,182319,,39,you
screen,html.Screen,1_1_0_1_40,2021-04-27T14:29:22.363Z,,,,,,,,,,,,,,,,53,,,,,,,,,,,,,,358.17999999877065,,response,,,,99,,,,,,,Space,keypress(Space),,,,,,,,---- -- ----- -- ------ - ------- --- ----------<br>------------- ------ ------ ---- ---- ------- ----- -- ----<br>-------- ------- -- ---------- --- - --- ----- ----- ----<br>---- --- --- ----- --- ---- ---- ------- ----- ---- -------<br>--- are -- ----- -- --- ---- -- --- ---- -- ------ ------<br>--- ----- -- ----,182683.40500001796,182677.17999999877,182302.334,182303.9600000484,182319,182685.652,,40,are
screen,html.Screen,1_1_0_1_41,2021-04-27T14:29:22.744Z,,,,,,,,,,,,,,,,53,,,,,,,,,,,,,,371.453000014415,,response,,,,99,,,,,,,Space,keypress(Space),,,,,,,,---- -- ----- -- ------ - ------- --- ----------<br>------------- ------ ------ ---- ---- ------- ----- -- ----<br>-------- ------- -- ---------- --- - --- ----- ----- ----<br>---- --- --- ----- --- ---- ---- ------- ----- ---- -------<br>--- --- as ----- -- --- ---- -- --- ---- -- ------ ------<br>--- ----- -- ----,183063.81500000134,183057.10500001442,182668.986,182683.77500004135,182685.652,183068.97,,41,as
screen,html.Screen,1_1_0_1_42,2021-04-27T14:29:23.161Z,,,,,,,,,,,,,,,,53,,,,,,,,,,,,,,404.17000001642737,,response,,,,99,,,,,,,Space,keypress(Space),,,,,,,,---- -- ----- -- ------ - ------- --- ----------<br>------------- ------ ------ ---- ---- ------- ----- -- ----<br>-------- ------- -- ---------- --- - --- ----- ----- ----<br>---- --- --- ----- --- ---- ---- ------- ----- ---- -------<br>--- --- -- close -- --- ---- -- --- ---- -- ------ ------<br>--- ----- -- ----,183481.01500002667,183473.14000001643,183052.304,183064.06000000425,183068.97,183485.62,,42,close
screen,html.Screen,1_1_0_1_43,2021-04-27T14:29:23.559Z,,,,,,,,,,,,,,,,53,,,,,,,,,,,,,,387.5099999635713,,response,,,,99,,,,,,,Space,keypress(Space),,,,,,,,---- -- ----- -- ------ - ------- --- ----------<br>------------- ------ ------ ---- ---- ------- ----- -- ----<br>-------- ------- -- ---------- --- - --- ----- ----- ----<br>---- --- --- ----- --- ---- ---- ------- ----- ---- -------<br>--- --- -- ----- as --- ---- -- --- ---- -- ------ ------<br>--- ----- -- ----,183878.53999994695,183873.12999996357,183468.954,183481.30500002299,183485.62,183885.604,,43,as
screen,html.Screen,1_1_0_1_44,2021-04-27T14:29:23.958Z,,,,,,,,,,,,,,,,53,,,,,,,,,,,,,,385.7460000536521,,response,,,,99,,,,,,,Space,keypress(Space),,,,,,,,---- -- ----- -- ------ - ------- --- ----------<br>------------- ------ ------ ---- ---- ------- ----- -- ----<br>-------- ------- -- ---------- --- - --- ----- ----- ----<br>---- --- --- ----- --- ---- ---- ------- ----- ---- -------<br>--- --- -- ----- -- you ---- -- --- ---- -- ------ ------<br>--- ----- -- ----,184277.86499995273,184271.35000005364,183868.938,183878.70999996085,183885.604,184285.588,,44,you
screen,html.Screen,1_1_0_1_45,2021-04-27T14:29:24.334Z,,,,,,,,,,,,,,,,53,,,,,,,,,,,,,,361.5220000199042,,response,,,,99,,,,,,,Space,keypress(Space),,,,,,,,---- -- ----- -- ------ - ------- --- ----------<br>------------- ------ ------ ---- ---- ------- ----- -- ----<br>-------- ------- -- ---------- --- - --- ----- ----- ----<br>---- --- --- ----- --- ---- ---- ------- ----- ---- -------<br>--- --- -- ----- -- --- want -- --- ---- -- ------ ------<br>--- ----- -- ----,184653.66499999072,184647.1100000199,184268.922,184278.03000004496,184285.588,184668.906,,45,want
screen,html.Screen,1_1_0_1_46,2021-04-27T14:29:24.720Z,,,,,,,,,,,,,,,,53,,,,,,,,,,,,,,369.0189999532595,,response,,,,99,,,,,,,Space,keypress(Space),,,,,,,,---- -- ----- -- ------ - ------- --- ----------<br>------------- ------ ------ ---- ---- ------- ----- -- ----<br>-------- ------- -- ---------- --- - --- ----- ----- ----<br>---- --- --- ----- --- ---- ---- ------- ----- ---- -------<br>--- --- -- ----- -- --- ---- to --- ---- -- ------ ------<br>--- ----- -- ----,185040.46499996912,185037.92499995325,184652.24,184653.82999996655,184668.906,185052.224,,46,to
screen,html.Screen,1_1_0_1_47,2021-04-27T14:29:25.127Z,,,,,,,,,,,,,,,,53,,,,,,,,,,,,,,387.866000047361,,response,,,,99,,,,,,,Space,keypress(Space),,,,,,,,"---- -- ----- -- ------ - ------- --- ----------<br>------------- ------ ------ ---- ---- ------- ----- -- ----<br>-------- ------- -- ---------- --- - --- ----- ----- ----<br>---- --- --- ----- --- ---- ---- ------- ----- ---- -------<br>--- --- -- ----- -- --- ---- -- be, ---- -- ------ ------<br>--- ----- -- ----",185447.1050000284,185440.09000004735,185035.558,185040.55499995593,185052.224,185452.208,,47,"be,"
screen,html.Screen,1_1_0_1_48,2021-04-27T14:29:25.549Z,,,,,,,,,,,,,,,,53,,,,,,,,,,,,,,411.0070000193955,,response,,,,99,,,,,,,Space,keypress(Space),,,,,,,,---- -- ----- -- ------ - ------- --- ----------<br>------------- ------ ------ ---- ---- ------- ----- -- ----<br>-------- ------- -- ---------- --- - --- ----- ----- ----<br>---- --- --- ----- --- ---- ---- ------- ----- ---- -------<br>--- --- -- ----- -- --- ---- -- --- even -- ------ ------<br>--- ----- -- ----,185869.3000000203,185863.2150000194,185435.542,185447.27500004228,185452.208,185879.218,,48,even
screen,html.Screen,1_1_0_1_49,2021-04-27T14:29:25.944Z,,,,,,,,,,,,,,,,53,,,,,,,,,,,,,,378.75699995679315,,response,,,,99,,,,,,,Space,keypress(Space),,,,,,,,---- -- ----- -- ------ - ------- --- ----------<br>------------- ------ ------ ---- ---- ------- ----- -- ----<br>-------- ------- -- ---------- --- - --- ----- ----- ----<br>---- --- --- ----- --- ---- ---- ------- ----- ---- -------<br>--- --- -- ----- -- --- ---- -- --- ---- if ------ ------<br>--- ----- -- ----,186263.94500001334,186257.9749999568,185862.552,185869.46499999613,185879.218,186279.202,,49,if
screen,html.Screen,1_1_0_1_50,2021-04-27T14:29:26.329Z,,,,,,,,,,,,,,,,53,,,,,,,,,,,,,,364.8980000340962,,response,,,,99,,,,,,,Space,keypress(Space),,,,,,,,---- -- ----- -- ------ - ------- --- ----------<br>------------- ------ ------ ---- ---- ------- ----- -- ----<br>-------- ------- -- ---------- --- - --- ----- ----- ----<br>---- --- --- ----- --- ---- ---- ------- ----- ---- -------<br>--- --- -- ----- -- --- ---- -- --- ---- -- that's ------<br>--- ----- -- ----,186649.57500004675,186644.1000000341,186262.536,186264.10999998916,186279.202,186662.52,,50,that's
screen,html.Screen,1_1_0_1_51,2021-04-27T14:29:26.749Z,,,,,,,,,,,,,,,,53,,,,,,,,,,,,,,400.6700000153214,,response,,,,99,,,,,,,Space,keypress(Space),,,,,,,,---- -- ----- -- ------ - ------- --- ----------<br>------------- ------ ------ ---- ---- ------- ----- -- ----<br>-------- ------- -- ---------- --- - --- ----- ----- ----<br>---- --- --- ----- --- ---- ---- ------- ----- ---- -------<br>--- --- -- ----- -- --- ---- -- --- ---- -- ------ really<br>--- ----- -- ----,187069.4000000367,187063.1900000153,186645.854,186649.74000002258,186662.52,187079.17,,51,really
screen,html.Screen,1_1_0_1_52,2021-04-27T14:29:27.176Z,,,,,,,,,,,,,,,,53,,,,,,,,,,,,,,409.0300000215939,,response,,,,99,,,,,,,Space,keypress(Space),,,,,,,,---- -- ----- -- ------ - ------- --- ----------<br>------------- ------ ------ ---- ---- ------- ----- -- ----<br>-------- ------- -- ---------- --- - --- ----- ----- ----<br>---- --- --- ----- --- ---- ---- ------- ----- ---- -------<br>--- --- -- ----- -- --- ---- -- --- ---- -- ------ ------<br>not ----- -- ----,187495.69500004873,187488.2000000216,187062.504,187069.55999997444,187079.17,187512.486,,52,not
screen,html.Screen,1_1_0_1_53,2021-04-27T14:29:27.565Z,,,,,,,,,,,,,,,,53,,,,,,,,,,,,,,364.82400001076167,,response,,,,99,,,,,,,Space,keypress(Space),,,,,,,,---- -- ----- -- ------ - ------- --- ----------<br>------------- ------ ------ ---- ---- ------- ----- -- ----<br>-------- ------- -- ---------- --- - --- ----- ----- ----<br>---- --- --- ----- --- ---- ---- ------- ----- ---- -------<br>--- --- -- ----- -- --- ---- -- --- ---- -- ------ ------<br>--- close -- ----,187884.70499997493,187877.31000001077,187495.82,187495.9599999711,187512.486,187895.804,,53,close
screen,html.Screen,1_1_0_1_54,2021-04-27T14:29:27.951Z,,,,,,,,,,,,,,,,53,,,,,,,,,,,,,,369.2110000117682,,response,,,,99,,,,,,,Space,keypress(Space),,,,,,,,---- -- ----- -- ------ - ------- --- ----------<br>------------- ------ ------ ---- ---- ------- ----- -- ----<br>-------- ------- -- ---------- --- - --- ----- ----- ----<br>---- --- --- ----- --- ---- ---- ------- ----- ---- -------<br>--- --- -- ----- -- --- ---- -- --- ---- -- ------ ------<br>--- ----- at ----,188270.98000003025,188265.01500001177,187879.138,187884.8800000269,187895.804,188279.122,,54,at
screen,html.Screen,1_1_0_1_55,2021-04-27T14:29:28.826Z,,,,,,,,,,,,,,,,53,,,,,,,,,,,,,,860.1480000433221,,response,,,,99,,,,,,,Space,keypress(Space),,,,,,,,---- -- ----- -- ------ - ------- --- ----------<br>------------- ------ ------ ---- ---- ------- ----- -- ----<br>-------- ------- -- ---------- --- - --- ----- ----- ----<br>---- --- --- ----- --- ---- ---- ------- ----- ---- -------<br>--- --- -- ----- -- --- ---- -- --- ---- -- ------ ------<br>--- ----- -- all.,189145.80499997828,189139.27000004333,188262.456,188271.139999968,188279.122,189162.42,,55,all.
Item 99,flow.Loop,1_1_0_1,2021-04-27T14:29:28.826Z,,,,,,,,,,,,,,,,,,,,,,,,,,,,,,24961.359000043332,,completion,,,,,A,,,,,,,,,,,silence,,,,,189146.19500003755,189139.27000004333,164161.245,164164.34500005562,164177.911,189162.42,,,
Question 1,html.Screen,1_1_0_2,2021-04-27T14:29:35.797Z,,,,,,,,,,,,,,,,,,,,,,,,,,,true,FALSE,,6950.800000057468,,response,,,,99,A,,,,,,FALSE,click #choice-2,,,,silence,,,,,196117.50499997288,196113.22000005748,189145.754,189146.41000004485,189162.42,196125.837,,,
Question 2,html.Screen,1_1_0_3,2021-04-27T14:29:43.737Z,,,,,,,,,,,,,,,,,,,,,,,,,,,true,TRUE,,7928.052999981039,,response,,,,99,A,,,,,,TRUE,click #choice-1,,,,silence,,,,,204057.94500000775,204053.88999998104,196109.171,196117.77000001166,196125.837,204058.853,,,
Item 99,flow.Sequence,1_1_0,2021-04-27T14:29:43.737Z,,,,,,,,,,,,,,,,,,,,,,,,,,,,,,49875.57899998105,,completion,,,,,,,,,,,,,,,,,,,,,204058.304999955,204053.88999998104,154161.645,154182.3700000532,154178.311,204058.853,,,
Holding screen,html.Screen,1_1_1_0,2021-04-27T14:29:53.725Z,,,,,,,,,,,,,,,,,,,,,,,,,,,,,,10001.44200000001,,timeout,,,,,,,,,,,,,,,,,,,,,214045.93500006013,214043.629,204042.187,204058.53000003844,204058.853,214060.295,,,
screen,html.Screen,1_1_1_1_0,2021-04-27T14:29:55.299Z,,,,,,,,,,,,,,,,54,,,,,,,,,,,,,,1552.9749999725318,,response,,,,100,,,,,,,Space,keypress(Space),,,,,,,,At --- ---- --- ------ ----- ------- ---- -- --- ------- --<br>------- ---------- ------ -- ----- -- ----- -- ---- ------<br>--- ----- --- --- ------ -------- ----- --- ------ ----- --<br>----- ----- ---------- --- --- ------ ------ ---- -- ------<br>------- --- ------ ----- --- ---- ------- -- ---- --- --<br>------- ------,215620.14000001363,215613.26999997254,214043.629,214046.30000004545,214060.295,215626.899,,0,At
screen,html.Screen,1_1_1_1_1,2021-04-27T14:29:55.667Z,,,,,,,,,,,,,,,,54,,,,,,,,,,,,,,353.97099997030455,,response,,,,100,,,,,,,Space,keypress(Space),,,,,,,,-- the ---- --- ------ ----- ------- ---- -- --- ------- --<br>------- ---------- ------ -- ----- -- ----- -- ---- ------<br>--- ----- --- --- ------ -------- ----- --- ------ ----- --<br>----- ----- ---------- --- --- ------ ------ ---- -- ------<br>------- --- ------ ----- --- ---- ------- -- ---- --- --<br>------- ------,215988.3250000421,215980.8699999703,215610.233,215620.34000002313,215626.899,215993.551,,1,the
screen,html.Screen,1_1_1_1_2,2021-04-27T14:29:56.004Z,,,,,,,,,,,,,,,,54,,,,,,,,,,,,,,326.15899995245854,,response,,,,100,,,,,,,Space,keypress(Space),,,,,,,,-- --- time --- ------ ----- ------- ---- -- --- ------- --<br>------- ---------- ------ -- ----- -- ----- -- ---- ------<br>--- ----- --- --- ------ -------- ----- --- ------ ----- --<br>----- ----- ---------- --- --- ------ ------ ---- -- ------<br>------- --- ------ ----- --- ---- ------- -- ---- --- --<br>------- ------,216324.9150000047,216319.70999995247,215976.885,215988.5100000538,215993.551,216326.871,,2,time
screen,html.Screen,1_1_1_1_3,2021-04-27T14:29:56.311Z,,,,,,,,,,,,,,,,54,,,,,,,,,,,,,,299.01399998672423,,response,,,,100,,,,,,,Space,keypress(Space),,,,,,,,-- --- ---- the ------ ----- ------- ---- -- --- ------- --<br>------- ---------- ------ -- ----- -- ----- -- ---- ------<br>--- ----- --- --- ------ -------- ----- --- ------ ----- --<br>----- ----- ---------- --- --- ------ ------ ---- -- ------<br>------- --- ------ ----- --- ---- ------- -- ---- --- --<br>------- ------,216632.29500001762,216625.88499998674,216310.205,216325.10999997612,216326.871,216643.525,,3,the
screen,html.Screen,1_1_1_1_4,2021-04-27T14:29:56.682Z,,,,,,,,,,,,,,,,54,,,,,,,,,,,,,,350.2499999808206,,response,,,,100,,,,,,,Space,keypress(Space),,,,,,,,-- --- ---- --- French ----- ------- ---- -- --- ------- --<br>------- ---------- ------ -- ----- -- ----- -- ---- ------<br>--- ----- --- --- ------ -------- ----- --- ------ ----- --<br>----- ----- ---------- --- --- ------ ------ ---- -- ------<br>------- --- ------ ----- --- ---- ------- -- ---- --- --<br>------- ------,217003.75499995425,216993.77499998081,216626.859,216632.45499995537,216643.525,217009.566,,4,French
screen,html.Screen,1_1_1_1_5,2021-04-27T14:29:57.010Z,,,,,,,,,,,,,,,,54,,,,,,,,,,,,,,315.2340000603581,,response,,,,100,,,,,,,Space,keypress(Space),,,,,,,,-- --- ---- --- ------ crown ------- ---- -- --- ------- --<br>------- ---------- ------ -- ----- -- ----- -- ---- ------<br>--- ----- --- --- ------ -------- ----- --- ------ ----- --<br>----- ----- ---------- --- --- ------ ------ ---- -- ------<br>------- --- ------ ----- --- ---- ------- -- ---- --- --<br>------- ------,217331.6450000275,217324.80000006035,216992.9,217003.8550000172,217009.566,217342.886,,5,crown
screen,html.Screen,1_1_1_1_6,2021-04-27T14:29:57.371Z,,,,,,,,,,,,,,,,54,,,,,,,,,,,,,,342.9640000089421,,response,,,,100,,,,,,,Space,keypress(Space),,,,,,,,-- --- ---- --- ------ ----- secured ---- -- --- ------- --<br>------- ---------- ------ -- ----- -- ----- -- ---- ------<br>--- ----- --- --- ------ -------- ----- --- ------ ----- --<br>----- ----- ---------- --- --- ------ ------ ---- -- ------<br>------- --- ------ ----- --- ---- ------- -- ---- --- --<br>------- ------,217692.32000003103,217685.85000000894,217326.22,217331.95999998134,217342.886,217709.538,,6,secured
screen,html.Screen,1_1_1_1_7,2021-04-27T14:29:57.705Z,,,,,,,,,,,,,,,,54,,,,,,,,,,,,,,310.6620000281255,,response,,,,100,,,,,,,Space,keypress(Space),,,,,,,,-- --- ---- --- ------ ----- ------- much -- --- ------- --<br>------- ---------- ------ -- ----- -- ----- -- ---- ------<br>--- ----- --- --- ------ -------- ----- --- ------ ----- --<br>----- ----- ---------- --- --- ------ ------ ---- -- ------<br>------- --- ------ ----- --- ---- ------- -- ---- --- --<br>------- ------,218026.3500000583,218020.20000002813,217692.872,217692.47999996878,217709.538,218042.858,,7,much
screen,html.Screen,1_1_1_1_8,2021-04-27T14:29:58.021Z,,,,,,,,,,,,,,,,54,,,,,,,,,,,,,,292.60199997294694,,response,,,,100,,,,,,,Space,keypress(Space),,,,,,,,-- --- ---- --- ------ ----- ------- ---- of --- ------- --<br>------- ---------- ------ -- ----- -- ----- -- ---- ------<br>--- ----- --- --- ------ -------- ----- --- ------ ----- --<br>----- ----- ---------- --- --- ------ ------ ---- -- ------<br>------- --- ------ ----- --- ---- ------- -- ---- --- --<br>------- ------,218342.0600000536,218335.45999997295,218026.192,218026.50999999605,218042.858,218342.846,,8,of
screen,html.Screen,1_1_1_1_9,2021-04-27T14:29:58.360Z,,,,,,,,,,,,,,,,54,,,,,,,,,,,,,,332.3640000158048,,response,,,,100,,,,,,,Space,keypress(Space),,,,,,,,-- --- ---- --- ------ ----- ------- ---- -- its ------- --<br>------- ---------- ------ -- ----- -- ----- -- ---- ------<br>--- ----- --- --- ------ -------- ----- --- ------ ----- --<br>----- ----- ---------- --- --- ------ ------ ---- -- ------<br>------- --- ------ ----- --- ---- ------- -- ---- --- --<br>------- ------,218681.68499995954,218675.2100000158,218326.18,218342.22500002943,218342.846,218692.832,,9,its
screen,html.Screen,1_1_1_1_10,2021-04-27T14:29:58.713Z,,,,,,,,,,,,,,,,54,,,,,,,,,,,,,,336.9329999847687,,response,,,,100,,,,,,,Space,keypress(Space),,,,,,,,-- --- ---- --- ------ ----- ------- ---- -- --- revenue --<br>------- ---------- ------ -- ----- -- ----- -- ---- ------<br>--- ----- --- --- ------ -------- ----- --- ------ ----- --<br>----- ----- ---------- --- --- ------ ------ ---- -- ------<br>------- --- ------ ----- --- ---- ------- -- ---- --- --<br>------- ------,219034.59499997552,219029.76499998476,218676.166,218681.85000005178,218692.832,219042.818,,10,revenue
screen,html.Screen,1_1_1_1_11,2021-04-27T14:29:59.264Z,,,,,,,,,,,,,,,,54,,,,,,,,,,,,,,536.8870000401221,,response,,,,100,,,,,,,Space,keypress(Space),,,,,,,,-- --- ---- --- ------ ----- ------- ---- -- --- ------- by<br>------- ---------- ------ -- ----- -- ----- -- ---- ------<br>--- ----- --- --- ------ -------- ----- --- ------ ----- --<br>----- ----- ---------- --- --- ------ ------ ---- -- ------<br>------- --- ------ ----- --- ---- ------- -- ---- --- --<br>------- ------,219585.43500001542,219579.70500004012,219026.152,219034.80500006117,219042.818,219592.796,,11,by
screen,html.Screen,1_1_1_1_12,2021-04-27T14:29:59.722Z,,,,,,,,,,,,,,,,54,,,,,,,,,,,,,,444.9939999730268,,response,,,,100,,,,,,,Space,keypress(Space),,,,,,,,-- --- ---- --- ------ ----- ------- ---- -- --- ------- --<br>issuing ---------- ------ -- ----- -- ----- -- ---- ------<br>--- ----- --- --- ------ -------- ----- --- ------ ----- --<br>----- ----- ---------- --- --- ------ ------ ---- -- ------<br>------- --- ------ ----- --- ---- ------- -- ---- --- --<br>------- ------,220043.7549999915,220037.78999997303,219576.13,219585.59499995317,219592.796,220059.444,,12,issuing
screen,html.Screen,1_1_1_1_13,2021-04-27T14:30:00.068Z,,,,,,,,,,,,,,,,54,,,,,,,,,,,,,,323.43100001025596,,response,,,,100,,,,,,,Space,keypress(Space),,,,,,,,-- --- ---- --- ------ ----- ------- ---- -- --- ------- --<br>------- government ------ -- ----- -- ----- -- ---- ------<br>--- ----- --- --- ------ -------- ----- --- ------ ----- --<br>----- ----- ---------- --- --- ------ ------ ---- -- ------<br>------- --- ------ ----- --- ---- ------- -- ---- --- --<br>------- ------,220389.3049999606,220382.87500001024,220042.778,220043.91999996733,220059.444,220392.764,,13,government
screen,html.Screen,1_1_1_1_14,2021-04-27T14:30:00.450Z,,,,,,,,,,,,,,,,54,,,,,,,,,,,,,,371.970999975194,,response,,,,100,,,,,,,Space,keypress(Space),,,,,,,,-- --- ---- --- ------ ----- ------- ---- -- --- ------- --<br>------- ---------- bonds. -- ----- -- ----- -- ---- ------<br>--- ----- --- --- ------ -------- ----- --- ------ ----- --<br>----- ----- ---------- --- --- ------ ------ ---- -- ------<br>------- --- ------ ----- --- ---- ------- -- ---- --- --<br>------- ------,220771.65500004776,220764.7349999752,220376.098,220389.47000005282,220392.764,220776.082,,14,bonds.
screen,html.Screen,1_1_1_1_15,2021-04-27T14:30:00.821Z,,,,,,,,,,,,,,,,54,,,,,,,,,,,,,,359.6830000136397,,response,,,,100,,,,,,,Space,keypress(Space),,,,,,,,-- --- ---- --- ------ ----- ------- ---- -- --- ------- --<br>------- ---------- ------ In ----- -- ----- -- ---- ------<br>--- ----- --- --- ------ -------- ----- --- ------ ----- --<br>----- ----- ---------- --- --- ------ ------ ---- -- ------<br>------- --- ------ ----- --- ---- ------- -- ---- --- --<br>------- ------,221142.85499998368,221135.76500001363,220759.416,220771.8149999855,220776.082,221159.4,,15,In
screen,html.Screen,1_1_1_1_16,2021-04-27T14:30:01.831Z,,,,,,,,,,,,,,,,54,,,,,,,,,,,,,,987.3499999562337,,response,,,,100,,,,,,,Space,keypress(Space),,,,,,,,"-- --- ---- --- ------ ----- ------- ---- -- --- ------- --<br>------- ---------- ------ -- 1727, -- ----- -- ---- ------<br>--- ----- --- --- ------ -------- ----- --- ------ ----- --<br>----- ----- ---------- --- --- ------ ------ ---- -- ------<br>------- --- ------ ----- --- ---- ------- -- ---- --- --<br>------- ------",222152.86499995273,222146.74999995623,221142.734,221143.01500003785,221159.4,222159.36,,16,"1727,"
screen,html.Screen,1_1_1_1_17,2021-04-27T14:30:02.908Z,,,,,,,,,,,,,,,,54,,,,,,,,,,,,,,1063.2849999725586,,response,,,,100,,,,,,,Space,keypress(Space),,,,,,,,-- --- ---- --- ------ ----- ------- ---- -- --- ------- --<br>------- ---------- ------ -- ----- in ----- -- ---- ------<br>--- ----- --- --- ------ -------- ----- --- ------ ----- --<br>----- ----- ---------- --- --- ------ ------ ---- -- ------<br>------- --- ------ ----- --- ---- ------- -- ---- --- --<br>------- ------,223229.34499999974,223222.64499997254,222142.694,222153.01999996882,222159.36,223242.65,,17,in
screen,html.Screen,1_1_1_1_18,2021-04-27T14:30:03.311Z,,,,,,,,,,,,,,,,54,,,,,,,,,,,,,,384.24499999397085,,response,,,,100,,,,,,,Space,keypress(Space),,,,,,,,-- --- ---- --- ------ ----- ------- ---- -- --- ------- --<br>------- ---------- ------ -- ----- -- order -- ---- ------<br>--- ----- --- --- ------ -------- ----- --- ------ ----- --<br>----- ----- ---------- --- --- ------ ------ ---- -- ------<br>------- --- ------ ----- --- ---- ------- -- ---- --- --<br>------- ------,223632.98500003293,223626.89499999397,223225.984,223229.58000004292,223242.65,223642.634,,18,order
screen,html.Screen,1_1_1_1_19,2021-04-27T14:30:03.598Z,,,,,,,,,,,,,,,,54,,,,,,,,,,,,,,270.1259999774338,,response,,,,100,,,,,,,Space,keypress(Space),,,,,,,,-- --- ---- --- ------ ----- ------- ---- -- --- ------- --<br>------- ---------- ------ -- ----- -- ----- to ---- ------<br>--- ----- --- --- ------ -------- ----- --- ------ ----- --<br>----- ----- ---------- --- --- ------ ------ ---- -- ------<br>------- --- ------ ----- --- ---- ------- -- ---- --- --<br>------- ------,223919.5850000251,223912.75999997742,223625.968,223633.14000004902,223642.634,223925.956,,19,to
screen,html.Screen,1_1_1_1_20,2021-04-27T14:30:03.909Z,,,,,,,,,,,,,,,,54,,,,,,,,,,,,,,297.7490000112448,,response,,,,100,,,,,,,Space,keypress(Space),,,,,,,,-- --- ---- --- ------ ----- ------- ---- -- --- ------- --<br>------- ---------- ------ -- ----- -- ----- -- save ------<br>--- ----- --- --- ------ -------- ----- --- ------ ----- --<br>----- ----- ---------- --- --- ------ ------ ---- -- ------<br>------- --- ------ ----- --- ---- ------- -- ---- --- --<br>------- ------,224230.9499999974,224223.70500001125,223909.29,223919.755000039,223925.956,224242.61,,20,save
screen,html.Screen,1_1_1_1_21,2021-04-27T14:30:04.290Z,,,,,,,,,,,,,,,,54,,,,,,,,,,,,,,363.02000000549015,,response,,,,100,,,,,,,Space,keypress(Space),,,,,,,,"-- --- ---- --- ------ ----- ------- ---- -- --- ------- --<br>------- ---------- ------ -- ----- -- ----- -- ---- money,<br>--- ----- --- --- ------ -------- ----- --- ------ ----- --<br>----- ----- ---------- --- --- ------ ------ ---- -- ------<br>------- --- ------ ----- --- ---- ------- -- ---- --- --<br>------- ------",224611.71500000637,224605.63000000548,224225.944,224231.11499997322,224242.61,224625.928,,21,"money,"
screen,html.Screen,1_1_1_1_22,2021-04-27T14:30:04.721Z,,,,,,,,,,,,,,,,54,,,,,,,,,,,,,,410.7520000192453,,response,,,,100,,,,,,,Space,keypress(Space),,,,,,,,-- --- ---- --- ------ ----- ------- ---- -- --- ------- --<br>------- ---------- ------ -- ----- -- ----- -- ---- ------<br>the ----- --- --- ------ -------- ----- --- ------ ----- --<br>----- ----- ---------- --- --- ------ ------ ---- -- ------<br>------- --- ------ ----- --- ---- ------- -- ---- --- --<br>------- ------,225042.7249999484,225036.68000001926,224609.262,224611.99500004295,224625.928,225059.244,,22,the
screen,html.Screen,1_1_1_1_23,2021-04-27T14:30:05.035Z,,,,,,,,,,,,,,,,54,,,,,,,,,,,,,,291.1110000023036,,response,,,,100,,,,,,,Space,keypress(Space),,,,,,,,-- --- ---- --- ------ ----- ------- ---- -- --- ------- --<br>------- ---------- ------ -- ----- -- ----- -- ---- ------<br>--- state --- --- ------ -------- ----- --- ------ ----- --<br>----- ----- ---------- --- --- ------ ------ ---- -- ------<br>------- --- ------ ----- --- ---- ------- -- ---- --- --<br>------- ------,225356.60000005737,225350.3550000023,225042.578,225042.9549999535,225059.244,225359.232,,23,state
screen,html.Screen,1_1_1_1_24,2021-04-27T14:30:05.734Z,,,,,,,,,,,,,,,,54,,,,,,,,,,,,,,689.3930000540277,,response,,,,100,,,,,,,Space,keypress(Space),,,,,,,,-- --- ---- --- ------ ----- ------- ---- -- --- ------- --<br>------- ---------- ------ -- ----- -- ----- -- ---- ------<br>--- ----- cut --- ------ -------- ----- --- ------ ----- --<br>----- ----- ---------- --- --- ------ ------ ---- -- ------<br>------- --- ------ ----- --- ---- ------- -- ---- --- --<br>------- ------,226055.6299999589,226048.62500005402,225342.566,225356.78499995265,225359.232,226059.204,,24,cut
screen,html.Screen,1_1_1_1_25,2021-04-27T14:30:06.156Z,,,,,,,,,,,,,,,,54,,,,,,,,,,,,,,411.6460000415391,,response,,,,100,,,,,,,Space,keypress(Space),,,,,,,,-- --- ---- --- ------ ----- ------- ---- -- --- ------- --<br>------- ---------- ------ -- ----- -- ----- -- ---- ------<br>--- ----- --- the ------ -------- ----- --- ------ ----- --<br>----- ----- ---------- --- --- ------ ------ ---- -- ------<br>------- --- ------ ----- --- ---- ------- -- ---- --- --<br>------- ------,226477.94999997132,226470.85000004154,226042.538,226055.79500005115,226059.204,226492.52,,25,the
screen,html.Screen,1_1_1_1_26,2021-04-27T14:30:06.755Z,,,,,,,,,,,,,,,,54,,,,,,,,,,,,,,578.0900000534311,,response,,,,100,,,,,,,Space,keypress(Space),,,,,,,,-- --- ---- --- ------ ----- ------- ---- -- --- ------- --<br>------- ---------- ------ -- ----- -- ----- -- ---- ------<br>--- ----- --- --- bonds' -------- ----- --- ------ ----- --<br>----- ----- ---------- --- --- ------ ------ ---- -- ------<br>------- --- ------ ----- --- ---- ------- -- ---- --- --<br>------- ------,227076.73500000965,227070.61000005342,226475.854,226478.134999983,226492.52,227092.496,,26,bonds'
screen,html.Screen,1_1_1_1_27,2021-04-27T14:30:07.197Z,,,,,,,,,,,,,,,,54,,,,,,,,,,,,,,420.17399996731547,,response,,,,100,,,,,,,Space,keypress(Space),,,,,,,,-- --- ---- --- ------ ----- ------- ---- -- --- ------- --<br>------- ---------- ------ -- ----- -- ----- -- ---- ------<br>--- ----- --- --- ------ interest ----- --- ------ ----- --<br>----- ----- ---------- --- --- ------ ------ ---- -- ------<br>------- --- ------ ----- --- ---- ------- -- ---- --- --<br>------- ------,227518.98000005167,227512.66999996733,227075.83,227076.8949999474,227092.496,227534.89,,27,interest
screen,html.Screen,1_1_1_1_28,2021-04-27T14:30:07.638Z,,,,,,,,,,,,,,,,54,,,,,,,,,,,,,,419.79500000423286,,response,,,,100,,,,,,,Space,keypress(Space),,,,,,,,-- --- ---- --- ------ ----- ------- ---- -- --- ------- --<br>------- ---------- ------ -- ----- -- ----- -- ---- ------<br>--- ----- --- --- ------ -------- rate. --- ------ ----- --<br>----- ----- ---------- --- --- ------ ------ ---- -- ------<br>------- --- ------ ----- --- ---- ------- -- ---- --- --<br>------- ------,227960.02999995835,227954.68500000425,227518.224,227519.13499995135,227534.89,227968.206,,28,rate.
screen,html.Screen,1_1_1_1_29,2021-04-27T14:30:08.044Z,,,,,,,,,,,,,,,,54,,,,,,,,,,,,,,391.3540000116918,,response,,,,100,,,,,,,Space,keypress(Space),,,,,,,,-- --- ---- --- ------ ----- ------- ---- -- --- ------- --<br>------- ---------- ------ -- ----- -- ----- -- ---- ------<br>--- ----- --- --- ------ -------- ----- The ------ ----- --<br>----- ----- ---------- --- --- ------ ------ ---- -- ------<br>------- --- ------ ----- --- ---- ------- -- ---- --- --<br>------- ------,228366.0450000316,228359.5600000117,227951.54,227960.18499997444,227968.206,228368.19,,29,The
screen,html.Screen,1_1_1_1_30,2021-04-27T14:30:08.454Z,,,,,,,,,,,,,,,,54,,,,,,,,,,,,,,401.2399999857298,,response,,,,100,,,,,,,Space,keypress(Space),,,,,,,,-- --- ---- --- ------ ----- ------- ---- -- --- ------- --<br>------- ---------- ------ -- ----- -- ----- -- ---- ------<br>--- ----- --- --- ------ -------- ----- --- market ----- --<br>----- ----- ---------- --- --- ------ ------ ---- -- ------<br>------- --- ------ ----- --- ---- ------- -- ---- --- --<br>------- ------,228775.41999996174,228769.42999998573,228351.524,228366.22500000522,228368.19,228784.84,,30,market
screen,html.Screen,1_1_1_1_31,2021-04-27T14:30:08.792Z,,,,,,,,,,,,,,,,54,,,,,,,,,,,,,,322.6700000016426,,response,,,,100,,,,,,,Space,keypress(Space),,,,,,,,-- --- ---- --- ------ ----- ------- ---- -- --- ------- --<br>------- ---------- ------ -- ----- -- ----- -- ---- ------<br>--- ----- --- --- ------ -------- ----- --- ------ value --<br>----- ----- ---------- --- --- ------ ------ ---- -- ------<br>------- --- ------ ----- --- ---- ------- -- ---- --- --<br>------- ------,229114.18000003323,229107.51000000164,228768.174,228775.72999999393,228784.84,229118.16,,31,value
screen,html.Screen,1_1_1_1_32,2021-04-27T14:30:09.131Z,,,,,,,,,,,,,,,,54,,,,,,,,,,,,,,327.3599999501894,,response,,,,100,,,,,,,Space,keypress(Space),,,,,,,,-- --- ---- --- ------ ----- ------- ---- -- --- ------- --<br>------- ---------- ------ -- ----- -- ----- -- ---- ------<br>--- ----- --- --- ------ -------- ----- --- ------ ----- of<br>----- ----- ---------- --- --- ------ ------ ---- -- ------<br>------- --- ------ ----- --- ---- ------- -- ---- --- --<br>------- ------,229453.07000004686,229445.5199999502,229101.494,229114.34500000905,229118.16,229468.146,,32,of
screen,html.Screen,1_1_1_1_33,2021-04-27T14:30:09.496Z,,,,,,,,,,,,,,,,54,,,,,,,,,,,,,,343.25400000595255,,response,,,,100,,,,,,,Space,keypress(Space),,,,,,,,-- --- ---- --- ------ ----- ------- ---- -- --- ------- --<br>------- ---------- ------ -- ----- -- ----- -- ---- ------<br>--- ----- --- --- ------ -------- ----- --- ------ ----- --<br>these ----- ---------- --- --- ------ ------ ---- -- ------<br>------- --- ------ ----- --- ---- ------- -- ---- --- --<br>------- ------,229817.81000003684,229811.40000000596,229451.48,229453.2350000227,229468.146,229834.798,,33,these
screen,html.Screen,1_1_1_1_34,2021-04-27T14:30:09.792Z,,,,,,,,,,,,,,,,54,,,,,,,,,,,,,,272.79699995036935,,response,,,,100,,,,,,,Space,keypress(Space),,,,,,,,-- --- ---- --- ------ ----- ------- ---- -- --- ------- --<br>------- ---------- ------ -- ----- -- ----- -- ---- ------<br>--- ----- --- --- ------ -------- ----- --- ------ ----- --<br>----- bonds ---------- --- --- ------ ------ ---- -- ------<br>------- --- ------ ----- --- ---- ------- -- ---- --- --<br>------- ------,230114.30000001565,230107.59499995038,229818.132,229817.9699999746,229834.798,230118.12,,34,bonds
screen,html.Screen,1_1_1_1_35,2021-04-27T14:30:10.125Z,,,,,,,,,,,,,,,,54,,,,,,,,,,,,,,322.30999995872844,,response,,,,100,,,,,,,Space,keypress(Space),,,,,,,,"-- --- ---- --- ------ ----- ------- ---- -- --- ------- --<br>------- ---------- ------ -- ----- -- ----- -- ---- ------<br>--- ----- --- --- ------ -------- ----- --- ------ ----- --<br>----- ----- plummeted, --- --- ------ ------ ---- -- ------<br>------- --- ------ ----- --- ---- ------- -- ---- --- --<br>------- ------",230446.5499999933,230440.42999995872,230101.454,230114.4599999534,230118.12,230451.44,,35,"plummeted,"
screen,html.Screen,1_1_1_1_36,2021-04-27T14:30:10.482Z,,,,,,,,,,,,,,,,54,,,,,,,,,,,,,,345.31500001758104,,response,,,,100,,,,,,,Space,keypress(Space),,,,,,,,-- --- ---- --- ------ ----- ------- ---- -- --- ------- --<br>------- ---------- ------ -- ----- -- ----- -- ---- ------<br>--- ----- --- --- ------ -------- ----- --- ------ ----- --<br>----- ----- ---------- and --- ------ ------ ---- -- ------<br>------- --- ------ ----- --- ---- ------- -- ---- --- --<br>------- ------,230804.39499998465,230796.75500001758,230434.774,230446.71000004746,230451.44,230818.092,,36,and
screen,html.Screen,1_1_1_1_37,2021-04-27T14:30:10.785Z,,,,,,,,,,,,,,,,54,,,,,,,,,,,,,,282.39300006086705,,response,,,,100,,,,,,,Space,keypress(Space),,,,,,,,-- --- ---- --- ------ ----- ------- ---- -- --- ------- --<br>------- ---------- ------ -- ----- -- ----- -- ---- ------<br>--- ----- --- --- ------ -------- ----- --- ------ ----- --<br>----- ----- ---------- --- the ------ ------ ---- -- ------<br>------- --- ------ ----- --- ---- ------- -- ---- --- --<br>------- ------,231107.4250000529,231100.48500006087,230801.426,230804.63000002783,230818.092,231118.08,,37,the
screen,html.Screen,1_1_1_1_38,2021-04-27T14:30:11.098Z,,,,,,,,,,,,,,,,54,,,,,,,,,,,,,,294.49499996574013,,response,,,,100,,,,,,,Space,keypress(Space),,,,,,,,-- --- ---- --- ------ ----- ------- ---- -- --- ------- --<br>------- ---------- ------ -- ----- -- ----- -- ---- ------<br>--- ----- --- --- ------ -------- ----- --- ------ ----- --<br>----- ----- ---------- --- --- market ------ ---- -- ------<br>------- --- ------ ----- --- ---- ------- -- ---- --- --<br>------- ------,231419.68000005,231412.57499996573,231101.414,231107.59000002872,231118.08,231434.734,,38,market
screen,html.Screen,1_1_1_1_39,2021-04-27T14:30:11.428Z,,,,,,,,,,,,,,,,54,,,,,,,,,,,,,,308.8709999669227,,response,,,,100,,,,,,,Space,keypress(Space),,,,,,,,-- --- ---- --- ------ ----- ------- ---- -- --- ------- --<br>------- ---------- ------ -- ----- -- ----- -- ---- ------<br>--- ----- --- --- ------ -------- ----- --- ------ ----- --<br>----- ----- ---------- --- --- ------ became ---- -- ------<br>------- --- ------ ----- --- ---- ------- -- ---- --- --<br>------- ------,231750.37500006147,231743.60499996692,231418.068,231419.83499994967,231434.734,231751.388,,39,became
screen,html.Screen,1_1_1_1_40,2021-04-27T14:30:11.717Z,,,,,,,,,,,,,,,,54,,,,,,,,,,,,,,282.4569999689993,,response,,,,100,,,,,,,Space,keypress(Space),,,,,,,,-- --- ---- --- ------ ----- ------- ---- -- --- ------- --<br>------- ---------- ------ -- ----- -- ----- -- ---- ------<br>--- ----- --- --- ------ -------- ----- --- ------ ----- --<br>----- ----- ---------- --- --- ------ ------ wary -- ------<br>------- --- ------ ----- --- ---- ------- -- ---- --- --<br>------- ------,232039.54999998678,232033.844999969,231734.722,231750.52999996115,231751.388,232051.376,,40,wary
screen,html.Screen,1_1_1_1_41,2021-04-27T14:30:12.049Z,,,,,,,,,,,,,,,,54,,,,,,,,,,,,,,313.1290000632289,,response,,,,100,,,,,,,Space,keypress(Space),,,,,,,,-- --- ---- --- ------ ----- ------- ---- -- --- ------- --<br>------- ---------- ------ -- ----- -- ----- -- ---- ------<br>--- ----- --- --- ------ -------- ----- --- ------ ----- --<br>----- ----- ---------- --- --- ------ ------ ---- of ------<br>------- --- ------ ----- --- ---- ------- -- ---- --- --<br>------- ------,232370.68499997258,232364.50500006322,232034.71,232039.7149999626,232051.376,232384.696,,41,of
screen,html.Screen,1_1_1_1_42,2021-04-27T14:30:12.329Z,,,,,,,,,,,,,,,,54,,,,,,,,,,,,,,260.26899998495355,,response,,,,100,,,,,,,Space,keypress(Space),,,,,,,,-- --- ---- --- ------ ----- ------- ---- -- --- ------- --<br>------- ---------- ------ -- ----- -- ----- -- ---- ------<br>--- ----- --- --- ------ -------- ----- --- ------ ----- --<br>----- ----- ---------- --- --- ------ ------ ---- -- French<br>------- --- ------ ----- --- ---- ------- -- ---- --- --<br>------- ------,232651.13000001293,232644.96499998495,232368.03,232370.84500002675,232384.696,232668.018,,42,French
screen,html.Screen,1_1_1_1_43,2021-04-27T14:30:12.656Z,,,,,,,,,,,,,,,,54,,,,,,,,,,,,,,304.28200002308586,,response,,,,100,,,,,,,Space,keypress(Space),,,,,,,,-- --- ---- --- ------ ----- ------- ---- -- --- ------- --<br>------- ---------- ------ -- ----- -- ----- -- ---- ------<br>--- ----- --- --- ------ -------- ----- --- ------ ----- --<br>----- ----- ---------- --- --- ------ ------ ---- -- ------<br>credit. --- ------ ----- --- ---- ------- -- ---- --- --<br>------- ------,232977.97999996692,232972.3000000231,232651.352,232651.28999995068,232668.018,232984.672,,43,credit.
screen,html.Screen,1_1_1_1_44,2021-04-27T14:30:13.005Z,,,,,,,,,,,,,,,,54,,,,,,,,,,,,,,336.00299996629474,,response,,,,100,,,,,,,Space,keypress(Space),,,,,,,,-- --- ---- --- ------ ----- ------- ---- -- --- ------- --<br>------- ---------- ------ -- ----- -- ----- -- ---- ------<br>--- ----- --- --- ------ -------- ----- --- ------ ----- --<br>----- ----- ---------- --- --- ------ ------ ---- -- ------<br>------- The ------ ----- --- ---- ------- -- ---- --- --<br>------- ------,233327.52000004984,233320.6749999663,232968.006,232978.1550000189,232984.672,233334.658,,44,The
screen,html.Screen,1_1_1_1_45,2021-04-27T14:30:13.272Z,,,,,,,,,,,,,,,,54,,,,,,,,,,,,,,251.7669999867794,,response,,,,100,,,,,,,Space,keypress(Space),,,,,,,,-- --- ---- --- ------ ----- ------- ---- -- --- ------- --<br>------- ---------- ------ -- ----- -- ----- -- ---- ------<br>--- ----- --- --- ------ -------- ----- --- ------ ----- --<br>----- ----- ---------- --- --- ------ ------ ---- -- ------<br>------- --- French ----- --- ---- ------- -- ---- --- --<br>------- ------,233593.91000005417,233586.42499998678,233317.992,233327.67499994952,233334.658,233601.314,,45,French
screen,html.Screen,1_1_1_1_46,2021-04-27T14:30:13.598Z,,,,,,,,,,,,,,,,54,,,,,,,,,,,,,,312.100999959046,,response,,,,100,,,,,,,Space,keypress(Space),,,,,,,,-- --- ---- --- ------ ----- ------- ---- -- --- ------- --<br>------- ---------- ------ -- ----- -- ----- -- ---- ------<br>--- ----- --- --- ------ -------- ----- --- ------ ----- --<br>----- ----- ---------- --- --- ------ ------ ---- -- ------<br>------- --- ------ state --- ---- ------- -- ---- --- --<br>------- ------,233919.97499996796,233913.41499995906,233584.648,233594.07500003,233601.314,233934.634,,46,state
screen,html.Screen,1_1_1_1_47,2021-04-27T14:30:13.956Z,,,,,,,,,,,,,,,,54,,,,,,,,,,,,,,337.4960000557767,,response,,,,100,,,,,,,Space,keypress(Space),,,,,,,,-- --- ---- --- ------ ----- ------- ---- -- --- ------- --<br>------- ---------- ------ -- ----- -- ----- -- ---- ------<br>--- ----- --- --- ------ -------- ----- --- ------ ----- --<br>----- ----- ---------- --- --- ------ ------ ---- -- ------<br>------- --- ------ ----- was ---- ------- -- ---- --- --<br>------- ------,234278.46000005957,234272.13000005577,233917.968,233920.15000001993,233934.634,234284.62,,47,was
screen,html.Screen,1_1_1_1_48,2021-04-27T14:30:14.277Z,,,,,,,,,,,,,,,,54,,,,,,,,,,,,,,308.0350000440376,,response,,,,100,,,,,,,Space,keypress(Space),,,,,,,,-- --- ---- --- ------ ----- ------- ---- -- --- ------- --<br>------- ---------- ------ -- ----- -- ----- -- ---- ------<br>--- ----- --- --- ------ -------- ----- --- ------ ----- --<br>----- ----- ---------- --- --- ------ ------ ---- -- ------<br>------- --- ------ ----- --- left ------- -- ---- --- --<br>------- ------,234598.74000004493,234592.65500004403,234267.954,234278.62999995705,234284.62,234601.274,,48,left
screen,html.Screen,1_1_1_1_49,2021-04-27T14:30:14.630Z,,,,,,,,,,,,,,,,54,,,,,,,,,,,,,,343.18099998982507,,response,,,,100,,,,,,,Space,keypress(Space),,,,,,,,-- --- ---- --- ------ ----- ------- ---- -- --- ------- --<br>------- ---------- ------ -- ----- -- ----- -- ---- ------<br>--- ----- --- --- ------ -------- ----- --- ------ ----- --<br>----- ----- ---------- --- --- ------ ------ ---- -- ------<br>------- --- ------ ----- --- ---- without -- ---- --- --<br>------- ------,234952.43000006303,234944.45499998983,234584.608,234598.92500005662,234601.274,234967.926,,49,without
screen,html.Screen,1_1_1_1_50,2021-04-27T14:30:14.954Z,,,,,,,,,,,,,,,,54,,,,,,,,,,,,,,301.5639999769337,,response,,,,100,,,,,,,Space,keypress(Space),,,,,,,,-- --- ---- --- ------ ----- ------- ---- -- --- ------- --<br>------- ---------- ------ -- ----- -- ----- -- ---- ------<br>--- ----- --- --- ------ -------- ----- --- ------ ----- --<br>----- ----- ---------- --- --- ------ ------ ---- -- ------<br>------- --- ------ ----- --- ---- ------- an ---- --- --<br>------- ------,235276.18499996606,235269.48999997694,234951.26,234952.8649999993,234967.926,235284.58,,50,an
screen,html.Screen,1_1_1_1_51,2021-04-27T14:30:15.302Z,,,,,,,,,,,,,,,,54,,,,,,,,,,,,,,332.15999996857136,,response,,,,100,,,,,,,Space,keypress(Space),,,,,,,,-- --- ---- --- ------ ----- ------- ---- -- --- ------- --<br>------- ---------- ------ -- ----- -- ----- -- ---- ------<br>--- ----- --- --- ------ -------- ----- --- ------ ----- --<br>----- ----- ---------- --- --- ------ ------ ---- -- ------<br>------- --- ------ ----- --- ---- ------- -- easy --- --<br>------- ------,235624.30000002496,235616.73999996856,235267.914,235276.3500000583,235284.58,235634.566,,51,easy
screen,html.Screen,1_1_1_1_52,2021-04-27T14:30:15.597Z,,,,,,,,,,,,,,,,54,,,,,,,,,,,,,,276.794000027352,,response,,,,100,,,,,,,Space,keypress(Space),,,,,,,,-- --- ---- --- ------ ----- ------- ---- -- --- ------- --<br>------- ---------- ------ -- ----- -- ----- -- ---- ------<br>--- ----- --- --- ------ -------- ----- --- ------ ----- --<br>----- ----- ---------- --- --- ------ ------ ---- -- ------<br>------- --- ------ ----- --- ---- ------- -- ---- way --<br>------- ------,235919.00500003248,235911.36000002734,235617.9,235624.46500000078,235634.566,235934.554,,52,way
screen,html.Screen,1_1_1_1_53,2021-04-27T14:30:15.944Z,,,,,,,,,,,,,,,,54,,,,,,,,,,,,,,323.85099997138605,,response,,,,100,,,,,,,Space,keypress(Space),,,,,,,,-- --- ---- --- ------ ----- ------- ---- -- --- ------- --<br>------- ---------- ------ -- ----- -- ----- -- ---- ------<br>--- ----- --- --- ------ -------- ----- --- ------ ----- --<br>----- ----- ---------- --- --- ------ ------ ---- -- ------<br>------- --- ------ ----- --- ---- ------- -- ---- --- of<br>------- ------,236266.2400000263,236258.4049999714,235917.888,235919.33499998413,235934.554,236267.874,,53,of
screen,html.Screen,1_1_1_1_54,2021-04-27T14:30:16.373Z,,,,,,,,,,,,,,,,54,,,,,,,,,,,,,,420.7310000321013,,response,,,,100,,,,,,,Space,keypress(Space),,,,,,,,-- --- ---- --- ------ ----- ------- ---- -- --- ------- --<br>------- ---------- ------ -- ----- -- ----- -- ---- ------<br>--- ----- --- --- ------ -------- ----- --- ------ ----- --<br>----- ----- ---------- --- --- ------ ------ ---- -- ------<br>------- --- ------ ----- --- ---- ------- -- ---- --- --<br>raising ------,236694.86499996856,236688.6050000321,236251.208,236266.39999996405,236267.874,236701.19,,54,raising
screen,html.Screen,1_1_1_1_55,2021-04-27T14:30:16.819Z,,,,,,,,,,,,,,,,54,,,,,,,,,,,,,,435.1850000018603,,response,,,,100,,,,,,,Space,keypress(Space),,,,,,,,-- --- ---- --- ------ ----- ------- ---- -- --- ------- --<br>------- ---------- ------ -- ----- -- ----- -- ---- ------<br>--- ----- --- --- ------ -------- ----- --- ------ ----- --<br>----- ----- ---------- --- --- ------ ------ ---- -- ------<br>------- --- ------ ----- --- ---- ------- -- ---- --- --<br>------- money.,237141.3650000468,237136.37500000186,236684.524,236695.0300000608,236701.19,237151.172,,55,money.
Item 100,flow.Loop,1_1_1_1,2021-04-27T14:30:16.819Z,,,,,,,,,,,,,,,,,,,,,,,,,,,,,,23076.08000000185,,completion,,,,,A,,,,,,,,,,,silence,,,,,237141.67499996256,237136.37500000186,214043.629,214046.22000001837,214060.295,237151.172,,,
Question 1,html.Screen,1_1_1_2,2021-04-27T14:30:20.751Z,,,,,,,,,,,,,,,,,,,,,,,,,,,true,TRUE,,3918.06300006088,,response,,,,100,A,,,,,,TRUE,click #choice-1,,,,silence,,,,,241073.454999947,241069.23500006087,237134.506,237141.88000001013,237151.172,241079.023,,,
Question 2,html.Screen,1_1_1_3,2021-04-27T14:30:24.350Z,,,,,,,,,,,,,,,,,,,,,,,,,,,true,FALSE,,3591.0670000287355,,response,,,,100,A,,,,,,FALSE,click #choice-2,,,,silence,,,,,244673.07000001892,244670.09000002872,241062.357,241073.7149999477,241079.023,244678.879,,,
Item 100,flow.Sequence,1_1_1,2021-04-27T14:30:24.351Z,,,,,,,,,,,,,,,,,,,,,,,,,,,,,,40611.23700002872,,completion,,,,,,,,,,,,,,,,,,,,,244673.3350000577,244670.09000002872,204042.187,204058.46500000916,204058.853,244678.879,,,
End of Practice,html.Page,1_1_2,2021-04-27T14:30:27.145Z,,,,,,,,,,,,,,,,,,,,,,,,,,,,,,2787.6560000141326,,form submission,,,,,,,,,,,,,,,,,,,,,247467.47999999207,247466.53500001412,244662.213,244673.45000000205,244678.879,247467.643,,,
Practice,flow.Sequence,1_1,2021-04-27T14:30:27.145Z,,,,,,,,,,,,,,,,,,,,,,,,,,,,,,93288.22400001413,,completion,,,,,,,,,,,,,,,,,,,,,247467.7799999481,247466.53500001412,154161.645,154182.3250000598,154178.311,247467.643,,,
Trap_instruction,html.Page,1_2_0,2021-04-27T14:30:30.213Z,,,,,,,,,,,,,,,,,,,,,,,,,,,,,,3067.7169999798352,,form submission,,,,,,,,,,,,,,,,,,,,,250535.73999996297,250535.35999997985,247450.977,247467.94500004034,247467.643,250550.853,,,
trap_trial,html.Screen,1_2_1,2021-04-27T14:30:33.446Z,,,,,,,,,,,,,,,,,,,,,,,,,,,true,1,,3214.6520000175806,,response,,,,,,,,,,,1,click #choice-1,,,,,,,,,253769.4350000238,253765.50500001758,250534.187,250535.90999997687,250550.853,253784.057,,,
end of trap trial,html.Page,1_2_2,2021-04-27T14:30:34.905Z,,,,,,,,,,,,,,,,,,,,,,,,,,,,,,1443.7229999574192,,form submission,,,,,,,,,,,,,,,,,,,,,255228.1199999852,255227.77999995742,253767.391,253769.70000006258,253784.057,255233.999,,,
Trap 1,flow.Sequence,1_2,2021-04-27T14:30:34.905Z,,,,,,,,,,,,,,,,,,,,,,,,,,,,,,7760.136999957409,,completion,,,,,,,,,,,,,,,,,,,,,255228.3499999903,255227.77999995742,247450.977,247467.88500004914,247467.643,255233.999,,,
Standby,html.Page,1_3_0,2021-04-27T14:30:42.897Z,,,,,,,,,,,,,,,,,,,,,,,,,,,,,,7999.679999999993,,timeout,,,,,,,,,,,,,,,,,,,,,263219.8850000277,263217.013,255217.333,255228.6000000313,255233.999,263233.679,,,
Holding screen,html.Screen,1_3_1_0_0,2021-04-27T14:30:49.892Z,,,,,,,,,,,,,,,,,,,,,,,,,,,,,,6995.514000000025,,timeout,,,,,,,,,,,,,,,,,,,,,270215.19500005525,270212.527,263217.013,263220.5799999647,263233.679,270229.193,,,
screen,html.Screen,1_3_1_0_1_0,2021-04-27T14:30:50.965Z,,,,,,,,,,,,,,,,15,,,,,,,,,,,,,,1052.601999958919,,response,,,,7,A,,,,,,Space,keypress(Space),,,,silence,,,,Greg --------- ---------- - --- ------- -- --- ------------<br>----- -- -------- ------- ---- ------ - -------- ---- -----<br>--- ------- ---- -- --- -------- --- - ----- ------ ---- --<br>-------- --- -------- -------- --- -------- ---- -- ----- -<br>-------- ---- --- ---------- --------- -- ------- ------ -<br>--------- ----- -----,271289.14000000805,271281.79499995895,270212.527,270215.56000004057,270229.193,271295.817,,0,Greg
screen,html.Screen,1_3_1_0_1_1,2021-04-27T14:30:51.329Z,,,,,,,,,,,,,,,,15,,,,,,,,,,,,,,350.36300003976794,,response,,,,7,A,,,,,,Space,keypress(Space),,,,silence,,,,"---- Anderson, ---------- - --- ------- -- --- ------------<br>----- -- -------- ------- ---- ------ - -------- ---- -----<br>--- ------- ---- -- --- -------- --- - ----- ------ ---- --<br>-------- --- -------- -------- --- -------- ---- -- ----- -<br>-------- ---- --- ---------- --------- -- ------- ------ -<br>--------- ----- -----",271652.7500000084,271646.18000003975,271279.151,271289.43000000436,271295.817,271662.469,,1,"Anderson,"
screen,html.Screen,1_3_1_0_1_2,2021-04-27T14:30:51.800Z,,,,,,,,,,,,,,,,15,,,,,,,,,,,,,,453.8559999517747,,response,,,,7,A,,,,,,Space,keypress(Space),,,,silence,,,,---- --------- considered - --- ------- -- --- ------------<br>----- -- -------- ------- ---- ------ - -------- ---- -----<br>--- ------- ---- -- --- -------- --- - ----- ------ ---- --<br>-------- --- -------- -------- --- -------- ---- -- ----- -<br>-------- ---- --- ---------- --------- -- ------- ------ -<br>--------- ----- -----,272123.59500001185,272116.32499995176,271645.803,271652.9149999842,271662.469,272129.117,,2,considered
screen,html.Screen,1_3_1_0_1_3,2021-04-27T14:30:52.332Z,,,,,,,,,,,,,,,,15,,,,,,,,,,,,,,521.1029999522143,,response,,,,7,A,,,,,,Space,keypress(Space),,,,silence,,,,---- --------- ---------- a --- ------- -- --- ------------<br>----- -- -------- ------- ---- ------ - -------- ---- -----<br>--- ------- ---- -- --- -------- --- - ----- ------ ---- --<br>-------- --- -------- -------- --- -------- ---- -- ----- -<br>-------- ---- --- ---------- --------- -- ------- ------ -<br>--------- ----- -----,272655.9849999612,272650.21999995224,272112.451,272123.8150000572,272129.117,272662.429,,3,a
screen,html.Screen,1_3_1_0_1_4,2021-04-27T14:30:52.685Z,,,,,,,,,,,,,,,,15,,,,,,,,,,,,,,339.2209999910556,,response,,,,7,A,,,,,,Space,keypress(Space),,,,silence,,,,---- --------- ---------- - key ------- -- --- ------------<br>----- -- -------- ------- ---- ------ - -------- ---- -----<br>--- ------- ---- -- --- -------- --- - ----- ------ ---- --<br>-------- --- -------- -------- --- -------- ---- -- ----- -<br>-------- ---- --- ---------- --------- -- ------- ------ -<br>--------- ----- -----,273008.41000000946,273001.64999999106,272645.763,272656.15000005346,272662.429,273012.415,,4,key
screen,html.Screen,1_3_1_0_1_5,2021-04-27T14:30:53.022Z,,,,,,,,,,,,,,,,15,,,,,,,,,,,,,,327.62500003917376,,response,,,,7,A,,,,,,Space,keypress(Space),,,,silence,,,,---- --------- ---------- - --- witness -- --- ------------<br>----- -- -------- ------- ---- ------ - -------- ---- -----<br>--- ------- ---- -- --- -------- --- - ----- ------ ---- --<br>-------- --- -------- -------- --- -------- ---- -- ----- -<br>-------- ---- --- ---------- --------- -- ------- ------ -<br>--------- ----- -----,273345.8399999654,273340.04000003915,272995.749,273008.5699999472,273012.415,273362.401,,5,witness
screen,html.Screen,1_3_1_0_1_6,2021-04-27T14:30:53.383Z,,,,,,,,,,,,,,,,15,,,,,,,,,,,,,,338.11400003317976,,response,,,,7,A,,,,,,Space,keypress(Space),,,,silence,,,,---- --------- ---------- - --- ------- by --- ------------<br>----- -- -------- ------- ---- ------ - -------- ---- -----<br>--- ------- ---- -- --- -------- --- - ----- ------ ---- --<br>-------- --- -------- -------- --- -------- ---- -- ----- -<br>-------- ---- --- ---------- --------- -- ------- ------ -<br>--------- ----- -----,273707.2150000604,273700.5150000332,273345.735,273346.0099999793,273362.401,273712.387,,6,by
screen,html.Screen,1_3_1_0_1_7,2021-04-27T14:30:53.716Z,,,,,,,,,,,,,,,,15,,,,,,,,,,,,,,320.7729999917792,,response,,,,7,A,,,,,,Space,keypress(Space),,,,silence,,,,---- --------- ---------- - --- ------- -- the ------------<br>----- -- -------- ------- ---- ------ - -------- ---- -----<br>--- ------- ---- -- --- -------- --- - ----- ------ ---- --<br>-------- --- -------- -------- --- -------- ---- -- ----- -<br>-------- ---- --- ---------- --------- -- ------- ------ -<br>--------- ----- -----,274039.6699999692,274033.15999999177,273695.721,273707.4299999513,273712.387,274049.96,,7,the
screen,html.Screen,1_3_1_0_1_8,2021-04-27T14:30:54.301Z,,,,,,,,,,,,,,,,15,,,,,,,,,,,,,,568.0049999830662,,response,,,,7,A,,,,,,Space,keypress(Space),,,,silence,,,,"---- --------- ---------- - --- ------- -- --- prosecution,<br>----- -- -------- ------- ---- ------ - -------- ---- -----<br>--- ------- ---- -- --- -------- --- - ----- ------ ---- --<br>-------- --- -------- -------- --- -------- ---- -- ----- -<br>-------- ---- --- ---------- --------- -- ------- ------ -<br>--------- ----- -----",274624.54500002787,274617.9649999831,274033.294,274039.94000004604,274049.96,274633.27,,8,"prosecution,"
screen,html.Screen,1_3_1_0_1_9,2021-04-27T14:30:54.692Z,,,,,,,,,,,,,,,,15,,,,,,,,,,,,,,375.7749999552034,,response,,,,7,A,,,,,,Space,keypress(Space),,,,silence,,,,---- --------- ---------- - --- ------- -- --- ------------<br>vowed -- -------- ------- ---- ------ - -------- ---- -----<br>--- ------- ---- -- --- -------- --- - ----- ------ ---- --<br>-------- --- -------- -------- --- -------- ---- -- ----- -<br>-------- ---- --- ---------- --------- -- ------- ------ -<br>--------- ----- -----,275015.64999995753,275009.0449999552,274616.604,274624.71500004176,274633.27,275016.588,,9,vowed
screen,html.Screen,1_3_1_0_1_10,2021-04-27T14:30:55.051Z,,,,,,,,,,,,,,,,15,,,,,,,,,,,,,,350.72200000146404,,response,,,,7,A,,,,,,Space,keypress(Space),,,,silence,,,,---- --------- ---------- - --- ------- -- --- ------------<br>----- he -------- ------- ---- ------ - -------- ---- -----<br>--- ------- ---- -- --- -------- --- - ----- ------ ---- --<br>-------- --- -------- -------- --- -------- ---- -- ----- -<br>-------- ---- --- ---------- --------- -- ------- ------ -<br>--------- ----- -----,275374.9400000088,275367.31000000145,274999.922,275015.81500004977,275016.588,275383.24,,10,he
screen,html.Screen,1_3_1_0_1_11,2021-04-27T14:30:55.395Z,,,,,,,,,,,,,,,,15,,,,,,,,,,,,,,328.04499996849336,,response,,,,7,A,,,,,,Space,keypress(Space),,,,silence,,,,---- --------- ---------- - --- ------- -- --- ------------<br>----- -- wouldn't ------- ---- ------ - -------- ---- -----<br>--- ------- ---- -- --- -------- --- - ----- ------ ---- --<br>-------- --- -------- -------- --- -------- ---- -- ----- -<br>-------- ---- --- ---------- --------- -- ------- ------ -<br>--------- ----- -----,275718.63500005566,275711.2849999685,275366.574,275375.1100000227,275383.24,275733.226,,11,wouldn't
screen,html.Screen,1_3_1_0_1_12,2021-04-27T14:30:55.710Z,,,,,,,,,,,,,,,,15,,,,,,,,,,,,,,292.88900001510046,,response,,,,7,A,,,,,,Space,keypress(Space),,,,silence,,,,---- --------- ---------- - --- ------- -- --- ------------<br>----- -- -------- testify ---- ------ - -------- ---- -----<br>--- ------- ---- -- --- -------- --- - ----- ------ ---- --<br>-------- --- -------- -------- --- -------- ---- -- ----- -<br>-------- ---- --- ---------- --------- -- ------- ------ -<br>--------- ----- -----,276033.55000005104,276026.1150000151,275716.56,275718.8000000315,275733.226,276049.88,,12,testify
screen,html.Screen,1_3_1_0_1_13,2021-04-27T14:30:56.026Z,,,,,,,,,,,,,,,,15,,,,,,,,,,,,,,296.03000003274065,,response,,,,7,A,,,,,,Space,keypress(Space),,,,silence,,,,---- --------- ---------- - --- ------- -- --- ------------<br>----- -- -------- ------- when ------ - -------- ---- -----<br>--- ------- ---- -- --- -------- --- - ----- ------ ---- --<br>-------- --- -------- -------- --- -------- ---- -- ----- -<br>-------- ---- --- ---------- --------- -- ------- ------ -<br>--------- ----- -----,276350.14999995474,276345.91000003275,276033.214,276033.7099999888,276049.88,276366.534,,13,when
screen,html.Screen,1_3_1_0_1_14,2021-04-27T14:30:56.312Z,,,,,,,,,,,,,,,,15,,,,,,,,,,,,,,262.95100004132837,,response,,,,7,A,,,,,,Space,keypress(Space),,,,silence,,,,---- --------- ---------- - --- ------- -- --- ------------<br>----- -- -------- ------- ---- served - -------- ---- -----<br>--- ------- ---- -- --- -------- --- - ----- ------ ---- --<br>-------- --- -------- -------- --- -------- ---- -- ----- -<br>-------- ---- --- ---------- --------- -- ------- ------ -<br>--------- ----- -----,276635.51499997266,276629.4850000413,276349.868,276350.2850000514,276366.534,276649.856,,14,served
screen,html.Screen,1_3_1_0_1_15,2021-04-27T14:30:56.626Z,,,,,,,,,,,,,,,,15,,,,,,,,,,,,,,295.1540000248933,,response,,,,7,A,,,,,,Space,keypress(Space),,,,silence,,,,---- --------- ---------- - --- ------- -- --- ------------<br>----- -- -------- ------- ---- ------ a -------- ---- -----<br>--- ------- ---- -- --- -------- --- - ----- ------ ---- --<br>-------- --- -------- -------- --- -------- ---- -- ----- -<br>-------- ---- --- ---------- --------- -- ------- ------ -<br>--------- ----- -----,276950.25999995414,276945.0100000249,276633.19,276635.66999998875,276649.856,276966.51,,15,a
screen,html.Screen,1_3_1_0_1_16,2021-04-27T14:30:57.003Z,,,,,,,,,,,,,,,,15,,,,,,,,,,,,,,352.6150000381749,,response,,,,7,A,,,,,,Space,keypress(Space),,,,silence,,,,---- --------- ---------- - --- ------- -- --- ------------<br>----- -- -------- ------- ---- ------ - subpoena ---- -----<br>--- ------- ---- -- --- -------- --- - ----- ------ ---- --<br>-------- --- -------- -------- --- -------- ---- -- ----- -<br>-------- ---- --- ---------- --------- -- ------- ------ -<br>--------- ----- -----,277326.95000001695,277319.1250000382,276949.844,276950.4200000083,276966.51,277333.162,,16,subpoena
screen,html.Screen,1_3_1_0_1_17,2021-04-27T14:30:57.543Z,,,,,,,,,,,,,,,,15,,,,,,,,,,,,,,526.9230000511743,,response,,,,7,A,,,,,,Space,keypress(Space),,,,silence,,,,---- --------- ---------- - --- ------- -- --- ------------<br>----- -- -------- ------- ---- ------ - -------- last -----<br>--- ------- ---- -- --- -------- --- - ----- ------ ---- --<br>-------- --- -------- -------- --- -------- ---- -- ----- -<br>-------- ---- --- ---------- --------- -- ------- ------ -<br>--------- ----- -----,277866.70999997295,277860.0850000512,277316.496,277327.23000005353,277333.162,277883.14,,17,last
screen,html.Screen,1_3_1_0_1_18,2021-04-27T14:30:57.948Z,,,,,,,,,,,,,,,,15,,,,,,,,,,,,,,381.8399999780813,,response,,,,7,A,,,,,,Space,keypress(Space),,,,silence,,,,---- --------- ---------- - --- ------- -- --- ------------<br>----- -- -------- ------- ---- ------ - -------- ---- week.<br>--- ------- ---- -- --- -------- --- - ----- ------ ---- --<br>-------- --- -------- -------- --- -------- ---- -- ----- -<br>-------- ---- --- ---------- --------- -- ------- ------ -<br>--------- ----- -----,278271.7249999987,278264.9799999781,277866.474,277866.8700000271,277883.14,278283.124,,18,week.
screen,html.Screen,1_3_1_0_1_19,2021-04-27T14:30:58.392Z,,,,,,,,,,,,,,,,15,,,,,,,,,,,,,,426.5910000044969,,response,,,,7,A,,,,,,Space,keypress(Space),,,,silence,,,,---- --------- ---------- - --- ------- -- --- ------------<br>----- -- -------- ------- ---- ------ - -------- ---- -----<br>His ------- ---- -- --- -------- --- - ----- ------ ---- --<br>-------- --- -------- -------- --- -------- ---- -- ----- -<br>-------- ---- --- ---------- --------- -- ------- ------ -<br>--------- ----- -----,278716.28499997314,278709.7150000045,278266.458,278271.91500004847,278283.124,278733.106,,19,His
screen,html.Screen,1_3_1_0_1_20,2021-04-27T14:30:58.867Z,,,,,,,,,,,,,,,,15,,,,,,,,,,,,,,450.95399999956135,,response,,,,7,A,,,,,,Space,keypress(Space),,,,silence,,,,---- --------- ---------- - --- ------- -- --- ------------<br>----- -- -------- ------- ---- ------ - -------- ---- -----<br>--- lawyers ---- -- --- -------- --- - ----- ------ ---- --<br>-------- --- -------- -------- --- -------- ---- -- ----- -<br>-------- ---- --- ---------- --------- -- ------- ------ -<br>--------- ----- -----,279190.7750000246,279184.0599999996,278716.44,278716.4450000273,278733.106,279199.754,,20,lawyers
screen,html.Screen,1_3_1_0_1_21,2021-04-27T14:30:59.263Z,,,,,,,,,,,,,,,,15,,,,,,,,,,,,,,380.53100003272993,,response,,,,7,A,,,,,,Space,keypress(Space),,,,silence,,,,---- --------- ---------- - --- ------- -- --- ------------<br>----- -- -------- ------- ---- ------ - -------- ---- -----<br>--- ------- said -- --- -------- --- - ----- ------ ---- --<br>-------- --- -------- -------- --- -------- ---- -- ----- -<br>-------- ---- --- ---------- --------- -- ------- ------ -<br>--------- ----- -----,279586.79500001017,279580.28500003275,279183.088,279190.93499996234,279199.754,279599.738,,21,said
screen,html.Screen,1_3_1_0_1_22,2021-04-27T14:30:59.586Z,,,,,,,,,,,,,,,,15,,,,,,,,,,,,,,304.2119999489514,,response,,,,7,A,,,,,,Space,keypress(Space),,,,silence,,,,---- --------- ---------- - --- ------- -- --- ------------<br>----- -- -------- ------- ---- ------ - -------- ---- -----<br>--- ------- ---- he --- -------- --- - ----- ------ ---- --<br>-------- --- -------- -------- --- -------- ---- -- ----- -<br>-------- ---- --- ---------- --------- -- ------- ------ -<br>--------- ----- -----,279910.15999997035,279903.94999994896,279583.072,279586.959999986,279599.738,279916.392,,22,he
screen,html.Screen,1_3_1_0_1_23,2021-04-27T14:31:00.091Z,,,,,,,,,,,,,,,,15,,,,,,,,,,,,,,491.4779999954626,,response,,,,7,A,,,,,,Space,keypress(Space),,,,silence,,,,---- --------- ---------- - --- ------- -- --- ------------<br>----- -- -------- ------- ---- ------ - -------- ---- -----<br>--- ------- ---- -- was -------- --- - ----- ------ ---- --<br>-------- --- -------- -------- --- -------- ---- -- ----- -<br>-------- ---- --- ---------- --------- -- ------- ------ -<br>--------- ----- -----,280415.37000006065,280407.86999999546,279899.726,279910.32999998424,279916.392,280416.372,,23,was
screen,html.Screen,1_3_1_0_1_24,2021-04-27T14:31:00.555Z,,,,,,,,,,,,,,,,15,,,,,,,,,,,,,,455.8429999812506,,response,,,,7,A,,,,,,Space,keypress(Space),,,,silence,,,,---- --------- ---------- - --- ------- -- --- ------------<br>----- -- -------- ------- ---- ------ - -------- ---- -----<br>--- ------- ---- -- --- prepared --- - ----- ------ ---- --<br>-------- --- -------- -------- --- -------- ---- -- ----- -<br>-------- ---- --- ---------- --------- -- ------- ------ -<br>--------- ----- -----,280878.795000026,280872.2149999812,280399.706,280415.5299999984,280416.372,280883.02,,24,prepared
screen,html.Screen,1_3_1_0_1_25,2021-04-27T14:31:00.900Z,,,,,,,,,,,,,,,,15,,,,,,,,,,,,,,334.16999999573454,,response,,,,7,A,,,,,,Space,keypress(Space),,,,silence,,,,---- --------- ---------- - --- ------- -- --- ------------<br>----- -- -------- ------- ---- ------ - -------- ---- -----<br>--- ------- ---- -- --- -------- for - ----- ------ ---- --<br>-------- --- -------- -------- --- -------- ---- -- ----- -<br>-------- ---- --- ---------- --------- -- ------- ------ -<br>--------- ----- -----,281223.75000000466,281217.18999999575,280866.354,280878.96999996156,280883.02,281233.006,,25,for
screen,html.Screen,1_3_1_0_1_26,2021-04-27T14:31:01.302Z,,,,,,,,,,,,,,,,15,,,,,,,,,,,,,,385.99899998592446,,response,,,,7,A,,,,,,Space,keypress(Space),,,,silence,,,,---- --------- ---------- - --- ------- -- --- ------------<br>----- -- -------- ------- ---- ------ - -------- ---- -----<br>--- ------- ---- -- --- -------- --- a ----- ------ ---- --<br>-------- --- -------- -------- --- -------- ---- -- ----- -<br>-------- ---- --- ---------- --------- -- ------- ------ -<br>--------- ----- -----,281625.85499999113,281619.0049999859,281216.34,281223.9149999805,281233.006,281632.99,,26,a
screen,html.Screen,1_3_1_0_1_27,2021-04-27T14:31:01.659Z,,,,,,,,,,,,,,,,15,,,,,,,,,,,,,,342.9449999949429,,response,,,,7,A,,,,,,Space,keypress(Space),,,,silence,,,,---- --------- ---------- - --- ------- -- --- ------------<br>----- -- -------- ------- ---- ------ - -------- ---- -----<br>--- ------- ---- -- --- -------- --- - third ------ ---- --<br>-------- --- -------- -------- --- -------- ---- -- ----- -<br>-------- ---- --- ---------- --------- -- ------- ------ -<br>--------- ----- -----,281983.40000002645,281975.93499999493,281616.324,281626.01999996696,281632.99,281999.642,,27,third
screen,html.Screen,1_3_1_0_1_28,2021-04-27T14:31:02.037Z,,,,,,,,,,,,,,,,15,,,,,,,,,,,,,,356.1930000530556,,response,,,,7,A,,,,,,Space,keypress(Space),,,,silence,,,,---- --------- ---------- - --- ------- -- --- ------------<br>----- -- -------- ------- ---- ------ - -------- ---- -----<br>--- ------- ---- -- --- -------- --- - ----- prison ---- --<br>-------- --- -------- -------- --- -------- ---- -- ----- -<br>-------- ---- --- ---------- --------- -- ------- ------ -<br>--------- ----- -----,282361.58000002615,282355.83500005305,281982.976,281984.62999996264,281999.642,282366.294,,28,prison
screen,html.Screen,1_3_1_0_1_29,2021-04-27T14:31:02.447Z,,,,,,,,,,,,,,,,15,,,,,,,,,,,,,,398.5860000315588,,response,,,,7,A,,,,,,Space,keypress(Space),,,,silence,,,,---- --------- ---------- - --- ------- -- --- ------------<br>----- -- -------- ------- ---- ------ - -------- ---- -----<br>--- ------- ---- -- --- -------- --- - ----- ------ stay --<br>-------- --- -------- -------- --- -------- ---- -- ----- -<br>-------- ---- --- ---------- --------- -- ------- ------ -<br>--------- ----- -----,282771.08500001486,282764.88000003155,282349.628,282361.745000002,282366.294,282782.944,,29,stay
screen,html.Screen,1_3_1_0_1_30,2021-04-27T14:31:02.914Z,,,,,,,,,,,,,,,,15,,,,,,,,,,,,,,448.55599999439437,,response,,,,7,A,,,,,,Space,keypress(Space),,,,silence,,,,---- --------- ---------- - --- ------- -- --- ------------<br>----- -- -------- ------- ---- ------ - -------- ---- -----<br>--- ------- ---- -- --- -------- --- - ----- ------ ---- to<br>-------- --- -------- -------- --- -------- ---- -- ----- -<br>-------- ---- --- ---------- --------- -- ------- ------ -<br>--------- ----- -----,283238.09999995865,283231.4999999944,282766.278,282771.2499999907,282782.944,283249.592,,30,to
screen,html.Screen,1_3_1_0_1_31,2021-04-27T14:31:03.326Z,,,,,,,,,,,,,,,,15,,,,,,,,,,,,,,394.2480000333744,,response,,,,7,A,,,,,,Space,keypress(Space),,,,silence,,,,---- --------- ---------- - --- ------- -- --- ------------<br>----- -- -------- ------- ---- ------ - -------- ---- -----<br>--- ------- ---- -- --- -------- --- - ----- ------ ---- --<br>maintain --- -------- -------- --- -------- ---- -- ----- -<br>-------- ---- --- ---------- --------- -- ------- ------ -<br>--------- ----- -----,283650.2849999815,283643.8400000334,283232.926,283238.2600000128,283249.592,283666.242,,31,maintain
screen,html.Screen,1_3_1_0_1_32,2021-04-27T14:31:03.710Z,,,,,,,,,,,,,,,,15,,,,,,,,,,,,,,360.84799998864764,,response,,,,7,A,,,,,,Space,keypress(Space),,,,silence,,,,---- --------- ---------- - --- ------- -- --- ------------<br>----- -- -------- ------- ---- ------ - -------- ---- -----<br>--- ------- ---- -- --- -------- --- - ----- ------ ---- --<br>-------- his -------- -------- --- -------- ---- -- ----- -<br>-------- ---- --- ---------- --------- -- ------- ------ -<br>--------- ----- -----,284033.74500002246,284027.0899999887,283649.576,283650.44999995735,283666.242,284049.56,,32,his
screen,html.Screen,1_3_1_0_1_33,2021-04-27T14:31:04.057Z,,,,,,,,,,,,,,,,15,,,,,,,,,,,,,,325.2849999839091,,response,,,,7,A,,,,,,Space,keypress(Space),,,,silence,,,,---- --------- ---------- - --- ------- -- --- ------------<br>----- -- -------- ------- ---- ------ - -------- ---- -----<br>--- ------- ---- -- --- -------- --- - ----- ------ ---- --<br>-------- --- silence. -------- --- -------- ---- -- ----- -<br>-------- ---- --- ---------- --------- -- ------- ------ -<br>--------- ----- -----,284381.6499999957,284374.8449999839,284032.894,284033.9099999983,284049.56,284394.442,,33,silence.
screen,html.Screen,1_3_1_0_1_34,2021-04-27T14:31:04.720Z,,,,,,,,,,,,,,,,15,,,,,,,,,,,,,,643.4079999642563,,response,,,,7,A,,,,,,Space,keypress(Space),,,,silence,,,,---- --------- ---------- - --- ------- -- --- ------------<br>----- -- -------- ------- ---- ------ - -------- ---- -----<br>--- ------- ---- -- --- -------- --- - ----- ------ ---- --<br>-------- --- -------- Anderson --- -------- ---- -- ----- -<br>-------- ---- --- ---------- --------- -- ------- ------ -<br>--------- ----- -----,285044.5199999958,285037.84999996424,284377.776,284381.8550000433,284394.442,285061.082,,34,Anderson
screen,html.Screen,1_3_1_0_1_35,2021-04-27T14:31:05.153Z,,,,,,,,,,,,,,,,15,,,,,,,,,,,,,,409.68800001445925,,response,,,,7,A,,,,,,Space,keypress(Space),,,,silence,,,,---- --------- ---------- - --- ------- -- --- ------------<br>----- -- -------- ------- ---- ------ - -------- ---- -----<br>--- ------- ---- -- --- -------- --- - ----- ------ ---- --<br>-------- --- -------- -------- was -------- ---- -- ----- -<br>-------- ---- --- ---------- --------- -- ------- ------ -<br>--------- ----- -----,285476.8300000578,285470.77000001445,285044.416,285044.75999996066,285061.082,285477.732,,35,was
screen,html.Screen,1_3_1_0_1_36,2021-04-27T14:31:05.573Z,,,,,,,,,,,,,,,,15,,,,,,,,,,,,,,413.3580000482616,,response,,,,7,A,,,,,,Space,keypress(Space),,,,silence,,,,---- --------- ---------- - --- ------- -- --- ------------<br>----- -- -------- ------- ---- ------ - -------- ---- -----<br>--- ------- ---- -- --- -------- --- - ----- ------ ---- --<br>-------- --- -------- -------- --- released ---- -- ----- -<br>-------- ---- --- ---------- --------- -- ------- ------ -<br>--------- ----- -----,285897.4600000074,285891.0900000483,285461.066,285476.99500003364,285477.732,285911.048,,36,released
screen,html.Screen,1_3_1_0_1_37,2021-04-27T14:31:05.946Z,,,,,,,,,,,,,,,,15,,,,,,,,,,,,,,352.96200004260754,,response,,,,7,A,,,,,,Space,keypress(Space),,,,silence,,,,---- --------- ---------- - --- ------- -- --- ------------<br>----- -- -------- ------- ---- ------ - -------- ---- -----<br>--- ------- ---- -- --- -------- --- - ----- ------ ---- --<br>-------- --- -------- -------- --- -------- July -- ----- -<br>-------- ---- --- ---------- --------- -- ------- ------ -<br>--------- ----- -----,286270.71499999147,286264.0100000426,285894.382,285897.62499998324,285911.048,286277.7,,37,July
screen,html.Screen,1_3_1_0_1_38,2021-04-27T14:31:06.564Z,,,,,,,,,,,,,,,,15,,,,,,,,,,,,,,604.1599999649334,,response,,,,7,A,,,,,,Space,keypress(Space),,,,silence,,,,---- --------- ---------- - --- ------- -- --- ------------<br>----- -- -------- ------- ---- ------ - -------- ---- -----<br>--- ------- ---- -- --- -------- --- - ----- ------ ---- --<br>-------- --- -------- -------- --- -------- ---- 20 ----- -<br>-------- ---- --- ---------- --------- -- ------- ------ -<br>--------- ----- -----,286888.18999996874,286881.85999996495,286261.034,286270.8799999673,286277.7,286894.342,,38,20
screen,html.Screen,1_3_1_0_1_39,2021-04-27T14:31:07.943Z,,,,,,,,,,,,,,,,15,,,,,,,,,,,,,,1367.4230000611278,,response,,,,7,A,,,,,,Space,keypress(Space),,,,silence,,,,---- --------- ---------- - --- ------- -- --- ------------<br>----- -- -------- ------- ---- ------ - -------- ---- -----<br>--- ------- ---- -- --- -------- --- - ----- ------ ---- --<br>-------- --- -------- -------- --- -------- ---- -- after -<br>-------- ---- --- ---------- --------- -- ------- ------ -<br>--------- ----- -----,288267.8099999903,288261.76500006113,286877.676,286888.3500000229,286894.342,288277.62,,39,after
