sender,sender_type,sender_id,timestamp,meta,,Blues,Classical,Country,Dance,Electronic,Folk,Gospel,Hip-Hop,Jazz,Latin,Musical/Film,New-age,Pop,Provo_ID,R&B,Rap,Reggae,Religious,Rock,Soul,Swing,Traditional,age,artist_name,correct,correctResponse,distraction,duration,ended_on,familiarity,gender,headphone_check_performance,item,list,offensiveness,pleasantness,position_correct,preference,response,response_action,snippet_file,song_name,song_rating,sound,stimulus_1,stimulus_2,stimulus_3,text,time_commit,time_end,time_render,time_run,time_show,time_switch,url,word,word_ID
Introduction,html.Screen,0_0,2021-03-25T01:43:03.554Z,"{""labjs_version"":""20.2.2"",""labjs_build"":{""flavor"":""production"",""commit"":""a25486e0c714a0ae2ce03ff94b7bb6896854dcfa""},""location"":""https://run.pavlovia.org/mvasilev/music_a/"",""userAgent"":""Mozilla/5.0 (Windows NT 10.0; Win64; x64) AppleWebKit/537.36 (KHTML, like Gecko) Chrome/89.0.4389.90 Safari/537.36"",""platform"":""Win32"",""language"":""de-DE"",""locale"":""en-US"",""timeZone"":""Europe/London"",""timezoneOffset"":0,""screen_width"":2560,""screen_height"":1440,""scroll_width"":3200,""scroll_height"":1621,""window_innerWidth"":3200,""window_innerHeight"":1668,""devicePixelRatio"":0.800000011920929}",,,,,,,,,,,,,,,,,,,,,,,,,,,,,12308.84699998046,response,,,,,,,,,,continue,click button,,,,,,,,,20979.525000031572,20978.01999998046,8636.376,8646.439999982249,8669.173,20993.916,{},,
Volume calibration,html.Screen,0_1,2021-03-25T01:43:14.578Z,,,,,,,,,,,,,,,,,,,,,,,,,,,,,,11006.548999990071,response,,,,,,,,,,continue,click button,,,,,,,,,32002.9499999946,32000.464999990072,20977.271,20979.839999985415,20993.916,32020.324,,,
Task instructions,html.Screen,0_2,2021-03-25T01:43:29.061Z,,,,,,,,,,,,,,,,,,,,,,,,,,,,,,14465.77599998007,response,,,,,,,,,,continue,click button,,,,,,,,,46486.83000000892,46486.09999998007,31984.501,32003.12499998836,32020.324,46493.823,,,
Sounds,html.Screen,0_3_0_0,2021-03-25T01:43:33.309Z,,,,,,,,,,,,,,,,,,,,,,,,,,,,,,4252.924000000006,timeout,,,,,,,,1,,,,,,,,S,I,O,,50734.62499998277,50730.125,46477.359,46487.07999999169,46493.823,50746.747,,,
Judgement,html.Screen,0_3_0_1,2021-03-25T01:43:34.541Z,,,,,,,,,,,,,,,,,,,,,,,,,,,true,1,,1218.533000003983,response,,,,,,,,1,,1,click #choice-1,,,,,S,I,O,,51966.07000002405,51965.280000003986,50730.125,50734.954999992624,50746.747,51980.973,,,
Trial,flow.Sequence,0_3_0,2021-03-25T01:43:34.541Z,,,,,,,,,,,,,,,,,,,,,,,,,,,,,,5471.457000003989,completion,,,,,,,,1,,,,,,,,S,I,O,,51966.4150000317,51965.280000003986,46477.359,46487.02499998035,46493.823,51980.973,,,
Sounds,html.Screen,0_3_1_0,2021-03-25T01:43:38.793Z,,,,,,,,,,,,,,,,,,,,,,,,,,,,,,4252.774000000005,timeout,,,,,,,,1,,,,,,,,S,O,I,,56218.04000000702,56217.03,51964.293,51966.56999998959,51980.973,56233.747,,,
Judgement,html.Screen,0_3_1_1,2021-03-25T01:43:39.396Z,,,,,,,,,,,,,,,,,,,,,,,,,,,true,1,,586.7580000105954,response,,,,,,,,1,,1,click #choice-1,,,,,S,O,I,,56821.25999999698,56820.5050000106,56217.03,56218.38000003481,56233.747,56834.089,,,
Trial,flow.Sequence,0_3_1,2021-03-25T01:43:39.396Z,,,,,,,,,,,,,,,,,,,,,,,,,,,,,,4839.5320000106,completion,,,,,,,,1,,,,,,,,S,O,I,,56821.49499998195,56820.5050000106,51964.293,51966.52499999618,51980.973,56834.089,,,
Sounds,html.Screen,0_3_2_0,2021-03-25T01:43:43.646Z,,,,,,,,,,,,,,,,,,,,,,,,,,,,,,4252.853000000003,timeout,,,,,,,,2,,,,,,,,I,S,O,,61071.15999999223,61070.254,56817.376,56821.64500001818,56834.089,61086.942,,,
Judgement,html.Screen,0_3_2_1,2021-03-25T01:43:44.267Z,,,,,,,,,,,,,,,,,,,,,,,,,,,true,2,,604.7730000226657,response,,,,,,,,2,,2,click #choice-2,,,,,I,S,O,,61692.410000017844,61691.71500002267,61070.254,61071.39500003541,61086.942,61703.963,,,
Trial,flow.Sequence,0_3_2,2021-03-25T01:43:44.267Z,,,,,,,,,,,,,,,,,,,,,,,,,,,,,,4857.626000022668,completion,,,,,,,,2,,,,,,,,I,S,O,,61692.61500000721,61691.71500002267,56817.376,56821.60000002477,56834.089,61703.963,,,
Sounds,html.Screen,0_3_3_0,2021-03-25T01:43:48.515Z,,,,,,,,,,,,,,,,,,,,,,,,,,,,,,4252.847999999998,timeout,,,,,,,,2,,,,,,,,O,S,I,,65940.83999999566,65940.114,61687.35,61692.74500000756,61703.963,65956.811,,,
Judgement,html.Screen,0_3_3_1,2021-03-25T01:43:49.026Z,,,,,,,,,,,,,,,,,,,,,,,,,,,true,2,,494.21400001666916,response,,,,,,,,2,,2,click #choice-2,,,,,O,S,I,,66451.8200000166,66451.02500001667,65940.114,65941.07499998063,65956.811,66457.088,,,
Trial,flow.Sequence,0_3_3,2021-03-25T01:43:49.027Z,,,,,,,,,,,,,,,,,,,,,,,,,,,,,,4747.062000016667,completion,,,,,,,,2,,,,,,,,O,S,I,,66452.0200000261,66451.02500001667,61687.35,61692.69500003429,61703.963,66457.088,,,
Sounds,html.Screen,0_3_4_0,2021-03-25T01:43:53.269Z,,,,,,,,,,,,,,,,,,,,,,,,,,,,,,4252.801999999996,timeout,,,,,,,,3,,,,,,,,O,I,S,,70694.19000000926,70693.197,66440.48,66452.14499998838,66457.088,70709.89,,,
Judgement,html.Screen,0_3_4_1,2021-03-25T01:43:54.018Z,,,,,,,,,,,,,,,,,,,,,,,,,,,true,3,,732.4600000266364,response,,,,,,,,3,,3,click #choice-3,,,,,O,I,S,,71443.02499998594,71442.35000002664,70693.197,70694.4150000345,70709.89,71473.699,,,
Trial,flow.Sequence,0_3_4,2021-03-25T01:43:54.018Z,,,,,,,,,,,,,,,,,,,,,,,,,,,,,,4985.262000026632,completion,,,,,,,,3,,,,,,,,O,I,S,,71443.20500001777,71442.35000002664,66440.48,66452.11000001291,66457.088,71473.699,,,
Sounds,html.Screen,0_3_5_0,2021-03-25T01:43:58.289Z,,,,,,,,,,,,,,,,,,,,,,,,,,,,,,4256.193000000014,timeout,,,,,,,,3,,,,,,,,I,O,S,,75714.10500002094,75713.211,71427.084,71443.32500000019,71473.699,75729.892,,,
Judgement,html.Screen,0_3_5_1,2021-03-25T01:43:59.321Z,,,,,,,,,,,,,,,,,,,,,,,,,,,true,3,,1015.5380000099394,response,,,,,,,,3,,3,click #choice-3,,,,,I,O,S,,76746.22000003,76745.43000000995,75713.211,75714.3250000081,75729.892,76747.193,,,
Trial,flow.Sequence,0_3_5,2021-03-25T01:43:59.321Z,,,,,,,,,,,,,,,,,,,,,,,,,,,,,,5271.731000009953,completion,,,,,,,,3,,,,,,,,I,O,S,,76746.41000002157,76745.43000000995,71427.084,71443.29500000458,71473.699,76747.193,,,
Task,flow.Loop,0_3,2021-03-25T01:43:59.325Z,,,,,,,,,,,,,,,,,,,,,,,,,,,,,,30251.60700000995,completion,,,1,,,,,,,,,,,,,,,,,76750.34999998752,76745.43000000995,46477.359,46486.97000002721,46493.823,76747.193,,,
Trap,html.Screen,0_4,2021-03-25T01:43:59.327Z,,,,,,,,,,,,,,,,,,,,,,,,,,,,,,NaN,skipped,,,,,,,,,,,,,,,,,,,,76752.5049999822,76745.43000000995,,76752.38000001991,,76747.193,,,
Thanks,html.Screen,0_5,2021-03-25T01:44:09.895Z,,,,,,,,,,,,,,,,,,,,,,,,,,,,,,10572.606999997486,response,,,,,,,,,,continue,click button,,,,,,,,,87320.56999998167,87319.79999999749,76730.577,76752.61500000488,76747.193,91640.286,,,
Headphone screening,flow.Sequence,0,2021-03-25T01:44:09.895Z,,,,,,,,,,,,,,,,,,,,,,,,,,,,,,78650.62699999749,completion,,,,,,,,,,,,,,,,,,,,87320.75499999337,87319.79999999749,8636.376,8646.415000024717,8669.173,91640.286,,,
Instructions,html.Page,1_0,2021-03-25T01:45:16.632Z,,,,,,,,,,,,,,,,,,,,,,,,,,,,,,62416.8839999855,form submission,,,,,,,,,,,,,,,,,,,,154057.62500001583,154057.1699999855,91623.691,91647.22500002244,91640.286,154064.664,,,
Holding screen,html.Screen,1_1_0_0,2021-03-25T01:45:23.628Z,,,,,,,,,,,,,,,,,,,,,,,,,,,,,,7021.290000000008,timeout,,,,,,,,,,,,,,,,,,,,161053.35000000196,161052.599,154048.01,154057.8749999986,154064.664,161085.954,,,
screen,html.Screen,1_1_0_1_0,2021-03-25T01:45:24.464Z,,,,,,,,,,,,,,,,53,,,,,,,,,,,,,,798.7360000353365,response,,,,99,,,,,,Space,keypress(Space),,,,,,,,When -- ----- -- ------ - ------- --- ----------<br>------------- ------ ------ ---- ---- ------- ----- -- ----<br>-------- ------- -- ---------- --- - --- ----- ----- ----<br>---- --- --- ----- --- ---- ---- ------- ----- ---- -------<br>--- --- -- ----- -- --- ---- -- --- ---- -- ------ ------<br>--- ----- -- ----,161889.04999999795,161884.69000003533,161052.599,161053.69999998948,161085.954,161886.477,,0,When
screen,html.Screen,1_1_0_1_1,2021-03-25T01:45:24.884Z,,,,,,,,,,,,,,,,53,,,,,,,,,,,,,,421.9180000000051,response,,,,99,,,,,,Space,keypress(Space),,,,,,,,---- it ----- -- ------ - ------- --- ----------<br>------------- ------ ------ ---- ---- ------- ----- -- ----<br>-------- ------- -- ---------- --- - --- ----- ----- ----<br>---- --- --- ----- --- ---- ---- ------- ----- ---- -------<br>--- --- -- ----- -- --- ---- -- --- ---- -- ------ ------<br>--- ----- -- ----,162309.17000002228,162308.39500000002,161869.871,161889.33000003453,161886.477,162319.973,,1,it
screen,html.Screen,1_1_0_1_2,2021-03-25T01:45:25.164Z,,,,,,,,,,,,,,,,53,,,,,,,,,,,,,,268.36200003675185,response,,,,99,,,,,,Space,keypress(Space),,,,,,,,---- -- comes -- ------ - ------- --- ----------<br>------------- ------ ------ ---- ---- ------- ----- -- ----<br>-------- ------- -- ---------- --- - --- ----- ----- ----<br>---- --- --- ----- --- ---- ---- ------- ----- ---- -------<br>--- --- -- ----- -- --- ---- -- --- ---- -- ------ ------<br>--- ----- -- ----,162589.14500003448,162588.33500003675,162303.434,162309.38500002958,162319.973,162603.646,,2,comes
screen,html.Screen,1_1_0_1_3,2021-03-25T01:45:25.548Z,,,,,,,,,,,,,,,,53,,,,,,,,,,,,,,368.66900002089096,response,,,,99,,,,,,Space,keypress(Space),,,,,,,,---- -- ----- to ------ - ------- --- ----------<br>------------- ------ ------ ---- ---- ------- ----- -- ----<br>-------- ------- -- ---------- --- - --- ----- ----- ----<br>---- --- --- ----- --- ---- ---- ------- ----- ---- -------<br>--- --- -- ----- -- --- ---- -- --- ---- -- ------ ------<br>--- ----- -- ----,162973.08000002522,162972.3150000209,162586.967,162589.35999998357,162603.646,162987.166,,3,to
screen,html.Screen,1_1_0_1_4,2021-03-25T01:45:26.252Z,,,,,,,,,,,,,,,,53,,,,,,,,,,,,,,689.1639999875042,response,,,,99,,,,,,Space,keypress(Space),,,,,,,,---- -- ----- -- having - ------- --- ----------<br>------------- ------ ------ ---- ---- ------- ----- -- ----<br>-------- ------- -- ---------- --- - --- ----- ----- ----<br>---- --- --- ----- --- ---- ---- ------- ----- ---- -------<br>--- --- -- ----- -- --- ---- -- --- ---- -- ------ ------<br>--- ----- -- ----,163677.15000000317,163676.3299999875,162970.57,162973.30499999225,162987.166,163687.659,,4,having
screen,html.Screen,1_1_0_1_5,2021-03-25T01:45:26.533Z,,,,,,,,,,,,,,,,53,,,,,,,,,,,,,,269.3559999926656,response,,,,99,,,,,,Space,keypress(Space),,,,,,,,---- -- ----- -- ------ a ------- --- ----------<br>------------- ------ ------ ---- ---- ------- ----- -- ----<br>-------- ------- -- ---------- --- - --- ----- ----- ----<br>---- --- --- ----- --- ---- ---- ------- ----- ---- -------<br>--- --- -- ----- -- --- ---- -- --- ---- -- ------ ------<br>--- ----- -- ----,163957.74500002153,163957.01499999268,163671.077,163677.38499998813,163687.659,163971.177,,5,a
screen,html.Screen,1_1_0_1_6,2021-03-25T01:45:26.884Z,,,,,,,,,,,,,,,,53,,,,,,,,,,,,,,336.9430000015127,response,,,,99,,,,,,Space,keypress(Space),,,,,,,,---- -- ----- -- ------ - lasting --- ----------<br>------------- ------ ------ ---- ---- ------- ----- -- ----<br>-------- ------- -- ---------- --- - --- ----- ----- ----<br>---- --- --- ----- --- ---- ---- ------- ----- ---- -------<br>--- --- -- ----- -- --- ---- -- --- ---- -- ------ ------<br>--- ----- -- ----,164308.94499999704,164308.1200000015,163954.54,163957.96999998856,163971.177,164321.415,,6,lasting
screen,html.Screen,1_1_0_1_7,2021-03-25T01:45:27.276Z,,,,,,,,,,,,,,,,53,,,,,,,,,,,,,,378.6800000365183,response,,,,99,,,,,,Space,keypress(Space),,,,,,,,---- -- ----- -- ------ - ------- and ----------<br>------------- ------ ------ ---- ---- ------- ----- -- ----<br>-------- ------- -- ---------- --- - --- ----- ----- ----<br>---- --- --- ----- --- ---- ---- ------- ----- ---- -------<br>--- --- -- ----- -- --- ---- -- --- ---- -- ------ ------<br>--- ----- -- ----,164700.8500000229,164700.09500003653,164304.775,164309.1649999842,164321.415,164705.009,,7,and
screen,html.Screen,1_1_0_1_8,2021-03-25T01:45:27.604Z,,,,,,,,,,,,,,,,53,,,,,,,,,,,,,,323.0410000226402,response,,,,99,,,,,,Space,keypress(Space),,,,,,,,---- -- ----- -- ------ - ------- --- fulfilling<br>------------- ------ ------ ---- ---- ------- ----- -- ----<br>-------- ------- -- ---------- --- - --- ----- ----- ----<br>---- --- --- ----- --- ---- ---- ------- ----- ---- -------<br>--- --- -- ----- -- --- ---- -- --- ---- -- ------ ------<br>--- ----- -- ----,165028.79499999108,165028.05000002263,164688.376,164701.07499998994,164705.009,165038.527,,8,fulfilling
screen,html.Screen,1_1_0_1_9,2021-03-25T01:45:27.924Z,,,,,,,,,,,,,,,,53,,,,,,,,,,,,,,309.43299998459406,response,,,,99,,,,,,Space,keypress(Space),,,,,,,,"---- -- ----- -- ------ - ------- --- ----------<br>relationship, ------ ------ ---- ---- ------- ----- -- ----<br>-------- ------- -- ---------- --- - --- ----- ----- ----<br>---- --- --- ----- --- ---- ---- ------- ----- ---- -------<br>--- --- -- ----- -- --- ---- -- --- ---- -- ------ ------<br>--- ----- -- ----",165348.7150000292,165347.9599999846,165021.91,165029.02000001632,165038.527,165355.28,,9,"relationship,"
screen,html.Screen,1_1_0_1_10,2021-03-25T01:45:28.276Z,,,,,,,,,,,,,,,,53,,,,,,,,,,,,,,344.68500003617373,response,,,,99,,,,,,Space,keypress(Space),,,,,,,,---- -- ----- -- ------ - ------- --- ----------<br>------------- common ------ ---- ---- ------- ----- -- ----<br>-------- ------- -- ---------- --- - --- ----- ----- ----<br>---- --- --- ----- --- ---- ---- ------- ----- ---- -------<br>--- --- -- ----- -- --- ---- -- --- ---- -- ------ ------<br>--- ----- -- ----,165700.72500000242,165699.96500003617,165338.785,165348.9450000343,165355.28,165705.621,,10,common
screen,html.Screen,1_1_0_1_11,2021-03-25T01:45:28.731Z,,,,,,,,,,,,,,,,53,,,,,,,,,,,,,,450.16400000991416,response,,,,99,,,,,,Space,keypress(Space),,,,,,,,---- -- ----- -- ------ - ------- --- ----------<br>------------- ------ wisdom ---- ---- ------- ----- -- ----<br>-------- ------- -- ---------- --- - --- ----- ----- ----<br>---- --- --- ----- --- ---- ---- ------- ----- ---- -------<br>--- --- -- ----- -- --- ---- -- --- ---- -- ------ ------<br>--- ----- -- ----,166156.59999998752,166155.78500000993,165689.025,165700.95500000753,165705.621,166172.677,,11,wisdom
screen,html.Screen,1_1_0_1_12,2021-03-25T01:45:29.291Z,,,,,,,,,,,,,,,,53,,,,,,,,,,,,,,543.0979999896663,response,,,,99,,,,,,Space,keypress(Space),,,,,,,,---- -- ----- -- ------ - ------- --- ----------<br>------------- ------ ------ says ---- ------- ----- -- ----<br>-------- ------- -- ---------- --- - --- ----- ----- ----<br>---- --- --- ----- --- ---- ---- ------- ----- ---- -------<br>--- --- -- ----- -- --- ---- -- --- ---- -- ------ ------<br>--- ----- -- ----,166716.55000001192,166715.77499998966,166156.011,166156.84499999043,166172.677,166722.863,,12,says
screen,html.Screen,1_1_0_1_13,2021-03-25T01:45:29.723Z,,,,,,,,,,,,,,,,53,,,,,,,,,,,,,,425.08200003334787,response,,,,99,,,,,,Space,keypress(Space),,,,,,,,---- -- ----- -- ------ - ------- --- ----------<br>------------- ------ ------ ---- that ------- ----- -- ----<br>-------- ------- -- ---------- --- - --- ----- ----- ----<br>---- --- --- ----- --- ---- ---- ------- ----- ---- -------<br>--- --- -- ----- -- --- ---- -- --- ---- -- ------ ------<br>--- ----- -- ----,167148.63499999046,167147.94500003336,166706.383,166716.77500003716,166722.863,167156.521,,13,that
screen,html.Screen,1_1_0_1_14,2021-03-25T01:45:30.179Z,,,,,,,,,,,,,,,,53,,,,,,,,,,,,,,447.0940000290866,response,,,,99,,,,,,Space,keypress(Space),,,,,,,,---- -- ----- -- ------ - ------- --- ----------<br>------------- ------ ------ ---- ---- feeling ----- -- ----<br>-------- ------- -- ---------- --- - --- ----- ----- ----<br>---- --- --- ----- --- ---- ---- ------- ----- ---- -------<br>--- --- -- ----- -- --- ---- -- --- ---- -- ------ ------<br>--- ----- -- ----,167604.38999999315,167603.6150000291,167139.985,167148.87000003364,167156.521,167606.91,,14,feeling
screen,html.Screen,1_1_0_1_15,2021-03-25T01:45:30.643Z,,,,,,,,,,,,,,,,53,,,,,,,,,,,,,,460.6400000361318,response,,,,99,,,,,,Space,keypress(Space),,,,,,,,---- -- ----- -- ------ - ------- --- ----------<br>------------- ------ ------ ---- ---- ------- close -- ----<br>-------- ------- -- ---------- --- - --- ----- ----- ----<br>---- --- --- ----- --- ---- ---- ------- ----- ---- -------<br>--- --- -- ----- -- --- ---- -- --- ---- -- ------ ------<br>--- ----- -- ----,168068.25499999104,168067.55000003614,167590.291,167604.61999999825,167606.91,168073.827,,15,close
screen,html.Screen,1_1_0_1_16,2021-03-25T01:45:31.051Z,,,,,,,,,,,,,,,,53,,,,,,,,,,,,,,401.6380000250065,response,,,,99,,,,,,Space,keypress(Space),,,,,,,,---- -- ----- -- ------ - ------- --- ----------<br>------------- ------ ------ ---- ---- ------- ----- to ----<br>-------- ------- -- ---------- --- - --- ----- ----- ----<br>---- --- --- ----- --- ---- ---- ------- ----- ---- -------<br>--- --- -- ----- -- --- ---- -- --- ---- -- ------ ------<br>--- ----- -- ----,168476.1549999821,168475.465000025,168057.261,168068.48499999614,168073.827,168490.849,,16,to
screen,html.Screen,1_1_0_1_17,2021-03-25T01:45:31.523Z,,,,,,,,,,,,,,,,53,,,,,,,,,,,,,,456.5910000181175,response,,,,99,,,,,,Space,keypress(Space),,,,,,,,---- -- ----- -- ------ - ------- --- ----------<br>------------- ------ ------ ---- ---- ------- ----- -- your<br>-------- ------- -- ---------- --- - --- ----- ----- ----<br>---- --- --- ----- --- ---- ---- ------- ----- ---- -------<br>--- --- -- ----- -- --- ---- -- --- ---- -- ------ ------<br>--- ----- -- ----,168948.18499998655,168947.4400000181,168474.189,168476.37500002747,168490.849,168957.753,,17,your
screen,html.Screen,1_1_0_1_18,2021-03-25T01:45:31.979Z,,,,,,,,,,,,,,,,53,,,,,,,,,,,,,,445.64200003028964,response,,,,99,,,,,,Space,keypress(Space),,,,,,,,---- -- ----- -- ------ - ------- --- ----------<br>------------- ------ ------ ---- ---- ------- ----- -- ----<br>romantic ------- -- ---------- --- - --- ----- ----- ----<br>---- --- --- ----- --- ---- ---- ------- ----- ---- -------<br>--- --- -- ----- -- --- ---- -- --- ---- -- ------ ------<br>--- ----- -- ----,169404.1900000302,169403.3950000303,168941.131,168948.42000002973,168957.753,169408.09,,18,romantic
screen,html.Screen,1_1_0_1_19,2021-03-25T01:45:32.459Z,,,,,,,,,,,,,,,,53,,,,,,,,,,,,,,475.25000000032014,response,,,,99,,,,,,Space,keypress(Space),,,,,,,,---- -- ----- -- ------ - ------- --- ----------<br>------------- ------ ------ ---- ---- ------- ----- -- ----<br>-------- partner -- ---------- --- - --- ----- ----- ----<br>---- --- --- ----- --- ---- ---- ------- ----- ---- -------<br>--- --- -- ----- -- --- ---- -- --- ---- -- ------ ------<br>--- ----- -- ----,169884.07000002917,169883.34000000032,169391.433,169404.42000003532,169408.09,169891.646,,19,partner
screen,html.Screen,1_1_0_1_20,2021-03-25T01:45:32.955Z,,,,,,,,,,,,,,,,53,,,,,,,,,,,,,,487.6339999937336,response,,,,99,,,,,,Space,keypress(Space),,,,,,,,---- -- ----- -- ------ - ------- --- ----------<br>------------- ------ ------ ---- ---- ------- ----- -- ----<br>-------- ------- is ---------- --- - --- ----- ----- ----<br>---- --- --- ----- --- ---- ---- ------- ----- ---- -------<br>--- --- -- ----- -- --- ---- -- --- ---- -- ------ ------<br>--- ----- -- ----,170380.11999998707,170379.27999999374,169875.133,169884.30000003427,169891.646,170392.012,,20,is
screen,html.Screen,1_1_0_1_21,2021-03-25T01:45:33.483Z,,,,,,,,,,,,,,,,53,,,,,,,,,,,,,,515.1229999867501,response,,,,99,,,,,,Space,keypress(Space),,,,,,,,---- -- ----- -- ------ - ------- --- ----------<br>------------- ------ ------ ---- ---- ------- ----- -- ----<br>-------- ------- -- paramount. --- - --- ----- ----- ----<br>---- --- --- ----- --- ---- ---- ------- ----- ---- -------<br>--- --- -- ----- -- --- ---- -- --- ---- -- ------ ------<br>--- ----- -- ----,170907.95000002254,170907.13499998674,170375.468,170380.34999999218,170392.012,170925.756,,21,paramount.
screen,html.Screen,1_1_0_1_22,2021-03-25T01:45:34.051Z,,,,,,,,,,,,,,,,53,,,,,,,,,,,,,,549.3240000038058,response,,,,99,,,,,,Space,keypress(Space),,,,,,,,---- -- ----- -- ------ - ------- --- ----------<br>------------- ------ ------ ---- ---- ------- ----- -- ----<br>-------- ------- -- ---------- But - --- ----- ----- ----<br>---- --- --- ----- --- ---- ---- ------- ----- ---- -------<br>--- --- -- ----- -- --- ---- -- --- ---- -- ------ ------<br>--- ----- -- ----,171475.87000002386,171475.0800000038,170892.47,170908.1850000075,170925.756,171492.822,,22,But
screen,html.Screen,1_1_0_1_23,2021-03-25T01:45:34.547Z,,,,,,,,,,,,,,,,53,,,,,,,,,,,,,,478.1279999880935,response,,,,99,,,,,,Space,keypress(Space),,,,,,,,---- -- ----- -- ------ - ------- --- ----------<br>------------- ------ ------ ---- ---- ------- ----- -- ----<br>-------- ------- -- ---------- --- a --- ----- ----- ----<br>---- --- --- ----- --- ---- ---- ------- ----- ---- -------<br>--- --- -- ----- -- --- ---- -- --- ---- -- ------ ------<br>--- ----- -- ----,171971.69500001473,171970.94999998808,171476.184,171476.0949999909,171492.822,171976.405,,23,a
screen,html.Screen,1_1_0_1_24,2021-03-25T01:45:35.042Z,,,,,,,,,,,,,,,,53,,,,,,,,,,,,,,490.4750000217755,response,,,,99,,,,,,Space,keypress(Space),,,,,,,,---- -- ----- -- ------ - ------- --- ----------<br>------------- ------ ------ ---- ---- ------- ----- -- ----<br>-------- ------- -- ---------- --- - new ----- ----- ----<br>---- --- --- ----- --- ---- ---- ------- ----- ---- -------<br>--- --- -- ----- -- --- ---- -- --- ---- -- ------ ------<br>--- ----- -- ----,172467.63500000816,172466.88000002177,171959.769,171971.92500001984,171976.405,172476.774,,24,new
screen,html.Screen,1_1_0_1_25,2021-03-25T01:45:35.530Z,,,,,,,,,,,,,,,,53,,,,,,,,,,,,,,478.02100002692896,response,,,,99,,,,,,Space,keypress(Space),,,,,,,,---- -- ----- -- ------ - ------- --- ----------<br>------------- ------ ------ ---- ---- ------- ----- -- ----<br>-------- ------- -- ---------- --- - --- study ----- ----<br>---- --- --- ----- --- ---- ---- ------- ----- ---- -------<br>--- --- -- ----- -- --- ---- -- --- ---- -- ------ ------<br>--- ----- -- ----,172955.56999999098,172954.79500002693,172460.156,172467.8600000334,172476.774,172960.426,,25,study
screen,html.Screen,1_1_0_1_26,2021-03-25T01:45:36.122Z,,,,,,,,,,,,,,,,53,,,,,,,,,,,,,,586.4140000245243,response,,,,99,,,,,,Space,keypress(Space),,,,,,,,---- -- ----- -- ------ - ------- --- ----------<br>------------- ------ ------ ---- ---- ------- ----- -- ----<br>-------- ------- -- ---------- --- - --- ----- finds ----<br>---- --- --- ----- --- ---- ---- ------- ----- ---- -------<br>--- --- -- ----- -- --- ---- -- --- ---- -- ------ ------<br>--- ----- -- ----,173547.55499999737,173546.84000002453,172943.803,172955.7999999961,172960.426,173560.809,,26,finds
screen,html.Screen,1_1_0_1_27,2021-03-25T01:45:36.795Z,,,,,,,,,,,,,,,,53,,,,,,,,,,,,,,658.526000030688,response,,,,99,,,,,,Space,keypress(Space),,,,,,,,---- -- ----- -- ------ - ------- --- ----------<br>------------- ------ ------ ---- ---- ------- ----- -- ----<br>-------- ------- -- ---------- --- - --- ----- ----- that<br>---- --- --- ----- --- ---- ---- ------- ----- ---- -------<br>--- --- -- ----- -- --- ---- -- --- ---- -- ------ ------<br>--- ----- -- ----,174220.09499999695,174219.3350000307,173544.212,173547.78999998234,173560.809,174227.822,,27,that
screen,html.Screen,1_1_0_1_28,2021-03-25T01:45:37.514Z,,,,,,,,,,,,,,,,53,,,,,,,,,,,,,,710.6030000002938,response,,,,99,,,,,,Space,keypress(Space),,,,,,,,---- -- ----- -- ------ - ------- --- ----------<br>------------- ------ ------ ---- ---- ------- ----- -- ----<br>-------- ------- -- ---------- --- - --- ----- ----- ----<br>it's --- --- ----- --- ---- ---- ------- ----- ---- -------<br>--- --- -- ----- -- --- ---- -- --- ---- -- ------ ------<br>--- ----- -- ----,174939.22499998007,174938.42500000028,174211.332,174220.32000002218,174227.822,174944.964,,28,it's
screen,html.Screen,1_1_0_1_29,2021-03-25T01:45:38.090Z,,,,,,,,,,,,,,,,53,,,,,,,,,,,,,,569.5410000282864,response,,,,99,,,,,,Space,keypress(Space),,,,,,,,---- -- ----- -- ------ - ------- --- ----------<br>------------- ------ ------ ---- ---- ------- ----- -- ----<br>-------- ------- -- ---------- --- - --- ----- ----- ----<br>---- not --- ----- --- ---- ---- ------- ----- ---- -------<br>--- --- -- ----- -- --- ---- -- --- ---- -- ------ ------<br>--- ----- -- ----,175515.27999999234,175514.5050000283,174928.476,174939.45499998517,174944.964,175528.763,,29,not
screen,html.Screen,1_1_0_1_30,2021-03-25T01:45:38.723Z,,,,,,,,,,,,,,,,53,,,,,,,,,,,,,,618.4320000268344,response,,,,99,,,,,,Space,keypress(Space),,,,,,,,---- -- ----- -- ------ - ------- --- ----------<br>------------- ------ ------ ---- ---- ------- ----- -- ----<br>-------- ------- -- ---------- --- - --- ----- ----- ----<br>---- --- how ----- --- ---- ---- ------- ----- ---- -------<br>--- --- -- ----- -- --- ---- -- --- ---- -- ------ ------<br>--- ----- -- ----,176147.90999999968,176147.19500002684,175512.169,175515.50500001758,175528.763,176162.496,,30,how
screen,html.Screen,1_1_0_1_31,2021-03-25T01:45:39.290Z,,,,,,,,,,,,,,,,53,,,,,,,,,,,,,,551.7589999989432,response,,,,99,,,,,,Space,keypress(Space),,,,,,,,---- -- ----- -- ------ - ------- --- ----------<br>------------- ------ ------ ---- ---- ------- ----- -- ----<br>-------- ------- -- ---------- --- - --- ----- ----- ----<br>---- --- --- close --- ---- ---- ------- ----- ---- -------<br>--- --- -- ----- -- --- ---- -- --- ---- -- ------ ------<br>--- ----- -- ----,176715.0150000234,176714.25499999896,176145.927,176148.13500002492,176162.496,176729.639,,31,close
screen,html.Screen,1_1_0_1_32,2021-03-25T01:45:39.858Z,,,,,,,,,,,,,,,,53,,,,,,,,,,,,,,552.5509999980859,response,,,,99,,,,,,Space,keypress(Space),,,,,,,,---- -- ----- -- ------ - ------- --- ----------<br>------------- ------ ------ ---- ---- ------- ----- -- ----<br>-------- ------- -- ---------- --- - --- ----- ----- ----<br>---- --- --- ----- you ---- ---- ------- ----- ---- -------<br>--- --- -- ----- -- --- ---- -- --- ---- -- ------ ------<br>--- ----- -- ----,177282.984999998,177282.18999999808,176712.954,176715.24500002852,176729.639,177296.641,,32,you
screen,html.Screen,1_1_0_1_33,2021-03-25T01:45:40.386Z,,,,,,,,,,,,,,,,53,,,,,,,,,,,,,,513.5489999892307,response,,,,99,,,,,,Space,keypress(Space),,,,,,,,---- -- ----- -- ------ - ------- --- ----------<br>------------- ------ ------ ---- ---- ------- ----- -- ----<br>-------- ------- -- ---------- --- - --- ----- ----- ----<br>---- --- --- ----- --- feel ---- ------- ----- ---- -------<br>--- --- -- ----- -- --- ---- -- --- ---- -- ------ ------<br>--- ----- -- ----,177811.04499998037,177810.18999998923,177279.997,177283.21999998298,177296.641,177813.616,,33,feel
screen,html.Screen,1_1_0_1_34,2021-03-25T01:45:40.930Z,,,,,,,,,,,,,,,,53,,,,,,,,,,,,,,540.359000034543,response,,,,99,,,,,,Space,keypress(Space),,,,,,,,---- -- ----- -- ------ - ------- --- ----------<br>------------- ------ ------ ---- ---- ------- ----- -- ----<br>-------- ------- -- ---------- --- - --- ----- ----- ----<br>---- --- --- ----- --- ---- that ------- ----- ---- -------<br>--- --- -- ----- -- --- ---- -- --- ---- -- ------ ------<br>--- ----- -- ----,178354.76000001654,178353.97500003455,177796.973,177811.28000002354,177813.616,178363.961,,34,that
screen,html.Screen,1_1_0_1_35,2021-03-25T01:45:41.466Z,,,,,,,,,,,,,,,,53,,,,,,,,,,,,,,525.9490000271471,response,,,,99,,,,,,Space,keypress(Space),,,,,,,,---- -- ----- -- ------ - ------- --- ----------<br>------------- ------ ------ ---- ---- ------- ----- -- ----<br>-------- ------- -- ---------- --- - --- ----- ----- ----<br>---- --- --- ----- --- ---- ---- matters ----- ---- -------<br>--- --- -- ----- -- --- ---- -- --- ---- -- ------ ------<br>--- ----- -- ----,178890.6699999934,178889.91000002716,178347.368,178354.98499998357,178363.961,178897.623,,35,matters
screen,html.Screen,1_1_0_1_36,2021-03-25T01:45:42.025Z,,,,,,,,,,,,,,,,53,,,,,,,,,,,,,,552.2420000314305,response,,,,99,,,,,,Space,keypress(Space),,,,,,,,"---- -- ----- -- ------ - ------- --- ----------<br>------------- ------ ------ ---- ---- ------- ----- -- ----<br>-------- ------- -- ---------- --- - --- ----- ----- ----<br>---- --- --- ----- --- ---- ---- ------- most, ---- -------<br>--- --- -- ----- -- --- ---- -- --- ---- -- ------ ------<br>--- ----- -- ----",179450.6350000156,179449.86500003142,178881.043,178890.90500003658,178897.623,179464.73,,36,"most,"
screen,html.Screen,1_1_0_1_37,2021-03-25T01:45:42.537Z,,,,,,,,,,,,,,,,53,,,,,,,,,,,,,,496.9849999830767,response,,,,99,,,,,,Space,keypress(Space),,,,,,,,---- -- ----- -- ------ - ------- --- ----------<br>------------- ------ ------ ---- ---- ------- ----- -- ----<br>-------- ------- -- ---------- --- - --- ----- ----- ----<br>---- --- --- ----- --- ---- ---- ------- ----- it's -------<br>--- --- -- ----- -- --- ---- -- --- ---- -- ------ ------<br>--- ----- -- ----,179962.46000000974,179961.7149999831,179448.089,179450.85500000278,179464.73,179965.025,,37,it's
screen,html.Screen,1_1_0_1_38,2021-03-25T01:45:43.097Z,,,,,,,,,,,,,,,,53,,,,,,,,,,,,,,556.555000000546,response,,,,99,,,,,,Space,keypress(Space),,,,,,,,---- -- ----- -- ------ - ------- --- ----------<br>------------- ------ ------ ---- ---- ------- ----- -- ----<br>-------- ------- -- ---------- --- - --- ----- ----- ----<br>---- --- --- ----- --- ---- ---- ------- ----- ---- whether<br>--- --- -- ----- -- --- ---- -- --- ---- -- ------ ------<br>--- ----- -- ----,180522.27000001585,180521.58000000054,179948.406,179962.69000001485,179965.025,180532.02,,38,whether
screen,html.Screen,1_1_0_1_39,2021-03-25T01:45:43.585Z,,,,,,,,,,,,,,,,53,,,,,,,,,,,,,,477.49499998337706,response,,,,99,,,,,,Space,keypress(Space),,,,,,,,---- -- ----- -- ------ - ------- --- ----------<br>------------- ------ ------ ---- ---- ------- ----- -- ----<br>-------- ------- -- ---------- --- - --- ----- ----- ----<br>---- --- --- ----- --- ---- ---- ------- ----- ---- -------<br>you --- -- ----- -- --- ---- -- --- ---- -- ------ ------<br>--- ----- -- ----,181010.27500000782,181009.51499998337,180515.455,180522.48500002315,180532.02,181015.589,,39,you
screen,html.Screen,1_1_0_1_40,2021-03-25T01:45:44.073Z,,,,,,,,,,,,,,,,53,,,,,,,,,,,,,,482.0110000024142,response,,,,99,,,,,,Space,keypress(Space),,,,,,,,---- -- ----- -- ------ - ------- --- ----------<br>------------- ------ ------ ---- ---- ------- ----- -- ----<br>-------- ------- -- ---------- --- - --- ----- ----- ----<br>---- --- --- ----- --- ---- ---- ------- ----- ---- -------<br>--- are -- ----- -- --- ---- -- --- ---- -- ------ ------<br>--- ----- -- ----,181498.43000003602,181497.60000000242,180999.094,181010.494999995,181015.589,181516.047,,40,are
screen,html.Screen,1_1_0_1_41,2021-03-25T01:45:44.585Z,,,,,,,,,,,,,,,,53,,,,,,,,,,,,,,493.36299999876064,response,,,,99,,,,,,Space,keypress(Space),,,,,,,,---- -- ----- -- ------ - ------- --- ----------<br>------------- ------ ------ ---- ---- ------- ----- -- ----<br>-------- ------- -- ---------- --- - --- ----- ----- ----<br>---- --- --- ----- --- ---- ---- ------- ----- ---- -------<br>--- --- as ----- -- --- ---- -- --- ---- -- ------ ------<br>--- ----- -- ----,182010.20499999868,182009.40999999875,181482.743,181498.65500000305,181516.047,182016.217,,41,as
screen,html.Screen,1_1_0_1_42,2021-03-25T01:45:45.081Z,,,,,,,,,,,,,,,,53,,,,,,,,,,,,,,489.15800000791205,response,,,,99,,,,,,Space,keypress(Space),,,,,,,,---- -- ----- -- ------ - ------- --- ----------<br>------------- ------ ------ ---- ---- ------- ----- -- ----<br>-------- ------- -- ---------- --- - --- ----- ----- ----<br>---- --- --- ----- --- ---- ---- ------- ----- ---- -------<br>--- --- -- close -- --- ---- -- --- ---- -- ------ ------<br>--- ----- -- ----,182506.1449999921,182505.37500000792,181999.751,182010.43500000378,182016.217,182516.689,,42,close
screen,html.Screen,1_1_0_1_43,2021-03-25T01:45:45.617Z,,,,,,,,,,,,,,,,53,,,,,,,,,,,,,,524.5809999869671,response,,,,99,,,,,,Space,keypress(Space),,,,,,,,---- -- ----- -- ------ - ------- --- ----------<br>------------- ------ ------ ---- ---- ------- ----- -- ----<br>-------- ------- -- ---------- --- - --- ----- ----- ----<br>---- --- --- ----- --- ---- ---- ------- ----- ---- -------<br>--- --- -- ----- as --- ---- -- --- ---- -- ------ ------<br>--- ----- -- ----,183042.0349999913,183041.26999998698,182500.081,182506.3749999972,182516.689,183050.375,,43,as
screen,html.Screen,1_1_0_1_44,2021-03-25T01:45:46.089Z,,,,,,,,,,,,,,,,53,,,,,,,,,,,,,,462.76000001560897,response,,,,99,,,,,,Space,keypress(Space),,,,,,,,---- -- ----- -- ------ - ------- --- ----------<br>------------- ------ ------ ---- ---- ------- ----- -- ----<br>-------- ------- -- ---------- --- - --- ----- ----- ----<br>---- --- --- ----- --- ---- ---- ------- ----- ---- -------<br>--- --- -- ----- -- you ---- -- --- ---- -- ------ ------<br>--- ----- -- ----,183513.89499998186,183513.1350000156,183033.773,183042.26000001654,183050.375,183517.358,,44,you
screen,html.Screen,1_1_0_1_45,2021-03-25T01:45:46.625Z,,,,,,,,,,,,,,,,53,,,,,,,,,,,,,,531.7169999880716,response,,,,99,,,,,,Space,keypress(Space),,,,,,,,---- -- ----- -- ------ - ------- --- ----------<br>------------- ------ ------ ---- ---- ------- ----- -- ----<br>-------- ------- -- ---------- --- - --- ----- ----- ----<br>---- --- --- ----- --- ---- ---- ------- ----- ---- -------<br>--- --- -- ----- -- --- want -- --- ---- -- ------ ------<br>--- ----- -- ----,184049.869999988,184049.07499998808,183500.735,183514.1200000071,183517.358,184067.726,,45,want
screen,html.Screen,1_1_0_1_46,2021-03-25T01:45:47.106Z,,,,,,,,,,,,,,,,53,,,,,,,,,,,,,,462.1790000030596,response,,,,99,,,,,,Space,keypress(Space),,,,,,,,---- -- ----- -- ------ - ------- --- ----------<br>------------- ------ ------ ---- ---- ------- ----- -- ----<br>-------- ------- -- ---------- --- - --- ----- ----- ----<br>---- --- --- ----- --- ---- ---- ------- ----- ---- -------<br>--- --- -- ----- -- --- ---- to --- ---- -- ------ ------<br>--- ----- -- ----,184530.6800000253,184529.90500000305,184034.428,184050.10500003118,184067.726,184534.696,,46,to
screen,html.Screen,1_1_0_1_47,2021-03-25T01:45:47.641Z,,,,,,,,,,,,,,,,53,,,,,,,,,,,,,,530.2189999953844,response,,,,99,,,,,,Space,keypress(Space),,,,,,,,"---- -- ----- -- ------ - ------- --- ----------<br>------------- ------ ------ ---- ---- ------- ----- -- ----<br>-------- ------- -- ---------- --- - --- ----- ----- ----<br>---- --- --- ----- --- ---- ---- ------- ----- ---- -------<br>--- --- -- ----- -- --- ---- -- be, ---- -- ------ ------<br>--- ----- -- ----",185065.67500001984,185064.91499999538,184518.073,184530.90499999234,184534.696,185068.336,,47,"be,"
screen,html.Screen,1_1_0_1_48,2021-03-25T01:45:48.217Z,,,,,,,,,,,,,,,,53,,,,,,,,,,,,,,572.5740000164369,response,,,,99,,,,,,Space,keypress(Space),,,,,,,,---- -- ----- -- ------ - ------- --- ----------<br>------------- ------ ------ ---- ---- ------- ----- -- ----<br>-------- ------- -- ---------- --- - --- ----- ----- ----<br>---- --- --- ----- --- ---- ---- ------- ----- ---- -------<br>--- --- -- ----- -- --- ---- -- --- even -- ------ ------<br>--- ----- -- ----,185641.70500001637,185640.91000001645,185051.767,185065.89999998687,185068.336,185652.09,,48,even
screen,html.Screen,1_1_0_1_49,2021-03-25T01:45:48.696Z,,,,,,,,,,,,,,,,53,,,,,,,,,,,,,,468.6150000084599,response,,,,99,,,,,,Space,keypress(Space),,,,,,,,---- -- ----- -- ------ - ------- --- ----------<br>------------- ------ ------ ---- ---- ------- ----- -- ----<br>-------- ------- -- ---------- --- - --- ----- ----- ----<br>---- --- --- ----- --- ---- ---- ------- ----- ---- -------<br>--- --- -- ----- -- --- ---- -- --- ---- if ------ ------<br>--- ----- -- ----,186121.49500002852,186120.70500000846,185635.487,185641.92500000354,185652.09,186135.792,,49,if
screen,html.Screen,1_1_0_1_50,2021-03-25T01:45:49.192Z,,,,,,,,,,,,,,,,53,,,,,,,,,,,,,,480.8030000286235,response,,,,99,,,,,,Space,keypress(Space),,,,,,,,---- -- ----- -- ------ - ------- --- ----------<br>------------- ------ ------ ---- ---- ------- ----- -- ----<br>-------- ------- -- ---------- --- - --- ----- ----- ----<br>---- --- --- ----- --- ---- ---- ------- ----- ---- -------<br>--- --- -- ----- -- --- ---- -- --- ---- -- that's ------<br>--- ----- -- ----,186617.36999999266,186616.5950000286,186119.127,186121.71999999555,186135.792,186619.358,,50,that's
screen,html.Screen,1_1_0_1_51,2021-03-25T01:45:49.752Z,,,,,,,,,,,,,,,,53,,,,,,,,,,,,,,557.2469999860041,response,,,,99,,,,,,Space,keypress(Space),,,,,,,,---- -- ----- -- ------ - ------- --- ----------<br>------------- ------ ------ ---- ---- ------- ----- -- ----<br>-------- ------- -- ---------- --- - --- ----- ----- ----<br>---- --- --- ----- --- ---- ---- ------- ----- ---- -------<br>--- --- -- ----- -- --- ---- -- --- ---- -- ------ really<br>--- ----- -- ----,187177.3450000328,187176.604999986,186602.777,186617.58499999996,186619.358,187186.409,,51,really
screen,html.Screen,1_1_0_1_52,2021-03-25T01:45:50.256Z,,,,,,,,,,,,,,,,53,,,,,,,,,,,,,,494.1460000280931,response,,,,99,,,,,,Space,keypress(Space),,,,,,,,---- -- ----- -- ------ - ------- --- ----------<br>------------- ------ ------ ---- ---- ------- ----- -- ----<br>-------- ------- -- ---------- --- - --- ----- ----- ----<br>---- --- --- ----- --- ---- ---- ------- ----- ---- -------<br>--- --- -- ----- -- --- ---- -- --- ---- -- ------ ------<br>not ----- -- ----,187681.3250000123,187680.5550000281,187169.819,187177.56999999983,187186.409,187686.73,,52,not
screen,html.Screen,1_1_0_1_53,2021-03-25T01:45:50.704Z,,,,,,,,,,,,,,,,53,,,,,,,,,,,,,,441.79000002748217,response,,,,99,,,,,,Space,keypress(Space),,,,,,,,---- -- ----- -- ------ - ------- --- ----------<br>------------- ------ ------ ---- ---- ------- ----- -- ----<br>-------- ------- -- ---------- --- - --- ----- ----- ----<br>---- --- --- ----- --- ---- ---- ------- ----- ---- -------<br>--- --- -- ----- -- --- ---- -- --- ---- -- ------ ------<br>--- close -- ----,188129.3650000007,188128.5200000275,187670.145,187681.54999997932,187686.73,188136.971,,53,close
screen,html.Screen,1_1_0_1_54,2021-03-25T01:45:51.184Z,,,,,,,,,,,,,,,,53,,,,,,,,,,,,,,471.45900002206326,response,,,,99,,,,,,Space,keypress(Space),,,,,,,,---- -- ----- -- ------ - ------- --- ----------<br>------------- ------ ------ ---- ---- ------- ----- -- ----<br>-------- ------- -- ---------- --- - --- ----- ----- ----<br>---- --- --- ----- --- ---- ---- ------- ----- ---- -------<br>--- --- -- ----- -- --- ---- -- --- ---- -- ------ ------<br>--- ----- at ----,188609.18500000844,188608.43000002205,188120.448,188129.5950000058,188136.971,188620.709,,54,at
screen,html.Screen,1_1_0_1_55,2021-03-25T01:45:51.776Z,,,,,,,,,,,,,,,,53,,,,,,,,,,,,,,579.6610000350338,response,,,,99,,,,,,Space,keypress(Space),,,,,,,,---- -- ----- -- ------ - ------- --- ----------<br>------------- ------ ------ ---- ---- ------- ----- -- ----<br>-------- ------- -- ---------- --- - --- ----- ----- ----<br>---- --- --- ----- --- ---- ---- ------- ----- ---- -------<br>--- --- -- ----- -- --- ---- -- --- ---- -- ------ ------<br>--- ----- -- all.,189201.17000001483,189200.37000003504,188604.089,188609.41000003368,188620.709,189221.111,,55,all.
Item 99,flow.Loop,1_1_0_1,2021-03-25T01:45:51.776Z,,,,,,,,,,,,,,,,,,,,,,,,,,,,,,28114.41600003504,completion,,,,,A,,,,,,,,,,silence,,,,,189201.64500002284,189200.37000003504,161052.599,161053.59999998473,161085.954,189221.111,,,
Question 1,html.Screen,1_1_0_2,2021-03-25T01:46:03.742Z,,,,,,,,,,,,,,,,,,,,,,,,,,,true,FALSE,,11945.083999997965,response,,,,99,A,,,,,FALSE,click #choice-2,,,,silence,,,,,201166.99500003597,201166.19499999797,189187.825,189201.84500003234,189221.111,201178.839,,,
Question 2,html.Screen,1_1_0_3,2021-03-25T01:46:07.485Z,,,,,,,,,,,,,,,,,,,,,,,,,,,true,TRUE,,3730.6809999865072,response,,,,99,A,,,,,TRUE,click #choice-1,,,,silence,,,,,204910.15499999048,204909.5199999865,201162.294,201167.15500003193,201178.839,204914.714,,,
Item 99,flow.Sequence,1_1_0,2021-03-25T01:46:07.485Z,,,,,,,,,,,,,,,,,,,,,,,,,,,,,,50844.855999986525,completion,,,,,,,,,,,,,,,,,,,,204910.35000002012,204909.5199999865,154048.01,154057.83499998506,154064.664,204914.714,,,
Holding screen,html.Screen,1_1_1_0,2021-03-25T01:46:14.478Z,,,,,,,,,,,,,,,,,,,,,,,,,,,,,,7004.619000000006,timeout,,,,,,,,,,,,,,,,,,,,211903.37000001455,211902.665,204898.08,204910.4749999824,204914.714,211919.333,,,
screen,html.Screen,1_1_1_1_0,2021-03-25T01:46:15.493Z,,,,,,,,,,,,,,,,54,,,,,,,,,,,,,,998.121999987954,response,,,,100,,,,,,Space,keypress(Space),,,,,,,,At --- ---- --- ------ ----- ------- ---- -- --- ------- --<br>------- ---------- ------ -- ----- -- ----- -- ---- ------<br>--- ----- --- --- ------ -------- ----- --- ------ ----- --<br>----- ----- ---------- --- --- ------ ------ ---- -- ------<br>------- --- ------ ----- --- ---- ------- -- ---- --- --<br>------- ------,212918.2349999901,212917.45499998797,211902.665,211903.66499999072,211919.333,212919.919,,0,At
screen,html.Screen,1_1_1_1_1,2021-03-25T01:46:16.276Z,,,,,,,,,,,,,,,,54,,,,,,,,,,,,,,780.6410000266042,response,,,,100,,,,,,Space,keypress(Space),,,,,,,,-- the ---- --- ------ ----- ------- ---- -- --- ------- --<br>------- ---------- ------ -- ----- -- ----- -- ---- ------<br>--- ----- --- --- ------ -------- ----- --- ------ ----- --<br>----- ----- ---------- --- --- ------ ------ ---- -- ------<br>------- --- ------ ----- --- ---- ------- -- ---- --- --<br>------- ------,213701.3600000064,213700.5600000266,212903.459,212918.47500001313,212919.919,213703.863,,1,the
screen,html.Screen,1_1_1_1_2,2021-03-25T01:46:16.876Z,,,,,,,,,,,,,,,,54,,,,,,,,,,,,,,596.5620000230847,response,,,,100,,,,,,Space,keypress(Space),,,,,,,,-- --- time --- ------ ----- ------- ---- -- --- ------- --<br>------- ---------- ------ -- ----- -- ----- -- ---- ------<br>--- ----- --- --- ------ -------- ----- --- ------ ----- --<br>----- ----- ---------- --- --- ------ ------ ---- -- ------<br>------- --- ------ ----- --- ---- ------- -- ---- --- --<br>------- ------,214301.18499998935,214300.4250000231,213687.277,213701.59499999136,213703.863,214304.247,,2,time
screen,html.Screen,1_1_1_1_3,2021-03-25T01:46:17.396Z,,,,,,,,,,,,,,,,54,,,,,,,,,,,,,,516.1029999945022,response,,,,100,,,,,,Space,keypress(Space),,,,,,,,-- --- ---- the ------ ----- ------- ---- -- --- ------- --<br>------- ---------- ------ -- ----- -- ----- -- ---- ------<br>--- ----- --- --- ------ -------- ----- --- ------ ----- --<br>----- ----- ---------- --- --- ------ ------ ---- -- ------<br>------- --- ------ ----- --- ---- ------- -- ---- --- --<br>------- ------,214821.10000000102,214820.3499999945,214287.644,214301.39999999665,214304.247,214837.995,,3,the
screen,html.Screen,1_1_1_1_4,2021-03-25T01:46:18.132Z,,,,,,,,,,,,,,,,54,,,,,,,,,,,,,,718.2850000188919,response,,,,100,,,,,,Space,keypress(Space),,,,,,,,-- --- ---- --- French ----- ------- ---- -- --- ------- --<br>------- ---------- ------ -- ----- -- ----- -- ---- ------<br>--- ----- --- --- ------ -------- ----- --- ------ ----- --<br>----- ----- ---------- --- --- ------ ------ ---- -- ------<br>------- --- ------ ----- --- ---- ------- -- ---- --- --<br>------- ------,215557.0450000232,215556.2800000189,214821.316,214821.32500002626,214837.995,215571.793,,4,French
screen,html.Screen,1_1_1_1_5,2021-03-25T01:46:18.748Z,,,,,,,,,,,,,,,,54,,,,,,,,,,,,,,600.3469999805675,response,,,,100,,,,,,Space,keypress(Space),,,,,,,,-- --- ---- --- ------ crown ------- ---- -- --- ------- --<br>------- ---------- ------ -- ----- -- ----- -- ---- ------<br>--- ----- --- --- ------ -------- ----- --- ------ ----- --<br>----- ----- ---------- --- --- ------ ------ ---- -- ------<br>------- --- ------ ----- --- ---- ------- -- ---- --- --<br>------- ------,216172.89500002516,216172.13999998057,215555.161,215557.2750000283,215571.793,216188.861,,5,crown
screen,html.Screen,1_1_1_1_6,2021-03-25T01:46:19.204Z,,,,,,,,,,,,,,,,54,,,,,,,,,,,,,,439.16900002167677,response,,,,100,,,,,,Space,keypress(Space),,,,,,,,-- --- ---- --- ------ ----- secured ---- -- --- ------- --<br>------- ---------- ------ -- ----- -- ----- -- ---- ------<br>--- ----- --- --- ------ -------- ----- --- ------ ----- --<br>----- ----- ---------- --- --- ------ ------ ---- -- ------<br>------- --- ------ ----- --- ---- ------- -- ---- --- --<br>------- ------,216628.75999999233,216628.03000002168,216172.225,216173.1199999922,216188.861,216639.088,,6,secured
screen,html.Screen,1_1_1_1_7,2021-03-25T01:46:19.652Z,,,,,,,,,,,,,,,,54,,,,,,,,,,,,,,436.87700002547354,response,,,,100,,,,,,Space,keypress(Space),,,,,,,,-- --- ---- --- ------ ----- ------- much -- --- ------- --<br>------- ---------- ------ -- ----- -- ----- -- ---- ------<br>--- ----- --- --- ------ -------- ----- --- ------ ----- --<br>----- ----- ---------- --- --- ------ ------ ---- -- ------<br>------- --- ------ ----- --- ---- ------- -- ---- --- --<br>------- ------,217076.70500001404,217075.96500002546,216622.488,216628.97499999963,216639.088,217089.384,,7,much
screen,html.Screen,1_1_1_1_8,2021-03-25T01:46:20.348Z,,,,,,,,,,,,,,,,54,,,,,,,,,,,,,,682.6210000352876,response,,,,100,,,,,,Space,keypress(Space),,,,,,,,-- --- ---- --- ------ ----- ------- ---- of --- ------- --<br>------- ---------- ------ -- ----- -- ----- -- ---- ------<br>--- ----- --- --- ------ -------- ----- --- ------ ----- --<br>----- ----- ---------- --- --- ------ ------ ---- -- ------<br>------- --- ------ ----- --- ---- ------- -- ---- --- --<br>------- ------,217772.76500000153,217772.00500003528,217072.78,217076.91499998327,217089.384,217789.914,,8,of
screen,html.Screen,1_1_1_1_9,2021-03-25T01:46:20.756Z,,,,,,,,,,,,,,,,54,,,,,,,,,,,,,,389.93100003513973,response,,,,100,,,,,,Space,keypress(Space),,,,,,,,-- --- ---- --- ------ ----- ------- ---- -- its ------- --<br>------- ---------- ------ -- ----- -- ----- -- ---- ------<br>--- ----- --- --- ------ -------- ----- --- ------ ----- --<br>----- ----- ---------- --- --- ------ ------ ---- -- ------<br>------- --- ------ ----- --- ---- ------- -- ---- --- --<br>------- ------,218180.61999999918,218179.84500003513,217773.287,217772.99000002677,217789.914,218190.112,,9,its
screen,html.Screen,1_1_1_1_10,2021-03-25T01:46:21.268Z,,,,,,,,,,,,,,,,54,,,,,,,,,,,,,,502.1830000152986,response,,,,100,,,,,,Space,keypress(Space),,,,,,,,-- --- ---- --- ------ ----- ------- ---- -- --- revenue --<br>------- ---------- ------ -- ----- -- ----- -- ---- ------<br>--- ----- --- --- ------ -------- ----- --- ------ ----- --<br>----- ----- ---------- --- --- ------ ------ ---- -- ------<br>------- --- ------ ----- --- ---- ------- -- ---- --- --<br>------- ------,218693.00999998813,218692.2950000153,218173.463,218182.16000002576,218190.112,218707.127,,10,revenue
screen,html.Screen,1_1_1_1_11,2021-03-25T01:46:21.771Z,,,,,,,,,,,,,,,,54,,,,,,,,,,,,,,488.52799998861155,response,,,,100,,,,,,Space,keypress(Space),,,,,,,,-- --- ---- --- ------ ----- ------- ---- -- --- ------- by<br>------- ---------- ------ -- ----- -- ----- -- ---- ------<br>--- ----- --- --- ------ -------- ----- --- ------ ----- --<br>----- ----- ---------- --- --- ------ ------ ---- -- ------<br>------- --- ------ ----- --- ---- ------- -- ---- --- --<br>------- ------,219196.3950000354,219195.65499998862,218690.523,218693.22499999544,218707.127,219207.454,,11,by
screen,html.Screen,1_1_1_1_12,2021-03-25T01:46:22.315Z,,,,,,,,,,,,,,,,54,,,,,,,,,,,,,,532.1310000320955,response,,,,100,,,,,,Space,keypress(Space),,,,,,,,-- --- ---- --- ------ ----- ------- ---- -- --- ------- --<br>issuing ---------- ------ -- ----- -- ----- -- ---- ------<br>--- ----- --- --- ------ -------- ----- --- ------ ----- --<br>----- ----- ---------- --- --- ------ ------ ---- -- ------<br>------- --- ------ ----- --- ---- ------- -- ---- --- --<br>------- ------,219740.3349999804,219739.5850000321,219190.849,219196.6099999845,219207.454,219757.836,,12,issuing
screen,html.Screen,1_1_1_1_13,2021-03-25T01:46:22.843Z,,,,,,,,,,,,,,,,54,,,,,,,,,,,,,,509.64399998041335,response,,,,100,,,,,,Space,keypress(Space),,,,,,,,-- --- ---- --- ------ ----- ------- ---- -- --- ------- --<br>------- government ------ -- ----- -- ----- -- ---- ------<br>--- ----- --- --- ------ -------- ----- --- ------ ----- --<br>----- ----- ---------- --- --- ------ ------ ---- -- ------<br>------- --- ------ ----- --- ---- ------- -- ---- --- --<br>------- ------,220268.22500000708,220267.47999998042,219724.541,219740.55500002578,219757.836,220274.742,,13,government
screen,html.Screen,1_1_1_1_14,2021-03-25T01:46:23.371Z,,,,,,,,,,,,,,,,54,,,,,,,,,,,,,,520.7080000341812,response,,,,100,,,,,,Space,keypress(Space),,,,,,,,-- --- ---- --- ------ ----- ------- ---- -- --- ------- --<br>------- ---------- bonds. -- ----- -- ----- -- ---- ------<br>--- ----- --- --- ------ -------- ----- --- ------ ----- --<br>----- ----- ---------- --- --- ------ ------ ---- -- ------<br>------- --- ------ ----- --- ---- ------- -- ---- --- --<br>------- ------,220796.25000001397,220795.45000003418,220258.22,220268.44499999424,220274.742,220808.509,,14,bonds.
screen,html.Screen,1_1_1_1_15,2021-03-25T01:46:23.859Z,,,,,,,,,,,,,,,,54,,,,,,,,,,,,,,474.80600000786944,response,,,,100,,,,,,Space,keypress(Space),,,,,,,,-- --- ---- --- ------ ----- ------- ---- -- --- ------- --<br>------- ---------- ------ In ----- -- ----- -- ---- ------<br>--- ----- --- --- ------ -------- ----- --- ------ ----- --<br>----- ----- ---------- --- --- ------ ------ ---- -- ------<br>------- --- ------ ----- --- ---- ------- -- ---- --- --<br>------- ------,221284.05499999644,221283.31500000786,220791.909,220796.474999981,220808.509,221292.079,,15,In
screen,html.Screen,1_1_1_1_16,2021-03-25T01:46:24.331Z,,,,,,,,,,,,,,,,54,,,,,,,,,,,,,,463.20600002110587,response,,,,100,,,,,,Space,keypress(Space),,,,,,,,"-- --- ---- --- ------ ----- ------- ---- -- --- ------- --<br>------- ---------- ------ -- 1727, -- ----- -- ---- ------<br>--- ----- --- --- ------ -------- ----- --- ------ ----- --<br>----- ----- ---------- --- --- ------ ------ ---- -- ------<br>------- --- ------ ----- --- ---- ------- -- ---- --- --<br>------- ------",221756.05999998515,221755.2850000211,221275.558,221284.27000000374,221292.079,221759.143,,16,"1727,"
screen,html.Screen,1_1_1_1_17,2021-03-25T01:46:24.803Z,,,,,,,,,,,,,,,,54,,,,,,,,,,,,,,468.0120000295865,response,,,,100,,,,,,Space,keypress(Space),,,,,,,,-- --- ---- --- ------ ----- ------- ---- -- --- ------- --<br>------- ---------- ------ -- ----- in ----- -- ---- ------<br>--- ----- --- --- ------ -------- ----- --- ------ ----- --<br>----- ----- ---------- --- --- ------ ------ ---- -- ------<br>------- --- ------ ----- --- ---- ------- -- ---- --- --<br>------- ------,222227.8899999801,222227.1550000296,221742.521,221756.28000003053,221759.143,222242.834,,17,in
screen,html.Screen,1_1_1_1_18,2021-03-25T01:46:25.267Z,,,,,,,,,,,,,,,,54,,,,,,,,,,,,,,448.2360000007611,response,,,,100,,,,,,Space,keypress(Space),,,,,,,,-- --- ---- --- ------ ----- ------- ---- -- --- ------- --<br>------- ---------- ------ -- ----- -- order -- ---- ------<br>--- ----- --- --- ------ -------- ----- --- ------ ----- --<br>----- ----- ---------- --- --- ------ ------ ---- -- ------<br>------- --- ------ ----- --- ---- ------- -- ---- --- --<br>------- ------,222691.80500000948,222691.07000000076,222226.132,222228.1049999874,222242.834,222724.959,,18,order
screen,html.Screen,1_1_1_1_19,2021-03-25T01:46:25.764Z,,,,,,,,,,,,,,,,54,,,,,,,,,,,,,,462.79099998276797,response,,,,100,,,,,,Space,keypress(Space),,,,,,,,-- --- ---- --- ------ ----- ------- ---- -- --- ------- --<br>------- ---------- ------ -- ----- -- ----- to ---- ------<br>--- ----- --- --- ------ -------- ----- --- ------ ----- --<br>----- ----- ---------- --- --- ------ ------ ---- -- ------<br>------- --- ------ ----- --- ---- ------- -- ---- --- --<br>------- ------,223188.4699999937,223187.74999998277,222676.468,222692.02499999665,222724.959,223193.384,,19,to
screen,html.Screen,1_1_1_1_20,2021-03-25T01:46:26.187Z,,,,,,,,,,,,,,,,54,,,,,,,,,,,,,,417.676000024745,response,,,,100,,,,,,Space,keypress(Space),,,,,,,,-- --- ---- --- ------ ----- ------- ---- -- --- ------- --<br>------- ---------- ------ -- ----- -- ----- -- save ------<br>--- ----- --- --- ------ -------- ----- --- ------ ----- --<br>----- ----- ---------- --- --- ------ ------ ---- -- ------<br>------- --- ------ ----- --- ---- ------- -- ---- --- --<br>------- ------,223611.8499999866,223611.06000002474,223176.756,223188.67499998305,223193.384,223627.083,,20,save
screen,html.Screen,1_1_1_1_21,2021-03-25T01:46:26.619Z,,,,,,,,,,,,,,,,54,,,,,,,,,,,,,,415.8970000274421,response,,,,100,,,,,,Space,keypress(Space),,,,,,,,"-- --- ---- --- ------ ----- ------- ---- -- --- ------- --<br>------- ---------- ------ -- ----- -- ----- -- ---- money,<br>--- ----- --- --- ------ -------- ----- --- ------ ----- --<br>----- ----- ---------- --- --- ------ ------ ---- -- ------<br>------- --- ------ ----- --- ---- ------- -- ---- --- --<br>------- ------",224043.73500001384,224042.98000002746,223610.374,223612.07500001183,223627.083,224060.684,,21,"money,"
screen,html.Screen,1_1_1_1_22,2021-03-25T01:46:27.411Z,,,,,,,,,,,,,,,,54,,,,,,,,,,,,,,774.146000007051,response,,,,100,,,,,,Space,keypress(Space),,,,,,,,-- --- ---- --- ------ ----- ------- ---- -- --- ------- --<br>------- ---------- ------ -- ----- -- ----- -- ---- ------<br>the ----- --- --- ------ -------- ----- --- ------ ----- --<br>----- ----- ---------- --- --- ------ ------ ---- -- ------<br>------- --- ------ ----- --- ---- ------- -- ---- --- --<br>------- ------,224835.59500001138,224834.83000000706,224044.029,224043.955000001,224060.684,224844.484,,22,the
screen,html.Screen,1_1_1_1_23,2021-03-25T01:46:28.067Z,,,,,,,,,,,,,,,,54,,,,,,,,,,,,,,646.2310000217403,response,,,,100,,,,,,Space,keypress(Space),,,,,,,,-- --- ---- --- ------ ----- ------- ---- -- --- ------- --<br>------- ---------- ------ -- ----- -- ----- -- ---- ------<br>--- state --- --- ------ -------- ----- --- ------ ----- --<br>----- ----- ---------- --- --- ------ ------ ---- -- ------<br>------- --- ------ ----- --- ---- ------- -- ---- --- --<br>------- ------,225491.48000002606,225490.71500002174,224827.938,224835.81000001868,224844.484,225494.835,,23,state
screen,html.Screen,1_1_1_1_24,2021-03-25T01:46:28.642Z,,,,,,,,,,,,,,,,54,,,,,,,,,,,,,,571.7599999820522,response,,,,100,,,,,,Space,keypress(Space),,,,,,,,-- --- ---- --- ------ ----- ------- ---- -- --- ------- --<br>------- ---------- ------ -- ----- -- ----- -- ---- ------<br>--- ----- cut --- ------ -------- ----- --- ------ ----- --<br>----- ----- ---------- --- --- ------ ------ ---- -- ------<br>------- --- ------ ----- --- ---- ------- -- ---- --- --<br>------- ------,226067.37499998417,226066.59499998204,225478.334,225491.69500003336,225494.835,226078.643,,24,cut
screen,html.Screen,1_1_1_1_25,2021-03-25T01:46:29.226Z,,,,,,,,,,,,,,,,54,,,,,,,,,,,,,,571.9120000001567,response,,,,100,,,,,,Space,keypress(Space),,,,,,,,-- --- ---- --- ------ ----- ------- ---- -- --- ------- --<br>------- ---------- ------ -- ----- -- ----- -- ---- ------<br>--- ----- --- the ------ -------- ----- --- ------ ----- --<br>----- ----- ---------- --- --- ------ ------ ---- -- ------<br>------- --- ------ ----- --- ---- ------- -- ---- --- --<br>------- ------,226651.33000002243,226650.55500000017,226062.041,226067.58999999147,226078.643,226662.295,,25,the
screen,html.Screen,1_1_1_1_26,2021-03-25T01:46:30.074Z,,,,,,,,,,,,,,,,54,,,,,,,,,,,,,,836.1350000360108,response,,,,100,,,,,,Space,keypress(Space),,,,,,,,-- --- ---- --- ------ ----- ------- ---- -- --- ------- --<br>------- ---------- ------ -- ----- -- ----- -- ---- ------<br>--- ----- --- --- bonds' -------- ----- --- ------ ----- --<br>----- ----- ---------- --- --- ------ ------ ---- -- ------<br>------- --- ------ ----- --- ---- ------- -- ---- --- --<br>------- ------,227499.19499998214,227498.43000003602,226645.766,226651.54500002973,226662.295,227512.893,,26,bonds'
screen,html.Screen,1_1_1_1_27,2021-03-25T01:46:30.642Z,,,,,,,,,,,,,,,,54,,,,,,,,,,,,,,553.4020000259916,response,,,,100,,,,,,Space,keypress(Space),,,,,,,,-- --- ---- --- ------ ----- ------- ---- -- --- ------- --<br>------- ---------- ------ -- ----- -- ----- -- ---- ------<br>--- ----- --- --- ------ interest ----- --- ------ ----- --<br>----- ----- ---------- --- --- ------ ------ ---- -- ------<br>------- --- ------ ----- --- ---- ------- -- ---- --- --<br>------- ------,228067.04500003252,228066.295000026,227496.36,227499.40999998944,227512.893,228079.951,,27,interest
screen,html.Screen,1_1_1_1_28,2021-03-25T01:46:31.210Z,,,,,,,,,,,,,,,,54,,,,,,,,,,,,,,554.2090000159806,response,,,,100,,,,,,Space,keypress(Space),,,,,,,,-- --- ---- --- ------ ----- ------- ---- -- --- ------- --<br>------- ---------- ------ -- ----- -- ----- -- ---- ------<br>--- ----- --- --- ------ -------- rate. --- ------ ----- --<br>----- ----- ---------- --- --- ------ ------ ---- -- ------<br>------- --- ------ ----- --- ---- ------- -- ---- --- --<br>------- ------,228634.9550000159,228634.16000001598,228063.357,228068.58000002103,228079.951,228646.977,,28,rate.
screen,html.Screen,1_1_1_1_29,2021-03-25T01:46:31.818Z,,,,,,,,,,,,,,,,54,,,,,,,,,,,,,,595.0730000007316,response,,,,100,,,,,,Space,keypress(Space),,,,,,,,-- --- ---- --- ------ ----- ------- ---- -- --- ------- --<br>------- ---------- ------ -- ----- -- ----- -- ---- ------<br>--- ----- --- --- ------ -------- ----- The ------ ----- --<br>----- ----- ---------- --- --- ------ ------ ---- -- ------<br>------- --- ------ ----- --- ---- ------- -- ---- --- --<br>------- ------,229242.77499999152,229242.05000000075,228630.392,228635.16499998514,228646.977,229247.399,,29,The
screen,html.Screen,1_1_1_1_30,2021-03-25T01:46:32.346Z,,,,,,,,,,,,,,,,54,,,,,,,,,,,,,,522.6959999852988,response,,,,100,,,,,,Space,keypress(Space),,,,,,,,-- --- ---- --- ------ ----- ------- ---- -- --- ------- --<br>------- ---------- ------ -- ----- -- ----- -- ---- ------<br>--- ----- --- --- ------ -------- ----- --- market ----- --<br>----- ----- ---------- --- --- ------ ------ ---- -- ------<br>------- --- ------ ----- --- ---- ------- -- ---- --- --<br>------- ------,229770.88500000536,229770.0949999853,229230.797,229242.98999999883,229247.399,229781.096,,30,market
screen,html.Screen,1_1_1_1_31,2021-03-25T01:46:32.866Z,,,,,,,,,,,,,,,,54,,,,,,,,,,,,,,508.8940000193252,response,,,,100,,,,,,Space,keypress(Space),,,,,,,,-- --- ---- --- ------ ----- ------- ---- -- --- ------- --<br>------- ---------- ------ -- ----- -- ----- -- ---- ------<br>--- ----- --- --- ------ -------- ----- --- ------ value --<br>----- ----- ---------- --- --- ------ ------ ---- -- ------<br>------- --- ------ ----- --- ---- ------- -- ---- --- --<br>------- ------,230290.7750000013,230289.99000001932,229764.466,229771.11999999033,229781.096,230297.975,,31,value
screen,html.Screen,1_1_1_1_32,2021-03-25T01:46:33.498Z,,,,,,,,,,,,,,,,54,,,,,,,,,,,,,,623.9350000336708,response,,,,100,,,,,,Space,keypress(Space),,,,,,,,-- --- ---- --- ------ ----- ------- ---- -- --- ------- --<br>------- ---------- ------ -- ----- -- ----- -- ---- ------<br>--- ----- --- --- ------ -------- ----- --- ------ ----- of<br>----- ----- ---------- --- --- ------ ------ ---- -- ------<br>------- --- ------ ----- --- ---- ------- -- ---- --- --<br>------- ------,230922.6749999798,230921.91000003368,230281.441,230290.98500002874,230297.975,230931.825,,32,of
screen,html.Screen,1_1_1_1_33,2021-03-25T01:46:34.186Z,,,,,,,,,,,,,,,,54,,,,,,,,,,,,,,677.9449999809149,response,,,,100,,,,,,Space,keypress(Space),,,,,,,,-- --- ---- --- ------ ----- ------- ---- -- --- ------- --<br>------- ---------- ------ -- ----- -- ----- -- ---- ------<br>--- ----- --- --- ------ -------- ----- --- ------ ----- --<br>these ----- ---------- --- --- ------ ------ ---- -- ------<br>------- --- ------ ----- --- ---- ------- -- ---- --- --<br>------- ------,231610.51000002772,231609.76999998093,230915.253,230922.88000002736,230931.825,231615.582,,33,these
screen,html.Screen,1_1_1_1_34,2021-03-25T01:46:34.714Z,,,,,,,,,,,,,,,,54,,,,,,,,,,,,,,522.1030000233441,response,,,,100,,,,,,Space,keypress(Space),,,,,,,,-- --- ---- --- ------ ----- ------- ---- -- --- ------- --<br>------- ---------- ------ -- ----- -- ----- -- ---- ------<br>--- ----- --- --- ------ -------- ----- --- ------ ----- --<br>----- bonds ---------- --- --- ------ ------ ---- -- ------<br>------- --- ------ ----- --- ---- ------- -- ---- --- --<br>------- ------,232138.4599999874,232137.68500002334,231599.036,231610.71500001708,231615.582,232149.296,,34,bonds
screen,html.Screen,1_1_1_1_35,2021-03-25T01:46:35.353Z,,,,,,,,,,,,,,,,54,,,,,,,,,,,,,,628.2839999944845,response,,,,100,,,,,,Space,keypress(Space),,,,,,,,"-- --- ---- --- ------ ----- ------- ---- -- --- ------- --<br>------- ---------- ------ -- ----- -- ----- -- ---- ------<br>--- ----- --- --- ------ -------- ----- --- ------ ----- --<br>----- ----- plummeted, --- --- ------ ------ ---- -- ------<br>------- --- ------ ----- --- ---- ------- -- ---- --- --<br>------- ------",232778.3150000032,232777.5799999945,232132.678,232138.66500003496,232149.296,232783.071,,35,"plummeted,"
screen,html.Screen,1_1_1_1_36,2021-03-25T01:46:35.802Z,,,,,,,,,,,,,,,,54,,,,,,,,,,,,,,443.23400001833215,response,,,,100,,,,,,Space,keypress(Space),,,,,,,,-- --- ---- --- ------ ----- ------- ---- -- --- ------- --<br>------- ---------- ------ -- ----- -- ----- -- ---- ------<br>--- ----- --- --- ------ -------- ----- --- ------ ----- --<br>----- ----- ---------- and --- ------ ------ ---- -- ------<br>------- --- ------ ----- --- ---- ------- -- ---- --- --<br>------- ------,233227.04999998678,233226.30500001833,232766.457,232778.51999999257,232783.071,233233.257,,36,and
screen,html.Screen,1_1_1_1_37,2021-03-25T01:46:36.313Z,,,,,,,,,,,,,,,,54,,,,,,,,,,,,,,504.1429999835964,response,,,,100,,,,,,Space,keypress(Space),,,,,,,,-- --- ---- --- ------ ----- ------- ---- -- --- ------- --<br>------- ---------- ------ -- ----- -- ----- -- ---- ------<br>--- ----- --- --- ------ -------- ----- --- ------ ----- --<br>----- ----- ---------- --- the ------ ------ ---- -- ------<br>------- --- ------ ----- --- ---- ------- -- ---- --- --<br>------- ------,233738.13499999233,233737.3999999836,233216.728,233227.25500003435,233233.257,233750.332,,37,the
screen,html.Screen,1_1_1_1_38,2021-03-25T01:46:36.929Z,,,,,,,,,,,,,,,,54,,,,,,,,,,,,,,602.9729999969131,response,,,,100,,,,,,Space,keypress(Space),,,,,,,,-- --- ---- --- ------ ----- ------- ---- -- --- ------- --<br>------- ---------- ------ -- ----- -- ----- -- ---- ------<br>--- ----- --- --- ------ -------- ----- --- ------ ----- --<br>----- ----- ---------- --- --- market ------ ---- -- ------<br>------- --- ------ ----- --- ---- ------- -- ---- --- --<br>------- ------,234354.05500000343,234353.3049999969,233733.74,233738.3399999817,233750.332,234367.465,,38,market
screen,html.Screen,1_1_1_1_39,2021-03-25T01:46:37.689Z,,,,,,,,,,,,,,,,54,,,,,,,,,,,,,,745.5849999853817,response,,,,100,,,,,,Space,keypress(Space),,,,,,,,-- --- ---- --- ------ ----- ------- ---- -- --- ------- --<br>------- ---------- ------ -- ----- -- ----- -- ---- ------<br>--- ----- --- --- ------ -------- ----- --- ------ ----- --<br>----- ----- ---------- --- --- ------ became ---- -- ------<br>------- --- ------ ----- --- ---- ------- -- ---- --- --<br>------- ------,235113.70500002522,235113.04999998538,234350.774,234354.25500001293,234367.465,235117.918,,39,became
screen,html.Screen,1_1_1_1_40,2021-03-25T01:46:38.377Z,,,,,,,,,,,,,,,,54,,,,,,,,,,,,,,683.2519999915385,response,,,,100,,,,,,Space,keypress(Space),,,,,,,,-- --- ---- --- ------ ----- ------- ---- -- --- ------- --<br>------- ---------- ------ -- ----- -- ----- -- ---- ------<br>--- ----- --- --- ------ -------- ----- --- ------ ----- --<br>----- ----- ---------- --- --- ------ ------ wary -- ------<br>------- --- ------ ----- --- ---- ------- -- ---- --- --<br>------- ------,235801.9750000094,235801.16999999154,235101.357,235113.90500003472,235117.918,235818.422,,40,wary
screen,html.Screen,1_1_1_1_41,2021-03-25T01:46:38.817Z,,,,,,,,,,,,,,,,54,,,,,,,,,,,,,,422.5930000359949,response,,,,100,,,,,,Space,keypress(Space),,,,,,,,-- --- ---- --- ------ ----- ------- ---- -- --- ------- --<br>------- ---------- ------ -- ----- -- ----- -- ---- ------<br>--- ----- --- --- ------ -------- ----- --- ------ ----- --<br>----- ----- ---------- --- --- ------ ------ ---- of ------<br>------- --- ------ ----- --- ---- ------- -- ---- --- --<br>------- ------,236241.75500002457,236241.015000036,235801.786,235802.17999999877,235818.422,236251.927,,41,of
screen,html.Screen,1_1_1_1_42,2021-03-25T01:46:39.361Z,,,,,,,,,,,,,,,,54,,,,,,,,,,,,,,533.478000031464,response,,,,100,,,,,,Space,keypress(Space),,,,,,,,-- --- ---- --- ------ ----- ------- ---- -- --- ------- --<br>------- ---------- ------ -- ----- -- ----- -- ---- ------<br>--- ----- --- --- ------ -------- ----- --- ------ ----- --<br>----- ----- ---------- --- --- ------ ------ ---- -- French<br>------- --- ------ ----- --- ---- ------- -- ---- --- --<br>------- ------,236786.13000002224,236785.40500003146,236235.386,236241.96000001393,236251.927,236802.405,,42,French
screen,html.Screen,1_1_1_1_43,2021-03-25T01:46:40.057Z,,,,,,,,,,,,,,,,54,,,,,,,,,,,,,,678.4149999970396,response,,,,100,,,,,,Space,keypress(Space),,,,,,,,-- --- ---- --- ------ ----- ------- ---- -- --- ------- --<br>------- ---------- ------ -- ----- -- ----- -- ---- ------<br>--- ----- --- --- ------ -------- ----- --- ------ ----- --<br>----- ----- ---------- --- --- ------ ------ ---- -- ------<br>credit. --- ------ ----- --- ---- ------- -- ---- --- --<br>------- ------,237481.44499998307,237480.81999999704,236785.746,236786.33000003174,236802.405,237486.09,,43,credit.
screen,html.Screen,1_1_1_1_44,2021-03-25T01:46:40.489Z,,,,,,,,,,,,,,,,54,,,,,,,,,,,,,,426.77500002025045,response,,,,100,,,,,,Space,keypress(Space),,,,,,,,-- --- ---- --- ------ ----- ------- ---- -- --- ------- --<br>------- ---------- ------ -- ----- -- ----- -- ---- ------<br>--- ----- --- --- ------ -------- ----- --- ------ ----- --<br>----- ----- ---------- --- --- ------ ------ ---- -- ------<br>------- The ------ ----- --- ---- ------- -- ---- --- --<br>------- ------,237913.66000002017,237912.86500002025,237469.308,237481.5950000193,237486.09,237919.682,,44,The
screen,html.Screen,1_1_1_1_45,2021-03-25T01:46:40.985Z,,,,,,,,,,,,,,,,54,,,,,,,,,,,,,,489.0030000312545,response,,,,100,,,,,,Space,keypress(Space),,,,,,,,-- --- ---- --- ------ ----- ------- ---- -- --- ------- --<br>------- ---------- ------ -- ----- -- ----- -- ---- ------<br>--- ----- --- --- ------ -------- ----- --- ------ ----- --<br>----- ----- ---------- --- --- ------ ------ ---- -- ------<br>------- --- French ----- --- ---- ------- -- ---- --- --<br>------- ------,238409.50000000885,238408.68500003126,237903.137,237913.86500000954,237919.682,238420.068,,45,French
screen,html.Screen,1_1_1_1_46,2021-03-25T01:46:41.480Z,,,,,,,,,,,,,,,,54,,,,,,,,,,,,,,484.5320000089414,response,,,,100,,,,,,Space,keypress(Space),,,,,,,,-- --- ---- --- ------ ----- ------- ---- -- --- ------- --<br>------- ---------- ------ -- ----- -- ----- -- ---- ------<br>--- ----- --- --- ------ -------- ----- --- ------ ----- --<br>----- ----- ---------- --- --- ------ ------ ---- -- ------<br>------- --- ------ state --- ---- ------- -- ---- --- --<br>------- ------,238905.3600000334,238904.60000000894,238403.471,238409.70000001835,238420.068,238920.446,,46,state
screen,html.Screen,1_1_1_1_47,2021-03-25T01:46:41.976Z,,,,,,,,,,,,,,,,54,,,,,,,,,,,,,,480.12399999797344,response,,,,100,,,,,,Space,keypress(Space),,,,,,,,-- --- ---- --- ------ ----- ------- ---- -- --- ------- --<br>------- ---------- ------ -- ----- -- ----- -- ---- ------<br>--- ----- --- --- ------ -------- ----- --- ------ ----- --<br>----- ----- ---------- --- --- ------ ------ ---- -- ------<br>------- --- ------ ----- was ---- ------- -- ---- --- --<br>------- ------,239401.3200000045,239400.56999999797,238903.804,238905.5599999847,238920.446,239404.071,,47,was
screen,html.Screen,1_1_1_1_48,2021-03-25T01:46:42.488Z,,,,,,,,,,,,,,,,54,,,,,,,,,,,,,,508.3890000213869,response,,,,100,,,,,,Space,keypress(Space),,,,,,,,-- --- ---- --- ------ ----- ------- ---- -- --- ------- --<br>------- ---------- ------ -- ----- -- ----- -- ---- ------<br>--- ----- --- --- ------ -------- ----- --- ------ ----- --<br>----- ----- ---------- --- --- ------ ------ ---- -- ------<br>------- --- ------ ----- --- left ------- -- ---- --- --<br>------- ------,239913.18999999203,239912.46000002138,239387.446,239401.52499999385,239404.071,239921.059,,48,left
screen,html.Screen,1_1_1_1_49,2021-03-25T01:46:43.080Z,,,,,,,,,,,,,,,,54,,,,,,,,,,,,,,583.2760000050766,response,,,,100,,,,,,Space,keypress(Space),,,,,,,,-- --- ---- --- ------ ----- ------- ---- -- --- ------- --<br>------- ---------- ------ -- ----- -- ----- -- ---- ------<br>--- ----- --- --- ------ -------- ----- --- ------ ----- --<br>----- ----- ---------- --- --- ------ ------ ---- -- ------<br>------- --- ------ ----- --- ---- without -- ---- --- --<br>------- ------,240505.09500002954,240504.33500000509,239904.407,239913.3949999814,239921.059,240521.514,,49,without
screen,html.Screen,1_1_1_1_50,2021-03-25T01:46:43.544Z,,,,,,,,,,,,,,,,54,,,,,,,,,,,,,,446.74100001432816,response,,,,100,,,,,,Space,keypress(Space),,,,,,,,-- --- ---- --- ------ ----- ------- ---- -- --- ------- --<br>------- ---------- ------ -- ----- -- ----- -- ---- ------<br>--- ----- --- --- ------ -------- ----- --- ------ ----- --<br>----- ----- ---------- --- --- ------ ------ ---- -- ------<br>------- --- ------ ----- --- ---- ------- an ---- --- --<br>------- ------,240968.9800000051,240968.25500001432,240504.868,240505.3000000189,240521.514,240971.725,,50,an
screen,html.Screen,1_1_1_1_51,2021-03-25T01:46:44.032Z,,,,,,,,,,,,,,,,54,,,,,,,,,,,,,,484.4750000150816,response,,,,100,,,,,,Space,keypress(Space),,,,,,,,-- --- ---- --- ------ ----- ------- ---- -- --- ------- --<br>------- ---------- ------ -- ----- -- ----- -- ---- ------<br>--- ----- --- --- ------ -------- ----- --- ------ ----- --<br>----- ----- ---------- --- --- ------ ------ ---- -- ------<br>------- --- ------ ----- --- ---- ------- -- easy --- --<br>------- ------,241456.82500000112,241456.2000000151,240955.137,240969.18499999447,240971.725,241472.081,,51,easy
screen,html.Screen,1_1_1_1_52,2021-03-25T01:46:44.504Z,,,,,,,,,,,,,,,,54,,,,,,,,,,,,,,456.09400000819005,response,,,,100,,,,,,Space,keypress(Space),,,,,,,,-- --- ---- --- ------ ----- ------- ---- -- --- ------- --<br>------- ---------- ------ -- ----- -- ----- -- ---- ------<br>--- ----- --- --- ------ -------- ----- --- ------ ----- --<br>----- ----- ---------- --- --- ------ ------ ---- -- ------<br>------- --- ------ ----- --- ---- ------- -- ---- way --<br>------- ------,241928.92999999458,241928.1750000082,241455.471,241457.02000003075,241472.081,241939.057,,52,way
screen,html.Screen,1_1_1_1_53,2021-03-25T01:46:44.944Z,,,,,,,,,,,,,,,,54,,,,,,,,,,,,,,429.0379999834404,response,,,,100,,,,,,Space,keypress(Space),,,,,,,,-- --- ---- --- ------ ----- ------- ---- -- --- ------- --<br>------- ---------- ------ -- ----- -- ----- -- ---- ------<br>--- ----- --- --- ------ -------- ----- --- ------ ----- --<br>----- ----- ---------- --- --- ------ ------ ---- -- ------<br>------- --- ------ ----- --- ---- ------- -- ---- --- of<br>------- ------,242368.89500002144,242368.09499998344,241922.448,241929.14999998175,241939.057,242372.689,,53,of
screen,html.Screen,1_1_1_1_54,2021-03-25T01:46:45.408Z,,,,,,,,,,,,,,,,54,,,,,,,,,,,,,,459.33600001060404,response,,,,100,,,,,,Space,keypress(Space),,,,,,,,-- --- ---- --- ------ ----- ------- ---- -- --- ------- --<br>------- ---------- ------ -- ----- -- ----- -- ---- ------<br>--- ----- --- --- ------ -------- ----- --- ------ ----- --<br>----- ----- ---------- --- --- ------ ------ ---- -- ------<br>------- --- ------ ----- --- ---- ------- -- ---- --- --<br>raising ------,242832.77500001714,242832.02500001062,242356.056,242369.1000000108,242372.689,242839.627,,54,raising
screen,html.Screen,1_1_1_1_55,2021-03-25T01:46:46.425Z,,,,,,,,,,,,,,,,54,,,,,,,,,,,,,,1009.0780000112427,response,,,,100,,,,,,Space,keypress(Space),,,,,,,,-- --- ---- --- ------ ----- ------- ---- -- --- ------- --<br>------- ---------- ------ -- ----- -- ----- -- ---- ------<br>--- ----- --- --- ------ -------- ----- --- ------ ----- --<br>----- ----- ---------- --- --- ------ ------ ---- -- ------<br>------- --- ------ ----- --- ---- ------- -- ---- --- --<br>------- money.,243849.4650000357,243848.70500001125,242823.035,242832.97500002664,242839.627,243857.002,,55,money.
Item 100,flow.Loop,1_1_1_1,2021-03-25T01:46:46.425Z,,,,,,,,,,,,,,,,,,,,,,,,,,,,,,31929.372000011237,completion,,,,,A,,,,,,,,,,silence,,,,,243849.83999998076,243848.70500001125,211902.665,211903.5900000017,211919.333,243857.002,,,
Question 1,html.Screen,1_1_1_2,2021-03-25T01:46:54.262Z,,,,,,,,,,,,,,,,,,,,,,,,,,,true,TRUE,,7829.428000001557,response,,,,100,A,,,,,TRUE,click #choice-1,,,,silence,,,,,251687.12000001688,251686.43000000156,243840.459,243850.00000003492,243857.002,251695.463,,,
Question 2,html.Screen,1_1_1_3,2021-03-25T01:47:06.061Z,,,,,,,,,,,,,,,,,,,,,,,,,,,true,FALSE,,11789.231999991927,response,,,,100,A,,,,,FALSE,click #choice-2,,,,silence,,,,,263485.5550000211,263484.6949999919,251678.818,251687.23500001943,251695.463,263486.543,,,
Item 100,flow.Sequence,1_1_1,2021-03-25T01:47:06.061Z,,,,,,,,,,,,,,,,,,,,,,,,,,,,,,58569.98099999191,completion,,,,,,,,,,,,,,,,,,,,263485.725000035,263484.6949999919,204898.08,204910.43500002706,204914.714,263486.543,,,
End of Practice,html.Page,1_1_2,2021-03-25T01:47:25.114Z,,,,,,,,,,,,,,,,,,,,,,,,,,,,,,19052.43200003222,form submission,,,,,,,,,,,,,,,,,,,,282539.3299999996,282538.9750000322,263469.982,263485.80999998376,263486.543,282548.963,,,
Practice,flow.Sequence,1_1,2021-03-25T01:47:25.114Z,,,,,,,,,,,,,,,,,,,,,,,,,,,,,,128474.31100003223,completion,,,,,,,,,,,,,,,,,,,,282539.51000003144,282538.9750000322,154048.01,154057.79500002973,154064.664,282548.963,,,
Trap_instruction,html.Page,1_2_0,2021-03-25T01:47:35.680Z,,,,,,,,,,,,,,,,,,,,,,,,,,,,,,10556.47200003406,form submission,,,,,,,,,,,,,,,,,,,,293105.81999999704,293105.43500003405,282532.42,282539.6199999959,282548.963,293122.635,,,
trap_trial,html.Screen,1_2_1,2021-03-25T01:47:47.702Z,,,,,,,,,,,,,,,,,,,,,,,,,,,true,1,,12003.59000001452,response,,,,,,,,,,1,click #choice-1,,,,,,,,,305126.94500002544,305126.2250000145,293089.34,293105.97000003327,293122.635,305130.573,,,
end of trap trial,html.Page,1_2_2,2021-03-25T01:47:49.486Z,,,,,,,,,,,,,,,,,,,,,,,,,,,,,,1780.5519999841927,form submission,,,,,,,,,,,,,,,,,,,,306911.4450000343,306911.12499998417,305113.894,305127.0699999877,305130.573,306915.051,,,
Trap 1,flow.Sequence,1_2,2021-03-25T01:47:49.486Z,,,,,,,,,,,,,,,,,,,,,,,,,,,,,,24362.16199998418,completion,,,,,,,,,,,,,,,,,,,,306911.6250000079,306911.12499998417,282532.42,282539.5799999824,282548.963,306915.051,,,
Holding screen,html.Screen,1_3_0_0,2021-03-25T01:47:56.478Z,,,,,,,,,,,,,,,,,,,,,,,,,,,,,,7004.536000000022,timeout,,,,,,,,,,,,,,,,,,,,313903.5799999838,313902.999,306898.404,306911.77499998594,306915.051,313919.587,,,
screen,html.Screen,1_3_0_1_0,2021-03-25T01:47:58.645Z,,,,,,,,,,,,,,,,15,,,,,,,,,,,,,,2150.0129999879864,response,,,,7,A,,,,,Space,keypress(Space),,,,silence,,,,Greg --------- ---------- - --- ------- -- --- ------------<br>----- -- -------- ------- ---- ------ - -------- ---- -----<br>--- ------- ---- -- --- -------- --- - ----- ------ ---- --<br>-------- --- -------- -------- --- -------- ---- -- ----- -<br>-------- ---- --- ---------- --------- -- ------- ------ -<br>--------- ----- -----,316070.5050000106,316069.599999988,313902.999,313903.8399999845,313919.587,316095.021,,0,Greg
screen,html.Screen,1_3_0_1_1,2021-03-25T01:47:58.980Z,,,,,,,,,,,,,,,,15,,,,,,,,,,,,,,309.6439999800059,response,,,,7,A,,,,,Space,keypress(Space),,,,silence,,,,"---- Anderson, ---------- - --- ------- -- --- ------------<br>----- -- -------- ------- ---- ------ - -------- ---- -----<br>--- ------- ---- -- --- -------- --- - ----- ------ ---- --<br>-------- --- -------- -------- --- -------- ---- -- ----- -<br>-------- ---- --- ---------- --------- -- ------- ------ -<br>--------- ----- -----",316405.4550000001,316404.66499998,316054.707,316070.784999989,316095.021,316421.353,,1,"Anderson,"
screen,html.Screen,1_3_0_1_2,2021-03-25T01:47:59.332Z,,,,,,,,,,,,,,,,15,,,,,,,,,,,,,,335.23200002464,response,,,,7,A,,,,,Space,keypress(Space),,,,silence,,,,---- --------- considered - --- ------- -- --- ------------<br>----- -- -------- ------- ---- ------ - -------- ---- -----<br>--- ------- ---- -- --- -------- --- - ----- ------ ---- --<br>-------- --- -------- -------- --- -------- ---- -- ----- -<br>-------- ---- --- ---------- --------- -- ------- ------ -<br>--------- ----- -----,316757.28999997955,316756.58500002464,316404.686,316405.6650000275,316421.353,316771.543,,2,considered
screen,html.Screen,1_3_0_1_3,2021-03-25T01:47:59.772Z,,,,,,,,,,,,,,,,15,,,,,,,,,,,,,,424.95199998194585,response,,,,7,A,,,,,Space,keypress(Space),,,,silence,,,,---- --------- ---------- a --- ------- -- --- ------------<br>----- -- -------- ------- ---- ------ - -------- ---- -----<br>--- ------- ---- -- --- -------- --- - ----- ------ ---- --<br>-------- --- -------- -------- --- -------- ---- -- ----- -<br>-------- ---- --- ---------- --------- -- ------- ------ -<br>--------- ----- -----,317197.25000002654,317196.49499998195,316754.912,316757.48999998905,316771.543,317205.08,,3,a
screen,html.Screen,1_3_0_1_4,2021-03-25T01:48:00.100Z,,,,,,,,,,,,,,,,15,,,,,,,,,,,,,,319.3049999969662,response,,,,7,A,,,,,Space,keypress(Space),,,,silence,,,,---- --------- ---------- - key ------- -- --- ------------<br>----- -- -------- ------- ---- ------ - -------- ---- -----<br>--- ------- ---- -- --- -------- --- - ----- ------ ---- --<br>-------- --- -------- -------- --- -------- ---- -- ----- -<br>-------- ---- --- ---------- --------- -- ------- ------ -<br>--------- ----- -----,317525.1700000372,317524.384999997,317188.543,317197.45000003604,317205.08,317538.722,,4,key
screen,html.Screen,1_3_0_1_5,2021-03-25T01:48:00.436Z,,,,,,,,,,,,,,,,15,,,,,,,,,,,,,,321.6979999826872,response,,,,7,A,,,,,Space,keypress(Space),,,,silence,,,,---- --------- ---------- - --- witness -- --- ------------<br>----- -- -------- ------- ---- ------ - -------- ---- -----<br>--- ------- ---- -- --- -------- --- - ----- ------ ---- --<br>-------- --- -------- -------- --- -------- ---- -- ----- -<br>-------- ---- --- ---------- --------- -- ------- ------ -<br>--------- ----- -----,317861.18000000715,317860.4199999827,317522.079,317525.36999998847,317538.722,317872.205,,5,witness
screen,html.Screen,1_3_0_1_6,2021-03-25T01:48:00.820Z,,,,,,,,,,,,,,,,15,,,,,,,,,,,,,,372.1250000158907,response,,,,7,A,,,,,Space,keypress(Space),,,,silence,,,,---- --------- ---------- - --- ------- by --- ------------<br>----- -- -------- ------- ---- ------ - -------- ---- -----<br>--- ------- ---- -- --- -------- --- - ----- ------ ---- --<br>-------- --- -------- -------- --- -------- ---- -- ----- -<br>-------- ---- --- ---------- --------- -- ------- ------ -<br>--------- ----- -----,318245.07499998435,318244.3300000159,317855.618,317861.3849999965,317872.205,318255.842,,6,by
screen,html.Screen,1_3_0_1_7,2021-03-25T01:48:01.156Z,,,,,,,,,,,,,,,,15,,,,,,,,,,,,,,324.4480000126059,response,,,,7,A,,,,,Space,keypress(Space),,,,silence,,,,---- --------- ---------- - --- ------- -- the ------------<br>----- -- -------- ------- ---- ------ - -------- ---- -----<br>--- ------- ---- -- --- -------- --- - ----- ------ ---- --<br>-------- --- -------- -------- --- -------- ---- -- ----- -<br>-------- ---- --- ---------- --------- -- ------- ------ -<br>--------- ----- -----,318581.01999998325,318580.2900000126,318239.234,318245.270000014,318255.842,318589.303,,7,the
screen,html.Screen,1_3_0_1_8,2021-03-25T01:48:01.604Z,,,,,,,,,,,,,,,,15,,,,,,,,,,,,,,438.91199999843957,response,,,,7,A,,,,,Space,keypress(Space),,,,silence,,,,"---- --------- ---------- - --- ------- -- --- prosecution,<br>----- -- -------- ------- ---- ------ - -------- ---- -----<br>--- ------- ---- -- --- -------- --- - ----- ------ ---- --<br>-------- --- -------- -------- --- -------- ---- -- ----- -<br>-------- ---- --- ---------- --------- -- ------- ------ -<br>--------- ----- -----",319028.9600000251,319028.21499999845,318572.829,318581.21999999275,318589.303,319039.712,,8,"prosecution,"
screen,html.Screen,1_3_0_1_9,2021-03-25T01:48:01.996Z,,,,,,,,,,,,,,,,15,,,,,,,,,,,,,,380.4280000019935,response,,,,7,A,,,,,Space,keypress(Space),,,,silence,,,,---- --------- ---------- - --- ------- -- --- ------------<br>vowed -- -------- ------- ---- ------ - -------- ---- -----<br>--- ------- ---- -- --- -------- --- - ----- ------ ---- --<br>-------- --- -------- -------- --- -------- ---- -- ----- -<br>-------- ---- --- ---------- --------- -- ------- ------ -<br>--------- ----- -----,319420.8900000085,319420.140000002,319023.097,319029.1600000346,319039.712,319423.295,,9,vowed
screen,html.Screen,1_3_0_1_10,2021-03-25T01:48:02.371Z,,,,,,,,,,,,,,,,15,,,,,,,,,,,,,,372.7950000180281,response,,,,7,A,,,,,Space,keypress(Space),,,,silence,,,,---- --------- ---------- - --- ------- -- --- ------------<br>----- he -------- ------- ---- ------ - -------- ---- -----<br>--- ------- ---- -- --- -------- --- - ----- ------ ---- --<br>-------- --- -------- -------- --- -------- ---- -- ----- -<br>-------- ---- --- ---------- --------- -- ------- ------ -<br>--------- ----- -----,319796.7950000311,319796.090000018,319406.661,319421.08499997994,319423.295,319806.854,,10,he
screen,html.Screen,1_3_0_1_11,2021-03-25T01:48:02.715Z,,,,,,,,,,,,,,,,15,,,,,,,,,,,,,,333.16599999164464,response,,,,7,A,,,,,Space,keypress(Space),,,,silence,,,,---- --------- ---------- - --- ------- -- --- ------------<br>----- -- wouldn't ------- ---- ------ - -------- ---- -----<br>--- ------- ---- -- --- -------- --- - ----- ------ ---- --<br>-------- --- -------- -------- --- -------- ---- -- ----- -<br>-------- ---- --- ---------- --------- -- ------- ------ -<br>--------- ----- -----,320140.7449999824,320140.01999999164,319790.244,319796.9850000227,319806.854,320157.147,,11,wouldn't
screen,html.Screen,1_3_0_1_12,2021-03-25T01:48:03.139Z,,,,,,,,,,,,,,,,15,,,,,,,,,,,,,,406.8879999885103,response,,,,7,A,,,,,Space,keypress(Space),,,,silence,,,,---- --------- ---------- - --- ------- -- --- ------------<br>----- -- -------- testify ---- ------ - -------- ---- -----<br>--- ------- ---- -- --- -------- --- - ----- ------ ---- --<br>-------- --- -------- -------- --- -------- ---- -- ----- -<br>-------- ---- --- ---------- --------- -- ------- ------ -<br>--------- ----- -----,320564.8200000287,320564.0349999885,320140.465,320140.94000001205,320157.147,320574.014,,12,testify
screen,html.Screen,1_3_0_1_13,2021-03-25T01:48:03.547Z,,,,,,,,,,,,,,,,15,,,,,,,,,,,,,,397.9510000333539,response,,,,7,A,,,,,Space,keypress(Space),,,,silence,,,,---- --------- ---------- - --- ------- -- --- ------------<br>----- -- -------- ------- when ------ - -------- ---- -----<br>--- ------- ---- -- --- -------- --- - ----- ------ ---- --<br>-------- --- -------- -------- --- -------- ---- -- ----- -<br>-------- ---- --- ---------- --------- -- ------- ------ -<br>--------- ----- -----,320972.63000003295,320971.9650000334,320557.417,320565.02999999793,320574.014,321006.885,,13,when
screen,html.Screen,1_3_0_1_14,2021-03-25T01:48:03.979Z,,,,,,,,,,,,,,,,15,,,,,,,,,,,,,,396.9949999980163,response,,,,7,A,,,,,Space,keypress(Space),,,,silence,,,,---- --------- ---------- - --- ------- -- --- ------------<br>----- -- -------- ------- ---- served - -------- ---- -----<br>--- ------- ---- -- --- -------- --- - ----- ------ ---- --<br>-------- --- -------- -------- --- -------- ---- -- ----- -<br>-------- ---- --- ---------- --------- -- ------- ------ -<br>--------- ----- -----,321404.6550000203,321403.879999998,320957.681,320972.8350000223,321006.885,321407.909,,14,served
screen,html.Screen,1_3_0_1_15,2021-03-25T01:48:04.467Z,,,,,,,,,,,,,,,,15,,,,,,,,,,,,,,483.8459999896586,response,,,,7,A,,,,,Space,keypress(Space),,,,silence,,,,---- --------- ---------- - --- ------- -- --- ------------<br>----- -- -------- ------- ---- ------ a -------- ---- -----<br>--- ------- ---- -- --- -------- --- - ----- ------ ---- --<br>-------- --- -------- -------- --- -------- ---- -- ----- -<br>-------- ---- --- ---------- --------- -- ------- ------ -<br>--------- ----- -----,321892.5600000075,321891.75499998964,321391.299,321404.8649999895,321407.909,321908.25,,15,a
screen,html.Screen,1_3_0_1_16,2021-03-25T01:48:04.979Z,,,,,,,,,,,,,,,,15,,,,,,,,,,,,,,495.47499998193234,response,,,,7,A,,,,,Space,keypress(Space),,,,silence,,,,---- --------- ---------- - --- ------- -- --- ------------<br>----- -- -------- ------- ---- ------ - subpoena ---- -----<br>--- ------- ---- -- --- -------- --- - ----- ------ ---- --<br>-------- --- -------- -------- --- -------- ---- -- ----- -<br>-------- ---- --- ---------- --------- -- ------- ------ -<br>--------- ----- -----,322404.4800000265,322403.72499998193,321891.643,321892.76499999687,321908.25,322408.594,,16,subpoena
screen,html.Screen,1_3_0_1_17,2021-03-25T01:48:05.475Z,,,,,,,,,,,,,,,,15,,,,,,,,,,,,,,491.0259999819682,response,,,,7,A,,,,,Space,keypress(Space),,,,silence,,,,---- --------- ---------- - --- ------- -- --- ------------<br>----- -- -------- ------- ---- ------ - -------- last -----<br>--- ------- ---- -- --- -------- --- - ----- ------ ---- --<br>-------- --- -------- -------- --- -------- ---- -- ----- -<br>-------- ---- --- ---------- --------- -- ------- ------ -<br>--------- ----- -----,322900.39000002434,322899.61999998195,322391.974,322404.680000036,322408.594,322908.906,,17,last
screen,html.Screen,1_3_0_1_18,2021-03-25T01:48:06.171Z,,,,,,,,,,,,,,,,15,,,,,,,,,,,,,,686.6640000049374,response,,,,7,A,,,,,Space,keypress(Space),,,,silence,,,,---- --------- ---------- - --- ------- -- --- ------------<br>----- -- -------- ------- ---- ------ - -------- ---- week.<br>--- ------- ---- -- --- -------- --- - ----- ------ ---- --<br>-------- --- -------- -------- --- -------- ---- -- ----- -<br>-------- ---- --- ---------- --------- -- ------- ------ -<br>--------- ----- -----,323596.3300000294,323595.57000000495,322892.302,322900.59000003384,322908.906,323609.388,,18,week.
screen,html.Screen,1_3_0_1_19,2021-03-25T01:48:06.827Z,,,,,,,,,,,,,,,,15,,,,,,,,,,,,,,642.0270000061137,response,,,,7,A,,,,,Space,keypress(Space),,,,silence,,,,---- --------- ---------- - --- ------- -- --- ------------<br>----- -- -------- ------- ---- ------ - -------- ---- -----<br>His ------- ---- -- --- -------- --- - ----- ------ ---- --<br>-------- --- -------- -------- --- -------- ---- -- ----- -<br>-------- ---- --- ---------- --------- -- ------- ------ -<br>--------- ----- -----,324252.1950000082,324251.4150000061,323592.793,323596.5350000188,323609.388,324259.715,,19,His
screen,html.Screen,1_3_0_1_20,2021-03-25T01:48:07.467Z,,,,,,,,,,,,,,,,15,,,,,,,,,,,,,,631.6000000152853,response,,,,7,A,,,,,Space,keypress(Space),,,,silence,,,,---- --------- ---------- - --- ------- -- --- ------------<br>----- -- -------- ------- ---- ------ - -------- ---- -----<br>--- lawyers ---- -- --- -------- --- - ----- ------ ---- --<br>-------- --- -------- -------- --- -------- ---- -- ----- -<br>-------- ---- --- ---------- --------- -- ------- ------ -<br>--------- ----- -----,324892.07499998156,324891.3150000153,324243.211,324252.38999997964,324259.715,324916.099,,20,lawyers
screen,html.Screen,1_3_0_1_21,2021-03-25T01:48:07.914Z,,,,,,,,,,,,,,,,15,,,,,,,,,,,,,,423.0760000300943,response,,,,7,A,,,,,Space,keypress(Space),,,,silence,,,,---- --------- ---------- - --- ------- -- --- ------------<br>----- -- -------- ------- ---- ------ - -------- ---- -----<br>--- ------- said -- --- -------- --- - ----- ------ ---- --<br>-------- --- -------- -------- --- -------- ---- -- ----- -<br>-------- ---- --- ---------- --------- -- ------- ------ -<br>--------- ----- -----,325339.9900000077,325339.1750000301,324876.962,324892.27499999106,324916.099,325343.857,,21,said
screen,html.Screen,1_3_0_1_22,2021-03-25T01:48:08.346Z,,,,,,,,,,,,,,,,15,,,,,,,,,,,,,,427.2430000126478,response,,,,7,A,,,,,Space,keypress(Space),,,,silence,,,,---- --------- ---------- - --- ------- -- --- ------------<br>----- -- -------- ------- ---- ------ - -------- ---- -----<br>--- ------- ---- he --- -------- --- - ----- ------ ---- --<br>-------- --- -------- -------- --- -------- ---- -- ----- -<br>-------- ---- --- ---------- --------- -- ------- ------ -<br>--------- ----- -----,325771.8350000214,325771.10000001267,325327.223,325340.1750000194,325343.857,325777.342,,22,he
screen,html.Screen,1_3_0_1_23,2021-03-25T01:48:08.731Z,,,,,,,,,,,,,,,,15,,,,,,,,,,,,,,378.5779999901424,response,,,,7,A,,,,,Space,keypress(Space),,,,silence,,,,---- --------- ---------- - --- ------- -- --- ------------<br>----- -- -------- ------- ---- ------ - -------- ---- -----<br>--- ------- ---- -- was -------- --- - ----- ------ ---- --<br>-------- --- -------- -------- --- -------- ---- -- ----- -<br>-------- ---- --- ---------- --------- -- ------- ------ -<br>--------- ----- -----,326156.6650000168,326155.91999999015,325760.835,325772.0299999928,325777.342,326161.058,,23,was
screen,html.Screen,1_3_0_1_24,2021-03-25T01:48:09.218Z,,,,,,,,,,,,,,,,15,,,,,,,,,,,,,,482.09200001804857,response,,,,7,A,,,,,Space,keypress(Space),,,,silence,,,,---- --------- ---------- - --- ------- -- --- ------------<br>----- -- -------- ------- ---- ------ - -------- ---- -----<br>--- ------- ---- -- --- prepared --- - ----- ------ ---- --<br>-------- --- -------- -------- --- -------- ---- -- ----- -<br>-------- ---- --- ---------- --------- -- ------- ------ -<br>--------- ----- -----,326643.9600000158,326643.15000001807,326144.417,326156.87499998603,326161.058,326678.102,,24,prepared
screen,html.Screen,1_3_0_1_25,2021-03-25T01:48:09.666Z,,,,,,,,,,,,,,,,15,,,,,,,,,,,,,,412.90800003282493,response,,,,7,A,,,,,Space,keypress(Space),,,,silence,,,,---- --------- ---------- - --- ------- -- --- ------------<br>----- -- -------- ------- ---- ------ - -------- ---- -----<br>--- ------- ---- -- --- -------- for - ----- ------ ---- --<br>-------- --- -------- -------- --- -------- ---- -- ----- -<br>-------- ---- --- ---------- --------- -- ------- ------ -<br>--------- ----- -----,327091.75999998115,327091.01000003284,326661.392,326644.169999985,326678.102,327095.008,,25,for
screen,html.Screen,1_3_0_1_26,2021-03-25T01:48:10.090Z,,,,,,,,,,,,,,,,15,,,,,,,,,,,,,,419.932000022789,response,,,,7,A,,,,,Space,keypress(Space),,,,silence,,,,---- --------- ---------- - --- ------- -- --- ------------<br>----- -- -------- ------- ---- ------ - -------- ---- -----<br>--- ------- ---- -- --- -------- --- a ----- ------ ---- --<br>-------- --- -------- -------- --- -------- ---- -- ----- -<br>-------- ---- --- ---------- --------- -- ------- ------ -<br>--------- ----- -----,327515.699999989,327514.94000002276,327078.38,327091.9650000287,327095.008,327528.594,,26,a
screen,html.Screen,1_3_0_1_27,2021-03-25T01:48:10.538Z,,,,,,,,,,,,,,,,15,,,,,,,,,,,,,,434.2210000353516,response,,,,7,A,,,,,Space,keypress(Space),,,,silence,,,,---- --------- ---------- - --- ------- -- --- ------------<br>----- -- -------- ------- ---- ------ - -------- ---- -----<br>--- ------- ---- -- --- -------- --- - third ------ ---- --<br>-------- --- -------- -------- --- -------- ---- -- ----- -<br>-------- ---- --- ---------- --------- -- ------- ------ -<br>--------- ----- -----,327963.5550000239,327962.81500003533,327511.937,327515.9050000366,327528.594,327978.956,,27,third
screen,html.Screen,1_3_0_1_28,2021-03-25T01:48:11.026Z,,,,,,,,,,,,,,,,15,,,,,,,,,,,,,,471.8090000159573,response,,,,7,A,,,,,Space,keypress(Space),,,,silence,,,,---- --------- ---------- - --- ------- -- --- ------------<br>----- -- -------- ------- ---- ------ - -------- ---- -----<br>--- ------- ---- -- --- -------- --- - ----- prison ---- --<br>-------- --- -------- -------- --- -------- ---- -- ----- -<br>-------- ---- --- ---------- --------- -- ------- ------ -<br>--------- ----- -----,328451.5150000225,328450.76500001596,327962.292,327963.7550000334,327978.956,328462.541,,28,prison
screen,html.Screen,1_3_0_1_29,2021-03-25T01:48:11.482Z,,,,,,,,,,,,,,,,15,,,,,,,,,,,,,,444.1540000123787,response,,,,7,A,,,,,Space,keypress(Space),,,,silence,,,,---- --------- ---------- - --- ------- -- --- ------------<br>----- -- -------- ------- ---- ------ - -------- ---- -----<br>--- ------- ---- -- --- -------- --- - ----- ------ stay --<br>-------- --- -------- -------- --- -------- ---- -- ----- -<br>-------- ---- --- ---------- --------- -- ------- ------ -<br>--------- ----- -----,328907.43999998085,328906.6950000124,328445.945,328451.715000032,328462.541,328912.767,,29,stay
screen,html.Screen,1_3_0_1_30,2021-03-25T01:48:11.986Z,,,,,,,,,,,,,,,,15,,,,,,,,,,,,,,497.922999989707,response,,,,7,A,,,,,Space,keypress(Space),,,,silence,,,,---- --------- ---------- - --- ------- -- --- ------------<br>----- -- -------- ------- ---- ------ - -------- ---- -----<br>--- ------- ---- -- --- -------- --- - ----- ------ ---- to<br>-------- --- -------- -------- --- -------- ---- -- ----- -<br>-------- ---- --- ---------- --------- -- ------- ------ -<br>--------- ----- -----,329411.5050000255,329410.6899999897,328896.236,328907.6300000306,328912.767,329435.71,,30,to
screen,html.Screen,1_3_0_1_31,2021-03-25T01:48:12.770Z,,,,,,,,,,,,,,,,15,,,,,,,,,,,,,,758.8250000168919,response,,,,7,A,,,,,Space,keypress(Space),,,,silence,,,,---- --------- ---------- - --- ------- -- --- ------------<br>----- -- -------- ------- ---- ------ - -------- ---- -----<br>--- ------- ---- -- --- -------- --- - ----- ------ ---- --<br>maintain --- -------- -------- --- -------- ---- -- ----- -<br>-------- ---- --- ---------- --------- -- ------- ------ -<br>--------- ----- -----,330195.28500002343,330194.5350000169,329396.534,329411.7200000328,329435.71,330222.975,,31,maintain
screen,html.Screen,1_3_0_1_32,2021-03-25T01:48:13.266Z,,,,,,,,,,,,,,,,15,,,,,,,,,,,,,,467.45999999681953,response,,,,7,A,,,,,Space,keypress(Space),,,,silence,,,,---- --------- ---------- - --- ------- -- --- ------------<br>----- -- -------- ------- ---- ------ - -------- ---- -----<br>--- ------- ---- -- --- -------- --- - ----- ------ ---- --<br>-------- his -------- -------- --- -------- ---- -- ----- -<br>-------- ---- --- ---------- --------- -- ------- ------ -<br>--------- ----- -----,330691.1899999832,330690.4349999968,330180.463,330195.50000003073,330222.975,330697.314,,32,his
screen,html.Screen,1_3_0_1_33,2021-03-25T01:48:13.794Z,,,,,,,,,,,,,,,,15,,,,,,,,,,,,,,521.0609999967273,response,,,,7,A,,,,,Space,keypress(Space),,,,silence,,,,---- --------- ---------- - --- ------- -- --- ------------<br>----- -- -------- ------- ---- ------ - -------- ---- -----<br>--- ------- ---- -- --- -------- --- - ----- ------ ---- --<br>-------- --- silence. -------- --- -------- ---- -- ----- -<br>-------- ---- --- ---------- --------- -- ------- ------ -<br>--------- ----- -----,331219.2100000102,331218.37499999674,330680.749,330691.3899999927,330697.314,331230.992,,33,silence.
screen,html.Screen,1_3_0_1_34,2021-03-25T01:48:14.305Z,,,,,,,,,,,,,,,,15,,,,,,,,,,,,,,499.2430000245222,response,,,,7,A,,,,,Space,keypress(Space),,,,silence,,,,---- --------- ---------- - --- ------- -- --- ------------<br>----- -- -------- ------- ---- ------ - -------- ---- -----<br>--- ------- ---- -- --- -------- --- - ----- ------ ---- --<br>-------- --- -------- Anderson --- -------- ---- -- ----- -<br>-------- ---- --- ---------- --------- -- ------- ------ -<br>--------- ----- -----,331730.95500003546,331730.23500002455,331214.439,331219.41999997944,331230.992,331748.099,,34,Anderson
screen,html.Screen,1_3_0_1_35,2021-03-25T01:48:14.761Z,,,,,,,,,,,,,,,,15,,,,,,,,,,,,,,438.09600001660874,response,,,,7,A,,,,,Space,keypress(Space),,,,silence,,,,---- --------- ---------- - --- ------- -- --- ------------<br>----- -- -------- ------- ---- ------ - -------- ---- -----<br>--- ------- ---- -- --- -------- --- - ----- ------ ---- --<br>-------- --- -------- -------- was -------- ---- -- ----- -<br>-------- ---- --- ---------- --------- -- ------- ------ -<br>--------- ----- -----,332186.93999998504,332186.1950000166,331731.468,331731.1500000069,331748.099,332198.324,,35,was
screen,html.Screen,1_3_0_1_36,2021-03-25T01:48:15.281Z,,,,,,,,,,,,,,,,15,,,,,,,,,,,,,,507.83100002165884,response,,,,7,A,,,,,Space,keypress(Space),,,,silence,,,,---- --------- ---------- - --- ------- -- --- ------------<br>----- -- -------- ------- ---- ------ - -------- ---- -----<br>--- ------- ---- -- --- -------- --- - ----- ------ ---- --<br>-------- --- -------- -------- --- released ---- -- ----- -<br>-------- ---- --- ---------- --------- -- ------- ------ -<br>--------- ----- -----,332706.920000026,332706.1550000217,332181.73,332187.13999999454,332198.324,332715.268,,36,released
screen,html.Screen,1_3_0_1_37,2021-03-25T01:48:15.793Z,,,,,,,,,,,,,,,,15,,,,,,,,,,,,,,502.77200000704033,response,,,,7,A,,,,,Space,keypress(Space),,,,silence,,,,---- --------- ---------- - --- ------- -- --- ------------<br>----- -- -------- ------- ---- ------ - -------- ---- -----<br>--- ------- ---- -- --- -------- --- - ----- ------ ---- --<br>-------- --- -------- -------- --- -------- July -- ----- -<br>-------- ---- --- ---------- --------- -- ------- ------ -<br>--------- ----- -----,333218.8000000315,333218.040000007,332698.699,332707.1350000333,332715.268,333232.418,,37,July
screen,html.Screen,1_3_0_1_38,2021-03-25T01:48:16.241Z,,,,,,,,,,,,,,,,15,,,,,,,,,,,,,,433.60200000420446,response,,,,7,A,,,,,Space,keypress(Space),,,,silence,,,,---- --------- ---------- - --- ------- -- --- ------------<br>----- -- -------- ------- ---- ------ - -------- ---- -----<br>--- ------- ---- -- --- -------- --- - ----- ------ ---- --<br>-------- --- -------- -------- --- -------- ---- 20 ----- -<br>-------- ---- --- ---------- --------- -- ------- ------ -<br>--------- ----- -----,333666.80000000633,333666.0200000042,333215.754,333219.00500002084,333232.418,333682.707,,38,20
screen,html.Screen,1_3_0_1_39,2021-03-25T01:48:16.705Z,,,,,,,,,,,,,,,,15,,,,,,,,,,,,,,447.1979999797768,response,,,,7,A,,,,,Space,keypress(Space),,,,silence,,,,---- --------- ---------- - --- ------- -- --- ------------<br>----- -- -------- ------- ---- ------ - -------- ---- -----<br>--- ------- ---- -- --- -------- --- - ----- ------ ---- --<br>-------- --- -------- -------- --- -------- ---- -- after -<br>-------- ---- --- ---------- --------- -- ------- ------ -<br>--------- ----- -----,334130.66000002436,334129.9049999798,333666.033,333667.0049999957,333682.707,334132.959,,39,after
screen,html.Screen,1_3_0_1_40,2021-03-25T01:48:17.217Z,,,,,,,,,,,,,,,,15,,,,,,,,,,,,,,508.861000018951,response,,,,7,A,,,,,Space,keypress(Space),,,,silence,,,,---- --------- ---------- - --- ------- -- --- ------------<br>----- -- -------- ------- ---- ------ - -------- ---- -----<br>--- ------- ---- -- --- -------- --- - ----- ------ ---- --<br>-------- --- -------- -------- --- -------- ---- -- ----- a<br>-------- ---- --- ---------- --------- -- ------- ------ -<br>--------- ----- -----,334642.5799999852,334641.8200000189,334116.336,334130.8549999958,334132.959,334649.887,,40,a
