sender,sender_type,sender_id,timestamp,meta,,Blues,Classical,Country,Dance,Electronic,Folk,Gospel,Hip-Hop,Jazz,Latin,Musical/Film,New-age,Pop,Provo_ID,R&B,Rap,Reggae,Religious,Rock,Soul,Swing,Traditional,age,artist_name,correct,correctResponse,distraction,duration,education,ended_on,familiarity,gender,headphone_check_performance,item,list,music_frequency,offensiveness,pleasantness,position_correct,preference,response,response_action,snippet_file,song_name,song_rating,sound,stimulus_1,stimulus_2,stimulus_3,text,time_commit,time_end,time_render,time_run,time_show,time_switch,url,word,word_ID
Introduction,html.Screen,0_0,2021-04-22T11:50:30.122Z,"{""labjs_version"":""20.2.2"",""labjs_build"":{""flavor"":""production"",""commit"":""a25486e0c714a0ae2ce03ff94b7bb6896854dcfa""},""location"":""https://run.pavlovia.org/mvasilev/music_d/"",""userAgent"":""Mozilla/5.0 (Windows NT 10.0; Win64; x64) AppleWebKit/537.36 (KHTML, like Gecko) Chrome/90.0.4430.72 Safari/537.36 Edg/90.0.818.42"",""platform"":""Win32"",""language"":""en-GB"",""locale"":""en-GB"",""timeZone"":""Europe/London"",""timezoneOffset"":-60,""screen_width"":1280,""screen_height"":720,""scroll_width"":1280,""scroll_height"":578,""window_innerWidth"":1280,""window_innerHeight"":578,""devicePixelRatio"":1.5}",,,,,,,,,,,,,,,,,,,,,,,,,,,,,8312.550000030547,,response,,,,,,,,,,,continue,click button,,,,,,,,,21037.83500008285,21033.425000030547,12687.416,12695.844999980181,12720.875,21037.571,{},,
Volume calibration,html.Screen,0_1,2021-04-22T11:50:55.331Z,,,,,,,,,,,,,,,,,,,,,,,,,,,,,,25201.699000020042,,response,,,,,,,,,,,continue,click button,,,,,,,,,46246.5000001248,46239.27000002004,21021.197,21038.53000001982,21037.571,46254.606,,,
Task instructions,html.Screen,0_2,2021-04-22T11:51:14.804Z,,,,,,,,,,,,,,,,,,,,,,,,,,,,,,19457.614000103116,,response,,,,,,,,,,,continue,click button,,,,,,,,,65715.24500008672,65712.22000010312,46238.021,46250.050000147894,46254.606,65721.644,,,
Sounds,html.Screen,0_3_0_0,2021-04-22T11:51:19.048Z,,,,,,,,,,,,,,,,,,,,,,,,,,,,,,4250.361999999994,,timeout,,,,,,,,,2,,,,,,,,I,S,O,,69959.62000009604,69955.337,65705.437,65715.84499999881,65721.644,69972.006,,,
Judgement,html.Screen,0_3_0_1,2021-04-22T11:51:21.071Z,,,,,,,,,,,,,,,,,,,,,,,,,,,true,2,,2006.7090002084733,,response,,,,,,,,,2,,2,click #choice-2,,,,,I,S,O,,71981.73000011593,71978.71500020847,69955.337,69959.90000013262,69972.006,71988.316,,,
Trial,flow.Sequence,0_3_0,2021-04-22T11:51:21.071Z,,,,,,,,,,,,,,,,,,,,,,,,,,,,,,6257.071000208467,,completion,,,,,,,,,2,,,,,,,,I,S,O,,71982.56999999285,71978.71500020847,65705.437,65715.64000006765,65721.644,71988.316,,,
Sounds,html.Screen,0_3_1_0,2021-04-22T11:51:25.312Z,,,,,,,,,,,,,,,,,,,,,,,,,,,,,,4250.424999999988,,timeout,,,,,,,,,1,,,,,,,,S,O,I,,76223.01500011235,76221.805,71972.005,71982.87000018172,71988.316,76238.741,,,
Judgement,html.Screen,0_3_1_1,2021-04-22T11:51:27.022Z,,,,,,,,,,,,,,,,,,,,,,,,,,,true,1,,1690.814000038823,,response,,,,,,,,,1,,1,click #choice-1,,,,,S,O,I,,77932.68500012346,77929.55500003882,76221.805,76223.25000003912,76238.741,77938.392,,,
Trial,flow.Sequence,0_3_1,2021-04-22T11:51:27.022Z,,,,,,,,,,,,,,,,,,,,,,,,,,,,,,5941.239000038811,,completion,,,,,,,,,1,,,,,,,,S,O,I,,77933.10000002384,77929.55500003882,71972.005,71982.7950000763,71988.316,77938.392,,,
Sounds,html.Screen,0_3_2_0,2021-04-22T11:51:31.262Z,,,,,,,,,,,,,,,,,,,,,,,,,,,,,,4250.184999999998,,timeout,,,,,,,,,1,,,,,,,,S,I,O,,82173.41000004672,82172.162,77922.123,77933.36999998428,77938.392,82188.577,,,
Judgement,html.Screen,0_3_2_1,2021-04-22T11:51:32.601Z,,,,,,,,,,,,,,,,,,,,,,,,,,,true,1,,1320.3030000958097,,response,,,,,,,,,1,,1,click #choice-1,,,,,S,I,O,,83511.95499999449,83508.88000009581,82172.162,82173.6600000877,82188.577,83521.885,,,
Trial,flow.Sequence,0_3_2,2021-04-22T11:51:32.601Z,,,,,,,,,,,,,,,,,,,,,,,,,,,,,,5570.488000095807,,completion,,,,,,,,,1,,,,,,,,S,I,O,,83512.38000020385,83508.88000009581,77922.123,77933.27500019222,77938.392,83521.885,,,
Sounds,html.Screen,0_3_3_0,2021-04-22T11:51:36.846Z,,,,,,,,,,,,,,,,,,,,,,,,,,,,,,4250.463000000003,,timeout,,,,,,,,,3,,,,,,,,O,I,S,,87756.85500004329,87755.622,83505.207,83512.67500012182,83521.885,87772.348,,,
Judgement,html.Screen,0_3_3_1,2021-04-22T11:51:38.130Z,,,,,,,,,,,,,,,,,,,,,,,,,,,true,3,,1265.8570001062471,,response,,,,,,,,,3,,3,click #choice-3,,,,,O,I,S,,89041.32500011474,89038.20500010625,87755.622,87757.18499999493,87772.348,89055.704,,,
Trial,flow.Sequence,0_3_3,2021-04-22T11:51:38.131Z,,,,,,,,,,,,,,,,,,,,,,,,,,,,,,5516.3200001062505,,completion,,,,,,,,,3,,,,,,,,O,I,S,,89041.8050000444,89038.20500010625,83505.207,83512.58000009693,83521.885,89055.704,,,
Sounds,html.Screen,0_3_4_0,2021-04-22T11:51:42.379Z,,,,,,,,,,,,,,,,,,,,,,,,,,,,,,4249.987000000008,,timeout,,,,,,,,,2,,,,,,,,O,S,I,,93290.05000018515,93288.851,89038.636,89042.07500000484,89055.704,93305.691,,,
Judgement,html.Screen,0_3_4_1,2021-04-22T11:51:43.711Z,,,,,,,,,,,,,,,,,,,,,,,,,,,true,2,,1312.8440001323906,,response,,,,,,,,,2,,2,click #choice-2,,,,,O,S,I,,94621.66000017896,94618.5350001324,93288.851,93290.28500011191,93305.691,94622.018,,,
Trial,flow.Sequence,0_3_4,2021-04-22T11:51:43.711Z,,,,,,,,,,,,,,,,,,,,,,,,,,,,,,5562.831000132399,,completion,,,,,,,,,2,,,,,,,,O,S,I,,94622.17000010423,94618.5350001324,89038.636,89042.00000013225,89055.704,94622.018,,,
Sounds,html.Screen,0_3_5_0,2021-04-22T11:51:47.946Z,,,,,,,,,,,,,,,,,,,,,,,,,,,,,,4250.226999999999,,timeout,,,,,,,,,3,,,,,,,,I,O,S,,98856.8700000178,98855.549,94605.716,94622.72000010125,94622.018,98872.245,,,
Judgement,html.Screen,0_3_5_1,2021-04-22T11:51:49.022Z,,,,,,,,,,,,,,,,,,,,,,,,,,,true,3,,1057.730000210111,,response,,,,,,,,,3,,3,click #choice-3,,,,,I,O,S,,99933.12499998137,99929.9750002101,98855.549,98857.11500002071,98872.245,99938.814,,,
Trial,flow.Sequence,0_3_5,2021-04-22T11:51:49.022Z,,,,,,,,,,,,,,,,,,,,,,,,,,,,,,5307.95700021011,,completion,,,,,,,,,3,,,,,,,,I,O,S,,99933.57500014827,99929.9750002101,94605.716,94622.47000006028,94622.018,99938.814,,,
Task,flow.Loop,0_3,2021-04-22T11:51:49.030Z,,,,,,,,,,,,,,,,,,,,,,,,,,,,,,34208.331000210106,,completion,,,1,,,,,,,,,,,,,,,,,,99941.2350000348,99929.9750002101,65705.437,65715.53500019945,65721.644,99938.814,,,
Trap,html.Screen,0_4,2021-04-22T11:51:49.034Z,,,,,,,,,,,,,,,,,,,,,,,,,,,,,,NaN,,skipped,,,,,,,,,,,,,,,,,,,,,99945.20000019111,99929.9750002101,,99944.91000007838,,99938.814,,,
Thanks,html.Screen,0_5,2021-04-22T11:51:52.630Z,,,,,,,,,,,,,,,,,,,,,,,,,,,,,,3599.7109999817476,,response,,,,,,,,,,,continue,click button,,,,,,,,,103541.30500019528,103538.52499998175,99922.492,99945.42000000365,99938.814,106022.141,,,
Headphone screening,flow.Sequence,0,2021-04-22T11:51:52.631Z,,,,,,,,,,,,,,,,,,,,,,,,,,,,,,90817.64999998175,,completion,,,,,,,,,,,,,,,,,,,,,103541.66500014253,103538.52499998175,12687.416,12695.82000002265,12720.875,106022.141,,,
Instructions,html.Page,1_0,2021-04-22T11:52:29.398Z,,,,,,,,,,,,,,,,,,,,,,,,,,,,,,34286.13400019222,,form submission,,,,,,,,,,,,,,,,,,,,,140309.28500019945,140308.27500019222,105988.931,106013.69000016712,106022.141,140306.012,,,
Holding screen,html.Screen,1_1_0_0,2021-04-22T11:52:39.380Z,,,,,,,,,,,,,,,,,,,,,,,,,,,,,,10016.809000000008,,timeout,,,,,,,,,,,,,,,,,,,,,150290.96000012942,150289.932,140289.942,140309.80500020087,140306.012,150322.821,,,
screen,html.Screen,1_1_0_1_0,2021-04-22T11:52:40.462Z,,,,,,,,,,,,,,,,53,,,,,,,,,,,,,,1046.3040002011694,,response,,,,99,,,,,,,Space,keypress(Space),,,,,,,,When -- ----- -- ------ - ------- --- ----------<br>------------- ------ ------ ---- ---- ------- ----- -- ----<br>-------- ------- -- ---------- --- - --- ----- ----- ----<br>---- --- --- ----- --- ---- ---- ------- ----- ---- -------<br>--- --- -- ----- -- --- ---- -- --- ---- -- ------ ------<br>--- ----- -- ----,151373.0800000485,151369.12500020117,150289.932,150291.2550000474,150322.821,151389.901,,0,When
screen,html.Screen,1_1_0_1_1,2021-04-22T11:52:40.852Z,,,,,,,,,,,,,,,,53,,,,,,,,,,,,,,371.98900019802386,,response,,,,99,,,,,,,Space,keypress(Space),,,,,,,,---- it ----- -- ------ - ------- --- ----------<br>------------- ------ ------ ---- ---- ------- ----- -- ----<br>-------- ------- -- ---------- --- - --- ----- ----- ----<br>---- --- --- ----- --- ---- ---- ------- ----- ---- -------<br>--- --- -- ----- -- --- ---- -- --- ---- -- ------ ------<br>--- ----- -- ----,151763.07000010274,151761.89000019804,151373.068,151373.30000009388,151389.901,151772.992,,1,it
screen,html.Screen,1_1_0_1_2,2021-04-22T11:52:41.248Z,,,,,,,,,,,,,,,,53,,,,,,,,,,,,,,384.41300018000766,,response,,,,99,,,,,,,Space,keypress(Space),,,,,,,,---- -- comes -- ------ - ------- --- ----------<br>------------- ------ ------ ---- ---- ------- ----- -- ----<br>-------- ------- -- ---------- --- - --- ----- ----- ----<br>---- --- --- ----- --- ---- ---- ------- ----- ---- -------<br>--- --- -- ----- -- --- ---- -- --- ---- -- ------ ------<br>--- ----- -- ----,152158.71500014327,152157.40500018,151756.587,151763.26999999583,151772.992,152173.253,,2,comes
screen,html.Screen,1_1_0_1_3,2021-04-22T11:52:41.714Z,,,,,,,,,,,,,,,,53,,,,,,,,,,,,,,449.99700017881696,,response,,,,99,,,,,,,Space,keypress(Space),,,,,,,,---- -- ----- to ------ - ------- --- ----------<br>------------- ------ ------ ---- ---- ------- ----- -- ----<br>-------- ------- -- ---------- --- - --- ----- ----- ----<br>---- --- --- ----- --- ---- ---- ------- ----- ---- -------<br>--- --- -- ----- -- --- ---- -- --- ---- -- ------ ------<br>--- ----- -- ----,152624.69000020064,152623.2500001788,152156.603,152158.9099999983,152173.253,152639.986,,3,to
screen,html.Screen,1_1_0_1_4,2021-04-22T11:52:42.148Z,,,,,,,,,,,,,,,,53,,,,,,,,,,,,,,417.8440000634,,response,,,,99,,,,,,,Space,keypress(Space),,,,,,,,---- -- ----- -- having - ------- --- ----------<br>------------- ------ ------ ---- ---- ------- ----- -- ----<br>-------- ------- -- ---------- --- - --- ----- ----- ----<br>---- --- --- ----- --- ---- ---- ------- ----- ---- -------<br>--- --- -- ----- -- --- ---- -- --- ---- -- ------ ------<br>--- ----- -- ----,153059.14000002667,153057.8300000634,152623.236,152624.88500005566,152639.986,153073.284,,4,having
screen,html.Screen,1_1_0_1_5,2021-04-22T11:52:42.434Z,,,,,,,,,,,,,,,,53,,,,,,,,,,,,,,270.8810001332022,,response,,,,99,,,,,,,Space,keypress(Space),,,,,,,,---- -- ----- -- ------ a ------- --- ----------<br>------------- ------ ------ ---- ---- ------- ----- -- ----<br>-------- ------- -- ---------- --- - --- ----- ----- ----<br>---- --- --- ----- --- ---- ---- ------- ----- ---- -------<br>--- --- -- ----- -- --- ---- -- --- ---- -- ------ ------<br>--- ----- -- ----,153345.29500012286,153344.16500013322,153056.6,153059.34500019066,153073.284,153356.613,,5,a
screen,html.Screen,1_1_0_1_6,2021-04-22T11:52:42.791Z,,,,,,,,,,,,,,,,53,,,,,,,,,,,,,,343.8970001115231,,response,,,,99,,,,,,,Space,keypress(Space),,,,,,,,---- -- ----- -- ------ - lasting --- ----------<br>------------- ------ ------ ---- ---- ------- ----- -- ----<br>-------- ------- -- ---------- --- - --- ----- ----- ----<br>---- --- --- ----- --- ---- ---- ------- ----- ---- -------<br>--- --- -- ----- -- --- ---- -- --- ---- -- ------ ------<br>--- ----- -- ----,153701.78000000305,153700.51000011154,153339.721,153345.50000005402,153356.613,153706.187,,6,lasting
screen,html.Screen,1_1_0_1_7,2021-04-22T11:52:43.205Z,,,,,,,,,,,,,,,,53,,,,,,,,,,,,,,408.4930001151806,,response,,,,99,,,,,,,Space,keypress(Space),,,,,,,,---- -- ----- -- ------ - ------- and ----------<br>------------- ------ ------ ---- ---- ------- ----- -- ----<br>-------- ------- -- ---------- --- - --- ----- ----- ----<br>---- --- --- ----- --- ---- ---- ------- ----- ---- -------<br>--- --- -- ----- -- --- ---- -- --- ---- -- ------ ------<br>--- ----- -- ----,154115.80500006676,154114.6800001152,153689.916,153701.98000012897,153706.187,154122.951,,7,and
screen,html.Screen,1_1_0_1_8,2021-04-22T11:52:43.752Z,,,,,,,,,,,,,,,,53,,,,,,,,,,,,,,538.8890001898399,,response,,,,99,,,,,,,Space,keypress(Space),,,,,,,,---- -- ----- -- ------ - ------- --- fulfilling<br>------------- ------ ------ ---- ---- ------- ----- -- ----<br>-------- ------- -- ---------- --- - --- ----- ----- ----<br>---- --- --- ----- --- ---- ---- ------- ----- ---- -------<br>--- --- -- ----- -- --- ---- -- --- ---- -- ------ ------<br>--- ----- -- ----,154662.91499999352,154661.84000018984,154106.57,154116.0000001546,154122.951,154673.293,,8,fulfilling
screen,html.Screen,1_1_0_1_9,2021-04-22T11:52:45.308Z,,,,,,,,,,,,,,,,53,,,,,,,,,,,,,,1544.5820000894018,,response,,,,99,,,,,,,Space,keypress(Space),,,,,,,,"---- -- ----- -- ------ - ------- --- ----------<br>relationship, ------ ------ ---- ---- ------- ----- -- ----<br>-------- ------- -- ---------- --- - --- ----- ----- ----<br>---- --- --- ----- --- ---- ---- ------- ----- ---- -------<br>--- --- -- ----- -- --- ---- -- --- ---- -- ------ ------<br>--- ----- -- ----",156219.11000018008,156217.8750000894,154656.221,154663.11500011943,154673.293,156222.9,,9,"relationship,"
screen,html.Screen,1_1_0_1_10,2021-04-22T11:52:45.709Z,,,,,,,,,,,,,,,,53,,,,,,,,,,,,,,395.465000002092,,response,,,,99,,,,,,,Space,keypress(Space),,,,,,,,---- -- ----- -- ------ - ------- --- ----------<br>------------- common ------ ---- ---- ------- ----- -- ----<br>-------- ------- -- ---------- --- - --- ----- ----- ----<br>---- --- --- ----- --- ---- ---- ------- ----- ---- -------<br>--- --- -- ----- -- --- ---- -- --- ---- -- ------ ------<br>--- ----- -- ----,156619.66500012204,156618.3650000021,156206.551,156219.31000007316,156222.9,156622.95,,10,common
screen,html.Screen,1_1_0_1_11,2021-04-22T11:52:46.630Z,,,,,,,,,,,,,,,,53,,,,,,,,,,,,,,916.6650001324597,,response,,,,99,,,,,,,Space,keypress(Space),,,,,,,,---- -- ----- -- ------ - ------- --- ----------<br>------------- ------ wisdom ---- ---- ------- ----- -- ----<br>-------- ------- -- ---------- --- - --- ----- ----- ----<br>---- --- --- ----- --- ---- ---- ------- ----- ---- -------<br>--- --- -- ----- -- --- ---- -- --- ---- -- ------ ------<br>--- ----- -- ----,157540.7899999991,157539.61500013247,156606.604,156619.8700000532,156622.95,157556.694,,11,wisdom
screen,html.Screen,1_1_0_1_12,2021-04-22T11:52:47.065Z,,,,,,,,,,,,,,,,53,,,,,,,,,,,,,,417.8310002015496,,response,,,,99,,,,,,,Space,keypress(Space),,,,,,,,---- -- ----- -- ------ - ------- --- ----------<br>------------- ------ ------ says ---- ------- ----- -- ----<br>-------- ------- -- ---------- --- - --- ----- ----- ----<br>---- --- --- ----- --- ---- ---- ------- ----- ---- -------<br>--- --- -- ----- -- --- ---- -- --- ---- -- ------ ------<br>--- ----- -- ----,157975.64500011504,157974.52500020154,157539.851,157540.99000012502,157556.694,157990.064,,12,says
screen,html.Screen,1_1_0_1_13,2021-04-22T11:52:47.446Z,,,,,,,,,,,,,,,,53,,,,,,,,,,,,,,365.5210000120569,,response,,,,99,,,,,,,Space,keypress(Space),,,,,,,,---- -- ----- -- ------ - ------- --- ----------<br>------------- ------ ------ ---- that ------- ----- -- ----<br>-------- ------- -- ---------- --- - --- ----- ----- ----<br>---- --- --- ----- --- ---- ---- ------- ----- ---- -------<br>--- --- -- ----- -- --- ---- -- --- ---- -- ------ ------<br>--- ----- -- ----,158356.82000010274,158355.58500001207,157972.931,157975.87000019848,157990.064,158373.342,,13,that
screen,html.Screen,1_1_0_1_14,2021-04-22T11:52:47.895Z,,,,,,,,,,,,,,,,53,,,,,,,,,,,,,,431.91800005192636,,response,,,,99,,,,,,,Space,keypress(Space),,,,,,,,---- -- ----- -- ------ - ------- --- ----------<br>------------- ------ ------ ---- ---- feeling ----- -- ----<br>-------- ------- -- ---------- --- - --- ----- ----- ----<br>---- --- --- ----- --- ---- ---- ------- ----- ---- -------<br>--- --- -- ----- -- --- ---- -- --- ---- -- ------ ------<br>--- ----- -- ----,158806.40000011772,158805.26000005193,158356.651,158357.03000007197,158373.342,158823.311,,14,feeling
screen,html.Screen,1_1_0_1_15,2021-04-22T11:52:48.411Z,,,,,,,,,,,,,,,,53,,,,,,,,,,,,,,498.1690001587849,,response,,,,99,,,,,,,Space,keypress(Space),,,,,,,,---- -- ----- -- ------ - ------- --- ----------<br>------------- ------ ------ ---- ---- ------- close -- ----<br>-------- ------- -- ---------- --- - --- ----- ----- ----<br>---- --- --- ----- --- ---- ---- ------- ----- ---- -------<br>--- --- -- ----- -- --- ---- -- --- ---- -- ------ ------<br>--- ----- -- ----,159322.5800001528,159321.48000015877,158806.678,158806.6000000108,158823.311,159356.728,,15,close
screen,html.Screen,1_1_0_1_16,2021-04-22T11:52:48.873Z,,,,,,,,,,,,,,,,53,,,,,,,,,,,,,,425.8969999925466,,response,,,,99,,,,,,,Space,keypress(Space),,,,,,,,---- -- ----- -- ------ - ------- --- ----------<br>------------- ------ ------ ---- ---- ------- ----- to ----<br>-------- ------- -- ---------- --- - --- ----- ----- ----<br>---- --- --- ----- --- ---- ---- ------- ----- ---- -------<br>--- --- -- ----- -- --- ---- -- --- ---- -- ------ ------<br>--- ----- -- ----,159783.89000007883,159782.62499999255,159340.01,159322.78500008397,159356.728,159789.748,,16,to
screen,html.Screen,1_1_0_1_17,2021-04-22T11:52:49.820Z,,,,,,,,,,,,,,,,53,,,,,,,,,,,,,,939.8720001146721,,response,,,,99,,,,,,,Space,keypress(Space),,,,,,,,---- -- ----- -- ------ - ------- --- ----------<br>------------- ------ ------ ---- ---- ------- ----- -- your<br>-------- ------- -- ---------- --- - --- ----- ----- ----<br>---- --- --- ----- --- ---- ---- ------- ----- ---- -------<br>--- --- -- ----- -- --- ---- -- --- ---- -- ------ ------<br>--- ----- -- ----,160730.77500006184,160729.62000011466,159773.339,159784.09000020474,159789.748,160739.997,,17,your
screen,html.Screen,1_1_0_1_18,2021-04-22T11:52:50.813Z,,,,,,,,,,,,,,,,53,,,,,,,,,,,,,,983.4430000888824,,response,,,,99,,,,,,,Space,keypress(Space),,,,,,,,---- -- ----- -- ------ - ------- --- ----------<br>------------- ------ ------ ---- ---- ------- ----- -- ----<br>romantic ------- -- ---------- --- - --- ----- ----- ----<br>---- --- --- ----- --- ---- ---- ------- ----- ---- -------<br>--- --- -- ----- -- --- ---- -- --- ---- -- ------ ------<br>--- ----- -- ----,161724.51000008732,161723.44000008889,160723.268,160731.13000020385,160739.997,161740.099,,18,romantic
screen,html.Screen,1_1_0_1_19,2021-04-22T11:52:51.115Z,,,,,,,,,,,,,,,,53,,,,,,,,,,,,,,284.49100004456704,,response,,,,99,,,,,,,Space,keypress(Space),,,,,,,,---- -- ----- -- ------ - ------- --- ----------<br>------------- ------ ------ ---- ---- ------- ----- -- ----<br>-------- partner -- ---------- --- - --- ----- ----- ----<br>---- --- --- ----- --- ---- ---- ------- ----- ---- -------<br>--- --- -- ----- -- --- ---- -- --- ---- -- ------ ------<br>--- ----- -- ----,162025.85000009276,162024.59000004455,161723.342,161724.7099999804,161740.099,162040.074,,19,partner
screen,html.Screen,1_1_0_1_20,2021-04-22T11:52:51.511Z,,,,,,,,,,,,,,,,53,,,,,,,,,,,,,,380.9560000850179,,response,,,,99,,,,,,,Space,keypress(Space),,,,,,,,---- -- ----- -- ------ - ------- --- ----------<br>------------- ------ ------ ---- ---- ------- ----- -- ----<br>-------- ------- is ---------- --- - --- ----- ----- ----<br>---- --- --- ----- --- ---- ---- ------- ----- ---- -------<br>--- --- -- ----- -- --- ---- -- --- ---- -- ------ ------<br>--- ----- -- ----,162422.14500019327,162421.030000085,162023.378,162026.04999998584,162040.074,162456.783,,20,is
screen,html.Screen,1_1_0_1_21,2021-04-22T11:52:53.204Z,,,,,,,,,,,,,,,,53,,,,,,,,,,,,,,1656.7270000537974,,response,,,,99,,,,,,,Space,keypress(Space),,,,,,,,---- -- ----- -- ------ - ------- --- ----------<br>------------- ------ ------ ---- ---- ------- ----- -- ----<br>-------- ------- -- paramount. --- - --- ----- ----- ----<br>---- --- --- ----- --- ---- ---- ------- ----- ---- -------<br>--- --- -- ----- -- --- ---- -- --- ---- -- ------ ------<br>--- ----- -- ----,164114.61000004783,164113.5100000538,162440.076,162422.35000012442,162456.783,164123.146,,21,paramount.
screen,html.Screen,1_1_0_1_22,2021-04-22T11:52:53.597Z,,,,,,,,,,,,,,,,53,,,,,,,,,,,,,,384.05900014721556,,response,,,,99,,,,,,,Space,keypress(Space),,,,,,,,---- -- ----- -- ------ - ------- --- ----------<br>------------- ------ ------ ---- ---- ------- ----- -- ----<br>-------- ------- -- ---------- But - --- ----- ----- ----<br>---- --- --- ----- --- ---- ---- ------- ----- ---- -------<br>--- --- -- ----- -- --- ---- -- --- ---- -- ------ ------<br>--- ----- -- ----,164508.3000001032,164507.20500014722,164106.64,164114.80500013568,164123.146,164523.409,,22,But
screen,html.Screen,1_1_0_1_23,2021-04-22T11:52:53.874Z,,,,,,,,,,,,,,,,53,,,,,,,,,,,,,,260.64100013297866,,response,,,,99,,,,,,,Space,keypress(Space),,,,,,,,---- -- ----- -- ------ - ------- --- ----------<br>------------- ------ ------ ---- ---- ------- ----- -- ----<br>-------- ------- -- ---------- --- a --- ----- ----- ----<br>---- --- --- ----- --- ---- ---- ------- ----- ---- -------<br>--- --- -- ----- -- --- ---- -- --- ---- -- ------ ------<br>--- ----- -- ----,164785.25499999523,164784.050000133,164506.625,164508.47500003874,164523.409,164789.714,,23,a
screen,html.Screen,1_1_0_1_24,2021-04-22T11:52:54.249Z,,,,,,,,,,,,,,,,53,,,,,,,,,,,,,,369.62100020764046,,response,,,,99,,,,,,,Space,keypress(Space),,,,,,,,---- -- ----- -- ------ - ------- --- ----------<br>------------- ------ ------ ---- ---- ------- ----- -- ----<br>-------- ------- -- ---------- --- - new ----- ----- ----<br>---- --- --- ----- --- ---- ---- ------- ----- ---- -------<br>--- --- -- ----- -- --- ---- -- --- ---- -- ------ ------<br>--- ----- -- ----,165160.445000045,165159.33500020765,164773.079,164785.44000000693,164789.714,165173.438,,24,new
screen,html.Screen,1_1_0_1_25,2021-04-22T11:52:54.520Z,,,,,,,,,,,,,,,,53,,,,,,,,,,,,,,256.5720000109577,,response,,,,99,,,,,,,Space,keypress(Space),,,,,,,,---- -- ----- -- ------ - ------- --- ----------<br>------------- ------ ------ ---- ---- ------- ----- -- ----<br>-------- ------- -- ---------- --- - --- study ----- ----<br>---- --- --- ----- --- ---- ---- ------- ----- ---- -------<br>--- --- -- ----- -- --- ---- -- --- ---- -- ------ ------<br>--- ----- -- ----,165431.27500009723,165430.01000001095,165156.711,165160.64000013284,165173.438,165440.112,,25,study
screen,html.Screen,1_1_0_1_26,2021-04-22T11:52:54.825Z,,,,,,,,,,,,,,,,53,,,,,,,,,,,,,,294.7980001156393,,response,,,,99,,,,,,,Space,keypress(Space),,,,,,,,---- -- ----- -- ------ - ------- --- ----------<br>------------- ------ ------ ---- ---- ------- ----- -- ----<br>-------- ------- -- ---------- --- - --- ----- finds ----<br>---- --- --- ----- --- ---- ---- ------- ----- ---- -------<br>--- --- -- ----- -- --- ---- -- --- ---- -- ------ ------<br>--- ----- -- ----,165736.0650000628,165734.91000011563,165423.113,165431.4749999903,165440.112,165739.729,,26,finds
screen,html.Screen,1_1_0_1_27,2021-04-22T11:52:55.186Z,,,,,,,,,,,,,,,,53,,,,,,,,,,,,,,355.91599999397295,,response,,,,99,,,,,,,Space,keypress(Space),,,,,,,,---- -- ----- -- ------ - ------- --- ----------<br>------------- ------ ------ ---- ---- ------- ----- -- ----<br>-------- ------- -- ---------- --- - --- ----- ----- that<br>---- --- --- ----- --- ---- ---- ------- ----- ---- -------<br>--- --- -- ----- -- --- ---- -- --- ---- -- ------ ------<br>--- ----- -- ----,166096.85000008903,166095.64499999397,165723.457,165736.26000015065,165739.729,166106.826,,27,that
screen,html.Screen,1_1_0_1_28,2021-04-22T11:52:55.635Z,,,,,,,,,,,,,,,,53,,,,,,,,,,,,,,438.3590001700213,,response,,,,99,,,,,,,Space,keypress(Space),,,,,,,,---- -- ----- -- ------ - ------- --- ----------<br>------------- ------ ------ ---- ---- ------- ----- -- ----<br>-------- ------- -- ---------- --- - --- ----- ----- ----<br>it's --- --- ----- --- ---- ---- ------- ----- ---- -------<br>--- --- -- ----- -- --- ---- -- --- ---- -- ------ ------<br>--- ----- -- ----,166546.280000126,166545.18500017002,166090.017,166097.04999998212,166106.826,166556.811,,28,it's
screen,html.Screen,1_1_0_1_29,2021-04-22T11:52:55.872Z,,,,,,,,,,,,,,,,53,,,,,,,,,,,,,,224.8940002049785,,response,,,,99,,,,,,,Space,keypress(Space),,,,,,,,---- -- ----- -- ------ - ------- --- ----------<br>------------- ------ ------ ---- ---- ------- ----- -- ----<br>-------- ------- -- ---------- --- - --- ----- ----- ----<br>---- not --- ----- --- ---- ---- ------- ----- ---- -------<br>--- --- -- ----- -- --- ---- -- --- ---- -- ------ ------<br>--- ----- -- ----,166782.94500010088,166781.70500020497,166540.116,166546.47000017576,166556.811,166789.844,,29,not
screen,html.Screen,1_1_0_1_30,2021-04-22T11:52:56.166Z,,,,,,,,,,,,,,,,53,,,,,,,,,,,,,,286.12100008365815,,response,,,,99,,,,,,,Space,keypress(Space),,,,,,,,---- -- ----- -- ------ - ------- --- ----------<br>------------- ------ ------ ---- ---- ------- ----- -- ----<br>-------- ------- -- ---------- --- - --- ----- ----- ----<br>---- --- how ----- --- ---- ---- ------- ----- ---- -------<br>--- --- -- ----- -- --- ---- -- --- ---- -- ------ ------<br>--- ----- -- ----,167077.18500006013,167075.96500008367,166773.448,166783.15000003204,166789.844,167090.15,,30,how
screen,html.Screen,1_1_0_1_31,2021-04-22T11:52:56.482Z,,,,,,,,,,,,,,,,53,,,,,,,,,,,,,,302.36999999397085,,response,,,,99,,,,,,,Space,keypress(Space),,,,,,,,---- -- ----- -- ------ - ------- --- ----------<br>------------- ------ ------ ---- ---- ------- ----- -- ----<br>-------- ------- -- ---------- --- - --- ----- ----- ----<br>---- --- --- close --- ---- ---- ------- ----- ---- -------<br>--- --- -- ----- -- --- ---- -- --- ---- -- ------ ------<br>--- ----- -- ----,167393.60000006855,167392.51999999397,167073.407,167077.38999999128,167090.15,167406.845,,31,close
screen,html.Screen,1_1_0_1_32,2021-04-22T11:52:56.843Z,,,,,,,,,,,,,,,,53,,,,,,,,,,,,,,346.17500017836574,,response,,,,99,,,,,,,Space,keypress(Space),,,,,,,,---- -- ----- -- ------ - ------- --- ----------<br>------------- ------ ------ ---- ---- ------- ----- -- ----<br>-------- ------- -- ---------- --- - --- ----- ----- ----<br>---- --- --- ----- you ---- ---- ------- ----- ---- -------<br>--- --- -- ----- -- --- ---- -- --- ---- -- ------ ------<br>--- ----- -- ----,167754.18000016361,167753.02000017837,167389.886,167393.79000011832,167406.845,167756.471,,32,you
screen,html.Screen,1_1_0_1_33,2021-04-22T11:52:57.558Z,,,,,,,,,,,,,,,,53,,,,,,,,,,,,,,711.7589999985939,,response,,,,99,,,,,,,Space,keypress(Space),,,,,,,,---- -- ----- -- ------ - ------- --- ----------<br>------------- ------ ------ ---- ---- ------- ----- -- ----<br>-------- ------- -- ---------- --- - --- ----- ----- ----<br>---- --- --- ----- --- feel ---- ------- ----- ---- -------<br>--- --- -- ----- -- --- ---- -- --- ---- -- ------ ------<br>--- ----- -- ----,168469.3350000307,168468.22999999858,167740.161,167754.38500009477,167756.471,168473.073,,33,feel
screen,html.Screen,1_1_0_1_34,2021-04-22T11:52:57.852Z,,,,,,,,,,,,,,,,53,,,,,,,,,,,,,,287.13200017329655,,response,,,,99,,,,,,,Space,keypress(Space),,,,,,,,---- -- ----- -- ------ - ------- --- ----------<br>------------- ------ ------ ---- ---- ------- ----- -- ----<br>-------- ------- -- ---------- --- - --- ----- ----- ----<br>---- --- --- ----- --- ---- that ------- ----- ---- -------<br>--- --- -- ----- -- --- ---- -- --- ---- -- ------ ------<br>--- ----- -- ----,168763.06500006467,168760.2050001733,168456.71,168469.5350001566,168473.073,168773.07,,34,that
screen,html.Screen,1_1_0_1_35,2021-04-22T11:52:58.080Z,,,,,,,,,,,,,,,,53,,,,,,,,,,,,,,216.63000003463821,,response,,,,99,,,,,,,Space,keypress(Space),,,,,,,,---- -- ----- -- ------ - ------- --- ----------<br>------------- ------ ------ ---- ---- ------- ----- -- ----<br>-------- ------- -- ---------- --- - --- ----- ----- ----<br>---- --- --- ----- --- ---- ---- matters ----- ---- -------<br>--- --- -- ----- -- --- ---- -- --- ---- -- ------ ------<br>--- ----- -- ----,168990.92500004917,168989.70000003465,168756.707,168763.2600001525,168773.07,169006.841,,35,matters
screen,html.Screen,1_1_0_1_36,2021-04-22T11:52:58.746Z,,,,,,,,,,,,,,,,53,,,,,,,,,,,,,,648.8940000366711,,response,,,,99,,,,,,,Space,keypress(Space),,,,,,,,"---- -- ----- -- ------ - ------- --- ----------<br>------------- ------ ------ ---- ---- ------- ----- -- ----<br>-------- ------- -- ---------- --- - --- ----- ----- ----<br>---- --- --- ----- --- ---- ---- ------- most, ---- -------<br>--- --- -- ----- -- --- ---- -- --- ---- -- ------ ------<br>--- ----- -- ----",169656.96500008926,169655.73500003666,168990.154,168991.11000006087,169006.841,169673.496,,36,"most,"
screen,html.Screen,1_1_0_1_37,2021-04-22T11:52:59.041Z,,,,,,,,,,,,,,,,53,,,,,,,,,,,,,,277.26400015249965,,response,,,,99,,,,,,,Space,keypress(Space),,,,,,,,---- -- ----- -- ------ - ------- --- ----------<br>------------- ------ ------ ---- ---- ------- ----- -- ----<br>-------- ------- -- ---------- --- - --- ----- ----- ----<br>---- --- --- ----- --- ---- ---- ------- ----- it's -------<br>--- --- -- ----- -- --- ---- -- --- ---- -- ------ ------<br>--- ----- -- ----,169951.77000015974,169950.7600001525,169656.83,169657.1600001771,169673.496,169956.483,,37,it's
screen,html.Screen,1_1_0_1_38,2021-04-22T11:52:59.442Z,,,,,,,,,,,,,,,,53,,,,,,,,,,,,,,394.9620001530275,,response,,,,99,,,,,,,Space,keypress(Space),,,,,,,,---- -- ----- -- ------ - ------- --- ----------<br>------------- ------ ------ ---- ---- ------- ----- -- ----<br>-------- ------- -- ---------- --- - --- ----- ----- ----<br>---- --- --- ----- --- ---- ---- ------- ----- ---- whether<br>--- --- -- ----- -- --- ---- -- --- ---- -- ------ ------<br>--- ----- -- ----,170352.73500019684,170351.44500015303,169940.187,169951.95000013337,169956.483,170356.522,,38,whether
screen,html.Screen,1_1_0_1_39,2021-04-22T11:52:59.760Z,,,,,,,,,,,,,,,,53,,,,,,,,,,,,,,313.85800002503674,,response,,,,99,,,,,,,Space,keypress(Space),,,,,,,,---- -- ----- -- ------ - ------- --- ----------<br>------------- ------ ------ ---- ---- ------- ----- -- ----<br>-------- ------- -- ---------- --- - --- ----- ----- ----<br>---- --- --- ----- --- ---- ---- ------- ----- ---- -------<br>you --- -- ----- -- --- ---- -- --- ---- -- ------ ------<br>--- ----- -- ----,170671.45500006154,170670.38000002503,170340.073,170352.92500001378,170356.522,170694.448,,39,you
screen,html.Screen,1_1_0_1_40,2021-04-22T11:53:00.197Z,,,,,,,,,,,,,,,,53,,,,,,,,,,,,,,412.7570000075211,,response,,,,99,,,,,,,Space,keypress(Space),,,,,,,,---- -- ----- -- ------ - ------- --- ----------<br>------------- ------ ------ ---- ---- ------- ----- -- ----<br>-------- ------- -- ---------- --- - --- ----- ----- ----<br>---- --- --- ----- --- ---- ---- ------- ----- ---- -------<br>--- are -- ----- -- --- ---- -- --- ---- -- ------ ------<br>--- ----- -- ----,171108.1000000704,171107.20500000753,170656.833,170671.6450001113,170694.448,171123.559,,40,are
screen,html.Screen,1_1_0_1_41,2021-04-22T11:53:00.608Z,,,,,,,,,,,,,,,,53,,,,,,,,,,,,,,394.2059999968624,,response,,,,99,,,,,,,Space,keypress(Space),,,,,,,,---- -- ----- -- ------ - ------- --- ----------<br>------------- ------ ------ ---- ---- ------- ----- -- ----<br>-------- ------- -- ---------- --- - --- ----- ----- ----<br>---- --- --- ----- --- ---- ---- ------- ----- ---- -------<br>--- --- as ----- -- --- ---- -- --- ---- -- ------ ------<br>--- ----- -- ----,171518.84000003338,171517.76499999687,171106.823,171108.26500016265,171123.559,171523.233,,41,as
screen,html.Screen,1_1_0_1_42,2021-04-22T11:53:00.997Z,,,,,,,,,,,,,,,,53,,,,,,,,,,,,,,383.42700009513646,,response,,,,99,,,,,,,Space,keypress(Space),,,,,,,,---- -- ----- -- ------ - ------- --- ----------<br>------------- ------ ------ ---- ---- ------- ----- -- ----<br>-------- ------- -- ---------- --- - --- ----- ----- ----<br>---- --- --- ----- --- ---- ---- ------- ----- ---- -------<br>--- --- -- close -- --- ---- -- --- ---- -- ------ ------<br>--- ----- -- ----,171907.89999999106,171906.66000009514,171506.502,171519.03000008315,171523.233,171923.589,,42,close
screen,html.Screen,1_1_0_1_43,2021-04-22T11:53:01.312Z,,,,,,,,,,,,,,,,53,,,,,,,,,,,,,,298.7860001285153,,response,,,,99,,,,,,,Space,keypress(Space),,,,,,,,---- -- ----- -- ------ - ------- --- ----------<br>------------- ------ ------ ---- ---- ------- ----- -- ----<br>-------- ------- -- ---------- --- - --- ----- ----- ----<br>---- --- --- ----- --- ---- ---- ------- ----- ---- -------<br>--- --- -- ----- as --- ---- -- --- ---- -- ------ ------<br>--- ----- -- ----,172223.56500010937,172222.37500012852,171906.828,171908.10000011697,171923.589,172240.263,,43,as
screen,html.Screen,1_1_0_1_44,2021-04-22T11:53:01.699Z,,,,,,,,,,,,,,,,53,,,,,,,,,,,,,,368.97200009811786,,response,,,,99,,,,,,,Space,keypress(Space),,,,,,,,---- -- ----- -- ------ - ------- --- ----------<br>------------- ------ ------ ---- ---- ------- ----- -- ----<br>-------- ------- -- ---------- --- - --- ----- ----- ----<br>---- --- --- ----- --- ---- ---- ------- ----- ---- -------<br>--- --- -- ----- -- you ---- -- --- ---- -- ------ ------<br>--- ----- -- ----,172610.4400001932,172609.23500009812,172223.488,172223.76000019722,172240.263,172623.556,,44,you
screen,html.Screen,1_1_0_1_45,2021-04-22T11:53:02.070Z,,,,,,,,,,,,,,,,53,,,,,,,,,,,,,,356.15900013953797,,response,,,,99,,,,,,,Space,keypress(Space),,,,,,,,---- -- ----- -- ------ - ------- --- ----------<br>------------- ------ ------ ---- ---- ------- ----- -- ----<br>-------- ------- -- ---------- --- - --- ----- ----- ----<br>---- --- --- ----- --- ---- ---- ------- ----- ---- -------<br>--- --- -- ----- -- --- want -- --- ---- -- ------ ------<br>--- ----- -- ----,172980.98500003107,172979.71500013955,172606.744,172610.63000001013,172623.556,172989.954,,45,want
screen,html.Screen,1_1_0_1_46,2021-04-22T11:53:02.334Z,,,,,,,,,,,,,,,,53,,,,,,,,,,,,,,254.16100012502284,,response,,,,99,,,,,,,Space,keypress(Space),,,,,,,,---- -- ----- -- ------ - ------- --- ----------<br>------------- ------ ------ ---- ---- ------- ----- -- ----<br>-------- ------- -- ---------- --- - --- ----- ----- ----<br>---- --- --- ----- --- ---- ---- ------- ----- ---- -------<br>--- --- -- ----- -- --- ---- to --- ---- -- ------ ------<br>--- ----- -- ----,173245.3900000546,173244.11500012502,172973.468,172983.19000005722,172989.954,173256.583,,46,to
screen,html.Screen,1_1_0_1_47,2021-04-22T11:53:03.046Z,,,,,,,,,,,,,,,,53,,,,,,,,,,,,,,699.3470001710521,,response,,,,99,,,,,,,Space,keypress(Space),,,,,,,,"---- -- ----- -- ------ - ------- --- ----------<br>------------- ------ ------ ---- ---- ------- ----- -- ----<br>-------- ------- -- ---------- --- - --- ----- ----- ----<br>---- --- --- ----- --- ---- ---- ------- ----- ---- -------<br>--- --- -- ----- -- --- ---- -- be, ---- -- ------ ------<br>--- ----- -- ----",173957.1350000333,173955.93000017107,173240.237,173245.56000018492,173256.583,173973.631,,47,"be,"
screen,html.Screen,1_1_0_1_48,2021-04-22T11:53:03.362Z,,,,,,,,,,,,,,,,53,,,,,,,,,,,,,,297.7440000111819,,response,,,,99,,,,,,,Space,keypress(Space),,,,,,,,---- -- ----- -- ------ - ------- --- ----------<br>------------- ------ ------ ---- ---- ------- ----- -- ----<br>-------- ------- -- ---------- --- - --- ----- ----- ----<br>---- --- --- ----- --- ---- ---- ------- ----- ---- -------<br>--- --- -- ----- -- --- ---- -- --- even -- ------ ------<br>--- ----- -- ----,174272.6600000169,174271.37500001118,173956.774,173957.32500008307,173973.631,174290.277,,48,even
screen,html.Screen,1_1_0_1_49,2021-04-22T11:53:03.642Z,,,,,,,,,,,,,,,,53,,,,,,,,,,,,,,261.66300015035085,,response,,,,99,,,,,,,Space,keypress(Space),,,,,,,,---- -- ----- -- ------ - ------- --- ----------<br>------------- ------ ------ ---- ---- ------- ----- -- ----<br>-------- ------- -- ---------- --- - --- ----- ----- ----<br>---- --- --- ----- --- ---- ---- ------- ----- ---- -------<br>--- --- -- ----- -- --- ---- -- --- ---- if ------ ------<br>--- ----- -- ----,174552.9899999965,174551.94000015035,174273.222,174272.83999999054,174290.277,174556.616,,49,if
screen,html.Screen,1_1_0_1_50,2021-04-22T11:53:03.881Z,,,,,,,,,,,,,,,,53,,,,,,,,,,,,,,234.69900003858493,,response,,,,99,,,,,,,Space,keypress(Space),,,,,,,,---- -- ----- -- ------ - ------- --- ----------<br>------------- ------ ------ ---- ---- ------- ----- -- ----<br>-------- ------- -- ---------- --- - --- ----- ----- ----<br>---- --- --- ----- --- ---- ---- ------- ----- ---- -------<br>--- --- -- ----- -- --- ---- -- --- ---- -- that's ------<br>--- ----- -- ----,174792.56500001065,174791.3150000386,174540.083,174553.16500016488,174556.616,174806.603,,50,that's
screen,html.Screen,1_1_0_1_51,2021-04-22T11:53:04.257Z,,,,,,,,,,,,,,,,53,,,,,,,,,,,,,,360.82700014684815,,response,,,,99,,,,,,,Space,keypress(Space),,,,,,,,---- -- ----- -- ------ - ------- --- ----------<br>------------- ------ ------ ---- ---- ------- ----- -- ----<br>-------- ------- -- ---------- --- - --- ----- ----- ----<br>---- --- --- ----- --- ---- ---- ------- ----- ---- -------<br>--- --- -- ----- -- --- ---- -- --- ---- -- ------ really<br>--- ----- -- ----,175168.55500009842,175167.43000014685,174790.284,174792.74499998428,174806.603,175173.178,,51,really
screen,html.Screen,1_1_0_1_52,2021-04-22T11:53:04.588Z,,,,,,,,,,,,,,,,53,,,,,,,,,,,,,,324.7719999899273,,response,,,,99,,,,,,,Space,keypress(Space),,,,,,,,---- -- ----- -- ------ - ------- --- ----------<br>------------- ------ ------ ---- ---- ------- ----- -- ----<br>-------- ------- -- ---------- --- - --- ----- ----- ----<br>---- --- --- ----- --- ---- ---- ------- ----- ---- -------<br>--- --- -- ----- -- --- ---- -- --- ---- -- ------ ------<br>not ----- -- ----,175499.34500013478,175497.94999998994,175156.768,175168.8200000208,175173.178,175506.569,,52,not
screen,html.Screen,1_1_0_1_53,2021-04-22T11:53:04.908Z,,,,,,,,,,,,,,,,53,,,,,,,,,,,,,,311.72600012100884,,response,,,,99,,,,,,,Space,keypress(Space),,,,,,,,---- -- ----- -- ------ - ------- --- ----------<br>------------- ------ ------ ---- ---- ------- ----- -- ----<br>-------- ------- -- ---------- --- - --- ----- ----- ----<br>---- --- --- ----- --- ---- ---- ------- ----- ---- -------<br>--- --- -- ----- -- --- ---- -- --- ---- -- ------ ------<br>--- close -- ----,175819.51500009745,175818.295000121,175490.313,175499.5250001084,175506.569,175823.236,,53,close
screen,html.Screen,1_1_0_1_54,2021-04-22T11:53:05.183Z,,,,,,,,,,,,,,,,53,,,,,,,,,,,,,,269.3940000864968,,response,,,,99,,,,,,,Space,keypress(Space),,,,,,,,---- -- ----- -- ------ - ------- --- ----------<br>------------- ------ ------ ---- ---- ------- ----- -- ----<br>-------- ------- -- ---------- --- - --- ----- ----- ----<br>---- --- --- ----- --- ---- ---- ------- ----- ---- -------<br>--- --- -- ----- -- --- ---- -- --- ---- -- ------ ------<br>--- ----- at ----,176093.95000012591,176092.6300000865,175806.538,175819.69500007108,175823.236,176106.812,,54,at
screen,html.Screen,1_1_0_1_55,2021-04-22T11:53:05.448Z,,,,,,,,,,,,,,,,53,,,,,,,,,,,,,,251.1430001304543,,response,,,,99,,,,,,,Space,keypress(Space),,,,,,,,---- -- ----- -- ------ - ------- --- ----------<br>------------- ------ ------ ---- ---- ------- ----- -- ----<br>-------- ------- -- ---------- --- - --- ----- ----- ----<br>---- --- --- ----- --- ---- ---- ------- ----- ---- -------<br>--- --- -- ----- -- --- ---- -- --- ---- -- ------ ------<br>--- ----- -- all.,176359.09500019625,176357.95500013046,176090.266,176094.14000017568,176106.812,176373.251,,55,all.
Item 99,flow.Loop,1_1_0_1,2021-04-22T11:53:05.448Z,,,,,,,,,,,,,,,,,,,,,,,,,,,,,,26035.134000130463,,completion,,,,,D,,,,,,,,,,,silence,,,,,176359.4649999868,176357.95500013046,150289.932,150291.17500013672,150322.821,176373.251,,,
Question 1,html.Screen,1_1_0_2,2021-04-22T11:53:10.582Z,,,,,,,,,,,,,,,,,,,,,,,,,,,true,FALSE,,5117.279000068258,,response,,,,99,D,,,,,,FALSE,click #choice-2,,,,silence,,,,,181493.2900001295,181490.53000006825,176356.758,176359.61500019766,176373.251,181506.675,,,
Question 2,html.Screen,1_1_0_3,2021-04-22T11:53:17.540Z,,,,,,,,,,,,,,,,,,,,,,,,,,,true,TRUE,,6941.36500016303,,response,,,,99,D,,,,,,TRUE,click #choice-1,,,,silence,,,,,188451.10499998555,188448.04000016302,181490.301,181493.52500005625,181506.675,188456.717,,,
Item 99,flow.Sequence,1_1_0,2021-04-22T11:53:17.541Z,,,,,,,,,,,,,,,,,,,,,,,,,,,,,,48142.02800016303,,completion,,,,,,,,,,,,,,,,,,,,,188451.60000002943,188448.04000016302,140289.942,140309.73000009544,140306.012,188456.717,,,
Holding screen,html.Screen,1_1_1_0,2021-04-22T11:53:27.531Z,,,,,,,,,,,,,,,,,,,,,,,,,,,,,,10000.557,,timeout,,,,,,,,,,,,,,,,,,,,,198441.61000009626,198440.606,188440.134,188451.83500018902,188456.717,198457.274,,,
screen,html.Screen,1_1_1_1_0,2021-04-22T11:53:28.506Z,,,,,,,,,,,,,,,,54,,,,,,,,,,,,,,958.8560000268917,,response,,,,100,,,,,,,Space,keypress(Space),,,,,,,,At --- ---- --- ------ ----- ------- ---- -- --- ------- --<br>------- ---------- ------ -- ----- -- ----- -- ---- ------<br>--- ----- --- --- ------ -------- ----- --- ------ ----- --<br>----- ----- ---------- --- --- ------ ------ ---- -- ------<br>------- --- ------ ----- --- ---- ------- -- ---- --- --<br>------- ------,199417.4500000663,199416.1300000269,198440.606,198441.8500000611,198457.274,199423.539,,0,At
screen,html.Screen,1_1_1_1_1,2021-04-22T11:53:28.861Z,,,,,,,,,,,,,,,,54,,,,,,,,,,,,,,346.90600014745723,,response,,,,100,,,,,,,Space,keypress(Space),,,,,,,,-- the ---- --- ------ ----- ------- ---- -- --- ------- --<br>------- ---------- ------ -- ----- -- ----- -- ---- ------<br>--- ----- --- --- ------ -------- ----- --- ------ ----- --<br>----- ----- ---------- --- --- ------ ------ ---- -- ------<br>------- --- ------ ----- --- ---- ------- -- ---- --- --<br>------- ------,199771.70000015758,199770.44500014745,199407.169,199417.635000078,199423.539,199773.614,,1,the
screen,html.Screen,1_1_1_1_2,2021-04-22T11:53:29.126Z,,,,,,,,,,,,,,,,54,,,,,,,,,,,,,,261.6860001050518,,response,,,,100,,,,,,,Space,keypress(Space),,,,,,,,-- --- time --- ------ ----- ------- ---- -- --- ------- --<br>------- ---------- ------ -- ----- -- ----- -- ---- ------<br>--- ----- --- --- ------ -------- ----- --- ------ ----- --<br>----- ----- ---------- --- --- ------ ------ ---- -- ------<br>------- --- ------ ----- --- ---- ------- -- ---- --- --<br>------- ------,200036.56500019133,200035.30000010505,199757.277,199771.89000020735,199773.614,200040.219,,2,time
screen,html.Screen,1_1_1_1_3,2021-04-22T11:53:29.450Z,,,,,,,,,,,,,,,,54,,,,,,,,,,,,,,319.62600008634035,,response,,,,100,,,,,,,Space,keypress(Space),,,,,,,,-- --- ---- the ------ ----- ------- ---- -- --- ------- --<br>------- ---------- ------ -- ----- -- ----- -- ---- ------<br>--- ----- --- --- ------ -------- ----- --- ------ ----- --<br>----- ----- ---------- --- --- ------ ------ ---- -- ------<br>------- --- ------ ----- --- ---- ------- -- ---- --- --<br>------- ------,200361.01000010967,200359.84500008635,200024.002,200036.74000012688,200040.219,200374.027,,3,the
screen,html.Screen,1_1_1_1_4,2021-04-22T11:53:29.842Z,,,,,,,,,,,,,,,,54,,,,,,,,,,,,,,377.54800011846237,,response,,,,100,,,,,,,Space,keypress(Space),,,,,,,,-- --- ---- --- French ----- ------- ---- -- --- ------- --<br>------- ---------- ------ -- ----- -- ----- -- ---- ------<br>--- ----- --- --- ------ -------- ----- --- ------ ----- --<br>----- ----- ---------- --- --- ------ ------ ---- -- ------<br>------- --- ------ ----- --- ---- ------- -- ---- --- --<br>------- ------,200752.71500018425,200751.57500011846,200357.348,200361.18000000715,200374.027,200757.006,,4,French
screen,html.Screen,1_1_1_1_5,2021-04-22T11:53:30.215Z,,,,,,,,,,,,,,,,54,,,,,,,,,,,,,,368.21900008345256,,response,,,,100,,,,,,,Space,keypress(Space),,,,,,,,-- --- ---- --- ------ crown ------- ---- -- --- ------- --<br>------- ---------- ------ -- ----- -- ----- -- ---- ------<br>--- ----- --- --- ------ -------- ----- --- ------ ----- --<br>----- ----- ---------- --- --- ------ ------ ---- -- ------<br>------- --- ------ ----- --- ---- ------- -- ---- --- --<br>------- ------,201126.4950002078,201125.22500008345,200740.582,200752.8900001198,200757.006,201140.693,,5,crown
screen,html.Screen,1_1_1_1_6,2021-04-22T11:53:30.977Z,,,,,,,,,,,,,,,,54,,,,,,,,,,,,,,745.9670000765182,,response,,,,100,,,,,,,Space,keypress(Space),,,,,,,,-- --- ---- --- ------ ----- secured ---- -- --- ------- --<br>------- ---------- ------ -- ----- -- ----- -- ---- ------<br>--- ----- --- --- ------ -------- ----- --- ------ ----- --<br>----- ----- ---------- --- --- ------ ------ ---- -- ------<br>------- --- ------ ----- --- ---- ------- -- ---- --- --<br>------- ------,201887.83500017598,201886.66000007652,201123.913,201126.67000014335,201140.693,201890.328,,6,secured
screen,html.Screen,1_1_1_1_7,2021-04-22T11:53:31.453Z,,,,,,,,,,,,,,,,54,,,,,,,,,,,,,,472.49200015488896,,response,,,,100,,,,,,,Space,keypress(Space),,,,,,,,-- --- ---- --- ------ ----- ------- much -- --- ------- --<br>------- ---------- ------ -- ----- -- ----- -- ---- ------<br>--- ----- --- --- ------ -------- ----- --- ------ ----- --<br>----- ----- ---------- --- --- ------ ------ ---- -- ------<br>------- --- ------ ----- --- ---- ------- -- ---- --- --<br>------- ------,202364.00500009768,202362.8200001549,201873.869,201888.02499999292,201890.328,202373.998,,7,much
screen,html.Screen,1_1_1_1_8,2021-04-22T11:53:31.739Z,,,,,,,,,,,,,,,,54,,,,,,,,,,,,,,274.35200014864677,,response,,,,100,,,,,,,Space,keypress(Space),,,,,,,,-- --- ---- --- ------ ----- ------- ---- of --- ------- --<br>------- ---------- ------ -- ----- -- ----- -- ---- ------<br>--- ----- --- --- ------ -------- ----- --- ------ ----- --<br>----- ----- ---------- --- --- ------ ------ ---- -- ------<br>------- --- ------ ----- --- ---- ------- -- ---- --- --<br>------- ------,202649.62000004016,202648.35000014864,202357.302,202364.1850000713,202373.998,202657.074,,8,of
screen,html.Screen,1_1_1_1_9,2021-04-22T11:53:32.033Z,,,,,,,,,,,,,,,,54,,,,,,,,,,,,,,286.1160000199743,,response,,,,100,,,,,,,Space,keypress(Space),,,,,,,,-- --- ---- --- ------ ----- ------- ---- -- its ------- --<br>------- ---------- ------ -- ----- -- ----- -- ---- ------<br>--- ----- --- --- ------ -------- ----- --- ------ ----- --<br>----- ----- ---------- --- --- ------ ------ ---- -- ------<br>------- --- ------ ----- --- ---- ------- -- ---- --- --<br>------- ------,202944.42000007257,202943.19000001997,202640.637,202649.80000001378,202657.074,202957.341,,9,its
screen,html.Screen,1_1_1_1_10,2021-04-22T11:53:32.344Z,,,,,,,,,,,,,,,,54,,,,,,,,,,,,,,296.7290000245266,,response,,,,100,,,,,,,Space,keypress(Space),,,,,,,,-- --- ---- --- ------ ----- ------- ---- -- --- revenue --<br>------- ---------- ------ -- ----- -- ----- -- ---- ------<br>--- ----- --- --- ------ -------- ----- --- ------ ----- --<br>----- ----- ---------- --- --- ------ ------ ---- -- ------<br>------- --- ------ ----- --- ---- ------- -- ---- --- --<br>------- ------,203255.23000000976,203254.0700000245,202940.726,202944.60500008427,202957.341,203282.269,,10,revenue
screen,html.Screen,1_1_1_1_11,2021-04-22T11:53:34.152Z,,,,,,,,,,,,,,,,54,,,,,,,,,,,,,,1779.386000085011,,response,,,,100,,,,,,,Space,keypress(Space),,,,,,,,-- --- ---- --- ------ ----- ------- ---- -- --- ------- by<br>------- ---------- ------ -- ----- -- ----- -- ---- ------<br>--- ----- --- --- ------ -------- ----- --- ------ ----- --<br>----- ----- ---------- --- --- ------ ------ ---- -- ------<br>------- --- ------ ----- --- ---- ------- -- ---- --- --<br>------- ------,205062.75000004098,205061.655000085,203240.703,203255.40999998339,203282.269,205074.043,,11,by
screen,html.Screen,1_1_1_1_12,2021-04-22T11:53:34.556Z,,,,,,,,,,,,,,,,54,,,,,,,,,,,,,,392.15700014081085,,response,,,,100,,,,,,,Space,keypress(Space),,,,,,,,-- --- ---- --- ------ ----- ------- ---- -- --- ------- --<br>issuing ---------- ------ -- ----- -- ----- -- ---- ------<br>--- ----- --- --- ------ -------- ----- --- ------ ----- --<br>----- ----- ---------- --- --- ------ ------ ---- -- ------<br>------- --- ------ ----- --- ---- ------- -- ---- --- --<br>------- ------,205467.28500002064,205466.20000014082,205057.292,205062.9300000146,205074.043,205473.703,,12,issuing
screen,html.Screen,1_1_1_1_13,2021-04-22T11:53:35.013Z,,,,,,,,,,,,,,,,54,,,,,,,,,,,,,,448.76200006876024,,response,,,,100,,,,,,,Space,keypress(Space),,,,,,,,-- --- ---- --- ------ ----- ------- ---- -- --- ------- --<br>------- government ------ -- ----- -- ----- -- ---- ------<br>--- ----- --- --- ------ -------- ----- --- ------ ----- --<br>----- ----- ---------- --- --- ------ ------ ---- -- ------<br>------- --- ------ ----- --- ---- ------- -- ---- --- --<br>------- ------,205923.66500012577,205922.46500006877,205457.328,205467.46000018902,205473.703,205940.766,,13,government
screen,html.Screen,1_1_1_1_14,2021-04-22T11:53:35.895Z,,,,,,,,,,,,,,,,54,,,,,,,,,,,,,,863.7190002042917,,response,,,,100,,,,,,,Space,keypress(Space),,,,,,,,-- --- ---- --- ------ ----- ------- ---- -- --- ------- --<br>------- ---------- bonds. -- ----- -- ----- -- ---- ------<br>--- ----- --- --- ------ -------- ----- --- ------ ----- --<br>----- ----- ---------- --- --- ------ ------ ---- -- ------<br>------- --- ------ ----- --- ---- ------- -- ---- --- --<br>------- ------,206805.84500008263,206804.4850002043,205924.035,205923.86500001885,205940.766,206830.713,,14,bonds.
screen,html.Screen,1_1_1_1_15,2021-04-22T11:53:36.324Z,,,,,,,,,,,,,,,,54,,,,,,,,,,,,,,403.377000158187,,response,,,,100,,,,,,,Space,keypress(Space),,,,,,,,-- --- ---- --- ------ ----- ------- ---- -- --- ------- --<br>------- ---------- ------ In ----- -- ----- -- ---- ------<br>--- ----- --- --- ------ -------- ----- --- ------ ----- --<br>----- ----- ---------- --- --- ------ ------ ---- -- ------<br>------- --- ------ ----- --- ---- ------- -- ---- --- --<br>------- ------,207235.28999998234,207234.09000015818,206790.588,206806.0950001236,206830.713,207240.331,,15,In
screen,html.Screen,1_1_1_1_16,2021-04-22T11:53:36.563Z,,,,,,,,,,,,,,,,54,,,,,,,,,,,,,,232.7640000230167,,response,,,,100,,,,,,,Space,keypress(Space),,,,,,,,"-- --- ---- --- ------ ----- ------- ---- -- --- ------- --<br>------- ---------- ------ -- 1727, -- ----- -- ---- ------<br>--- ----- --- --- ------ -------- ----- --- ------ ----- --<br>----- ----- ---------- --- --- ------ ------ ---- -- ------<br>------- --- ------ ----- --- ---- ------- -- ---- --- --<br>------- ------",207474.37000018544,207473.09500002302,207223.71,207235.46500015073,207240.331,207490.736,,16,"1727,"
screen,html.Screen,1_1_1_1_17,2021-04-22T11:53:38.573Z,,,,,,,,,,,,,,,,54,,,,,,,,,,,,,,1991.8540001451329,,response,,,,100,,,,,,,Space,keypress(Space),,,,,,,,-- --- ---- --- ------ ----- ------- ---- -- --- ------- --<br>------- ---------- ------ -- ----- in ----- -- ---- ------<br>--- ----- --- --- ------ -------- ----- --- ------ ----- --<br>----- ----- ---------- --- --- ------ ------ ---- -- ------<br>------- --- ------ ----- --- ---- ------- -- ---- --- --<br>------- ------,209483.5950001143,209482.59000014514,207474.078,207474.55000015907,207490.736,209490.424,,17,in
screen,html.Screen,1_1_1_1_18,2021-04-22T11:53:38.963Z,,,,,,,,,,,,,,,,54,,,,,,,,,,,,,,382.101000013412,,response,,,,100,,,,,,,Space,keypress(Space),,,,,,,,-- --- ---- --- ------ ----- ------- ---- -- --- ------- --<br>------- ---------- ------ -- ----- -- order -- ---- ------<br>--- ----- --- --- ------ -------- ----- --- ------ ----- --<br>----- ----- ---------- --- --- ------ ------ ---- -- ------<br>------- --- ------ ----- --- ---- ------- -- ---- --- --<br>------- ------,209873.76000010408,209872.5250000134,209473.978,209483.76000020653,209490.424,209890.837,,18,order
screen,html.Screen,1_1_1_1_19,2021-04-22T11:53:40.114Z,,,,,,,,,,,,,,,,54,,,,,,,,,,,,,,1133.183000128076,,response,,,,100,,,,,,,Space,keypress(Space),,,,,,,,-- --- ---- --- ------ ----- ------- ---- -- --- ------- --<br>------- ---------- ------ -- ----- -- ----- to ---- ------<br>--- ----- --- --- ------ -------- ----- --- ------ ----- --<br>----- ----- ---------- --- --- ------ ------ ---- -- ------<br>------- --- ------ ----- --- ---- ------- -- ---- --- --<br>------- ------,211025.0750000123,211024.02000012808,209874.102,209873.95500019193,209890.837,211040.779,,19,to
screen,html.Screen,1_1_1_1_20,2021-04-22T11:53:40.510Z,,,,,,,,,,,,,,,,54,,,,,,,,,,,,,,378.761000148108,,response,,,,100,,,,,,,Space,keypress(Space),,,,,,,,-- --- ---- --- ------ ----- ------- ---- -- --- ------- --<br>------- ---------- ------ -- ----- -- ----- -- save ------<br>--- ----- --- --- ------ -------- ----- --- ------ ----- --<br>----- ----- ---------- --- --- ------ ------ ---- -- ------<br>------- --- ------ ----- --- ---- ------- -- ---- --- --<br>------- ------,211420.70000013337,211419.54000014812,211023.961,211025.25499998592,211040.779,211423.723,,20,save
screen,html.Screen,1_1_1_1_21,2021-04-22T11:53:41.510Z,,,,,,,,,,,,,,,,54,,,,,,,,,,,,,,996.0270001173485,,response,,,,100,,,,,,,Space,keypress(Space),,,,,,,,"-- --- ---- --- ------ ----- ------- ---- -- --- ------- --<br>------- ---------- ------ -- ----- -- ----- -- ---- money,<br>--- ----- --- --- ------ -------- ----- --- ------ ----- --<br>----- ----- ---------- --- --- ------ ------ ---- -- ------<br>------- --- ------ ----- --- ---- ------- -- ---- --- --<br>------- ------",212420.82500015385,212419.75000011735,211407.331,211420.90000002645,211423.723,212423.819,,21,"money,"
screen,html.Screen,1_1_1_1_22,2021-04-22T11:53:41.925Z,,,,,,,,,,,,,,,,54,,,,,,,,,,,,,,411.3810000886733,,response,,,,100,,,,,,,Space,keypress(Space),,,,,,,,-- --- ---- --- ------ ----- ------- ---- -- --- ------- --<br>------- ---------- ------ -- ----- -- ----- -- ---- ------<br>the ----- --- --- ------ -------- ----- --- ------ ----- --<br>----- ----- ---------- --- --- ------ ------ ---- -- ------<br>------- --- ------ ----- --- ---- ------- -- ---- --- --<br>------- ------,212836.30500012077,212835.20000008866,212407.491,212421.00500012748,212423.819,212840.513,,22,the
screen,html.Screen,1_1_1_1_23,2021-04-22T11:53:42.232Z,,,,,,,,,,,,,,,,54,,,,,,,,,,,,,,301.3470000906673,,response,,,,100,,,,,,,Space,keypress(Space),,,,,,,,-- --- ---- --- ------ ----- ------- ---- -- --- ------- --<br>------- ---------- ------ -- ----- -- ----- -- ---- ------<br>--- state --- --- ------ -------- ----- --- ------ ----- --<br>----- ----- ---------- --- --- ------ ------ ---- -- ------<br>------- --- ------ ----- --- ---- ------- -- ---- --- --<br>------- ------,213143.21500016376,213141.86000009067,212824.191,212836.48000005633,212840.513,213157.15,,23,state
screen,html.Screen,1_1_1_1_24,2021-04-22T11:53:42.737Z,,,,,,,,,,,,,,,,54,,,,,,,,,,,,,,490.12500011213706,,response,,,,100,,,,,,,Space,keypress(Space),,,,,,,,-- --- ---- --- ------ ----- ------- ---- -- --- ------- --<br>------- ---------- ------ -- ----- -- ----- -- ---- ------<br>--- ----- cut --- ------ -------- ----- --- ------ ----- --<br>----- ----- ---------- --- --- ------ ------ ---- -- ------<br>------- --- ------ ----- --- ---- ------- -- ---- --- --<br>------- ------,213648.4800002072,213647.27500011213,213140.921,213143.40000017546,213157.15,213657.487,,24,cut
screen,html.Screen,1_1_1_1_25,2021-04-22T11:53:43.113Z,,,,,,,,,,,,,,,,54,,,,,,,,,,,,,,365.4380001721147,,response,,,,100,,,,,,,Space,keypress(Space),,,,,,,,-- --- ---- --- ------ ----- ------- ---- -- --- ------- --<br>------- ---------- ------ -- ----- -- ----- -- ---- ------<br>--- ----- --- the ------ -------- ----- --- ------ ----- --<br>----- ----- ---------- --- --- ------ ------ ---- -- ------<br>------- --- ------ ----- --- ---- ------- -- ---- --- --<br>------- ------,214024.01500009,214022.9250001721,213640.666,213648.66000018083,213657.487,214040.825,,25,the
screen,html.Screen,1_1_1_1_26,2021-04-22T11:53:43.458Z,,,,,,,,,,,,,,,,54,,,,,,,,,,,,,,327.38499998598127,,response,,,,100,,,,,,,Space,keypress(Space),,,,,,,,-- --- ---- --- ------ ----- ------- ---- -- --- ------- --<br>------- ---------- ------ -- ----- -- ----- -- ---- ------<br>--- ----- --- --- bonds' -------- ----- --- ------ ----- --<br>----- ----- ---------- --- --- ------ ------ ---- -- ------<br>------- --- ------ ----- --- ---- ------- -- ---- --- --<br>------- ------,214369.38500008546,214368.209999986,214024.131,214024.19500006363,214040.825,214373.803,,26,bonds'
screen,html.Screen,1_1_1_1_27,2021-04-22T11:53:43.943Z,,,,,,,,,,,,,,,,54,,,,,,,,,,,,,,479.5870000620489,,response,,,,100,,,,,,,Space,keypress(Space),,,,,,,,-- --- ---- --- ------ ----- ------- ---- -- --- ------- --<br>------- ---------- ------ -- ----- -- ----- -- ---- ------<br>--- ----- --- --- ------ interest ----- --- ------ ----- --<br>----- ----- ---------- --- --- ------ ------ ---- -- ------<br>------- --- ------ ----- --- ---- ------- -- ---- --- --<br>------- ------,214854.49500009418,214853.39000006206,214357.377,214369.58500021137,214373.803,214857.192,,27,interest
screen,html.Screen,1_1_1_1_28,2021-04-22T11:53:44.830Z,,,,,,,,,,,,,,,,54,,,,,,,,,,,,,,882.7830000331451,,response,,,,100,,,,,,,Space,keypress(Space),,,,,,,,-- --- ---- --- ------ ----- ------- ---- -- --- ------- --<br>------- ---------- ------ -- ----- -- ----- -- ---- ------<br>--- ----- --- --- ------ -------- rate. --- ------ ----- --<br>----- ----- ---------- --- --- ------ ------ ---- -- ------<br>------- --- ------ ----- --- ---- ------- -- ---- --- --<br>------- ------,215741.05500010774,215739.97500003316,214840.874,214854.6750000678,214857.192,215757.525,,28,rate.
screen,html.Screen,1_1_1_1_29,2021-04-22T11:53:45.124Z,,,,,,,,,,,,,,,,54,,,,,,,,,,,,,,276.51500005685375,,response,,,,100,,,,,,,Space,keypress(Space),,,,,,,,-- --- ---- --- ------ ----- ------- ---- -- --- ------- --<br>------- ---------- ------ -- ----- -- ----- -- ---- ------<br>--- ----- --- --- ------ -------- ----- The ------ ----- --<br>----- ----- ---------- --- --- ------ ------ ---- -- ------<br>------- --- ------ ----- --- ---- ------- -- ---- --- --<br>------- ------,216035.3200000245,216034.04000005685,215740.822,215741.25000019558,215757.525,216040.526,,29,The
screen,html.Screen,1_1_1_1_30,2021-04-22T11:53:45.496Z,,,,,,,,,,,,,,,,54,,,,,,,,,,,,,,365.23900003224844,,response,,,,100,,,,,,,Space,keypress(Space),,,,,,,,-- --- ---- --- ------ ----- ------- ---- -- --- ------- --<br>------- ---------- ------ -- ----- -- ----- -- ---- ------<br>--- ----- --- --- ------ -------- ----- --- market ----- --<br>----- ----- ---------- --- --- ------ ------ ---- -- ------<br>------- --- ------ ----- --- ---- ------- -- ---- --- --<br>------- ------,216406.9600000512,216405.76500003226,216024.068,216035.49999999814,216040.526,216423.891,,30,market
screen,html.Screen,1_1_1_1_31,2021-04-22T11:53:45.882Z,,,,,,,,,,,,,,,,54,,,,,,,,,,,,,,367.96899999753805,,response,,,,100,,,,,,,Space,keypress(Space),,,,,,,,-- --- ---- --- ------ ----- ------- ---- -- --- ------- --<br>------- ---------- ------ -- ----- -- ----- -- ---- ------<br>--- ----- --- --- ------ -------- ----- --- ------ value --<br>----- ----- ---------- --- --- ------ ------ ---- -- ------<br>------- --- ------ ----- --- ---- ------- -- ---- --- --<br>------- ------,216792.72500006482,216791.85999999754,216407.566,216407.1400000248,216423.891,216807.581,,31,value
screen,html.Screen,1_1_1_1_32,2021-04-22T11:53:46.307Z,,,,,,,,,,,,,,,,54,,,,,,,,,,,,,,409.09400003240444,,response,,,,100,,,,,,,Space,keypress(Space),,,,,,,,-- --- ---- --- ------ ----- ------- ---- -- --- ------- --<br>------- ---------- ------ -- ----- -- ----- -- ---- ------<br>--- ----- --- --- ------ -------- ----- --- ------ ----- of<br>----- ----- ---------- --- --- ------ ------ ---- -- ------<br>------- --- ------ ----- --- ---- ------- -- ---- --- --<br>------- ------,217217.78000006452,217216.6750000324,216790.831,216792.8800000809,216807.581,217223.932,,32,of
screen,html.Screen,1_1_1_1_33,2021-04-22T11:53:46.562Z,,,,,,,,,,,,,,,,54,,,,,,,,,,,,,,248.23300015929271,,response,,,,100,,,,,,,Space,keypress(Space),,,,,,,,-- --- ---- --- ------ ----- ------- ---- -- --- ------- --<br>------- ---------- ------ -- ----- -- ----- -- ---- ------<br>--- ----- --- --- ------ -------- ----- --- ------ ----- --<br>these ----- ---------- --- --- ------ ------ ---- -- ------<br>------- --- ------ ----- --- ---- ------- -- ---- --- --<br>------- ------,217473.3300001826,217472.1650001593,217207.46,217217.96000003815,217223.932,217507.565,,33,these
screen,html.Screen,1_1_1_1_34,2021-04-22T11:53:46.882Z,,,,,,,,,,,,,,,,54,,,,,,,,,,,,,,284.6150001058704,,response,,,,100,,,,,,,Space,keypress(Space),,,,,,,,-- --- ---- --- ------ ----- ------- ---- -- --- ------- --<br>------- ---------- ------ -- ----- -- ----- -- ---- ------<br>--- ----- --- --- ------ -------- ----- --- ------ ----- --<br>----- bonds ---------- --- --- ------ ------ ---- -- ------<br>------- --- ------ ----- --- ---- ------- -- ---- --- --<br>------- ------,217793.24000002816,217792.18000010587,217490.891,217473.49500004202,217507.565,217807.313,,34,bonds
screen,html.Screen,1_1_1_1_35,2021-04-22T11:53:47.772Z,,,,,,,,,,,,,,,,54,,,,,,,,,,,,,,874.9269999946409,,response,,,,100,,,,,,,Space,keypress(Space),,,,,,,,"-- --- ---- --- ------ ----- ------- ---- -- --- ------- --<br>------- ---------- ------ -- ----- -- ----- -- ---- ------<br>--- ----- --- --- ------ -------- ----- --- ------ ----- --<br>----- ----- plummeted, --- --- ------ ------ ---- -- ------<br>------- --- ------ ----- --- ---- ------- -- ---- --- --<br>------- ------",218683.44000005163,218682.23999999464,217790.803,217793.41000015847,217807.313,218690.568,,35,"plummeted,"
screen,html.Screen,1_1_1_1_36,2021-04-22T11:53:48.149Z,,,,,,,,,,,,,,,,54,,,,,,,,,,,,,,367.9620000384457,,response,,,,100,,,,,,,Space,keypress(Space),,,,,,,,-- --- ---- --- ------ ----- ------- ---- -- --- ------- --<br>------- ---------- ------ -- ----- -- ----- -- ---- ------<br>--- ----- --- --- ------ -------- ----- --- ------ ----- --<br>----- ----- ---------- and --- ------ ------ ---- -- ------<br>------- --- ------ ----- --- ---- ------- -- ---- --- --<br>------- ------,219059.76500012912,219058.53000003844,218674.123,218683.61499998719,218690.568,219074.25,,36,and
screen,html.Screen,1_1_1_1_37,2021-04-22T11:53:48.554Z,,,,,,,,,,,,,,,,54,,,,,,,,,,,,,,389.40500008687377,,response,,,,100,,,,,,,Space,keypress(Space),,,,,,,,-- --- ---- --- ------ ----- ------- ---- -- --- ------- --<br>------- ---------- ------ -- ----- -- ----- -- ---- ------<br>--- ----- --- --- ------ -------- ----- --- ------ ----- --<br>----- ----- ---------- --- the ------ ------ ---- -- ------<br>------- --- ------ ----- --- ---- ------- -- ---- --- --<br>------- ------,219464.74500000477,219463.65500008687,219057.243,219059.9350000266,219074.25,219474.171,,37,the
screen,html.Screen,1_1_1_1_38,2021-04-22T11:53:48.857Z,,,,,,,,,,,,,,,,54,,,,,,,,,,,,,,292.4890001975873,,response,,,,100,,,,,,,Space,keypress(Space),,,,,,,,-- --- ---- --- ------ ----- ------- ---- -- --- ------- --<br>------- ---------- ------ -- ----- -- ----- -- ---- ------<br>--- ----- --- --- ------ -------- ----- --- ------ ----- --<br>----- ----- ---------- --- --- market ------ ---- -- ------<br>------- --- ------ ----- --- ---- ------- -- ---- --- --<br>------- ------,219767.77500007302,219766.6600001976,219457.486,219464.92000017315,219474.171,219773.949,,38,market
screen,html.Screen,1_1_1_1_39,2021-04-22T11:53:49.576Z,,,,,,,,,,,,,,,,54,,,,,,,,,,,,,,711.9360000891902,,response,,,,100,,,,,,,Space,keypress(Space),,,,,,,,-- --- ---- --- ------ ----- ------- ---- -- --- ------- --<br>------- ---------- ------ -- ----- -- ----- -- ---- ------<br>--- ----- --- --- ------ -------- ----- --- ------ ----- --<br>----- ----- ---------- --- --- ------ became ---- -- ------<br>------- --- ------ ----- --- ---- ------- -- ---- --- --<br>------- ------,220487.07500007004,220485.88500008918,219757.536,219768.00000015646,219773.949,220490.573,,39,became
screen,html.Screen,1_1_1_1_40,2021-04-22T11:53:49.863Z,,,,,,,,,,,,,,,,54,,,,,,,,,,,,,,281.86700020436547,,response,,,,100,,,,,,,Space,keypress(Space),,,,,,,,-- --- ---- --- ------ ----- ------- ---- -- --- ------- --<br>------- ---------- ------ -- ----- -- ----- -- ---- ------<br>--- ----- --- --- ------ -------- ----- --- ------ ----- --<br>----- ----- ---------- --- --- ------ ------ wary -- ------<br>------- --- ------ ----- --- ---- ------- -- ---- --- --<br>------- ------,220773.75000016764,220772.44000020437,220474.246,220487.2650001198,220490.573,220790.989,,40,wary
screen,html.Screen,1_1_1_1_41,2021-04-22T11:53:50.247Z,,,,,,,,,,,,,,,,54,,,,,,,,,,,,,,365.6710000951425,,response,,,,100,,,,,,,Space,keypress(Space),,,,,,,,-- --- ---- --- ------ ----- ------- ---- -- --- ------- --<br>------- ---------- ------ -- ----- -- ----- -- ---- ------<br>--- ----- --- --- ------ -------- ----- --- ------ ----- --<br>----- ----- ---------- --- --- ------ ------ ---- of ------<br>------- --- ------ ----- --- ---- ------- -- ---- --- --<br>------- ------,221157.76000008918,221156.66000009514,220774.306,220773.93500017934,220790.989,221174.348,,41,of
screen,html.Screen,1_1_1_1_42,2021-04-22T11:53:50.768Z,,,,,,,,,,,,,,,,54,,,,,,,,,,,,,,503.00200001266785,,response,,,,100,,,,,,,Space,keypress(Space),,,,,,,,-- --- ---- --- ------ ----- ------- ---- -- --- ------- --<br>------- ---------- ------ -- ----- -- ----- -- ---- ------<br>--- ----- --- --- ------ -------- ----- --- ------ ----- --<br>----- ----- ---------- --- --- ------ ------ ---- -- French<br>------- --- ------ ----- --- ---- ------- -- ---- --- --<br>------- ------,221678.5750000272,221677.35000001267,221157.476,221157.94500010088,221174.348,221690.955,,42,French
screen,html.Screen,1_1_1_1_43,2021-04-22T11:53:52.134Z,,,,,,,,,,,,,,,,54,,,,,,,,,,,,,,1352.8700000588724,,response,,,,100,,,,,,,Space,keypress(Space),,,,,,,,-- --- ---- --- ------ ----- ------- ---- -- --- ------- --<br>------- ---------- ------ -- ----- -- ----- -- ---- ------<br>--- ----- --- --- ------ -------- ----- --- ------ ----- --<br>----- ----- ---------- --- --- ------ ------ ---- -- ------<br>credit. --- ------ ----- --- ---- ------- -- ---- --- --<br>------- ------,223044.91500020958,223043.82500005886,221674.176,221678.7600000389,221690.955,223057.676,,43,credit.
screen,html.Screen,1_1_1_1_44,2021-04-22T11:53:52.514Z,,,,,,,,,,,,,,,,54,,,,,,,,,,,,,,365.90400017701904,,response,,,,100,,,,,,,Space,keypress(Space),,,,,,,,-- --- ---- --- ------ ----- ------- ---- -- --- ------- --<br>------- ---------- ------ -- ----- -- ----- -- ---- ------<br>--- ----- --- --- ------ -------- ----- --- ------ ----- --<br>----- ----- ---------- --- --- ------ ------ ---- -- ------<br>------- The ------ ----- --- ---- ------- -- ---- --- --<br>------- ------,223425.00000004657,223423.58000017703,223040.787,223045.10500002652,223057.676,223441.104,,44,The
screen,html.Screen,1_1_1_1_45,2021-04-22T11:53:53.085Z,,,,,,,,,,,,,,,,54,,,,,,,,,,,,,,553.1060001499136,,response,,,,100,,,,,,,Space,keypress(Space),,,,,,,,-- --- ---- --- ------ ----- ------- ---- -- --- ------- --<br>------- ---------- ------ -- ----- -- ----- -- ---- ------<br>--- ----- --- --- ------ -------- ----- --- ------ ----- --<br>----- ----- ---------- --- --- ------ ------ ---- -- ------<br>------- --- French ----- --- ---- ------- -- ---- --- --<br>------- ------,223995.55000010878,223994.2100001499,223424.31,223425.20500021055,223441.104,224007.668,,45,French
screen,html.Screen,1_1_1_1_46,2021-04-22T11:53:53.696Z,,,,,,,,,,,,,,,,54,,,,,,,,,,,,,,598.1820001672604,,response,,,,100,,,,,,,Space,keypress(Space),,,,,,,,-- --- ---- --- ------ ----- ------- ---- -- --- ------- --<br>------- ---------- ------ -- ----- -- ----- -- ---- ------<br>--- ----- --- --- ------ -------- ----- --- ------ ----- --<br>----- ----- ---------- --- --- ------ ------ ---- -- ------<br>------- --- ------ state --- ---- ------- -- ---- --- --<br>------- ------,224607.07999998704,224605.85000016727,223990.826,223995.8250001073,224007.668,224624.328,,46,state
screen,html.Screen,1_1_1_1_47,2021-04-22T11:53:54.130Z,,,,,,,,,,,,,,,,54,,,,,,,,,,,,,,416.07700009431574,,response,,,,100,,,,,,,Space,keypress(Space),,,,,,,,-- --- ---- --- ------ ----- ------- ---- -- --- ------- --<br>------- ---------- ------ -- ----- -- ----- -- ---- ------<br>--- ----- --- --- ------ -------- ----- --- ------ ----- --<br>----- ----- ---------- --- --- ------ ------ ---- -- ------<br>------- --- ------ ----- was ---- ------- -- ---- --- --<br>------- ------,225041.50500008836,225040.40500009432,224607.564,224607.30500007048,224624.328,225057.693,,47,was
screen,html.Screen,1_1_1_1_48,2021-04-22T11:53:54.551Z,,,,,,,,,,,,,,,,54,,,,,,,,,,,,,,403.30700012666057,,response,,,,100,,,,,,,Space,keypress(Space),,,,,,,,-- --- ---- --- ------ ----- ------- ---- -- --- ------- --<br>------- ---------- ------ -- ----- -- ----- -- ---- ------<br>--- ----- --- --- ------ -------- ----- --- ------ ----- --<br>----- ----- ---------- --- --- ------ ------ ---- -- ------<br>------- --- ------ ----- --- left ------- -- ---- --- --<br>------- ------,225462.06500008702,225461.00000012666,225041.194,225041.72500013374,225057.693,225474.353,,48,left
screen,html.Screen,1_1_1_1_49,2021-04-22T11:53:55.344Z,,,,,,,,,,,,,,,,54,,,,,,,,,,,,,,779.732000138727,,response,,,,100,,,,,,,Space,keypress(Space),,,,,,,,-- --- ---- --- ------ ----- ------- ---- -- --- ------- --<br>------- ---------- ------ -- ----- -- ----- -- ---- ------<br>--- ----- --- --- ------ -------- ----- --- ------ ----- --<br>----- ----- ---------- --- --- ------ ------ ---- -- ------<br>------- --- ------ ----- --- ---- without -- ---- --- --<br>------- ------,226255.44000021182,226254.08500013873,225457.458,225462.31000008993,225474.353,226281.189,,49,without
screen,html.Screen,1_1_1_1_50,2021-04-22T11:53:55.754Z,,,,,,,,,,,,,,,,54,,,,,,,,,,,,,,382.8010000300128,,response,,,,100,,,,,,,Space,keypress(Space),,,,,,,,-- --- ---- --- ------ ----- ------- ---- -- --- ------- --<br>------- ---------- ------ -- ----- -- ----- -- ---- ------<br>--- ----- --- --- ------ -------- ----- --- ------ ----- --<br>----- ----- ---------- --- --- ------ ------ ---- -- ------<br>------- --- ------ ----- --- ---- ------- an ---- --- --<br>------- ------,226665.45000020415,226663.99000003003,226240.981,226255.6400001049,226281.189,226674.005,,50,an
screen,html.Screen,1_1_1_1_51,2021-04-22T11:53:56.134Z,,,,,,,,,,,,,,,,54,,,,,,,,,,,,,,370.27500003098976,,response,,,,100,,,,,,,Space,keypress(Space),,,,,,,,-- --- ---- --- ------ ----- ------- ---- -- --- ------- --<br>------- ---------- ------ -- ----- -- ----- -- ---- ------<br>--- ----- --- --- ------ -------- ----- --- ------ ----- --<br>----- ----- ---------- --- --- ------ ------ ---- -- ------<br>------- --- ------ ----- --- ---- ------- -- easy --- --<br>------- ------,227045.5400000792,227044.280000031,226657.32,226665.6550001353,226674.005,227057.742,,51,easy
screen,html.Screen,1_1_1_1_52,2021-04-22T11:53:56.470Z,,,,,,,,,,,,,,,,54,,,,,,,,,,,,,,322.0780001474486,,response,,,,100,,,,,,,Space,keypress(Space),,,,,,,,-- --- ---- --- ------ ----- ------- ---- -- --- ------- --<br>------- ---------- ------ -- ----- -- ----- -- ---- ------<br>--- ----- --- --- ------ -------- ----- --- ------ ----- --<br>----- ----- ---------- --- --- ------ ------ ---- -- ------<br>------- --- ------ ----- --- ---- ------- -- ---- way --<br>------- ------,227381.32500019856,227379.82000014745,227040.779,227045.7400002051,227057.742,227391.071,,52,way
screen,html.Screen,1_1_1_1_53,2021-04-22T11:53:56.821Z,,,,,,,,,,,,,,,,54,,,,,,,,,,,,,,339.5240000882186,,response,,,,100,,,,,,,Space,keypress(Space),,,,,,,,-- --- ---- --- ------ ----- ------- ---- -- --- ------- --<br>------- ---------- ------ -- ----- -- ----- -- ---- ------<br>--- ----- --- --- ------ -------- ----- --- ------ ----- --<br>----- ----- ---------- --- --- ------ ------ ---- -- ------<br>------- --- ------ ----- --- ---- ------- -- ---- --- of<br>------- ------,227731.71000019647,227730.59500008821,227374.097,227381.56000012532,227391.071,227741.007,,53,of
screen,html.Screen,1_1_1_1_54,2021-04-22T11:53:57.211Z,,,,,,,,,,,,,,,,54,,,,,,,,,,,,,,379.91300013216096,,response,,,,100,,,,,,,Space,keypress(Space),,,,,,,,-- --- ---- --- ------ ----- ------- ---- -- --- ------- --<br>------- ---------- ------ -- ----- -- ----- -- ---- ------<br>--- ----- --- --- ------ -------- ----- --- ------ ----- --<br>----- ----- ---------- --- --- ------ ------ ---- -- ------<br>------- --- ------ ----- --- ---- ------- -- ---- --- --<br>raising ------,228121.960000135,228120.92000013217,227724.087,227731.88500013202,227741.007,228124.043,,54,raising
screen,html.Screen,1_1_1_1_55,2021-04-22T11:53:57.642Z,,,,,,,,,,,,,,,,54,,,,,,,,,,,,,,427.1770000230172,,response,,,,100,,,,,,,Space,keypress(Space),,,,,,,,-- --- ---- --- ------ ----- ------- ---- -- --- ------- --<br>------- ---------- ------ -- ----- -- ----- -- ---- ------<br>--- ----- --- --- ------ -------- ----- --- ------ ----- --<br>----- ----- ---------- --- --- ------ ------ ---- -- ------<br>------- --- ------ ----- --- ---- ------- -- ---- --- --<br>------- money.,228552.6100001298,228551.22000002302,228107.403,228122.13500007056,228124.043,228557.375,,55,money.
Item 100,flow.Loop,1_1_1_1,2021-04-22T11:53:57.642Z,,,,,,,,,,,,,,,,,,,,,,,,,,,,,,30093.946000023017,,completion,,,,,D,,,,,,,,,,,silence,,,,,228553.06000006385,228551.22000002302,198440.606,198441.79500010796,198457.274,228557.375,,,
Question 1,html.Screen,1_1_1_2,2021-04-22T11:54:03.647Z,,,,,,,,,,,,,,,,,,,,,,,,,,,true,TRUE,,5997.595000172034,,response,,,,100,D,,,,,,TRUE,click #choice-1,,,,silence,,,,,234557.66000016592,234554.97000017203,228541.075,228553.21500007994,228557.375,234557.479,,,
Question 2,html.Screen,1_1_1_3,2021-04-22T11:54:07.643Z,,,,,,,,,,,,,,,,,,,,,,,,,,,true,FALSE,,3993.6610001123627,,response,,,,100,D,,,,,,FALSE,click #choice-2,,,,silence,,,,,238553.70000004768,238551.14000011235,234541.233,234557.98000004143,234557.479,238557.569,,,
Item 100,flow.Sequence,1_1_1,2021-04-22T11:54:07.643Z,,,,,,,,,,,,,,,,,,,,,,,,,,,,,,50094.42300011235,,completion,,,,,,,,,,,,,,,,,,,,,238554.10500010476,238551.14000011235,188440.134,188451.78500004113,188456.717,238557.569,,,
End of Practice,html.Page,1_1_2,2021-04-22T11:54:12.118Z,,,,,,,,,,,,,,,,,,,,,,,,,,,,,,4470.811000032496,,form submission,,,,,,,,,,,,,,,,,,,,,243029.3200002052,243028.38000003248,238540.849,238554.33499999344,238557.569,243040.99,,,
Practice,flow.Sequence,1_1,2021-04-22T11:54:12.119Z,,,,,,,,,,,,,,,,,,,,,,,,,,,,,,102722.3680000325,,completion,,,,,,,,,,,,,,,,,,,,,243029.80000013486,243028.38000003248,140289.942,140309.64000010863,140306.012,243040.99,,,
Trap_instruction,html.Page,1_2_0,2021-04-22T11:54:32.115Z,,,,,,,,,,,,,,,,,,,,,,,,,,,,,,20000.609999999986,,timeout,,,,,,,,,,,,,,,,,,,,,263025.98999999464,263024.901,243024.471,243030.03000002354,243040.99,263041.6,,,
trap_trial,html.Screen,1_2_1,2021-04-22T11:54:36.145Z,,,,,,,,,,,,,,,,,,,,,,,,,,,true,1,,4011.09000004048,,response,,,,,,,,,,,1,click #choice-1,,,,,,,,,267055.64500018954,267052.69000004046,263024.901,263026.165000163,263041.6,267058.02,,,
end of trap trial,html.Page,1_2_2,2021-04-22T11:54:38.856Z,,,,,,,,,,,,,,,,,,,,,,,,,,,,,,2708.4350000335835,,form submission,,,,,,,,,,,,,,,,,,,,,269767.46000000276,269766.4550000336,267041.6,267055.86000019684,267058.02,269774.621,,,
Trap 1,flow.Sequence,1_2,2021-04-22T11:54:38.857Z,,,,,,,,,,,,,,,,,,,,,,,,,,,,,,26725.46500003361,,completion,,,,,,,,,,,,,,,,,,,,,269767.9150002077,269766.4550000336,243024.471,243029.98000010848,243040.99,269774.621,,,
Standby,html.Page,1_3_0,2021-04-22T11:54:46.849Z,,,,,,,,,,,,,,,,,,,,,,,,,,,,,,8000.507000000041,,timeout,,,,,,,,,,,,,,,,,,,,,277759.61500010453,277758.522,269758.308,269768.3300001081,269774.621,277775.128,,,
Holding screen,html.Screen,1_3_1_0_0,2021-04-22T11:54:53.849Z,,,,,,,,,,,,,,,,,,,,,,,,,,,,,,7000.103000000003,,timeout,,,,,,,,,,,,,,,,,,,,,284759.52000007965,284758.583,277758.522,277759.9049999844,277775.128,284775.231,,,
screen,html.Screen,1_3_1_0_1_0,2021-04-22T11:54:55.118Z,,,,,,,,,,,,,,,,11,,,,,,,,,,,,,,1252.3290000749985,,response,,,,4,D,,,,,,Space,keypress(Space),,,,silence,,,,Known -- ---- --- -- --- -------- ------------ ---------- --<br>- ------- ------ --------- -- ------------ -- --- ---- -----<br>------ ---- ---- ------ ------ ------- --- ----- ---------<br>---- --- -------- -------- --- --- -- ------- --- --- -----<br>-- --- ------ ------- --- --- -------- ---- --------- --<br>---------- -- -------- ----------------,286028.8250001613,286027.560000075,284758.583,284759.7600000445,284775.231,286041.969,,0,Known
screen,html.Screen,1_3_1_0_1_1,2021-04-22T11:54:55.576Z,,,,,,,,,,,,,,,,11,,,,,,,,,,,,,,443.79600010678405,,response,,,,4,D,,,,,,Space,keypress(Space),,,,silence,,,,----- as ---- --- -- --- -------- ------------ ---------- --<br>- ------- ------ --------- -- ------------ -- --- ---- -----<br>------ ---- ---- ------ ------ ------- --- ----- ---------<br>---- --- -------- -------- --- --- -- ------- --- --- -----<br>-- --- ------ ------- --- --- -------- ---- --------- --<br>---------- -- -------- ----------------,286486.9750000071,286485.76500010677,286025.04,286029.0200000163,286041.969,286491.616,,1,as
screen,html.Screen,1_3_1_0_1_2,2021-04-22T11:54:56.177Z,,,,,,,,,,,,,,,,11,,,,,,,,,,,,,,594.8790001705638,,response,,,,4,D,,,,,,Space,keypress(Space),,,,silence,,,,----- -- Rapa --- -- --- -------- ------------ ---------- --<br>- ------- ------ --------- -- ------------ -- --- ---- -----<br>------ ---- ---- ------ ------ ------- --- ----- ---------<br>---- --- -------- -------- --- --- -- ------- --- --- -----<br>-- --- ------ ------- --- --- -------- ---- --------- --<br>---------- -- -------- ----------------,287087.70500007086,287086.49500017054,286475.176,286487.16500005685,286491.616,287091.65,,2,Rapa
screen,html.Screen,1_3_1_0_1_3,2021-04-22T11:54:56.948Z,,,,,,,,,,,,,,,,11,,,,,,,,,,,,,,766.5850001670187,,response,,,,4,D,,,,,,Space,keypress(Space),,,,silence,,,,----- -- ---- Nui -- --- -------- ------------ ---------- --<br>- ------- ------ --------- -- ------------ -- --- ---- -----<br>------ ---- ---- ------ ------ ------- --- ----- ---------<br>---- --- -------- -------- --- --- -- ------- --- --- -----<br>-- --- ------ ------- --- --- -------- ---- --------- --<br>---------- -- -------- ----------------,287859.375,287858.23500016704,287075.315,287087.8850000445,287091.65,287875.293,,3,Nui
screen,html.Screen,1_3_1_0_1_4,2021-04-22T11:54:57.549Z,,,,,,,,,,,,,,,,11,,,,,,,,,,,,,,583.0170001327642,,response,,,,4,D,,,,,,Space,keypress(Space),,,,silence,,,,----- -- ---- --- to --- -------- ------------ ---------- --<br>- ------- ------ --------- -- ------------ -- --- ---- -----<br>------ ---- ---- ------ ------ ------- --- ----- ---------<br>---- --- -------- -------- --- --- -- ------- --- --- -----<br>-- --- ------ ------- --- --- -------- ---- --------- --<br>---------- -- -------- ----------------,288459.52500007115,288458.31000013277,287858.583,287859.55500020646,287875.293,288475.337,,4,to
screen,html.Screen,1_3_1_0_1_5,2021-04-22T11:54:57.894Z,,,,,,,,,,,,,,,,11,,,,,,,,,,,,,,328.1030001633917,,response,,,,4,D,,,,,,Space,keypress(Space),,,,silence,,,,----- -- ---- --- -- the -------- ------------ ---------- --<br>- ------- ------ --------- -- ------------ -- --- ---- -----<br>------ ---- ---- ------ ------ ------- --- ----- ---------<br>---- --- -------- -------- --- --- -- ------- --- --- -----<br>-- --- ------ ------- --- --- -------- ---- --------- --<br>---------- -- -------- ----------------,288804.7000002116,288803.4400001634,288458.498,288459.71000008285,288475.337,288808.22,,5,the
screen,html.Screen,1_3_1_0_1_6,2021-04-22T11:54:58.334Z,,,,,,,,,,,,,,,,11,,,,,,,,,,,,,,435.4550000343006,,response,,,,4,D,,,,,,Space,keypress(Space),,,,silence,,,,----- -- ---- --- -- --- island's ------------ ---------- --<br>- ------- ------ --------- -- ------------ -- --- ---- -----<br>------ ---- ---- ------ ------ ------- --- ----- ---------<br>---- --- -------- -------- --- --- -- ------- --- --- -----<br>-- --- ------ ------- --- --- -------- ---- --------- --<br>---------- -- -------- ----------------,289244.810000062,289243.6750000343,288791.573,288804.87500014715,288808.22,289258.277,,6,island's
screen,html.Screen,1_3_1_0_1_7,2021-04-22T11:54:59.505Z,,,,,,,,,,,,,,,,11,,,,,,,,,,,,,,1156.0630001339596,,response,,,,4,D,,,,,,Space,keypress(Space),,,,silence,,,,"----- -- ---- --- -- --- -------- inhabitants, ---------- --<br>- ------- ------ --------- -- ------------ -- --- ---- -----<br>------ ---- ---- ------ ------ ------- --- ----- ---------<br>---- --- -------- -------- --- --- -- ------- --- --- -----<br>-- --- ------ ------- --- --- -------- ---- --------- --<br>---------- -- -------- ----------------",290415.485000005,290414.34000013396,289242.004,289244.9950000737,289258.277,290425.319,,7,"inhabitants,"
screen,html.Screen,1_3_1_0_1_8,2021-04-22T11:55:00.943Z,,,,,,,,,,,,,,,,11,,,,,,,,,,,,,,1427.540999984485,,response,,,,4,D,,,,,,Space,keypress(Space),,,,silence,,,,----- -- ---- --- -- --- -------- ------------ Rongorongo --<br>- ------- ------ --------- -- ------------ -- --- ---- -----<br>------ ---- ---- ------ ------ ------- --- ----- ---------<br>---- --- -------- -------- --- --- -- ------- --- --- -----<br>-- --- ------ ------- --- --- -------- ---- --------- --<br>---------- -- -------- ----------------,291854.1250000708,291852.8599999845,290408.495,290415.66500021145,290425.319,291858.255,,8,Rongorongo
screen,html.Screen,1_3_1_0_1_9,2021-04-22T11:55:01.377Z,,,,,,,,,,,,,,,,11,,,,,,,,,,,,,,428.5250001986278,,response,,,,4,D,,,,,,Space,keypress(Space),,,,silence,,,,----- -- ---- --- -- --- -------- ------------ ---------- is<br>- ------- ------ --------- -- ------------ -- --- ---- -----<br>------ ---- ---- ------ ------ ------- --- ----- ---------<br>---- --- -------- -------- --- --- -- ------- --- --- -----<br>-- --- ------ ------- --- --- -------- ---- --------- --<br>---------- -- -------- ----------------,292288.03500020877,292286.78000019863,291841.816,291854.3050000444,291858.255,292291.612,,9,is
screen,html.Screen,1_3_1_0_1_10,2021-04-22T11:55:01.764Z,,,,,,,,,,,,,,,,11,,,,,,,,,,,,,,381.86800011404557,,response,,,,4,D,,,,,,Space,keypress(Space),,,,silence,,,,----- -- ---- --- -- --- -------- ------------ ---------- --<br>a ------- ------ --------- -- ------------ -- --- ---- -----<br>------ ---- ---- ------ ------ ------- --- ----- ---------<br>---- --- -------- -------- --- --- -- ------- --- --- -----<br>-- --- ------ ------- --- --- -------- ---- --------- --<br>---------- -- -------- ----------------,292674.8000001535,292673.48000011407,292275.423,292288.2100001443,292291.612,292692.019,,10,a
screen,html.Screen,1_3_1_0_1_11,2021-04-22T11:55:02.455Z,,,,,,,,,,,,,,,,11,,,,,,,,,,,,,,672.4110000742367,,response,,,,4,D,,,,,,Space,keypress(Space),,,,silence,,,,----- -- ---- --- -- --- -------- ------------ ---------- --<br>- writing ------ --------- -- ------------ -- --- ---- -----<br>------ ---- ---- ------ ------ ------- --- ----- ---------<br>---- --- -------- -------- --- --- -- ------- --- --- -----<br>-- --- ------ ------- --- --- -------- ---- --------- --<br>---------- -- -------- ----------------,293365.615000017,293364.4300000742,292675.349,292674.9850001652,292692.019,293375.363,,11,writing
screen,html.Screen,1_3_1_0_1_12,2021-04-22T11:55:02.935Z,,,,,,,,,,,,,,,,11,,,,,,,,,,,,,,469.2920001390157,,response,,,,4,D,,,,,,Space,keypress(Space),,,,silence,,,,----- -- ---- --- -- --- -------- ------------ ---------- --<br>- ------- system --------- -- ------------ -- --- ---- -----<br>------ ---- ---- ------ ------ ------- --- ----- ---------<br>---- --- -------- -------- --- --- -- ------- --- --- -----<br>-- --- ------ ------- --- --- -------- ---- --------- --<br>---------- -- -------- ----------------,293845.69500014186,293844.655000139,293358.591,293365.8000000287,293375.363,293858.763,,12,system
screen,html.Screen,1_3_1_0_1_13,2021-04-22T11:55:03.966Z,,,,,,,,,,,,,,,,11,,,,,,,,,,,,,,1017.422000175633,,response,,,,4,D,,,,,,Space,keypress(Space),,,,silence,,,,----- -- ---- --- -- --- -------- ------------ ---------- --<br>- ------- ------ comprised -- ------------ -- --- ---- -----<br>------ ---- ---- ------ ------ ------- --- ----- ---------<br>---- --- -------- -------- --- --- -- ------- --- --- -----<br>-- --- ------ ------- --- --- -------- ---- --------- --<br>---------- -- -------- ----------------,294877.30000005104,294876.1850001756,293841.959,293845.8750001155,293858.763,294891.987,,13,comprised
screen,html.Screen,1_3_1_0_1_14,2021-04-22T11:55:04.326Z,,,,,,,,,,,,,,,,11,,,,,,,,,,,,,,343.463000036485,,response,,,,4,D,,,,,,Space,keypress(Space),,,,silence,,,,----- -- ---- --- -- --- -------- ------------ ---------- --<br>- ------- ------ --------- of ------------ -- --- ---- -----<br>------ ---- ---- ------ ------ ------- --- ----- ---------<br>---- --- -------- -------- --- --- -- ------- --- --- -----<br>-- --- ------ ------- --- --- -------- ---- --------- --<br>---------- -- -------- ----------------,295236.6550001316,295235.4500000365,294875.296,294877.4749999866,294891.987,295241.646,,14,of
screen,html.Screen,1_3_1_0_1_15,2021-04-22T11:55:05.566Z,,,,,,,,,,,,,,,,11,,,,,,,,,,,,,,1233.8990000520716,,response,,,,4,D,,,,,,Space,keypress(Space),,,,silence,,,,----- -- ---- --- -- --- -------- ------------ ---------- --<br>- ------- ------ --------- -- pictographs. -- --- ---- -----<br>------ ---- ---- ------ ------ ------- --- ----- ---------<br>---- --- -------- -------- --- --- -- ------- --- --- -----<br>-- --- ------ ------- --- --- -------- ---- --------- --<br>---------- -- -------- ----------------,296476.6200000886,296475.5450000521,295225.336,295236.8350001052,295241.646,296492.06,,15,pictographs.
screen,html.Screen,1_3_1_0_1_16,2021-04-22T11:55:05.922Z,,,,,,,,,,,,,,,,11,,,,,,,,,,,,,,339.71000004798407,,response,,,,4,D,,,,,,Space,keypress(Space),,,,silence,,,,----- -- ---- --- -- --- -------- ------------ ---------- --<br>- ------- ------ --------- -- ------------ It --- ---- -----<br>------ ---- ---- ------ ------ ------- --- ----- ---------<br>---- --- -------- -------- --- --- -- ------- --- --- -----<br>-- --- ------ ------- --- --- -------- ---- --------- --<br>---------- -- -------- ----------------,296832.9950000625,296831.770000048,296475.064,296476.78999998607,296492.06,296842.085,,16,It
screen,html.Screen,1_3_1_0_1_17,2021-04-22T11:55:06.298Z,,,,,,,,,,,,,,,,11,,,,,,,,,,,,,,366.15500006539514,,response,,,,4,D,,,,,,Space,keypress(Space),,,,silence,,,,----- -- ---- --- -- --- -------- ------------ ---------- --<br>- ------- ------ --------- -- ------------ -- has ---- -----<br>------ ---- ---- ------ ------ ------- --- ----- ---------<br>---- --- -------- -------- --- --- -- ------- --- --- -----<br>-- --- ------ ------- --- --- -------- ---- --------- --<br>---------- -- -------- ----------------,297209.32000014,297208.2400000654,296825.311,296833.1550001167,296842.085,297225.038,,17,has
screen,html.Screen,1_3_1_0_1_18,2021-04-22T11:55:06.705Z,,,,,,,,,,,,,,,,11,,,,,,,,,,,,,,389.61200011958135,,response,,,,4,D,,,,,,Space,keypress(Space),,,,silence,,,,----- -- ---- --- -- --- -------- ------------ ---------- --<br>- ------- ------ --------- -- ------------ -- --- been -----<br>------ ---- ---- ------ ------ ------- --- ----- ---------<br>---- --- -------- -------- --- --- -- ------- --- --- -----<br>-- --- ------ ------- --- --- -------- ---- --------- --<br>---------- -- -------- ----------------,297615.70000019856,297614.6500001196,297208.64,297209.49500007555,297225.038,297625.427,,18,been
screen,html.Screen,1_3_1_0_1_19,2021-04-22T11:55:07.000Z,,,,,,,,,,,,,,,,11,,,,,,,,,,,,,,284.57800018705893,,response,,,,4,D,,,,,,Space,keypress(Space),,,,silence,,,,----- -- ---- --- -- --- -------- ------------ ---------- --<br>- ------- ------ --------- -- ------------ -- --- ---- found<br>------ ---- ---- ------ ------ ------- --- ----- ---------<br>---- --- -------- -------- --- --- -- ------- --- --- -----<br>-- --- ------ ------- --- --- -------- ---- --------- --<br>---------- -- -------- ----------------,297911.2150000874,297910.0050001871,297608.694,297615.88500021026,297625.427,297925.432,,19,found
screen,html.Screen,1_3_1_0_1_20,2021-04-22T11:55:07.355Z,,,,,,,,,,,,,,,,11,,,,,,,,,,,,,,339.4780001436011,,response,,,,4,D,,,,,,Space,keypress(Space),,,,silence,,,,----- -- ---- --- -- --- -------- ------------ ---------- --<br>- ------- ------ --------- -- ------------ -- --- ---- -----<br>carved ---- ---- ------ ------ ------- --- ----- ---------<br>---- --- -------- -------- --- --- -- ------- --- --- -----<br>-- --- ------ ------- --- --- -------- ---- --------- --<br>---------- -- -------- ----------------,298266.09500008635,298264.9100001436,297908.74,297911.4000000991,297925.432,298275.435,,20,carved
screen,html.Screen,1_3_1_0_1_21,2021-04-22T11:55:07.800Z,,,,,,,,,,,,,,,,11,,,,,,,,,,,,,,434.19500017218525,,response,,,,4,D,,,,,,Space,keypress(Space),,,,silence,,,,----- -- ---- --- -- --- -------- ------------ ---------- --<br>- ------- ------ --------- -- ------------ -- --- ---- -----<br>------ into ---- ------ ------ ------- --- ----- ---------<br>---- --- -------- -------- --- --- -- ------- --- --- -----<br>-- --- ------ ------- --- --- -------- ---- --------- --<br>---------- -- -------- ----------------,298710.71000001393,298709.6300001722,298258.668,298266.28000009805,298275.435,298725.549,,21,into
screen,html.Screen,1_3_1_0_1_22,2021-04-22T11:55:08.092Z,,,,,,,,,,,,,,,,11,,,,,,,,,,,,,,276.2560000071535,,response,,,,4,D,,,,,,Space,keypress(Space),,,,silence,,,,----- -- ---- --- -- --- -------- ------------ ---------- --<br>- ------- ------ --------- -- ------------ -- --- ---- -----<br>------ ---- many ------ ------ ------- --- ----- ---------<br>---- --- -------- -------- --- --- -- ------- --- --- -----<br>-- --- ------ ------- --- --- -------- ---- --------- --<br>---------- -- -------- ----------------,299002.84000020474,299001.80500000715,298708.724,298710.88999998756,298725.549,299008.458,,22,many
screen,html.Screen,1_3_1_0_1_23,2021-04-22T11:55:08.742Z,,,,,,,,,,,,,,,,11,,,,,,,,,,,,,,643.6120000692317,,response,,,,4,D,,,,,,Space,keypress(Space),,,,silence,,,,----- -- ---- --- -- --- -------- ------------ ---------- --<br>- ------- ------ --------- -- ------------ -- --- ---- -----<br>------ ---- ---- oblong ------ ------- --- ----- ---------<br>---- --- -------- -------- --- --- -- ------- --- --- -----<br>-- --- ------ ------- --- --- -------- ---- --------- --<br>---------- -- -------- ----------------,299653.23000005446,299652.0700000692,298991.786,299003.02000017837,299008.458,299658.464,,23,oblong
screen,html.Screen,1_3_1_0_1_24,2021-04-22T11:55:09.158Z,,,,,,,,,,,,,,,,11,,,,,,,,,,,,,,409.2710000478546,,response,,,,4,D,,,,,,Space,keypress(Space),,,,silence,,,,----- -- ---- --- -- --- -------- ------------ ---------- --<br>- ------- ------ --------- -- ------------ -- --- ---- -----<br>------ ---- ---- ------ wooden ------- --- ----- ---------<br>---- --- -------- -------- --- --- -- ------- --- --- -----<br>-- --- ------ ------- --- --- -------- ---- --------- --<br>---------- -- -------- ----------------,300068.80500004627,300067.73500004783,299641.894,299653.4100000281,299658.464,300075.175,,24,wooden
screen,html.Screen,1_3_1_0_1_25,2021-04-22T11:55:10.283Z,,,,,,,,,,,,,,,,11,,,,,,,,,,,,,,1118.1050000067917,,response,,,,4,D,,,,,,Space,keypress(Space),,,,silence,,,,----- -- ---- --- -- --- -------- ------------ ---------- --<br>- ------- ------ --------- -- ------------ -- --- ---- -----<br>------ ---- ---- ------ ------ tablets --- ----- ---------<br>---- --- -------- -------- --- --- -- ------- --- --- -----<br>-- --- ------ ------- --- --- -------- ---- --------- --<br>---------- -- -------- ----------------,301194.3550000433,301193.2800000068,300058.459,300068.9799999818,300075.175,301208.861,,25,tablets
screen,html.Screen,1_3_1_0_1_26,2021-04-22T11:55:11.160Z,,,,,,,,,,,,,,,,11,,,,,,,,,,,,,,861.3890001061955,,response,,,,4,D,,,,,,Space,keypress(Space),,,,silence,,,,----- -- ---- --- -- --- -------- ------------ ---------- --<br>- ------- ------ --------- -- ------------ -- --- ---- -----<br>------ ---- ---- ------ ------ ------- and ----- ---------<br>---- --- -------- -------- --- --- -- ------- --- --- -----<br>-- --- ------ ------- --- --- -------- ---- --------- --<br>---------- -- -------- ----------------,302071.5100001544,302070.25000010617,301192.205,301194.5200001355,301208.861,302075.115,,26,and
screen,html.Screen,1_3_1_0_1_27,2021-04-22T11:55:11.806Z,,,,,,,,,,,,,,,,11,,,,,,,,,,,,,,640.2550001072232,,response,,,,4,D,,,,,,Space,keypress(Space),,,,silence,,,,----- -- ---- --- -- --- -------- ------------ ---------- --<br>- ------- ------ --------- -- ------------ -- --- ---- -----<br>------ ---- ---- ------ ------ ------- --- other ---------<br>---- --- -------- -------- --- --- -- ------- --- --- -----<br>-- --- ------ ------- --- --- -------- ---- --------- --<br>---------- -- -------- ----------------,302716.62500011735,302715.3700001072,302058.76,302071.6750000138,302075.115,302725.499,,27,other
screen,html.Screen,1_3_1_0_1_28,2021-04-22T11:55:13.769Z,,,,,,,,,,,,,,,,11,,,,,,,,,,,,,,1952.9010000916314,,response,,,,4,D,,,,,,Space,keypress(Space),,,,silence,,,,----- -- ---- --- -- --- -------- ------------ ---------- --<br>- ------- ------ --------- -- ------------ -- --- ---- -----<br>------ ---- ---- ------ ------ ------- --- ----- artifacts<br>---- --- -------- -------- --- --- -- ------- --- --- -----<br>-- --- ------ ------- --- --- -------- ---- --------- --<br>---------- -- -------- ----------------,304679.6650001779,304678.40000009164,302708.86,302716.805000091,302725.499,304692.237,,28,artifacts
screen,html.Screen,1_3_1_0_1_29,2021-04-22T11:55:14.078Z,,,,,,,,,,,,,,,,11,,,,,,,,,,,,,,295.8630001914571,,response,,,,4,D,,,,,,Space,keypress(Space),,,,silence,,,,----- -- ---- --- -- --- -------- ------------ ---------- --<br>- ------- ------ --------- -- ------------ -- --- ---- -----<br>------ ---- ---- ------ ------ ------- --- ----- ---------<br>from --- -------- -------- --- --- -- ------- --- --- -----<br>-- --- ------ ------- --- --- -------- ---- --------- --<br>---------- -- -------- ----------------,304989.34500012547,304988.1000001915,304675.363,304679.84500015154,304692.237,304991.863,,29,from
screen,html.Screen,1_3_1_0_1_30,2021-04-22T11:55:14.383Z,,,,,,,,,,,,,,,,11,,,,,,,,,,,,,,301.07200003403705,,response,,,,4,D,,,,,,Space,keypress(Space),,,,silence,,,,----- -- ---- --- -- --- -------- ------------ ---------- --<br>- ------- ------ --------- -- ------------ -- --- ---- -----<br>------ ---- ---- ------ ------ ------- --- ----- ---------<br>---- the -------- -------- --- --- -- ------- --- --- -----<br>-- --- ------ ------- --- --- -------- ---- --------- --<br>---------- -- -------- ----------------,305294.01500010863,305292.93500003405,304975.188,304989.520000061,304991.863,305308.555,,30,the
screen,html.Screen,1_3_1_0_1_31,2021-04-22T11:55:14.778Z,,,,,,,,,,,,,,,,11,,,,,,,,,,,,,,379.8400000628899,,response,,,,4,D,,,,,,Space,keypress(Space),,,,silence,,,,----- -- ---- --- -- --- -------- ------------ ---------- --<br>- ------- ------ --------- -- ------------ -- --- ---- -----<br>------ ---- ---- ------ ------ ------- --- ----- ---------<br>---- --- island's -------- --- --- -- ------- --- --- -----<br>-- --- ------ ------- --- --- -------- ---- --------- --<br>---------- -- -------- ----------------,305689.0400000848,305688.3950000629,305292.201,305294.23000011593,305308.555,305691.806,,31,island's
screen,html.Screen,1_3_1_0_1_32,2021-04-22T11:55:15.439Z,,,,,,,,,,,,,,,,11,,,,,,,,,,,,,,657.5440000331728,,response,,,,4,D,,,,,,Space,keypress(Space),,,,silence,,,,----- -- ---- --- -- --- -------- ------------ ---------- --<br>- ------- ------ --------- -- ------------ -- --- ---- -----<br>------ ---- ---- ------ ------ ------- --- ----- ---------<br>---- --- -------- history. --- --- -- ------- --- --- -----<br>-- --- ------ ------- --- --- -------- ---- --------- --<br>---------- -- -------- ----------------,306350.21000006236,306349.35000003316,305675.196,305689.15500002913,305691.806,306358.483,,32,history.
screen,html.Screen,1_3_1_0_1_33,2021-04-22T11:55:15.704Z,,,,,,,,,,,,,,,,11,,,,,,,,,,,,,,255.1570001123473,,response,,,,4,D,,,,,,Space,keypress(Space),,,,silence,,,,----- -- ---- --- -- --- -------- ------------ ---------- --<br>- ------- ------ --------- -- ------------ -- --- ---- -----<br>------ ---- ---- ------ ------ ------- --- ----- ---------<br>---- --- -------- -------- The --- -- ------- --- --- -----<br>-- --- ------ ------- --- --- -------- ---- --------- --<br>---------- -- -------- ----------------,306614.5800000522,306613.64000011235,306341.77,306350.3100001253,306358.483,306625.639,,33,The
screen,html.Screen,1_3_1_0_1_34,2021-04-22T11:55:15.973Z,,,,,,,,,,,,,,,,11,,,,,,,,,,,,,,256.86600010324037,,response,,,,4,D,,,,,,Space,keypress(Space),,,,silence,,,,----- -- ---- --- -- --- -------- ------------ ---------- --<br>- ------- ------ --------- -- ------------ -- --- ---- -----<br>------ ---- ---- ------ ------ ------- --- ----- ---------<br>---- --- -------- -------- --- art -- ------- --- --- -----<br>-- --- ------ ------- --- --- -------- ---- --------- --<br>---------- -- -------- ----------------,306883.56500002556,306882.50500010327,306608.483,306614.82000001706,306625.639,306891.903,,34,art
screen,html.Screen,1_3_1_0_1_35,2021-04-22T11:55:16.332Z,,,,,,,,,,,,,,,,11,,,,,,,,,,,,,,349.7420001765131,,response,,,,4,D,,,,,,Space,keypress(Space),,,,silence,,,,----- -- ---- --- -- --- -------- ------------ ---------- --<br>- ------- ------ --------- -- ------------ -- --- ---- -----<br>------ ---- ---- ------ ------ ------- --- ----- ---------<br>---- --- -------- -------- --- --- of ------- --- --- -----<br>-- --- ------ ------- --- --- -------- ---- --------- --<br>---------- -- -------- ----------------,307242.85000003874,307241.6450001765,306875.49,306883.74000019394,306891.903,307258.687,,35,of
screen,html.Screen,1_3_1_0_1_36,2021-04-22T11:55:16.713Z,,,,,,,,,,,,,,,,11,,,,,,,,,,,,,,363.73300014523556,,response,,,,4,D,,,,,,Space,keypress(Space),,,,silence,,,,----- -- ---- --- -- --- -------- ------------ ---------- --<br>- ------- ------ --------- -- ------------ -- --- ---- -----<br>------ ---- ---- ------ ------ ------- --- ----- ---------<br>---- --- -------- -------- --- --- -- writing --- --- -----<br>-- --- ------ ------- --- --- -------- ---- --------- --<br>---------- -- -------- ----------------,307623.74499998987,307622.4200001452,307242.153,307243.03000001237,307258.687,307657.543,,36,writing
screen,html.Screen,1_3_1_0_1_37,2021-04-22T11:55:17.388Z,,,,,,,,,,,,,,,,11,,,,,,,,,,,,,,640.4220001507201,,response,,,,4,D,,,,,,Space,keypress(Space),,,,silence,,,,----- -- ---- --- -- --- -------- ------------ ---------- --<br>- ------- ------ --------- -- ------------ -- --- ---- -----<br>------ ---- ---- ------ ------ ------- --- ----- ---------<br>---- --- -------- -------- --- --- -- ------- was --- -----<br>-- --- ------ ------- --- --- -------- ---- --------- --<br>---------- -- -------- ----------------,308299.05000003055,308297.9650001507,307608.79,307623.98000014946,307657.543,308308.92,,37,was
screen,html.Screen,1_3_1_0_1_38,2021-04-22T11:55:17.759Z,,,,,,,,,,,,,,,,11,,,,,,,,,,,,,,360.06000007496914,,response,,,,4,D,,,,,,Space,keypress(Space),,,,silence,,,,----- -- ---- --- -- --- -------- ------------ ---------- --<br>- ------- ------ --------- -- ------------ -- --- ---- -----<br>------ ---- ---- ------ ------ ------- --- ----- ---------<br>---- --- -------- -------- --- --- -- ------- --- not -----<br>-- --- ------ ------- --- --- -------- ---- --------- --<br>---------- -- -------- ----------------,308670.09000014514,308668.98000007495,308291.912,308299.2300000042,308308.92,308675.268,,38,not
