sender,sender_type,sender_id,timestamp,meta,,Blues,Classical,Country,Dance,Electronic,Folk,Gospel,Hip-Hop,Jazz,Latin,Musical/Film,New-age,Pop,Provo_ID,R&B,Rap,Reggae,Religious,Rock,Soul,Swing,Traditional,age,artist_name,correct,correctResponse,distraction,duration,education,ended_on,familiarity,gender,headphone_check_performance,item,list,music_frequency,offensiveness,pleasantness,position_correct,preference,response,response_action,snippet_file,song_name,song_rating,sound,stimulus_1,stimulus_2,stimulus_3,text,time_commit,time_end,time_render,time_run,time_show,time_switch,url,word,word_ID
Introduction,html.Screen,0_0,2021-04-23T14:46:48.594Z,"{""labjs_version"":""20.2.2"",""labjs_build"":{""flavor"":""production"",""commit"":""a25486e0c714a0ae2ce03ff94b7bb6896854dcfa""},""location"":""https://run.pavlovia.org/mvasilev/music_f/"",""userAgent"":""Mozilla/5.0 (Macintosh; Intel Mac OS X 10_15_6) AppleWebKit/605.1.15 (KHTML, like Gecko) Version/13.1.2 Safari/605.1.15"",""platform"":""MacIntel"",""language"":""en-gb"",""locale"":""en-GB"",""timeZone"":""Europe/London"",""timezoneOffset"":-60,""screen_width"":1440,""screen_height"":900,""scroll_width"":1440,""scroll_height"":789,""window_innerWidth"":1440,""window_innerHeight"":837,""devicePixelRatio"":1}",,,,,,,,,,,,,,,,,,,,,,,,,,,,,30415,,response,,,,,,,,,,,continue,click button,,,,,,,,,73822,73781,43366,43352.00000000001,43439,73834,{},,
Volume calibration,html.Screen,0_1,2021-04-23T14:51:27.043Z,,,,,,,,,,,,,,,,,,,,,,,,,,,,,,278356,,response,,,,,,,,,,,continue,click button,,,,,,,,,352244,352182,73826,73822,73834,352270,,,
Task instructions,html.Screen,0_2,2021-04-23T14:51:43.446Z,,,,,,,,,,,,,,,,,,,,,,,,,,,,,,16332,,response,,,,,,,,,,,continue,click button,,,,,,,,,368646,368586,352254,352244,352270,368671,,,
Sounds,html.Screen,0_3_0_0,2021-04-23T14:51:47.705Z,,,,,,,,,,,,,,,,,,,,,,,,,,,,,,4251,,timeout,,,,,,,,,2,,,,,,,,O,S,I,,372906,372904,368654,368647,368671,372922,,,
Judgement,html.Screen,0_3_0_1,2021-04-23T14:51:52.350Z,,,,,,,,,,,,,,,,,,,,,,,,,,,true,2,,4587,,response,,,,,,,,,2,,2,click #choice-2,,,,,O,S,I,,377551,377491,372904,372906,372922,377571,,,
Trial,flow.Sequence,0_3_0,2021-04-23T14:51:52.351Z,,,,,,,,,,,,,,,,,,,,,,,,,,,,,,8820,,completion,,,,,,,,,2,,,,,,,,O,S,I,,377551,377491,368654,368647,368671,377571,,,
Sounds,html.Screen,0_3_1_0,2021-04-23T14:51:56.606Z,,,,,,,,,,,,,,,,,,,,,,,,,,,,,,4251,,timeout,,,,,,,,,1,,,,,,,,S,O,I,,381806,381806,377555,377552,377571,381822,,,
Judgement,html.Screen,0_3_1_1,2021-04-23T14:52:00.267Z,,,,,,,,,,,,,,,,,,,,,,,,,,,false,1,,3601,,response,,,,,,,,,1,,2,click #choice-2,,,,,S,O,I,,385467,385407,381806,381806,381822,385488,,,
Trial,flow.Sequence,0_3_1,2021-04-23T14:52:00.267Z,,,,,,,,,,,,,,,,,,,,,,,,,,,,,,7836,,completion,,,,,,,,,1,,,,,,,,S,O,I,,385467,385407,377555,377552,377571,385488,,,
Sounds,html.Screen,0_3_2_0,2021-04-23T14:52:04.522Z,,,,,,,,,,,,,,,,,,,,,,,,,,,,,,4251,,timeout,,,,,,,,,3,,,,,,,,I,O,S,,389722,389722,385472,385468,385488,389739,,,
Judgement,html.Screen,0_3_2_1,2021-04-23T14:52:05.100Z,,,,,,,,,,,,,,,,,,,,,,,,,,,true,3,,518,,response,,,,,,,,,3,,3,click #choice-3,,,,,I,O,S,,390300,390240,389722,389722,389739,390322,,,
Trial,flow.Sequence,0_3_2,2021-04-23T14:52:05.100Z,,,,,,,,,,,,,,,,,,,,,,,,,,,,,,4752,,completion,,,,,,,,,3,,,,,,,,I,O,S,,390300,390240,385472,385468,385488,390322,,,
Sounds,html.Screen,0_3_3_0,2021-04-23T14:52:09.356Z,,,,,,,,,,,,,,,,,,,,,,,,,,,,,,4251,,timeout,,,,,,,,,1,,,,,,,,S,I,O,,394556,394555,390306,390301,390322,394573,,,
Judgement,html.Screen,0_3_3_1,2021-04-23T14:52:10.170Z,,,,,,,,,,,,,,,,,,,,,,,,,,,true,1,,754,,response,,,,,,,,,1,,1,click #choice-1,,,,,S,I,O,,395369,395309,394555,394556,394573,395389,,,
Trial,flow.Sequence,0_3_3,2021-04-23T14:52:10.170Z,,,,,,,,,,,,,,,,,,,,,,,,,,,,,,4987,,completion,,,,,,,,,1,,,,,,,,S,I,O,,395370,395309,390306,390301,390322,395389,,,
Sounds,html.Screen,0_3_4_0,2021-04-23T14:52:14.423Z,,,,,,,,,,,,,,,,,,,,,,,,,,,,,,4251,,timeout,,,,,,,,,3,,,,,,,,O,I,S,,399623,399622,395373,395370,395389,399640,,,
Judgement,html.Screen,0_3_4_1,2021-04-23T14:52:14.942Z,,,,,,,,,,,,,,,,,,,,,,,,,,,true,3,,459,,response,,,,,,,,,3,,3,click #choice-3,,,,,O,I,S,,400142,400081,399622,399623,399640,400174,,,
Trial,flow.Sequence,0_3_4,2021-04-23T14:52:14.943Z,,,,,,,,,,,,,,,,,,,,,,,,,,,,,,4692,,completion,,,,,,,,,3,,,,,,,,O,I,S,,400142,400081,395373,395370,395389,400174,,,
Sounds,html.Screen,0_3_5_0,2021-04-23T14:52:19.208Z,,,,,,,,,,,,,,,,,,,,,,,,,,,,,,4250,,timeout,,,,,,,,,2,,,,,,,,I,S,O,,404407,404407,400156,400142,400174,404424,,,
Judgement,html.Screen,0_3_5_1,2021-04-23T14:52:19.803Z,,,,,,,,,,,,,,,,,,,,,,,,,,,true,2,,535,,response,,,,,,,,,2,,2,click #choice-2,,,,,I,S,O,,405002,404942,404407,404408,404424,405024,,,
Trial,flow.Sequence,0_3_5,2021-04-23T14:52:19.803Z,,,,,,,,,,,,,,,,,,,,,,,,,,,,,,4768,,completion,,,,,,,,,2,,,,,,,,I,S,O,,405003,404942,400156,400142,400174,405024,,,
Task,flow.Loop,0_3,2021-04-23T14:52:19.806Z,,,,,,,,,,,,,,,,,,,,,,,,,,,,,,36271,,completion,,,0.8333333333333334,,,,,,,,,,,,,,,,,,405006,404942,368654,368647,368671,405024,,,
Trap,html.Screen,0_4,2021-04-23T14:52:19.808Z,,,,,,,,,,,,,,,,,,,,,,,,,,,,,,NaN,,skipped,,,,,,,,,,,,,,,,,,,,,405007,404942,,405007,,405024,,,
Thanks,html.Screen,0_5,2021-04-23T14:52:25.044Z,,,,,,,,,,,,,,,,,,,,,,,,,,,,,,5174,,response,,,,,,,,,,,continue,click button,,,,,,,,,410244,410183,405009,405007,405024,413640,,,
Headphone screening,flow.Sequence,0,2021-04-23T14:52:25.045Z,,,,,,,,,,,,,,,,,,,,,,,,,,,,,,366744,,completion,,,,,,,,,,,,,,,,,,,,,410244,410183,43366,43352.00000000001,43439,413640,,,
Instructions,html.Page,1_0,2021-04-23T14:52:54.969Z,,,,,,,,,,,,,,,,,,,,,,,,,,,,,,26527.00000000006,,form submission,,,,,,,,,,,,,,,,,,,,,440168,440167.00000000006,413624,413604,413640,440193,,,
Holding screen,html.Screen,1_1_0_0,2021-04-23T14:53:04.979Z,,,,,,,,,,,,,,,,,,,,,,,,,,,,,,10001,,timeout,,,,,,,,,,,,,,,,,,,,,450178,450177,440175,440168,440193,450194,,,
screen,html.Screen,1_1_0_1_0,2021-04-23T14:53:06.206Z,,,,,,,,,,,,,,,,53,,,,,,,,,,,,,,1162,,response,,,,99,,,,,,,Space,keypress(Space),,,,,,,,When -- ----- -- ------ - ------- --- ----------<br>------------- ------ ------ ---- ---- ------- ----- -- ----<br>-------- ------- -- ---------- --- - --- ----- ----- ----<br>---- --- --- ----- --- ---- ---- ------- ----- ---- -------<br>--- --- -- ----- -- --- ---- -- --- ---- -- ------ ------<br>--- ----- -- ----,451404,451339,450177,450178,450194,451444,,0,When
screen,html.Screen,1_1_0_1_1,2021-04-23T14:53:06.844Z,,,,,,,,,,,,,,,,53,,,,,,,,,,,,,,552,,response,,,,99,,,,,,,Space,keypress(Space),,,,,,,,---- it ----- -- ------ - ------- --- ----------<br>------------- ------ ------ ---- ---- ------- ----- -- ----<br>-------- ------- -- ---------- --- - --- ----- ----- ----<br>---- --- --- ----- --- ---- ---- ------- ----- ---- -------<br>--- --- -- ----- -- --- ---- -- --- ---- -- ------ ------<br>--- ----- -- ----,452042.00000000006,451978,451426,451405.00000000006,451444,452076,,1,it
screen,html.Screen,1_1_0_1_2,2021-04-23T14:53:08.145Z,,,,,,,,,,,,,,,,53,,,,,,,,,,,,,,1220,,response,,,,99,,,,,,,Space,keypress(Space),,,,,,,,---- -- comes -- ------ - ------- --- ----------<br>------------- ------ ------ ---- ---- ------- ----- -- ----<br>-------- ------- -- ---------- --- - --- ----- ----- ----<br>---- --- --- ----- --- ---- ---- ------- ----- ---- -------<br>--- --- -- ----- -- --- ---- -- --- ---- -- ------ ------<br>--- ----- -- ----,453343,453279,452059,452042.00000000006,452076,453376,,2,comes
screen,html.Screen,1_1_0_1_3,2021-04-23T14:53:08.644Z,,,,,,,,,,,,,,,,53,,,,,,,,,,,,,,418,,response,,,,99,,,,,,,Space,keypress(Space),,,,,,,,---- -- ----- to ------ - ------- --- ----------<br>------------- ------ ------ ---- ---- ------- ----- -- ----<br>-------- ------- -- ---------- --- - --- ----- ----- ----<br>---- --- --- ----- --- ---- ---- ------- ----- ---- -------<br>--- --- -- ----- -- --- ---- -- --- ---- -- ------ ------<br>--- ----- -- ----,453842,453778,453360,453344,453376,453876,,3,to
screen,html.Screen,1_1_0_1_4,2021-04-23T14:53:09.127Z,,,,,,,,,,,,,,,,53,,,,,,,,,,,,,,401,,response,,,,99,,,,,,,Space,keypress(Space),,,,,,,,---- -- ----- -- having - ------- --- ----------<br>------------- ------ ------ ---- ---- ------- ----- -- ----<br>-------- ------- -- ---------- --- - --- ----- ----- ----<br>---- --- --- ----- --- ---- ---- ------- ----- ---- -------<br>--- --- -- ----- -- --- ---- -- --- ---- -- ------ ------<br>--- ----- -- ----,454325,454261,453860,453842,453876,454361,,4,having
screen,html.Screen,1_1_0_1_5,2021-04-23T14:53:09.606Z,,,,,,,,,,,,,,,,53,,,,,,,,,,,,,,396,,response,,,,99,,,,,,,Space,keypress(Space),,,,,,,,---- -- ----- -- ------ a ------- --- ----------<br>------------- ------ ------ ---- ---- ------- ----- -- ----<br>-------- ------- -- ---------- --- - --- ----- ----- ----<br>---- --- --- ----- --- ---- ---- ------- ----- ---- -------<br>--- --- -- ----- -- --- ---- -- --- ---- -- ------ ------<br>--- ----- -- ----,454804.00000000006,454740,454344,454325,454361,454844,,5,a
screen,html.Screen,1_1_0_1_6,2021-04-23T14:53:10.273Z,,,,,,,,,,,,,,,,53,,,,,,,,,,,,,,580,,response,,,,99,,,,,,,Space,keypress(Space),,,,,,,,---- -- ----- -- ------ - lasting --- ----------<br>------------- ------ ------ ---- ---- ------- ----- -- ----<br>-------- ------- -- ---------- --- - --- ----- ----- ----<br>---- --- --- ----- --- ---- ---- ------- ----- ---- -------<br>--- --- -- ----- -- --- ---- -- --- ---- -- ------ ------<br>--- ----- -- ----,455471,455407,454827,454804.00000000006,454844,455511,,6,lasting
screen,html.Screen,1_1_0_1_7,2021-04-23T14:53:11.462Z,,,,,,,,,,,,,,,,53,,,,,,,,,,,,,,1102,,response,,,,99,,,,,,,Space,keypress(Space),,,,,,,,---- -- ----- -- ------ - ------- and ----------<br>------------- ------ ------ ---- ---- ------- ----- -- ----<br>-------- ------- -- ---------- --- - --- ----- ----- ----<br>---- --- --- ----- --- ---- ---- ------- ----- ---- -------<br>--- --- -- ----- -- --- ---- -- --- ---- -- ------ ------<br>--- ----- -- ----,456660,456596,455494,455471,455511,456694,,7,and
screen,html.Screen,1_1_0_1_8,2021-04-23T14:53:12.216Z,,,,,,,,,,,,,,,,53,,,,,,,,,,,,,,671,,response,,,,99,,,,,,,Space,keypress(Space),,,,,,,,---- -- ----- -- ------ - ------- --- fulfilling<br>------------- ------ ------ ---- ---- ------- ----- -- ----<br>-------- ------- -- ---------- --- - --- ----- ----- ----<br>---- --- --- ----- --- ---- ---- ------- ----- ---- -------<br>--- --- -- ----- -- --- ---- -- --- ---- -- ------ ------<br>--- ----- -- ----,457414,457349,456678,456660,456694,457444,,8,fulfilling
screen,html.Screen,1_1_0_1_9,2021-04-23T14:53:12.894Z,,,,,,,,,,,,,,,,53,,,,,,,,,,,,,,600,,response,,,,99,,,,,,,Space,keypress(Space),,,,,,,,"---- -- ----- -- ------ - ------- --- ----------<br>relationship, ------ ------ ---- ---- ------- ----- -- ----<br>-------- ------- -- ---------- --- - --- ----- ----- ----<br>---- --- --- ----- --- ---- ---- ------- ----- ---- -------<br>--- --- -- ----- -- --- ---- -- --- ---- -- ------ ------<br>--- ----- -- ----",458092,458027,457427,457414,457444,458127,,9,"relationship,"
screen,html.Screen,1_1_0_1_10,2021-04-23T14:53:13.402Z,,,,,,,,,,,,,,,,53,,,,,,,,,,,,,,425,,response,,,,99,,,,,,,Space,keypress(Space),,,,,,,,---- -- ----- -- ------ - ------- --- ----------<br>------------- common ------ ---- ---- ------- ----- -- ----<br>-------- ------- -- ---------- --- - --- ----- ----- ----<br>---- --- --- ----- --- ---- ---- ------- ----- ---- -------<br>--- --- -- ----- -- --- ---- -- --- ---- -- ------ ------<br>--- ----- -- ----,458600,458536,458111,458092,458127,458628,,10,common
screen,html.Screen,1_1_0_1_11,2021-04-23T14:53:13.958Z,,,,,,,,,,,,,,,,53,,,,,,,,,,,,,,480,,response,,,,99,,,,,,,Space,keypress(Space),,,,,,,,---- -- ----- -- ------ - ------- --- ----------<br>------------- ------ wisdom ---- ---- ------- ----- -- ----<br>-------- ------- -- ---------- --- - --- ----- ----- ----<br>---- --- --- ----- --- ---- ---- ------- ----- ---- -------<br>--- --- -- ----- -- --- ---- -- --- ---- -- ------ ------<br>--- ----- -- ----,459156,459091,458611,458600,458628,459194,,11,wisdom
screen,html.Screen,1_1_0_1_12,2021-04-23T14:53:14.433Z,,,,,,,,,,,,,,,,53,,,,,,,,,,,,,,389,,response,,,,99,,,,,,,Space,keypress(Space),,,,,,,,---- -- ----- -- ------ - ------- --- ----------<br>------------- ------ ------ says ---- ------- ----- -- ----<br>-------- ------- -- ---------- --- - --- ----- ----- ----<br>---- --- --- ----- --- ---- ---- ------- ----- ---- -------<br>--- --- -- ----- -- --- ---- -- --- ---- -- ------ ------<br>--- ----- -- ----,459631,459567,459178,459156,459194,459660,,12,says
screen,html.Screen,1_1_0_1_13,2021-04-23T14:53:14.880Z,,,,,,,,,,,,,,,,53,,,,,,,,,,,,,,370,,response,,,,99,,,,,,,Space,keypress(Space),,,,,,,,---- -- ----- -- ------ - ------- --- ----------<br>------------- ------ ------ ---- that ------- ----- -- ----<br>-------- ------- -- ---------- --- - --- ----- ----- ----<br>---- --- --- ----- --- ---- ---- ------- ----- ---- -------<br>--- --- -- ----- -- --- ---- -- --- ---- -- ------ ------<br>--- ----- -- ----,460078.00000000006,460014,459644,459631,459660,460111,,13,that
screen,html.Screen,1_1_0_1_14,2021-04-23T14:53:15.332Z,,,,,,,,,,,,,,,,53,,,,,,,,,,,,,,371,,response,,,,99,,,,,,,Space,keypress(Space),,,,,,,,---- -- ----- -- ------ - ------- --- ----------<br>------------- ------ ------ ---- ---- feeling ----- -- ----<br>-------- ------- -- ---------- --- - --- ----- ----- ----<br>---- --- --- ----- --- ---- ---- ------- ----- ---- -------<br>--- --- -- ----- -- --- ---- -- --- ---- -- ------ ------<br>--- ----- -- ----,460530.00000000006,460466,460095,460078.00000000006,460111,460561,,14,feeling
screen,html.Screen,1_1_0_1_15,2021-04-23T14:53:15.803Z,,,,,,,,,,,,,,,,53,,,,,,,,,,,,,,392,,response,,,,99,,,,,,,Space,keypress(Space),,,,,,,,---- -- ----- -- ------ - ------- --- ----------<br>------------- ------ ------ ---- ---- ------- close -- ----<br>-------- ------- -- ---------- --- - --- ----- ----- ----<br>---- --- --- ----- --- ---- ---- ------- ----- ---- -------<br>--- --- -- ----- -- --- ---- -- --- ---- -- ------ ------<br>--- ----- -- ----,461001.00000000006,460937,460545,460530.00000000006,460561,461044,,15,close
screen,html.Screen,1_1_0_1_16,2021-04-23T14:53:16.209Z,,,,,,,,,,,,,,,,53,,,,,,,,,,,,,,315,,response,,,,99,,,,,,,Space,keypress(Space),,,,,,,,---- -- ----- -- ------ - ------- --- ----------<br>------------- ------ ------ ---- ---- ------- ----- to ----<br>-------- ------- -- ---------- --- - --- ----- ----- ----<br>---- --- --- ----- --- ---- ---- ------- ----- ---- -------<br>--- --- -- ----- -- --- ---- -- --- ---- -- ------ ------<br>--- ----- -- ----,461407,461343,461028,461002,461044,461444,,16,to
screen,html.Screen,1_1_0_1_17,2021-04-23T14:53:16.705Z,,,,,,,,,,,,,,,,53,,,,,,,,,,,,,,410,,response,,,,99,,,,,,,Space,keypress(Space),,,,,,,,---- -- ----- -- ------ - ------- --- ----------<br>------------- ------ ------ ---- ---- ------- ----- -- your<br>-------- ------- -- ---------- --- - --- ----- ----- ----<br>---- --- --- ----- --- ---- ---- ------- ----- ---- -------<br>--- --- -- ----- -- --- ---- -- --- ---- -- ------ ------<br>--- ----- -- ----,461903,461838,461428,461407,461444,461944,,17,your
screen,html.Screen,1_1_0_1_18,2021-04-23T14:53:17.235Z,,,,,,,,,,,,,,,,53,,,,,,,,,,,,,,441,,response,,,,99,,,,,,,Space,keypress(Space),,,,,,,,---- -- ----- -- ------ - ------- --- ----------<br>------------- ------ ------ ---- ---- ------- ----- -- ----<br>romantic ------- -- ---------- --- - --- ----- ----- ----<br>---- --- --- ----- --- ---- ---- ------- ----- ---- -------<br>--- --- -- ----- -- --- ---- -- --- ---- -- ------ ------<br>--- ----- -- ----,462433,462368,461927,461903,461944,462460,,18,romantic
screen,html.Screen,1_1_0_1_19,2021-04-23T14:53:17.660Z,,,,,,,,,,,,,,,,53,,,,,,,,,,,,,,350,,response,,,,99,,,,,,,Space,keypress(Space),,,,,,,,---- -- ----- -- ------ - ------- --- ----------<br>------------- ------ ------ ---- ---- ------- ----- -- ----<br>-------- partner -- ---------- --- - --- ----- ----- ----<br>---- --- --- ----- --- ---- ---- ------- ----- ---- -------<br>--- --- -- ----- -- --- ---- -- --- ---- -- ------ ------<br>--- ----- -- ----,462857,462794,462444,462433,462460,462894,,19,partner
screen,html.Screen,1_1_0_1_20,2021-04-23T14:53:18.077Z,,,,,,,,,,,,,,,,53,,,,,,,,,,,,,,333,,response,,,,99,,,,,,,Space,keypress(Space),,,,,,,,---- -- ----- -- ------ - ------- --- ----------<br>------------- ------ ------ ---- ---- ------- ----- -- ----<br>-------- ------- is ---------- --- - --- ----- ----- ----<br>---- --- --- ----- --- ---- ---- ------- ----- ---- -------<br>--- --- -- ----- -- --- ---- -- --- ---- -- ------ ------<br>--- ----- -- ----,463275.00000000006,463211,462878,462858,462894,463311,,20,is
screen,html.Screen,1_1_0_1_21,2021-04-23T14:53:18.746Z,,,,,,,,,,,,,,,,53,,,,,,,,,,,,,,585,,response,,,,99,,,,,,,Space,keypress(Space),,,,,,,,---- -- ----- -- ------ - ------- --- ----------<br>------------- ------ ------ ---- ---- ------- ----- -- ----<br>-------- ------- -- paramount. --- - --- ----- ----- ----<br>---- --- --- ----- --- ---- ---- ------- ----- ---- -------<br>--- --- -- ----- -- --- ---- -- --- ---- -- ------ ------<br>--- ----- -- ----,463944,463880,463295,463275.00000000006,463311,463978,,21,paramount.
screen,html.Screen,1_1_0_1_22,2021-04-23T14:53:19.242Z,,,,,,,,,,,,,,,,53,,,,,,,,,,,,,,414.0000000000582,,response,,,,99,,,,,,,Space,keypress(Space),,,,,,,,---- -- ----- -- ------ - ------- --- ----------<br>------------- ------ ------ ---- ---- ------- ----- -- ----<br>-------- ------- -- ---------- But - --- ----- ----- ----<br>---- --- --- ----- --- ---- ---- ------- ----- ---- -------<br>--- --- -- ----- -- --- ---- -- --- ---- -- ------ ------<br>--- ----- -- ----,464440,464376.00000000006,463962,463944,463978,464478,,22,But
screen,html.Screen,1_1_0_1_23,2021-04-23T14:53:19.690Z,,,,,,,,,,,,,,,,53,,,,,,,,,,,,,,362.0000000000582,,response,,,,99,,,,,,,Space,keypress(Space),,,,,,,,---- -- ----- -- ------ - ------- --- ----------<br>------------- ------ ------ ---- ---- ------- ----- -- ----<br>-------- ------- -- ---------- --- a --- ----- ----- ----<br>---- --- --- ----- --- ---- ---- ------- ----- ---- -------<br>--- --- -- ----- -- --- ---- -- --- ---- -- ------ ------<br>--- ----- -- ----,464888.00000000006,464823.00000000006,464461,464440,464478,464927,,23,a
screen,html.Screen,1_1_0_1_24,2021-04-23T14:53:20.202Z,,,,,,,,,,,,,,,,53,,,,,,,,,,,,,,424.0000000000582,,response,,,,99,,,,,,,Space,keypress(Space),,,,,,,,---- -- ----- -- ------ - ------- --- ----------<br>------------- ------ ------ ---- ---- ------- ----- -- ----<br>-------- ------- -- ---------- --- - new ----- ----- ----<br>---- --- --- ----- --- ---- ---- ------- ----- ---- -------<br>--- --- -- ----- -- --- ---- -- --- ---- -- ------ ------<br>--- ----- -- ----,465399,465335.00000000006,464911,464888.00000000006,464927,465428,,24,new
screen,html.Screen,1_1_0_1_25,2021-04-23T14:53:20.663Z,,,,,,,,,,,,,,,,53,,,,,,,,,,,,,,385,,response,,,,99,,,,,,,Space,keypress(Space),,,,,,,,---- -- ----- -- ------ - ------- --- ----------<br>------------- ------ ------ ---- ---- ------- ----- -- ----<br>-------- ------- -- ---------- --- - --- study ----- ----<br>---- --- --- ----- --- ---- ---- ------- ----- ---- -------<br>--- --- -- ----- -- --- ---- -- --- ---- -- ------ ------<br>--- ----- -- ----,465861,465797,465412,465400.00000000006,465428,465895,,25,study
screen,html.Screen,1_1_0_1_26,2021-04-23T14:53:21.075Z,,,,,,,,,,,,,,,,53,,,,,,,,,,,,,,330,,response,,,,99,,,,,,,Space,keypress(Space),,,,,,,,---- -- ----- -- ------ - ------- --- ----------<br>------------- ------ ------ ---- ---- ------- ----- -- ----<br>-------- ------- -- ---------- --- - --- ----- finds ----<br>---- --- --- ----- --- ---- ---- ------- ----- ---- -------<br>--- --- -- ----- -- --- ---- -- --- ---- -- ------ ------<br>--- ----- -- ----,466272,466208,465878,465861,465895,466311,,26,finds
screen,html.Screen,1_1_0_1_27,2021-04-23T14:53:21.701Z,,,,,,,,,,,,,,,,53,,,,,,,,,,,,,,540.0000000000582,,response,,,,99,,,,,,,Space,keypress(Space),,,,,,,,---- -- ----- -- ------ - ------- --- ----------<br>------------- ------ ------ ---- ---- ------- ----- -- ----<br>-------- ------- -- ---------- --- - --- ----- ----- that<br>---- --- --- ----- --- ---- ---- ------- ----- ---- -------<br>--- --- -- ----- -- --- ---- -- --- ---- -- ------ ------<br>--- ----- -- ----,466899,466835.00000000006,466295,466272,466311,466928,,27,that
screen,html.Screen,1_1_0_1_28,2021-04-23T14:53:22.291Z,,,,,,,,,,,,,,,,53,,,,,,,,,,,,,,514,,response,,,,99,,,,,,,Space,keypress(Space),,,,,,,,---- -- ----- -- ------ - ------- --- ----------<br>------------- ------ ------ ---- ---- ------- ----- -- ----<br>-------- ------- -- ---------- --- - --- ----- ----- ----<br>it's --- --- ----- --- ---- ---- ------- ----- ---- -------<br>--- --- -- ----- -- --- ---- -- --- ---- -- ------ ------<br>--- ----- -- ----,467489.00000000006,467425,466911,466899,466928,467528,,28,it's
screen,html.Screen,1_1_0_1_29,2021-04-23T14:53:22.829Z,,,,,,,,,,,,,,,,53,,,,,,,,,,,,,,451,,response,,,,99,,,,,,,Space,keypress(Space),,,,,,,,---- -- ----- -- ------ - ------- --- ----------<br>------------- ------ ------ ---- ---- ------- ----- -- ----<br>-------- ------- -- ---------- --- - --- ----- ----- ----<br>---- not --- ----- --- ---- ---- ------- ----- ---- -------<br>--- --- -- ----- -- --- ---- -- --- ---- -- ------ ------<br>--- ----- -- ----,468027,467962,467511,467489.00000000006,467528,468062,,29,not
screen,html.Screen,1_1_0_1_30,2021-04-23T14:53:23.242Z,,,,,,,,,,,,,,,,53,,,,,,,,,,,,,,331,,response,,,,99,,,,,,,Space,keypress(Space),,,,,,,,---- -- ----- -- ------ - ------- --- ----------<br>------------- ------ ------ ---- ---- ------- ----- -- ----<br>-------- ------- -- ---------- --- - --- ----- ----- ----<br>---- --- how ----- --- ---- ---- ------- ----- ---- -------<br>--- --- -- ----- -- --- ---- -- --- ---- -- ------ ------<br>--- ----- -- ----,468440,468375,468044,468027,468062,468478,,30,how
screen,html.Screen,1_1_0_1_31,2021-04-23T14:53:23.672Z,,,,,,,,,,,,,,,,53,,,,,,,,,,,,,,343,,response,,,,99,,,,,,,Space,keypress(Space),,,,,,,,---- -- ----- -- ------ - ------- --- ----------<br>------------- ------ ------ ---- ---- ------- ----- -- ----<br>-------- ------- -- ---------- --- - --- ----- ----- ----<br>---- --- --- close --- ---- ---- ------- ----- ---- -------<br>--- --- -- ----- -- --- ---- -- --- ---- -- ------ ------<br>--- ----- -- ----,468870,468805,468462,468440,468478,468911,,31,close
screen,html.Screen,1_1_0_1_32,2021-04-23T14:53:24.058Z,,,,,,,,,,,,,,,,53,,,,,,,,,,,,,,295,,response,,,,99,,,,,,,Space,keypress(Space),,,,,,,,---- -- ----- -- ------ - ------- --- ----------<br>------------- ------ ------ ---- ---- ------- ----- -- ----<br>-------- ------- -- ---------- --- - --- ----- ----- ----<br>---- --- --- ----- you ---- ---- ------- ----- ---- -------<br>--- --- -- ----- -- --- ---- -- --- ---- -- ------ ------<br>--- ----- -- ----,469255,469190,468895,468870,468911,469279,,32,you
screen,html.Screen,1_1_0_1_33,2021-04-23T14:53:24.765Z,,,,,,,,,,,,,,,,53,,,,,,,,,,,,,,637,,response,,,,99,,,,,,,Space,keypress(Space),,,,,,,,---- -- ----- -- ------ - ------- --- ----------<br>------------- ------ ------ ---- ---- ------- ----- -- ----<br>-------- ------- -- ---------- --- - --- ----- ----- ----<br>---- --- --- ----- --- feel ---- ------- ----- ---- -------<br>--- --- -- ----- -- --- ---- -- --- ---- -- ------ ------<br>--- ----- -- ----,469963,469898,469261,469255,469279,469995,,33,feel
screen,html.Screen,1_1_0_1_34,2021-04-23T14:53:25.136Z,,,,,,,,,,,,,,,,53,,,,,,,,,,,,,,291,,response,,,,99,,,,,,,Space,keypress(Space),,,,,,,,---- -- ----- -- ------ - ------- --- ----------<br>------------- ------ ------ ---- ---- ------- ----- -- ----<br>-------- ------- -- ---------- --- - --- ----- ----- ----<br>---- --- --- ----- --- ---- that ------- ----- ---- -------<br>--- --- -- ----- -- --- ---- -- --- ---- -- ------ ------<br>--- ----- -- ----,470334,470269,469978,469963,469995,470362,,34,that
screen,html.Screen,1_1_0_1_35,2021-04-23T14:53:25.642Z,,,,,,,,,,,,,,,,53,,,,,,,,,,,,,,429,,response,,,,99,,,,,,,Space,keypress(Space),,,,,,,,---- -- ----- -- ------ - ------- --- ----------<br>------------- ------ ------ ---- ---- ------- ----- -- ----<br>-------- ------- -- ---------- --- - --- ----- ----- ----<br>---- --- --- ----- --- ---- ---- matters ----- ---- -------<br>--- --- -- ----- -- --- ---- -- --- ---- -- ------ ------<br>--- ----- -- ----,470839,470774,470345,470334,470362,470879,,35,matters
screen,html.Screen,1_1_0_1_36,2021-04-23T14:53:26.054Z,,,,,,,,,,,,,,,,53,,,,,,,,,,,,,,325,,response,,,,99,,,,,,,Space,keypress(Space),,,,,,,,"---- -- ----- -- ------ - ------- --- ----------<br>------------- ------ ------ ---- ---- ------- ----- -- ----<br>-------- ------- -- ---------- --- - --- ----- ----- ----<br>---- --- --- ----- --- ---- ---- ------- most, ---- -------<br>--- --- -- ----- -- --- ---- -- --- ---- -- ------ ------<br>--- ----- -- ----",471252,471187,470862,470839,470879,471295,,36,"most,"
screen,html.Screen,1_1_0_1_37,2021-04-23T14:53:27.048Z,,,,,,,,,,,,,,,,53,,,,,,,,,,,,,,902,,response,,,,99,,,,,,,Space,keypress(Space),,,,,,,,---- -- ----- -- ------ - ------- --- ----------<br>------------- ------ ------ ---- ---- ------- ----- -- ----<br>-------- ------- -- ---------- --- - --- ----- ----- ----<br>---- --- --- ----- --- ---- ---- ------- ----- it's -------<br>--- --- -- ----- -- --- ---- -- --- ---- -- ------ ------<br>--- ----- -- ----,472246.00000000006,472181,471279,471252,471295,472279,,37,it's
screen,html.Screen,1_1_0_1_38,2021-04-23T14:53:27.391Z,,,,,,,,,,,,,,,,53,,,,,,,,,,,,,,262,,response,,,,99,,,,,,,Space,keypress(Space),,,,,,,,---- -- ----- -- ------ - ------- --- ----------<br>------------- ------ ------ ---- ---- ------- ----- -- ----<br>-------- ------- -- ---------- --- - --- ----- ----- ----<br>---- --- --- ----- --- ---- ---- ------- ----- ---- whether<br>--- --- -- ----- -- --- ---- -- --- ---- -- ------ ------<br>--- ----- -- ----,472589,472524,472262,472246.00000000006,472279,472612,,38,whether
screen,html.Screen,1_1_0_1_39,2021-04-23T14:53:27.804Z,,,,,,,,,,,,,,,,53,,,,,,,,,,,,,,341.0000000000582,,response,,,,99,,,,,,,Space,keypress(Space),,,,,,,,---- -- ----- -- ------ - ------- --- ----------<br>------------- ------ ------ ---- ---- ------- ----- -- ----<br>-------- ------- -- ---------- --- - --- ----- ----- ----<br>---- --- --- ----- --- ---- ---- ------- ----- ---- -------<br>you --- -- ----- -- --- ---- -- --- ---- -- ------ ------<br>--- ----- -- ----,473001.00000000006,472936.00000000006,472595,472589,472612,473029,,39,you
screen,html.Screen,1_1_0_1_40,2021-04-23T14:53:28.180Z,,,,,,,,,,,,,,,,53,,,,,,,,,,,,,,301,,response,,,,99,,,,,,,Space,keypress(Space),,,,,,,,---- -- ----- -- ------ - ------- --- ----------<br>------------- ------ ------ ---- ---- ------- ----- -- ----<br>-------- ------- -- ---------- --- - --- ----- ----- ----<br>---- --- --- ----- --- ---- ---- ------- ----- ---- -------<br>--- are -- ----- -- --- ---- -- --- ---- -- ------ ------<br>--- ----- -- ----,473378,473313,473012,473001.00000000006,473029,473395,,40,are
screen,html.Screen,1_1_0_1_41,2021-04-23T14:53:28.514Z,,,,,,,,,,,,,,,,53,,,,,,,,,,,,,,268,,response,,,,99,,,,,,,Space,keypress(Space),,,,,,,,---- -- ----- -- ------ - ------- --- ----------<br>------------- ------ ------ ---- ---- ------- ----- -- ----<br>-------- ------- -- ---------- --- - --- ----- ----- ----<br>---- --- --- ----- --- ---- ---- ------- ----- ---- -------<br>--- --- as ----- -- --- ---- -- --- ---- -- ------ ------<br>--- ----- -- ----,473711,473647,473379,473378,473395,473729,,41,as
screen,html.Screen,1_1_0_1_42,2021-04-23T14:53:29.096Z,,,,,,,,,,,,,,,,53,,,,,,,,,,,,,,517,,response,,,,99,,,,,,,Space,keypress(Space),,,,,,,,---- -- ----- -- ------ - ------- --- ----------<br>------------- ------ ------ ---- ---- ------- ----- -- ----<br>-------- ------- -- ---------- --- - --- ----- ----- ----<br>---- --- --- ----- --- ---- ---- ------- ----- ---- -------<br>--- --- -- close -- --- ---- -- --- ---- -- ------ ------<br>--- ----- -- ----,474294,474229,473712,473711,473729,474329,,42,close
screen,html.Screen,1_1_0_1_43,2021-04-23T14:53:29.457Z,,,,,,,,,,,,,,,,53,,,,,,,,,,,,,,278.0000000000582,,response,,,,99,,,,,,,Space,keypress(Space),,,,,,,,---- -- ----- -- ------ - ------- --- ----------<br>------------- ------ ------ ---- ---- ------- ----- -- ----<br>-------- ------- -- ---------- --- - --- ----- ----- ----<br>---- --- --- ----- --- ---- ---- ------- ----- ---- -------<br>--- --- -- ----- as --- ---- -- --- ---- -- ------ ------<br>--- ----- -- ----,474655.00000000006,474590.00000000006,474312,474294,474329,474679,,43,as
screen,html.Screen,1_1_0_1_44,2021-04-23T14:53:29.834Z,,,,,,,,,,,,,,,,53,,,,,,,,,,,,,,305,,response,,,,99,,,,,,,Space,keypress(Space),,,,,,,,---- -- ----- -- ------ - ------- --- ----------<br>------------- ------ ------ ---- ---- ------- ----- -- ----<br>-------- ------- -- ---------- --- - --- ----- ----- ----<br>---- --- --- ----- --- ---- ---- ------- ----- ---- -------<br>--- --- -- ----- -- you ---- -- --- ---- -- ------ ------<br>--- ----- -- ----,475032,474967,474662,474655.00000000006,474679,475062,,44,you
screen,html.Screen,1_1_0_1_45,2021-04-23T14:53:30.289Z,,,,,,,,,,,,,,,,53,,,,,,,,,,,,,,376,,response,,,,99,,,,,,,Space,keypress(Space),,,,,,,,---- -- ----- -- ------ - ------- --- ----------<br>------------- ------ ------ ---- ---- ------- ----- -- ----<br>-------- ------- -- ---------- --- - --- ----- ----- ----<br>---- --- --- ----- --- ---- ---- ------- ----- ---- -------<br>--- --- -- ----- -- --- want -- --- ---- -- ------ ------<br>--- ----- -- ----,475486,475422,475046,475032,475062,475529,,45,want
screen,html.Screen,1_1_0_1_46,2021-04-23T14:53:30.642Z,,,,,,,,,,,,,,,,53,,,,,,,,,,,,,,263.0000000000582,,response,,,,99,,,,,,,Space,keypress(Space),,,,,,,,---- -- ----- -- ------ - ------- --- ----------<br>------------- ------ ------ ---- ---- ------- ----- -- ----<br>-------- ------- -- ---------- --- - --- ----- ----- ----<br>---- --- --- ----- --- ---- ---- ------- ----- ---- -------<br>--- --- -- ----- -- --- ---- to --- ---- -- ------ ------<br>--- ----- -- ----,475839,475775.00000000006,475512,475486,475529,475862,,46,to
screen,html.Screen,1_1_0_1_47,2021-04-23T14:53:31.057Z,,,,,,,,,,,,,,,,53,,,,,,,,,,,,,,344,,response,,,,99,,,,,,,Space,keypress(Space),,,,,,,,"---- -- ----- -- ------ - ------- --- ----------<br>------------- ------ ------ ---- ---- ------- ----- -- ----<br>-------- ------- -- ---------- --- - --- ----- ----- ----<br>---- --- --- ----- --- ---- ---- ------- ----- ---- -------<br>--- --- -- ----- -- --- ---- -- be, ---- -- ------ ------<br>--- ----- -- ----",476255,476190,475846,475839,475862,476295,,47,"be,"
screen,html.Screen,1_1_0_1_48,2021-04-23T14:53:31.854Z,,,,,,,,,,,,,,,,53,,,,,,,,,,,,,,708,,response,,,,99,,,,,,,Space,keypress(Space),,,,,,,,---- -- ----- -- ------ - ------- --- ----------<br>------------- ------ ------ ---- ---- ------- ----- -- ----<br>-------- ------- -- ---------- --- - --- ----- ----- ----<br>---- --- --- ----- --- ---- ---- ------- ----- ---- -------<br>--- --- -- ----- -- --- ---- -- --- even -- ------ ------<br>--- ----- -- ----,477051,476987,476279,476255,476295,477079,,48,even
screen,html.Screen,1_1_0_1_49,2021-04-23T14:53:32.195Z,,,,,,,,,,,,,,,,53,,,,,,,,,,,,,,266.0000000000582,,response,,,,99,,,,,,,Space,keypress(Space),,,,,,,,---- -- ----- -- ------ - ------- --- ----------<br>------------- ------ ------ ---- ---- ------- ----- -- ----<br>-------- ------- -- ---------- --- - --- ----- ----- ----<br>---- --- --- ----- --- ---- ---- ------- ----- ---- -------<br>--- --- -- ----- -- --- ---- -- --- ---- if ------ ------<br>--- ----- -- ----,477392,477328.00000000006,477062,477051,477079,477412,,49,if
screen,html.Screen,1_1_0_1_50,2021-04-23T14:53:32.504Z,,,,,,,,,,,,,,,,53,,,,,,,,,,,,,,241,,response,,,,99,,,,,,,Space,keypress(Space),,,,,,,,---- -- ----- -- ------ - ------- --- ----------<br>------------- ------ ------ ---- ---- ------- ----- -- ----<br>-------- ------- -- ---------- --- - --- ----- ----- ----<br>---- --- --- ----- --- ---- ---- ------- ----- ---- -------<br>--- --- -- ----- -- --- ---- -- --- ---- -- that's ------<br>--- ----- -- ----,477701,477637,477396,477392,477412,477729,,50,that's
screen,html.Screen,1_1_0_1_51,2021-04-23T14:53:33.238Z,,,,,,,,,,,,,,,,53,,,,,,,,,,,,,,659.0000000000582,,response,,,,99,,,,,,,Space,keypress(Space),,,,,,,,---- -- ----- -- ------ - ------- --- ----------<br>------------- ------ ------ ---- ---- ------- ----- -- ----<br>-------- ------- -- ---------- --- - --- ----- ----- ----<br>---- --- --- ----- --- ---- ---- ------- ----- ---- -------<br>--- --- -- ----- -- --- ---- -- --- ---- -- ------ really<br>--- ----- -- ----,478436.00000000006,478371.00000000006,477712,477702,477729,478479,,51,really
screen,html.Screen,1_1_0_1_52,2021-04-23T14:53:33.624Z,,,,,,,,,,,,,,,,53,,,,,,,,,,,,,,294,,response,,,,99,,,,,,,Space,keypress(Space),,,,,,,,---- -- ----- -- ------ - ------- --- ----------<br>------------- ------ ------ ---- ---- ------- ----- -- ----<br>-------- ------- -- ---------- --- - --- ----- ----- ----<br>---- --- --- ----- --- ---- ---- ------- ----- ---- -------<br>--- --- -- ----- -- --- ---- -- --- ---- -- ------ ------<br>not ----- -- ----,478821,478757,478463,478436.00000000006,478479,478846,,52,not
screen,html.Screen,1_1_0_1_53,2021-04-23T14:53:33.976Z,,,,,,,,,,,,,,,,53,,,,,,,,,,,,,,280,,response,,,,99,,,,,,,Space,keypress(Space),,,,,,,,---- -- ----- -- ------ - ------- --- ----------<br>------------- ------ ------ ---- ---- ------- ----- -- ----<br>-------- ------- -- ---------- --- - --- ----- ----- ----<br>---- --- --- ----- --- ---- ---- ------- ----- ---- -------<br>--- --- -- ----- -- --- ---- -- --- ---- -- ------ ------<br>--- close -- ----,479174.00000000006,479108,478828,478821,478846,479196,,53,close
screen,html.Screen,1_1_0_1_54,2021-04-23T14:53:34.512Z,,,,,,,,,,,,,,,,53,,,,,,,,,,,,,,465,,response,,,,99,,,,,,,Space,keypress(Space),,,,,,,,---- -- ----- -- ------ - ------- --- ----------<br>------------- ------ ------ ---- ---- ------- ----- -- ----<br>-------- ------- -- ---------- --- - --- ----- ----- ----<br>---- --- --- ----- --- ---- ---- ------- ----- ---- -------<br>--- --- -- ----- -- --- ---- -- --- ---- -- ------ ------<br>--- ----- at ----,479709,479644,479179,479174.00000000006,479196,479746,,54,at
screen,html.Screen,1_1_0_1_55,2021-04-23T14:53:34.952Z,,,,,,,,,,,,,,,,53,,,,,,,,,,,,,,356.0000000000582,,response,,,,99,,,,,,,Space,keypress(Space),,,,,,,,---- -- ----- -- ------ - ------- --- ----------<br>------------- ------ ------ ---- ---- ------- ----- -- ----<br>-------- ------- -- ---------- --- - --- ----- ----- ----<br>---- --- --- ----- --- ---- ---- ------- ----- ---- -------<br>--- --- -- ----- -- --- ---- -- --- ---- -- ------ ------<br>--- ----- -- all.,480149,480085.00000000006,479729,479710.00000000006,479746,480179,,55,all.
Item 99,flow.Loop,1_1_0_1,2021-04-23T14:53:34.952Z,,,,,,,,,,,,,,,,,,,,,,,,,,,,,,29891.00000000006,,completion,,,,,F,,,,,,,,,,,silence,,,,,480150.00000000006,480085.00000000006,450177,450178,450194,480179,,,
Question 1,html.Screen,1_1_0_2,2021-04-23T14:53:40.269Z,,,,,,,,,,,,,,,,,,,,,,,,,,,true,FALSE,,5241,,response,,,,99,F,,,,,,FALSE,click #choice-2,,,,silence,,,,,485466,485403,480162,480150.00000000006,480179,485495,,,
Question 2,html.Screen,1_1_0_3,2021-04-23T14:53:50.434Z,,,,,,,,,,,,,,,,,,,,,,,,,,,false,TRUE,,10088,,response,,,,99,F,,,,,,FALSE,click #choice-2,,,,silence,,,,,495631,495567,485479,485466,485495,495663,,,
Item 99,flow.Sequence,1_1_0,2021-04-23T14:53:50.434Z,,,,,,,,,,,,,,,,,,,,,,,,,,,,,,55374,,completion,,,,,,,,,,,,,,,,,,,,,495631,495567,440175,440168,440193,495663,,,
Holding screen,html.Screen,1_1_1_0,2021-04-23T14:54:00.451Z,,,,,,,,,,,,,,,,,,,,,,,,,,,,,,10001,,timeout,,,,,,,,,,,,,,,,,,,,,505647,505647,495647,495631,495663,505664,,,
screen,html.Screen,1_1_1_1_0,2021-04-23T14:54:01.575Z,,,,,,,,,,,,,,,,54,,,,,,,,,,,,,,1058,,response,,,,100,,,,,,,Space,keypress(Space),,,,,,,,At --- ---- --- ------ ----- ------- ---- -- --- ------- --<br>------- ---------- ------ -- ----- -- ----- -- ---- ------<br>--- ----- --- --- ------ -------- ----- --- ------ ----- --<br>----- ----- ---------- --- --- ------ ------ ---- -- ------<br>------- --- ------ ----- --- ---- ------- -- ---- --- --<br>------- ------,506771,506705,505647,505648,505664,506814,,0,At
screen,html.Screen,1_1_1_1_1,2021-04-23T14:54:02.067Z,,,,,,,,,,,,,,,,54,,,,,,,,,,,,,,400.0000000000582,,response,,,,100,,,,,,,Space,keypress(Space),,,,,,,,-- the ---- --- ------ ----- ------- ---- -- --- ------- --<br>------- ---------- ------ -- ----- -- ----- -- ---- ------<br>--- ----- --- --- ------ -------- ----- --- ------ ----- --<br>----- ----- ---------- --- --- ------ ------ ---- -- ------<br>------- --- ------ ----- --- ---- ------- -- ---- --- --<br>------- ------,507263.00000000006,507198.00000000006,506798,506771,506814,507298,,1,the
screen,html.Screen,1_1_1_1_2,2021-04-23T14:54:02.536Z,,,,,,,,,,,,,,,,54,,,,,,,,,,,,,,387,,response,,,,100,,,,,,,Space,keypress(Space),,,,,,,,-- --- time --- ------ ----- ------- ---- -- --- ------- --<br>------- ---------- ------ -- ----- -- ----- -- ---- ------<br>--- ----- --- --- ------ -------- ----- --- ------ ----- --<br>----- ----- ---------- --- --- ------ ------ ---- -- ------<br>------- --- ------ ----- --- ---- ------- -- ---- --- --<br>------- ------,507733,507668,507281,507263.00000000006,507298,507764,,2,time
screen,html.Screen,1_1_1_1_3,2021-04-23T14:54:03.013Z,,,,,,,,,,,,,,,,54,,,,,,,,,,,,,,396,,response,,,,100,,,,,,,Space,keypress(Space),,,,,,,,-- --- ---- the ------ ----- ------- ---- -- --- ------- --<br>------- ---------- ------ -- ----- -- ----- -- ---- ------<br>--- ----- --- --- ------ -------- ----- --- ------ ----- --<br>----- ----- ---------- --- --- ------ ------ ---- -- ------<br>------- --- ------ ----- --- ---- ------- -- ---- --- --<br>------- ------,508209,508144,507748,507733,507764,508247,,3,the
screen,html.Screen,1_1_1_1_4,2021-04-23T14:54:03.572Z,,,,,,,,,,,,,,,,54,,,,,,,,,,,,,,471,,response,,,,100,,,,,,,Space,keypress(Space),,,,,,,,-- --- ---- --- French ----- ------- ---- -- --- ------- --<br>------- ---------- ------ -- ----- -- ----- -- ---- ------<br>--- ----- --- --- ------ -------- ----- --- ------ ----- --<br>----- ----- ---------- --- --- ------ ------ ---- -- ------<br>------- --- ------ ----- --- ---- ------- -- ---- --- --<br>------- ------,508768,508702,508231,508209,508247,508798,,4,French
screen,html.Screen,1_1_1_1_5,2021-04-23T14:54:03.993Z,,,,,,,,,,,,,,,,54,,,,,,,,,,,,,,343,,response,,,,100,,,,,,,Space,keypress(Space),,,,,,,,-- --- ---- --- ------ crown ------- ---- -- --- ------- --<br>------- ---------- ------ -- ----- -- ----- -- ---- ------<br>--- ----- --- --- ------ -------- ----- --- ------ ----- --<br>----- ----- ---------- --- --- ------ ------ ---- -- ------<br>------- --- ------ ----- --- ---- ------- -- ---- --- --<br>------- ------,509189,509124,508781,508768,508798,509231,,5,crown
screen,html.Screen,1_1_1_1_6,2021-04-23T14:54:04.493Z,,,,,,,,,,,,,,,,54,,,,,,,,,,,,,,408,,response,,,,100,,,,,,,Space,keypress(Space),,,,,,,,-- --- ---- --- ------ ----- secured ---- -- --- ------- --<br>------- ---------- ------ -- ----- -- ----- -- ---- ------<br>--- ----- --- --- ------ -------- ----- --- ------ ----- --<br>----- ----- ---------- --- --- ------ ------ ---- -- ------<br>------- --- ------ ----- --- ---- ------- -- ---- --- --<br>------- ------,509689,509623,509215,509189,509231,509730,,6,secured
screen,html.Screen,1_1_1_1_7,2021-04-23T14:54:05.224Z,,,,,,,,,,,,,,,,54,,,,,,,,,,,,,,641,,response,,,,100,,,,,,,Space,keypress(Space),,,,,,,,-- --- ---- --- ------ ----- ------- much -- --- ------- --<br>------- ---------- ------ -- ----- -- ----- -- ---- ------<br>--- ----- --- --- ------ -------- ----- --- ------ ----- --<br>----- ----- ---------- --- --- ------ ------ ---- -- ------<br>------- --- ------ ----- --- ---- ------- -- ---- --- --<br>------- ------,510421,510355,509714,509689,509730,510447,,7,much
screen,html.Screen,1_1_1_1_8,2021-04-23T14:54:05.658Z,,,,,,,,,,,,,,,,54,,,,,,,,,,,,,,358,,response,,,,100,,,,,,,Space,keypress(Space),,,,,,,,-- --- ---- --- ------ ----- ------- ---- of --- ------- --<br>------- ---------- ------ -- ----- -- ----- -- ---- ------<br>--- ----- --- --- ------ -------- ----- --- ------ ----- --<br>----- ----- ---------- --- --- ------ ------ ---- -- ------<br>------- --- ------ ----- --- ---- ------- -- ---- --- --<br>------- ------,510854,510789,510431,510421,510447,510881,,8,of
screen,html.Screen,1_1_1_1_9,2021-04-23T14:54:06.028Z,,,,,,,,,,,,,,,,54,,,,,,,,,,,,,,294,,response,,,,100,,,,,,,Space,keypress(Space),,,,,,,,-- --- ---- --- ------ ----- ------- ---- -- its ------- --<br>------- ---------- ------ -- ----- -- ----- -- ---- ------<br>--- ----- --- --- ------ -------- ----- --- ------ ----- --<br>----- ----- ---------- --- --- ------ ------ ---- -- ------<br>------- --- ------ ----- --- ---- ------- -- ---- --- --<br>------- ------,511225,511158,510864,510854,510881,511247,,9,its
screen,html.Screen,1_1_1_1_10,2021-04-23T14:54:06.784Z,,,,,,,,,,,,,,,,54,,,,,,,,,,,,,,684,,response,,,,100,,,,,,,Space,keypress(Space),,,,,,,,-- --- ---- --- ------ ----- ------- ---- -- --- revenue --<br>------- ---------- ------ -- ----- -- ----- -- ---- ------<br>--- ----- --- --- ------ -------- ----- --- ------ ----- --<br>----- ----- ---------- --- --- ------ ------ ---- -- ------<br>------- --- ------ ----- --- ---- ------- -- ---- --- --<br>------- ------,511981,511915,511231,511225,511247,512015,,10,revenue
screen,html.Screen,1_1_1_1_11,2021-04-23T14:54:07.261Z,,,,,,,,,,,,,,,,54,,,,,,,,,,,,,,394.0000000000582,,response,,,,100,,,,,,,Space,keypress(Space),,,,,,,,-- --- ---- --- ------ ----- ------- ---- -- --- ------- by<br>------- ---------- ------ -- ----- -- ----- -- ---- ------<br>--- ----- --- --- ------ -------- ----- --- ------ ----- --<br>----- ----- ---------- --- --- ------ ------ ---- -- ------<br>------- --- ------ ----- --- ---- ------- -- ---- --- --<br>------- ------,512457,512392.00000000006,511998,511981,512015,512497,,11,by
screen,html.Screen,1_1_1_1_12,2021-04-23T14:54:07.699Z,,,,,,,,,,,,,,,,54,,,,,,,,,,,,,,350.0000000000582,,response,,,,100,,,,,,,Space,keypress(Space),,,,,,,,-- --- ---- --- ------ ----- ------- ---- -- --- ------- --<br>issuing ---------- ------ -- ----- -- ----- -- ---- ------<br>--- ----- --- --- ------ -------- ----- --- ------ ----- --<br>----- ----- ---------- --- --- ------ ------ ---- -- ------<br>------- --- ------ ----- --- ---- ------- -- ---- --- --<br>------- ------,512895,512830.00000000006,512480,512457,512497,512931,,12,issuing
screen,html.Screen,1_1_1_1_13,2021-04-23T14:54:08.532Z,,,,,,,,,,,,,,,,54,,,,,,,,,,,,,,748.0000000000582,,response,,,,100,,,,,,,Space,keypress(Space),,,,,,,,-- --- ---- --- ------ ----- ------- ---- -- --- ------- --<br>------- government ------ -- ----- -- ----- -- ---- ------<br>--- ----- --- --- ------ -------- ----- --- ------ ----- --<br>----- ----- ---------- --- --- ------ ------ ---- -- ------<br>------- --- ------ ----- --- ---- ------- -- ---- --- --<br>------- ------,513728.00000000006,513662.00000000006,512914,512895,512931,513764,,13,government
screen,html.Screen,1_1_1_1_14,2021-04-23T14:54:09.016Z,,,,,,,,,,,,,,,,54,,,,,,,,,,,,,,398.9999999999418,,response,,,,100,,,,,,,Space,keypress(Space),,,,,,,,-- --- ---- --- ------ ----- ------- ---- -- --- ------- --<br>------- ---------- bonds. -- ----- -- ----- -- ---- ------<br>--- ----- --- --- ------ -------- ----- --- ------ ----- --<br>----- ----- ---------- --- --- ------ ------ ---- -- ------<br>------- --- ------ ----- --- ---- ------- -- ---- --- --<br>------- ------,514212,514145.99999999994,513747,513728.00000000006,513764,514248,,14,bonds.
screen,html.Screen,1_1_1_1_15,2021-04-23T14:54:09.502Z,,,,,,,,,,,,,,,,54,,,,,,,,,,,,,,401.0000000000582,,response,,,,100,,,,,,,Space,keypress(Space),,,,,,,,-- --- ---- --- ------ ----- ------- ---- -- --- ------- --<br>------- ---------- ------ In ----- -- ----- -- ---- ------<br>--- ----- --- --- ------ -------- ----- --- ------ ----- --<br>----- ----- ---------- --- --- ------ ------ ---- -- ------<br>------- --- ------ ----- --- ---- ------- -- ---- --- --<br>------- ------,514698,514632.00000000006,514231,514212,514248,514731,,15,In
screen,html.Screen,1_1_1_1_16,2021-04-23T14:54:10.515Z,,,,,,,,,,,,,,,,54,,,,,,,,,,,,,,930.9999999999418,,response,,,,100,,,,,,,Space,keypress(Space),,,,,,,,"-- --- ---- --- ------ ----- ------- ---- -- --- ------- --<br>------- ---------- ------ -- 1727, -- ----- -- ---- ------<br>--- ----- --- --- ------ -------- ----- --- ------ ----- --<br>----- ----- ---------- --- --- ------ ------ ---- -- ------<br>------- --- ------ ----- --- ---- ------- -- ---- --- --<br>------- ------",515711,515645.99999999994,514715,514698,514731,515748,,16,"1727,"
screen,html.Screen,1_1_1_1_17,2021-04-23T14:54:10.977Z,,,,,,,,,,,,,,,,54,,,,,,,,,,,,,,375,,response,,,,100,,,,,,,Space,keypress(Space),,,,,,,,-- --- ---- --- ------ ----- ------- ---- -- --- ------- --<br>------- ---------- ------ -- ----- in ----- -- ---- ------<br>--- ----- --- --- ------ -------- ----- --- ------ ----- --<br>----- ----- ---------- --- --- ------ ------ ---- -- ------<br>------- --- ------ ----- --- ---- ------- -- ---- --- --<br>------- ------,516173,516107,515732,515712,515748,516215,,17,in
screen,html.Screen,1_1_1_1_18,2021-04-23T14:54:11.515Z,,,,,,,,,,,,,,,,54,,,,,,,,,,,,,,447,,response,,,,100,,,,,,,Space,keypress(Space),,,,,,,,-- --- ---- --- ------ ----- ------- ---- -- --- ------- --<br>------- ---------- ------ -- ----- -- order -- ---- ------<br>--- ----- --- --- ------ -------- ----- --- ------ ----- --<br>----- ----- ---------- --- --- ------ ------ ---- -- ------<br>------- --- ------ ----- --- ---- ------- -- ---- --- --<br>------- ------,516711,516645,516198,516173,516215,516748,,18,order
screen,html.Screen,1_1_1_1_19,2021-04-23T14:54:11.922Z,,,,,,,,,,,,,,,,54,,,,,,,,,,,,,,321,,response,,,,100,,,,,,,Space,keypress(Space),,,,,,,,-- --- ---- --- ------ ----- ------- ---- -- --- ------- --<br>------- ---------- ------ -- ----- -- ----- to ---- ------<br>--- ----- --- --- ------ -------- ----- --- ------ ----- --<br>----- ----- ---------- --- --- ------ ------ ---- -- ------<br>------- --- ------ ----- --- ---- ------- -- ---- --- --<br>------- ------,517119,517053,516732,516711,516748,517148,,19,to
screen,html.Screen,1_1_1_1_20,2021-04-23T14:54:12.312Z,,,,,,,,,,,,,,,,54,,,,,,,,,,,,,,311,,response,,,,100,,,,,,,Space,keypress(Space),,,,,,,,-- --- ---- --- ------ ----- ------- ---- -- --- ------- --<br>------- ---------- ------ -- ----- -- ----- -- save ------<br>--- ----- --- --- ------ -------- ----- --- ------ ----- --<br>----- ----- ---------- --- --- ------ ------ ---- -- ------<br>------- --- ------ ----- --- ---- ------- -- ---- --- --<br>------- ------,517509,517443,517132,517119,517148,517548,,20,save
screen,html.Screen,1_1_1_1_21,2021-04-23T14:54:12.979Z,,,,,,,,,,,,,,,,54,,,,,,,,,,,,,,578,,response,,,,100,,,,,,,Space,keypress(Space),,,,,,,,"-- --- ---- --- ------ ----- ------- ---- -- --- ------- --<br>------- ---------- ------ -- ----- -- ----- -- ---- money,<br>--- ----- --- --- ------ -------- ----- --- ------ ----- --<br>----- ----- ---------- --- --- ------ ------ ---- -- ------<br>------- --- ------ ----- --- ---- ------- -- ---- --- --<br>------- ------",518174.99999999994,518110,517532,517509,517548,518215,,21,"money,"
screen,html.Screen,1_1_1_1_22,2021-04-23T14:54:13.464Z,,,,,,,,,,,,,,,,54,,,,,,,,,,,,,,396,,response,,,,100,,,,,,,Space,keypress(Space),,,,,,,,-- --- ---- --- ------ ----- ------- ---- -- --- ------- --<br>------- ---------- ------ -- ----- -- ----- -- ---- ------<br>the ----- --- --- ------ -------- ----- --- ------ ----- --<br>----- ----- ---------- --- --- ------ ------ ---- -- ------<br>------- --- ------ ----- --- ---- ------- -- ---- --- --<br>------- ------,518661.00000000006,518595,518199,518174.99999999994,518215,518698,,22,the
screen,html.Screen,1_1_1_1_23,2021-04-23T14:54:13.999Z,,,,,,,,,,,,,,,,54,,,,,,,,,,,,,,448,,response,,,,100,,,,,,,Space,keypress(Space),,,,,,,,-- --- ---- --- ------ ----- ------- ---- -- --- ------- --<br>------- ---------- ------ -- ----- -- ----- -- ---- ------<br>--- state --- --- ------ -------- ----- --- ------ ----- --<br>----- ----- ---------- --- --- ------ ------ ---- -- ------<br>------- --- ------ ----- --- ---- ------- -- ---- --- --<br>------- ------,519195.00000000006,519130,518682,518661.00000000006,518698,519231,,23,state
screen,html.Screen,1_1_1_1_24,2021-04-23T14:54:14.502Z,,,,,,,,,,,,,,,,54,,,,,,,,,,,,,,418.0000000000582,,response,,,,100,,,,,,,Space,keypress(Space),,,,,,,,-- --- ---- --- ------ ----- ------- ---- -- --- ------- --<br>------- ---------- ------ -- ----- -- ----- -- ---- ------<br>--- ----- cut --- ------ -------- ----- --- ------ ----- --<br>----- ----- ---------- --- --- ------ ------ ---- -- ------<br>------- --- ------ ----- --- ---- ------- -- ---- --- --<br>------- ------,519698,519633.00000000006,519215,519195.00000000006,519231,519731,,24,cut
screen,html.Screen,1_1_1_1_25,2021-04-23T14:54:14.899Z,,,,,,,,,,,,,,,,54,,,,,,,,,,,,,,316,,response,,,,100,,,,,,,Space,keypress(Space),,,,,,,,-- --- ---- --- ------ ----- ------- ---- -- --- ------- --<br>------- ---------- ------ -- ----- -- ----- -- ---- ------<br>--- ----- --- the ------ -------- ----- --- ------ ----- --<br>----- ----- ---------- --- --- ------ ------ ---- -- ------<br>------- --- ------ ----- --- ---- ------- -- ---- --- --<br>------- ------,520095,520030,519714,519698,519731,520132,,25,the
screen,html.Screen,1_1_1_1_26,2021-04-23T14:54:15.814Z,,,,,,,,,,,,,,,,54,,,,,,,,,,,,,,829.9999999999418,,response,,,,100,,,,,,,Space,keypress(Space),,,,,,,,-- --- ---- --- ------ ----- ------- ---- -- --- ------- --<br>------- ---------- ------ -- ----- -- ----- -- ---- ------<br>--- ----- --- --- bonds' -------- ----- --- ------ ----- --<br>----- ----- ---------- --- --- ------ ------ ---- -- ------<br>------- --- ------ ----- --- ---- ------- -- ---- --- --<br>------- ------,521010,520943.99999999994,520114,520095,520132,521049,,26,bonds'
screen,html.Screen,1_1_1_1_27,2021-04-23T14:54:16.494Z,,,,,,,,,,,,,,,,54,,,,,,,,,,,,,,592,,response,,,,100,,,,,,,Space,keypress(Space),,,,,,,,-- --- ---- --- ------ ----- ------- ---- -- --- ------- --<br>------- ---------- ------ -- ----- -- ----- -- ---- ------<br>--- ----- --- --- ------ interest ----- --- ------ ----- --<br>----- ----- ---------- --- --- ------ ------ ---- -- ------<br>------- --- ------ ----- --- ---- ------- -- ---- --- --<br>------- ------,521690.00000000006,521624,521032,521010,521049,521731,,27,interest
screen,html.Screen,1_1_1_1_28,2021-04-23T14:54:17.006Z,,,,,,,,,,,,,,,,54,,,,,,,,,,,,,,419,,response,,,,100,,,,,,,Space,keypress(Space),,,,,,,,-- --- ---- --- ------ ----- ------- ---- -- --- ------- --<br>------- ---------- ------ -- ----- -- ----- -- ---- ------<br>--- ----- --- --- ------ -------- rate. --- ------ ----- --<br>----- ----- ---------- --- --- ------ ------ ---- -- ------<br>------- --- ------ ----- --- ---- ------- -- ---- --- --<br>------- ------,522202,522135,521716,521690.00000000006,521731,522231,,28,rate.
screen,html.Screen,1_1_1_1_29,2021-04-23T14:54:17.497Z,,,,,,,,,,,,,,,,54,,,,,,,,,,,,,,411,,response,,,,100,,,,,,,Space,keypress(Space),,,,,,,,-- --- ---- --- ------ ----- ------- ---- -- --- ------- --<br>------- ---------- ------ -- ----- -- ----- -- ---- ------<br>--- ----- --- --- ------ -------- ----- The ------ ----- --<br>----- ----- ---------- --- --- ------ ------ ---- -- ------<br>------- --- ------ ----- --- ---- ------- -- ---- --- --<br>------- ------,522693,522626,522215,522202,522231,522732,,29,The
screen,html.Screen,1_1_1_1_30,2021-04-23T14:54:18.002Z,,,,,,,,,,,,,,,,54,,,,,,,,,,,,,,416.0000000000582,,response,,,,100,,,,,,,Space,keypress(Space),,,,,,,,-- --- ---- --- ------ ----- ------- ---- -- --- ------- --<br>------- ---------- ------ -- ----- -- ----- -- ---- ------<br>--- ----- --- --- ------ -------- ----- --- market ----- --<br>----- ----- ---------- --- --- ------ ------ ---- -- ------<br>------- --- ------ ----- --- ---- ------- -- ---- --- --<br>------- ------,523198,523132.00000000006,522716,522693,522732,523232,,30,market
screen,html.Screen,1_1_1_1_31,2021-04-23T14:54:18.568Z,,,,,,,,,,,,,,,,54,,,,,,,,,,,,,,481,,response,,,,100,,,,,,,Space,keypress(Space),,,,,,,,-- --- ---- --- ------ ----- ------- ---- -- --- ------- --<br>------- ---------- ------ -- ----- -- ----- -- ---- ------<br>--- ----- --- --- ------ -------- ----- --- ------ value --<br>----- ----- ---------- --- --- ------ ------ ---- -- ------<br>------- --- ------ ----- --- ---- ------- -- ---- --- --<br>------- ------,523764,523697,523216,523198,523232,523799,,31,value
screen,html.Screen,1_1_1_1_32,2021-04-23T14:54:19.067Z,,,,,,,,,,,,,,,,54,,,,,,,,,,,,,,415,,response,,,,100,,,,,,,Space,keypress(Space),,,,,,,,-- --- ---- --- ------ ----- ------- ---- -- --- ------- --<br>------- ---------- ------ -- ----- -- ----- -- ---- ------<br>--- ----- --- --- ------ -------- ----- --- ------ ----- of<br>----- ----- ---------- --- --- ------ ------ ---- -- ------<br>------- --- ------ ----- --- ---- ------- -- ---- --- --<br>------- ------,524263.00000000006,524197,523782,523764,523799,524299,,32,of
screen,html.Screen,1_1_1_1_33,2021-04-23T14:54:19.767Z,,,,,,,,,,,,,,,,54,,,,,,,,,,,,,,615,,response,,,,100,,,,,,,Space,keypress(Space),,,,,,,,-- --- ---- --- ------ ----- ------- ---- -- --- ------- --<br>------- ---------- ------ -- ----- -- ----- -- ---- ------<br>--- ----- --- --- ------ -------- ----- --- ------ ----- --<br>these ----- ---------- --- --- ------ ------ ---- -- ------<br>------- --- ------ ----- --- ---- ------- -- ---- --- --<br>------- ------,524963,524897,524282,524263.00000000006,524299,524999,,33,these
screen,html.Screen,1_1_1_1_34,2021-04-23T14:54:20.297Z,,,,,,,,,,,,,,,,54,,,,,,,,,,,,,,445,,response,,,,100,,,,,,,Space,keypress(Space),,,,,,,,-- --- ---- --- ------ ----- ------- ---- -- --- ------- --<br>------- ---------- ------ -- ----- -- ----- -- ---- ------<br>--- ----- --- --- ------ -------- ----- --- ------ ----- --<br>----- bonds ---------- --- --- ------ ------ ---- -- ------<br>------- --- ------ ----- --- ---- ------- -- ---- --- --<br>------- ------,525493,525427,524982,524963,524999,525532,,34,bonds
screen,html.Screen,1_1_1_1_35,2021-04-23T14:54:21.016Z,,,,,,,,,,,,,,,,54,,,,,,,,,,,,,,630,,response,,,,100,,,,,,,Space,keypress(Space),,,,,,,,"-- --- ---- --- ------ ----- ------- ---- -- --- ------- --<br>------- ---------- ------ -- ----- -- ----- -- ---- ------<br>--- ----- --- --- ------ -------- ----- --- ------ ----- --<br>----- ----- plummeted, --- --- ------ ------ ---- -- ------<br>------- --- ------ ----- --- ---- ------- -- ---- --- --<br>------- ------",526212,526146,525516,525493,525532,526249,,35,"plummeted,"
screen,html.Screen,1_1_1_1_36,2021-04-23T14:54:21.521Z,,,,,,,,,,,,,,,,54,,,,,,,,,,,,,,418.0000000001164,,response,,,,100,,,,,,,Space,keypress(Space),,,,,,,,-- --- ---- --- ------ ----- ------- ---- -- --- ------- --<br>------- ---------- ------ -- ----- -- ----- -- ---- ------<br>--- ----- --- --- ------ -------- ----- --- ------ ----- --<br>----- ----- ---------- and --- ------ ------ ---- -- ------<br>------- --- ------ ----- --- ---- ------- -- ---- --- --<br>------- ------,526717,526651.0000000001,526233,526212,526249,526748,,36,and
screen,html.Screen,1_1_1_1_37,2021-04-23T14:54:21.951Z,,,,,,,,,,,,,,,,54,,,,,,,,,,,,,,349,,response,,,,100,,,,,,,Space,keypress(Space),,,,,,,,-- --- ---- --- ------ ----- ------- ---- -- --- ------- --<br>------- ---------- ------ -- ----- -- ----- -- ---- ------<br>--- ----- --- --- ------ -------- ----- --- ------ ----- --<br>----- ----- ---------- --- the ------ ------ ---- -- ------<br>------- --- ------ ----- --- ---- ------- -- ---- --- --<br>------- ------,527147,527081,526732,526717,526748,527183,,37,the
screen,html.Screen,1_1_1_1_38,2021-04-23T14:54:22.474Z,,,,,,,,,,,,,,,,54,,,,,,,,,,,,,,438,,response,,,,100,,,,,,,Space,keypress(Space),,,,,,,,-- --- ---- --- ------ ----- ------- ---- -- --- ------- --<br>------- ---------- ------ -- ----- -- ----- -- ---- ------<br>--- ----- --- --- ------ -------- ----- --- ------ ----- --<br>----- ----- ---------- --- --- market ------ ---- -- ------<br>------- --- ------ ----- --- ---- ------- -- ---- --- --<br>------- ------,527669,527604,527166,527147,527183,527698,,38,market
screen,html.Screen,1_1_1_1_39,2021-04-23T14:54:22.845Z,,,,,,,,,,,,,,,,54,,,,,,,,,,,,,,294,,response,,,,100,,,,,,,Space,keypress(Space),,,,,,,,-- --- ---- --- ------ ----- ------- ---- -- --- ------- --<br>------- ---------- ------ -- ----- -- ----- -- ---- ------<br>--- ----- --- --- ------ -------- ----- --- ------ ----- --<br>----- ----- ---------- --- --- ------ became ---- -- ------<br>------- --- ------ ----- --- ---- ------- -- ---- --- --<br>------- ------,528041,527975,527681,527670,527698,528065,,39,became
screen,html.Screen,1_1_1_1_40,2021-04-23T14:54:23.350Z,,,,,,,,,,,,,,,,54,,,,,,,,,,,,,,431,,response,,,,100,,,,,,,Space,keypress(Space),,,,,,,,-- --- ---- --- ------ ----- ------- ---- -- --- ------- --<br>------- ---------- ------ -- ----- -- ----- -- ---- ------<br>--- ----- --- --- ------ -------- ----- --- ------ ----- --<br>----- ----- ---------- --- --- ------ ------ wary -- ------<br>------- --- ------ ----- --- ---- ------- -- ---- --- --<br>------- ------,528546,528480,528049,528041,528065,528583,,40,wary
screen,html.Screen,1_1_1_1_41,2021-04-23T14:54:23.739Z,,,,,,,,,,,,,,,,54,,,,,,,,,,,,,,303,,response,,,,100,,,,,,,Space,keypress(Space),,,,,,,,-- --- ---- --- ------ ----- ------- ---- -- --- ------- --<br>------- ---------- ------ -- ----- -- ----- -- ---- ------<br>--- ----- --- --- ------ -------- ----- --- ------ ----- --<br>----- ----- ---------- --- --- ------ ------ ---- of ------<br>------- --- ------ ----- --- ---- ------- -- ---- --- --<br>------- ------,528935.0000000001,528869,528566,528546,528583,528965,,41,of
screen,html.Screen,1_1_1_1_42,2021-04-23T14:54:24.532Z,,,,,,,,,,,,,,,,54,,,,,,,,,,,,,,713,,response,,,,100,,,,,,,Space,keypress(Space),,,,,,,,-- --- ---- --- ------ ----- ------- ---- -- --- ------- --<br>------- ---------- ------ -- ----- -- ----- -- ---- ------<br>--- ----- --- --- ------ -------- ----- --- ------ ----- --<br>----- ----- ---------- --- --- ------ ------ ---- -- French<br>------- --- ------ ----- --- ---- ------- -- ---- --- --<br>------- ------,529727,529662,528949,528935.0000000001,528965,529766,,42,French
screen,html.Screen,1_1_1_1_43,2021-04-23T14:54:25.097Z,,,,,,,,,,,,,,,,54,,,,,,,,,,,,,,479,,response,,,,100,,,,,,,Space,keypress(Space),,,,,,,,-- --- ---- --- ------ ----- ------- ---- -- --- ------- --<br>------- ---------- ------ -- ----- -- ----- -- ---- ------<br>--- ----- --- --- ------ -------- ----- --- ------ ----- --<br>----- ----- ---------- --- --- ------ ------ ---- -- ------<br>credit. --- ------ ----- --- ---- ------- -- ---- --- --<br>------- ------,530293,530227,529748,529728.0000000001,529766,530332,,43,credit.
screen,html.Screen,1_1_1_1_44,2021-04-23T14:54:25.598Z,,,,,,,,,,,,,,,,54,,,,,,,,,,,,,,409,,response,,,,100,,,,,,,Space,keypress(Space),,,,,,,,-- --- ---- --- ------ ----- ------- ---- -- --- ------- --<br>------- ---------- ------ -- ----- -- ----- -- ---- ------<br>--- ----- --- --- ------ -------- ----- --- ------ ----- --<br>----- ----- ---------- --- --- ------ ------ ---- -- ------<br>------- The ------ ----- --- ---- ------- -- ---- --- --<br>------- ------,530794,530725,530316,530293,530332,530833,,44,The
screen,html.Screen,1_1_1_1_45,2021-04-23T14:54:26.058Z,,,,,,,,,,,,,,,,54,,,,,,,,,,,,,,372,,response,,,,100,,,,,,,Space,keypress(Space),,,,,,,,-- --- ---- --- ------ ----- ------- ---- -- --- ------- --<br>------- ---------- ------ -- ----- -- ----- -- ---- ------<br>--- ----- --- --- ------ -------- ----- --- ------ ----- --<br>----- ----- ---------- --- --- ------ ------ ---- -- ------<br>------- --- French ----- --- ---- ------- -- ---- --- --<br>------- ------,531254,531188,530816,530794,530833,531282,,45,French
screen,html.Screen,1_1_1_1_46,2021-04-23T14:54:26.415Z,,,,,,,,,,,,,,,,54,,,,,,,,,,,,,,278,,response,,,,100,,,,,,,Space,keypress(Space),,,,,,,,-- --- ---- --- ------ ----- ------- ---- -- --- ------- --<br>------- ---------- ------ -- ----- -- ----- -- ---- ------<br>--- ----- --- --- ------ -------- ----- --- ------ ----- --<br>----- ----- ---------- --- --- ------ ------ ---- -- ------<br>------- --- ------ state --- ---- ------- -- ---- --- --<br>------- ------,531610,531544,531266,531254,531282,531633,,46,state
screen,html.Screen,1_1_1_1_47,2021-04-23T14:54:27.032Z,,,,,,,,,,,,,,,,54,,,,,,,,,,,,,,546,,response,,,,100,,,,,,,Space,keypress(Space),,,,,,,,-- --- ---- --- ------ ----- ------- ---- -- --- ------- --<br>------- ---------- ------ -- ----- -- ----- -- ---- ------<br>--- ----- --- --- ------ -------- ----- --- ------ ----- --<br>----- ----- ---------- --- --- ------ ------ ---- -- ------<br>------- --- ------ ----- was ---- ------- -- ---- --- --<br>------- ------,532228.0000000001,532161,531615,531611,531633,532266,,47,was
screen,html.Screen,1_1_1_1_48,2021-04-23T14:54:27.395Z,,,,,,,,,,,,,,,,54,,,,,,,,,,,,,,274,,response,,,,100,,,,,,,Space,keypress(Space),,,,,,,,-- --- ---- --- ------ ----- ------- ---- -- --- ------- --<br>------- ---------- ------ -- ----- -- ----- -- ---- ------<br>--- ----- --- --- ------ -------- ----- --- ------ ----- --<br>----- ----- ---------- --- --- ------ ------ ---- -- ------<br>------- --- ------ ----- --- left ------- -- ---- --- --<br>------- ------,532591,532524,532250,532228.0000000001,532266,532615,,48,left
screen,html.Screen,1_1_1_1_49,2021-04-23T14:54:27.812Z,,,,,,,,,,,,,,,,54,,,,,,,,,,,,,,342,,response,,,,100,,,,,,,Space,keypress(Space),,,,,,,,-- --- ---- --- ------ ----- ------- ---- -- --- ------- --<br>------- ---------- ------ -- ----- -- ----- -- ---- ------<br>--- ----- --- --- ------ -------- ----- --- ------ ----- --<br>----- ----- ---------- --- --- ------ ------ ---- -- ------<br>------- --- ------ ----- --- ---- without -- ---- --- --<br>------- ------,533008,532941,532599,532591,532615,533050,,49,without
screen,html.Screen,1_1_1_1_50,2021-04-23T14:54:28.200Z,,,,,,,,,,,,,,,,54,,,,,,,,,,,,,,297.0000000001164,,response,,,,100,,,,,,,Space,keypress(Space),,,,,,,,-- --- ---- --- ------ ----- ------- ---- -- --- ------- --<br>------- ---------- ------ -- ----- -- ----- -- ---- ------<br>--- ----- --- --- ------ -------- ----- --- ------ ----- --<br>----- ----- ---------- --- --- ------ ------ ---- -- ------<br>------- --- ------ ----- --- ---- ------- an ---- --- --<br>------- ------,533396,533329.0000000001,533032,533008,533050,533416,,50,an
screen,html.Screen,1_1_1_1_51,2021-04-23T14:54:28.876Z,,,,,,,,,,,,,,,,54,,,,,,,,,,,,,,606,,response,,,,100,,,,,,,Space,keypress(Space),,,,,,,,-- --- ---- --- ------ ----- ------- ---- -- --- ------- --<br>------- ---------- ------ -- ----- -- ----- -- ---- ------<br>--- ----- --- --- ------ -------- ----- --- ------ ----- --<br>----- ----- ---------- --- --- ------ ------ ---- -- ------<br>------- --- ------ ----- --- ---- ------- -- easy --- --<br>------- ------,534072,534005,533399,533396,533416,534100,,51,easy
screen,html.Screen,1_1_1_1_52,2021-04-23T14:54:29.381Z,,,,,,,,,,,,,,,,54,,,,,,,,,,,,,,427,,response,,,,100,,,,,,,Space,keypress(Space),,,,,,,,-- --- ---- --- ------ ----- ------- ---- -- --- ------- --<br>------- ---------- ------ -- ----- -- ----- -- ---- ------<br>--- ----- --- --- ------ -------- ----- --- ------ ----- --<br>----- ----- ---------- --- --- ------ ------ ---- -- ------<br>------- --- ------ ----- --- ---- ------- -- ---- way --<br>------- ------,534576,534510,534083,534072,534100,534616,,52,way
screen,html.Screen,1_1_1_1_53,2021-04-23T14:54:32.239Z,,,,,,,,,,,,,,,,54,,,,,,,,,,,,,,2769,,response,,,,100,,,,,,,Space,keypress(Space),,,,,,,,-- --- ---- --- ------ ----- ------- ---- -- --- ------- --<br>------- ---------- ------ -- ----- -- ----- -- ---- ------<br>--- ----- --- --- ------ -------- ----- --- ------ ----- --<br>----- ----- ---------- --- --- ------ ------ ---- -- ------<br>------- --- ------ ----- --- ---- ------- -- ---- --- of<br>------- ------,537434,537368,534599,534576,534616,537466,,53,of
screen,html.Screen,1_1_1_1_54,2021-04-23T14:54:32.700Z,,,,,,,,,,,,,,,,54,,,,,,,,,,,,,,380,,response,,,,100,,,,,,,Space,keypress(Space),,,,,,,,-- --- ---- --- ------ ----- ------- ---- -- --- ------- --<br>------- ---------- ------ -- ----- -- ----- -- ---- ------<br>--- ----- --- --- ------ -------- ----- --- ------ ----- --<br>----- ----- ---------- --- --- ------ ------ ---- -- ------<br>------- --- ------ ----- --- ---- ------- -- ---- --- --<br>raising ------,537896,537830,537450,537434,537466,537932,,54,raising
screen,html.Screen,1_1_1_1_55,2021-04-23T14:54:33.137Z,,,,,,,,,,,,,,,,54,,,,,,,,,,,,,,350,,response,,,,100,,,,,,,Space,keypress(Space),,,,,,,,-- --- ---- --- ------ ----- ------- ---- -- --- ------- --<br>------- ---------- ------ -- ----- -- ----- -- ---- ------<br>--- ----- --- --- ------ -------- ----- --- ------ ----- --<br>----- ----- ---------- --- --- ------ ------ ---- -- ------<br>------- --- ------ ----- --- ---- ------- -- ---- --- --<br>------- money.,538332,538266,537916,537896,537932,538367,,55,money.
Item 100,flow.Loop,1_1_1_1,2021-04-23T14:54:33.137Z,,,,,,,,,,,,,,,,,,,,,,,,,,,,,,32602,,completion,,,,,F,,,,,,,,,,,silence,,,,,538333,538266,505647,505648,505664,538367,,,
Question 1,html.Screen,1_1_1_2,2021-04-23T14:54:38.273Z,,,,,,,,,,,,,,,,,,,,,,,,,,,true,TRUE,,5053,,response,,,,100,F,,,,,,TRUE,click #choice-1,,,,silence,,,,,543468,543403,538350,538333,538367,543499,,,
Question 2,html.Screen,1_1_1_3,2021-04-23T14:54:41.773Z,,,,,,,,,,,,,,,,,,,,,,,,,,,false,FALSE,,3420,,response,,,,100,F,,,,,,TRUE,click #choice-1,,,,silence,,,,,546968,546903,543483,543469,543499,547000,,,
Item 100,flow.Sequence,1_1_1,2021-04-23T14:54:41.773Z,,,,,,,,,,,,,,,,,,,,,,,,,,,,,,51240,,completion,,,,,,,,,,,,,,,,,,,,,546969,546903,495647,495631,495663,547000,,,
End of Practice,html.Page,1_1_2,2021-04-23T14:54:45.190Z,,,,,,,,,,,,,,,,,,,,,,,,,,,,,,3385,,form submission,,,,,,,,,,,,,,,,,,,,,550385,550385,546983,546969,547000,550417,,,
Practice,flow.Sequence,1_1,2021-04-23T14:54:45.190Z,,,,,,,,,,,,,,,,,,,,,,,,,,,,,,110192,,completion,,,,,,,,,,,,,,,,,,,,,550385,550385,440175,440168,440193,550417,,,
Trap_instruction,html.Page,1_2_0,2021-04-23T14:54:52.208Z,,,,,,,,,,,,,,,,,,,,,,,,,,,,,,6986,,form submission,,,,,,,,,,,,,,,,,,,,,557403,557403,550401,550386,550417,557434,,,
trap_trial,html.Screen,1_2_1,2021-04-23T14:55:01.138Z,,,,,,,,,,,,,,,,,,,,,,,,,,,true,1,,8845,,response,,,,,,,,,,,1,click #choice-1,,,,,,,,,566333,566267,557422,557403,557434,566368,,,
end of trap trial,html.Page,1_2_2,2021-04-23T14:55:03.345Z,,,,,,,,,,,,,,,,,,,,,,,,,,,,,,2172,,form submission,,,,,,,,,,,,,,,,,,,,,568540,568540,566364,566333,566368,568568,,,
Trap 1,flow.Sequence,1_2,2021-04-23T14:55:03.346Z,,,,,,,,,,,,,,,,,,,,,,,,,,,,,,18123,,completion,,,,,,,,,,,,,,,,,,,,,568540,568540,550401,550385,550417,568568,,,
Standby,html.Page,1_3_0,2021-04-23T14:55:11.358Z,,,,,,,,,,,,,,,,,,,,,,,,,,,,,,8001,,timeout,,,,,,,,,,,,,,,,,,,,,576553,576552,568551,568541,568568,576569,,,
Holding screen,html.Screen,1_3_1_0_0,2021-04-23T14:55:18.359Z,,,,,,,,,,,,,,,,,,,,,,,,,,,,,,7001,,timeout,,,,,,,,,,,,,,,,,,,,,583553,583553,576552,576553,576569,583570,,,
screen,html.Screen,1_3_1_0_1_0,2021-04-23T14:55:20.040Z,,,,,,,,,,,,,,,,51,,,,,,,,,,,,,,1612,,response,,,,13,F,,,,,,Space,keypress(Space),,,,instrumental,,,,American -------- --- --- ---- --- --- ------ -- --------<br>---- --------- --- ------- ------------ ---------- ---------<br>--- ---------- ------- ---------- ------- -- -------- ----<br>---- --- ------ ----- ------ -- ---- --- ----- -- - -------<br>-------- -- --- --- -- ----- ----------- ----- -----------<br>---- --- ---------- --- ---- --- -- ----------,585234,585165,583553,583554,583570,585270,,0,American
screen,html.Screen,1_3_1_0_1_1,2021-04-23T14:55:20.729Z,,,,,,,,,,,,,,,,51,,,,,,,,,,,,,,603,,response,,,,13,F,,,,,,Space,keypress(Space),,,,instrumental,,,,-------- industry --- --- ---- --- --- ------ -- --------<br>---- --------- --- ------- ------------ ---------- ---------<br>--- ---------- ------- ---------- ------- -- -------- ----<br>---- --- ------ ----- ------ -- ---- --- ----- -- - -------<br>-------- -- --- --- -- ----- ----------- ----- -----------<br>---- --- ---------- --- ---- --- -- ----------,585923,585855,585252,585234,585270,585953,,1,industry
screen,html.Screen,1_3_1_0_1_2,2021-04-23T14:55:21.322Z,,,,,,,,,,,,,,,,51,,,,,,,,,,,,,,511,,response,,,,13,F,,,,,,Space,keypress(Space),,,,instrumental,,,,-------- -------- may --- ---- --- --- ------ -- --------<br>---- --------- --- ------- ------------ ---------- ---------<br>--- ---------- ------- ---------- ------- -- -------- ----<br>---- --- ------ ----- ------ -- ---- --- ----- -- - -------<br>-------- -- --- --- -- ----- ----------- ----- -----------<br>---- --- ---------- --- ---- --- -- ----------,586516,586448,585937,585924,585953,586553,,2,may
screen,html.Screen,1_3_1_0_1_3,2021-04-23T14:55:21.791Z,,,,,,,,,,,,,,,,51,,,,,,,,,,,,,,380,,response,,,,13,F,,,,,,Space,keypress(Space),,,,instrumental,,,,-------- -------- --- not ---- --- --- ------ -- --------<br>---- --------- --- ------- ------------ ---------- ---------<br>--- ---------- ------- ---------- ------- -- -------- ----<br>---- --- ------ ----- ------ -- ---- --- ----- -- - -------<br>-------- -- --- --- -- ----- ----------- ----- -----------<br>---- --- ---------- --- ---- --- -- ----------,586985,586917,586537,586516,586553,587020,,3,not
screen,html.Screen,1_3_1_0_1_4,2021-04-23T14:55:22.311Z,,,,,,,,,,,,,,,,51,,,,,,,,,,,,,,434,,response,,,,13,F,,,,,,Space,keypress(Space),,,,instrumental,,,,-------- -------- --- --- know --- --- ------ -- --------<br>---- --------- --- ------- ------------ ---------- ---------<br>--- ---------- ------- ---------- ------- -- -------- ----<br>---- --- ------ ----- ------ -- ---- --- ----- -- - -------<br>-------- -- --- --- -- ----- ----------- ----- -----------<br>---- --- ---------- --- ---- --- -- ----------,587505,587437,587003,586986,587020,587537,,4,know
screen,html.Screen,1_3_1_0_1_5,2021-04-23T14:55:22.795Z,,,,,,,,,,,,,,,,51,,,,,,,,,,,,,,402,,response,,,,13,F,,,,,,Space,keypress(Space),,,,instrumental,,,,"-------- -------- --- --- ---- it, --- ------ -- --------<br>---- --------- --- ------- ------------ ---------- ---------<br>--- ---------- ------- ---------- ------- -- -------- ----<br>---- --- ------ ----- ------ -- ---- --- ----- -- - -------<br>-------- -- --- --- -- ----- ----------- ----- -----------<br>---- --- ---------- --- ---- --- -- ----------",587989,587921,587519,587505,587537,588020,,5,"it,"
screen,html.Screen,1_3_1_0_1_6,2021-04-23T14:55:23.253Z,,,,,,,,,,,,,,,,51,,,,,,,,,,,,,,377,,response,,,,13,F,,,,,,Space,keypress(Space),,,,instrumental,,,,-------- -------- --- --- ---- --- but ------ -- --------<br>---- --------- --- ------- ------------ ---------- ---------<br>--- ---------- ------- ---------- ------- -- -------- ----<br>---- --- ------ ----- ------ -- ---- --- ----- -- - -------<br>-------- -- --- --- -- ----- ----------- ----- -----------<br>---- --- ---------- --- ---- --- -- ----------,588447,588379,588002,587989,588020,588487,,6,but
screen,html.Screen,1_3_1_0_1_7,2021-04-23T14:55:23.726Z,,,,,,,,,,,,,,,,51,,,,,,,,,,,,,,382,,response,,,,13,F,,,,,,Space,keypress(Space),,,,instrumental,,,,-------- -------- --- --- ---- --- --- debate -- --------<br>---- --------- --- ------- ------------ ---------- ---------<br>--- ---------- ------- ---------- ------- -- -------- ----<br>---- --- ------ ----- ------ -- ---- --- ----- -- - -------<br>-------- -- --- --- -- ----- ----------- ----- -----------<br>---- --- ---------- --- ---- --- -- ----------,588920,588852,588470,588447,588487,588953,,7,debate
screen,html.Screen,1_3_1_0_1_8,2021-04-23T14:55:24.179Z,,,,,,,,,,,,,,,,51,,,,,,,,,,,,,,368.0000000001164,,response,,,,13,F,,,,,,Space,keypress(Space),,,,instrumental,,,,-------- -------- --- --- ---- --- --- ------ in --------<br>---- --------- --- ------- ------------ ---------- ---------<br>--- ---------- ------- ---------- ------- -- -------- ----<br>---- --- ------ ----- ------ -- ---- --- ----- -- - -------<br>-------- -- --- --- -- ----- ----------- ----- -----------<br>---- --- ---------- --- ---- --- -- ----------,589373,589305.0000000001,588937,588920,588953,589404,,8,in
screen,html.Screen,1_3_1_0_1_9,2021-04-23T14:55:24.890Z,,,,,,,,,,,,,,,,51,,,,,,,,,,,,,,629,,response,,,,13,F,,,,,,Space,keypress(Space),,,,instrumental,,,,-------- -------- --- --- ---- --- --- ------ -- Congress<br>---- --------- --- ------- ------------ ---------- ---------<br>--- ---------- ------- ---------- ------- -- -------- ----<br>---- --- ------ ----- ------ -- ---- --- ----- -- - -------<br>-------- -- --- --- -- ----- ----------- ----- -----------<br>---- --- ---------- --- ---- --- -- ----------,590084.0000000001,590016,589387,589373,589404,590119,,9,Congress
screen,html.Screen,1_3_1_0_1_10,2021-04-23T14:55:25.371Z,,,,,,,,,,,,,,,,51,,,,,,,,,,,,,,394,,response,,,,13,F,,,,,,Space,keypress(Space),,,,instrumental,,,,-------- -------- --- --- ---- --- --- ------ -- --------<br>over --------- --- ------- ------------ ---------- ---------<br>--- ---------- ------- ---------- ------- -- -------- ----<br>---- --- ------ ----- ------ -- ---- --- ----- -- - -------<br>-------- -- --- --- -- ----- ----------- ----- -----------<br>---- --- ---------- --- ---- --- -- ----------,590565,590497,590103,590084.0000000001,590119,590604,,10,over
screen,html.Screen,1_3_1_0_1_11,2021-04-23T14:55:25.951Z,,,,,,,,,,,,,,,,51,,,,,,,,,,,,,,490,,response,,,,13,F,,,,,,Space,keypress(Space),,,,instrumental,,,,-------- -------- --- --- ---- --- --- ------ -- --------<br>---- reforming --- ------- ------------ ---------- ---------<br>--- ---------- ------- ---------- ------- -- -------- ----<br>---- --- ------ ----- ------ -- ---- --- ----- -- - -------<br>-------- -- --- --- -- ----- ----------- ----- -----------<br>---- --- ---------- --- ---- --- -- ----------,591145,591077,590587,590565,590604,591187,,11,reforming
screen,html.Screen,1_3_1_0_1_12,2021-04-23T14:55:26.319Z,,,,,,,,,,,,,,,,51,,,,,,,,,,,,,,275,,response,,,,13,F,,,,,,Space,keypress(Space),,,,instrumental,,,,-------- -------- --- --- ---- --- --- ------ -- --------<br>---- --------- the ------- ------------ ---------- ---------<br>--- ---------- ------- ---------- ------- -- -------- ----<br>---- --- ------ ----- ------ -- ---- --- ----- -- - -------<br>-------- -- --- --- -- ----- ----------- ----- -----------<br>---- --- ---------- --- ---- --- -- ----------,591513,591445,591170,591145,591187,591537,,12,the
screen,html.Screen,1_3_1_0_1_13,2021-04-23T14:55:26.800Z,,,,,,,,,,,,,,,,51,,,,,,,,,,,,,,406,,response,,,,13,F,,,,,,Space,keypress(Space),,,,instrumental,,,,-------- -------- --- --- ---- --- --- ------ -- --------<br>---- --------- --- federal ------------ ---------- ---------<br>--- ---------- ------- ---------- ------- -- -------- ----<br>---- --- ------ ----- ------ -- ---- --- ----- -- - -------<br>-------- -- --- --- -- ----- ----------- ----- -----------<br>---- --- ---------- --- ---- --- -- ----------,591994,591926,591520,591513,591537,592036,,13,federal
screen,html.Screen,1_3_1_0_1_14,2021-04-23T14:55:27.312Z,,,,,,,,,,,,,,,,51,,,,,,,,,,,,,,417,,response,,,,13,F,,,,,,Space,keypress(Space),,,,instrumental,,,,-------- -------- --- --- ---- --- --- ------ -- --------<br>---- --------- --- ------- government's ---------- ---------<br>--- ---------- ------- ---------- ------- -- -------- ----<br>---- --- ------ ----- ------ -- ---- --- ----- -- - -------<br>-------- -- --- --- -- ----- ----------- ----- -----------<br>---- --- ---------- --- ---- --- -- ----------,592506,592437,592020,591994,592036,592537,,14,government's
screen,html.Screen,1_3_1_0_1_15,2021-04-23T14:55:27.799Z,,,,,,,,,,,,,,,,51,,,,,,,,,,,,,,405.0000000001164,,response,,,,13,F,,,,,,Space,keypress(Space),,,,instrumental,,,,-------- -------- --- --- ---- --- --- ------ -- --------<br>---- --------- --- ------- ------------ regulatory ---------<br>--- ---------- ------- ---------- ------- -- -------- ----<br>---- --- ------ ----- ------ -- ---- --- ----- -- - -------<br>-------- -- --- --- -- ----- ----------- ----- -----------<br>---- --- ---------- --- ---- --- -- ----------,592993,592925.0000000001,592520,592506,592537,593037,,15,regulatory
screen,html.Screen,1_3_1_0_1_16,2021-04-23T14:55:28.353Z,,,,,,,,,,,,,,,,51,,,,,,,,,,,,,,458.0000000001164,,response,,,,13,F,,,,,,Space,keypress(Space),,,,instrumental,,,,-------- -------- --- --- ---- --- --- ------ -- --------<br>---- --------- --- ------- ------------ ---------- apparatus<br>--- ---------- ------- ---------- ------- -- -------- ----<br>---- --- ------ ----- ------ -- ---- --- ----- -- - -------<br>-------- -- --- --- -- ----- ----------- ----- -----------<br>---- --- ---------- --- ---- --- -- ----------,593547,593478.0000000001,593020,592993,593037,593587,,16,apparatus
screen,html.Screen,1_3_1_0_1_17,2021-04-23T14:55:28.842Z,,,,,,,,,,,,,,,,51,,,,,,,,,,,,,,397,,response,,,,13,F,,,,,,Space,keypress(Space),,,,instrumental,,,,-------- -------- --- --- ---- --- --- ------ -- --------<br>---- --------- --- ------- ------------ ---------- ---------<br>may ---------- ------- ---------- ------- -- -------- ----<br>---- --- ------ ----- ------ -- ---- --- ----- -- - -------<br>-------- -- --- --- -- ----- ----------- ----- -----------<br>---- --- ---------- --- ---- --- -- ----------,594035,593967,593570,593547,593587,594070,,17,may
screen,html.Screen,1_3_1_0_1_18,2021-04-23T14:55:29.345Z,,,,,,,,,,,,,,,,51,,,,,,,,,,,,,,418,,response,,,,13,F,,,,,,Space,keypress(Space),,,,instrumental,,,,-------- -------- --- --- ---- --- --- ------ -- --------<br>---- --------- --- ------- ------------ ---------- ---------<br>--- profoundly ------- ---------- ------- -- -------- ----<br>---- --- ------ ----- ------ -- ---- --- ----- -- - -------<br>-------- -- --- --- -- ----- ----------- ----- -----------<br>---- --- ---------- --- ---- --- -- ----------,594539,594471,594053,594036,594070,594569,,18,profoundly
screen,html.Screen,1_3_1_0_1_19,2021-04-23T14:55:29.767Z,,,,,,,,,,,,,,,,51,,,,,,,,,,,,,,340,,response,,,,13,F,,,,,,Space,keypress(Space),,,,instrumental,,,,-------- -------- --- --- ---- --- --- ------ -- --------<br>---- --------- --- ------- ------------ ---------- ---------<br>--- ---------- improve ---------- ------- -- -------- ----<br>---- --- ------ ----- ------ -- ---- --- ----- -- - -------<br>-------- -- --- --- -- ----- ----------- ----- -----------<br>---- --- ---------- --- ---- --- -- ----------,594961,594893,594553,594539,594569,595004,,19,improve
screen,html.Screen,1_3_1_0_1_20,2021-04-23T14:55:30.151Z,,,,,,,,,,,,,,,,51,,,,,,,,,,,,,,291,,response,,,,13,F,,,,,,Space,keypress(Space),,,,instrumental,,,,-------- -------- --- --- ---- --- --- ------ -- --------<br>---- --------- --- ------- ------------ ---------- ---------<br>--- ---------- ------- companies' ------- -- -------- ----<br>---- --- ------ ----- ------ -- ---- --- ----- -- - -------<br>-------- -- --- --- -- ----- ----------- ----- -----------<br>---- --- ---------- --- ---- --- -- ----------,595345,595277,594986,594961,595004,595369,,20,companies'
screen,html.Screen,1_3_1_0_1_21,2021-04-23T14:55:30.598Z,,,,,,,,,,,,,,,,51,,,,,,,,,,,,,,371,,response,,,,13,F,,,,,,Space,keypress(Space),,,,instrumental,,,,-------- -------- --- --- ---- --- --- ------ -- --------<br>---- --------- --- ------- ------------ ---------- ---------<br>--- ---------- ------- ---------- ability -- -------- ----<br>---- --- ------ ----- ------ -- ---- --- ----- -- - -------<br>-------- -- --- --- -- ----- ----------- ----- -----------<br>---- --- ---------- --- ---- --- -- ----------,595792,595724,595353,595345,595369,595820,,21,ability
screen,html.Screen,1_3_1_0_1_22,2021-04-23T14:55:31.042Z,,,,,,,,,,,,,,,,51,,,,,,,,,,,,,,364,,response,,,,13,F,,,,,,Space,keypress(Space),,,,instrumental,,,,-------- -------- --- --- ---- --- --- ------ -- --------<br>---- --------- --- ------- ------------ ---------- ---------<br>--- ---------- ------- ---------- ------- to -------- ----<br>---- --- ------ ----- ------ -- ---- --- ----- -- - -------<br>-------- -- --- --- -- ----- ----------- ----- -----------<br>---- --- ---------- --- ---- --- -- ----------,596236,596167,595803,595792,595820,596270,,22,to
screen,html.Screen,1_3_1_0_1_23,2021-04-23T14:55:31.464Z,,,,,,,,,,,,,,,,51,,,,,,,,,,,,,,335,,response,,,,13,F,,,,,,Space,keypress(Space),,,,instrumental,,,,-------- -------- --- --- ---- --- --- ------ -- --------<br>---- --------- --- ------- ------------ ---------- ---------<br>--- ---------- ------- ---------- ------- -- survive. ----<br>---- --- ------ ----- ------ -- ---- --- ----- -- - -------<br>-------- -- --- --- -- ----- ----------- ----- -----------<br>---- --- ---------- --- ---- --- -- ----------,596658,596589,596254,596236,596270,596687,,23,survive.
screen,html.Screen,1_3_1_0_1_24,2021-04-23T14:55:32.397Z,,,,,,,,,,,,,,,,51,,,,,,,,,,,,,,852,,response,,,,13,F,,,,,,Space,keypress(Space),,,,instrumental,,,,-------- -------- --- --- ---- --- --- ------ -- --------<br>---- --------- --- ------- ------------ ---------- ---------<br>--- ---------- ------- ---------- ------- -- -------- This<br>---- --- ------ ----- ------ -- ---- --- ----- -- - -------<br>-------- -- --- --- -- ----- ----------- ----- -----------<br>---- --- ---------- --- ---- --- -- ----------,597591,597523,596671,596658,596687,597620,,24,This
screen,html.Screen,1_3_1_0_1_25,2021-04-23T14:55:32.797Z,,,,,,,,,,,,,,,,51,,,,,,,,,,,,,,320,,response,,,,13,F,,,,,,Space,keypress(Space),,,,instrumental,,,,-------- -------- --- --- ---- --- --- ------ -- --------<br>---- --------- --- ------- ------------ ---------- ---------<br>--- ---------- ------- ---------- ------- -- -------- ----<br>week --- ------ ----- ------ -- ---- --- ----- -- - -------<br>-------- -- --- --- -- ----- ----------- ----- -----------<br>---- --- ---------- --- ---- --- -- ----------,597991,597923,597603,597591,597620,598020,,25,week
screen,html.Screen,1_3_1_0_1_26,2021-04-23T14:55:33.777Z,,,,,,,,,,,,,,,,51,,,,,,,,,,,,,,899,,response,,,,13,F,,,,,,Space,keypress(Space),,,,instrumental,,,,-------- -------- --- --- ---- --- --- ------ -- --------<br>---- --------- --- ------- ------------ ---------- ---------<br>--- ---------- ------- ---------- ------- -- -------- ----<br>---- the ------ ----- ------ -- ---- --- ----- -- - -------<br>-------- -- --- --- -- ----- ----------- ----- -----------<br>---- --- ---------- --- ---- --- -- ----------,598971,598903,598004,597991,598020,599004,,26,the
screen,html.Screen,1_3_1_0_1_27,2021-04-23T14:55:34.197Z,,,,,,,,,,,,,,,,51,,,,,,,,,,,,,,335,,response,,,,13,F,,,,,,Space,keypress(Space),,,,instrumental,,,,-------- -------- --- --- ---- --- --- ------ -- --------<br>---- --------- --- ------- ------------ ---------- ---------<br>--- ---------- ------- ---------- ------- -- -------- ----<br>---- --- Senate ----- ------ -- ---- --- ----- -- - -------<br>-------- -- --- --- -- ----- ----------- ----- -----------<br>---- --- ---------- --- ---- --- -- ----------,599390,599322,598987,598971,599004,599420,,27,Senate
screen,html.Screen,1_3_1_0_1_28,2021-04-23T14:55:34.657Z,,,,,,,,,,,,,,,,51,,,,,,,,,,,,,,379,,response,,,,13,F,,,,,,Space,keypress(Space),,,,instrumental,,,,-------- -------- --- --- ---- --- --- ------ -- --------<br>---- --------- --- ------- ------------ ---------- ---------<br>--- ---------- ------- ---------- ------- -- -------- ----<br>---- --- ------ seems ------ -- ---- --- ----- -- - -------<br>-------- -- --- --- -- ----- ----------- ----- -----------<br>---- --- ---------- --- ---- --- -- ----------,599851,599783,599404,599390,599420,599887,,28,seems
screen,html.Screen,1_3_1_0_1_29,2021-04-23T14:55:35.018Z,,,,,,,,,,,,,,,,51,,,,,,,,,,,,,,272,,response,,,,13,F,,,,,,Space,keypress(Space),,,,instrumental,,,,-------- -------- --- --- ---- --- --- ------ -- --------<br>---- --------- --- ------- ------------ ---------- ---------<br>--- ---------- ------- ---------- ------- -- -------- ----<br>---- --- ------ ----- poised -- ---- --- ----- -- - -------<br>-------- -- --- --- -- ----- ----------- ----- -----------<br>---- --- ---------- --- ---- --- -- ----------,600211,600143,599871,599851,599887,600236,,29,poised
screen,html.Screen,1_3_1_0_1_30,2021-04-23T14:55:35.504Z,,,,,,,,,,,,,,,,51,,,,,,,,,,,,,,410,,response,,,,13,F,,,,,,Space,keypress(Space),,,,instrumental,,,,-------- -------- --- --- ---- --- --- ------ -- --------<br>---- --------- --- ------- ------------ ---------- ---------<br>--- ---------- ------- ---------- ------- -- -------- ----<br>---- --- ------ ----- ------ to ---- --- ----- -- - -------<br>-------- -- --- --- -- ----- ----------- ----- -----------<br>---- --- ---------- --- ---- --- -- ----------,600698,600630,600220,600211,600236,600738,,30,to
screen,html.Screen,1_3_1_0_1_31,2021-04-23T14:55:36.016Z,,,,,,,,,,,,,,,,51,,,,,,,,,,,,,,421,,response,,,,13,F,,,,,,Space,keypress(Space),,,,instrumental,,,,-------- -------- --- --- ---- --- --- ------ -- --------<br>---- --------- --- ------- ------------ ---------- ---------<br>--- ---------- ------- ---------- ------- -- -------- ----<br>---- --- ------ ----- ------ -- join --- ----- -- - -------<br>-------- -- --- --- -- ----- ----------- ----- -----------<br>---- --- ---------- --- ---- --- -- ----------,601210,601142,600721,600698,600738,601237,,31,join
screen,html.Screen,1_3_1_0_1_32,2021-04-23T14:55:36.406Z,,,,,,,,,,,,,,,,51,,,,,,,,,,,,,,311.0000000001164,,response,,,,13,F,,,,,,Space,keypress(Space),,,,instrumental,,,,-------- -------- --- --- ---- --- --- ------ -- --------<br>---- --------- --- ------- ------------ ---------- ---------<br>--- ---------- ------- ---------- ------- -- -------- ----<br>---- --- ------ ----- ------ -- ---- the ----- -- - -------<br>-------- -- --- --- -- ----- ----------- ----- -----------<br>---- --- ---------- --- ---- --- -- ----------,601599,601531.0000000001,601220,601210,601237,601638,,32,the
screen,html.Screen,1_3_1_0_1_33,2021-04-23T14:55:36.747Z,,,,,,,,,,,,,,,,51,,,,,,,,,,,,,,252,,response,,,,13,F,,,,,,Space,keypress(Space),,,,instrumental,,,,-------- -------- --- --- ---- --- --- ------ -- --------<br>---- --------- --- ------- ------------ ---------- ---------<br>--- ---------- ------- ---------- ------- -- -------- ----<br>---- --- ------ ----- ------ -- ---- --- House -- - -------<br>-------- -- --- --- -- ----- ----------- ----- -----------<br>---- --- ---------- --- ---- --- -- ----------,601941,601873,601621,601599,601638,601971,,33,House
screen,html.Screen,1_3_1_0_1_34,2021-04-23T14:55:37.372Z,,,,,,,,,,,,,,,,51,,,,,,,,,,,,,,544,,response,,,,13,F,,,,,,Space,keypress(Space),,,,instrumental,,,,-------- -------- --- --- ---- --- --- ------ -- --------<br>---- --------- --- ------- ------------ ---------- ---------<br>--- ---------- ------- ---------- ------- -- -------- ----<br>---- --- ------ ----- ------ -- ---- --- ----- in - -------<br>-------- -- --- --- -- ----- ----------- ----- -----------<br>---- --- ---------- --- ---- --- -- ----------,602566,602498,601954,601941,601971,602604,,34,in
screen,html.Screen,1_3_1_0_1_35,2021-04-23T14:55:37.837Z,,,,,,,,,,,,,,,,51,,,,,,,,,,,,,,374,,response,,,,13,F,,,,,,Space,keypress(Space),,,,instrumental,,,,-------- -------- --- --- ---- --- --- ------ -- --------<br>---- --------- --- ------- ------------ ---------- ---------<br>--- ---------- ------- ---------- ------- -- -------- ----<br>---- --- ------ ----- ------ -- ---- --- ----- -- a -------<br>-------- -- --- --- -- ----- ----------- ----- -----------<br>---- --- ---------- --- ---- --- -- ----------,603030,602962,602588,602566,602604,603071,,35,a
screen,html.Screen,1_3_1_0_1_36,2021-04-23T14:55:38.281Z,,,,,,,,,,,,,,,,51,,,,,,,,,,,,,,352.0000000001164,,response,,,,13,F,,,,,,Space,keypress(Space),,,,instrumental,,,,-------- -------- --- --- ---- --- --- ------ -- --------<br>---- --------- --- ------- ------------ ---------- ---------<br>--- ---------- ------- ---------- ------- -- -------- ----<br>---- --- ------ ----- ------ -- ---- --- ----- -- - massive<br>-------- -- --- --- -- ----- ----------- ----- -----------<br>---- --- ---------- --- ---- --- -- ----------,603474,603406.0000000001,603054,603031.0000000001,603071,603504,,36,massive
screen,html.Screen,1_3_1_0_1_37,2021-04-23T14:55:38.803Z,,,,,,,,,,,,,,,,51,,,,,,,,,,,,,,440,,response,,,,13,F,,,,,,Space,keypress(Space),,,,instrumental,,,,-------- -------- --- --- ---- --- --- ------ -- --------<br>---- --------- --- ------- ------------ ---------- ---------<br>--- ---------- ------- ---------- ------- -- -------- ----<br>---- --- ------ ----- ------ -- ---- --- ----- -- - -------<br>overhaul -- --- --- -- ----- ----------- ----- -----------<br>---- --- ---------- --- ---- --- -- ----------,603996,603928,603488,603474,603504,604038,,37,overhaul
screen,html.Screen,1_3_1_0_1_38,2021-04-23T14:55:39.284Z,,,,,,,,,,,,,,,,51,,,,,,,,,,,,,,389,,response,,,,13,F,,,,,,Space,keypress(Space),,,,instrumental,,,,-------- -------- --- --- ---- --- --- ------ -- --------<br>---- --------- --- ------- ------------ ---------- ---------<br>--- ---------- ------- ---------- ------- -- -------- ----<br>---- --- ------ ----- ------ -- ---- --- ----- -- - -------<br>-------- of --- --- -- ----- ----------- ----- -----------<br>---- --- ---------- --- ---- --- -- ----------,604478.0000000001,604409,604020,603996,604038,604521,,38,of
screen,html.Screen,1_3_1_0_1_39,2021-04-23T14:55:39.689Z,,,,,,,,,,,,,,,,51,,,,,,,,,,,,,,309,,response,,,,13,F,,,,,,Space,keypress(Space),,,,instrumental,,,,-------- -------- --- --- ---- --- --- ------ -- --------<br>---- --------- --- ------- ------------ ---------- ---------<br>--- ---------- ------- ---------- ------- -- -------- ----<br>---- --- ------ ----- ------ -- ---- --- ----- -- - -------<br>-------- -- the --- -- ----- ----------- ----- -----------<br>---- --- ---------- --- ---- --- -- ----------,604882.0000000001,604814,604505,604478.0000000001,604521,604921,,39,the
screen,html.Screen,1_3_1_0_1_40,2021-04-23T14:55:40.059Z,,,,,,,,,,,,,,,,51,,,,,,,,,,,,,,278,,response,,,,13,F,,,,,,Space,keypress(Space),,,,instrumental,,,,-------- -------- --- --- ---- --- --- ------ -- --------<br>---- --------- --- ------- ------------ ---------- ---------<br>--- ---------- ------- ---------- ------- -- -------- ----<br>---- --- ------ ----- ------ -- ---- --- ----- -- - -------<br>-------- -- --- way -- ----- ----------- ----- -----------<br>---- --- ---------- --- ---- --- -- ----------,605252.0000000001,605183,604905,604883,604921,605271,,40,way
screen,html.Screen,1_3_1_0_1_41,2021-04-23T14:55:40.773Z,,,,,,,,,,,,,,,,51,,,,,,,,,,,,,,644,,response,,,,13,F,,,,,,Space,keypress(Space),,,,instrumental,,,,-------- -------- --- --- ---- --- --- ------ -- --------<br>---- --------- --- ------- ------------ ---------- ---------<br>--- ---------- ------- ---------- ------- -- -------- ----<br>---- --- ------ ----- ------ -- ---- --- ----- -- - -------<br>-------- -- --- --- in ----- ----------- ----- -----------<br>---- --- ---------- --- ---- --- -- ----------,605966,605897,605253,605253,605271,606004,,41,in
screen,html.Screen,1_3_1_0_1_42,2021-04-23T14:55:41.554Z,,,,,,,,,,,,,,,,51,,,,,,,,,,,,,,691,,response,,,,13,F,,,,,,Space,keypress(Space),,,,instrumental,,,,-------- -------- --- --- ---- --- --- ------ -- --------<br>---- --------- --- ------- ------------ ---------- ---------<br>--- ---------- ------- ---------- ------- -- -------- ----<br>---- --- ------ ----- ------ -- ---- --- ----- -- - -------<br>-------- -- --- --- -- which ----------- ----- -----------<br>---- --- ---------- --- ---- --- -- ----------,606748,606679,605988,605966,606004,606788,,42,which
screen,html.Screen,1_3_1_0_1_43,2021-04-23T14:55:42.412Z,,,,,,,,,,,,,,,,51,,,,,,,,,,,,,,766,,response,,,,13,F,,,,,,Space,keypress(Space),,,,instrumental,,,,-------- -------- --- --- ---- --- --- ------ -- --------<br>---- --------- --- ------- ------------ ---------- ---------<br>--- ---------- ------- ---------- ------- -- -------- ----<br>---- --- ------ ----- ------ -- ---- --- ----- -- - -------<br>-------- -- --- --- -- ----- bureaucrats ----- -----------<br>---- --- ---------- --- ---- --- -- ----------,607606,607537,606771,606748,606788,607638,,43,bureaucrats
screen,html.Screen,1_3_1_0_1_44,2021-04-23T14:55:43.155Z,,,,,,,,,,,,,,,,51,,,,,,,,,,,,,,660,,response,,,,13,F,,,,,,Space,keypress(Space),,,,instrumental,,,,-------- -------- --- --- ---- --- --- ------ -- --------<br>---- --------- --- ------- ------------ ---------- ---------<br>--- ---------- ------- ---------- ------- -- -------- ----<br>---- --- ------ ----- ------ -- ---- --- ----- -- - -------<br>-------- -- --- --- -- ----- ----------- enact -----------<br>---- --- ---------- --- ---- --- -- ----------,608349,608280,607620,607606,607638,608388,,44,enact
screen,html.Screen,1_3_1_0_1_45,2021-04-23T14:55:43.765Z,,,,,,,,,,,,,,,,51,,,,,,,,,,,,,,518,,response,,,,13,F,,,,,,Space,keypress(Space),,,,instrumental,,,,-------- -------- --- --- ---- --- --- ------ -- --------<br>---- --------- --- ------- ------------ ---------- ---------<br>--- ---------- ------- ---------- ------- -- -------- ----<br>---- --- ------ ----- ------ -- ---- --- ----- -- - -------<br>-------- -- --- --- -- ----- ----------- ----- regulations<br>---- --- ---------- --- ---- --- -- ----------,608959.0000000001,608890,608372,608349,608388,608988,,45,regulations
screen,html.Screen,1_3_1_0_1_46,2021-04-23T14:55:44.416Z,,,,,,,,,,,,,,,,51,,,,,,,,,,,,,,568,,response,,,,13,F,,,,,,Space,keypress(Space),,,,instrumental,,,,-------- -------- --- --- ---- --- --- ------ -- --------<br>---- --------- --- ------- ------------ ---------- ---------<br>--- ---------- ------- ---------- ------- -- -------- ----<br>---- --- ------ ----- ------ -- ---- --- ----- -- - -------<br>-------- -- --- --- -- ----- ----------- ----- -----------<br>that --- ---------- --- ---- --- -- ----------,609609,609540,608972,608959.0000000001,608988,609638,,46,that
screen,html.Screen,1_3_1_0_1_47,2021-04-23T14:55:44.964Z,,,,,,,,,,,,,,,,51,,,,,,,,,,,,,,468,,response,,,,13,F,,,,,,Space,keypress(Space),,,,instrumental,,,,-------- -------- --- --- ---- --- --- ------ -- --------<br>---- --------- --- ------- ------------ ---------- ---------<br>--- ---------- ------- ---------- ------- -- -------- ----<br>---- --- ------ ----- ------ -- ---- --- ----- -- - -------<br>-------- -- --- --- -- ----- ----------- ----- -----------<br>---- are ---------- --- ---- --- -- ----------,610158,610089,609621,609609,609638,610188,,47,are
screen,html.Screen,1_3_1_0_1_48,2021-04-23T14:55:46.089Z,,,,,,,,,,,,,,,,51,,,,,,,,,,,,,,1042,,response,,,,13,F,,,,,,Space,keypress(Space),,,,instrumental,,,,-------- -------- --- --- ---- --- --- ------ -- --------<br>---- --------- --- ------- ------------ ---------- ---------<br>--- ---------- ------- ---------- ------- -- -------- ----<br>---- --- ------ ----- ------ -- ---- --- ----- -- - -------<br>-------- -- --- --- -- ----- ----------- ----- -----------<br>---- --- strangling --- ---- --- -- ----------,611282,611214,610172,610158,610188,611322,,48,strangling
screen,html.Screen,1_3_1_0_1_49,2021-04-23T14:55:46.622Z,,,,,,,,,,,,,,,,51,,,,,,,,,,,,,,442,,response,,,,13,F,,,,,,Space,keypress(Space),,,,instrumental,,,,-------- -------- --- --- ---- --- --- ------ -- --------<br>---- --------- --- ------- ------------ ---------- ---------<br>--- ---------- ------- ---------- ------- -- -------- ----<br>---- --- ------ ----- ------ -- ---- --- ----- -- - -------<br>-------- -- --- --- -- ----- ----------- ----- -----------<br>---- --- ---------- the ---- --- -- ----------,611815,611747,611305,611282,611322,611855,,49,the
screen,html.Screen,1_3_1_0_1_50,2021-04-23T14:55:47.181Z,,,,,,,,,,,,,,,,51,,,,,,,,,,,,,,468,,response,,,,13,F,,,,,,Space,keypress(Space),,,,instrumental,,,,-------- -------- --- --- ---- --- --- ------ -- --------<br>---- --------- --- ------- ------------ ---------- ---------<br>--- ---------- ------- ---------- ------- -- -------- ----<br>---- --- ------ ----- ------ -- ---- --- ----- -- - -------<br>-------- -- --- --- -- ----- ----------- ----- -----------<br>---- --- ---------- --- life --- -- ----------,612375,612306,611838,611815,611855,612404,,50,life
screen,html.Screen,1_3_1_0_1_51,2021-04-23T14:55:47.764Z,,,,,,,,,,,,,,,,51,,,,,,,,,,,,,,501,,response,,,,13,F,,,,,,Space,keypress(Space),,,,instrumental,,,,-------- -------- --- --- ---- --- --- ------ -- --------<br>---- --------- --- ------- ------------ ---------- ---------<br>--- ---------- ------- ---------- ------- -- -------- ----<br>---- --- ------ ----- ------ -- ---- --- ----- -- - -------<br>-------- -- --- --- -- ----- ----------- ----- -----------<br>---- --- ---------- --- ---- out -- ----------,612957,612889,612388,612375,612404,612988,,51,out
screen,html.Screen,1_3_1_0_1_52,2021-04-23T14:55:48.249Z,,,,,,,,,,,,,,,,51,,,,,,,,,,,,,,403,,response,,,,13,F,,,,,,Space,keypress(Space),,,,instrumental,,,,-------- -------- --- --- ---- --- --- ------ -- --------<br>---- --------- --- ------- ------------ ---------- ---------<br>--- ---------- ------- ---------- ------- -- -------- ----<br>---- --- ------ ----- ------ -- ---- --- ----- -- - -------<br>-------- -- --- --- -- ----- ----------- ----- -----------<br>---- --- ---------- --- ---- --- of ----------,613442,613374,612971,612958,612988,613471,,52,of
screen,html.Screen,1_3_1_0_1_53,2021-04-23T14:55:49.199Z,,,,,,,,,,,,,,,,51,,,,,,,,,,,,,,868,,response,,,,13,F,,,,,,Space,keypress(Space),,,,instrumental,,,,-------- -------- --- --- ---- --- --- ------ -- --------<br>---- --------- --- ------- ------------ ---------- ---------<br>--- ---------- ------- ---------- ------- -- -------- ----<br>---- --- ------ ----- ------ -- ---- --- ----- -- - -------<br>-------- -- --- --- -- ----- ----------- ----- -----------<br>---- --- ---------- --- ---- --- -- companies.,614393,614323,613455,613442,613471,614422,,53,companies.
Item 13,flow.Loop,1_3_1_0_1,2021-04-23T14:55:49.200Z,,,,,,,,,,,,,,,,,,,,,,,,,,,,,,30753,,completion,,,,,,,,,,,,,,,,,,,,,614393,614323,583553,583554,583570,614422,,,
Question 1,html.Screen,1_3_1_0_2,2021-04-23T14:55:54.494Z,,,,,,,,,,,,,,,,,,,,,,,,,,,true,FALSE,,5216,,response,,,,13,F,,,,,,FALSE,click #choice-2,,,,instrumental,,,,,619687,619620,614404,614393,614422,619705,,,
Question 2,html.Screen,1_3_1_0_3,2021-04-23T14:55:58.309Z,,,,,,,,,,,,,,,,,,,,,,,,,,,true,TRUE,,3745.0000000001164,,response,,,,13,F,,,,,,TRUE,click #choice-1,,,,instrumental,,,,,623502.0000000001,623435.0000000001,619690,619687,619705,623522,,,
Item 13,flow.Sequence,1_3_1_0,2021-04-23T14:55:58.309Z,,,,,,,,,,,,,,,,,,,,,,,,,,,,,,46866.00000000012,,completion,,,,,,,,,,,,,,,,,,,,,623502.0000000001,623435.0000000001,576552,576553,576569,623522,,,
Holding screen,html.Screen,1_3_1_1_0,2021-04-23T14:56:05.314Z,,,,,,,,,,,,,,,,,,,,,,,,,,,,,,7001,,timeout,,,,,,,,,,,,,,,,,,,,,630507.0000000001,630507,623506,623502.0000000001,623522,630523,,,
