sender,sender_type,sender_id,timestamp,meta,,Blues,Classical,Country,Dance,Electronic,Folk,Gospel,Hip-Hop,Jazz,Latin,Musical/Film,New-age,Pop,Provo_ID,R&B,Rap,Reggae,Religious,Rock,Soul,Swing,Traditional,age,artist_name,correct,correctResponse,distraction,duration,education,ended_on,familiarity,gender,headphone_check_performance,item,list,music_frequency,offensiveness,pleasantness,position_correct,preference,response,response_action,snippet_file,song_name,song_rating,sound,stimulus_1,stimulus_2,stimulus_3,text,time_commit,time_end,time_render,time_run,time_show,time_switch,url,word,word_ID
Introduction,html.Screen,0_0,2021-04-20T11:12:34.755Z,"{""labjs_version"":""20.2.2"",""labjs_build"":{""flavor"":""production"",""commit"":""a25486e0c714a0ae2ce03ff94b7bb6896854dcfa""},""location"":""https://run.pavlovia.org/mvasilev/music_e/"",""userAgent"":""Mozilla/5.0 (Macintosh; Intel Mac OS X 10_15_6) AppleWebKit/605.1.15 (KHTML, like Gecko) Version/14.0.3 Safari/605.1.15"",""platform"":""MacIntel"",""language"":""en-gb"",""locale"":""en-GB"",""timeZone"":""Europe/London"",""timezoneOffset"":-60,""screen_width"":1440,""screen_height"":900,""scroll_width"":1440,""scroll_height"":772,""window_innerWidth"":1440,""window_innerHeight"":820,""devicePixelRatio"":2}",,,,,,,,,,,,,,,,,,,,,,,,,,,,,49324,,response,,,,,,,,,,,continue,click button,,,,,,,,,54098,53819,4495,4482,4511,54118,{},,
Volume calibration,html.Screen,0_1,2021-04-20T11:13:02.284Z,,,,,,,,,,,,,,,,,,,,,,,,,,,,,,27501,,response,,,,,,,,,,,continue,click button,,,,,,,,,81627,81604,54103,54099.00000000001,54118,81651,,,
Task instructions,html.Screen,0_2,2021-04-20T11:13:12.488Z,,,,,,,,,,,,,,,,,,,,,,,,,,,,,,10174,,response,,,,,,,,,,,continue,click button,,,,,,,,,91831,91809,81635,81627,81651,91865,,,
Sounds,html.Screen,0_3_0_0,2021-04-20T11:13:16.762Z,,,,,,,,,,,,,,,,,,,,,,,,,,,,,,4255,,timeout,,,,,,,,,1,,,,,,,,S,I,O,,96104,96103,91848,91833,91865,96120,,,
Judgement,html.Screen,0_3_0_1,2021-04-20T11:13:19.374Z,,,,,,,,,,,,,,,,,,,,,,,,,,,true,1,,2592.0000000000146,,response,,,,,,,,,1,,1,click #choice-1,,,,,S,I,O,,98716.00000000001,98695.00000000001,96103,96104,96120,98739,,,
Trial,flow.Sequence,0_3_0,2021-04-20T11:13:19.375Z,,,,,,,,,,,,,,,,,,,,,,,,,,,,,,6830.000000000015,,completion,,,,,,,,,1,,,,,,,,S,I,O,,98717,98695.00000000001,91848,91833,91865,98739,,,
Sounds,html.Screen,0_3_1_0,2021-04-20T11:13:23.629Z,,,,,,,,,,,,,,,,,,,,,,,,,,,,,,4248,,timeout,,,,,,,,,3,,,,,,,,I,O,S,,102971,102970,98722,98717,98739,102987,,,
Judgement,html.Screen,0_3_1_1,2021-04-20T11:13:26.857Z,,,,,,,,,,,,,,,,,,,,,,,,,,,false,3,,3208,,response,,,,,,,,,3,,2,click #choice-2,,,,,I,O,S,,106199,106178,102970,102971,102987,106227,,,
Trial,flow.Sequence,0_3_1,2021-04-20T11:13:26.857Z,,,,,,,,,,,,,,,,,,,,,,,,,,,,,,7439,,completion,,,,,,,,,3,,,,,,,,I,O,S,,106199,106178,98722,98717,98739,106227,,,
Sounds,html.Screen,0_3_2_0,2021-04-20T11:13:31.118Z,,,,,,,,,,,,,,,,,,,,,,,,,,,,,,4249,,timeout,,,,,,,,,3,,,,,,,,O,I,S,,110460.00000000001,110460,106210,106199,106227,110476,,,
Judgement,html.Screen,0_3_2_1,2021-04-20T11:13:31.944Z,,,,,,,,,,,,,,,,,,,,,,,,,,,true,3,,804,,response,,,,,,,,,3,,3,click #choice-3,,,,,O,I,S,,111286,111264,110460,110460.00000000001,110476,111305,,,
Trial,flow.Sequence,0_3_2,2021-04-20T11:13:31.944Z,,,,,,,,,,,,,,,,,,,,,,,,,,,,,,5037,,completion,,,,,,,,,3,,,,,,,,O,I,S,,111286,111264,106210,106199,106227,111305,,,
Sounds,html.Screen,0_3_3_0,2021-04-20T11:13:36.201Z,,,,,,,,,,,,,,,,,,,,,,,,,,,,,,4254,,timeout,,,,,,,,,2,,,,,,,,I,S,O,,115543,115542,111289,111286,111305,115559,,,
Judgement,html.Screen,0_3_3_1,2021-04-20T11:13:36.896Z,,,,,,,,,,,,,,,,,,,,,,,,,,,true,2,,674.0000000000146,,response,,,,,,,,,2,,2,click #choice-2,,,,,I,S,O,,116238,116216.00000000001,115542,115543,115559,116259,,,
Trial,flow.Sequence,0_3_3,2021-04-20T11:13:36.896Z,,,,,,,,,,,,,,,,,,,,,,,,,,,,,,4911.000000000015,,completion,,,,,,,,,2,,,,,,,,I,S,O,,116238,116216.00000000001,111289,111286,111305,116259,,,
Sounds,html.Screen,0_3_4_0,2021-04-20T11:13:41.153Z,,,,,,,,,,,,,,,,,,,,,,,,,,,,,,4253,,timeout,,,,,,,,,1,,,,,,,,S,O,I,,120495,120494,116242,116238,116259,120512,,,
Judgement,html.Screen,0_3_4_1,2021-04-20T11:13:41.887Z,,,,,,,,,,,,,,,,,,,,,,,,,,,true,1,,713.0000000000146,,response,,,,,,,,,1,,1,click #choice-1,,,,,S,O,I,,121229,121207.00000000001,120494,120495,120512,121262,,,
Trial,flow.Sequence,0_3_4,2021-04-20T11:13:41.889Z,,,,,,,,,,,,,,,,,,,,,,,,,,,,,,4948.000000000015,,completion,,,,,,,,,1,,,,,,,,S,O,I,,121231.00000000001,121207.00000000001,116242,116238,116259,121262,,,
Sounds,html.Screen,0_3_5_0,2021-04-20T11:13:46.152Z,,,,,,,,,,,,,,,,,,,,,,,,,,,,,,4248,,timeout,,,,,,,,,2,,,,,,,,O,S,I,,125494,125494,121246,121231.00000000001,121262,125510,,,
Judgement,html.Screen,0_3_5_1,2021-04-20T11:13:47.173Z,,,,,,,,,,,,,,,,,,,,,,,,,,,true,2,,999.0000000000146,,response,,,,,,,,,2,,2,click #choice-2,,,,,O,S,I,,126515,126493.00000000001,125494,125494,125510,126544,,,
Trial,flow.Sequence,0_3_5,2021-04-20T11:13:47.173Z,,,,,,,,,,,,,,,,,,,,,,,,,,,,,,5231.000000000015,,completion,,,,,,,,,2,,,,,,,,O,S,I,,126515,126493.00000000001,121246,121231.00000000001,121262,126544,,,
Task,flow.Loop,0_3,2021-04-20T11:13:47.177Z,,,,,,,,,,,,,,,,,,,,,,,,,,,,,,34628.000000000015,,completion,,,0.8333333333333334,,,,,,,,,,,,,,,,,,126519,126493.00000000001,91848,91832.00000000001,91865,126544,,,
Trap,html.Screen,0_4,2021-04-20T11:13:47.179Z,,,,,,,,,,,,,,,,,,,,,,,,,,,,,,NaN,,skipped,,,,,,,,,,,,,,,,,,,,,126521,126493.00000000001,,126521,,126544,,,
Thanks,html.Screen,0_5,2021-04-20T11:13:51.766Z,,,,,,,,,,,,,,,,,,,,,,,,,,,,,,4558,,response,,,,,,,,,,,continue,click button,,,,,,,,,131108,131085,126527,126521,126544,134503,,,
Headphone screening,flow.Sequence,0,2021-04-20T11:13:51.767Z,,,,,,,,,,,,,,,,,,,,,,,,,,,,,,126574,,completion,,,,,,,,,,,,,,,,,,,,,131109,131085,4495,4482,4511,134503,,,
Instructions,html.Page,1_0,2021-04-20T11:14:18.020Z,,,,,,,,,,,,,,,,,,,,,,,,,,,,,,22858,,form submission,,,,,,,,,,,,,,,,,,,,,157362,157361,134491,134475,134503,157380,,,
Holding screen,html.Screen,1_1_0_0,2021-04-20T11:14:28.017Z,,,,,,,,,,,,,,,,,,,,,,,,,,,,,,10002,,timeout,,,,,,,,,,,,,,,,,,,,,167359,167358,157366,157362,157380,167382,,,
screen,html.Screen,1_1_0_1_0,2021-04-20T11:14:29.319Z,,,,,,,,,,,,,,,,53,,,,,,,,,,,,,,1278,,response,,,,99,,,,,,,Space,keypress(Space),,,,,,,,When -- ----- -- ------ - ------- --- ----------<br>------------- ------ ------ ---- ---- ------- ----- -- ----<br>-------- ------- -- ---------- --- - --- ----- ----- ----<br>---- --- --- ----- --- ---- ---- ------- ----- ---- -------<br>--- --- -- ----- -- --- ---- -- --- ---- -- ------ ------<br>--- ----- -- ----,168660,168636,167358,167359,167382,168695,,0,When
screen,html.Screen,1_1_0_1_1,2021-04-20T11:14:29.921Z,,,,,,,,,,,,,,,,53,,,,,,,,,,,,,,561,,response,,,,99,,,,,,,Space,keypress(Space),,,,,,,,---- it ----- -- ------ - ------- --- ----------<br>------------- ------ ------ ---- ---- ------- ----- -- ----<br>-------- ------- -- ---------- --- - --- ----- ----- ----<br>---- --- --- ----- --- ---- ---- ------- ----- ---- -------<br>--- --- -- ----- -- --- ---- -- --- ---- -- ------ ------<br>--- ----- -- ----,169262,169239,168678,168660,168695,169289,,1,it
screen,html.Screen,1_1_0_1_2,2021-04-20T11:14:30.614Z,,,,,,,,,,,,,,,,53,,,,,,,,,,,,,,659.0000000000291,,response,,,,99,,,,,,,Space,keypress(Space),,,,,,,,---- -- comes -- ------ - ------- --- ----------<br>------------- ------ ------ ---- ---- ------- ----- -- ----<br>-------- ------- -- ---------- --- - --- ----- ----- ----<br>---- --- --- ----- --- ---- ---- ------- ----- ---- -------<br>--- --- -- ----- -- --- ---- -- --- ---- -- ------ ------<br>--- ----- -- ----,169955,169932.00000000003,169273,169263,169289,169993,,2,comes
screen,html.Screen,1_1_0_1_3,2021-04-20T11:14:31.211Z,,,,,,,,,,,,,,,,53,,,,,,,,,,,,,,553,,response,,,,99,,,,,,,Space,keypress(Space),,,,,,,,---- -- ----- to ------ - ------- --- ----------<br>------------- ------ ------ ---- ---- ------- ----- -- ----<br>-------- ------- -- ---------- --- - --- ----- ----- ----<br>---- --- --- ----- --- ---- ---- ------- ----- ---- -------<br>--- --- -- ----- -- --- ---- -- --- ---- -- ------ ------<br>--- ----- -- ----,170552,170529,169976,169955,169993,170595,,3,to
screen,html.Screen,1_1_0_1_4,2021-04-20T11:14:31.738Z,,,,,,,,,,,,,,,,53,,,,,,,,,,,,,,476,,response,,,,99,,,,,,,Space,keypress(Space),,,,,,,,---- -- ----- -- having - ------- --- ----------<br>------------- ------ ------ ---- ---- ------- ----- -- ----<br>-------- ------- -- ---------- --- - --- ----- ----- ----<br>---- --- --- ----- --- ---- ---- ------- ----- ---- -------<br>--- --- -- ----- -- --- ---- -- --- ---- -- ------ ------<br>--- ----- -- ----,171079,171055,170579,170552,170595,171115,,4,having
screen,html.Screen,1_1_0_1_5,2021-04-20T11:14:32.199Z,,,,,,,,,,,,,,,,53,,,,,,,,,,,,,,418,,response,,,,99,,,,,,,Space,keypress(Space),,,,,,,,---- -- ----- -- ------ a ------- --- ----------<br>------------- ------ ------ ---- ---- ------- ----- -- ----<br>-------- ------- -- ---------- --- - --- ----- ----- ----<br>---- --- --- ----- --- ---- ---- ------- ----- ---- -------<br>--- --- -- ----- -- --- ---- -- --- ---- -- ------ ------<br>--- ----- -- ----,171540,171516,171098,171079,171115,171568,,5,a
screen,html.Screen,1_1_0_1_6,2021-04-20T11:14:32.741Z,,,,,,,,,,,,,,,,53,,,,,,,,,,,,,,507,,response,,,,99,,,,,,,Space,keypress(Space),,,,,,,,---- -- ----- -- ------ - lasting --- ----------<br>------------- ------ ------ ---- ---- ------- ----- -- ----<br>-------- ------- -- ---------- --- - --- ----- ----- ----<br>---- --- --- ----- --- ---- ---- ------- ----- ---- -------<br>--- --- -- ----- -- --- ---- -- --- ---- -- ------ ------<br>--- ----- -- ----,172082,172058,171551,171540,171568,172121,,6,lasting
screen,html.Screen,1_1_0_1_7,2021-04-20T11:14:33.167Z,,,,,,,,,,,,,,,,53,,,,,,,,,,,,,,380,,response,,,,99,,,,,,,Space,keypress(Space),,,,,,,,---- -- ----- -- ------ - ------- and ----------<br>------------- ------ ------ ---- ---- ------- ----- -- ----<br>-------- ------- -- ---------- --- - --- ----- ----- ----<br>---- --- --- ----- --- ---- ---- ------- ----- ---- -------<br>--- --- -- ----- -- --- ---- -- --- ---- -- ------ ------<br>--- ----- -- ----,172508,172484,172104,172082,172121,172540,,7,and
screen,html.Screen,1_1_0_1_8,2021-04-20T11:14:33.590Z,,,,,,,,,,,,,,,,53,,,,,,,,,,,,,,384.0000000000291,,response,,,,99,,,,,,,Space,keypress(Space),,,,,,,,---- -- ----- -- ------ - ------- --- fulfilling<br>------------- ------ ------ ---- ---- ------- ----- -- ----<br>-------- ------- -- ---------- --- - --- ----- ----- ----<br>---- --- --- ----- --- ---- ---- ------- ----- ---- -------<br>--- --- -- ----- -- --- ---- -- --- ---- -- ------ ------<br>--- ----- -- ----,172931,172908.00000000003,172524,172508,172540,172959,,8,fulfilling
screen,html.Screen,1_1_0_1_9,2021-04-20T11:14:34.131Z,,,,,,,,,,,,,,,,53,,,,,,,,,,,,,,505,,response,,,,99,,,,,,,Space,keypress(Space),,,,,,,,"---- -- ----- -- ------ - ------- --- ----------<br>relationship, ------ ------ ---- ---- ------- ----- -- ----<br>-------- ------- -- ---------- --- - --- ----- ----- ----<br>---- --- --- ----- --- ---- ---- ------- ----- ---- -------<br>--- --- -- ----- -- --- ---- -- --- ---- -- ------ ------<br>--- ----- -- ----",173472,173448,172943,172932.00000000003,172959,173512,,9,"relationship,"
screen,html.Screen,1_1_0_1_10,2021-04-20T11:14:34.671Z,,,,,,,,,,,,,,,,53,,,,,,,,,,,,,,492,,response,,,,99,,,,,,,Space,keypress(Space),,,,,,,,---- -- ----- -- ------ - ------- --- ----------<br>------------- common ------ ---- ---- ------- ----- -- ----<br>-------- ------- -- ---------- --- - --- ----- ----- ----<br>---- --- --- ----- --- ---- ---- ------- ----- ---- -------<br>--- --- -- ----- -- --- ---- -- --- ---- -- ------ ------<br>--- ----- -- ----,174012,173987,173495,173472,173512,174048,,10,common
screen,html.Screen,1_1_0_1_11,2021-04-20T11:14:35.218Z,,,,,,,,,,,,,,,,53,,,,,,,,,,,,,,505,,response,,,,99,,,,,,,Space,keypress(Space),,,,,,,,---- -- ----- -- ------ - ------- --- ----------<br>------------- ------ wisdom ---- ---- ------- ----- -- ----<br>-------- ------- -- ---------- --- - --- ----- ----- ----<br>---- --- --- ----- --- ---- ---- ------- ----- ---- -------<br>--- --- -- ----- -- --- ---- -- --- ---- -- ------ ------<br>--- ----- -- ----,174559,174535,174030,174012,174048,174601,,11,wisdom
screen,html.Screen,1_1_0_1_12,2021-04-20T11:14:35.731Z,,,,,,,,,,,,,,,,53,,,,,,,,,,,,,,464,,response,,,,99,,,,,,,Space,keypress(Space),,,,,,,,---- -- ----- -- ------ - ------- --- ----------<br>------------- ------ ------ says ---- ------- ----- -- ----<br>-------- ------- -- ---------- --- - --- ----- ----- ----<br>---- --- --- ----- --- ---- ---- ------- ----- ---- -------<br>--- --- -- ----- -- --- ---- -- --- ---- -- ------ ------<br>--- ----- -- ----,175072,175048,174584,174559,174601,175104,,12,says
screen,html.Screen,1_1_0_1_13,2021-04-20T11:14:36.161Z,,,,,,,,,,,,,,,,53,,,,,,,,,,,,,,392,,response,,,,99,,,,,,,Space,keypress(Space),,,,,,,,---- -- ----- -- ------ - ------- --- ----------<br>------------- ------ ------ ---- that ------- ----- -- ----<br>-------- ------- -- ---------- --- - --- ----- ----- ----<br>---- --- --- ----- --- ---- ---- ------- ----- ---- -------<br>--- --- -- ----- -- --- ---- -- --- ---- -- ------ ------<br>--- ----- -- ----,175502,175478,175086,175072,175104,175540,,13,that
screen,html.Screen,1_1_0_1_14,2021-04-20T11:14:36.686Z,,,,,,,,,,,,,,,,53,,,,,,,,,,,,,,479,,response,,,,99,,,,,,,Space,keypress(Space),,,,,,,,---- -- ----- -- ------ - ------- --- ----------<br>------------- ------ ------ ---- ---- feeling ----- -- ----<br>-------- ------- -- ---------- --- - --- ----- ----- ----<br>---- --- --- ----- --- ---- ---- ------- ----- ---- -------<br>--- --- -- ----- -- --- ---- -- --- ---- -- ------ ------<br>--- ----- -- ----,176027.00000000003,176003,175524,175502,175540,176060,,14,feeling
screen,html.Screen,1_1_0_1_15,2021-04-20T11:14:37.553Z,,,,,,,,,,,,,,,,53,,,,,,,,,,,,,,827,,response,,,,99,,,,,,,Space,keypress(Space),,,,,,,,---- -- ----- -- ------ - ------- --- ----------<br>------------- ------ ------ ---- ---- ------- close -- ----<br>-------- ------- -- ---------- --- - --- ----- ----- ----<br>---- --- --- ----- --- ---- ---- ------- ----- ---- -------<br>--- --- -- ----- -- --- ---- -- --- ---- -- ------ ------<br>--- ----- -- ----,176894,176870,176043,176027.00000000003,176060,176929,,15,close
screen,html.Screen,1_1_0_1_16,2021-04-20T11:14:38.001Z,,,,,,,,,,,,,,,,53,,,,,,,,,,,,,,406,,response,,,,99,,,,,,,Space,keypress(Space),,,,,,,,---- -- ----- -- ------ - ------- --- ----------<br>------------- ------ ------ ---- ---- ------- ----- to ----<br>-------- ------- -- ---------- --- - --- ----- ----- ----<br>---- --- --- ----- --- ---- ---- ------- ----- ---- -------<br>--- --- -- ----- -- --- ---- -- --- ---- -- ------ ------<br>--- ----- -- ----,177342,177318,176912,176894,176929,177382,,16,to
screen,html.Screen,1_1_0_1_17,2021-04-20T11:14:38.530Z,,,,,,,,,,,,,,,,53,,,,,,,,,,,,,,482,,response,,,,99,,,,,,,Space,keypress(Space),,,,,,,,---- -- ----- -- ------ - ------- --- ----------<br>------------- ------ ------ ---- ---- ------- ----- -- your<br>-------- ------- -- ---------- --- - --- ----- ----- ----<br>---- --- --- ----- --- ---- ---- ------- ----- ---- -------<br>--- --- -- ----- -- --- ---- -- --- ---- -- ------ ------<br>--- ----- -- ----,177871,177847,177365,177342,177382,177902,,17,your
screen,html.Screen,1_1_0_1_18,2021-04-20T11:14:39.014Z,,,,,,,,,,,,,,,,53,,,,,,,,,,,,,,447.0000000000291,,response,,,,99,,,,,,,Space,keypress(Space),,,,,,,,---- -- ----- -- ------ - ------- --- ----------<br>------------- ------ ------ ---- ---- ------- ----- -- ----<br>romantic ------- -- ---------- --- - --- ----- ----- ----<br>---- --- --- ----- --- ---- ---- ------- ----- ---- -------<br>--- --- -- ----- -- --- ---- -- --- ---- -- ------ ------<br>--- ----- -- ----,178355,178331.00000000003,177884,177871,177902,178388,,18,romantic
screen,html.Screen,1_1_0_1_19,2021-04-20T11:14:39.407Z,,,,,,,,,,,,,,,,53,,,,,,,,,,,,,,352,,response,,,,99,,,,,,,Space,keypress(Space),,,,,,,,---- -- ----- -- ------ - ------- --- ----------<br>------------- ------ ------ ---- ---- ------- ----- -- ----<br>-------- partner -- ---------- --- - --- ----- ----- ----<br>---- --- --- ----- --- ---- ---- ------- ----- ---- -------<br>--- --- -- ----- -- --- ---- -- --- ---- -- ------ ------<br>--- ----- -- ----,178748,178723,178371,178355,178388,178774,,19,partner
screen,html.Screen,1_1_0_1_20,2021-04-20T11:14:39.850Z,,,,,,,,,,,,,,,,53,,,,,,,,,,,,,,410,,response,,,,99,,,,,,,Space,keypress(Space),,,,,,,,---- -- ----- -- ------ - ------- --- ----------<br>------------- ------ ------ ---- ---- ------- ----- -- ----<br>-------- ------- is ---------- --- - --- ----- ----- ----<br>---- --- --- ----- --- ---- ---- ------- ----- ---- -------<br>--- --- -- ----- -- --- ---- -- --- ---- -- ------ ------<br>--- ----- -- ----,179191,179167,178757,178748,178774,179227,,20,is
screen,html.Screen,1_1_0_1_21,2021-04-20T11:14:40.323Z,,,,,,,,,,,,,,,,53,,,,,,,,,,,,,,431.0000000000291,,response,,,,99,,,,,,,Space,keypress(Space),,,,,,,,---- -- ----- -- ------ - ------- --- ----------<br>------------- ------ ------ ---- ---- ------- ----- -- ----<br>-------- ------- -- paramount. --- - --- ----- ----- ----<br>---- --- --- ----- --- ---- ---- ------- ----- ---- -------<br>--- --- -- ----- -- --- ---- -- --- ---- -- ------ ------<br>--- ----- -- ----,179664.00000000003,179640.00000000003,179209,179191,179227,179696,,21,paramount.
screen,html.Screen,1_1_0_1_22,2021-04-20T11:14:40.944Z,,,,,,,,,,,,,,,,53,,,,,,,,,,,,,,582,,response,,,,99,,,,,,,Space,keypress(Space),,,,,,,,---- -- ----- -- ------ - ------- --- ----------<br>------------- ------ ------ ---- ---- ------- ----- -- ----<br>-------- ------- -- ---------- But - --- ----- ----- ----<br>---- --- --- ----- --- ---- ---- ------- ----- ---- -------<br>--- --- -- ----- -- --- ---- -- --- ---- -- ------ ------<br>--- ----- -- ----,180285,180261,179679,179664.00000000003,179696,180315,,22,But
screen,html.Screen,1_1_0_1_23,2021-04-20T11:14:41.369Z,,,,,,,,,,,,,,,,53,,,,,,,,,,,,,,386,,response,,,,99,,,,,,,Space,keypress(Space),,,,,,,,---- -- ----- -- ------ - ------- --- ----------<br>------------- ------ ------ ---- ---- ------- ----- -- ----<br>-------- ------- -- ---------- --- a --- ----- ----- ----<br>---- --- --- ----- --- ---- ---- ------- ----- ---- -------<br>--- --- -- ----- -- --- ---- -- --- ---- -- ------ ------<br>--- ----- -- ----,180709,180685,180299,180285,180315,180752,,23,a
screen,html.Screen,1_1_0_1_24,2021-04-20T11:14:41.784Z,,,,,,,,,,,,,,,,53,,,,,,,,,,,,,,366,,response,,,,99,,,,,,,Space,keypress(Space),,,,,,,,---- -- ----- -- ------ - ------- --- ----------<br>------------- ------ ------ ---- ---- ------- ----- -- ----<br>-------- ------- -- ---------- --- - new ----- ----- ----<br>---- --- --- ----- --- ---- ---- ------- ----- ---- -------<br>--- --- -- ----- -- --- ---- -- --- ---- -- ------ ------<br>--- ----- -- ----,181124,181101,180735,180710,180752,181155,,24,new
screen,html.Screen,1_1_0_1_25,2021-04-20T11:14:42.198Z,,,,,,,,,,,,,,,,53,,,,,,,,,,,,,,376.0000000000291,,response,,,,99,,,,,,,Space,keypress(Space),,,,,,,,---- -- ----- -- ------ - ------- --- ----------<br>------------- ------ ------ ---- ---- ------- ----- -- ----<br>-------- ------- -- ---------- --- - --- study ----- ----<br>---- --- --- ----- --- ---- ---- ------- ----- ---- -------<br>--- --- -- ----- -- --- ---- -- --- ---- -- ------ ------<br>--- ----- -- ----,181539.00000000003,181515.00000000003,181139,181124,181155,181575,,25,study
screen,html.Screen,1_1_0_1_26,2021-04-20T11:14:42.637Z,,,,,,,,,,,,,,,,53,,,,,,,,,,,,,,396,,response,,,,99,,,,,,,Space,keypress(Space),,,,,,,,---- -- ----- -- ------ - ------- --- ----------<br>------------- ------ ------ ---- ---- ------- ----- -- ----<br>-------- ------- -- ---------- --- - --- ----- finds ----<br>---- --- --- ----- --- ---- ---- ------- ----- ---- -------<br>--- --- -- ----- -- --- ---- -- --- ---- -- ------ ------<br>--- ----- -- ----,181978,181954,181558,181539.00000000003,181575,182011,,26,finds
screen,html.Screen,1_1_0_1_27,2021-04-20T11:14:43.126Z,,,,,,,,,,,,,,,,53,,,,,,,,,,,,,,450,,response,,,,99,,,,,,,Space,keypress(Space),,,,,,,,---- -- ----- -- ------ - ------- --- ----------<br>------------- ------ ------ ---- ---- ------- ----- -- ----<br>-------- ------- -- ---------- --- - --- ----- ----- that<br>---- --- --- ----- --- ---- ---- ------- ----- ---- -------<br>--- --- -- ----- -- --- ---- -- --- ---- -- ------ ------<br>--- ----- -- ----,182467,182443,181993,181978,182011,182497,,27,that
screen,html.Screen,1_1_0_1_28,2021-04-20T11:14:43.614Z,,,,,,,,,,,,,,,,53,,,,,,,,,,,,,,451,,response,,,,99,,,,,,,Space,keypress(Space),,,,,,,,---- -- ----- -- ------ - ------- --- ----------<br>------------- ------ ------ ---- ---- ------- ----- -- ----<br>-------- ------- -- ---------- --- - --- ----- ----- ----<br>it's --- --- ----- --- ---- ---- ------- ----- ---- -------<br>--- --- -- ----- -- --- ---- -- --- ---- -- ------ ------<br>--- ----- -- ----,182955,182931,182480,182467,182497,182983,,28,it's
screen,html.Screen,1_1_0_1_29,2021-04-20T11:14:44.078Z,,,,,,,,,,,,,,,,53,,,,,,,,,,,,,,428,,response,,,,99,,,,,,,Space,keypress(Space),,,,,,,,---- -- ----- -- ------ - ------- --- ----------<br>------------- ------ ------ ---- ---- ------- ----- -- ----<br>-------- ------- -- ---------- --- - --- ----- ----- ----<br>---- not --- ----- --- ---- ---- ------- ----- ---- -------<br>--- --- -- ----- -- --- ---- -- --- ---- -- ------ ------<br>--- ----- -- ----,183419,183395,182967,182955,182983,183452,,29,not
screen,html.Screen,1_1_0_1_30,2021-04-20T11:14:44.758Z,,,,,,,,,,,,,,,,53,,,,,,,,,,,,,,639.0000000000291,,response,,,,99,,,,,,,Space,keypress(Space),,,,,,,,---- -- ----- -- ------ - ------- --- ----------<br>------------- ------ ------ ---- ---- ------- ----- -- ----<br>-------- ------- -- ---------- --- - --- ----- ----- ----<br>---- --- how ----- --- ---- ---- ------- ----- ---- -------<br>--- --- -- ----- -- --- ---- -- --- ---- -- ------ ------<br>--- ----- -- ----,184099.00000000003,184075.00000000003,183436,183419,183452,184138,,30,how
screen,html.Screen,1_1_0_1_31,2021-04-20T11:14:45.383Z,,,,,,,,,,,,,,,,53,,,,,,,,,,,,,,579.0000000000291,,response,,,,99,,,,,,,Space,keypress(Space),,,,,,,,---- -- ----- -- ------ - ------- --- ----------<br>------------- ------ ------ ---- ---- ------- ----- -- ----<br>-------- ------- -- ---------- --- - --- ----- ----- ----<br>---- --- --- close --- ---- ---- ------- ----- ---- -------<br>--- --- -- ----- -- --- ---- -- --- ---- -- ------ ------<br>--- ----- -- ----,184724.00000000003,184700.00000000003,184121,184099.00000000003,184138,184758,,31,close
screen,html.Screen,1_1_0_1_32,2021-04-20T11:14:45.934Z,,,,,,,,,,,,,,,,53,,,,,,,,,,,,,,510,,response,,,,99,,,,,,,Space,keypress(Space),,,,,,,,---- -- ----- -- ------ - ------- --- ----------<br>------------- ------ ------ ---- ---- ------- ----- -- ----<br>-------- ------- -- ---------- --- - --- ----- ----- ----<br>---- --- --- ----- you ---- ---- ------- ----- ---- -------<br>--- --- -- ----- -- --- ---- -- --- ---- -- ------ ------<br>--- ----- -- ----,185275,185251,184741,184724.00000000003,184758,185310,,32,you
screen,html.Screen,1_1_0_1_33,2021-04-20T11:14:46.450Z,,,,,,,,,,,,,,,,53,,,,,,,,,,,,,,473,,response,,,,99,,,,,,,Space,keypress(Space),,,,,,,,---- -- ----- -- ------ - ------- --- ----------<br>------------- ------ ------ ---- ---- ------- ----- -- ----<br>-------- ------- -- ---------- --- - --- ----- ----- ----<br>---- --- --- ----- --- feel ---- ------- ----- ---- -------<br>--- --- -- ----- -- --- ---- -- --- ---- -- ------ ------<br>--- ----- -- ----,185791,185767,185294,185275,185310,185831,,33,feel
screen,html.Screen,1_1_0_1_34,2021-04-20T11:14:46.972Z,,,,,,,,,,,,,,,,53,,,,,,,,,,,,,,475.0000000000291,,response,,,,99,,,,,,,Space,keypress(Space),,,,,,,,---- -- ----- -- ------ - ------- --- ----------<br>------------- ------ ------ ---- ---- ------- ----- -- ----<br>-------- ------- -- ---------- --- - --- ----- ----- ----<br>---- --- --- ----- --- ---- that ------- ----- ---- -------<br>--- --- -- ----- -- --- ---- -- --- ---- -- ------ ------<br>--- ----- -- ----,186313.00000000003,186289.00000000003,185814,185791,185831,186350,,34,that
screen,html.Screen,1_1_0_1_35,2021-04-20T11:14:47.462Z,,,,,,,,,,,,,,,,53,,,,,,,,,,,,,,445,,response,,,,99,,,,,,,Space,keypress(Space),,,,,,,,---- -- ----- -- ------ - ------- --- ----------<br>------------- ------ ------ ---- ---- ------- ----- -- ----<br>-------- ------- -- ---------- --- - --- ----- ----- ----<br>---- --- --- ----- --- ---- ---- matters ----- ---- -------<br>--- --- -- ----- -- --- ---- -- --- ---- -- ------ ------<br>--- ----- -- ----,186803,186779,186334,186313.00000000003,186350,186836,,35,matters
screen,html.Screen,1_1_0_1_36,2021-04-20T11:14:48.001Z,,,,,,,,,,,,,,,,53,,,,,,,,,,,,,,498,,response,,,,99,,,,,,,Space,keypress(Space),,,,,,,,"---- -- ----- -- ------ - ------- --- ----------<br>------------- ------ ------ ---- ---- ------- ----- -- ----<br>-------- ------- -- ---------- --- - --- ----- ----- ----<br>---- --- --- ----- --- ---- ---- ------- most, ---- -------<br>--- --- -- ----- -- --- ---- -- --- ---- -- ------ ------<br>--- ----- -- ----",187342,187318,186820,186803,186836,187373,,36,"most,"
screen,html.Screen,1_1_0_1_37,2021-04-20T11:14:48.495Z,,,,,,,,,,,,,,,,53,,,,,,,,,,,,,,456,,response,,,,99,,,,,,,Space,keypress(Space),,,,,,,,---- -- ----- -- ------ - ------- --- ----------<br>------------- ------ ------ ---- ---- ------- ----- -- ----<br>-------- ------- -- ---------- --- - --- ----- ----- ----<br>---- --- --- ----- --- ---- ---- ------- ----- it's -------<br>--- --- -- ----- -- --- ---- -- --- ---- -- ------ ------<br>--- ----- -- ----,187836,187812,187356,187342,187373,187876,,37,it's
screen,html.Screen,1_1_0_1_38,2021-04-20T11:14:48.998Z,,,,,,,,,,,,,,,,53,,,,,,,,,,,,,,456,,response,,,,99,,,,,,,Space,keypress(Space),,,,,,,,---- -- ----- -- ------ - ------- --- ----------<br>------------- ------ ------ ---- ---- ------- ----- -- ----<br>-------- ------- -- ---------- --- - --- ----- ----- ----<br>---- --- --- ----- --- ---- ---- ------- ----- ---- whether<br>--- --- -- ----- -- --- ---- -- --- ---- -- ------ ------<br>--- ----- -- ----,188339,188315,187859,187836,187876,188379,,38,whether
screen,html.Screen,1_1_0_1_39,2021-04-20T11:14:49.477Z,,,,,,,,,,,,,,,,53,,,,,,,,,,,,,,430,,response,,,,99,,,,,,,Space,keypress(Space),,,,,,,,---- -- ----- -- ------ - ------- --- ----------<br>------------- ------ ------ ---- ---- ------- ----- -- ----<br>-------- ------- -- ---------- --- - --- ----- ----- ----<br>---- --- --- ----- --- ---- ---- ------- ----- ---- -------<br>you --- -- ----- -- --- ---- -- --- ---- -- ------ ------<br>--- ----- -- ----,188818,188793,188363,188339,188379,188849,,39,you
screen,html.Screen,1_1_0_1_40,2021-04-20T11:14:49.950Z,,,,,,,,,,,,,,,,53,,,,,,,,,,,,,,434,,response,,,,99,,,,,,,Space,keypress(Space),,,,,,,,---- -- ----- -- ------ - ------- --- ----------<br>------------- ------ ------ ---- ---- ------- ----- -- ----<br>-------- ------- -- ---------- --- - --- ----- ----- ----<br>---- --- --- ----- --- ---- ---- ------- ----- ---- -------<br>--- are -- ----- -- --- ---- -- --- ---- -- ------ ------<br>--- ----- -- ----,189291,189267,188833,188818,188849,189318,,40,are
screen,html.Screen,1_1_0_1_41,2021-04-20T11:14:50.417Z,,,,,,,,,,,,,,,,53,,,,,,,,,,,,,,432,,response,,,,99,,,,,,,Space,keypress(Space),,,,,,,,---- -- ----- -- ------ - ------- --- ----------<br>------------- ------ ------ ---- ---- ------- ----- -- ----<br>-------- ------- -- ---------- --- - --- ----- ----- ----<br>---- --- --- ----- --- ---- ---- ------- ----- ---- -------<br>--- --- as ----- -- --- ---- -- --- ---- -- ------ ------<br>--- ----- -- ----,189758,189734,189302,189291,189318,189788,,41,as
screen,html.Screen,1_1_0_1_42,2021-04-20T11:14:50.892Z,,,,,,,,,,,,,,,,53,,,,,,,,,,,,,,437,,response,,,,99,,,,,,,Space,keypress(Space),,,,,,,,---- -- ----- -- ------ - ------- --- ----------<br>------------- ------ ------ ---- ---- ------- ----- -- ----<br>-------- ------- -- ---------- --- - --- ----- ----- ----<br>---- --- --- ----- --- ---- ---- ------- ----- ---- -------<br>--- --- -- close -- --- ---- -- --- ---- -- ------ ------<br>--- ----- -- ----,190233,190209,189772,189758,189788,190273,,42,close
screen,html.Screen,1_1_0_1_43,2021-04-20T11:14:51.330Z,,,,,,,,,,,,,,,,53,,,,,,,,,,,,,,390,,response,,,,99,,,,,,,Space,keypress(Space),,,,,,,,---- -- ----- -- ------ - ------- --- ----------<br>------------- ------ ------ ---- ---- ------- ----- -- ----<br>-------- ------- -- ---------- --- - --- ----- ----- ----<br>---- --- --- ----- --- ---- ---- ------- ----- ---- -------<br>--- --- -- ----- as --- ---- -- --- ---- -- ------ ------<br>--- ----- -- ----,190671,190647,190257,190233,190273,190710,,43,as
screen,html.Screen,1_1_0_1_44,2021-04-20T11:14:51.793Z,,,,,,,,,,,,,,,,53,,,,,,,,,,,,,,416,,response,,,,99,,,,,,,Space,keypress(Space),,,,,,,,---- -- ----- -- ------ - ------- --- ----------<br>------------- ------ ------ ---- ---- ------- ----- -- ----<br>-------- ------- -- ---------- --- - --- ----- ----- ----<br>---- --- --- ----- --- ---- ---- ------- ----- ---- -------<br>--- --- -- ----- -- you ---- -- --- ---- -- ------ ------<br>--- ----- -- ----,191134,191110,190694,190671,190710,191163,,44,you
screen,html.Screen,1_1_0_1_45,2021-04-20T11:14:52.269Z,,,,,,,,,,,,,,,,53,,,,,,,,,,,,,,440,,response,,,,99,,,,,,,Space,keypress(Space),,,,,,,,---- -- ----- -- ------ - ------- --- ----------<br>------------- ------ ------ ---- ---- ------- ----- -- ----<br>-------- ------- -- ---------- --- - --- ----- ----- ----<br>---- --- --- ----- --- ---- ---- ------- ----- ---- -------<br>--- --- -- ----- -- --- want -- --- ---- -- ------ ------<br>--- ----- -- ----,191610,191586,191146,191134,191163,191649,,45,want
screen,html.Screen,1_1_0_1_46,2021-04-20T11:14:52.726Z,,,,,,,,,,,,,,,,53,,,,,,,,,,,,,,411,,response,,,,99,,,,,,,Space,keypress(Space),,,,,,,,---- -- ----- -- ------ - ------- --- ----------<br>------------- ------ ------ ---- ---- ------- ----- -- ----<br>-------- ------- -- ---------- --- - --- ----- ----- ----<br>---- --- --- ----- --- ---- ---- ------- ----- ---- -------<br>--- --- -- ----- -- --- ---- to --- ---- -- ------ ------<br>--- ----- -- ----,192067,192043,191632,191610,191649,192102,,46,to
screen,html.Screen,1_1_0_1_47,2021-04-20T11:14:53.234Z,,,,,,,,,,,,,,,,53,,,,,,,,,,,,,,465.0000000000291,,response,,,,99,,,,,,,Space,keypress(Space),,,,,,,,"---- -- ----- -- ------ - ------- --- ----------<br>------------- ------ ------ ---- ---- ------- ----- -- ----<br>-------- ------- -- ---------- --- - --- ----- ----- ----<br>---- --- --- ----- --- ---- ---- ------- ----- ---- -------<br>--- --- -- ----- -- --- ---- -- be, ---- -- ------ ------<br>--- ----- -- ----",192575.00000000003,192551.00000000003,192086,192067,192102,192605,,47,"be,"
screen,html.Screen,1_1_0_1_48,2021-04-20T11:14:53.692Z,,,,,,,,,,,,,,,,53,,,,,,,,,,,,,,420,,response,,,,99,,,,,,,Space,keypress(Space),,,,,,,,---- -- ----- -- ------ - ------- --- ----------<br>------------- ------ ------ ---- ---- ------- ----- -- ----<br>-------- ------- -- ---------- --- - --- ----- ----- ----<br>---- --- --- ----- --- ---- ---- ------- ----- ---- -------<br>--- --- -- ----- -- --- ---- -- --- even -- ------ ------<br>--- ----- -- ----,193032,193008,192588,192575.00000000003,192605,193075,,48,even
screen,html.Screen,1_1_0_1_49,2021-04-20T11:14:54.135Z,,,,,,,,,,,,,,,,53,,,,,,,,,,,,,,394,,response,,,,99,,,,,,,Space,keypress(Space),,,,,,,,---- -- ----- -- ------ - ------- --- ----------<br>------------- ------ ------ ---- ---- ------- ----- -- ----<br>-------- ------- -- ---------- --- - --- ----- ----- ----<br>---- --- --- ----- --- ---- ---- ------- ----- ---- -------<br>--- --- -- ----- -- --- ---- -- --- ---- if ------ ------<br>--- ----- -- ----,193476,193452,193058,193032,193075,193511,,49,if
screen,html.Screen,1_1_0_1_50,2021-04-20T11:14:54.617Z,,,,,,,,,,,,,,,,53,,,,,,,,,,,,,,439,,response,,,,99,,,,,,,Space,keypress(Space),,,,,,,,---- -- ----- -- ------ - ------- --- ----------<br>------------- ------ ------ ---- ---- ------- ----- -- ----<br>-------- ------- -- ---------- --- - --- ----- ----- ----<br>---- --- --- ----- --- ---- ---- ------- ----- ---- -------<br>--- --- -- ----- -- --- ---- -- --- ---- -- that's ------<br>--- ----- -- ----,193958,193934,193495,193476,193511,193997,,50,that's
screen,html.Screen,1_1_0_1_51,2021-04-20T11:14:55.103Z,,,,,,,,,,,,,,,,53,,,,,,,,,,,,,,440.0000000000291,,response,,,,99,,,,,,,Space,keypress(Space),,,,,,,,---- -- ----- -- ------ - ------- --- ----------<br>------------- ------ ------ ---- ---- ------- ----- -- ----<br>-------- ------- -- ---------- --- - --- ----- ----- ----<br>---- --- --- ----- --- ---- ---- ------- ----- ---- -------<br>--- --- -- ----- -- --- ---- -- --- ---- -- ------ really<br>--- ----- -- ----,194444.00000000003,194420.00000000003,193980,193958,193997,194483,,51,really
screen,html.Screen,1_1_0_1_52,2021-04-20T11:14:55.595Z,,,,,,,,,,,,,,,,53,,,,,,,,,,,,,,444,,response,,,,99,,,,,,,Space,keypress(Space),,,,,,,,---- -- ----- -- ------ - ------- --- ----------<br>------------- ------ ------ ---- ---- ------- ----- -- ----<br>-------- ------- -- ---------- --- - --- ----- ----- ----<br>---- --- --- ----- --- ---- ---- ------- ----- ---- -------<br>--- --- -- ----- -- --- ---- -- --- ---- -- ------ ------<br>not ----- -- ----,194935,194911,194467,194444.00000000003,194483,194969,,52,not
screen,html.Screen,1_1_0_1_53,2021-04-20T11:14:56.057Z,,,,,,,,,,,,,,,,53,,,,,,,,,,,,,,422,,response,,,,99,,,,,,,Space,keypress(Space),,,,,,,,---- -- ----- -- ------ - ------- --- ----------<br>------------- ------ ------ ---- ---- ------- ----- -- ----<br>-------- ------- -- ---------- --- - --- ----- ----- ----<br>---- --- --- ----- --- ---- ---- ------- ----- ---- -------<br>--- --- -- ----- -- --- ---- -- --- ---- -- ------ ------<br>--- close -- ----,195398,195374,194952,194935,194969,195438,,53,close
screen,html.Screen,1_1_0_1_54,2021-04-20T11:14:56.538Z,,,,,,,,,,,,,,,,53,,,,,,,,,,,,,,434.0000000000291,,response,,,,99,,,,,,,Space,keypress(Space),,,,,,,,---- -- ----- -- ------ - ------- --- ----------<br>------------- ------ ------ ---- ---- ------- ----- -- ----<br>-------- ------- -- ---------- --- - --- ----- ----- ----<br>---- --- --- ----- --- ---- ---- ------- ----- ---- -------<br>--- --- -- ----- -- --- ---- -- --- ---- -- ------ ------<br>--- ----- at ----,195878,195855.00000000003,195421,195398,195438,195908,,54,at
screen,html.Screen,1_1_0_1_55,2021-04-20T11:14:57.375Z,,,,,,,,,,,,,,,,53,,,,,,,,,,,,,,799,,response,,,,99,,,,,,,Space,keypress(Space),,,,,,,,---- -- ----- -- ------ - ------- --- ----------<br>------------- ------ ------ ---- ---- ------- ----- -- ----<br>-------- ------- -- ---------- --- - --- ----- ----- ----<br>---- --- --- ----- --- ---- ---- ------- ----- ---- -------<br>--- --- -- ----- -- --- ---- -- --- ---- -- ------ ------<br>--- ----- -- all.,196716,196691,195892,195878,195908,196744,,55,all.
Item 99,flow.Loop,1_1_0_1,2021-04-20T11:14:57.375Z,,,,,,,,,,,,,,,,,,,,,,,,,,,,,,29309,,completion,,,,,E,,,,,,,,,,,silence,,,,,196716,196691,167358,167359,167382,196744,,,
Question 1,html.Screen,1_1_0_2,2021-04-20T11:15:04.277Z,,,,,,,,,,,,,,,,,,,,,,,,,,,true,FALSE,,6866,,response,,,,99,E,,,,,,FALSE,click #choice-2,,,,silence,,,,,203617,203594,196728,196716,196744,203649,,,
Question 2,html.Screen,1_1_0_3,2021-04-20T11:15:10.263Z,,,,,,,,,,,,,,,,,,,,,,,,,,,true,TRUE,,5947,,response,,,,99,E,,,,,,TRUE,click #choice-1,,,,silence,,,,,209603,209580,203633,203617,203649,209641,,,
Item 99,flow.Sequence,1_1_0,2021-04-20T11:15:10.264Z,,,,,,,,,,,,,,,,,,,,,,,,,,,,,,52200,,completion,,,,,,,,,,,,,,,,,,,,,209604,209580,157366,157362,157380,209641,,,
Holding screen,html.Screen,1_1_1_0,2021-04-20T11:15:20.285Z,,,,,,,,,,,,,,,,,,,,,,,,,,,,,,10000,,timeout,,,,,,,,,,,,,,,,,,,,,219625,219625,209614,209605.00000000003,209641,219641,,,
screen,html.Screen,1_1_1_1_0,2021-04-20T11:15:21.114Z,,,,,,,,,,,,,,,,54,,,,,,,,,,,,,,804,,response,,,,100,,,,,,,Space,keypress(Space),,,,,,,,At --- ---- --- ------ ----- ------- ---- -- --- ------- --<br>------- ---------- ------ -- ----- -- ----- -- ---- ------<br>--- ----- --- --- ------ -------- ----- --- ------ ----- --<br>----- ----- ---------- --- --- ------ ------ ---- -- ------<br>------- --- ------ ----- --- ---- ------- -- ---- --- --<br>------- ------,220455,220429,219625,219625,219641,220494,,0,At
screen,html.Screen,1_1_1_1_1,2021-04-20T11:15:21.638Z,,,,,,,,,,,,,,,,54,,,,,,,,,,,,,,476,,response,,,,100,,,,,,,Space,keypress(Space),,,,,,,,-- the ---- --- ------ ----- ------- ---- -- --- ------- --<br>------- ---------- ------ -- ----- -- ----- -- ---- ------<br>--- ----- --- --- ------ -------- ----- --- ------ ----- --<br>----- ----- ---------- --- --- ------ ------ ---- -- ------<br>------- --- ------ ----- --- ---- ------- -- ---- --- --<br>------- ------,220978,220953,220477,220455,220494,221017,,1,the
screen,html.Screen,1_1_1_1_2,2021-04-20T11:15:22.005Z,,,,,,,,,,,,,,,,54,,,,,,,,,,,,,,320,,response,,,,100,,,,,,,Space,keypress(Space),,,,,,,,-- --- time --- ------ ----- ------- ---- -- --- ------- --<br>------- ---------- ------ -- ----- -- ----- -- ---- ------<br>--- ----- --- --- ------ -------- ----- --- ------ ----- --<br>----- ----- ---------- --- --- ------ ------ ---- -- ------<br>------- --- ------ ----- --- ---- ------- -- ---- --- --<br>------- ------,221345,221321,221001,220978,221017,221370,,2,time
screen,html.Screen,1_1_1_1_3,2021-04-20T11:15:22.715Z,,,,,,,,,,,,,,,,54,,,,,,,,,,,,,,678,,response,,,,100,,,,,,,Space,keypress(Space),,,,,,,,-- --- ---- the ------ ----- ------- ---- -- --- ------- --<br>------- ---------- ------ -- ----- -- ----- -- ---- ------<br>--- ----- --- --- ------ -------- ----- --- ------ ----- --<br>----- ----- ---------- --- --- ------ ------ ---- -- ------<br>------- --- ------ ----- --- ---- ------- -- ---- --- --<br>------- ------,222056,222031,221353,221345,221370,222089,,3,the
screen,html.Screen,1_1_1_1_4,2021-04-20T11:15:23.101Z,,,,,,,,,,,,,,,,54,,,,,,,,,,,,,,343,,response,,,,100,,,,,,,Space,keypress(Space),,,,,,,,-- --- ---- --- French ----- ------- ---- -- --- ------- --<br>------- ---------- ------ -- ----- -- ----- -- ---- ------<br>--- ----- --- --- ------ -------- ----- --- ------ ----- --<br>----- ----- ---------- --- --- ------ ------ ---- -- ------<br>------- --- ------ ----- --- ---- ------- -- ---- --- --<br>------- ------,222441,222416,222073,222056,222089,222459,,4,French
screen,html.Screen,1_1_1_1_5,2021-04-20T11:15:23.476Z,,,,,,,,,,,,,,,,54,,,,,,,,,,,,,,350,,response,,,,100,,,,,,,Space,keypress(Space),,,,,,,,-- --- ---- --- ------ crown ------- ---- -- --- ------- --<br>------- ---------- ------ -- ----- -- ----- -- ---- ------<br>--- ----- --- --- ------ -------- ----- --- ------ ----- --<br>----- ----- ---------- --- --- ------ ------ ---- -- ------<br>------- --- ------ ----- --- ---- ------- -- ---- --- --<br>------- ------,222817,222792,222442,222441,222459,222847,,5,crown
screen,html.Screen,1_1_1_1_6,2021-04-20T11:15:23.870Z,,,,,,,,,,,,,,,,54,,,,,,,,,,,,,,356,,response,,,,100,,,,,,,Space,keypress(Space),,,,,,,,-- --- ---- --- ------ ----- secured ---- -- --- ------- --<br>------- ---------- ------ -- ----- -- ----- -- ---- ------<br>--- ----- --- --- ------ -------- ----- --- ------ ----- --<br>----- ----- ---------- --- --- ------ ------ ---- -- ------<br>------- --- ------ ----- --- ---- ------- -- ---- --- --<br>------- ------,223211,223186,222830,222817,222847,223233,,6,secured
screen,html.Screen,1_1_1_1_7,2021-04-20T11:15:24.311Z,,,,,,,,,,,,,,,,54,,,,,,,,,,,,,,411,,response,,,,100,,,,,,,Space,keypress(Space),,,,,,,,-- --- ---- --- ------ ----- ------- much -- --- ------- --<br>------- ---------- ------ -- ----- -- ----- -- ---- ------<br>--- ----- --- --- ------ -------- ----- --- ------ ----- --<br>----- ----- ---------- --- --- ------ ------ ---- -- ------<br>------- --- ------ ----- --- ---- ------- -- ---- --- --<br>------- ------,223651,223627,223216,223211,223233,223685,,7,much
screen,html.Screen,1_1_1_1_8,2021-04-20T11:15:24.723Z,,,,,,,,,,,,,,,,54,,,,,,,,,,,,,,370,,response,,,,100,,,,,,,Space,keypress(Space),,,,,,,,-- --- ---- --- ------ ----- ------- ---- of --- ------- --<br>------- ---------- ------ -- ----- -- ----- -- ---- ------<br>--- ----- --- --- ------ -------- ----- --- ------ ----- --<br>----- ----- ---------- --- --- ------ ------ ---- -- ------<br>------- --- ------ ----- --- ---- ------- -- ---- --- --<br>------- ------,224063.00000000003,224038,223668,223651,223685,224104,,8,of
screen,html.Screen,1_1_1_1_9,2021-04-20T11:15:25.112Z,,,,,,,,,,,,,,,,54,,,,,,,,,,,,,,340,,response,,,,100,,,,,,,Space,keypress(Space),,,,,,,,-- --- ---- --- ------ ----- ------- ---- -- its ------- --<br>------- ---------- ------ -- ----- -- ----- -- ---- ------<br>--- ----- --- --- ------ -------- ----- --- ------ ----- --<br>----- ----- ---------- --- --- ------ ------ ---- -- ------<br>------- --- ------ ----- --- ---- ------- -- ---- --- --<br>------- ------,224452,224427,224087,224063.00000000003,224104,224473,,9,its
screen,html.Screen,1_1_1_1_10,2021-04-20T11:15:25.437Z,,,,,,,,,,,,,,,,54,,,,,,,,,,,,,,296,,response,,,,100,,,,,,,Space,keypress(Space),,,,,,,,-- --- ---- --- ------ ----- ------- ---- -- --- revenue --<br>------- ---------- ------ -- ----- -- ----- -- ---- ------<br>--- ----- --- --- ------ -------- ----- --- ------ ----- --<br>----- ----- ---------- --- --- ------ ------ ---- -- ------<br>------- --- ------ ----- --- ---- ------- -- ---- --- --<br>------- ------,224777.00000000003,224753,224457,224452,224473,224809,,10,revenue
screen,html.Screen,1_1_1_1_11,2021-04-20T11:15:26.044Z,,,,,,,,,,,,,,,,54,,,,,,,,,,,,,,567,,response,,,,100,,,,,,,Space,keypress(Space),,,,,,,,-- --- ---- --- ------ ----- ------- ---- -- --- ------- by<br>------- ---------- ------ -- ----- -- ----- -- ---- ------<br>--- ----- --- --- ------ -------- ----- --- ------ ----- --<br>----- ----- ---------- --- --- ------ ------ ---- -- ------<br>------- --- ------ ----- --- ---- ------- -- ---- --- --<br>------- ------,225385,225360,224793,224778,224809,225412,,11,by
screen,html.Screen,1_1_1_1_12,2021-04-20T11:15:26.464Z,,,,,,,,,,,,,,,,54,,,,,,,,,,,,,,384,,response,,,,100,,,,,,,Space,keypress(Space),,,,,,,,-- --- ---- --- ------ ----- ------- ---- -- --- ------- --<br>issuing ---------- ------ -- ----- -- ----- -- ---- ------<br>--- ----- --- --- ------ -------- ----- --- ------ ----- --<br>----- ----- ---------- --- --- ------ ------ ---- -- ------<br>------- --- ------ ----- --- ---- ------- -- ---- --- --<br>------- ------,225804,225780,225396,225385,225412,225831,,12,issuing
screen,html.Screen,1_1_1_1_13,2021-04-20T11:15:26.976Z,,,,,,,,,,,,,,,,54,,,,,,,,,,,,,,476,,response,,,,100,,,,,,,Space,keypress(Space),,,,,,,,-- --- ---- --- ------ ----- ------- ---- -- --- ------- --<br>------- government ------ -- ----- -- ----- -- ---- ------<br>--- ----- --- --- ------ -------- ----- --- ------ ----- --<br>----- ----- ---------- --- --- ------ ------ ---- -- ------<br>------- --- ------ ----- --- ---- ------- -- ---- --- --<br>------- ------,226316,226291,225815,225805,225831,226352,,13,government
screen,html.Screen,1_1_1_1_14,2021-04-20T11:15:27.368Z,,,,,,,,,,,,,,,,54,,,,,,,,,,,,,,348,,response,,,,100,,,,,,,Space,keypress(Space),,,,,,,,-- --- ---- --- ------ ----- ------- ---- -- --- ------- --<br>------- ---------- bonds. -- ----- -- ----- -- ---- ------<br>--- ----- --- --- ------ -------- ----- --- ------ ----- --<br>----- ----- ---------- --- --- ------ ------ ---- -- ------<br>------- --- ------ ----- --- ---- ------- -- ---- --- --<br>------- ------,226708,226683,226335,226316,226352,226737,,14,bonds.
screen,html.Screen,1_1_1_1_15,2021-04-20T11:15:28.336Z,,,,,,,,,,,,,,,,54,,,,,,,,,,,,,,930,,response,,,,100,,,,,,,Space,keypress(Space),,,,,,,,-- --- ---- --- ------ ----- ------- ---- -- --- ------- --<br>------- ---------- ------ In ----- -- ----- -- ---- ------<br>--- ----- --- --- ------ -------- ----- --- ------ ----- --<br>----- ----- ---------- --- --- ------ ------ ---- -- ------<br>------- --- ------ ----- --- ---- ------- -- ---- --- --<br>------- ------,227676.00000000003,227651,226721,226708,226737,227707,,15,In
screen,html.Screen,1_1_1_1_16,2021-04-20T11:15:28.939Z,,,,,,,,,,,,,,,,54,,,,,,,,,,,,,,565,,response,,,,100,,,,,,,Space,keypress(Space),,,,,,,,"-- --- ---- --- ------ ----- ------- ---- -- --- ------- --<br>------- ---------- ------ -- 1727, -- ----- -- ---- ------<br>--- ----- --- --- ------ -------- ----- --- ------ ----- --<br>----- ----- ---------- --- --- ------ ------ ---- -- ------<br>------- --- ------ ----- --- ---- ------- -- ---- --- --<br>------- ------",228279,228255,227690,227676.00000000003,227707,228310,,16,"1727,"
screen,html.Screen,1_1_1_1_17,2021-04-20T11:15:29.688Z,,,,,,,,,,,,,,,,54,,,,,,,,,,,,,,709,,response,,,,100,,,,,,,Space,keypress(Space),,,,,,,,-- --- ---- --- ------ ----- ------- ---- -- --- ------- --<br>------- ---------- ------ -- ----- in ----- -- ---- ------<br>--- ----- --- --- ------ -------- ----- --- ------ ----- --<br>----- ----- ---------- --- --- ------ ------ ---- -- ------<br>------- --- ------ ----- --- ---- ------- -- ---- --- --<br>------- ------,229028,229003,228294,228279,228310,229063,,17,in
screen,html.Screen,1_1_1_1_18,2021-04-20T11:15:30.188Z,,,,,,,,,,,,,,,,54,,,,,,,,,,,,,,457,,response,,,,100,,,,,,,Space,keypress(Space),,,,,,,,-- --- ---- --- ------ ----- ------- ---- -- --- ------- --<br>------- ---------- ------ -- ----- -- order -- ---- ------<br>--- ----- --- --- ------ -------- ----- --- ------ ----- --<br>----- ----- ---------- --- --- ------ ------ ---- -- ------<br>------- --- ------ ----- --- ---- ------- -- ---- --- --<br>------- ------,229528,229504,229047,229028,229063,229567,,18,order
screen,html.Screen,1_1_1_1_19,2021-04-20T11:15:30.783Z,,,,,,,,,,,,,,,,54,,,,,,,,,,,,,,549.0000000000291,,response,,,,100,,,,,,,Space,keypress(Space),,,,,,,,-- --- ---- --- ------ ----- ------- ---- -- --- ------- --<br>------- ---------- ------ -- ----- -- ----- to ---- ------<br>--- ----- --- --- ------ -------- ----- --- ------ ----- --<br>----- ----- ---------- --- --- ------ ------ ---- -- ------<br>------- --- ------ ----- --- ---- ------- -- ---- --- --<br>------- ------,230123.00000000003,230099.00000000003,229550,229528,229567,230153,,19,to
screen,html.Screen,1_1_1_1_20,2021-04-20T11:15:31.210Z,,,,,,,,,,,,,,,,54,,,,,,,,,,,,,,390,,response,,,,100,,,,,,,Space,keypress(Space),,,,,,,,-- --- ---- --- ------ ----- ------- ---- -- --- ------- --<br>------- ---------- ------ -- ----- -- ----- -- save ------<br>--- ----- --- --- ------ -------- ----- --- ------ ----- --<br>----- ----- ---------- --- --- ------ ------ ---- -- ------<br>------- --- ------ ----- --- ---- ------- -- ---- --- --<br>------- ------,230550,230526,230136,230123.00000000003,230153,230588,,20,save
screen,html.Screen,1_1_1_1_21,2021-04-20T11:15:31.709Z,,,,,,,,,,,,,,,,54,,,,,,,,,,,,,,453,,response,,,,100,,,,,,,Space,keypress(Space),,,,,,,,"-- --- ---- --- ------ ----- ------- ---- -- --- ------- --<br>------- ---------- ------ -- ----- -- ----- -- ---- money,<br>--- ----- --- --- ------ -------- ----- --- ------ ----- --<br>----- ----- ---------- --- --- ------ ------ ---- -- ------<br>------- --- ------ ----- --- ---- ------- -- ---- --- --<br>------- ------",231049,231025,230572,230550,230588,231092,,21,"money,"
screen,html.Screen,1_1_1_1_22,2021-04-20T11:15:32.248Z,,,,,,,,,,,,,,,,54,,,,,,,,,,,,,,488,,response,,,,100,,,,,,,Space,keypress(Space),,,,,,,,-- --- ---- --- ------ ----- ------- ---- -- --- ------- --<br>------- ---------- ------ -- ----- -- ----- -- ---- ------<br>the ----- --- --- ------ -------- ----- --- ------ ----- --<br>----- ----- ---------- --- --- ------ ------ ---- -- ------<br>------- --- ------ ----- --- ---- ------- -- ---- --- --<br>------- ------,231588,231564,231076,231049,231092,231628,,22,the
screen,html.Screen,1_1_1_1_23,2021-04-20T11:15:32.721Z,,,,,,,,,,,,,,,,54,,,,,,,,,,,,,,425,,response,,,,100,,,,,,,Space,keypress(Space),,,,,,,,-- --- ---- --- ------ ----- ------- ---- -- --- ------- --<br>------- ---------- ------ -- ----- -- ----- -- ---- ------<br>--- state --- --- ------ -------- ----- --- ------ ----- --<br>----- ----- ---------- --- --- ------ ------ ---- -- ------<br>------- --- ------ ----- --- ---- ------- -- ---- --- --<br>------- ------,232061,232037,231612,231589,231628,232098,,23,state
screen,html.Screen,1_1_1_1_24,2021-04-20T11:15:33.183Z,,,,,,,,,,,,,,,,54,,,,,,,,,,,,,,417.0000000000291,,response,,,,100,,,,,,,Space,keypress(Space),,,,,,,,-- --- ---- --- ------ ----- ------- ---- -- --- ------- --<br>------- ---------- ------ -- ----- -- ----- -- ---- ------<br>--- ----- cut --- ------ -------- ----- --- ------ ----- --<br>----- ----- ---------- --- --- ------ ------ ---- -- ------<br>------- --- ------ ----- --- ---- ------- -- ---- --- --<br>------- ------,232523,232498.00000000003,232081,232061,232098,232551,,24,cut
screen,html.Screen,1_1_1_1_25,2021-04-20T11:15:33.591Z,,,,,,,,,,,,,,,,54,,,,,,,,,,,,,,372,,response,,,,100,,,,,,,Space,keypress(Space),,,,,,,,-- --- ---- --- ------ ----- ------- ---- -- --- ------- --<br>------- ---------- ------ -- ----- -- ----- -- ---- ------<br>--- ----- --- the ------ -------- ----- --- ------ ----- --<br>----- ----- ---------- --- --- ------ ------ ---- -- ------<br>------- --- ------ ----- --- ---- ------- -- ---- --- --<br>------- ------,232931,232907,232535,232523,232551,232971,,25,the
screen,html.Screen,1_1_1_1_26,2021-04-20T11:15:34.088Z,,,,,,,,,,,,,,,,54,,,,,,,,,,,,,,451,,response,,,,100,,,,,,,Space,keypress(Space),,,,,,,,-- --- ---- --- ------ ----- ------- ---- -- --- ------- --<br>------- ---------- ------ -- ----- -- ----- -- ---- ------<br>--- ----- --- --- bonds' -------- ----- --- ------ ----- --<br>----- ----- ---------- --- --- ------ ------ ---- -- ------<br>------- --- ------ ----- --- ---- ------- -- ---- --- --<br>------- ------,233428,233404,232953,232931,232971,233457,,26,bonds'
screen,html.Screen,1_1_1_1_27,2021-04-20T11:15:34.530Z,,,,,,,,,,,,,,,,54,,,,,,,,,,,,,,405,,response,,,,100,,,,,,,Space,keypress(Space),,,,,,,,-- --- ---- --- ------ ----- ------- ---- -- --- ------- --<br>------- ---------- ------ -- ----- -- ----- -- ---- ------<br>--- ----- --- --- ------ interest ----- --- ------ ----- --<br>----- ----- ---------- --- --- ------ ------ ---- -- ------<br>------- --- ------ ----- --- ---- ------- -- ---- --- --<br>------- ------,233870,233845,233440,233428,233457,233910,,27,interest
screen,html.Screen,1_1_1_1_28,2021-04-20T11:15:35.025Z,,,,,,,,,,,,,,,,54,,,,,,,,,,,,,,447,,response,,,,100,,,,,,,Space,keypress(Space),,,,,,,,-- --- ---- --- ------ ----- ------- ---- -- --- ------- --<br>------- ---------- ------ -- ----- -- ----- -- ---- ------<br>--- ----- --- --- ------ -------- rate. --- ------ ----- --<br>----- ----- ---------- --- --- ------ ------ ---- -- ------<br>------- --- ------ ----- --- ---- ------- -- ---- --- --<br>------- ------,234365,234339,233892,233870,233910,234396,,28,rate.
screen,html.Screen,1_1_1_1_29,2021-04-20T11:15:35.694Z,,,,,,,,,,,,,,,,54,,,,,,,,,,,,,,630,,response,,,,100,,,,,,,Space,keypress(Space),,,,,,,,-- --- ---- --- ------ ----- ------- ---- -- --- ------- --<br>------- ---------- ------ -- ----- -- ----- -- ---- ------<br>--- ----- --- --- ------ -------- ----- The ------ ----- --<br>----- ----- ---------- --- --- ------ ------ ---- -- ------<br>------- --- ------ ----- --- ---- ------- -- ---- --- --<br>------- ------,235034,235009,234379,234365,234396,235065,,29,The
screen,html.Screen,1_1_1_1_30,2021-04-20T11:15:36.139Z,,,,,,,,,,,,,,,,54,,,,,,,,,,,,,,405,,response,,,,100,,,,,,,Space,keypress(Space),,,,,,,,-- --- ---- --- ------ ----- ------- ---- -- --- ------- --<br>------- ---------- ------ -- ----- -- ----- -- ---- ------<br>--- ----- --- --- ------ -------- ----- --- market ----- --<br>----- ----- ---------- --- --- ------ ------ ---- -- ------<br>------- --- ------ ----- --- ---- ------- -- ---- --- --<br>------- ------,235479,235454,235049,235034,235065,235518,,30,market
screen,html.Screen,1_1_1_1_31,2021-04-20T11:15:36.513Z,,,,,,,,,,,,,,,,54,,,,,,,,,,,,,,326,,response,,,,100,,,,,,,Space,keypress(Space),,,,,,,,-- --- ---- --- ------ ----- ------- ---- -- --- ------- --<br>------- ---------- ------ -- ----- -- ----- -- ---- ------<br>--- ----- --- --- ------ -------- ----- --- ------ value --<br>----- ----- ---------- --- --- ------ ------ ---- -- ------<br>------- --- ------ ----- --- ---- ------- -- ---- --- --<br>------- ------,235853,235828,235502,235479,235518,235888,,31,value
screen,html.Screen,1_1_1_1_32,2021-04-20T11:15:36.924Z,,,,,,,,,,,,,,,,54,,,,,,,,,,,,,,368,,response,,,,100,,,,,,,Space,keypress(Space),,,,,,,,-- --- ---- --- ------ ----- ------- ---- -- --- ------- --<br>------- ---------- ------ -- ----- -- ----- -- ---- ------<br>--- ----- --- --- ------ -------- ----- --- ------ ----- of<br>----- ----- ---------- --- --- ------ ------ ---- -- ------<br>------- --- ------ ----- --- ---- ------- -- ---- --- --<br>------- ------,236264,236239,235871,235853,235888,236307,,32,of
screen,html.Screen,1_1_1_1_33,2021-04-20T11:15:37.350Z,,,,,,,,,,,,,,,,54,,,,,,,,,,,,,,374,,response,,,,100,,,,,,,Space,keypress(Space),,,,,,,,-- --- ---- --- ------ ----- ------- ---- -- --- ------- --<br>------- ---------- ------ -- ----- -- ----- -- ---- ------<br>--- ----- --- --- ------ -------- ----- --- ------ ----- --<br>these ----- ---------- --- --- ------ ------ ---- -- ------<br>------- --- ------ ----- --- ---- ------- -- ---- --- --<br>------- ------,236690,236665,236291,236264,236307,236726,,33,these
screen,html.Screen,1_1_1_1_34,2021-04-20T11:15:37.827Z,,,,,,,,,,,,,,,,54,,,,,,,,,,,,,,433,,response,,,,100,,,,,,,Space,keypress(Space),,,,,,,,-- --- ---- --- ------ ----- ------- ---- -- --- ------- --<br>------- ---------- ------ -- ----- -- ----- -- ---- ------<br>--- ----- --- --- ------ -------- ----- --- ------ ----- --<br>----- bonds ---------- --- --- ------ ------ ---- -- ------<br>------- --- ------ ----- --- ---- ------- -- ---- --- --<br>------- ------,237167,237142,236709,236690,236726,237196,,34,bonds
screen,html.Screen,1_1_1_1_35,2021-04-20T11:15:38.357Z,,,,,,,,,,,,,,,,54,,,,,,,,,,,,,,492,,response,,,,100,,,,,,,Space,keypress(Space),,,,,,,,"-- --- ---- --- ------ ----- ------- ---- -- --- ------- --<br>------- ---------- ------ -- ----- -- ----- -- ---- ------<br>--- ----- --- --- ------ -------- ----- --- ------ ----- --<br>----- ----- plummeted, --- --- ------ ------ ---- -- ------<br>------- --- ------ ----- --- ---- ------- -- ---- --- --<br>------- ------",237697,237671,237179,237167,237196,237732,,35,"plummeted,"
screen,html.Screen,1_1_1_1_36,2021-04-20T11:15:38.764Z,,,,,,,,,,,,,,,,54,,,,,,,,,,,,,,364,,response,,,,100,,,,,,,Space,keypress(Space),,,,,,,,-- --- ---- --- ------ ----- ------- ---- -- --- ------- --<br>------- ---------- ------ -- ----- -- ----- -- ---- ------<br>--- ----- --- --- ------ -------- ----- --- ------ ----- --<br>----- ----- ---------- and --- ------ ------ ---- -- ------<br>------- --- ------ ----- --- ---- ------- -- ---- --- --<br>------- ------,238104,238079,237715,237697,237732,238134,,36,and
screen,html.Screen,1_1_1_1_37,2021-04-20T11:15:39.172Z,,,,,,,,,,,,,,,,54,,,,,,,,,,,,,,369,,response,,,,100,,,,,,,Space,keypress(Space),,,,,,,,-- --- ---- --- ------ ----- ------- ---- -- --- ------- --<br>------- ---------- ------ -- ----- -- ----- -- ---- ------<br>--- ----- --- --- ------ -------- ----- --- ------ ----- --<br>----- ----- ---------- --- the ------ ------ ---- -- ------<br>------- --- ------ ----- --- ---- ------- -- ---- --- --<br>------- ------,238512,238487,238118,238104,238134,238553,,37,the
screen,html.Screen,1_1_1_1_38,2021-04-20T11:15:39.901Z,,,,,,,,,,,,,,,,54,,,,,,,,,,,,,,678,,response,,,,100,,,,,,,Space,keypress(Space),,,,,,,,-- --- ---- --- ------ ----- ------- ---- -- --- ------- --<br>------- ---------- ------ -- ----- -- ----- -- ---- ------<br>--- ----- --- --- ------ -------- ----- --- ------ ----- --<br>----- ----- ---------- --- --- market ------ ---- -- ------<br>------- --- ------ ----- --- ---- ------- -- ---- --- --<br>------- ------,239241,239215,238537,238512,238553,239273,,38,market
screen,html.Screen,1_1_1_1_39,2021-04-20T11:15:40.335Z,,,,,,,,,,,,,,,,54,,,,,,,,,,,,,,393,,response,,,,100,,,,,,,Space,keypress(Space),,,,,,,,-- --- ---- --- ------ ----- ------- ---- -- --- ------- --<br>------- ---------- ------ -- ----- -- ----- -- ---- ------<br>--- ----- --- --- ------ -------- ----- --- ------ ----- --<br>----- ----- ---------- --- --- ------ became ---- -- ------<br>------- --- ------ ----- --- ---- ------- -- ---- --- --<br>------- ------,239675,239650,239257,239241,239273,239710,,39,became
screen,html.Screen,1_1_1_1_40,2021-04-20T11:15:40.747Z,,,,,,,,,,,,,,,,54,,,,,,,,,,,,,,368,,response,,,,100,,,,,,,Space,keypress(Space),,,,,,,,-- --- ---- --- ------ ----- ------- ---- -- --- ------- --<br>------- ---------- ------ -- ----- -- ----- -- ---- ------<br>--- ----- --- --- ------ -------- ----- --- ------ ----- --<br>----- ----- ---------- --- --- ------ ------ wary -- ------<br>------- --- ------ ----- --- ---- ------- -- ---- --- --<br>------- ------,240087.00000000003,240061,239693,239675,239710,240129,,40,wary
screen,html.Screen,1_1_1_1_41,2021-04-20T11:15:41.292Z,,,,,,,,,,,,,,,,54,,,,,,,,,,,,,,493,,response,,,,100,,,,,,,Space,keypress(Space),,,,,,,,-- --- ---- --- ------ ----- ------- ---- -- --- ------- --<br>------- ---------- ------ -- ----- -- ----- -- ---- ------<br>--- ----- --- --- ------ -------- ----- --- ------ ----- --<br>----- ----- ---------- --- --- ------ ------ ---- of ------<br>------- --- ------ ----- --- ---- ------- -- ---- --- --<br>------- ------,240631,240606,240113,240087.00000000003,240129,240665,,41,of
screen,html.Screen,1_1_1_1_42,2021-04-20T11:15:41.715Z,,,,,,,,,,,,,,,,54,,,,,,,,,,,,,,381,,response,,,,100,,,,,,,Space,keypress(Space),,,,,,,,-- --- ---- --- ------ ----- ------- ---- -- --- ------- --<br>------- ---------- ------ -- ----- -- ----- -- ---- ------<br>--- ----- --- --- ------ -------- ----- --- ------ ----- --<br>----- ----- ---------- --- --- ------ ------ ---- -- French<br>------- --- ------ ----- --- ---- ------- -- ---- --- --<br>------- ------,241055,241030,240649,240632,240665,241084,,42,French
screen,html.Screen,1_1_1_1_43,2021-04-20T11:15:42.204Z,,,,,,,,,,,,,,,,54,,,,,,,,,,,,,,451,,response,,,,100,,,,,,,Space,keypress(Space),,,,,,,,-- --- ---- --- ------ ----- ------- ---- -- --- ------- --<br>------- ---------- ------ -- ----- -- ----- -- ---- ------<br>--- ----- --- --- ------ -------- ----- --- ------ ----- --<br>----- ----- ---------- --- --- ------ ------ ---- -- ------<br>credit. --- ------ ----- --- ---- ------- -- ---- --- --<br>------- ------,241544,241519,241068,241055,241084,241587,,43,credit.
screen,html.Screen,1_1_1_1_44,2021-04-20T11:15:42.784Z,,,,,,,,,,,,,,,,54,,,,,,,,,,,,,,528.0000000000291,,response,,,,100,,,,,,,Space,keypress(Space),,,,,,,,-- --- ---- --- ------ ----- ------- ---- -- --- ------- --<br>------- ---------- ------ -- ----- -- ----- -- ---- ------<br>--- ----- --- --- ------ -------- ----- --- ------ ----- --<br>----- ----- ---------- --- --- ------ ------ ---- -- ------<br>------- The ------ ----- --- ---- ------- -- ---- --- --<br>------- ------,242124,242099.00000000003,241571,241544,241587,242156,,44,The
screen,html.Screen,1_1_1_1_45,2021-04-20T11:15:43.230Z,,,,,,,,,,,,,,,,54,,,,,,,,,,,,,,404,,response,,,,100,,,,,,,Space,keypress(Space),,,,,,,,-- --- ---- --- ------ ----- ------- ---- -- --- ------- --<br>------- ---------- ------ -- ----- -- ----- -- ---- ------<br>--- ----- --- --- ------ -------- ----- --- ------ ----- --<br>----- ----- ---------- --- --- ------ ------ ---- -- ------<br>------- --- French ----- --- ---- ------- -- ---- --- --<br>------- ------,242569.00000000003,242544,242140,242124,242156,242609,,45,French
screen,html.Screen,1_1_1_1_46,2021-04-20T11:15:43.756Z,,,,,,,,,,,,,,,,54,,,,,,,,,,,,,,478,,response,,,,100,,,,,,,Space,keypress(Space),,,,,,,,-- --- ---- --- ------ ----- ------- ---- -- --- ------- --<br>------- ---------- ------ -- ----- -- ----- -- ---- ------<br>--- ----- --- --- ------ -------- ----- --- ------ ----- --<br>----- ----- ---------- --- --- ------ ------ ---- -- ------<br>------- --- ------ state --- ---- ------- -- ---- --- --<br>------- ------,243096,243071,242593,242569.00000000003,242609,243129,,46,state
screen,html.Screen,1_1_1_1_47,2021-04-20T11:15:44.236Z,,,,,,,,,,,,,,,,54,,,,,,,,,,,,,,439.0000000000291,,response,,,,100,,,,,,,Space,keypress(Space),,,,,,,,-- --- ---- --- ------ ----- ------- ---- -- --- ------- --<br>------- ---------- ------ -- ----- -- ----- -- ---- ------<br>--- ----- --- --- ------ -------- ----- --- ------ ----- --<br>----- ----- ---------- --- --- ------ ------ ---- -- ------<br>------- --- ------ ----- was ---- ------- -- ---- --- --<br>------- ------,243576,243551.00000000003,243112,243096,243129,243615,,47,was
screen,html.Screen,1_1_1_1_48,2021-04-20T11:15:44.659Z,,,,,,,,,,,,,,,,54,,,,,,,,,,,,,,376.0000000000291,,response,,,,100,,,,,,,Space,keypress(Space),,,,,,,,-- --- ---- --- ------ ----- ------- ---- -- --- ------- --<br>------- ---------- ------ -- ----- -- ----- -- ---- ------<br>--- ----- --- --- ------ -------- ----- --- ------ ----- --<br>----- ----- ---------- --- --- ------ ------ ---- -- ------<br>------- --- ------ ----- --- left ------- -- ---- --- --<br>------- ------,243999,243974.00000000003,243598,243576,243615,244034,,48,left
screen,html.Screen,1_1_1_1_49,2021-04-20T11:15:45.105Z,,,,,,,,,,,,,,,,54,,,,,,,,,,,,,,402,,response,,,,100,,,,,,,Space,keypress(Space),,,,,,,,-- --- ---- --- ------ ----- ------- ---- -- --- ------- --<br>------- ---------- ------ -- ----- -- ----- -- ---- ------<br>--- ----- --- --- ------ -------- ----- --- ------ ----- --<br>----- ----- ---------- --- --- ------ ------ ---- -- ------<br>------- --- ------ ----- --- ---- without -- ---- --- --<br>------- ------,244444.00000000003,244419,244017,243999,244034,244486,,49,without
screen,html.Screen,1_1_1_1_50,2021-04-20T11:15:45.532Z,,,,,,,,,,,,,,,,54,,,,,,,,,,,,,,376,,response,,,,100,,,,,,,Space,keypress(Space),,,,,,,,-- --- ---- --- ------ ----- ------- ---- -- --- ------- --<br>------- ---------- ------ -- ----- -- ----- -- ---- ------<br>--- ----- --- --- ------ -------- ----- --- ------ ----- --<br>----- ----- ---------- --- --- ------ ------ ---- -- ------<br>------- --- ------ ----- --- ---- ------- an ---- --- --<br>------- ------,244872,244847,244471,244445,244486,244906,,50,an
screen,html.Screen,1_1_1_1_51,2021-04-20T11:15:46.083Z,,,,,,,,,,,,,,,,54,,,,,,,,,,,,,,509,,response,,,,100,,,,,,,Space,keypress(Space),,,,,,,,-- --- ---- --- ------ ----- ------- ---- -- --- ------- --<br>------- ---------- ------ -- ----- -- ----- -- ---- ------<br>--- ----- --- --- ------ -------- ----- --- ------ ----- --<br>----- ----- ---------- --- --- ------ ------ ---- -- ------<br>------- --- ------ ----- --- ---- ------- -- easy --- --<br>------- ------,245423,245398,244889,244872,244906,245459,,51,easy
screen,html.Screen,1_1_1_1_52,2021-04-20T11:15:46.513Z,,,,,,,,,,,,,,,,54,,,,,,,,,,,,,,385,,response,,,,100,,,,,,,Space,keypress(Space),,,,,,,,-- --- ---- --- ------ ----- ------- ---- -- --- ------- --<br>------- ---------- ------ -- ----- -- ----- -- ---- ------<br>--- ----- --- --- ------ -------- ----- --- ------ ----- --<br>----- ----- ---------- --- --- ------ ------ ---- -- ------<br>------- --- ------ ----- --- ---- ------- -- ---- way --<br>------- ------,245852,245828,245443,245423,245459,245894,,52,way
screen,html.Screen,1_1_1_1_53,2021-04-20T11:15:47.147Z,,,,,,,,,,,,,,,,54,,,,,,,,,,,,,,583.0000000000291,,response,,,,100,,,,,,,Space,keypress(Space),,,,,,,,-- --- ---- --- ------ ----- ------- ---- -- --- ------- --<br>------- ---------- ------ -- ----- -- ----- -- ---- ------<br>--- ----- --- --- ------ -------- ----- --- ------ ----- --<br>----- ----- ---------- --- --- ------ ------ ---- -- ------<br>------- --- ------ ----- --- ---- ------- -- ---- --- of<br>------- ------,246487,246462.00000000003,245879,245853,245894,246514,,53,of
screen,html.Screen,1_1_1_1_54,2021-04-20T11:15:47.579Z,,,,,,,,,,,,,,,,54,,,,,,,,,,,,,,396,,response,,,,100,,,,,,,Space,keypress(Space),,,,,,,,-- --- ---- --- ------ ----- ------- ---- -- --- ------- --<br>------- ---------- ------ -- ----- -- ----- -- ---- ------<br>--- ----- --- --- ------ -------- ----- --- ------ ----- --<br>----- ----- ---------- --- --- ------ ------ ---- -- ------<br>------- --- ------ ----- --- ---- ------- -- ---- --- --<br>raising ------,246919,246894,246498,246487,246514,246951,,54,raising
screen,html.Screen,1_1_1_1_55,2021-04-20T11:15:48.001Z,,,,,,,,,,,,,,,,54,,,,,,,,,,,,,,382,,response,,,,100,,,,,,,Space,keypress(Space),,,,,,,,-- --- ---- --- ------ ----- ------- ---- -- --- ------- --<br>------- ---------- ------ -- ----- -- ----- -- ---- ------<br>--- ----- --- --- ------ -------- ----- --- ------ ----- --<br>----- ----- ---------- --- --- ------ ------ ---- -- ------<br>------- --- ------ ----- --- ---- ------- -- ---- --- --<br>------- money.,247341,247316,246934,246919,246951,247370,,55,money.
Item 100,flow.Loop,1_1_1_1,2021-04-20T11:15:48.001Z,,,,,,,,,,,,,,,,,,,,,,,,,,,,,,27675,,completion,,,,,E,,,,,,,,,,,silence,,,,,247341,247316,219625,219625,219641,247370,,,
Question 1,html.Screen,1_1_1_2,2021-04-20T11:15:51.827Z,,,,,,,,,,,,,,,,,,,,,,,,,,,true,TRUE,,3789,,response,,,,100,E,,,,,,TRUE,click #choice-1,,,,silence,,,,,251167,251142,247353,247341,247370,251200,,,
Question 2,html.Screen,1_1_1_3,2021-04-20T11:15:54.660Z,,,,,,,,,,,,,,,,,,,,,,,,,,,true,FALSE,,2793,,response,,,,100,E,,,,,,FALSE,click #choice-2,,,,silence,,,,,253999,253975,251182,251167,251200,254022,,,
Item 100,flow.Sequence,1_1_1,2021-04-20T11:15:54.660Z,,,,,,,,,,,,,,,,,,,,,,,,,,,,,,44334,,completion,,,,,,,,,,,,,,,,,,,,,253999,253975,209614,209605.00000000003,209641,254022,,,
End of Practice,html.Page,1_1_2,2021-04-20T11:15:59.915Z,,,,,,,,,,,,,,,,,,,,,,,,,,,,,,5232.000000000029,,form submission,,,,,,,,,,,,,,,,,,,,,259254.00000000003,259254.00000000003,254006,254000,254022,259278,,,
Practice,flow.Sequence,1_1,2021-04-20T11:15:59.915Z,,,,,,,,,,,,,,,,,,,,,,,,,,,,,,101874.00000000003,,completion,,,,,,,,,,,,,,,,,,,,,259254.00000000003,259254.00000000003,157366,157362,157380,259278,,,
Trap_instruction,html.Page,1_2_0,2021-04-20T11:16:06.251Z,,,,,,,,,,,,,,,,,,,,,,,,,,,,,,6312.000000000058,,form submission,,,,,,,,,,,,,,,,,,,,,265590.00000000006,265590.00000000006,259261,259255,259278,265611,,,
trap_trial,html.Screen,1_2_1,2021-04-20T11:16:09.907Z,,,,,,,,,,,,,,,,,,,,,,,,,,,true,1,,3619,,response,,,,,,,,,,,1,click #choice-1,,,,,,,,,269246,269223,265604,265590.00000000006,265611,269292,,,
end of trap trial,html.Page,1_2_2,2021-04-20T11:16:11.878Z,,,,,,,,,,,,,,,,,,,,,,,,,,,,,,1925,,form submission,,,,,,,,,,,,,,,,,,,,,271217,271217,269287,269247,269292,271239,,,
Trap 1,flow.Sequence,1_2,2021-04-20T11:16:11.878Z,,,,,,,,,,,,,,,,,,,,,,,,,,,,,,11939,,completion,,,,,,,,,,,,,,,,,,,,,271218,271217,259261,259255,259278,271239,,,
Standby,html.Page,1_3_0,2021-04-20T11:16:19.889Z,,,,,,,,,,,,,,,,,,,,,,,,,,,,,,8005,,timeout,,,,,,,,,,,,,,,,,,,,,279228,279227,271223,271218,271239,279244,,,
Holding screen,html.Screen,1_3_1_0_0,2021-04-20T11:16:26.881Z,,,,,,,,,,,,,,,,,,,,,,,,,,,,,,6992,,timeout,,,,,,,,,,,,,,,,,,,,,286220,286220,279227,279228,279244,286236,,,
screen,html.Screen,1_3_1_0_1_0,2021-04-20T11:16:27.757Z,,,,,,,,,,,,,,,,48,,,,,,,,,,,,,,849,,response,,,,10,E,,,,,,Space,keypress(Space),,,,lyrical,,,,As -- --- ------ ------- --------- ----------- --------<br>--------- -------- --- ------- -- ------- ---- -- ------<br>-- --- -------- -------- ---------- ---- ---- ---- ------<br>-- --------- -- ---- -- --- -- --- ------- -- - -----<br>---------- -- -- -- ---- ----- -- ------ -- --- ------<br>-------,287096,287069,286220,286221,286236,287123,,0,As
screen,html.Screen,1_3_1_0_1_1,2021-04-20T11:16:28.212Z,,,,,,,,,,,,,,,,48,,,,,,,,,,,,,,417,,response,,,,10,E,,,,,,Space,keypress(Space),,,,lyrical,,,,-- in --- ------ ------- --------- ----------- --------<br>--------- -------- --- ------- -- ------- ---- -- ------<br>-- --- -------- -------- ---------- ---- ---- ---- ------<br>-- --------- -- ---- -- --- -- --- ------- -- - -----<br>---------- -- -- -- ---- ----- -- ------ -- --- ------<br>-------,287551,287524,287107,287096,287123,287591,,1,in
screen,html.Screen,1_3_1_0_1_2,2021-04-20T11:16:28.637Z,,,,,,,,,,,,,,,,48,,,,,,,,,,,,,,374,,response,,,,10,E,,,,,,Space,keypress(Space),,,,lyrical,,,,-- -- the ------ ------- --------- ----------- --------<br>--------- -------- --- ------- -- ------- ---- -- ------<br>-- --- -------- -------- ---------- ---- ---- ---- ------<br>-- --------- -- ---- -- --- -- --- ------- -- - -----<br>---------- -- -- -- ---- ----- -- ------ -- --- ------<br>-------,287976,287950,287576,287551,287591,288013,,2,the
screen,html.Screen,1_3_1_0_1_3,2021-04-20T11:16:29.271Z,,,,,,,,,,,,,,,,48,,,,,,,,,,,,,,587,,response,,,,10,E,,,,,,Space,keypress(Space),,,,lyrical,,,,-- -- --- United ------- --------- ----------- --------<br>--------- -------- --- ------- -- ------- ---- -- ------<br>-- --- -------- -------- ---------- ---- ---- ---- ------<br>-- --------- -- ---- -- --- -- --- ------- -- - -----<br>---------- -- -- -- ---- ----- -- ------ -- --- ------<br>-------,288610,288583,287996,287977.00000000006,288013,288649,,3,United
screen,html.Screen,1_3_1_0_1_4,2021-04-20T11:16:29.840Z,,,,,,,,,,,,,,,,48,,,,,,,,,,,,,,521,,response,,,,10,E,,,,,,Space,keypress(Space),,,,lyrical,,,,"-- -- --- ------ States, --------- ----------- --------<br>--------- -------- --- ------- -- ------- ---- -- ------<br>-- --- -------- -------- ---------- ---- ---- ---- ------<br>-- --------- -- ---- -- --- -- --- ------- -- - -----<br>---------- -- -- -- ---- ----- -- ------ -- --- ------<br>-------",289179.00000000006,289153,288632,288610,288649,289219,,4,"States,"
screen,html.Screen,1_3_1_0_1_5,2021-04-20T11:16:30.339Z,,,,,,,,,,,,,,,,48,,,,,,,,,,,,,,448,,response,,,,10,E,,,,,,Space,keypress(Space),,,,lyrical,,,,-- -- --- ------ ------- Colombian ----------- --------<br>--------- -------- --- ------- -- ------- ---- -- ------<br>-- --- -------- -------- ---------- ---- ---- ---- ------<br>-- --------- -- ---- -- --- -- --- ------- -- - -----<br>---------- -- -- -- ---- ----- -- ------ -- --- ------<br>-------,289678,289651,289203,289179.00000000006,289219,289705,,5,Colombian
screen,html.Screen,1_3_1_0_1_6,2021-04-20T11:16:30.889Z,,,,,,,,,,,,,,,,48,,,,,,,,,,,,,,512,,response,,,,10,E,,,,,,Space,keypress(Space),,,,lyrical,,,,-- -- --- ------ ------- --------- legislation --------<br>--------- -------- --- ------- -- ------- ---- -- ------<br>-- --- -------- -------- ---------- ---- ---- ---- ------<br>-- --------- -- ---- -- --- -- --- ------- -- - -----<br>---------- -- -- -- ---- ----- -- ------ -- --- ------<br>-------,290228,290201,289689,289678,289705,290259,,6,legislation
screen,html.Screen,1_3_1_0_1_7,2021-04-20T11:16:31.358Z,,,,,,,,,,,,,,,,48,,,,,,,,,,,,,,428,,response,,,,10,E,,,,,,Space,keypress(Space),,,,lyrical,,,,-- -- --- ------ ------- --------- ----------- requires<br>--------- -------- --- ------- -- ------- ---- -- ------<br>-- --- -------- -------- ---------- ---- ---- ---- ------<br>-- --------- -- ---- -- --- -- --- ------- -- - -----<br>---------- -- -- -- ---- ----- -- ------ -- --- ------<br>-------,290696,290670,290242,290228,290259,290729,,7,requires
screen,html.Screen,1_3_1_0_1_8,2021-04-20T11:16:31.826Z,,,,,,,,,,,,,,,,48,,,,,,,,,,,,,,426.0000000000582,,response,,,,10,E,,,,,,Space,keypress(Space),,,,lyrical,,,,-- -- --- ------ ------- --------- ----------- --------<br>travelers -------- --- ------- -- ------- ---- -- ------<br>-- --- -------- -------- ---------- ---- ---- ---- ------<br>-- --------- -- ---- -- --- -- --- ------- -- - -----<br>---------- -- -- -- ---- ----- -- ------ -- --- ------<br>-------,291165,291138.00000000006,290712,290697,290729,291199,,8,travelers
screen,html.Screen,1_3_1_0_1_9,2021-04-20T11:16:32.443Z,,,,,,,,,,,,,,,,48,,,,,,,,,,,,,,573,,response,,,,10,E,,,,,,Space,keypress(Space),,,,lyrical,,,,-- -- --- ------ ------- --------- ----------- --------<br>--------- entering --- ------- -- ------- ---- -- ------<br>-- --- -------- -------- ---------- ---- ---- ---- ------<br>-- --------- -- ---- -- --- -- --- ------- -- - -----<br>---------- -- -- -- ---- ----- -- ------ -- --- ------<br>-------,291782,291755,291182,291165,291199,291817,,9,entering
screen,html.Screen,1_3_1_0_1_10,2021-04-20T11:16:32.814Z,,,,,,,,,,,,,,,,48,,,,,,,,,,,,,,326,,response,,,,10,E,,,,,,Space,keypress(Space),,,,lyrical,,,,-- -- --- ------ ------- --------- ----------- --------<br>--------- -------- the ------- -- ------- ---- -- ------<br>-- --- -------- -------- ---------- ---- ---- ---- ------<br>-- --------- -- ---- -- --- -- --- ------- -- - -----<br>---------- -- -- -- ---- ----- -- ------ -- --- ------<br>-------,292153,292127,291801,291782,291817,292187,,10,the
screen,html.Screen,1_3_1_0_1_11,2021-04-20T11:16:33.186Z,,,,,,,,,,,,,,,,48,,,,,,,,,,,,,,327,,response,,,,10,E,,,,,,Space,keypress(Space),,,,lyrical,,,,-- -- --- ------ ------- --------- ----------- --------<br>--------- -------- --- country -- ------- ---- -- ------<br>-- --- -------- -------- ---------- ---- ---- ---- ------<br>-- --------- -- ---- -- --- -- --- ------- -- - -----<br>---------- -- -- -- ---- ----- -- ------ -- --- ------<br>-------,292525.00000000006,292498,292171,292153,292187,292558,,11,country
screen,html.Screen,1_3_1_0_1_12,2021-04-20T11:16:33.559Z,,,,,,,,,,,,,,,,48,,,,,,,,,,,,,,331,,response,,,,10,E,,,,,,Space,keypress(Space),,,,lyrical,,,,-- -- --- ------ ------- --------- ----------- --------<br>--------- -------- --- ------- to ------- ---- -- ------<br>-- --- -------- -------- ---------- ---- ---- ---- ------<br>-- --------- -- ---- -- --- -- --- ------- -- - -----<br>---------- -- -- -- ---- ----- -- ------ -- --- ------<br>-------,292898,292871,292540,292525.00000000006,292558,292927,,12,to
screen,html.Screen,1_3_1_0_1_13,2021-04-20T11:16:33.969Z,,,,,,,,,,,,,,,,48,,,,,,,,,,,,,,371,,response,,,,10,E,,,,,,Space,keypress(Space),,,,lyrical,,,,-- -- --- ------ ------- --------- ----------- --------<br>--------- -------- --- ------- -- declare ---- -- ------<br>-- --- -------- -------- ---------- ---- ---- ---- ------<br>-- --------- -- ---- -- --- -- --- ------- -- - -----<br>---------- -- -- -- ---- ----- -- ------ -- --- ------<br>-------,293307,293281,292910,292898,292927,293345,,13,declare
screen,html.Screen,1_3_1_0_1_14,2021-04-20T11:16:34.344Z,,,,,,,,,,,,,,,,48,,,,,,,,,,,,,,328,,response,,,,10,E,,,,,,Space,keypress(Space),,,,lyrical,,,,-- -- --- ------ ------- --------- ----------- --------<br>--------- -------- --- ------- -- ------- cash -- ------<br>-- --- -------- -------- ---------- ---- ---- ---- ------<br>-- --------- -- ---- -- --- -- --- ------- -- - -----<br>---------- -- -- -- ---- ----- -- ------ -- --- ------<br>-------,293683,293657,293329,293308,293345,293716,,14,cash
screen,html.Screen,1_3_1_0_1_15,2021-04-20T11:16:34.747Z,,,,,,,,,,,,,,,,48,,,,,,,,,,,,,,360,,response,,,,10,E,,,,,,Space,keypress(Space),,,,lyrical,,,,-- -- --- ------ ------- --------- ----------- --------<br>--------- -------- --- ------- -- ------- ---- in ------<br>-- --- -------- -------- ---------- ---- ---- ---- ------<br>-- --------- -- ---- -- --- -- --- ------- -- - -----<br>---------- -- -- -- ---- ----- -- ------ -- --- ------<br>-------,294086,294059,293699,293683,293716,294118,,15,in
screen,html.Screen,1_3_1_0_1_16,2021-04-20T11:16:35.153Z,,,,,,,,,,,,,,,,48,,,,,,,,,,,,,,363.0000000000582,,response,,,,10,E,,,,,,Space,keypress(Space),,,,lyrical,,,,-- -- --- ------ ------- --------- ----------- --------<br>--------- -------- --- ------- -- ------- ---- -- excess<br>-- --- -------- -------- ---------- ---- ---- ---- ------<br>-- --------- -- ---- -- --- -- --- ------- -- - -----<br>---------- -- -- -- ---- ----- -- ------ -- --- ------<br>-------,294492,294465.00000000006,294102,294086,294118,294521,,16,excess
screen,html.Screen,1_3_1_0_1_17,2021-04-20T11:16:35.664Z,,,,,,,,,,,,,,,,48,,,,,,,,,,,,,,472,,response,,,,10,E,,,,,,Space,keypress(Space),,,,lyrical,,,,-- -- --- ------ ------- --------- ----------- --------<br>--------- -------- --- ------- -- ------- ---- -- ------<br>of --- -------- -------- ---------- ---- ---- ---- ------<br>-- --------- -- ---- -- --- -- --- ------- -- - -----<br>---------- -- -- -- ---- ----- -- ------ -- --- ------<br>-------,295003,294976,294504,294492,294521,295040,,17,of
screen,html.Screen,1_3_1_0_1_18,2021-04-20T11:16:36.039Z,,,,,,,,,,,,,,,,48,,,,,,,,,,,,,,328,,response,,,,10,E,,,,,,Space,keypress(Space),,,,lyrical,,,,-- -- --- ------ ------- --------- ----------- --------<br>--------- -------- --- ------- -- ------- ---- -- ------<br>-- ten -------- -------- ---------- ---- ---- ---- ------<br>-- --------- -- ---- -- --- -- --- ------- -- - -----<br>---------- -- -- -- ---- ----- -- ------ -- --- ------<br>-------,295378,295351,295023,295003,295040,295409,,18,ten
screen,html.Screen,1_3_1_0_1_19,2021-04-20T11:16:36.478Z,,,,,,,,,,,,,,,,48,,,,,,,,,,,,,,397,,response,,,,10,E,,,,,,Space,keypress(Space),,,,lyrical,,,,-- -- --- ------ ------- --------- ----------- --------<br>--------- -------- --- ------- -- ------- ---- -- ------<br>-- --- thousand -------- ---------- ---- ---- ---- ------<br>-- --------- -- ---- -- --- -- --- ------- -- - -----<br>---------- -- -- -- ---- ----- -- ------ -- --- ------<br>-------,295816.00000000006,295790,295393,295378,295409,295846,,19,thousand
screen,html.Screen,1_3_1_0_1_20,2021-04-20T11:16:37.005Z,,,,,,,,,,,,,,,,48,,,,,,,,,,,,,,488,,response,,,,10,E,,,,,,Space,keypress(Space),,,,lyrical,,,,-- -- --- ------ ------- --------- ----------- --------<br>--------- -------- --- ------- -- ------- ---- -- ------<br>-- --- -------- dollars. ---------- ---- ---- ---- ------<br>-- --------- -- ---- -- --- -- --- ------- -- - -----<br>---------- -- -- -- ---- ----- -- ------ -- --- ------<br>-------,296344,296317,295829,295817,295846,296382,,20,dollars.
screen,html.Screen,1_3_1_0_1_21,2021-04-20T11:16:38.068Z,,,,,,,,,,,,,,,,48,,,,,,,,,,,,,,1015,,response,,,,10,E,,,,,,Space,keypress(Space),,,,lyrical,,,,-- -- --- ------ ------- --------- ----------- --------<br>--------- -------- --- ------- -- ------- ---- -- ------<br>-- --- -------- -------- Concealing ---- ---- ---- ------<br>-- --------- -- ---- -- --- -- --- ------- -- - -----<br>---------- -- -- -- ---- ----- -- ------ -- --- ------<br>-------,297407,297380,296365,296344,296382,297434,,21,Concealing
screen,html.Screen,1_3_1_0_1_22,2021-04-20T11:16:38.672Z,,,,,,,,,,,,,,,,48,,,,,,,,,,,,,,566,,response,,,,10,E,,,,,,Space,keypress(Space),,,,lyrical,,,,-- -- --- ------ ------- --------- ----------- --------<br>--------- -------- --- ------- -- ------- ---- -- ------<br>-- --- -------- -------- ---------- more ---- ---- ------<br>-- --------- -- ---- -- --- -- --- ------- -- - -----<br>---------- -- -- -- ---- ----- -- ------ -- --- ------<br>-------,298011,297984,297418,297407,297434,298053,,22,more
screen,html.Screen,1_3_1_0_1_23,2021-04-20T11:16:39.125Z,,,,,,,,,,,,,,,,48,,,,,,,,,,,,,,400,,response,,,,10,E,,,,,,Space,keypress(Space),,,,lyrical,,,,-- -- --- ------ ------- --------- ----------- --------<br>--------- -------- --- ------- -- ------- ---- -- ------<br>-- --- -------- -------- ---------- ---- than ---- ------<br>-- --------- -- ---- -- --- -- --- ------- -- - -----<br>---------- -- -- -- ---- ----- -- ------ -- --- ------<br>-------,298464,298438,298038,298011,298053,298507,,23,than
screen,html.Screen,1_3_1_0_1_24,2021-04-20T11:16:39.547Z,,,,,,,,,,,,,,,,48,,,,,,,,,,,,,,368,,response,,,,10,E,,,,,,Space,keypress(Space),,,,lyrical,,,,-- -- --- ------ ------- --------- ----------- --------<br>--------- -------- --- ------- -- ------- ---- -- ------<br>-- --- -------- -------- ---------- ---- ---- that ------<br>-- --------- -- ---- -- --- -- --- ------- -- - -----<br>---------- -- -- -- ---- ----- -- ------ -- --- ------<br>-------,298886,298859,298491,298464,298507,298927,,24,that
screen,html.Screen,1_3_1_0_1_25,2021-04-20T11:16:40.038Z,,,,,,,,,,,,,,,,48,,,,,,,,,,,,,,439,,response,,,,10,E,,,,,,Space,keypress(Space),,,,lyrical,,,,-- -- --- ------ ------- --------- ----------- --------<br>--------- -------- --- ------- -- ------- ---- -- ------<br>-- --- -------- -------- ---------- ---- ---- ---- amount<br>-- --------- -- ---- -- --- -- --- ------- -- - -----<br>---------- -- -- -- ---- ----- -- ------ -- --- ------<br>-------,299376.00000000006,299350,298911,298886,298927,299413,,25,amount
screen,html.Screen,1_3_1_0_1_26,2021-04-20T11:16:40.544Z,,,,,,,,,,,,,,,,48,,,,,,,,,,,,,,460,,response,,,,10,E,,,,,,Space,keypress(Space),,,,lyrical,,,,-- -- --- ------ ------- --------- ----------- --------<br>--------- -------- --- ------- -- ------- ---- -- ------<br>-- --- -------- -------- ---------- ---- ---- ---- ------<br>to --------- -- ---- -- --- -- --- ------- -- - -----<br>---------- -- -- -- ---- ----- -- ------ -- --- ------<br>-------,299882,299856,299396,299377,299413,299916,,26,to
screen,html.Screen,1_3_1_0_1_27,2021-04-20T11:16:40.978Z,,,,,,,,,,,,,,,,48,,,,,,,,,,,,,,392,,response,,,,10,E,,,,,,Space,keypress(Space),,,,lyrical,,,,-- -- --- ------ ------- --------- ----------- --------<br>--------- -------- --- ------- -- ------- ---- -- ------<br>-- --- -------- -------- ---------- ---- ---- ---- ------<br>-- transport -- ---- -- --- -- --- ------- -- - -----<br>---------- -- -- -- ---- ----- -- ------ -- --- ------<br>-------,300317,300291,299899,299883,299916,300352,,27,transport
screen,html.Screen,1_3_1_0_1_28,2021-04-20T11:16:41.480Z,,,,,,,,,,,,,,,,48,,,,,,,,,,,,,,457.0000000000582,,response,,,,10,E,,,,,,Space,keypress(Space),,,,lyrical,,,,-- -- --- ------ ------- --------- ----------- --------<br>--------- -------- --- ------- -- ------- ---- -- ------<br>-- --- -------- -------- ---------- ---- ---- ---- ------<br>-- --------- it ---- -- --- -- --- ------- -- - -----<br>---------- -- -- -- ---- ----- -- ------ -- --- ------<br>-------,300818,300792.00000000006,300335,300317,300352,300855,,28,it
screen,html.Screen,1_3_1_0_1_29,2021-04-20T11:16:41.923Z,,,,,,,,,,,,,,,,48,,,,,,,,,,,,,,396,,response,,,,10,E,,,,,,Space,keypress(Space),,,,lyrical,,,,-- -- --- ------ ------- --------- ----------- --------<br>--------- -------- --- ------- -- ------- ---- -- ------<br>-- --- -------- -------- ---------- ---- ---- ---- ------<br>-- --------- -- into -- --- -- --- ------- -- - -----<br>---------- -- -- -- ---- ----- -- ------ -- --- ------<br>-------,301262,301235,300839,300819,300855,301291,,29,into
screen,html.Screen,1_3_1_0_1_30,2021-04-20T11:16:42.384Z,,,,,,,,,,,,,,,,48,,,,,,,,,,,,,,421,,response,,,,10,E,,,,,,Space,keypress(Space),,,,lyrical,,,,-- -- --- ------ ------- --------- ----------- --------<br>--------- -------- --- ------- -- ------- ---- -- ------<br>-- --- -------- -------- ---------- ---- ---- ---- ------<br>-- --------- -- ---- or --- -- --- ------- -- - -----<br>---------- -- -- -- ---- ----- -- ------ -- --- ------<br>-------,301723,301696,301275,301262,301291,301761,,30,or
screen,html.Screen,1_3_1_0_1_31,2021-04-20T11:16:42.840Z,,,,,,,,,,,,,,,,48,,,,,,,,,,,,,,408,,response,,,,10,E,,,,,,Space,keypress(Space),,,,lyrical,,,,-- -- --- ------ ------- --------- ----------- --------<br>--------- -------- --- ------- -- ------- ---- -- ------<br>-- --- -------- -------- ---------- ---- ---- ---- ------<br>-- --------- -- ---- -- out -- --- ------- -- - -----<br>---------- -- -- -- ---- ----- -- ------ -- --- ------<br>-------,302179.00000000006,302152,301744,301723,301761,302213,,31,out
screen,html.Screen,1_3_1_0_1_32,2021-04-20T11:16:43.265Z,,,,,,,,,,,,,,,,48,,,,,,,,,,,,,,381,,response,,,,10,E,,,,,,Space,keypress(Space),,,,lyrical,,,,-- -- --- ------ ------- --------- ----------- --------<br>--------- -------- --- ------- -- ------- ---- -- ------<br>-- --- -------- -------- ---------- ---- ---- ---- ------<br>-- --------- -- ---- -- --- of --- ------- -- - -----<br>---------- -- -- -- ---- ----- -- ------ -- --- ------<br>-------,302604,302577,302196,302179.00000000006,302213,302633,,32,of
screen,html.Screen,1_3_1_0_1_33,2021-04-20T11:16:43.595Z,,,,,,,,,,,,,,,,48,,,,,,,,,,,,,,291,,response,,,,10,E,,,,,,Space,keypress(Space),,,,lyrical,,,,-- -- --- ------ ------- --------- ----------- --------<br>--------- -------- --- ------- -- ------- ---- -- ------<br>-- --- -------- -------- ---------- ---- ---- ---- ------<br>-- --------- -- ---- -- --- -- the ------- -- - -----<br>---------- -- -- -- ---- ----- -- ------ -- --- ------<br>-------,302934,302907,302616,302604,302633,302952,,33,the
screen,html.Screen,1_3_1_0_1_34,2021-04-20T11:16:43.911Z,,,,,,,,,,,,,,,,48,,,,,,,,,,,,,,288,,response,,,,10,E,,,,,,Space,keypress(Space),,,,lyrical,,,,-- -- --- ------ ------- --------- ----------- --------<br>--------- -------- --- ------- -- ------- ---- -- ------<br>-- --- -------- -------- ---------- ---- ---- ---- ------<br>-- --------- -- ---- -- --- -- --- country -- - -----<br>---------- -- -- -- ---- ----- -- ------ -- --- ------<br>-------,303250,303223,302935,302934,302952,303272,,34,country
screen,html.Screen,1_3_1_0_1_35,2021-04-20T11:16:44.264Z,,,,,,,,,,,,,,,,48,,,,,,,,,,,,,,320,,response,,,,10,E,,,,,,Space,keypress(Space),,,,lyrical,,,,-- -- --- ------ ------- --------- ----------- --------<br>--------- -------- --- ------- -- ------- ---- -- ------<br>-- --- -------- -------- ---------- ---- ---- ---- ------<br>-- --------- -- ---- -- --- -- --- ------- is - -----<br>---------- -- -- -- ---- ----- -- ------ -- --- ------<br>-------,303602.00000000006,303575,303255,303250,303272,303624,,35,is
screen,html.Screen,1_3_1_0_1_36,2021-04-20T11:16:44.595Z,,,,,,,,,,,,,,,,48,,,,,,,,,,,,,,299,,response,,,,10,E,,,,,,Space,keypress(Space),,,,lyrical,,,,-- -- --- ------ ------- --------- ----------- --------<br>--------- -------- --- ------- -- ------- ---- -- ------<br>-- --- -------- -------- ---------- ---- ---- ---- ------<br>-- --------- -- ---- -- --- -- --- ------- -- a -----<br>---------- -- -- -- ---- ----- -- ------ -- --- ------<br>-------,303934,303907,303608,303602.00000000006,303624,303961,,36,a
screen,html.Screen,1_3_1_0_1_37,2021-04-20T11:16:45.047Z,,,,,,,,,,,,,,,,48,,,,,,,,,,,,,,416,,response,,,,10,E,,,,,,Space,keypress(Space),,,,lyrical,,,,-- -- --- ------ ------- --------- ----------- --------<br>--------- -------- --- ------- -- ------- ---- -- ------<br>-- --- -------- -------- ---------- ---- ---- ---- ------<br>-- --------- -- ---- -- --- -- --- ------- -- - crime<br>---------- -- -- -- ---- ----- -- ------ -- --- ------<br>-------,304385,304359,303943,303934,303961,304412,,37,crime
screen,html.Screen,1_3_1_0_1_38,2021-04-20T11:16:45.696Z,,,,,,,,,,,,,,,,48,,,,,,,,,,,,,,611,,response,,,,10,E,,,,,,Space,keypress(Space),,,,lyrical,,,,-- -- --- ------ ------- --------- ----------- --------<br>--------- -------- --- ------- -- ------- ---- -- ------<br>-- --- -------- -------- ---------- ---- ---- ---- ------<br>-- --------- -- ---- -- --- -- --- ------- -- - -----<br>punishable -- -- -- ---- ----- -- ------ -- --- ------<br>-------,305034,305007,304396,304386,304412,305065,,38,punishable
screen,html.Screen,1_3_1_0_1_39,2021-04-20T11:16:46.064Z,,,,,,,,,,,,,,,,48,,,,,,,,,,,,,,326,,response,,,,10,E,,,,,,Space,keypress(Space),,,,lyrical,,,,-- -- --- ------ ------- --------- ----------- --------<br>--------- -------- --- ------- -- ------- ---- -- ------<br>-- --- -------- -------- ---------- ---- ---- ---- ------<br>-- --------- -- ---- -- --- -- --- ------- -- - -----<br>---------- by -- -- ---- ----- -- ------ -- --- ------<br>-------,305402,305375,305049,305034,305065,305436,,39,by
screen,html.Screen,1_3_1_0_1_40,2021-04-20T11:16:46.462Z,,,,,,,,,,,,,,,,48,,,,,,,,,,,,,,354,,response,,,,10,E,,,,,,Space,keypress(Space),,,,lyrical,,,,-- -- --- ------ ------- --------- ----------- --------<br>--------- -------- --- ------- -- ------- ---- -- ------<br>-- --- -------- -------- ---------- ---- ---- ---- ------<br>-- --------- -- ---- -- --- -- --- ------- -- - -----<br>---------- -- up -- ---- ----- -- ------ -- --- ------<br>-------,305801,305773,305419,305402,305436,305823,,40,up
screen,html.Screen,1_3_1_0_1_41,2021-04-20T11:16:46.866Z,,,,,,,,,,,,,,,,48,,,,,,,,,,,,,,372,,response,,,,10,E,,,,,,Space,keypress(Space),,,,lyrical,,,,-- -- --- ------ ------- --------- ----------- --------<br>--------- -------- --- ------- -- ------- ---- -- ------<br>-- --- -------- -------- ---------- ---- ---- ---- ------<br>-- --------- -- ---- -- --- -- --- ------- -- - -----<br>---------- -- -- to ---- ----- -- ------ -- --- ------<br>-------,306205,306178,305806,305801,305823,306241,,41,to
screen,html.Screen,1_3_1_0_1_42,2021-04-20T11:16:47.196Z,,,,,,,,,,,,,,,,48,,,,,,,,,,,,,,283,,response,,,,10,E,,,,,,Space,keypress(Space),,,,lyrical,,,,-- -- --- ------ ------- --------- ----------- --------<br>--------- -------- --- ------- -- ------- ---- -- ------<br>-- --- -------- -------- ---------- ---- ---- ---- ------<br>-- --------- -- ---- -- --- -- --- ------- -- - -----<br>---------- -- -- -- five ----- -- ------ -- --- ------<br>-------,306534,306508,306225,306205,306241,306561,,42,five
screen,html.Screen,1_3_1_0_1_43,2021-04-20T11:16:47.561Z,,,,,,,,,,,,,,,,48,,,,,,,,,,,,,,328,,response,,,,10,E,,,,,,Space,keypress(Space),,,,lyrical,,,,-- -- --- ------ ------- --------- ----------- --------<br>--------- -------- --- ------- -- ------- ---- -- ------<br>-- --- -------- -------- ---------- ---- ---- ---- ------<br>-- --------- -- ---- -- --- -- --- ------- -- - -----<br>---------- -- -- -- ---- years -- ------ -- --- ------<br>-------,306900.00000000006,306872,306544,306534,306561,306931,,43,years
screen,html.Screen,1_3_1_0_1_44,2021-04-20T11:16:47.936Z,,,,,,,,,,,,,,,,48,,,,,,,,,,,,,,334,,response,,,,10,E,,,,,,Space,keypress(Space),,,,lyrical,,,,-- -- --- ------ ------- --------- ----------- --------<br>--------- -------- --- ------- -- ------- ---- -- ------<br>-- --- -------- -------- ---------- ---- ---- ---- ------<br>-- --------- -- ---- -- --- -- --- ------- -- - -----<br>---------- -- -- -- ---- ----- in ------ -- --- ------<br>-------,307274,307247,306913,306900.00000000006,306931,307300,,44,in
screen,html.Screen,1_3_1_0_1_45,2021-04-20T11:16:48.271Z,,,,,,,,,,,,,,,,48,,,,,,,,,,,,,,298,,response,,,,10,E,,,,,,Space,keypress(Space),,,,lyrical,,,,-- -- --- ------ ------- --------- ----------- --------<br>--------- -------- --- ------- -- ------- ---- -- ------<br>-- --- -------- -------- ---------- ---- ---- ---- ------<br>-- --------- -- ---- -- --- -- --- ------- -- - -----<br>---------- -- -- -- ---- ----- -- prison -- --- ------<br>-------,307609,307582,307284,307274,307300,307636,,45,prison
screen,html.Screen,1_3_1_0_1_46,2021-04-20T11:16:48.624Z,,,,,,,,,,,,,,,,48,,,,,,,,,,,,,,316,,response,,,,10,E,,,,,,Space,keypress(Space),,,,lyrical,,,,-- -- --- ------ ------- --------- ----------- --------<br>--------- -------- --- ------- -- ------- ---- -- ------<br>-- --- -------- -------- ---------- ---- ---- ---- ------<br>-- --------- -- ---- -- --- -- --- ------- -- - -----<br>---------- -- -- -- ---- ----- -- ------ in --- ------<br>-------,307963,307936,307620,307610,307636,307989,,46,in
screen,html.Screen,1_3_1_0_1_47,2021-04-20T11:16:48.993Z,,,,,,,,,,,,,,,,48,,,,,,,,,,,,,,332.0000000000582,,response,,,,10,E,,,,,,Space,keypress(Space),,,,lyrical,,,,-- -- --- ------ ------- --------- ----------- --------<br>--------- -------- --- ------- -- ------- ---- -- ------<br>-- --- -------- -------- ---------- ---- ---- ---- ------<br>-- --------- -- ---- -- --- -- --- ------- -- - -----<br>---------- -- -- -- ---- ----- -- ------ -- the ------<br>-------,308331,308304.00000000006,307972,307963,307989,308358,,47,the
screen,html.Screen,1_3_1_0_1_48,2021-04-20T11:16:49.445Z,,,,,,,,,,,,,,,,48,,,,,,,,,,,,,,414,,response,,,,10,E,,,,,,Space,keypress(Space),,,,lyrical,,,,-- -- --- ------ ------- --------- ----------- --------<br>--------- -------- --- ------- -- ------- ---- -- ------<br>-- --- -------- -------- ---------- ---- ---- ---- ------<br>-- --------- -- ---- -- --- -- --- ------- -- - -----<br>---------- -- -- -- ---- ----- -- ------ -- --- United<br>-------,308784,308756,308342,308332,308358,308811,,48,United
screen,html.Screen,1_3_1_0_1_49,2021-04-20T11:16:49.801Z,,,,,,,,,,,,,,,,48,,,,,,,,,,,,,,319,,response,,,,10,E,,,,,,Space,keypress(Space),,,,lyrical,,,,-- -- --- ------ ------- --------- ----------- --------<br>--------- -------- --- ------- -- ------- ---- -- ------<br>-- --- -------- -------- ---------- ---- ---- ---- ------<br>-- --------- -- ---- -- --- -- --- ------- -- - -----<br>---------- -- -- -- ---- ----- -- ------ -- --- ------<br>States.,309140,309113,308794,308784,308811,309164,,49,States.
Item 10,flow.Loop,1_3_1_0_1,2021-04-20T11:16:49.801Z,,,,,,,,,,,,,,,,,,,,,,,,,,,,,,22877,,completion,,,,,,,,,,,,,,,,,,,,,309140,309113,286220,286220,286236,309164,,,
Question 1,html.Screen,1_3_1_0_2,2021-04-20T11:16:55.411Z,,,,,,,,,,,,,,,,,,,,,,,,,,,true,TRUE,,5578,,response,,,,10,E,,,,,,TRUE,click #choice-1,,,,lyrical,,,,,314750,314724,309146,309140,309164,314777,,,
Question 2,html.Screen,1_3_1_0_3,2021-04-20T11:16:58.673Z,,,,,,,,,,,,,,,,,,,,,,,,,,,true,TRUE,,3226,,response,,,,10,E,,,,,,TRUE,click #choice-1,,,,lyrical,,,,,318011,317986,314760,314750,314777,318038,,,
Item 10,flow.Sequence,1_3_1_0,2021-04-20T11:16:58.673Z,,,,,,,,,,,,,,,,,,,,,,,,,,,,,,38742,,completion,,,,,,,,,,,,,,,,,,,,,318011,317986,279227,279228,279244,318038,,,
Holding screen,html.Screen,1_3_1_1_0,2021-04-20T11:17:05.687Z,,,,,,,,,,,,,,,,,,,,,,,,,,,,,,7003,,timeout,,,,,,,,,,,,,,,,,,,,,325026,325025,318020,318011,318038,325041,,,
screen,html.Screen,1_3_1_1_1_0,2021-04-20T11:17:06.591Z,,,,,,,,,,,,,,,,2,,,,,,,,,,,,,,877,,response,,,,1,E,,,,,,Space,keypress(Space),,,,lyrical,,,,Two ---- ------ --- ------- ---------- ------- ----------<br>--- --------- --- ----------- ------- ----- ------- ---<br>--------- ---- -- --- ---- -- --------- -- ---- -------<br>-- --------- ------ --- ----- ------ ---- --- --------- --<br>------ - ---- -- --- ----------- ------- ---- ----- -----<br>--- -------- - ------ ---- -- ----- ---- --- --- -----------<br>-- -------,325929.00000000006,325902,325025,325026,325041,325961,,0,Two
screen,html.Screen,1_3_1_1_1_1,2021-04-20T11:17:07.293Z,,,,,,,,,,,,,,,,2,,,,,,,,,,,,,,660,,response,,,,1,E,,,,,,Space,keypress(Space),,,,lyrical,,,,--- days ------ --- ------- ---------- ------- ----------<br>--- --------- --- ----------- ------- ----- ------- ---<br>--------- ---- -- --- ---- -- --------- -- ---- -------<br>-- --------- ------ --- ----- ------ ---- --- --------- --<br>------ - ---- -- --- ----------- ------- ---- ----- -----<br>--- -------- - ------ ---- -- ----- ---- --- --- -----------<br>-- -------,326632,326605,325945,325929.00000000006,325961,326659,,1,days
screen,html.Screen,1_3_1_1_1_2,2021-04-20T11:17:07.849Z,,,,,,,,,,,,,,,,2,,,,,,,,,,,,,,517,,response,,,,1,E,,,,,,Space,keypress(Space),,,,lyrical,,,,"--- ---- later, --- ------- ---------- ------- ----------<br>--- --------- --- ----------- ------- ----- ------- ---<br>--------- ---- -- --- ---- -- --------- -- ---- -------<br>-- --------- ------ --- ----- ------ ---- --- --------- --<br>------ - ---- -- --- ----------- ------- ---- ----- -----<br>--- -------- - ------ ---- -- ----- ---- --- --- -----------<br>-- -------",327187,327160,326643,326632,326659,327228,,2,"later,"
screen,html.Screen,1_3_1_1_1_3,2021-04-20T11:17:08.325Z,,,,,,,,,,,,,,,,2,,,,,,,,,,,,,,424,,response,,,,1,E,,,,,,Space,keypress(Space),,,,lyrical,,,,--- ---- ------ the ------- ---------- ------- ----------<br>--- --------- --- ----------- ------- ----- ------- ---<br>--------- ---- -- --- ---- -- --------- -- ---- -------<br>-- --------- ------ --- ----- ------ ---- --- --------- --<br>------ - ---- -- --- ----------- ------- ---- ----- -----<br>--- -------- - ------ ---- -- ----- ---- --- --- -----------<br>-- -------,327663,327636,327212,327188,327228,327699,,3,the
screen,html.Screen,1_3_1_1_1_4,2021-04-20T11:17:08.863Z,,,,,,,,,,,,,,,,2,,,,,,,,,,,,,,491,,response,,,,1,E,,,,,,Space,keypress(Space),,,,lyrical,,,,--- ---- ------ --- British ---------- ------- ----------<br>--- --------- --- ----------- ------- ----- ------- ---<br>--------- ---- -- --- ---- -- --------- -- ---- -------<br>-- --------- ------ --- ----- ------ ---- --- --------- --<br>------ - ---- -- --- ----------- ------- ---- ----- -----<br>--- -------- - ------ ---- -- ----- ---- --- --- -----------<br>-- -------,328201,328173,327682,327663,327699,328235,,4,British
screen,html.Screen,1_3_1_1_1_5,2021-04-20T11:17:09.696Z,,,,,,,,,,,,,,,,2,,,,,,,,,,,,,,787,,response,,,,1,E,,,,,,Space,keypress(Space),,,,lyrical,,,,--- ---- ------ --- ------- astronomer ------- ----------<br>--- --------- --- ----------- ------- ----- ------- ---<br>--------- ---- -- --- ---- -- --------- -- ---- -------<br>-- --------- ------ --- ----- ------ ---- --- --------- --<br>------ - ---- -- --- ----------- ------- ---- ----- -----<br>--- -------- - ------ ---- -- ----- ---- --- --- -----------<br>-- -------,329034,329006,328219,328201,328235,329071,,5,astronomer
screen,html.Screen,1_3_1_1_1_6,2021-04-20T11:17:10.228Z,,,,,,,,,,,,,,,,2,,,,,,,,,,,,,,484,,response,,,,1,E,,,,,,Space,keypress(Space),,,,lyrical,,,,--- ---- ------ --- ------- ---------- Richard ----------<br>--- --------- --- ----------- ------- ----- ------- ---<br>--------- ---- -- --- ---- -- --------- -- ---- -------<br>-- --------- ------ --- ----- ------ ---- --- --------- --<br>------ - ---- -- --- ----------- ------- ---- ----- -----<br>--- -------- - ------ ---- -- ----- ---- --- --- -----------<br>-- -------,329567,329539,329055,329034,329071,329607,,6,Richard
screen,html.Screen,1_3_1_1_1_7,2021-04-20T11:17:10.817Z,,,,,,,,,,,,,,,,2,,,,,,,,,,,,,,537,,response,,,,1,E,,,,,,Space,keypress(Space),,,,lyrical,,,,--- ---- ------ --- ------- ---------- ------- Carrington<br>--- --------- --- ----------- ------- ----- ------- ---<br>--------- ---- -- --- ---- -- --------- -- ---- -------<br>-- --------- ------ --- ----- ------ ---- --- --------- --<br>------ - ---- -- --- ----------- ------- ---- ----- -----<br>--- -------- - ------ ---- -- ----- ---- --- --- -----------<br>-- -------,330156,330128,329591,329567,329607,330194,,7,Carrington
screen,html.Screen,1_3_1_1_1_8,2021-04-20T11:17:11.239Z,,,,,,,,,,,,,,,,2,,,,,,,,,,,,,,372.0000000000582,,response,,,,1,E,,,,,,Space,keypress(Space),,,,lyrical,,,,--- ---- ------ --- ------- ---------- ------- ----------<br>was --------- --- ----------- ------- ----- ------- ---<br>--------- ---- -- --- ---- -- --------- -- ---- -------<br>-- --------- ------ --- ----- ------ ---- --- --------- --<br>------ - ---- -- --- ----------- ------- ---- ----- -----<br>--- -------- - ------ ---- -- ----- ---- --- --- -----------<br>-- -------,330577,330549.00000000006,330177,330156,330194,330614,,8,was
