sender,sender_type,sender_id,timestamp,meta,,Blues,Classical,Country,Dance,Electronic,Folk,Gospel,Hip-Hop,Jazz,Latin,Musical/Film,New-age,Pop,Provo_ID,R&B,Rap,Reggae,Religious,Rock,Soul,Swing,Traditional,age,artist_name,correct,correctResponse,distraction,duration,education,ended_on,familiarity,gender,headphone_check_performance,item,list,music_frequency,offensiveness,pleasantness,position_correct,preference,response,response_action,snippet_file,song_name,song_rating,sound,stimulus_1,stimulus_2,stimulus_3,text,time_commit,time_end,time_render,time_run,time_show,time_switch,url,word,word_ID
Introduction,html.Screen,0_0,2021-04-25T14:31:43.257Z,"{""labjs_version"":""20.2.2"",""labjs_build"":{""flavor"":""production"",""commit"":""a25486e0c714a0ae2ce03ff94b7bb6896854dcfa""},""location"":""https://run.pavlovia.org/mvasilev/music_c/"",""userAgent"":""Mozilla/5.0 (Windows NT 10.0; Win64; x64) AppleWebKit/537.36 (KHTML, like Gecko) Chrome/90.0.4430.85 Safari/537.36 Edg/90.0.818.46"",""platform"":""Win32"",""language"":""en-GB"",""locale"":""en-GB"",""timeZone"":""Europe/London"",""timezoneOffset"":-60,""screen_width"":1280,""screen_height"":720,""scroll_width"":1699,""scroll_height"":719,""window_innerWidth"":1699,""window_innerHeight"":767,""devicePixelRatio"":1.1299949884414673}",,,,,,,,,,,,,,,,,,,,,,,,,,,,,12657.830999976866,,response,,,,,,,,,,,continue,click button,,,,,,,,,19354.9350000103,19348.409999976866,6657.163,6666.809999966063,6690.579,19372.349,{},,
Volume calibration,html.Screen,0_1,2021-04-25T14:32:33.193Z,,,,,,,,,,,,,,,,,,,,,,,,,,,,,,49911.335999973046,,response,,,,,,,,,,,continue,click button,,,,,,,,,69291.16500000237,69283.68499997305,19339.136,19355.524999962654,19372.349,69299.226,,,
Task instructions,html.Screen,0_2,2021-04-25T14:32:50.465Z,,,,,,,,,,,,,,,,,,,,,,,,,,,,,,17262.67900000958,,response,,,,,,,,,,,continue,click button,,,,,,,,,86563.48499999149,86561.90500000957,69282.823,69291.62999999244,69299.226,86581.128,,,
Sounds,html.Screen,0_3_0_0,2021-04-25T14:32:54.721Z,,,,,,,,,,,,,,,,,,,,,,,,,,,,,,4248.592000000004,,timeout,,,,,,,,,2,,,,,,,,I,S,O,,90819.0450000111,90813.347,86547.013,86564.09499997972,86581.128,90829.72,,,
Judgement,html.Screen,0_3_0_1,2021-04-25T14:32:56.634Z,,,,,,,,,,,,,,,,,,,,,,,,,,,true,2,,1899.9949999649252,,response,,,,,,,,,2,,2,click #choice-2,,,,,I,S,O,,92731.70499998378,92729.71499996493,90813.347,90819.43999999203,90829.72,92746.085,,,
Trial,flow.Sequence,0_3_0,2021-04-25T14:32:56.635Z,,,,,,,,,,,,,,,,,,,,,,,,,,,,,,6148.586999964929,,completion,,,,,,,,,2,,,,,,,,I,S,O,,92732.58999997051,92729.71499996493,86547.013,86563.9599999995,86581.128,92746.085,,,
Sounds,html.Screen,0_3_1_0,2021-04-25T14:33:00.882Z,,,,,,,,,,,,,,,,,,,,,,,,,,,,,,4249.550999999992,,timeout,,,,,,,,,3,,,,,,,,O,I,S,,96980.38500000257,96979.141,92729.712,92732.97999997158,92746.085,96995.636,,,
Judgement,html.Screen,0_3_1_1,2021-04-25T14:33:01.541Z,,,,,,,,,,,,,,,,,,,,,,,,,,,true,3,,641.3440000102273,,response,,,,,,,,,3,,3,click #choice-3,,,,,O,I,S,,97638.5049999808,97636.98000001023,96979.141,96980.69499997655,96995.636,97645.494,,,
Trial,flow.Sequence,0_3_1,2021-04-25T14:33:01.541Z,,,,,,,,,,,,,,,,,,,,,,,,,,,,,,4890.8950000102195,,completion,,,,,,,,,3,,,,,,,,O,I,S,,97639.03500000015,97636.98000001023,92729.712,92732.87499998696,92746.085,97645.494,,,
Sounds,html.Screen,0_3_2_0,2021-04-25T14:33:05.782Z,,,,,,,,,,,,,,,,,,,,,,,,,,,,,,4249.444999999992,,timeout,,,,,,,,,1,,,,,,,,S,I,O,,101879.72999998601,101878.476,97628.885,97639.39999998547,97645.494,101894.939,,,
Judgement,html.Screen,0_3_2_1,2021-04-25T14:33:06.551Z,,,,,,,,,,,,,,,,,,,,,,,,,,,true,1,,752.855999997133,,response,,,,,,,,,1,,1,click #choice-1,,,,,S,I,O,,102649.3499999633,102647.79499999713,101878.476,101880.03499998013,101894.939,102661.694,,,
Trial,flow.Sequence,0_3_2,2021-04-25T14:33:06.552Z,,,,,,,,,,,,,,,,,,,,,,,,,,,,,,5002.3009999971255,,completion,,,,,,,,,1,,,,,,,,S,I,O,,102649.82499997132,102647.79499999713,97628.885,97639.3050000188,97645.494,102661.694,,,
Sounds,html.Screen,0_3_3_0,2021-04-25T14:33:10.798Z,,,,,,,,,,,,,,,,,,,,,,,,,,,,,,4249.167999999991,,timeout,,,,,,,,,3,,,,,,,,I,O,S,,106895.91500000097,106894.632,102645.009,102650.16000001924,102661.694,106910.862,,,
Judgement,html.Screen,0_3_3_1,2021-04-25T14:33:11.439Z,,,,,,,,,,,,,,,,,,,,,,,,,,,true,3,,624.2180000014778,,response,,,,,,,,,3,,3,click #choice-3,,,,,I,O,S,,107536.80499998154,107535.08000000147,106894.632,106896.23999997275,106910.862,107544.175,,,
Trial,flow.Sequence,0_3_3,2021-04-25T14:33:11.439Z,,,,,,,,,,,,,,,,,,,,,,,,,,,,,,4873.386000001468,,completion,,,,,,,,,3,,,,,,,,I,O,S,,107537.29999996722,107535.08000000147,102645.009,102650.04999999655,102661.694,107544.175,,,
Sounds,html.Screen,0_3_4_0,2021-04-25T14:33:15.681Z,,,,,,,,,,,,,,,,,,,,,,,,,,,,,,4249.542999999991,,timeout,,,,,,,,,1,,,,,,,,S,O,I,,111778.50499999477,111777.005,107527.694,107537.60499996133,107544.175,111793.718,,,
Judgement,html.Screen,0_3_4_1,2021-04-25T14:33:16.211Z,,,,,,,,,,,,,,,,,,,,,,,,,,,true,1,,513.3720000166213,,response,,,,,,,,,1,,1,click #choice-1,,,,,S,O,I,,112308.71000001207,112307.09000001661,111777.005,111778.78499997314,111793.718,112310.278,,,
Trial,flow.Sequence,0_3_4,2021-04-25T14:33:16.211Z,,,,,,,,,,,,,,,,,,,,,,,,,,,,,,4762.915000016612,,completion,,,,,,,,,1,,,,,,,,S,O,I,,112309.1649999842,112307.09000001661,107527.694,107537.52000001259,107544.175,112310.278,,,
Sounds,html.Screen,0_3_5_0,2021-04-25T14:33:20.446Z,,,,,,,,,,,,,,,,,,,,,,,,,,,,,,4249.468999999997,,timeout,,,,,,,,,2,,,,,,,,O,S,I,,116544.37999997754,116543.205,112293.595,112309.46499999845,112310.278,116559.747,,,
Judgement,html.Screen,0_3_5_1,2021-04-25T14:33:21.307Z,,,,,,,,,,,,,,,,,,,,,,,,,,,true,2,,843.4930000141903,,response,,,,,,,,,2,,2,click #choice-2,,,,,O,S,I,,117404.68999999575,117403.2400000142,116543.205,116544.66999997385,116559.747,117409.572,,,
Trial,flow.Sequence,0_3_5,2021-04-25T14:33:21.307Z,,,,,,,,,,,,,,,,,,,,,,,,,,,,,,5092.962000014188,,completion,,,,,,,,,2,,,,,,,,O,S,I,,117405.13500000816,117403.2400000142,112293.595,112309.38499997137,112310.278,117409.572,,,
Task,flow.Loop,0_3,2021-04-25T14:33:21.318Z,,,,,,,,,,,,,,,,,,,,,,,,,,,,,,30822.112000014196,,completion,,,1,,,,,,,,,,,,,,,,,,117415.86499998812,117403.2400000142,86547.013,86563.82999999914,86581.128,117409.572,,,
Trap,html.Screen,0_4,2021-04-25T14:33:21.321Z,,,,,,,,,,,,,,,,,,,,,,,,,,,,,,NaN,,skipped,,,,,,,,,,,,,,,,,,,,,117418.97499997867,117403.2400000142,,117418.63999998895,,117409.572,,,
Thanks,html.Screen,0_5,2021-04-25T14:33:30.063Z,,,,,,,,,,,,,,,,,,,,,,,,,,,,,,8749.608000016931,,response,,,,,,,,,,,continue,click button,,,,,,,,,126160.83999996772,126159.18000001693,117393.145,117419.24999997718,117409.572,134907.324,,,
Headphone screening,flow.Sequence,0,2021-04-25T14:33:30.063Z,,,,,,,,,,,,,,,,,,,,,,,,,,,,,,119468.60100001693,,completion,,,,,,,,,,,,,,,,,,,,,126161.34499997133,126159.18000001693,6657.163,6666.785000008531,6690.579,134907.324,,,
Instructions,html.Page,1_0,2021-04-25T14:34:00.663Z,,,,,,,,,,,,,,,,,,,,,,,,,,,,,,21853.380999964225,,form submission,,,,,,,,,,,,,,,,,,,,,156761.1250000191,156760.70499996422,134890.648,134908.83500000928,134907.324,156771.137,,,
Holding screen,html.Screen,1_1_0_0,2021-04-25T14:34:10.656Z,,,,,,,,,,,,,,,,,,,,,,,,,,,,,,10015.415000000008,,timeout,,,,,,,,,,,,,,,,,,,,,166754.580000008,166753.452,156754.43,156761.52000000002,156771.137,166786.552,,,
screen,html.Screen,1_1_0_1_0,2021-04-25T14:34:11.943Z,,,,,,,,,,,,,,,,53,,,,,,,,,,,,,,1248.9079999845999,,response,,,,99,,,,,,,Space,keypress(Space),,,,,,,,When -- ----- -- ------ - ------- --- ----------<br>------------- ------ ------ ---- ---- ------- ----- -- ----<br>-------- ------- -- ---------- --- - --- ----- ----- ----<br>---- --- --- ----- --- ---- ---- ------- ----- ---- -------<br>--- --- -- ----- -- --- ---- -- --- ---- -- ------ ------<br>--- ----- -- ----,168041.00999998627,168035.4599999846,166753.452,166754.98999998672,166786.552,168053.219,,0,When
screen,html.Screen,1_1_0_1_1,2021-04-25T14:34:12.398Z,,,,,,,,,,,,,,,,53,,,,,,,,,,,,,,442.3159999945492,,response,,,,99,,,,,,,Space,keypress(Space),,,,,,,,---- it ----- -- ------ - ------- --- ----------<br>------------- ------ ------ ---- ---- ------- ----- -- ----<br>-------- ------- -- ---------- --- - --- ----- ----- ----<br>---- --- --- ----- --- ---- ---- ------- ----- ---- -------<br>--- --- -- ----- -- --- ---- -- --- ---- -- ------ ------<br>--- ----- -- ----,168496.51999998605,168495.53499999456,168036.573,168041.344999976,168053.219,168503.087,,1,it
screen,html.Screen,1_1_0_1_2,2021-04-25T14:34:12.908Z,,,,,,,,,,,,,,,,53,,,,,,,,,,,,,,501.8380000156467,,response,,,,99,,,,,,,Space,keypress(Space),,,,,,,,---- -- comes -- ------ - ------- --- ----------<br>------------- ------ ------ ---- ---- ------- ----- -- ----<br>-------- ------- -- ---------- --- - --- ----- ----- ----<br>---- --- --- ----- --- ---- ---- ------- ----- ---- -------<br>--- --- -- ----- -- --- ---- -- --- ---- -- ------ ------<br>--- ----- -- ----,169005.8849999914,169004.92500001565,168486.516,168496.80999998236,168503.087,169019.852,,2,comes
screen,html.Screen,1_1_0_1_3,2021-04-25T14:34:13.369Z,,,,,,,,,,,,,,,,53,,,,,,,,,,,,,,446.48300000460586,,response,,,,99,,,,,,,Space,keypress(Space),,,,,,,,---- -- ----- to ------ - ------- --- ----------<br>------------- ------ ------ ---- ---- ------- ----- -- ----<br>-------- ------- -- ---------- --- - --- ----- ----- ----<br>---- --- --- ----- --- ---- ---- ------- ----- ---- -------<br>--- --- -- ----- -- --- ---- -- --- ---- -- ------ ------<br>--- ----- -- ----,169467.39499998512,169466.33500000462,169003.091,169006.1599999899,169019.852,169469.507,,3,to
screen,html.Screen,1_1_0_1_4,2021-04-25T14:34:13.783Z,,,,,,,,,,,,,,,,53,,,,,,,,,,,,,,410.51799996217596,,response,,,,99,,,,,,,Space,keypress(Space),,,,,,,,---- -- ----- -- having - ------- --- ----------<br>------------- ------ ------ ---- ---- ------- ----- -- ----<br>-------- ------- -- ---------- --- - --- ----- ----- ----<br>---- --- --- ----- --- ---- ---- ------- ----- ---- -------<br>--- --- -- ----- -- --- ---- -- --- ---- -- ------ ------<br>--- ----- -- ----,169880.98499999614,169880.0249999622,169453.082,169467.68000000156,169469.507,169886.131,,4,having
screen,html.Screen,1_1_0_1_5,2021-04-25T14:34:14.234Z,,,,,,,,,,,,,,,,53,,,,,,,,,,,,,,444.8789999653236,,response,,,,99,,,,,,,Space,keypress(Space),,,,,,,,---- -- ----- -- ------ a ------- --- ----------<br>------------- ------ ------ ---- ---- ------- ----- -- ----<br>-------- ------- -- ---------- --- - --- ----- ----- ----<br>---- --- --- ----- --- ---- ---- ------- ----- ---- -------<br>--- --- -- ----- -- --- ---- -- --- ---- -- ------ ------<br>--- ----- -- ----,170332.02500001062,170331.00999996532,169869.681,169881.2700000126,169886.131,170336.084,,5,a
screen,html.Screen,1_1_0_1_6,2021-04-25T14:34:14.721Z,,,,,,,,,,,,,,,,53,,,,,,,,,,,,,,482.60100000564125,,response,,,,99,,,,,,,Space,keypress(Space),,,,,,,,---- -- ----- -- ------ - lasting --- ----------<br>------------- ------ ------ ---- ---- ------- ----- -- ----<br>-------- ------- -- ---------- --- - --- ----- ----- ----<br>---- --- --- ----- --- ---- ---- ------- ----- ---- -------<br>--- --- -- ----- -- --- ---- -- --- ---- -- ------ ------<br>--- ----- -- ----,170819.68000001507,170818.68500000564,170319.7,170332.3199999868,170336.084,170836.31,,6,lasting
screen,html.Screen,1_1_0_1_7,2021-04-25T14:34:15.223Z,,,,,,,,,,,,,,,,53,,,,,,,,,,,,,,483.9999999809661,,response,,,,99,,,,,,,Space,keypress(Space),,,,,,,,---- -- ----- -- ------ - ------- and ----------<br>------------- ------ ------ ---- ---- ------- ----- -- ----<br>-------- ------- -- ---------- --- - --- ----- ----- ----<br>---- --- --- ----- --- ---- ---- ------- ----- ---- -------<br>--- --- -- ----- -- --- ---- -- --- ---- -- ------ ------<br>--- ----- -- ----,171321.40000001527,171320.30999998096,170819.638,170819.95500001358,170836.31,171336.166,,7,and
screen,html.Screen,1_1_0_1_8,2021-04-25T14:34:15.675Z,,,,,,,,,,,,,,,,53,,,,,,,,,,,,,,436.019000008906,,response,,,,99,,,,,,,Space,keypress(Space),,,,,,,,---- -- ----- -- ------ - ------- --- fulfilling<br>------------- ------ ------ ---- ---- ------- ----- -- ----<br>-------- ------- -- ---------- --- - --- ----- ----- ----<br>---- --- --- ----- --- ---- ---- ------- ----- ---- -------<br>--- --- -- ----- -- --- ---- -- --- ---- -- ------ ------<br>--- ----- -- ----,171773.1199999689,171772.1850000089,171319.527,171321.69499999145,171336.166,171786.167,,8,fulfilling
screen,html.Screen,1_1_0_1_9,2021-04-25T14:34:16.296Z,,,,,,,,,,,,,,,,53,,,,,,,,,,,,,,606.7230000173731,,response,,,,99,,,,,,,Space,keypress(Space),,,,,,,,"---- -- ----- -- ------ - ------- --- ----------<br>relationship, ------ ------ ---- ---- ------- ----- -- ----<br>-------- ------- -- ---------- --- - --- ----- ----- ----<br>---- --- --- ----- --- ---- ---- ------- ----- ---- -------<br>--- --- -- ----- -- --- ---- -- --- ---- -- ------ ------<br>--- ----- -- ----",172393.79999996163,172392.89000001736,171769.488,171773.40499998536,171786.167,172402.603,,9,"relationship,"
screen,html.Screen,1_1_0_1_10,2021-04-25T14:34:16.847Z,,,,,,,,,,,,,,,,53,,,,,,,,,,,,,,541.4720000067027,,response,,,,99,,,,,,,Space,keypress(Space),,,,,,,,---- -- ----- -- ------ - ------- --- ----------<br>------------- common ------ ---- ---- ------- ----- -- ----<br>-------- ------- -- ---------- --- - --- ----- ----- ----<br>---- --- --- ----- --- ---- ---- ------- ----- ---- -------<br>--- --- -- ----- -- --- ---- -- --- ---- -- ------ ------<br>--- ----- -- ----,172945.1649999828,172944.0750000067,172386.059,172394.11499997368,172402.603,172952.39,,10,common
screen,html.Screen,1_1_0_1_11,2021-04-25T14:34:17.434Z,,,,,,,,,,,,,,,,53,,,,,,,,,,,,,,578.3449999784352,,response,,,,99,,,,,,,Space,keypress(Space),,,,,,,,---- -- ----- -- ------ - ------- --- ----------<br>------------- ------ wisdom ---- ---- ------- ----- -- ----<br>-------- ------- -- ---------- --- - --- ----- ----- ----<br>---- --- --- ----- --- ---- ---- ------- ----- ---- -------<br>--- --- -- ----- -- --- ---- -- --- ---- -- ------ ------<br>--- ----- -- ----,173531.71499999007,173530.73499997845,172935.924,172945.43999998132,172952.39,173535.654,,11,wisdom
screen,html.Screen,1_1_0_1_12,2021-04-25T14:34:17.995Z,,,,,,,,,,,,,,,,53,,,,,,,,,,,,,,556.1759999902861,,response,,,,99,,,,,,,Space,keypress(Space),,,,,,,,---- -- ----- -- ------ - ------- --- ----------<br>------------- ------ ------ says ---- ------- ----- -- ----<br>-------- ------- -- ---------- --- - --- ----- ----- ----<br>---- --- --- ----- --- ---- ---- ------- ----- ---- -------<br>--- --- -- ----- -- --- ---- -- --- ---- -- ------ ------<br>--- ----- -- ----,174092.79999998398,174091.8299999903,173519.235,173532.00999996625,173535.654,174102.298,,12,says
screen,html.Screen,1_1_0_1_13,2021-04-25T14:34:18.493Z,,,,,,,,,,,,,,,,53,,,,,,,,,,,,,,487.88699997909134,,response,,,,99,,,,,,,Space,keypress(Space),,,,,,,,---- -- ----- -- ------ - ------- --- ----------<br>------------- ------ ------ ---- that ------- ----- -- ----<br>-------- ------- -- ---------- --- - --- ----- ----- ----<br>---- --- --- ----- --- ---- ---- ------- ----- ---- -------<br>--- --- -- ----- -- --- ---- -- --- ---- -- ------ ------<br>--- ----- -- ----,174591.17500000866,174590.1849999791,174085.798,174093.07999996236,174102.298,174602.391,,13,that
screen,html.Screen,1_1_0_1_14,2021-04-25T14:34:19.073Z,,,,,,,,,,,,,,,,53,,,,,,,,,,,,,,567.828999970865,,response,,,,99,,,,,,,Space,keypress(Space),,,,,,,,---- -- ----- -- ------ - ------- --- ----------<br>------------- ------ ------ ---- ---- feeling ----- -- ----<br>-------- ------- -- ---------- --- - --- ----- ----- ----<br>---- --- --- ----- --- ---- ---- ------- ----- ---- -------<br>--- --- -- ----- -- --- ---- -- --- ---- -- ------ ------<br>--- ----- -- ----,175171.1999999825,175170.21999997087,174585.832,174591.46999998484,174602.391,175185.723,,14,feeling
screen,html.Screen,1_1_0_1_15,2021-04-25T14:34:19.612Z,,,,,,,,,,,,,,,,53,,,,,,,,,,,,,,523.5270000144374,,response,,,,99,,,,,,,Space,keypress(Space),,,,,,,,---- -- ----- -- ------ - ------- --- ----------<br>------------- ------ ------ ---- ---- ------- close -- ----<br>-------- ------- -- ---------- --- - --- ----- ----- ----<br>---- --- --- ----- --- ---- ---- ------- ----- ---- -------<br>--- --- -- ----- -- --- ---- -- --- ---- -- ------ ------<br>--- ----- -- ----,175710.27499996126,175709.25000001444,175169,175171.48499999894,175185.723,175718.773,,15,close
screen,html.Screen,1_1_0_1_16,2021-04-25T14:34:20.140Z,,,,,,,,,,,,,,,,53,,,,,,,,,,,,,,518.3519999851123,,response,,,,99,,,,,,,Space,keypress(Space),,,,,,,,---- -- ----- -- ------ - ------- --- ----------<br>------------- ------ ------ ---- ---- ------- ----- to ----<br>-------- ------- -- ---------- --- - --- ----- ----- ----<br>---- --- --- ----- --- ---- ---- ------- ----- ---- -------<br>--- --- -- ----- -- --- ---- -- --- ---- -- ------ ------<br>--- ----- -- ----,176238.15499997,176237.1249999851,175702.273,175710.56500001578,175718.773,176252.259,,16,to
screen,html.Screen,1_1_0_1_17,2021-04-25T14:34:20.926Z,,,,,,,,,,,,,,,,53,,,,,,,,,,,,,,770.6309999638179,,response,,,,99,,,,,,,Space,keypress(Space),,,,,,,,---- -- ----- -- ------ - ------- --- ----------<br>------------- ------ ------ ---- ---- ------- ----- -- your<br>-------- ------- -- ---------- --- - --- ----- ----- ----<br>---- --- --- ----- --- ---- ---- ------- ----- ---- -------<br>--- --- -- ----- -- --- ---- -- --- ---- -- ------ ------<br>--- ----- -- ----,177023.92499998678,177022.8899999638,176235.521,176238.45499998424,176252.259,177035.435,,17,your
screen,html.Screen,1_1_0_1_18,2021-04-25T14:34:21.459Z,,,,,,,,,,,,,,,,53,,,,,,,,,,,,,,520.3299999973387,,response,,,,99,,,,,,,Space,keypress(Space),,,,,,,,---- -- ----- -- ------ - ------- --- ----------<br>------------- ------ ------ ---- ---- ------- ----- -- ----<br>romantic ------- -- ---------- --- - --- ----- ----- ----<br>---- --- --- ----- --- ---- ---- ------- ----- ---- -------<br>--- --- -- ----- -- --- ---- -- --- ---- -- ------ ------<br>--- ----- -- ----,177556.73499999102,177555.76499999734,177018.499,177024.21999996295,177035.435,177568.728,,18,romantic
screen,html.Screen,1_1_0_1_19,2021-04-25T14:34:22.023Z,,,,,,,,,,,,,,,,53,,,,,,,,,,,,,,551.3869999978924,,response,,,,99,,,,,,,Space,keypress(Space),,,,,,,,---- -- ----- -- ------ - ------- --- ----------<br>------------- ------ ------ ---- ---- ------- ----- -- ----<br>-------- partner -- ---------- --- - --- ----- ----- ----<br>---- --- --- ----- --- ---- ---- ------- ----- ---- -------<br>--- --- -- ----- -- --- ---- -- --- ---- -- ------ ------<br>--- ----- -- ----,178121.0350000183,178120.1149999979,177552.036,177557.02499998733,177568.728,178135.361,,19,partner
screen,html.Screen,1_1_0_1_20,2021-04-25T14:34:22.672Z,,,,,,,,,,,,,,,,53,,,,,,,,,,,,,,633.9289999674365,,response,,,,99,,,,,,,Space,keypress(Space),,,,,,,,---- -- ----- -- ------ - ------- --- ----------<br>------------- ------ ------ ---- ---- ------- ----- -- ----<br>-------- ------- is ---------- --- - --- ----- ----- ----<br>---- --- --- ----- --- ---- ---- ------- ----- ---- -------<br>--- --- -- ----- -- --- ---- -- --- ---- -- ------ ------<br>--- ----- -- ----,178770.26000001933,178769.28999996744,178118.648,178121.31999997655,178135.361,178785.253,,20,is
screen,html.Screen,1_1_0_1_21,2021-04-25T14:34:23.270Z,,,,,,,,,,,,,,,,53,,,,,,,,,,,,,,581.8670000098937,,response,,,,99,,,,,,,Space,keypress(Space),,,,,,,,---- -- ----- -- ------ - ------- --- ----------<br>------------- ------ ------ ---- ---- ------- ----- -- ----<br>-------- ------- -- paramount. --- - --- ----- ----- ----<br>---- --- --- ----- --- ---- ---- ------- ----- ---- -------<br>--- --- -- ----- -- --- ---- -- --- ---- -- ------ ------<br>--- ----- -- ----,179368.1949999882,179367.1200000099,178768.535,178770.6650000182,178785.253,179385.204,,21,paramount.
screen,html.Screen,1_1_0_1_22,2021-04-25T14:34:23.785Z,,,,,,,,,,,,,,,,53,,,,,,,,,,,,,,497.3110000047891,,response,,,,99,,,,,,,Space,keypress(Space),,,,,,,,---- -- ----- -- ------ - ------- --- ----------<br>------------- ------ ------ ---- ---- ------- ----- -- ----<br>-------- ------- -- ---------- But - --- ----- ----- ----<br>---- --- --- ----- --- ---- ---- ------- ----- ---- -------<br>--- --- -- ----- -- --- ---- -- --- ---- -- ------ ------<br>--- ----- -- ----,179883.47499998054,179882.5150000048,179368.424,179368.47499996657,179385.204,179906.583,,22,But
screen,html.Screen,1_1_0_1_23,2021-04-25T14:34:24.296Z,,,,,,,,,,,,,,,,53,,,,,,,,,,,,,,486.5570000001171,,response,,,,99,,,,,,,Space,keypress(Space),,,,,,,,---- -- ----- -- ------ - ------- --- ----------<br>------------- ------ ------ ---- ---- ------- ----- -- ----<br>-------- ------- -- ---------- --- a --- ----- ----- ----<br>---- --- --- ----- --- ---- ---- ------- ----- ---- -------<br>--- --- -- ----- -- --- ---- -- --- ---- -- ------ ------<br>--- ----- -- ----,180394.04499996454,180393.14000000013,179868.409,179883.76499997685,179906.583,180401.35,,23,a
screen,html.Screen,1_1_0_1_24,2021-04-25T14:34:24.782Z,,,,,,,,,,,,,,,,53,,,,,,,,,,,,,,477.9850000050792,,response,,,,99,,,,,,,Space,keypress(Space),,,,,,,,---- -- ----- -- ------ - ------- --- ----------<br>------------- ------ ------ ---- ---- ------- ----- -- ----<br>-------- ------- -- ---------- --- - new ----- ----- ----<br>---- --- --- ----- --- ---- ---- ------- ----- ---- -------<br>--- --- -- ----- -- --- ---- -- --- ---- -- ------ ------<br>--- ----- -- ----,180880.36499998998,180879.33500000509,180385.033,180394.33999999892,180401.35,180884.621,,24,new
screen,html.Screen,1_1_0_1_25,2021-04-25T14:34:25.280Z,,,,,,,,,,,,,,,,53,,,,,,,,,,,,,,492.6139999635343,,response,,,,99,,,,,,,Space,keypress(Space),,,,,,,,---- -- ----- -- ------ - ------- --- ----------<br>------------- ------ ------ ---- ---- ------- ----- -- ----<br>-------- ------- -- ---------- --- - --- study ----- ----<br>---- --- --- ----- --- ---- ---- ------- ----- ---- -------<br>--- --- -- ----- -- --- ---- -- --- ---- -- ------ ------<br>--- ----- -- ----,181378.30499996198,181377.23499996355,180868.274,180880.6549999863,180884.621,181384.595,,25,study
screen,html.Screen,1_1_0_1_26,2021-04-25T14:34:25.749Z,,,,,,,,,,,,,,,,53,,,,,,,,,,,,,,461.17999999431777,,response,,,,99,,,,,,,Space,keypress(Space),,,,,,,,---- -- ----- -- ------ - ------- --- ----------<br>------------- ------ ------ ---- ---- ------- ----- -- ----<br>-------- ------- -- ---------- --- - --- ----- finds ----<br>---- --- --- ----- --- ---- ---- ------- ----- ---- -------<br>--- --- -- ----- -- --- ---- -- --- ---- -- ------ ------<br>--- ----- -- ----,181846.72500001034,181845.77499999432,181368.223,181378.59999999637,181384.595,181851.204,,26,finds
screen,html.Screen,1_1_0_1_27,2021-04-25T14:34:26.288Z,,,,,,,,,,,,,,,,53,,,,,,,,,,,,,,534.1959999701066,,response,,,,99,,,,,,,Space,keypress(Space),,,,,,,,---- -- ----- -- ------ - ------- --- ----------<br>------------- ------ ------ ---- ---- ------- ----- -- ----<br>-------- ------- -- ---------- --- - --- ----- ----- that<br>---- --- --- ----- --- ---- ---- ------- ----- ---- -------<br>--- --- -- ----- -- --- ---- -- --- ---- -- ------ ------<br>--- ----- -- ----,182386.37500000186,182385.3999999701,181834.813,181847.0199999865,181851.204,182401.167,,27,that
screen,html.Screen,1_1_0_1_28,2021-04-25T14:34:26.887Z,,,,,,,,,,,,,,,,53,,,,,,,,,,,,,,582.6980000165349,,response,,,,99,,,,,,,Space,keypress(Space),,,,,,,,---- -- ----- -- ------ - ------- --- ----------<br>------------- ------ ------ ---- ---- ------- ----- -- ----<br>-------- ------- -- ---------- --- - --- ----- ----- ----<br>it's --- --- ----- --- ---- ---- ------- ----- ---- -------<br>--- --- -- ----- -- --- ---- -- --- ---- -- ------ ------<br>--- ----- -- ----,182984.93500001496,182983.86500001652,182384.448,182386.66999997804,182401.167,183001.426,,28,it's
screen,html.Screen,1_1_0_1_29,2021-04-25T14:34:27.480Z,,,,,,,,,,,,,,,,53,,,,,,,,,,,,,,576.5240000062331,,response,,,,99,,,,,,,Space,keypress(Space),,,,,,,,---- -- ----- -- ------ - ------- --- ----------<br>------------- ------ ------ ---- ---- ------- ----- -- ----<br>-------- ------- -- ---------- --- - --- ----- ----- ----<br>---- not --- ----- --- ---- ---- ------- ----- ---- -------<br>--- --- -- ----- -- --- ---- -- --- ---- -- ------ ------<br>--- ----- -- ----,183578.70000001276,183577.95000000624,182984.674,182985.21499999333,183001.426,183584.581,,29,not
screen,html.Screen,1_1_0_1_30,2021-04-25T14:34:28.114Z,,,,,,,,,,,,,,,,53,,,,,,,,,,,,,,625.7090000172611,,response,,,,99,,,,,,,Space,keypress(Space),,,,,,,,---- -- ----- -- ------ - ------- --- ----------<br>------------- ------ ------ ---- ---- ------- ----- -- ----<br>-------- ------- -- ---------- --- - --- ----- ----- ----<br>---- --- how ----- --- ---- ---- ------- ----- ---- -------<br>--- --- -- ----- -- --- ---- -- --- ---- -- ------ ------<br>--- ----- -- ----,184211.28499996848,184210.29000001727,183567.981,183578.84999999078,183584.581,184217.538,,30,how
screen,html.Screen,1_1_0_1_31,2021-04-25T14:34:28.566Z,,,,,,,,,,,,,,,,53,,,,,,,,,,,,,,444.97199999465374,,response,,,,99,,,,,,,Space,keypress(Space),,,,,,,,---- -- ----- -- ------ - ------- --- ----------<br>------------- ------ ------ ---- ---- ------- ----- -- ----<br>-------- ------- -- ---------- --- - --- ----- ----- ----<br>---- --- --- close --- ---- ---- ------- ----- ---- -------<br>--- --- -- ----- -- --- ---- -- --- ---- -- ------ ------<br>--- ----- -- ----,184663.47999998834,184662.50999999465,184201.152,184211.56500000507,184217.538,184667.548,,31,close
screen,html.Screen,1_1_0_1_32,2021-04-25T14:34:29.040Z,,,,,,,,,,,,,,,,53,,,,,,,,,,,,,,469.30699998972705,,response,,,,99,,,,,,,Space,keypress(Space),,,,,,,,---- -- ----- -- ------ - ------- --- ----------<br>------------- ------ ------ ---- ---- ------- ----- -- ----<br>-------- ------- -- ---------- --- - --- ----- ----- ----<br>---- --- --- ----- you ---- ---- ------- ----- ---- -------<br>--- --- -- ----- -- --- ---- -- --- ---- -- ------ ------<br>--- ----- -- ----,185137.82000000356,185136.85499998974,184651.096,184663.76999998465,184667.548,185151.087,,32,you
screen,html.Screen,1_1_0_1_33,2021-04-25T14:34:29.528Z,,,,,,,,,,,,,,,,53,,,,,,,,,,,,,,473.3030000117724,,response,,,,99,,,,,,,Space,keypress(Space),,,,,,,,---- -- ----- -- ------ - ------- --- ----------<br>------------- ------ ------ ---- ---- ------- ----- -- ----<br>-------- ------- -- ---------- --- - --- ----- ----- ----<br>---- --- --- ----- --- feel ---- ------- ----- ---- -------<br>--- --- -- ----- -- --- ---- -- --- ---- -- ------ ------<br>--- ----- -- ----,185625.36000000546,185624.39000001177,185134.458,185138.11499997973,185151.087,185634.173,,33,feel
screen,html.Screen,1_1_0_1_34,2021-04-25T14:34:30.128Z,,,,,,,,,,,,,,,,53,,,,,,,,,,,,,,590.1820000130101,,response,,,,99,,,,,,,Space,keypress(Space),,,,,,,,---- -- ----- -- ------ - ------- --- ----------<br>------------- ------ ------ ---- ---- ------- ----- -- ----<br>-------- ------- -- ---------- --- - --- ----- ----- ----<br>---- --- --- ----- --- ---- that ------- ----- ---- -------<br>--- --- -- ----- -- --- ---- -- --- ---- -- ------ ------<br>--- ----- -- ----,186225.30499997083,186224.35500001302,185617.7,185625.65499998163,185634.173,186233.859,,34,that
screen,html.Screen,1_1_0_1_35,2021-04-25T14:34:30.614Z,,,,,,,,,,,,,,,,53,,,,,,,,,,,,,,476.91100000514416,,response,,,,99,,,,,,,Space,keypress(Space),,,,,,,,---- -- ----- -- ------ - ------- --- ----------<br>------------- ------ ------ ---- ---- ------- ----- -- ----<br>-------- ------- -- ---------- --- - --- ----- ----- ----<br>---- --- --- ----- --- ---- ---- matters ----- ---- -------<br>--- --- -- ----- -- --- ---- -- --- ---- -- ------ ------<br>--- ----- -- ----,186712.22499996657,186710.77000000514,186217.484,186228.56499999762,186233.859,186717.239,,35,matters
screen,html.Screen,1_1_0_1_36,2021-04-25T14:34:31.154Z,,,,,,,,,,,,,,,,53,,,,,,,,,,,,,,533.0359999985085,,response,,,,99,,,,,,,Space,keypress(Space),,,,,,,,"---- -- ----- -- ------ - ------- --- ----------<br>------------- ------ ------ ---- ---- ------- ----- -- ----<br>-------- ------- -- ---------- --- - --- ----- ----- ----<br>---- --- --- ----- --- ---- ---- ------- most, ---- -------<br>--- --- -- ----- -- --- ---- -- --- ---- -- ------ ------<br>--- ----- -- ----",187251.27000000793,187250.2749999985,186700.587,186712.5900000101,186717.239,187267.467,,36,"most,"
screen,html.Screen,1_1_0_1_37,2021-04-25T14:34:31.648Z,,,,,,,,,,,,,,,,53,,,,,,,,,,,,,,477.1830000078189,,response,,,,99,,,,,,,Space,keypress(Space),,,,,,,,---- -- ----- -- ------ - ------- --- ----------<br>------------- ------ ------ ---- ---- ------- ----- -- ----<br>-------- ------- -- ---------- --- - --- ----- ----- ----<br>---- --- --- ----- --- ---- ---- ------- ----- it's -------<br>--- --- -- ----- -- --- ---- -- --- ---- -- ------ ------<br>--- ----- -- ----,187745.70500000846,187744.65000000782,187250.796,187251.60499999765,187267.467,187750.48,,37,it's
screen,html.Screen,1_1_0_1_38,2021-04-25T14:34:32.240Z,,,,,,,,,,,,,,,,53,,,,,,,,,,,,,,585.8849999955564,,response,,,,99,,,,,,,Space,keypress(Space),,,,,,,,---- -- ----- -- ------ - ------- --- ----------<br>------------- ------ ------ ---- ---- ------- ----- -- ----<br>-------- ------- -- ---------- --- - --- ----- ----- ----<br>---- --- --- ----- --- ---- ---- ------- ----- ---- whether<br>--- --- -- ----- -- --- ---- -- --- ---- -- ------ ------<br>--- ----- -- ----,188337.32499997132,188336.36499999557,187734,187746.0500000161,187750.48,188350.692,,38,whether
screen,html.Screen,1_1_0_1_39,2021-04-25T14:34:32.770Z,,,,,,,,,,,,,,,,53,,,,,,,,,,,,,,516.1080000179645,,response,,,,99,,,,,,,Space,keypress(Space),,,,,,,,---- -- ----- -- ------ - ------- --- ----------<br>------------- ------ ------ ---- ---- ------- ----- -- ----<br>-------- ------- -- ---------- --- - --- ----- ----- ----<br>---- --- --- ----- --- ---- ---- ------- ----- ---- -------<br>you --- -- ----- -- --- ---- -- --- ---- -- ------ ------<br>--- ----- -- ----,188867.72999999812,188866.80000001797,188334.019,188337.59999996983,188350.692,188883.96,,39,you
screen,html.Screen,1_1_0_1_40,2021-04-25T14:34:33.235Z,,,,,,,,,,,,,,,,53,,,,,,,,,,,,,,447.66000001176144,,response,,,,99,,,,,,,Space,keypress(Space),,,,,,,,---- -- ----- -- ------ - ------- --- ----------<br>------------- ------ ------ ---- ---- ------- ----- -- ----<br>-------- ------- -- ---------- --- - --- ----- ----- ----<br>---- --- --- ----- --- ---- ---- ------- ----- ---- -------<br>--- are -- ----- -- --- ---- -- --- ---- -- ------ ------<br>--- ----- -- ----,189332.59999996517,189331.62000001175,188867.212,188868.00499999663,188883.96,189350.481,,40,are
screen,html.Screen,1_1_0_1_41,2021-04-25T14:34:33.731Z,,,,,,,,,,,,,,,,53,,,,,,,,,,,,,,477.17900000992813,,response,,,,99,,,,,,,Space,keypress(Space),,,,,,,,---- -- ----- -- ------ - ------- --- ----------<br>------------- ------ ------ ---- ---- ------- ----- -- ----<br>-------- ------- -- ---------- --- - --- ----- ----- ----<br>---- --- --- ----- --- ---- ---- ------- ----- ---- -------<br>--- --- as ----- -- --- ---- -- --- ---- -- ------ ------<br>--- ----- -- ----,189828.60999996774,189827.66000000993,189317.207,189332.88499998162,189350.481,189833.497,,41,as
screen,html.Screen,1_1_0_1_42,2021-04-25T14:34:34.276Z,,,,,,,,,,,,,,,,53,,,,,,,,,,,,,,539.1479999958246,,response,,,,99,,,,,,,Space,keypress(Space),,,,,,,,---- -- ----- -- ------ - ------- --- ----------<br>------------- ------ ------ ---- ---- ------- ----- -- ----<br>-------- ------- -- ---------- --- - --- ----- ----- ----<br>---- --- --- ----- --- ---- ---- ------- ----- ---- -------<br>--- --- -- close -- --- ---- -- --- ---- -- ------ ------<br>--- ----- -- ----,190373.60499997158,190372.64499999583,189817.186,189828.87999998638,189833.497,190383.679,,42,close
screen,html.Screen,1_1_0_1_43,2021-04-25T14:34:34.785Z,,,,,,,,,,,,,,,,53,,,,,,,,,,,,,,497.8210000176914,,response,,,,99,,,,,,,Space,keypress(Space),,,,,,,,---- -- ----- -- ------ - ------- --- ----------<br>------------- ------ ------ ---- ---- ------- ----- -- ----<br>-------- ------- -- ---------- --- - --- ----- ----- ----<br>---- --- --- ----- --- ---- ---- ------- ----- ---- -------<br>--- --- -- ----- as --- ---- -- --- ---- -- ------ ------<br>--- ----- -- ----,190882.4499999755,190881.5000000177,190366.983,190373.88999998802,190383.679,190900.322,,43,as
screen,html.Screen,1_1_0_1_44,2021-04-25T14:34:35.311Z,,,,,,,,,,,,,,,,53,,,,,,,,,,,,,,507.22800000355346,,response,,,,99,,,,,,,Space,keypress(Space),,,,,,,,---- -- ----- -- ------ - ------- --- ----------<br>------------- ------ ------ ---- ---- ------- ----- -- ----<br>-------- ------- -- ---------- --- - --- ----- ----- ----<br>---- --- --- ----- --- ---- ---- ------- ----- ---- -------<br>--- --- -- ----- -- you ---- -- --- ---- -- ------ ------<br>--- ----- -- ----,191408.5099999793,191407.55000000354,190866.963,190882.7150000143,190900.322,191416.569,,44,you
screen,html.Screen,1_1_0_1_45,2021-04-25T14:34:35.831Z,,,,,,,,,,,,,,,,53,,,,,,,,,,,,,,511.3209999917599,,response,,,,99,,,,,,,Space,keypress(Space),,,,,,,,---- -- ----- -- ------ - ------- --- ----------<br>------------- ------ ------ ---- ---- ------- ----- -- ----<br>-------- ------- -- ---------- --- - --- ----- ----- ----<br>---- --- --- ----- --- ---- ---- ------- ----- ---- -------<br>--- --- -- ----- -- --- want -- --- ---- -- ------ ------<br>--- ----- -- ----,191928.8499999675,191927.88999999175,191400.167,191408.77999999793,191416.569,191954.551,,45,want
screen,html.Screen,1_1_0_1_46,2021-04-25T14:34:36.311Z,,,,,,,,,,,,,,,,53,,,,,,,,,,,,,,452.93900001232396,,response,,,,99,,,,,,,Space,keypress(Space),,,,,,,,---- -- ----- -- ------ - ------- --- ----------<br>------------- ------ ------ ---- ---- ------- ----- -- ----<br>-------- ------- -- ---------- --- - --- ----- ----- ----<br>---- --- --- ----- --- ---- ---- ------- ----- ---- -------<br>--- --- -- ----- -- --- ---- to --- ---- -- ------ ------<br>--- ----- -- ----,192408.53499999503,192407.49000001233,191916.859,191931.71999999322,191954.551,192416.567,,46,to
screen,html.Screen,1_1_0_1_47,2021-04-25T14:34:36.770Z,,,,,,,,,,,,,,,,53,,,,,,,,,,,,,,449.8829999722366,,response,,,,99,,,,,,,Space,keypress(Space),,,,,,,,"---- -- ----- -- ------ - ------- --- ----------<br>------------- ------ ------ ---- ---- ------- ----- -- ----<br>-------- ------- -- ---------- --- - --- ----- ----- ----<br>---- --- --- ----- --- ---- ---- ------- ----- ---- -------<br>--- --- -- ----- -- --- ---- -- be, ---- -- ------ ------<br>--- ----- -- ----",192867.41499998607,192866.44999997225,192400.109,192408.7849999778,192416.567,192883.337,,47,"be,"
screen,html.Screen,1_1_0_1_48,2021-04-25T14:34:37.449Z,,,,,,,,,,,,,,,,53,,,,,,,,,,,,,,662.1679999873159,,response,,,,99,,,,,,,Space,keypress(Space),,,,,,,,---- -- ----- -- ------ - ------- --- ----------<br>------------- ------ ------ ---- ---- ------- ----- -- ----<br>-------- ------- -- ---------- --- - --- ----- ----- ----<br>---- --- --- ----- --- ---- ---- ------- ----- ---- -------<br>--- --- -- ----- -- --- ---- -- --- even -- ------ ------<br>--- ----- -- ----,193546.5049999766,193545.50499998732,192866.737,192867.6850000047,192883.337,193549.718,,48,even
screen,html.Screen,1_1_0_1_49,2021-04-25T14:34:37.981Z,,,,,,,,,,,,,,,,53,,,,,,,,,,,,,,527.8919999784557,,response,,,,99,,,,,,,Space,keypress(Space),,,,,,,,---- -- ----- -- ------ - ------- --- ----------<br>------------- ------ ------ ---- ---- ------- ----- -- ----<br>-------- ------- -- ---------- --- - --- ----- ----- ----<br>---- --- --- ----- --- ---- ---- ------- ----- ---- -------<br>--- --- -- ----- -- --- ---- -- --- ---- if ------ ------<br>--- ----- -- ----,194078.5700000124,194077.60999997845,193533.335,193546.7850000132,193549.718,194082.911,,49,if
screen,html.Screen,1_1_0_1_50,2021-04-25T14:34:38.503Z,,,,,,,,,,,,,,,,53,,,,,,,,,,,,,,517.3390000177023,,response,,,,99,,,,,,,Space,keypress(Space),,,,,,,,---- -- ----- -- ------ - ------- --- ----------<br>------------- ------ ------ ---- ---- ------- ----- -- ----<br>-------- ------- -- ---------- --- - --- ----- ----- ----<br>---- --- --- ----- --- ---- ---- ------- ----- ---- -------<br>--- --- -- ----- -- --- ---- -- --- ---- -- that's ------<br>--- ----- -- ----,194601.20999999344,194600.2500000177,194066.489,194078.81999999518,194082.911,194616.553,,50,that's
screen,html.Screen,1_1_0_1_51,2021-04-25T14:34:38.984Z,,,,,,,,,,,,,,,,53,,,,,,,,,,,,,,464.03199998877244,,response,,,,99,,,,,,,Space,keypress(Space),,,,,,,,---- -- ----- -- ------ - ------- --- ----------<br>------------- ------ ------ ---- ---- ------- ----- -- ----<br>-------- ------- -- ---------- --- - --- ----- ----- ----<br>---- --- --- ----- --- ---- ---- ------- ----- ---- -------<br>--- --- -- ----- -- --- ---- -- --- ---- -- ------ really<br>--- ----- -- ----,195081.52999996673,195080.5849999888,194599.871,194601.4650000143,194616.553,195101.378,,51,really
screen,html.Screen,1_1_0_1_52,2021-04-25T14:34:39.508Z,,,,,,,,,,,,,,,,53,,,,,,,,,,,,,,503.6570000150532,,response,,,,99,,,,,,,Space,keypress(Space),,,,,,,,---- -- ----- -- ------ - ------- --- ----------<br>------------- ------ ------ ---- ---- ------- ----- -- ----<br>-------- ------- -- ---------- --- - --- ----- ----- ----<br>---- --- --- ----- --- ---- ---- ------- ----- ---- -------<br>--- --- -- ----- -- --- ---- -- --- ---- -- ------ ------<br>not ----- -- ----,195605.9499999974,195605.03500001505,195066.422,195081.7800000077,195101.378,195616.298,,52,not
screen,html.Screen,1_1_0_1_53,2021-04-25T14:34:39.995Z,,,,,,,,,,,,,,,,53,,,,,,,,,,,,,,475.2119999983697,,response,,,,99,,,,,,,Space,keypress(Space),,,,,,,,---- -- ----- -- ------ - ------- --- ----------<br>------------- ------ ------ ---- ---- ------- ----- -- ----<br>-------- ------- -- ---------- --- - --- ----- ----- ----<br>---- --- --- ----- --- ---- ---- ------- ----- ---- -------<br>--- --- -- ----- -- --- ---- -- --- ---- -- ------ ------<br>--- close -- ----,196092.45499997633,196091.50999999838,195599.753,195606.19999998016,195616.298,196099.344,,53,close
screen,html.Screen,1_1_0_1_54,2021-04-25T14:34:40.546Z,,,,,,,,,,,,,,,,53,,,,,,,,,,,,,,543.401000019192,,response,,,,99,,,,,,,Space,keypress(Space),,,,,,,,---- -- ----- -- ------ - ------- --- ----------<br>------------- ------ ------ ---- ---- ------- ----- -- ----<br>-------- ------- -- ---------- --- - --- ----- ----- ----<br>---- --- --- ----- --- ---- ---- ------- ----- ---- -------<br>--- --- -- ----- -- --- ---- -- --- ---- -- ------ ------<br>--- ----- at ----,196643.70499999495,196642.7450000192,196082.977,196092.7050000173,196099.344,196649.278,,54,at
screen,html.Screen,1_1_0_1_55,2021-04-25T14:34:41.140Z,,,,,,,,,,,,,,,,53,,,,,,,,,,,,,,587.6869999891496,,response,,,,99,,,,,,,Space,keypress(Space),,,,,,,,---- -- ----- -- ------ - ------- --- ----------<br>------------- ------ ------ ---- ---- ------- ----- -- ----<br>-------- ------- -- ---------- --- - --- ----- ----- ----<br>---- --- --- ----- --- ---- ---- ------- ----- ---- -------<br>--- --- -- ----- -- --- ---- -- --- ---- -- ------ ------<br>--- ----- -- all.,197237.91500000516,197236.96499998914,196632.903,196643.96499999566,196649.278,197249.36,,55,all.
Item 99,flow.Loop,1_1_0_1,2021-04-25T14:34:41.141Z,,,,,,,,,,,,,,,,,,,,,,,,,,,,,,30450.412999989145,,completion,,,,,C,,,,,,,,,,,silence,,,,,197238.43999998644,197236.96499998914,166753.452,166754.87499998417,166786.552,197249.36,,,
Question 1,html.Screen,1_1_0_2,2021-04-25T14:34:47.650Z,,,,,,,,,,,,,,,,,,,,,,,,,,,true,FALSE,,6497.014999987907,,response,,,,99,C,,,,,,FALSE,click #choice-2,,,,silence,,,,,203748.0649999925,203746.3749999879,197232.816,197238.68499998935,197249.36,203775.282,,,
Question 2,html.Screen,1_1_0_3,2021-04-25T14:34:54.785Z,,,,,,,,,,,,,,,,,,,,,,,,,,,true,TRUE,,7106.308000004501,,response,,,,99,C,,,,,,TRUE,click #choice-1,,,,silence,,,,,210883.12999997288,210881.5900000045,203731.924,203748.3549999888,203775.282,210897.384,,,
Item 99,flow.Sequence,1_1_0,2021-04-25T14:34:54.786Z,,,,,,,,,,,,,,,,,,,,,,,,,,,,,,54110.45300000452,,completion,,,,,,,,,,,,,,,,,,,,,210883.6499999743,210881.5900000045,156754.43,156761.45499997074,156771.137,210897.384,,,
Holding screen,html.Screen,1_1_1_0,2021-04-25T14:35:04.783Z,,,,,,,,,,,,,,,,,,,,,,,,,,,,,,9999.085000000021,,timeout,,,,,,,,,,,,,,,,,,,,,220880.60500001302,220879.545,210880.826,210883.94500000868,210897.384,220896.469,,,
screen,html.Screen,1_1_1_1_0,2021-04-25T14:35:05.432Z,,,,,,,,,,,,,,,,54,,,,,,,,,,,,,,632.711000012263,,response,,,,100,,,,,,,Space,keypress(Space),,,,,,,,At --- ---- --- ------ ----- ------- ---- -- --- ------- --<br>------- ---------- ------ -- ----- -- ----- -- ---- ------<br>--- ----- --- --- ------ -------- ----- --- ------ ----- --<br>----- ----- ---------- --- --- ------ ------ ---- -- ------<br>------- --- ------ ----- --- ---- ------- -- ---- --- --<br>------- ------,221530.23999999277,221529.18000001227,220879.545,220880.93499996467,220896.469,221546.408,,0,At
screen,html.Screen,1_1_1_1_1,2021-04-25T14:35:05.859Z,,,,,,,,,,,,,,,,54,,,,,,,,,,,,,,409.30699998914497,,response,,,,100,,,,,,,Space,keypress(Space),,,,,,,,-- the ---- --- ------ ----- ------- ---- -- --- ------- --<br>------- ---------- ------ -- ----- -- ----- -- ---- ------<br>--- ----- --- --- ------ -------- ----- --- ------ ----- --<br>----- ----- ---------- --- --- ------ ------ ---- -- ------<br>------- --- ------ ----- --- ---- ------- -- ---- --- --<br>------- ------,221956.7050000187,221955.71499998914,221529.726,221530.54000000702,221546.408,221962.63,,1,the
screen,html.Screen,1_1_1_1_2,2021-04-25T14:35:06.388Z,,,,,,,,,,,,,,,,54,,,,,,,,,,,,,,522.4800000087125,,response,,,,100,,,,,,,Space,keypress(Space),,,,,,,,-- --- time --- ------ ----- ------- ---- -- --- ------- --<br>------- ---------- ------ -- ----- -- ----- -- ---- ------<br>--- ----- --- --- ------ -------- ----- --- ------ ----- --<br>----- ----- ---------- --- --- ------ ------ ---- -- ------<br>------- --- ------ ----- --- ---- ------- -- ---- --- --<br>------- ------,222486.0650000046,222485.11000000872,221946.287,221956.9650000194,221962.63,222496.134,,2,time
screen,html.Screen,1_1_1_1_3,2021-04-25T14:35:06.915Z,,,,,,,,,,,,,,,,54,,,,,,,,,,,,,,516.136000006547,,response,,,,100,,,,,,,Space,keypress(Space),,,,,,,,-- --- ---- the ------ ----- ------- ---- -- --- ------- --<br>------- ---------- ------ -- ----- -- ----- -- ---- ------<br>--- ----- --- --- ------ -------- ----- --- ------ ----- --<br>----- ----- ---------- --- --- ------ ------ ---- -- ------<br>------- --- ------ ----- --- ---- ------- -- ---- --- --<br>------- ------,223013.18499998888,223012.27000000654,222479.302,222486.31499998737,222496.134,223029.545,,3,the
screen,html.Screen,1_1_1_1_4,2021-04-25T14:35:07.465Z,,,,,,,,,,,,,,,,54,,,,,,,,,,,,,,532.364999989426,,response,,,,100,,,,,,,Space,keypress(Space),,,,,,,,-- --- ---- --- French ----- ------- ---- -- --- ------- --<br>------- ---------- ------ -- ----- -- ----- -- ---- ------<br>--- ----- --- --- ------ -------- ----- --- ------ ----- --<br>----- ----- ---------- --- --- ------ ------ ---- -- ------<br>------- --- ------ ----- --- ---- ------- -- ---- --- --<br>------- ------,223562.97999998787,223561.90999998944,223012.888,223013.44999996945,223029.545,223579.469,,4,French
screen,html.Screen,1_1_1_1_5,2021-04-25T14:35:07.969Z,,,,,,,,,,,,,,,,54,,,,,,,,,,,,,,485.8760000099719,,response,,,,100,,,,,,,Space,keypress(Space),,,,,,,,-- --- ---- --- ------ crown ------- ---- -- --- ------- --<br>------- ---------- ------ -- ----- -- ----- -- ---- ------<br>--- ----- --- --- ------ -------- ----- --- ------ ----- --<br>----- ----- ---------- --- --- ------ ------ ---- -- ------<br>------- --- ------ ----- --- ---- ------- -- ---- --- --<br>------- ------,224066.3099999656,224065.34500000998,223562.723,223563.26500000432,223579.469,224079.383,,5,crown
screen,html.Screen,1_1_1_1_6,2021-04-25T14:35:08.511Z,,,,,,,,,,,,,,,,54,,,,,,,,,,,,,,528.6470000030531,,response,,,,100,,,,,,,Space,keypress(Space),,,,,,,,-- --- ---- --- ------ ----- secured ---- -- --- ------- --<br>------- ---------- ------ -- ----- -- ----- -- ---- ------<br>--- ----- --- --- ------ -------- ----- --- ------ ----- --<br>----- ----- ---------- --- --- ------ ------ ---- -- ------<br>------- --- ------ ----- --- ---- ------- -- ---- --- --<br>------- ------,224608.96499996306,224608.03000000305,224062.683,224066.56499998644,224079.383,224612.369,,6,secured
screen,html.Screen,1_1_1_1_7,2021-04-25T14:35:09.063Z,,,,,,,,,,,,,,,,54,,,,,,,,,,,,,,547.6960000036634,,response,,,,100,,,,,,,Space,keypress(Space),,,,,,,,-- --- ---- --- ------ ----- ------- much -- --- ------- --<br>------- ---------- ------ -- ----- -- ----- -- ---- ------<br>--- ----- --- --- ------ -------- ----- --- ------ ----- --<br>----- ----- ---------- --- --- ------ ------ ---- -- ------<br>------- --- ------ ----- --- ---- ------- -- ---- --- --<br>------- ------,225161.1949999933,225160.06500000367,224595.874,224609.22499996377,224612.369,225179.171,,7,much
screen,html.Screen,1_1_1_1_8,2021-04-25T14:35:09.590Z,,,,,,,,,,,,,,,,54,,,,,,,,,,,,,,507.2840000173019,,response,,,,100,,,,,,,Space,keypress(Space),,,,,,,,-- --- ---- --- ------ ----- ------- ---- of --- ------- --<br>------- ---------- ------ -- ----- -- ----- -- ---- ------<br>--- ----- --- --- ------ -------- ----- --- ------ ----- --<br>----- ----- ---------- --- --- ------ ------ ---- -- ------<br>------- --- ------ ----- --- ---- ------- -- ---- --- --<br>------- ------,225687.39999999525,225686.4550000173,225145.871,225161.45000001416,225179.171,225695.604,,8,of
screen,html.Screen,1_1_1_1_9,2021-04-25T14:35:10.127Z,,,,,,,,,,,,,,,,54,,,,,,,,,,,,,,528.5609999632579,,response,,,,100,,,,,,,Space,keypress(Space),,,,,,,,-- --- ---- --- ------ ----- ------- ---- -- its ------- --<br>------- ---------- ------ -- ----- -- ----- -- ---- ------<br>--- ----- --- --- ------ -------- ----- --- ------ ----- --<br>----- ----- ---------- --- --- ------ ------ ---- -- ------<br>------- --- ------ ----- --- ---- ------- -- ---- --- --<br>------- ------,226225.12000001734,226224.16499996325,225678.841,225687.6550000161,225695.604,226228.748,,9,its
screen,html.Screen,1_1_1_1_10,2021-04-25T14:35:10.617Z,,,,,,,,,,,,,,,,54,,,,,,,,,,,,,,485.41199997407966,,response,,,,100,,,,,,,Space,keypress(Space),,,,,,,,-- --- ---- --- ------ ----- ------- ---- -- --- revenue --<br>------- ---------- ------ -- ----- -- ----- -- ---- ------<br>--- ----- --- --- ------ -------- ----- --- ------ ----- --<br>----- ----- ---------- --- --- ------ ------ ---- -- ------<br>------- --- ------ ----- --- ---- ------- -- ---- --- --<br>------- ------,226715.1249999879,226714.15999997407,226212.104,226225.3849999979,226228.748,226729.046,,10,revenue
screen,html.Screen,1_1_1_1_11,2021-04-25T14:35:11.105Z,,,,,,,,,,,,,,,,54,,,,,,,,,,,,,,472.59399998476147,,response,,,,100,,,,,,,Space,keypress(Space),,,,,,,,-- --- ---- --- ------ ----- ------- ---- -- --- ------- by<br>------- ---------- ------ -- ----- -- ----- -- ---- ------<br>--- ----- --- --- ------ -------- ----- --- ------ ----- --<br>----- ----- ---------- --- --- ------ ------ ---- -- ------<br>------- --- ------ ----- --- ---- ------- -- ---- --- --<br>------- ------,227202.60499999858,227201.63999998476,226712.338,226715.38000000874,226729.046,227212.013,,11,by
screen,html.Screen,1_1_1_1_12,2021-04-25T14:35:11.595Z,,,,,,,,,,,,,,,,54,,,,,,,,,,,,,,480.14699997685966,,response,,,,100,,,,,,,Space,keypress(Space),,,,,,,,-- --- ---- --- ------ ----- ------- ---- -- --- ------- --<br>issuing ---------- ------ -- ----- -- ----- -- ---- ------<br>--- ----- --- --- ------ -------- ----- --- ------ ----- --<br>----- ----- ---------- --- --- ------ ------ ---- -- ------<br>------- --- ------ ----- --- ---- ------- -- ---- --- --<br>------- ------,227693.15999996616,227692.15999997687,227195.612,227202.85499998135,227212.013,227695.207,,12,issuing
screen,html.Screen,1_1_1_1_13,2021-04-25T14:35:12.113Z,,,,,,,,,,,,,,,,54,,,,,,,,,,,,,,514.2429999657325,,response,,,,100,,,,,,,Space,keypress(Space),,,,,,,,-- --- ---- --- ------ ----- ------- ---- -- --- ------- --<br>------- government ------ -- ----- -- ----- -- ---- ------<br>--- ----- --- --- ------ -------- ----- --- ------ ----- --<br>----- ----- ---------- --- --- ------ ------ ---- -- ------<br>------- --- ------ ----- --- ---- ------- -- ---- --- --<br>------- ------,228210.36500000628,228209.44999996573,227678.843,227693.4299999848,227695.207,228244.093,,13,government
screen,html.Screen,1_1_1_1_14,2021-04-25T14:35:12.639Z,,,,,,,,,,,,,,,,54,,,,,,,,,,,,,,491.53199997206684,,response,,,,100,,,,,,,Space,keypress(Space),,,,,,,,-- --- ---- --- ------ ----- ------- ---- -- --- ------- --<br>------- ---------- bonds. -- ----- -- ----- -- ---- ------<br>--- ----- --- --- ------ -------- ----- --- ------ ----- --<br>----- ----- ---------- --- --- ------ ------ ---- -- ------<br>------- --- ------ ----- --- ---- ------- -- ---- --- --<br>------- ------,228736.60499998368,228735.62499997206,228195.495,228210.61000000918,228244.093,228745.164,,14,bonds.
screen,html.Screen,1_1_1_1_15,2021-04-25T14:35:13.133Z,,,,,,,,,,,,,,,,54,,,,,,,,,,,,,,484.81099996564444,,response,,,,100,,,,,,,Space,keypress(Space),,,,,,,,-- --- ---- --- ------ ----- ------- ---- -- --- ------- --<br>------- ---------- ------ In ----- -- ----- -- ---- ------<br>--- ----- --- --- ------ -------- ----- --- ------ ----- --<br>----- ----- ---------- --- --- ------ ------ ---- -- ------<br>------- --- ------ ----- --- ---- ------- -- ---- --- --<br>------- ------,229230.92999996152,229229.97499996563,228728.483,228736.85499996645,228745.164,229245.353,,15,In
screen,html.Screen,1_1_1_1_16,2021-04-25T14:35:13.690Z,,,,,,,,,,,,,,,,54,,,,,,,,,,,,,,541.7070000023814,,response,,,,100,,,,,,,Space,keypress(Space),,,,,,,,"-- --- ---- --- ------ ----- ------- ---- -- --- ------- --<br>------- ---------- ------ -- 1727, -- ----- -- ---- ------<br>--- ----- --- --- ------ -------- ----- --- ------ ----- --<br>----- ----- ---------- --- --- ------ ------ ---- -- ------<br>------- --- ------ ----- --- ---- ------- -- ---- --- --<br>------- ------",229788.12499996275,229787.06000000238,229228.642,229231.18499998236,229245.353,229795.006,,16,"1727,"
screen,html.Screen,1_1_1_1_17,2021-04-25T14:35:14.245Z,,,,,,,,,,,,,,,,54,,,,,,,,,,,,,,546.9239999950514,,response,,,,100,,,,,,,Space,keypress(Space),,,,,,,,-- --- ---- --- ------ ----- ------- ---- -- --- ------- --<br>------- ---------- ------ -- ----- in ----- -- ---- ------<br>--- ----- --- --- ------ -------- ----- --- ------ ----- --<br>----- ----- ---------- --- --- ------ ------ ---- -- ------<br>------- --- ------ ----- --- ---- ------- -- ---- --- --<br>------- ------,230342.8899999708,230341.92999999505,229778.594,229788.41999999713,229795.006,230344.959,,17,in
screen,html.Screen,1_1_1_1_18,2021-04-25T14:35:14.822Z,,,,,,,,,,,,,,,,54,,,,,,,,,,,,,,574.1209999632847,,response,,,,100,,,,,,,Space,keypress(Space),,,,,,,,-- --- ---- --- ------ ----- ------- ---- -- --- ------- --<br>------- ---------- ------ -- ----- -- order -- ---- ------<br>--- ----- --- --- ------ -------- ----- --- ------ ----- --<br>----- ----- ---------- --- --- ------ ------ ---- -- ------<br>------- --- ------ ----- --- ---- ------- -- ---- --- --<br>------- ------,230920.1849999954,230919.0799999633,230328.257,230343.14000001177,230344.959,230928.221,,18,order
screen,html.Screen,1_1_1_1_19,2021-04-25T14:35:15.342Z,,,,,,,,,,,,,,,,54,,,,,,,,,,,,,,510.1189999933413,,response,,,,100,,,,,,,Space,keypress(Space),,,,,,,,-- --- ---- --- ------ ----- ------- ---- -- --- ------- --<br>------- ---------- ------ -- ----- -- ----- to ---- ------<br>--- ----- --- --- ------ -------- ----- --- ------ ----- --<br>----- ----- ---------- --- --- ------ ------ ---- -- ------<br>------- --- ------ ----- --- ---- ------- -- ---- --- --<br>------- ------,231439.29000000935,231438.33999999333,230911.806,230920.4899999895,230928.221,231444.732,,19,to
screen,html.Screen,1_1_1_1_20,2021-04-25T14:35:15.910Z,,,,,,,,,,,,,,,,54,,,,,,,,,,,,,,561.6130000016128,,response,,,,100,,,,,,,Space,keypress(Space),,,,,,,,-- --- ---- --- ------ ----- ------- ---- -- --- ------- --<br>------- ---------- ------ -- ----- -- ----- -- save ------<br>--- ----- --- --- ------ -------- ----- --- ------ ----- --<br>----- ----- ---------- --- --- ------ ------ ---- -- ------<br>------- --- ------ ----- --- ---- ------- -- ---- --- --<br>------- ------,232007.31000001542,232006.3450000016,231428.382,231439.55000001006,231444.732,232011.346,,20,save
screen,html.Screen,1_1_1_1_21,2021-04-25T14:35:16.424Z,,,,,,,,,,,,,,,,54,,,,,,,,,,,,,,510.293999991758,,response,,,,100,,,,,,,Space,keypress(Space),,,,,,,,"-- --- ---- --- ------ ----- ------- ---- -- --- ------- --<br>------- ---------- ------ -- ----- -- ----- -- ---- money,<br>--- ----- --- --- ------ -------- ----- --- ------ ----- --<br>----- ----- ---------- --- --- ------ ------ ---- -- ------<br>------- --- ------ ----- --- ---- ------- -- ---- --- --<br>------- ------",232522.02500001295,232521.63999999175,231994.988,232007.5599999982,232011.346,232528.045,,21,"money,"
screen,html.Screen,1_1_1_1_22,2021-04-25T14:35:16.967Z,,,,,,,,,,,,,,,,54,,,,,,,,,,,,,,536.1099999709113,,response,,,,100,,,,,,,Space,keypress(Space),,,,,,,,-- --- ---- --- ------ ----- ------- ---- -- --- ------- --<br>------- ---------- ------ -- ----- -- ----- -- ---- ------<br>the ----- --- --- ------ -------- ----- --- ------ ----- --<br>----- ----- ---------- --- --- ------ ------ ---- -- ------<br>------- --- ------ ----- --- ---- ------- -- ---- --- --<br>------- ------,233065.13499998255,233064.15499997092,232511.635,232522.11499999976,232528.045,233078.22,,22,the
screen,html.Screen,1_1_1_1_23,2021-04-25T14:35:17.455Z,,,,,,,,,,,,,,,,54,,,,,,,,,,,,,,473.46500001309323,,response,,,,100,,,,,,,Space,keypress(Space),,,,,,,,-- --- ---- --- ------ ----- ------- ---- -- --- ------- --<br>------- ---------- ------ -- ----- -- ----- -- ---- ------<br>--- state --- --- ------ -------- ----- --- ------ ----- --<br>----- ----- ---------- --- --- ------ ------ ---- -- ------<br>------- --- ------ ----- --- ---- ------- -- ---- --- --<br>------- ------,233552.6049999753,233551.6850000131,233061.52,233065.3900000034,233078.22,233561.35,,23,state
screen,html.Screen,1_1_1_1_24,2021-04-25T14:35:18.002Z,,,,,,,,,,,,,,,,54,,,,,,,,,,,,,,537.6150000119524,,response,,,,100,,,,,,,Space,keypress(Space),,,,,,,,-- --- ---- --- ------ ----- ------- ---- -- --- ------- --<br>------- ---------- ------ -- ----- -- ----- -- ---- ------<br>--- ----- cut --- ------ -------- ----- --- ------ ----- --<br>----- ----- ---------- --- --- ------ ------ ---- -- ------<br>------- --- ------ ----- --- ---- ------- -- ---- --- --<br>------- ------,234099.9399999855,234098.96500001196,233544.79,233552.85999999614,233561.35,234111.397,,24,cut
screen,html.Screen,1_1_1_1_25,2021-04-25T14:35:18.556Z,,,,,,,,,,,,,,,,54,,,,,,,,,,,,,,540.8480000047712,,response,,,,100,,,,,,,Space,keypress(Space),,,,,,,,-- --- ---- --- ------ ----- ------- ---- -- --- ------- --<br>------- ---------- ------ -- ----- -- ----- -- ---- ------<br>--- ----- --- the ------ -------- ----- --- ------ ----- --<br>----- ----- ---------- --- --- ------ ------ ---- -- ------<br>------- --- ------ ----- --- ---- ------- -- ---- --- --<br>------- ------,234653.3150000032,234652.24500000477,234094.687,234100.20499996608,234111.397,234661.058,,25,the
screen,html.Screen,1_1_1_1_26,2021-04-25T14:35:19.060Z,,,,,,,,,,,,,,,,54,,,,,,,,,,,,,,496.042000011279,,response,,,,100,,,,,,,Space,keypress(Space),,,,,,,,-- --- ---- --- ------ ----- ------- ---- -- --- ------- --<br>------- ---------- ------ -- ----- -- ----- -- ---- ------<br>--- ----- --- --- bonds' -------- ----- --- ------ ----- --<br>----- ----- ---------- --- --- ------ ------ ---- -- ------<br>------- --- ------ ----- --- ---- ------- -- ---- --- --<br>------- ------,235158.04499998922,235157.10000001127,234644.578,234653.5900000017,234661.058,235160.944,,26,bonds'
screen,html.Screen,1_1_1_1_27,2021-04-25T14:35:19.558Z,,,,,,,,,,,,,,,,54,,,,,,,,,,,,,,494.1760000103677,,response,,,,100,,,,,,,Space,keypress(Space),,,,,,,,-- --- ---- --- ------ ----- ------- ---- -- --- ------- --<br>------- ---------- ------ -- ----- -- ----- -- ---- ------<br>--- ----- --- --- ------ interest ----- --- ------ ----- --<br>----- ----- ---------- --- --- ------ ------ ---- -- ------<br>------- --- ------ ----- --- ---- ------- -- ---- --- --<br>------- ------,235656.0649999883,235655.12000001036,235144.581,235158.31500000786,235160.944,235660.887,,27,interest
screen,html.Screen,1_1_1_1_28,2021-04-25T14:35:20.107Z,,,,,,,,,,,,,,,,54,,,,,,,,,,,,,,543.3030000185827,,response,,,,100,,,,,,,Space,keypress(Space),,,,,,,,-- --- ---- --- ------ ----- ------- ---- -- --- ------- --<br>------- ---------- ------ -- ----- -- ----- -- ---- ------<br>--- ----- --- --- ------ -------- rate. --- ------ ----- --<br>----- ----- ---------- --- --- ------ ------ ---- -- ------<br>------- --- ------ ----- --- ---- ------- -- ---- --- --<br>------- ------,236205.13000001665,236204.19000001857,235644.505,235656.34499996668,235660.887,236210.831,,28,rate.
screen,html.Screen,1_1_1_1_29,2021-04-25T14:35:20.638Z,,,,,,,,,,,,,,,,54,,,,,,,,,,,,,,523.5089999663178,,response,,,,100,,,,,,,Space,keypress(Space),,,,,,,,-- --- ---- --- ------ ----- ------- ---- -- --- ------- --<br>------- ---------- ------ -- ----- -- ----- -- ---- ------<br>--- ----- --- --- ------ -------- ----- The ------ ----- --<br>----- ----- ---------- --- --- ------ ------ ---- -- ------<br>------- --- ------ ----- --- ---- ------- -- ---- --- --<br>------- ------,236735.2649999666,236734.33999996632,236194.479,236205.39000001736,236210.831,236744.164,,29,The
screen,html.Screen,1_1_1_1_30,2021-04-25T14:35:21.155Z,,,,,,,,,,,,,,,,54,,,,,,,,,,,,,,507.3709999885177,,response,,,,100,,,,,,,Space,keypress(Space),,,,,,,,-- --- ---- --- ------ ----- ------- ---- -- --- ------- --<br>------- ---------- ------ -- ----- -- ----- -- ---- ------<br>--- ----- --- --- ------ -------- ----- --- market ----- --<br>----- ----- ---------- --- --- ------ ------ ---- -- ------<br>------- --- ------ ----- --- ---- ------- -- ---- --- --<br>------- ------,237252.55500001367,237251.5349999885,236727.682,236735.53499998525,236744.164,237260.748,,30,market
screen,html.Screen,1_1_1_1_31,2021-04-25T14:35:21.705Z,,,,,,,,,,,,,,,,54,,,,,,,,,,,,,,541.3619999896327,,response,,,,100,,,,,,,Space,keypress(Space),,,,,,,,-- --- ---- --- ------ ----- ------- ---- -- --- ------- --<br>------- ---------- ------ -- ----- -- ----- -- ---- ------<br>--- ----- --- --- ------ -------- ----- --- ------ value --<br>----- ----- ---------- --- --- ------ ------ ---- -- ------<br>------- --- ------ ----- --- ---- ------- -- ---- --- --<br>------- ------,237802.99499997636,237802.10999998963,237244.345,237252.80499999644,237260.748,237810.714,,31,value
screen,html.Screen,1_1_1_1_32,2021-04-25T14:35:22.214Z,,,,,,,,,,,,,,,,54,,,,,,,,,,,,,,499.9409999792988,,response,,,,100,,,,,,,Space,keypress(Space),,,,,,,,-- --- ---- --- ------ ----- ------- ---- -- --- ------- --<br>------- ---------- ------ -- ----- -- ----- -- ---- ------<br>--- ----- --- --- ------ -------- ----- --- ------ ----- of<br>----- ----- ---------- --- --- ------ ------ ---- -- ------<br>------- --- ------ ----- --- ---- ------- -- ---- --- --<br>------- ------,238311.55499996385,238310.6549999793,237794.207,237803.25499997707,237810.714,238327.564,,32,of
screen,html.Screen,1_1_1_1_33,2021-04-25T14:35:22.725Z,,,,,,,,,,,,,,,,54,,,,,,,,,,,,,,494.3359999808017,,response,,,,100,,,,,,,Space,keypress(Space),,,,,,,,-- --- ---- --- ------ ----- ------- ---- -- --- ------- --<br>------- ---------- ------ -- ----- -- ----- -- ---- ------<br>--- ----- --- --- ------ -------- ----- --- ------ ----- --<br>these ----- ---------- --- --- ------ ------ ---- -- ------<br>------- --- ------ ----- --- ---- ------- -- ---- --- --<br>------- ------,238822.82000000123,238821.89999998081,238310.794,238311.80500000482,238327.564,238827.146,,33,these
screen,html.Screen,1_1_1_1_34,2021-04-25T14:35:23.241Z,,,,,,,,,,,,,,,,54,,,,,,,,,,,,,,511.0739999759826,,response,,,,100,,,,,,,Space,keypress(Space),,,,,,,,-- --- ---- --- ------ ----- ------- ---- -- --- ------- --<br>------- ---------- ------ -- ----- -- ----- -- ---- ------<br>--- ----- --- --- ------ -------- ----- --- ------ ----- --<br>----- bonds ---------- --- --- ------ ------ ---- -- ------<br>------- --- ------ ----- --- ---- ------- -- ---- --- --<br>------- ------,239339.169999992,239338.219999976,238810.767,238823.09499999974,238827.146,239343.695,,34,bonds
screen,html.Screen,1_1_1_1_35,2021-04-25T14:35:23.897Z,,,,,,,,,,,,,,,,54,,,,,,,,,,,,,,649.7049999775481,,response,,,,100,,,,,,,Space,keypress(Space),,,,,,,,"-- --- ---- --- ------ ----- ------- ---- -- --- ------- --<br>------- ---------- ------ -- ----- -- ----- -- ---- ------<br>--- ----- --- --- ------ -------- ----- --- ------ ----- --<br>----- ----- plummeted, --- --- ------ ------ ---- -- ------<br>------- --- ------ ----- --- ---- ------- -- ---- --- --<br>------- ------",239994.30999998003,239993.39999997756,239327.218,239339.42500001285,239343.695,240010.681,,35,"plummeted,"
screen,html.Screen,1_1_1_1_36,2021-04-25T14:35:24.420Z,,,,,,,,,,,,,,,,54,,,,,,,,,,,,,,506.15400001671514,,response,,,,100,,,,,,,Space,keypress(Space),,,,,,,,-- --- ---- --- ------ ----- ------- ---- -- --- ------- --<br>------- ---------- ------ -- ----- -- ----- -- ---- ------<br>--- ----- --- --- ------ -------- ----- --- ------ ----- --<br>----- ----- ---------- and --- ------ ------ ---- -- ------<br>------- --- ------ ----- --- ---- ------- -- ---- --- --<br>------- ------,240517.75499997893,240516.83500001673,239993.94,239994.56500000088,240010.681,240527.113,,36,and
screen,html.Screen,1_1_1_1_37,2021-04-25T14:35:24.955Z,,,,,,,,,,,,,,,,54,,,,,,,,,,,,,,524.5369999794057,,response,,,,100,,,,,,,Space,keypress(Space),,,,,,,,-- --- ---- --- ------ ----- ------- ---- -- --- ------- --<br>------- ---------- ------ -- ----- -- ----- -- ---- ------<br>--- ----- --- --- ------ -------- ----- --- ------ ----- --<br>----- ----- ---------- --- the ------ ------ ---- -- ------<br>------- --- ------ ----- --- ---- ------- -- ---- --- --<br>------- ------,241052.6049999753,241051.64999997942,240510.549,240518.01499997964,240527.113,241060.288,,37,the
screen,html.Screen,1_1_1_1_38,2021-04-25T14:35:25.511Z,,,,,,,,,,,,,,,,54,,,,,,,,,,,,,,547.041999969806,,response,,,,100,,,,,,,Space,keypress(Space),,,,,,,,-- --- ---- --- ------ ----- ------- ---- -- --- ------- --<br>------- ---------- ------ -- ----- -- ----- -- ---- ------<br>--- ----- --- --- ------ -------- ----- --- ------ ----- --<br>----- ----- ---------- --- --- market ------ ---- -- ------<br>------- --- ------ ----- --- ---- ------- -- ---- --- --<br>------- ------,241608.26499998802,241607.3299999698,241043.789,241052.85500001628,241060.288,241640.489,,38,market
screen,html.Screen,1_1_1_1_39,2021-04-25T14:35:26.093Z,,,,,,,,,,,,,,,,54,,,,,,,,,,,,,,548.8259999668808,,response,,,,100,,,,,,,Space,keypress(Space),,,,,,,,-- --- ---- --- ------ ----- ------- ---- -- --- ------- --<br>------- ---------- ------ -- ----- -- ----- -- ---- ------<br>--- ----- --- --- ------ -------- ----- --- ------ ----- --<br>----- ----- ---------- --- --- ------ became ---- -- ------<br>------- --- ------ ----- --- ---- ------- -- ---- --- --<br>------- ------,242190.26000000304,242189.31499996688,241593.793,241608.52000000887,241640.489,242193.373,,39,became
screen,html.Screen,1_1_1_1_40,2021-04-25T14:35:26.706Z,,,,,,,,,,,,,,,,54,,,,,,,,,,,,,,609.6570000100473,,response,,,,100,,,,,,,Space,keypress(Space),,,,,,,,-- --- ---- --- ------ ----- ------- ---- -- --- ------- --<br>------- ---------- ------ -- ----- -- ----- -- ---- ------<br>--- ----- --- --- ------ -------- ----- --- ------ ----- --<br>----- ----- ---------- --- --- ------ ------ wary -- ------<br>------- --- ------ ----- --- ---- ------- -- ---- --- --<br>------- ------,242803.96499997005,242803.03000001004,242176.954,242190.54499996128,242193.373,242809.967,,40,wary
screen,html.Screen,1_1_1_1_41,2021-04-25T14:35:27.271Z,,,,,,,,,,,,,,,,54,,,,,,,,,,,,,,557.8480000050622,,response,,,,100,,,,,,,Space,keypress(Space),,,,,,,,-- --- ---- --- ------ ----- ------- ---- -- --- ------- --<br>------- ---------- ------ -- ----- -- ----- -- ---- ------<br>--- ----- --- --- ------ -------- ----- --- ------ ----- --<br>----- ----- ---------- --- --- ------ ------ ---- of ------<br>------- --- ------ ----- --- ---- ------- -- ---- --- --<br>------- ------,243368.7800000189,243367.81500000507,242793.596,242804.21500001103,242809.967,243376.69,,41,of
screen,html.Screen,1_1_1_1_42,2021-04-25T14:35:27.807Z,,,,,,,,,,,,,,,,54,,,,,,,,,,,,,,526.9199999793782,,response,,,,100,,,,,,,Space,keypress(Space),,,,,,,,-- --- ---- --- ------ ----- ------- ---- -- --- ------- --<br>------- ---------- ------ -- ----- -- ----- -- ---- ------<br>--- ----- --- --- ------ -------- ----- --- ------ ----- --<br>----- ----- ---------- --- --- ------ ------ ---- -- French<br>------- --- ------ ----- --- ---- ------- -- ---- --- --<br>------- ------,243904.5449999976,243903.60999997938,243360.048,243369.03000000166,243376.69,243909.811,,42,French
screen,html.Screen,1_1_1_1_43,2021-04-25T14:35:28.365Z,,,,,,,,,,,,,,,,54,,,,,,,,,,,,,,552.0489999812562,,response,,,,100,,,,,,,Space,keypress(Space),,,,,,,,-- --- ---- --- ------ ----- ------- ---- -- --- ------- --<br>------- ---------- ------ -- ----- -- ----- -- ---- ------<br>--- ----- --- --- ------ -------- ----- --- ------ ----- --<br>----- ----- ---------- --- --- ------ ------ ---- -- ------<br>credit. --- ------ ----- --- ---- ------- -- ---- --- --<br>------- ------,244462.8050000174,244461.85999998124,243893.451,243904.80000001844,243909.811,244476.736,,43,credit.
screen,html.Screen,1_1_1_1_44,2021-04-25T14:35:28.958Z,,,,,,,,,,,,,,,,54,,,,,,,,,,,,,,578.0939999791153,,response,,,,100,,,,,,,Space,keypress(Space),,,,,,,,-- --- ---- --- ------ ----- ------- ---- -- --- ------- --<br>------- ---------- ------ -- ----- -- ----- -- ---- ------<br>--- ----- --- --- ------ -------- ----- --- ------ ----- --<br>----- ----- ---------- --- --- ------ ------ ---- -- ------<br>------- The ------ ----- --- ---- ------- -- ---- --- --<br>------- ------,245055.7699999772,245054.82999997912,244460.009,244463.0650000181,244476.736,245059.726,,44,The
screen,html.Screen,1_1_1_1_45,2021-04-25T14:35:29.532Z,,,,,,,,,,,,,,,,54,,,,,,,,,,,,,,568.7939999692899,,response,,,,100,,,,,,,Space,keypress(Space),,,,,,,,-- --- ---- --- ------ ----- ------- ---- -- --- ------- --<br>------- ---------- ------ -- ----- -- ----- -- ---- ------<br>--- ----- --- --- ------ -------- ----- --- ------ ----- --<br>----- ----- ---------- --- --- ------ ------ ---- -- ------<br>------- --- French ----- --- ---- ------- -- ---- --- --<br>------- ------,245629.49500000104,245628.51999996928,245043.289,245056.0299999779,245059.726,245643.258,,45,French
screen,html.Screen,1_1_1_1_46,2021-04-25T14:35:30.096Z,,,,,,,,,,,,,,,,54,,,,,,,,,,,,,,549.8819999884872,,response,,,,100,,,,,,,Space,keypress(Space),,,,,,,,-- --- ---- --- ------ ----- ------- ---- -- --- ------- --<br>------- ---------- ------ -- ----- -- ----- -- ---- ------<br>--- ----- --- --- ------ -------- ----- --- ------ ----- --<br>----- ----- ---------- --- --- ------ ------ ---- -- ------<br>------- --- ------ state --- ---- ------- -- ---- --- --<br>------- ------,246194.0450000111,246193.1399999885,245626.545,245629.75999998162,245643.258,246209.849,,46,state
screen,html.Screen,1_1_1_1_47,2021-04-25T14:35:30.664Z,,,,,,,,,,,,,,,,54,,,,,,,,,,,,,,551.4259999971255,,response,,,,100,,,,,,,Space,keypress(Space),,,,,,,,-- --- ---- --- ------ ----- ------- ---- -- --- ------- --<br>------- ---------- ------ -- ----- -- ----- -- ---- ------<br>--- ----- --- --- ------ -------- ----- --- ------ ----- --<br>----- ----- ---------- --- --- ------ ------ ---- -- ------<br>------- --- ------ ----- was ---- ------- -- ---- --- --<br>------- ------,246762.19500001753,246761.2749999971,246192.781,246194.3050000118,246209.849,246776.446,,47,was
screen,html.Screen,1_1_1_1_48,2021-04-25T14:35:31.254Z,,,,,,,,,,,,,,,,54,,,,,,,,,,,,,,574.7590000135824,,response,,,,100,,,,,,,Space,keypress(Space),,,,,,,,-- --- ---- --- ------ ----- ------- ---- -- --- ------- --<br>------- ---------- ------ -- ----- -- ----- -- ---- ------<br>--- ----- --- --- ------ -------- ----- --- ------ ----- --<br>----- ----- ---------- --- --- ------ ------ ---- -- ------<br>------- --- ------ ----- --- left ------- -- ---- --- --<br>------- ------,247352.13000001386,247351.20500001358,246759.723,246762.44999998016,246776.446,247359.446,,48,left
screen,html.Screen,1_1_1_1_49,2021-04-25T14:35:31.844Z,,,,,,,,,,,,,,,,54,,,,,,,,,,,,,,581.003999994602,,response,,,,100,,,,,,,Space,keypress(Space),,,,,,,,-- --- ---- --- ------ ----- ------- ---- -- --- ------- --<br>------- ---------- ------ -- ----- -- ----- -- ---- ------<br>--- ----- --- --- ------ -------- ----- --- ------ ----- --<br>----- ----- ---------- --- --- ------ ------ ---- -- ------<br>------- --- ------ ----- --- ---- without -- ---- --- --<br>------- ------,247941.41999998828,247940.4499999946,247342.971,247352.42499999003,247359.446,247974,,49,without
screen,html.Screen,1_1_1_1_50,2021-04-25T14:35:32.392Z,,,,,,,,,,,,,,,,54,,,,,,,,,,,,,,515.1550000174902,,response,,,,100,,,,,,,Space,keypress(Space),,,,,,,,-- --- ---- --- ------ ----- ------- ---- -- --- ------- --<br>------- ---------- ------ -- ----- -- ----- -- ---- ------<br>--- ----- --- --- ------ -------- ----- --- ------ ----- --<br>----- ----- ---------- --- --- ------ ------ ---- -- ------<br>------- --- ------ ----- --- ---- ------- an ---- --- --<br>------- ------,248490.05500000203,248489.1550000175,247926.024,247941.6649999912,247974,248492.547,,50,an
screen,html.Screen,1_1_1_1_51,2021-04-25T14:35:32.891Z,,,,,,,,,,,,,,,,54,,,,,,,,,,,,,,495.3980000007723,,response,,,,100,,,,,,,Space,keypress(Space),,,,,,,,-- --- ---- --- ------ ----- ------- ---- -- --- ------- --<br>------- ---------- ------ -- ----- -- ----- -- ---- ------<br>--- ----- --- --- ------ -------- ----- --- ------ ----- --<br>----- ----- ---------- --- --- ------ ------ ---- -- ------<br>------- --- ------ ----- --- ---- ------- -- easy --- --<br>------- ------,248988.91000001458,248987.94500000076,248476.19,248490.289999987,248492.547,248992.491,,51,easy
screen,html.Screen,1_1_1_1_52,2021-04-25T14:35:33.411Z,,,,,,,,,,,,,,,,54,,,,,,,,,,,,,,515.6740000065474,,response,,,,100,,,,,,,Space,keypress(Space),,,,,,,,-- --- ---- --- ------ ----- ------- ---- -- --- ------- --<br>------- ---------- ------ -- ----- -- ----- -- ---- ------<br>--- ----- --- --- ------ -------- ----- --- ------ ----- --<br>----- ----- ---------- --- --- ------ ------ ---- -- ------<br>------- --- ------ ----- --- ---- ------- -- ---- way --<br>------- ------,249509.11499996437,249508.16500000656,248976.084,248989.1850000131,248992.491,249526.098,,52,way
screen,html.Screen,1_1_1_1_53,2021-04-25T14:35:33.966Z,,,,,,,,,,,,,,,,54,,,,,,,,,,,,,,536.9070000036154,,response,,,,100,,,,,,,Space,keypress(Space),,,,,,,,-- --- ---- --- ------ ----- ------- ---- -- --- ------- --<br>------- ---------- ------ -- ----- -- ----- -- ---- ------<br>--- ----- --- --- ------ -------- ----- --- ------ ----- --<br>----- ----- ---------- --- --- ------ ------ ---- -- ------<br>------- --- ------ ----- --- ---- ------- -- ---- --- of<br>------- ------,250063.95499996142,250063.0050000036,249509.444,249509.37499996508,249526.098,250075.982,,53,of
screen,html.Screen,1_1_1_1_54,2021-04-25T14:35:34.451Z,,,,,,,,,,,,,,,,54,,,,,,,,,,,,,,472.27800001049764,,response,,,,100,,,,,,,Space,keypress(Space),,,,,,,,-- --- ---- --- ------ ----- ------- ---- -- --- ------- --<br>------- ---------- ------ -- ----- -- ----- -- ---- ------<br>--- ----- --- --- ------ -------- ----- --- ------ ----- --<br>----- ----- ---------- --- --- ------ ------ ---- -- ------<br>------- --- ------ ----- --- ---- ------- -- ---- --- --<br>raising ------,250549.21999998624,250548.2600000105,250058.98,250064.21499996213,250075.982,250559.207,,54,raising
screen,html.Screen,1_1_1_1_55,2021-04-25T14:35:34.885Z,,,,,,,,,,,,,,,,54,,,,,,,,,,,,,,422.58299999072915,,response,,,,100,,,,,,,Space,keypress(Space),,,,,,,,-- --- ---- --- ------ ----- ------- ---- -- --- ------- --<br>------- ---------- ------ -- ----- -- ----- -- ---- ------<br>--- ----- --- --- ------ -------- ----- --- ------ ----- --<br>----- ----- ---------- --- --- ------ ------ ---- -- ------<br>------- --- ------ ----- --- ---- ------- -- ---- --- --<br>------- money.,250982.714999991,250981.78999999072,250542.608,250549.47500000708,250559.207,250992.15,,55,money.
Item 100,flow.Loop,1_1_1_1,2021-04-25T14:35:34.885Z,,,,,,,,,,,,,,,,,,,,,,,,,,,,,,30085.320999990712,,completion,,,,,C,,,,,,,,,,,silence,,,,,250983.18500001915,250981.78999999072,220879.545,220880.85000001593,220896.469,250992.15,,,
Question 1,html.Screen,1_1_1_2,2021-04-25T14:35:39.257Z,,,,,,,,,,,,,,,,,,,,,,,,,,,true,TRUE,,4360.714999964373,,response,,,,100,C,,,,,,TRUE,click #choice-1,,,,silence,,,,,255354.45499996422,255352.86499996437,250975.735,250983.39499998838,250992.15,255358.376,,,
Question 2,html.Screen,1_1_1_3,2021-04-25T14:35:41.574Z,,,,,,,,,,,,,,,,,,,,,,,,,,,true,FALSE,,2311.6890000129933,,response,,,,100,C,,,,,,FALSE,click #choice-2,,,,silence,,,,,257671.55500000808,257670.06500001298,255341.829,255354.7350000008,255358.376,257674.731,,,
Item 100,flow.Sequence,1_1_1,2021-04-25T14:35:41.574Z,,,,,,,,,,,,,,,,,,,,,,,,,,,,,,46772.68100001299,,completion,,,,,,,,,,,,,,,,,,,,,257671.97500000475,257670.06500001298,210880.826,210883.86999996146,210897.384,257674.731,,,
End of Practice,html.Page,1_1_2,2021-04-25T14:35:51.779Z,,,,,,,,,,,,,,,,,,,,,,,,,,,,,,10201.318999962561,,form submission,,,,,,,,,,,,,,,,,,,,,267876.50000001304,267876.04999996256,257658.161,257672.1799999941,257674.731,267890.277,,,
Practice,flow.Sequence,1_1,2021-04-25T14:35:51.779Z,,,,,,,,,,,,,,,,,,,,,,,,,,,,,,111104.91299996257,,completion,,,,,,,,,,,,,,,,,,,,,267876.92499998957,267876.04999996256,156754.43,156761.37500000186,156771.137,267890.277,,,
Trap_instruction,html.Page,1_2_0,2021-04-25T14:35:57.940Z,,,,,,,,,,,,,,,,,,,,,,,,,,,,,,6146.732999970904,,form submission,,,,,,,,,,,,,,,,,,,,,274037.59999998147,274037.0099999709,267873.446,267877.1950000082,267890.277,274072.582,,,
trap_trial,html.Screen,1_2_1,2021-04-25T14:36:01.383Z,,,,,,,,,,,,,,,,,,,,,,,,,,,true,1,,3406.3479999829433,,response,,,,,,,,,,,1,click #choice-1,,,,,,,,,277480.41999997804,277478.92999998294,274022.733,274037.84999996424,274072.582,277488.805,,,
end of trap trial,html.Page,1_2_2,2021-04-25T14:36:03.369Z,,,,,,,,,,,,,,,,,,,,,,,,,,,,,,1977.6249999713036,,form submission,,,,,,,,,,,,,,,,,,,,,279466.88500000164,279466.4299999713,277472.173,277480.6899999967,277488.805,279471.868,,,
Trap 1,flow.Sequence,1_2,2021-04-25T14:36:03.369Z,,,,,,,,,,,,,,,,,,,,,,,,,,,,,,11576.152999971295,,completion,,,,,,,,,,,,,,,,,,,,,279467.26499998476,279466.4299999713,267873.446,267877.12499999907,267890.277,279471.868,,,
Standby,html.Page,1_3_0,2021-04-25T14:36:11.358Z,,,,,,,,,,,,,,,,,,,,,,,,,,,,,,7999.168000000005,,timeout,,,,,,,,,,,,,,,,,,,,,287455.5549999932,287454.403,279455.26,279467.52999996534,279471.868,287471.036,,,
Holding screen,html.Screen,1_3_1_0_0,2021-04-25T14:36:18.357Z,,,,,,,,,,,,,,,,,,,,,,,,,,,,,,6999.230999999971,,timeout,,,,,,,,,,,,,,,,,,,,,294454.4149999856,294453.311,287454.403,287455.9400000144,287471.036,294470.267,,,
screen,html.Screen,1_3_1_0_1_0,2021-04-25T14:36:19.023Z,,,,,,,,,,,,,,,,51,,,,,,,,,,,,,,649.4629999767058,,response,,,,13,C,,,,,,Space,keypress(Space),,,,instrumental,,,,American -------- --- --- ---- --- --- ------ -- --------<br>---- --------- --- ------- ------------ ---------- ---------<br>--- ---------- ------- ---------- ------- -- -------- ----<br>---- --- ------ ----- ------ -- ---- --- ----- -- - -------<br>-------- -- --- --- -- ----- ----------- ----- -----------<br>---- --- ---------- --- ---- --- -- ----------,295121.01499998244,295119.7299999767,294453.311,294454.78999998886,294470.267,295136.806,,0,American
screen,html.Screen,1_3_1_0_1_1,2021-04-25T14:36:19.612Z,,,,,,,,,,,,,,,,51,,,,,,,,,,,,,,572.4040000009118,,response,,,,13,C,,,,,,Space,keypress(Space),,,,instrumental,,,,-------- industry --- --- ---- --- --- ------ -- --------<br>---- --------- --- ------- ------------ ---------- ---------<br>--- ---------- ------- ---------- ------- -- -------- ----<br>---- --- ------ ----- ------ -- ---- --- ----- -- - -------<br>-------- -- --- --- -- ----- ----------- ----- -----------<br>---- --- ---------- --- ---- --- -- ----------,295710.1799999946,295709.2100000009,295120.062,295121.4649999747,295136.806,295719.857,,1,industry
screen,html.Screen,1_3_1_0_1_2,2021-04-25T14:36:20.181Z,,,,,,,,,,,,,,,,51,,,,,,,,,,,,,,557.9780000153114,,response,,,,13,C,,,,,,Space,keypress(Space),,,,instrumental,,,,-------- -------- may --- ---- --- --- ------ -- --------<br>---- --------- --- ------- ------------ ---------- ---------<br>--- ---------- ------- ---------- ------- -- -------- ----<br>---- --- ------ ----- ------ -- ---- --- ----- -- - -------<br>-------- -- --- --- -- ----- ----------- ----- -----------<br>---- --- ---------- --- ---- --- -- ----------,296278.8099999889,296277.83500001533,295703.138,295710.44499997515,295719.857,296286.399,,2,may
screen,html.Screen,1_3_1_0_1_3,2021-04-25T14:36:20.705Z,,,,,,,,,,,,,,,,51,,,,,,,,,,,,,,515.9510000126902,,response,,,,13,C,,,,,,Space,keypress(Space),,,,instrumental,,,,-------- -------- --- not ---- --- --- ------ -- --------<br>---- --------- --- ------- ------------ ---------- ---------<br>--- ---------- ------- ---------- ------- -- -------- ----<br>---- --- ------ ----- ------ -- ---- --- ----- -- - -------<br>-------- -- --- --- -- ----- ----------- ----- -----------<br>---- --- ---------- --- ---- --- -- ----------,296803.2949999906,296802.35000001267,296269.926,296279.0650000097,296286.399,296819.794,,3,not
screen,html.Screen,1_3_1_0_1_4,2021-04-25T14:36:21.231Z,,,,,,,,,,,,,,,,51,,,,,,,,,,,,,,508.47100001829676,,response,,,,13,C,,,,,,Space,keypress(Space),,,,instrumental,,,,-------- -------- --- --- know --- --- ------ -- --------<br>---- --------- --- ------- ------------ ---------- ---------<br>--- ---------- ------- ---------- ------- -- -------- ----<br>---- --- ------ ----- ------ -- ---- --- ----- -- - -------<br>-------- -- --- --- -- ----- ----------- ----- -----------<br>---- --- ---------- --- ---- --- -- ----------,297329.2800000054,297328.2650000183,296803.138,296803.5849999869,296819.794,297336.223,,4,know
screen,html.Screen,1_3_1_0_1_5,2021-04-25T14:36:21.824Z,,,,,,,,,,,,,,,,51,,,,,,,,,,,,,,584.6569999905769,,response,,,,13,C,,,,,,Space,keypress(Space),,,,instrumental,,,,"-------- -------- --- --- ---- it, --- ------ -- --------<br>---- --------- --- ------- ------------ ---------- ---------<br>--- ---------- ------- ---------- ------- -- -------- ----<br>---- --- ------ ----- ------ -- ---- --- ----- -- - -------<br>-------- -- --- --- -- ----- ----------- ----- -----------<br>---- --- ---------- --- ---- --- -- ----------",297921.97500000475,297920.8799999906,297319.718,297329.54499998596,297336.223,297936.423,,5,"it,"
screen,html.Screen,1_3_1_0_1_6,2021-04-25T14:36:22.442Z,,,,,,,,,,,,,,,,51,,,,,,,,,,,,,,602.3919999780483,,response,,,,13,C,,,,,,Space,keypress(Space),,,,instrumental,,,,-------- -------- --- --- ---- --- but ------ -- --------<br>---- --------- --- ------- ------------ ---------- ---------<br>--- ---------- ------- ---------- ------- -- -------- ----<br>---- --- ------ ----- ------ -- ---- --- ----- -- - -------<br>-------- -- --- --- -- ----- ----------- ----- -----------<br>---- --- ---------- --- ---- --- -- ----------,298539.7799999919,298538.81499997806,297919.746,297922.2549999831,297936.423,298552.95,,6,but
screen,html.Screen,1_3_1_0_1_7,2021-04-25T14:36:22.983Z,,,,,,,,,,,,,,,,51,,,,,,,,,,,,,,526.8699999844539,,response,,,,13,C,,,,,,Space,keypress(Space),,,,instrumental,,,,-------- -------- --- --- ---- --- --- debate -- --------<br>---- --------- --- ------- ------------ ---------- ---------<br>--- ---------- ------- ---------- ------- -- -------- ----<br>---- --- ------ ----- ------ -- ---- --- ----- -- - -------<br>-------- -- --- --- -- ----- ----------- ----- -----------<br>---- --- ---------- --- ---- --- -- ----------,299080.83499997156,299079.81999998447,298536.285,298540.02999997465,298552.95,299085.946,,7,debate
screen,html.Screen,1_3_1_0_1_8,2021-04-25T14:36:23.474Z,,,,,,,,,,,,,,,,51,,,,,,,,,,,,,,484.6239999816753,,response,,,,13,C,,,,,,Space,keypress(Space),,,,instrumental,,,,-------- -------- --- --- ---- --- --- ------ in --------<br>---- --------- --- ------- ------------ ---------- ---------<br>--- ---------- ------- ---------- ------- -- -------- ----<br>---- --- ------ ----- ------ -- ---- --- ----- -- - -------<br>-------- -- --- --- -- ----- ----------- ----- -----------<br>---- --- ---------- --- ---- --- -- ----------,299571.64999999804,299570.5699999817,299069.371,299081.10000001034,299085.946,299586.187,,8,in
screen,html.Screen,1_3_1_0_1_9,2021-04-25T14:36:24.011Z,,,,,,,,,,,,,,,,51,,,,,,,,,,,,,,521.5029999752878,,response,,,,13,C,,,,,,Space,keypress(Space),,,,instrumental,,,,-------- -------- --- --- ---- --- --- ------ -- Congress<br>---- --------- --- ------- ------------ ---------- ---------<br>--- ---------- ------- ---------- ------- -- -------- ----<br>---- --- ------ ----- ------ -- ---- --- ----- -- - -------<br>-------- -- --- --- -- ----- ----------- ----- -----------<br>---- --- ---------- --- ---- --- -- ----------,300108.65999996895,300107.68999997526,299569.563,299571.8999999808,299586.187,300119.431,,9,Congress
screen,html.Screen,1_3_1_0_1_10,2021-04-25T14:36:24.523Z,,,,,,,,,,,,,,,,51,,,,,,,,,,,,,,500.6139999887673,,response,,,,13,C,,,,,,Space,keypress(Space),,,,instrumental,,,,-------- -------- --- --- ---- --- --- ------ -- --------<br>over --------- --- ------- ------------ ---------- ---------<br>--- ---------- ------- ---------- ------- -- -------- ----<br>---- --- ------ ----- ------ -- ---- --- ----- -- - -------<br>-------- -- --- --- -- ----- ----------- ----- -----------<br>---- --- ---------- --- ---- --- -- ----------,300621.0800000117,300620.04499998875,300102.865,300108.92500000773,300119.431,300636.101,,10,over
screen,html.Screen,1_3_1_0_1_11,2021-04-25T14:36:25.005Z,,,,,,,,,,,,,,,,51,,,,,,,,,,,,,,466.2689999786671,,response,,,,13,C,,,,,,Space,keypress(Space),,,,instrumental,,,,-------- -------- --- --- ---- --- --- ------ -- --------<br>---- reforming --- ------- ------------ ---------- ---------<br>--- ---------- ------- ---------- ------- -- -------- ----<br>---- --- ------ ----- ------ -- ---- --- ----- -- - -------<br>-------- -- --- --- -- ----- ----------- ----- -----------<br>---- --- ---------- --- ---- --- -- ----------,301102.91499999585,301102.3699999787,300619.251,300621.3449999923,300636.101,301119.179,,11,reforming
screen,html.Screen,1_3_1_0_1_12,2021-04-25T14:36:25.482Z,,,,,,,,,,,,,,,,51,,,,,,,,,,,,,,460.1160000031814,,response,,,,13,C,,,,,,Space,keypress(Space),,,,instrumental,,,,-------- -------- --- --- ---- --- --- ------ -- --------<br>---- --------- the ------- ------------ ---------- ---------<br>--- ---------- ------- ---------- ------- -- -------- ----<br>---- --- ------ ----- ------ -- ---- --- ----- -- - -------<br>-------- -- --- --- -- ----- ----------- ----- -----------<br>---- --- ---------- --- ---- --- -- ----------,301580.2949999925,301579.2950000032,301102.721,301103.04000001634,301119.179,301585.634,,12,the
screen,html.Screen,1_3_1_0_1_13,2021-04-25T14:36:25.983Z,,,,,,,,,,,,,,,,51,,,,,,,,,,,,,,494.1409999910393,,response,,,,13,C,,,,,,Space,keypress(Space),,,,instrumental,,,,-------- -------- --- --- ---- --- --- ------ -- --------<br>---- --------- --- federal ------------ ---------- ---------<br>--- ---------- ------- ---------- ------- -- -------- ----<br>---- --- ------ ----- ------ -- ---- --- ----- -- - -------<br>-------- -- --- --- -- ----- ----------- ----- -----------<br>---- --- ---------- --- ---- --- -- ----------,302080.7499999646,302079.77499999106,301569.072,301580.58999996865,301585.634,302085.643,,13,federal
screen,html.Screen,1_3_1_0_1_14,2021-04-25T14:36:26.547Z,,,,,,,,,,,,,,,,51,,,,,,,,,,,,,,558.3219999956782,,response,,,,13,C,,,,,,Space,keypress(Space),,,,instrumental,,,,-------- -------- --- --- ---- --- --- ------ -- --------<br>---- --------- --- ------- government's ---------- ---------<br>--- ---------- ------- ---------- ------- -- -------- ----<br>---- --- ------ ----- ------ -- ---- --- ----- -- - -------<br>-------- -- --- --- -- ----- ----------- ----- -----------<br>---- --- ---------- --- ---- --- -- ----------,302644.73499997985,302643.96499999566,302069.281,302081.00499998545,302085.643,302652.435,,14,government's
screen,html.Screen,1_3_1_0_1_15,2021-04-25T14:36:27.137Z,,,,,,,,,,,,,,,,51,,,,,,,,,,,,,,581.0700000110664,,response,,,,13,C,,,,,,Space,keypress(Space),,,,instrumental,,,,-------- -------- --- --- ---- --- --- ------ -- --------<br>---- --------- --- ------- ------------ regulatory ---------<br>--- ---------- ------- ---------- ------- -- -------- ----<br>---- --- ------ ----- ------ -- ---- --- ----- -- - -------<br>-------- -- --- --- -- ----- ----------- ----- -----------<br>---- --- ---------- --- ---- --- -- ----------,303234.4849999645,303233.50500001106,302635.843,302644.8150000069,302652.435,303252.29,,15,regulatory
screen,html.Screen,1_3_1_0_1_16,2021-04-25T14:36:27.814Z,,,,,,,,,,,,,,,,51,,,,,,,,,,,,,,659.0600000094273,,response,,,,13,C,,,,,,Space,keypress(Space),,,,instrumental,,,,-------- -------- --- --- ---- --- --- ------ -- --------<br>---- --------- --- ------- ------------ ---------- apparatus<br>--- ---------- ------- ---------- ------- -- -------- ----<br>---- --- ------ ----- ------ -- ---- --- ----- -- - -------<br>-------- -- --- --- -- ----- ----------- ----- -----------<br>---- --- ---------- --- ---- --- -- ----------,303912.1499999892,303911.3500000094,303219.044,303234.7699999809,303252.29,303918.728,,16,apparatus
screen,html.Screen,1_3_1_0_1_17,2021-04-25T14:36:28.438Z,,,,,,,,,,,,,,,,51,,,,,,,,,,,,,,617.1320000035921,,response,,,,13,C,,,,,,Space,keypress(Space),,,,instrumental,,,,-------- -------- --- --- ---- --- --- ------ -- --------<br>---- --------- --- ------- ------------ ---------- ---------<br>may ---------- ------- ---------- ------- -- -------- ----<br>---- --- ------ ----- ------ -- ---- --- ----- -- - -------<br>-------- -- --- --- -- ----- ----------- ----- -----------<br>---- --- ---------- --- ---- --- -- ----------,304536.7850000039,304535.8600000036,303902.235,303912.3799999943,303918.728,304552.09,,17,may
screen,html.Screen,1_3_1_0_1_18,2021-04-25T14:36:29.042Z,,,,,,,,,,,,,,,,51,,,,,,,,,,,,,,586.8250000177068,,response,,,,13,C,,,,,,Space,keypress(Space),,,,instrumental,,,,-------- -------- --- --- ---- --- --- ------ -- --------<br>---- --------- --- ------- ------------ ---------- ---------<br>--- profoundly ------- ---------- ------- -- -------- ----<br>---- --- ------ ----- ------ -- ---- --- ----- -- - -------<br>-------- -- --- --- -- ----- ----------- ----- -----------<br>---- --- ---------- --- ---- --- -- ----------,305139.9300000048,305138.91500001773,304535.409,304537.0399999665,304552.09,305152.022,,18,profoundly
screen,html.Screen,1_3_1_0_1_19,2021-04-25T14:36:29.633Z,,,,,,,,,,,,,,,,51,,,,,,,,,,,,,,578.0379999725847,,response,,,,13,C,,,,,,Space,keypress(Space),,,,instrumental,,,,-------- -------- --- --- ---- --- --- ------ -- --------<br>---- --------- --- ------- ------------ ---------- ---------<br>--- ---------- improve ---------- ------- -- -------- ----<br>---- --- ------ ----- ------ -- ---- --- ----- -- - -------<br>-------- -- --- --- -- ----- ----------- ----- -----------<br>---- --- ---------- --- ---- --- -- ----------,305730.9949999908,305730.0599999726,305135.468,305140.20500000333,305152.022,305735.147,,19,improve
screen,html.Screen,1_3_1_0_1_20,2021-04-25T14:36:30.250Z,,,,,,,,,,,,,,,,51,,,,,,,,,,,,,,611.8929999641841,,response,,,,13,C,,,,,,Space,keypress(Space),,,,instrumental,,,,-------- -------- --- --- ---- --- --- ------ -- --------<br>---- --------- --- ------- ------------ ---------- ---------<br>--- ---------- ------- companies' ------- -- -------- ----<br>---- --- ------ ----- ------ -- ---- --- ----- -- - -------<br>-------- -- --- --- -- ----- ----------- ----- -----------<br>---- --- ---------- --- ---- --- -- ----------,306347.9100000113,306347.0399999642,305718.769,305731.2599999714,305735.147,306351.707,,20,companies'
screen,html.Screen,1_3_1_0_1_21,2021-04-25T14:36:30.859Z,,,,,,,,,,,,,,,,51,,,,,,,,,,,,,,604.9929999806336,,response,,,,13,C,,,,,,Space,keypress(Space),,,,instrumental,,,,-------- -------- --- --- ---- --- --- ------ -- --------<br>---- --------- --- ------- ------------ ---------- ---------<br>--- ---------- ------- ---------- ability -- -------- ----<br>---- --- ------ ----- ------ -- ---- --- ----- -- - -------<br>-------- -- --- --- -- ----- ----------- ----- -----------<br>---- --- ---------- --- ---- --- -- ----------,306957.6600000146,306956.6999999806,306335.375,306348.18500000983,306351.707,306968.561,,21,ability
screen,html.Screen,1_3_1_0_1_22,2021-04-25T14:36:31.464Z,,,,,,,,,,,,,,,,51,,,,,,,,,,,,,,593.1489999799524,,response,,,,13,C,,,,,,Space,keypress(Space),,,,instrumental,,,,-------- -------- --- --- ---- --- --- ------ -- --------<br>---- --------- --- ------- ------------ ---------- ---------<br>--- ---------- ------- ---------- ------- to -------- ----<br>---- --- ------ ----- ------ -- ---- --- ----- -- - -------<br>-------- -- --- --- -- ----- ----------- ----- -----------<br>---- --- ---------- --- ---- --- -- ----------,307562.649999978,307561.70999997994,306951.903,306957.90999999736,306968.561,307585.174,,22,to
screen,html.Screen,1_3_1_0_1_23,2021-04-25T14:36:32.112Z,,,,,,,,,,,,,,,,51,,,,,,,,,,,,,,624.2709999858635,,response,,,,13,C,,,,,,Space,keypress(Space),,,,instrumental,,,,-------- -------- --- --- ---- --- --- ------ -- --------<br>---- --------- --- ------- ------------ ---------- ---------<br>--- ---------- ------- ---------- ------- -- survive. ----<br>---- --- ------ ----- ------ -- ---- --- ----- -- - -------<br>-------- -- --- --- -- ----- ----------- ----- -----------<br>---- --- ---------- --- ---- --- -- ----------,308210.3599999682,308209.44499998586,307551.597,307562.9450000124,307585.174,308218.222,,23,survive.
screen,html.Screen,1_3_1_0_1_24,2021-04-25T14:36:32.746Z,,,,,,,,,,,,,,,,51,,,,,,,,,,,,,,625.242999983544,,response,,,,13,C,,,,,,Space,keypress(Space),,,,instrumental,,,,-------- -------- --- --- ---- --- --- ------ -- --------<br>---- --------- --- ------- ------------ ---------- ---------<br>--- ---------- ------- ---------- ------- -- -------- This<br>---- --- ------ ----- ------ -- ---- --- ----- -- - -------<br>-------- -- --- --- -- ----- ----------- ----- -----------<br>---- --- ---------- --- ---- --- -- ----------,308844.4099999615,308843.46499998355,308201.813,308210.5950000114,308218.222,308851.384,,24,This
screen,html.Screen,1_3_1_0_1_25,2021-04-25T14:36:33.337Z,,,,,,,,,,,,,,,,51,,,,,,,,,,,,,,582.9509999980801,,response,,,,13,C,,,,,,Space,keypress(Space),,,,instrumental,,,,-------- -------- --- --- ---- --- --- ------ -- --------<br>---- --------- --- ------- ------------ ---------- ---------<br>--- ---------- ------- ---------- ------- -- -------- ----<br>week --- ------ ----- ------ -- ---- --- ----- -- - -------<br>-------- -- --- --- -- ----- ----------- ----- -----------<br>---- --- ---------- --- ---- --- -- ----------,309435.2749999962,309434.3349999981,308834.713,308844.64999998454,308851.384,309451.381,,25,week
screen,html.Screen,1_3_1_0_1_26,2021-04-25T14:36:33.856Z,,,,,,,,,,,,,,,,51,,,,,,,,,,,,,,502.28399997908855,,response,,,,13,C,,,,,,Space,keypress(Space),,,,instrumental,,,,-------- -------- --- --- ---- --- --- ------ -- --------<br>---- --------- --- ------- ------------ ---------- ---------<br>--- ---------- ------- ---------- ------- -- -------- ----<br>---- the ------ ----- ------ -- ---- --- ----- -- - -------<br>-------- -- --- --- -- ----- ----------- ----- -----------<br>---- --- ---------- --- ---- --- -- ----------,309954.5849999995,309953.6649999791,309434.887,309435.5150000192,309451.381,309967.933,,26,the
screen,html.Screen,1_3_1_0_1_27,2021-04-25T14:36:34.349Z,,,,,,,,,,,,,,,,51,,,,,,,,,,,,,,478.7870000071707,,response,,,,13,C,,,,,,Space,keypress(Space),,,,instrumental,,,,-------- -------- --- --- ---- --- --- ------ -- --------<br>---- --------- --- ------- ------------ ---------- ---------<br>--- ---------- ------- ---------- ------- -- -------- ----<br>---- --- Senate ----- ------ -- ---- --- ----- -- - -------<br>-------- -- --- --- -- ----- ----------- ----- -----------<br>---- --- ---------- --- ---- --- -- ----------,310447.5899999961,310446.7200000072,309951.476,309954.82499996433,309967.933,310451.168,,27,Senate
screen,html.Screen,1_3_1_0_1_28,2021-04-25T14:36:34.854Z,,,,,,,,,,,,,,,,51,,,,,,,,,,,,,,500.33199996646727,,response,,,,13,C,,,,,,Space,keypress(Space),,,,instrumental,,,,-------- -------- --- --- ---- --- --- ------ -- --------<br>---- --------- --- ------- ------------ ---------- ---------<br>--- ---------- ------- ---------- ------- -- -------- ----<br>---- --- ------ seems ------ -- ---- --- ----- -- - -------<br>-------- -- --- --- -- ----- ----------- ----- -----------<br>---- --- ---------- --- ---- --- -- ----------,310952.3449999979,310951.4999999665,310434.783,310447.8249999811,310451.168,310968.101,,28,seems
screen,html.Screen,1_3_1_0_1_29,2021-04-25T14:36:35.527Z,,,,,,,,,,,,,,,,51,,,,,,,,,,,,,,655.8789999748114,,response,,,,13,C,,,,,,Space,keypress(Space),,,,instrumental,,,,-------- -------- --- --- ---- --- --- ------ -- --------<br>---- --------- --- ------- ------------ ---------- ---------<br>--- ---------- ------- ---------- ------- -- -------- ----<br>---- --- ------ ----- poised -- ---- --- ----- -- - -------<br>-------- -- --- --- -- ----- ----------- ----- -----------<br>---- --- ---------- --- ---- --- -- ----------,311624.9499999685,311623.97999997484,310951.309,310952.6000000187,310968.101,311634.544,,29,poised
screen,html.Screen,1_3_1_0_1_30,2021-04-25T14:36:36.095Z,,,,,,,,,,,,,,,,51,,,,,,,,,,,,,,557.705999963684,,response,,,,13,C,,,,,,Space,keypress(Space),,,,instrumental,,,,-------- -------- --- --- ---- --- --- ------ -- --------<br>---- --------- --- ------- ------------ ---------- ---------<br>--- ---------- ------- ---------- ------- -- -------- ----<br>---- --- ------ ----- ------ to ---- --- ----- -- - -------<br>-------- -- --- --- -- ----- ----------- ----- -----------<br>---- --- ---------- --- ---- --- -- ----------,312193.22499999544,312192.2499999637,311617.687,311625.18999999156,311634.544,312201.023,,30,to
screen,html.Screen,1_3_1_0_1_31,2021-04-25T14:36:36.606Z,,,,,,,,,,,,,,,,51,,,,,,,,,,,,,,502.26699997583637,,response,,,,13,C,,,,,,Space,keypress(Space),,,,instrumental,,,,-------- -------- --- --- ---- --- --- ------ -- --------<br>---- --------- --- ------- ------------ ---------- ---------<br>--- ---------- ------- ---------- ------- -- -------- ----<br>---- --- ------ ----- ------ -- join --- ----- -- - -------<br>-------- -- --- --- -- ----- ----------- ----- -----------<br>---- --- ---------- --- ---- --- -- ----------,312704.2749999673,312703.2899999758,312184.638,312193.4749999782,312201.023,312717.867,,31,join
screen,html.Screen,1_3_1_0_1_32,2021-04-25T14:36:37.106Z,,,,,,,,,,,,,,,,51,,,,,,,,,,,,,,485.3679999644519,,response,,,,13,C,,,,,,Space,keypress(Space),,,,instrumental,,,,-------- -------- --- --- ---- --- --- ------ -- --------<br>---- --------- --- ------- ------------ ---------- ---------<br>--- ---------- ------- ---------- ------- -- -------- ----<br>---- --- ------ ----- ------ -- ---- the ----- -- - -------<br>-------- -- --- --- -- ----- ----------- ----- -----------<br>---- --- ---------- --- ---- --- -- ----------,313204.1050000116,313203.2349999645,312701.16,312704.5100000105,312717.867,313217.853,,32,the
screen,html.Screen,1_3_1_0_1_33,2021-04-25T14:36:37.599Z,,,,,,,,,,,,,,,,51,,,,,,,,,,,,,,478.1669999739388,,response,,,,13,C,,,,,,Space,keypress(Space),,,,instrumental,,,,-------- -------- --- --- ---- --- --- ------ -- --------<br>---- --------- --- ------- ------------ ---------- ---------<br>--- ---------- ------- ---------- ------- -- -------- ----<br>---- --- ------ ----- ------ -- ---- --- House -- - -------<br>-------- -- --- --- -- ----- ----------- ----- -----------<br>---- --- ---------- --- ---- --- -- ----------,313696.93999999436,313696.01999997394,313200.877,313204.3500000145,313217.853,313700.813,,33,House
screen,html.Screen,1_3_1_0_1_34,2021-04-25T14:36:38.193Z,,,,,,,,,,,,,,,,51,,,,,,,,,,,,,,589.3569999929168,,response,,,,13,C,,,,,,Space,keypress(Space),,,,instrumental,,,,-------- -------- --- --- ---- --- --- ------ -- --------<br>---- --------- --- ------- ------------ ---------- ---------<br>--- ---------- ------- ---------- ------- -- -------- ----<br>---- --- ------ ----- ------ -- ---- --- ----- in - -------<br>-------- -- --- --- -- ----- ----------- ----- -----------<br>---- --- ---------- --- ---- --- -- ----------,314291.0949999932,314290.16999999294,313684.329,313697.18499999726,313700.813,314300.917,,34,in
screen,html.Screen,1_3_1_0_1_35,2021-04-25T14:36:38.607Z,,,,,,,,,,,,,,,,51,,,,,,,,,,,,,,403.7729999840958,,response,,,,13,C,,,,,,Space,keypress(Space),,,,instrumental,,,,-------- -------- --- --- ---- --- --- ------ -- --------<br>---- --------- --- ------- ------------ ---------- ---------<br>--- ---------- ------- ---------- ------- -- -------- ----<br>---- --- ------ ----- ------ -- ---- --- ----- -- a -------<br>-------- -- --- --- -- ----- ----------- ----- -----------<br>---- --- ---------- --- ---- --- -- ----------,314705.65000001807,314704.6899999841,314284.273,314291.32000001846,314300.917,314717.585,,35,a
screen,html.Screen,1_3_1_0_1_36,2021-04-25T14:36:39.225Z,,,,,,,,,,,,,,,,51,,,,,,,,,,,,,,605.2149999653338,,response,,,,13,C,,,,,,Space,keypress(Space),,,,instrumental,,,,-------- -------- --- --- ---- --- --- ------ -- --------<br>---- --------- --- ------- ------------ ---------- ---------<br>--- ---------- ------- ---------- ------- -- -------- ----<br>---- --- ------ ----- ------ -- ---- --- ----- -- - massive<br>-------- -- --- --- -- ----- ----------- ----- -----------<br>---- --- ---------- --- ---- --- -- ----------,315323.70499998797,315322.79999996535,314700.915,314705.8899999829,314717.585,315334.099,,36,massive
screen,html.Screen,1_3_1_0_1_37,2021-04-25T14:36:39.747Z,,,,,,,,,,,,,,,,51,,,,,,,,,,,,,,510.01599998533493,,response,,,,13,C,,,,,,Space,keypress(Space),,,,instrumental,,,,-------- -------- --- --- ---- --- --- ------ -- --------<br>---- --------- --- ------- ------------ ---------- ---------<br>--- ---------- ------- ---------- ------- -- -------- ----<br>---- --- ------ ----- ------ -- ---- --- ----- -- - -------<br>overhaul -- --- --- -- ----- ----------- ----- -----------<br>---- --- ---------- --- ---- --- -- ----------,315845.04499996547,315844.1149999853,315317.237,315323.95499997074,315334.099,315850.433,,37,overhaul
