sender,sender_type,sender_id,timestamp,meta,,Blues,Classical,Country,Dance,Electronic,Folk,Gospel,Hip-Hop,Jazz,Latin,Musical/Film,New-age,Pop,Provo_ID,R&B,Rap,Reggae,Religious,Rock,Soul,Swing,Traditional,age,artist_name,correct,correctResponse,distraction,duration,education,ended_on,familiarity,gender,headphone_check_performance,item,list,music_frequency,offensiveness,pleasantness,position_correct,preference,response,response_action,snippet_file,song_name,song_rating,sound,stimulus_1,stimulus_2,stimulus_3,text,time_commit,time_end,time_render,time_run,time_show,time_switch,url,word,word_ID
Introduction,html.Screen,0_0,2021-04-16T11:13:16.334Z,"{""labjs_version"":""20.2.2"",""labjs_build"":{""flavor"":""production"",""commit"":""a25486e0c714a0ae2ce03ff94b7bb6896854dcfa""},""location"":""https://run.pavlovia.org/mvasilev/music_c/"",""userAgent"":""Mozilla/5.0 (Macintosh; Intel Mac OS X 10_14_6) AppleWebKit/537.36 (KHTML, like Gecko) Chrome/89.0.4389.82 Safari/537.36"",""platform"":""MacIntel"",""language"":""en-GB"",""locale"":""en-GB"",""timeZone"":""Europe/London"",""timezoneOffset"":-60,""screen_width"":1440,""screen_height"":900,""scroll_width"":835,""scroll_height"":741,""window_innerWidth"":835,""window_innerHeight"":789,""devicePixelRatio"":1}",,,,,,,,,,,,,,,,,,,,,,,,,,,,,1775.400999953621,,response,,,,,,,,,,,continue,click button,,,,,,,,,33319.81000001542,33315.19999995362,31506.465,18178.324999986216,31539.799,33323.983,{},,
Volume calibration,html.Screen,0_1,2021-04-16T11:13:33.701Z,,,,,,,,,,,,,,,,,,,,,,,,,,,,,,17356.266999975785,,response,,,,,,,,,,,continue,click button,,,,,,,,,50685.98499998916,50680.249999975786,33307.316,33320.40500000585,33323.983,50691.504,,,
Task instructions,html.Screen,0_2,2021-04-16T11:13:35.201Z,,,,,,,,,,,,,,,,,,,,,,,,,,,,,,1491.471000003352,,response,,,,,,,,,,,continue,click button,,,,,,,,,52185.880000004545,52182.97500000335,50674.837,50686.14499992691,50691.504,52192.12,,,
Sounds,html.Screen,0_3_0_0,2021-04-16T11:13:39.445Z,,,,,,,,,,,,,,,,,,,,,,,,,,,,,,4250.084999999999,,timeout,,,,,,,,,2,,,,,,,,I,S,O,,56429.690000019036,56425.538,52175.453,52186.28999998327,52192.12,56442.205,,,
Judgement,html.Screen,0_3_0_1,2021-04-16T11:13:41.792Z,,,,,,,,,,,,,,,,,,,,,,,,,,,true,2,,2331.615000002159,,response,,,,,,,,,2,,2,click #choice-2,,,,,I,S,O,,58776.71000000555,58773.82000000216,56425.538,56430.225000018254,56442.205,58792.252,,,
Trial,flow.Sequence,0_3_0,2021-04-16T11:13:41.794Z,,,,,,,,,,,,,,,,,,,,,,,,,,,,,,6581.700000002158,,completion,,,,,,,,,2,,,,,,,,I,S,O,,58778.42999994755,58773.82000000216,52175.453,52186.20499991812,52192.12,58792.252,,,
Sounds,html.Screen,0_3_1_0,2021-04-16T11:13:46.043Z,,,,,,,,,,,,,,,,,,,,,,,,,,,,,,4250.084999999999,,timeout,,,,,,,,,3,,,,,,,,O,I,S,,63027.989999973215,63025.67,58775.585,58778.63999991678,58792.252,63042.337,,,
Judgement,html.Screen,0_3_1_1,2021-04-16T11:13:46.692Z,,,,,,,,,,,,,,,,,,,,,,,,,,,true,3,,631.7130000305478,,response,,,,,,,,,3,,3,click #choice-3,,,,,O,I,S,,63676.5599999344,63674.05000003055,63025.67,63028.21000001859,63042.337,63692.858,,,
Trial,flow.Sequence,0_3_1,2021-04-16T11:13:46.692Z,,,,,,,,,,,,,,,,,,,,,,,,,,,,,,4881.798000030547,,completion,,,,,,,,,3,,,,,,,,O,I,S,,63676.89000000246,63674.05000003055,58775.585,58778.59000000171,58792.252,63692.858,,,
Sounds,html.Screen,0_3_2_0,2021-04-16T11:13:50.945Z,,,,,,,,,,,,,,,,,,,,,,,,,,,,,,4250.084999999999,,timeout,,,,,,,,,1,,,,,,,,S,O,I,,67929.05999999493,67926.276,63676.191,63677.060000016354,63692.858,67942.943,,,
Judgement,html.Screen,0_3_2_1,2021-04-16T11:13:51.383Z,,,,,,,,,,,,,,,,,,,,,,,,,,,true,1,,422.68199997671763,,response,,,,,,,,,1,,1,click #choice-1,,,,,S,O,I,,68367.77999997139,68365.62499997672,67926.276,67929.23999996856,67942.943,68376.285,,,
Trial,flow.Sequence,0_3_2,2021-04-16T11:13:51.383Z,,,,,,,,,,,,,,,,,,,,,,,,,,,,,,4672.766999976717,,completion,,,,,,,,,1,,,,,,,,S,O,I,,68368.00000001676,68365.62499997672,63676.191,63677.01500002295,63692.858,68376.285,,,
Sounds,html.Screen,0_3_3_0,2021-04-16T11:13:55.627Z,,,,,,,,,,,,,,,,,,,,,,,,,,,,,,4250.084999999992,,timeout,,,,,,,,,1,,,,,,,,S,I,O,,72611.33500002325,72609.703,68359.618,68368.17000003066,68376.285,72626.37,,,
Judgement,html.Screen,0_3_3_1,2021-04-16T11:13:56.236Z,,,,,,,,,,,,,,,,,,,,,,,,,,,true,1,,591.944999947329,,response,,,,,,,,,1,,1,click #choice-1,,,,,S,I,O,,73220.67499998957,73218.31499994732,72609.703,72611.47499992512,72626.37,73226.873,,,
Trial,flow.Sequence,0_3_3,2021-04-16T11:13:56.237Z,,,,,,,,,,,,,,,,,,,,,,,,,,,,,,4842.029999947321,,completion,,,,,,,,,1,,,,,,,,S,I,O,,73220.90999991633,73218.31499994732,68359.618,68368.10999992304,68376.285,73226.873,,,
Sounds,html.Screen,0_3_4_0,2021-04-16T11:14:00.478Z,,,,,,,,,,,,,,,,,,,,,,,,,,,,,,4250.084999999992,,timeout,,,,,,,,,3,,,,,,,,I,O,S,,77462.21499994863,77460.291,73210.206,73221.01500001736,73226.873,77476.958,,,
Judgement,html.Screen,0_3_4_1,2021-04-16T11:14:00.939Z,,,,,,,,,,,,,,,,,,,,,,,,,,,true,3,,444.5869999319402,,response,,,,,,,,,3,,3,click #choice-3,,,,,I,O,S,,77923.73499996029,77921.54499993194,77460.291,77462.3900000006,77476.958,77926.967,,,
Trial,flow.Sequence,0_3_4,2021-04-16T11:14:00.940Z,,,,,,,,,,,,,,,,,,,,,,,,,,,,,,4694.671999931932,,completion,,,,,,,,,3,,,,,,,,I,O,S,,77923.90499997418,77921.54499993194,73210.206,73220.98500002176,73226.873,77926.967,,,
Sounds,html.Screen,0_3_5_0,2021-04-16T11:14:05.179Z,,,,,,,,,,,,,,,,,,,,,,,,,,,,,,4250.084999999992,,timeout,,,,,,,,,2,,,,,,,,O,S,I,,82163.12499996275,82160.385,77910.3,77924.01499999687,77926.967,82177.052,,,
Judgement,html.Screen,0_3_5_1,2021-04-16T11:14:05.571Z,,,,,,,,,,,,,,,,,,,,,,,,,,,true,2,,376.1829999994079,,response,,,,,,,,,2,,2,click #choice-2,,,,,O,S,I,,82555.44000002556,82553.2349999994,82160.385,82163.26499998104,82177.052,82560.861,,,
Trial,flow.Sequence,0_3_5,2021-04-16T11:14:05.572Z,,,,,,,,,,,,,,,,,,,,,,,,,,,,,,4626.2679999994,,completion,,,,,,,,,2,,,,,,,,O,S,I,,82555.66499999259,82553.2349999994,77910.3,77923.98999992292,77926.967,82560.861,,,
Task,flow.Loop,0_3,2021-04-16T11:14:05.576Z,,,,,,,,,,,,,,,,,,,,,,,,,,,,,,30361.1149999994,,completion,,,1,,,,,,,,,,,,,,,,,,82559.63499995414,82553.2349999994,52175.453,52186.114999931306,52192.12,82560.861,,,
Trap,html.Screen,0_4,2021-04-16T11:14:05.577Z,,,,,,,,,,,,,,,,,,,,,,,,,,,,,,NaN,,skipped,,,,,,,,,,,,,,,,,,,,,82561.00500002503,82553.2349999994,,82560.62000000384,,82560.861,,,
Thanks,html.Screen,0_5,2021-04-16T11:14:07.616Z,,,,,,,,,,,,,,,,,,,,,,,,,,,,,,2035.6239999872923,,response,,,,,,,,,,,continue,click button,,,,,,,,,84599.86999991816,84596.4849999873,82544.194,82561.20999995619,82560.861,88910.988,,,
Headphone screening,flow.Sequence,0,2021-04-16T11:14:07.616Z,,,,,,,,,,,,,,,,,,,,,,,,,,,,,,53056.6859999873,,completion,,,,,,,,,,,,,,,,,,,,,84600.0950000016,84596.4849999873,31506.465,18178.134999936447,31539.799,88910.988,,,
Instructions,html.Page,1_0,2021-04-16T11:14:14.969Z,,,,,,,,,,,,,,,,,,,,,,,,,,,,,,3041.327000002275,,form submission,,,,,,,,,,,,,,,,,,,,,91952.51999993343,91952.31500000227,88894.321,88908.5549999727,88910.988,91961.049,,,
Holding screen,html.Screen,1_1_0_0,2021-04-16T11:14:24.963Z,,,,,,,,,,,,,,,,,,,,,,,,,,,,,,10000.616999999998,,timeout,,,,,,,,,,,,,,,,,,,,,101946.52499991935,101944.999,91944.382,91952.82499992754,91961.049,101961.666,,,
screen,html.Screen,1_1_0_1_0,2021-04-16T11:14:28.835Z,,,,,,,,,,,,,,,,53,,,,,,,,,,,,,,3851.3189999677415,,response,,,,99,,,,,,,Space,keypress(Space),,,,,,,,When -- ----- -- ------ - ------- --- ----------<br>------------- ------ ------ ---- ---- ------- ----- -- ----<br>-------- ------- -- ---------- --- - --- ----- ----- ----<br>---- --- --- ----- --- ---- ---- ------- ----- ---- -------<br>--- --- -- ----- -- --- ---- -- --- ---- -- ------ ------<br>--- ----- -- ----,105818.51000001188,105812.98499996774,101944.999,101947.03499996103,101961.666,105828.41,,0,When
screen,html.Screen,1_1_0_1_1,2021-04-16T11:14:29.491Z,,,,,,,,,,,,,,,,53,,,,,,,,,,,,,,643.1349999785016,,response,,,,99,,,,,,,Space,keypress(Space),,,,,,,,---- it ----- -- ------ - ------- --- ----------<br>------------- ------ ------ ---- ---- ------- ----- -- ----<br>-------- ------- -- ---------- --- - --- ----- ----- ----<br>---- --- --- ----- --- ---- ---- ------- ----- ---- -------<br>--- --- -- ----- -- --- ---- -- --- ---- -- ------ ------<br>--- ----- -- ----,106474.6349999914,106471.5449999785,105811.743,105818.6599999899,105828.41,106479.027,,1,it
screen,html.Screen,1_1_0_1_2,2021-04-16T11:14:29.983Z,,,,,,,,,,,,,,,,53,,,,,,,,,,,,,,482.62299995380454,,response,,,,99,,,,,,,Space,keypress(Space),,,,,,,,---- -- comes -- ------ - ------- --- ----------<br>------------- ------ ------ ---- ---- ------- ----- -- ----<br>-------- ------- -- ---------- --- - --- ----- ----- ----<br>---- --- --- ----- --- ---- ---- ------- ----- ---- -------<br>--- --- -- ----- -- --- ---- -- --- ---- -- ------ ------<br>--- ----- -- ----,106966.47500002291,106961.6499999538,106462.36,106474.74999993574,106479.027,106979.037,,2,comes
screen,html.Screen,1_1_0_1_3,2021-04-16T11:14:30.452Z,,,,,,,,,,,,,,,,53,,,,,,,,,,,,,,453.4679999170039,,response,,,,99,,,,,,,Space,keypress(Space),,,,,,,,---- -- ----- to ------ - ------- --- ----------<br>------------- ------ ------ ---- ---- ------- ----- -- ----<br>-------- ------- -- ---------- --- - --- ----- ----- ----<br>---- --- --- ----- --- ---- ---- ------- ----- ---- -------<br>--- --- -- ----- -- --- ---- -- --- ---- -- ------ ------<br>--- ----- -- ----,107435.57500001043,107432.504999917,106962.37,106966.59500000533,106979.037,107445.713,,3,to
screen,html.Screen,1_1_0_1_4,2021-04-16T11:14:30.936Z,,,,,,,,,,,,,,,,53,,,,,,,,,,,,,,470.7419999404665,,response,,,,99,,,,,,,Space,keypress(Space),,,,,,,,---- -- ----- -- having - ------- --- ----------<br>------------- ------ ------ ---- ---- ------- ----- -- ----<br>-------- ------- -- ---------- --- - --- ----- ----- ----<br>---- --- --- ----- --- ---- ---- ------- ----- ---- -------<br>--- --- -- ----- -- --- ---- -- --- ---- -- ------ ------<br>--- ----- -- ----,107919.04499998782,107916.45499994047,107429.046,107435.67499995697,107445.713,107929.056,,4,having
screen,html.Screen,1_1_0_1_5,2021-04-16T11:14:31.373Z,,,,,,,,,,,,,,,,53,,,,,,,,,,,,,,423.51900002626644,,response,,,,99,,,,,,,Space,keypress(Space),,,,,,,,---- -- ----- -- ------ a ------- --- ----------<br>------------- ------ ------ ---- ---- ------- ----- -- ----<br>-------- ------- -- ---------- --- - --- ----- ----- ----<br>---- --- --- ----- --- ---- ---- ------- ----- ---- -------<br>--- --- -- ----- -- --- ---- -- --- ---- -- ------ ------<br>--- ----- -- ----,108356.35499993805,108352.57500002626,107912.389,107919.14499993436,107929.056,108362.398,,5,a
screen,html.Screen,1_1_0_1_6,2021-04-16T11:14:31.809Z,,,,,,,,,,,,,,,,53,,,,,,,,,,,,,,426.1320000198175,,response,,,,99,,,,,,,Space,keypress(Space),,,,,,,,---- -- ----- -- ------ - lasting --- ----------<br>------------- ------ ------ ---- ---- ------- ----- -- ----<br>-------- ------- -- ---------- --- - --- ----- ----- ----<br>---- --- --- ----- --- ---- ---- ------- ----- ---- -------<br>--- --- -- ----- -- --- ---- -- --- ---- -- ------ ------<br>--- ----- -- ----,108792.0649999287,108788.53000001982,108345.731,108356.47999995854,108362.398,108795.74,,6,lasting
screen,html.Screen,1_1_0_1_7,2021-04-16T11:14:32.485Z,,,,,,,,,,,,,,,,53,,,,,,,,,,,,,,667.5899999404646,,response,,,,99,,,,,,,Space,keypress(Space),,,,,,,,---- -- ----- -- ------ - ------- and ----------<br>------------- ------ ------ ---- ---- ------- ----- -- ----<br>-------- ------- -- ---------- --- - --- ----- ----- ----<br>---- --- --- ----- --- ---- ---- ------- ----- ---- -------<br>--- --- -- ----- -- --- ---- -- --- ---- -- ------ ------<br>--- ----- -- ----,109467.91000000667,109463.32999994047,108779.073,108792.20499994699,108795.74,109479.087,,7,and
screen,html.Screen,1_1_0_1_8,2021-04-16T11:14:33.098Z,,,,,,,,,,,,,,,,53,,,,,,,,,,,,,,598.3380000249599,,response,,,,99,,,,,,,Space,keypress(Space),,,,,,,,---- -- ----- -- ------ - ------- --- fulfilling<br>------------- ------ ------ ---- ---- ------- ----- -- ----<br>-------- ------- -- ---------- --- - --- ----- ----- ----<br>---- --- --- ----- --- ---- ---- ------- ----- ---- -------<br>--- --- -- ----- -- --- ---- -- --- ---- -- ------ ------<br>--- ----- -- ----,110081.63999998942,110077.42500002496,109462.42,109468.02999998908,109479.087,110095.766,,8,fulfilling
screen,html.Screen,1_1_0_1_9,2021-04-16T11:14:33.802Z,,,,,,,,,,,,,,,,53,,,,,,,,,,,,,,686.524000002828,,response,,,,99,,,,,,,Space,keypress(Space),,,,,,,,"---- -- ----- -- ------ - ------- --- ----------<br>relationship, ------ ------ ---- ---- ------- ----- -- ----<br>-------- ------- -- ---------- --- - --- ----- ----- ----<br>---- --- --- ----- --- ---- ---- ------- ----- ---- -------<br>--- --- -- ----- -- --- ---- -- --- ---- -- ------ ------<br>--- ----- -- ----",110785.39999993518,110782.29000000283,110079.099,110081.78000000771,110095.766,110795.78,,9,"relationship,"
screen,html.Screen,1_1_0_1_10,2021-04-16T11:14:34.335Z,,,,,,,,,,,,,,,,53,,,,,,,,,,,,,,518.5100000093516,,response,,,,99,,,,,,,Space,keypress(Space),,,,,,,,---- -- ----- -- ------ - ------- --- ----------<br>------------- common ------ ---- ---- ------- ----- -- ----<br>-------- ------- -- ---------- --- - --- ----- ----- ----<br>---- --- --- ----- --- ---- ---- ------- ----- ---- -------<br>--- --- -- ----- -- --- ---- -- --- ---- -- ------ ------<br>--- ----- -- ----,111317.9699999746,111314.29000000935,110779.113,110785.53500003181,110795.78,111329.124,,10,common
screen,html.Screen,1_1_0_1_11,2021-04-16T11:14:34.737Z,,,,,,,,,,,,,,,,53,,,,,,,,,,,,,,387.2209999643528,,response,,,,99,,,,,,,Space,keypress(Space),,,,,,,,---- -- ----- -- ------ - ------- --- ----------<br>------------- ------ wisdom ---- ---- ------- ----- -- ----<br>-------- ------- -- ---------- --- - --- ----- ----- ----<br>---- --- --- ----- --- ---- ---- ------- ----- ---- -------<br>--- --- -- ----- -- --- ---- -- --- ---- -- ------ ------<br>--- ----- -- ----,111720.05999996327,111716.34499996435,111312.457,111318.07499995921,111329.124,111729.132,,11,wisdom
screen,html.Screen,1_1_0_1_12,2021-04-16T11:14:35.126Z,,,,,,,,,,,,,,,,53,,,,,,,,,,,,,,375.1080000151269,,response,,,,99,,,,,,,Space,keypress(Space),,,,,,,,---- -- ----- -- ------ - ------- --- ----------<br>------------- ------ ------ says ---- ------- ----- -- ----<br>-------- ------- -- ---------- --- - --- ----- ----- ----<br>---- --- --- ----- --- ---- ---- ------- ----- ---- -------<br>--- --- -- ----- -- --- ---- -- --- ---- -- ------ ------<br>--- ----- -- ----,112108.96500002127,112104.24000001512,111712.465,111720.16499994788,111729.132,112112.473,,12,says
screen,html.Screen,1_1_0_1_13,2021-04-16T11:14:35.469Z,,,,,,,,,,,,,,,,53,,,,,,,,,,,,,,333.89199998159893,,response,,,,99,,,,,,,Space,keypress(Space),,,,,,,,---- -- ----- -- ------ - ------- --- ----------<br>------------- ------ ------ ---- that ------- ----- -- ----<br>-------- ------- -- ---------- --- - --- ----- ----- ----<br>---- --- --- ----- --- ---- ---- ------- ----- ---- -------<br>--- --- -- ----- -- --- ---- -- --- ---- -- ------ ------<br>--- ----- -- ----,112452.59000000078,112446.3649999816,112095.806,112109.1749999905,112112.473,112462.48,,13,that
screen,html.Screen,1_1_0_1_14,2021-04-16T11:14:35.928Z,,,,,,,,,,,,,,,,53,,,,,,,,,,,,,,444.7849999288883,,response,,,,99,,,,,,,Space,keypress(Space),,,,,,,,---- -- ----- -- ------ - ------- --- ----------<br>------------- ------ ------ ---- ---- feeling ----- -- ----<br>-------- ------- -- ---------- --- - --- ----- ----- ----<br>---- --- --- ----- --- ---- ---- ------- ----- ---- -------<br>--- --- -- ----- -- --- ---- -- --- ---- -- ------ ------<br>--- ----- -- ----,112911.62999998778,112907.26499992888,112445.813,112452.79000001028,112462.48,112929.156,,14,feeling
screen,html.Screen,1_1_0_1_15,2021-04-16T11:14:36.511Z,,,,,,,,,,,,,,,,53,,,,,,,,,,,,,,560.0789999863628,,response,,,,99,,,,,,,Space,keypress(Space),,,,,,,,---- -- ----- -- ------ - ------- --- ----------<br>------------- ------ ------ ---- ---- ------- close -- ----<br>-------- ------- -- ---------- --- - --- ----- ----- ----<br>---- --- --- ----- --- ---- ---- ------- ----- ---- -------<br>--- --- -- ----- -- --- ---- -- --- ---- -- ------ ------<br>--- ----- -- ----,113494.27999998443,113489.23499998637,112912.489,112911.82999999728,112929.156,113496.242,,15,close
screen,html.Screen,1_1_0_1_16,2021-04-16T11:14:36.884Z,,,,,,,,,,,,,,,,53,,,,,,,,,,,,,,365.95799997411086,,response,,,,99,,,,,,,Space,keypress(Space),,,,,,,,---- -- ----- -- ------ - ------- --- ----------<br>------------- ------ ------ ---- ---- ------- ----- to ----<br>-------- ------- -- ---------- --- - --- ----- ----- ----<br>---- --- --- ----- --- ---- ---- ------- ----- ---- -------<br>--- --- -- ----- -- --- ---- -- --- ---- -- ------ ------<br>--- ----- -- ----,113866.99000000954,113862.19999997411,113479.575,113494.485000032,113496.242,113879.583,,16,to
screen,html.Screen,1_1_0_1_17,2021-04-16T11:14:37.488Z,,,,,,,,,,,,,,,,53,,,,,,,,,,,,,,586.4669999299658,,response,,,,99,,,,,,,Space,keypress(Space),,,,,,,,---- -- ----- -- ------ - ------- --- ----------<br>------------- ------ ------ ---- ---- ------- ----- -- your<br>-------- ------- -- ---------- --- - --- ----- ----- ----<br>---- --- --- ----- --- ---- ---- ------- ----- ---- -------<br>--- --- -- ----- -- --- ---- -- --- ---- -- ------ ------<br>--- ----- -- ----,114470.9299999522,114466.04999992996,113862.916,113867.1949999407,113879.583,114479.595,,17,your
screen,html.Screen,1_1_0_1_18,2021-04-16T11:14:38.029Z,,,,,,,,,,,,,,,,53,,,,,,,,,,,,,,526.5449999540288,,response,,,,99,,,,,,,Space,keypress(Space),,,,,,,,---- -- ----- -- ------ - ------- --- ----------<br>------------- ------ ------ ---- ---- ------- ----- -- ----<br>romantic ------- -- ---------- --- - --- ----- ----- ----<br>---- --- --- ----- --- ---- ---- ------- ----- ---- -------<br>--- --- -- ----- -- --- ---- -- --- ---- -- ------ ------<br>--- ----- -- ----,115011.77500002086,115006.13999995403,114462.928,114471.17499995511,114479.595,115029.606,,18,romantic
screen,html.Screen,1_1_0_1_19,2021-04-16T11:14:38.516Z,,,,,,,,,,,,,,,,53,,,,,,,,,,,,,,464.5039999705332,,response,,,,99,,,,,,,Space,keypress(Space),,,,,,,,---- -- ----- -- ------ - ------- --- ----------<br>------------- ------ ------ ---- ---- ------- ----- -- ----<br>-------- partner -- ---------- --- - --- ----- ----- ----<br>---- --- --- ----- --- ---- ---- ------- ----- ---- -------<br>--- --- -- ----- -- --- ---- -- --- ---- -- ------ ------<br>--- ----- -- ----,115499.04999998398,115494.10999997053,115012.939,115012.10499997251,115029.606,115512.949,,19,partner
screen,html.Screen,1_1_0_1_20,2021-04-16T11:14:38.913Z,,,,,,,,,,,,,,,,53,,,,,,,,,,,,,,378.16099996774574,,response,,,,99,,,,,,,Space,keypress(Space),,,,,,,,---- -- ----- -- ------ - ------- --- ----------<br>------------- ------ ------ ---- ---- ------- ----- -- ----<br>-------- ------- is ---------- --- - --- ----- ----- ----<br>---- --- --- ----- --- ---- ---- ------- ----- ---- -------<br>--- --- -- ----- -- --- ---- -- --- ---- -- ------ ------<br>--- ----- -- ----,115895.78999998048,115891.10999996774,115496.282,115499.65999997221,115512.949,115912.957,,20,is
screen,html.Screen,1_1_0_1_21,2021-04-16T11:14:39.843Z,,,,,,,,,,,,,,,,53,,,,,,,,,,,,,,908.0630000321544,,response,,,,99,,,,,,,Space,keypress(Space),,,,,,,,---- -- ----- -- ------ - ------- --- ----------<br>------------- ------ ------ ---- ---- ------- ----- -- ----<br>-------- ------- -- paramount. --- - --- ----- ----- ----<br>---- --- --- ----- --- ---- ---- ------- ----- ---- -------<br>--- --- -- ----- -- --- ---- -- --- ---- -- ------ ------<br>--- ----- -- ----,116826.05000003241,116821.02000003215,115896.29,115895.99500002805,115912.957,116829.642,,21,paramount.
screen,html.Screen,1_1_0_1_22,2021-04-16T11:14:40.386Z,,,,,,,,,,,,,,,,53,,,,,,,,,,,,,,534.4929999234009,,response,,,,99,,,,,,,Space,keypress(Space),,,,,,,,---- -- ----- -- ------ - ------- --- ----------<br>------------- ------ ------ ---- ---- ------- ----- -- ----<br>-------- ------- -- ---------- But - --- ----- ----- ----<br>---- --- --- ----- --- ---- ---- ------- ----- ---- -------<br>--- --- -- ----- -- --- ---- -- --- ---- -- ------ ------<br>--- ----- -- ----,117369.22999995295,117364.13499992341,116812.975,116826.24500000384,116829.642,117379.653,,22,But
screen,html.Screen,1_1_0_1_23,2021-04-16T11:14:40.912Z,,,,,,,,,,,,,,,,53,,,,,,,,,,,,,,510.3020000205579,,response,,,,99,,,,,,,Space,keypress(Space),,,,,,,,---- -- ----- -- ------ - ------- --- ----------<br>------------- ------ ------ ---- ---- ------- ----- -- ----<br>-------- ------- -- ---------- --- a --- ----- ----- ----<br>---- --- --- ----- --- ---- ---- ------- ----- ---- -------<br>--- --- -- ----- -- --- ---- -- --- ---- -- ------ ------<br>--- ----- -- ----,117894.67499998864,117889.95500002056,117362.986,117369.43500000052,117379.653,117896.33,,23,a
screen,html.Screen,1_1_0_1_24,2021-04-16T11:14:41.263Z,,,,,,,,,,,,,,,,53,,,,,,,,,,,,,,345.5599999465776,,response,,,,99,,,,,,,Space,keypress(Space),,,,,,,,---- -- ----- -- ------ - ------- --- ----------<br>------------- ------ ------ ---- ---- ------- ----- -- ----<br>-------- ------- -- ---------- --- - new ----- ----- ----<br>---- --- --- ----- --- ---- ---- ------- ----- ---- -------<br>--- --- -- ----- -- --- ---- -- --- ---- -- ------ ------<br>--- ----- -- ----,118246.30999995861,118241.88999994658,117879.663,117895.3699999256,117896.33,118263.004,,24,new
screen,html.Screen,1_1_0_1_25,2021-04-16T11:14:41.798Z,,,,,,,,,,,,,,,,53,,,,,,,,,,,,,,512.9359999631561,,response,,,,99,,,,,,,Space,keypress(Space),,,,,,,,---- -- ----- -- ------ - ------- --- ----------<br>------------- ------ ------ ---- ---- ------- ----- -- ----<br>-------- ------- -- ---------- --- - --- study ----- ----<br>---- --- --- ----- --- ---- ---- ------- ----- ---- -------<br>--- --- -- ----- -- --- ---- -- --- ---- -- ------ ------<br>--- ----- -- ----,118781.43999993335,118775.93999996316,118246.337,118246.51500000618,118263.004,118796.348,,25,study
screen,html.Screen,1_1_0_1_26,2021-04-16T11:14:42.140Z,,,,,,,,,,,,,,,,53,,,,,,,,,,,,,,322.4920000100974,,response,,,,99,,,,,,,Space,keypress(Space),,,,,,,,---- -- ----- -- ------ - ------- --- ----------<br>------------- ------ ------ ---- ---- ------- ----- -- ----<br>-------- ------- -- ---------- --- - --- ----- finds ----<br>---- --- --- ----- --- ---- ---- ------- ----- ---- -------<br>--- --- -- ----- -- --- ---- -- --- ---- -- ------ ------<br>--- ----- -- ----,119123.22499998845,119118.8400000101,118779.681,118782.8149999259,118796.348,119129.688,,26,finds
screen,html.Screen,1_1_0_1_27,2021-04-16T11:14:42.584Z,,,,,,,,,,,,,,,,53,,,,,,,,,,,,,,430.20699995485484,,response,,,,99,,,,,,,Space,keypress(Space),,,,,,,,---- -- ----- -- ------ - ------- --- ----------<br>------------- ------ ------ ---- ---- ------- ----- -- ----<br>-------- ------- -- ---------- --- - --- ----- ----- that<br>---- --- --- ----- --- ---- ---- ------- ----- ---- -------<br>--- --- -- ----- -- --- ---- -- --- ---- -- ------ ------<br>--- ----- -- ----,119566.57999998424,119559.89499995485,119113.021,119123.43999999575,119129.688,119579.697,,27,that
screen,html.Screen,1_1_0_1_28,2021-04-16T11:14:43.006Z,,,,,,,,,,,,,,,,53,,,,,,,,,,,,,,405.09300001680094,,response,,,,99,,,,,,,Space,keypress(Space),,,,,,,,---- -- ----- -- ------ - ------- --- ----------<br>------------- ------ ------ ---- ---- ------- ----- -- ----<br>-------- ------- -- ---------- --- - --- ----- ----- ----<br>it's --- --- ----- --- ---- ---- ------- ----- ---- -------<br>--- --- -- ----- -- --- ---- -- --- ---- -- ------ ------<br>--- ----- -- ----,119989.08500000834,119984.7900000168,119563.03,119566.80499995127,119579.697,119996.372,,28,it's
screen,html.Screen,1_1_0_1_29,2021-04-16T11:14:43.394Z,,,,,,,,,,,,,,,,53,,,,,,,,,,,,,,375.47799999589915,,response,,,,99,,,,,,,Space,keypress(Space),,,,,,,,---- -- ----- -- ------ - ------- --- ----------<br>------------- ------ ------ ---- ---- ------- ----- -- ----<br>-------- ------- -- ---------- --- - --- ----- ----- ----<br>---- not --- ----- --- ---- ---- ------- ----- ---- -------<br>--- --- -- ----- -- --- ---- -- --- ---- -- ------ ------<br>--- ----- -- ----,120376.46499997936,120371.8499999959,119979.705,119989.3049999373,119996.372,120379.713,,29,not
screen,html.Screen,1_1_0_1_30,2021-04-16T11:14:43.753Z,,,,,,,,,,,,,,,,53,,,,,,,,,,,,,,352.0069999233674,,response,,,,99,,,,,,,Space,keypress(Space),,,,,,,,---- -- ----- -- ------ - ------- --- ----------<br>------------- ------ ------ ---- ---- ------- ----- -- ----<br>-------- ------- -- ---------- --- - --- ----- ----- ----<br>---- --- how ----- --- ---- ---- ------- ----- ---- -------<br>--- --- -- ----- -- --- ---- -- --- ---- -- ------ ------<br>--- ----- -- ----,120736.34499998298,120731.71999992337,120363.046,120376.7049999442,120379.713,120746.387,,30,how
screen,html.Screen,1_1_0_1_31,2021-04-16T11:14:44.211Z,,,,,,,,,,,,,,,,53,,,,,,,,,,,,,,442.37799996985996,,response,,,,99,,,,,,,Space,keypress(Space),,,,,,,,---- -- ----- -- ------ - ------- --- ----------<br>------------- ------ ------ ---- ---- ------- ----- -- ----<br>-------- ------- -- ---------- --- - --- ----- ----- ----<br>---- --- --- close --- ---- ---- ------- ----- ---- -------<br>--- --- -- ----- -- --- ---- -- --- ---- -- ------ ------<br>--- ----- -- ----,121193.52500000969,121188.76499996986,120729.72,120738.59999992419,120746.387,121196.396,,31,close
screen,html.Screen,1_1_0_1_32,2021-04-16T11:14:44.551Z,,,,,,,,,,,,,,,,53,,,,,,,,,,,,,,331.2340000259719,,response,,,,99,,,,,,,Space,keypress(Space),,,,,,,,---- -- ----- -- ------ - ------- --- ----------<br>------------- ------ ------ ---- ---- ------- ----- -- ----<br>-------- ------- -- ---------- --- - --- ----- ----- ----<br>---- --- --- ----- you ---- ---- ------- ----- ---- -------<br>--- --- -- ----- -- --- ---- -- --- ---- -- ------ ------<br>--- ----- -- ----,121534.06999993604,121527.63000002597,121179.729,121193.74999997672,121196.396,121546.403,,32,you
screen,html.Screen,1_1_0_1_33,2021-04-16T11:14:44.909Z,,,,,,,,,,,,,,,,53,,,,,,,,,,,,,,341.21200001418765,,response,,,,99,,,,,,,Space,keypress(Space),,,,,,,,---- -- ----- -- ------ - ------- --- ----------<br>------------- ------ ------ ---- ---- ------- ----- -- ----<br>-------- ------- -- ---------- --- - --- ----- ----- ----<br>---- --- --- ----- --- feel ---- ------- ----- ---- -------<br>--- --- -- ----- -- --- ---- -- --- ---- -- ------ ------<br>--- ----- -- ----,121892.06500002183,121887.6150000142,121529.736,121534.25499994773,121546.403,121896.41,,33,feel
screen,html.Screen,1_1_0_1_34,2021-04-16T11:14:45.278Z,,,,,,,,,,,,,,,,53,,,,,,,,,,,,,,360.23499995763996,,response,,,,99,,,,,,,Space,keypress(Space),,,,,,,,---- -- ----- -- ------ - ------- --- ----------<br>------------- ------ ------ ---- ---- ------- ----- -- ----<br>-------- ------- -- ---------- --- - --- ----- ----- ----<br>---- --- --- ----- --- ---- that ------- ----- ---- -------<br>--- --- -- ----- -- --- ---- -- --- ---- -- ------ ------<br>--- ----- -- ----,122261.3999999594,122256.64499995764,121879.743,121892.24499999546,121896.41,122279.751,,34,that
screen,html.Screen,1_1_0_1_35,2021-04-16T11:14:45.638Z,,,,,,,,,,,,,,,,53,,,,,,,,,,,,,,335.9390000059939,,response,,,,99,,,,,,,Space,keypress(Space),,,,,,,,---- -- ----- -- ------ - ------- --- ----------<br>------------- ------ ------ ---- ---- ------- ----- -- ----<br>-------- ------- -- ---------- --- - --- ----- ----- ----<br>---- --- --- ----- --- ---- ---- matters ----- ---- -------<br>--- --- -- ----- -- --- ---- -- --- ---- -- ------ ------<br>--- ----- -- ----,122620.65499997698,122615.690000006,122263.084,122261.58499997109,122279.751,122629.758,,35,matters
screen,html.Screen,1_1_0_1_36,2021-04-16T11:14:46.306Z,,,,,,,,,,,,,,,,53,,,,,,,,,,,,,,654.8369999755232,,response,,,,99,,,,,,,Space,keypress(Space),,,,,,,,"---- -- ----- -- ------ - ------- --- ----------<br>------------- ------ ------ ---- ---- ------- ----- -- ----<br>-------- ------- -- ---------- --- - --- ----- ----- ----<br>---- --- --- ----- --- ---- ---- ------- most, ---- -------<br>--- --- -- ----- -- --- ---- -- --- ---- -- ------ ------<br>--- ----- -- ----",123289.05999998096,123284.59499997552,122613.091,122620.83999998868,122629.758,123296.926,,36,"most,"
screen,html.Screen,1_1_0_1_37,2021-04-16T11:14:46.894Z,,,,,,,,,,,,,,,,53,,,,,,,,,,,,,,575.5439999438531,,response,,,,99,,,,,,,Space,keypress(Space),,,,,,,,---- -- ----- -- ------ - ------- --- ----------<br>------------- ------ ------ ---- ---- ------- ----- -- ----<br>-------- ------- -- ---------- --- - --- ----- ----- ----<br>---- --- --- ----- --- ---- ---- ------- ----- it's -------<br>--- --- -- ----- -- --- ---- -- --- ---- -- ------ ------<br>--- ----- -- ----,123877.22999998368,123872.46999994386,123280.259,123289.24499999266,123296.926,123880.271,,37,it's
screen,html.Screen,1_1_0_1_38,2021-04-16T11:14:47.261Z,,,,,,,,,,,,,,,,53,,,,,,,,,,,,,,359.2939999380178,,response,,,,99,,,,,,,Space,keypress(Space),,,,,,,,---- -- ----- -- ------ - ------- --- ----------<br>------------- ------ ------ ---- ---- ------- ----- -- ----<br>-------- ------- -- ---------- --- - --- ----- ----- ----<br>---- --- --- ----- --- ---- ---- ------- ----- ---- whether<br>--- --- -- ----- -- --- ---- -- --- ---- -- ------ ------<br>--- ----- -- ----,124244.10499993246,124239.56499993801,123863.604,123877.5049999822,123880.271,124246.945,,38,whether
screen,html.Screen,1_1_0_1_39,2021-04-16T11:14:47.692Z,,,,,,,,,,,,,,,,53,,,,,,,,,,,,,,423.60999996057944,,response,,,,99,,,,,,,Space,keypress(Space),,,,,,,,---- -- ----- -- ------ - ------- --- ----------<br>------------- ------ ------ ---- ---- ------- ----- -- ----<br>-------- ------- -- ---------- --- - --- ----- ----- ----<br>---- --- --- ----- --- ---- ---- ------- ----- ---- -------<br>you --- -- ----- -- --- ---- -- --- ---- -- ------ ------<br>--- ----- -- ----,124675.15499994624,124670.55499996059,124230.278,124244.27999998443,124246.945,124680.287,,39,you
screen,html.Screen,1_1_0_1_40,2021-04-16T11:14:48.080Z,,,,,,,,,,,,,,,,53,,,,,,,,,,,,,,378.2380000003759,,response,,,,99,,,,,,,Space,keypress(Space),,,,,,,,---- -- ----- -- ------ - ------- --- ----------<br>------------- ------ ------ ---- ---- ------- ----- -- ----<br>-------- ------- -- ---------- --- - --- ----- ----- ----<br>---- --- --- ----- --- ---- ---- ------- ----- ---- -------<br>--- are -- ----- -- --- ---- -- --- ---- -- ------ ------<br>--- ----- -- ----,125062.99499992747,125058.52500000037,124663.62,124675.34499999601,124680.287,125080.295,,40,are
screen,html.Screen,1_1_0_1_41,2021-04-16T11:14:48.404Z,,,,,,,,,,,,,,,,53,,,,,,,,,,,,,,301.1900000198948,,response,,,,99,,,,,,,Space,keypress(Space),,,,,,,,---- -- ----- -- ------ - ------- --- ----------<br>------------- ------ ------ ---- ---- ------- ----- -- ----<br>-------- ------- -- ---------- --- - --- ----- ----- ----<br>---- --- --- ----- --- ---- ---- ------- ----- ---- -------<br>--- --- as ----- -- --- ---- -- --- ---- -- ------ ------<br>--- ----- -- ----,125386.51999994181,125381.4850000199,125063.628,125063.18499997724,125080.295,125396.968,,41,as
screen,html.Screen,1_1_0_1_42,2021-04-16T11:14:48.882Z,,,,,,,,,,,,,,,,53,,,,,,,,,,,,,,463.5019999559736,,response,,,,99,,,,,,,Space,keypress(Space),,,,,,,,---- -- ----- -- ------ - ------- --- ----------<br>------------- ------ ------ ---- ---- ------- ----- -- ----<br>-------- ------- -- ---------- --- - --- ----- ----- ----<br>---- --- --- ----- --- ---- ---- ------- ----- ---- -------<br>--- --- -- close -- --- ---- -- --- ---- -- ------ ------<br>--- ----- -- ----,125865.26999995112,125860.46999995597,125380.301,125386.70499995351,125396.968,125880.311,,42,close
screen,html.Screen,1_1_0_1_43,2021-04-16T11:14:49.236Z,,,,,,,,,,,,,,,,53,,,,,,,,,,,,,,333.163999996832,,response,,,,99,,,,,,,Space,keypress(Space),,,,,,,,---- -- ----- -- ------ - ------- --- ----------<br>------------- ------ ------ ---- ---- ------- ----- -- ----<br>-------- ------- -- ---------- --- - --- ----- ----- ----<br>---- --- --- ----- --- ---- ---- ------- ----- ---- -------<br>--- --- -- ----- as --- ---- -- --- ---- -- ------ ------<br>--- ----- -- ----,126218.5799999861,126213.47499999683,125863.644,125867.36999999266,125880.311,126230.318,,43,as
screen,html.Screen,1_1_0_1_44,2021-04-16T11:14:49.651Z,,,,,,,,,,,,,,,,53,,,,,,,,,,,,,,399.1369999292947,,response,,,,99,,,,,,,Space,keypress(Space),,,,,,,,---- -- ----- -- ------ - ------- --- ----------<br>------------- ------ ------ ---- ---- ------- ----- -- ----<br>-------- ------- -- ---------- --- - --- ----- ----- ----<br>---- --- --- ----- --- ---- ---- ------- ----- ---- -------<br>--- --- -- ----- -- you ---- -- --- ---- -- ------ ------<br>--- ----- -- ----,126633.78499995451,126629.4549999293,126213.651,126218.77499995753,126230.318,126646.993,,44,you
screen,html.Screen,1_1_0_1_45,2021-04-16T11:14:50.014Z,,,,,,,,,,,,,,,,53,,,,,,,,,,,,,,345.42700002413767,,response,,,,99,,,,,,,Space,keypress(Space),,,,,,,,---- -- ----- -- ------ - ------- --- ----------<br>------------- ------ ------ ---- ---- ------- ----- -- ----<br>-------- ------- -- ---------- --- - --- ----- ----- ----<br>---- --- --- ----- --- ---- ---- ------- ----- ---- -------<br>--- --- -- ----- -- --- want -- --- ---- -- ------ ------<br>--- ----- -- ----,126997.13499995414,126992.42000002414,126630.326,126633.95499996841,126646.993,127013.667,,45,want
screen,html.Screen,1_1_0_1_46,2021-04-16T11:14:50.421Z,,,,,,,,,,,,,,,,53,,,,,,,,,,,,,,385.58799993841967,,response,,,,99,,,,,,,Space,keypress(Space),,,,,,,,---- -- ----- -- ------ - ------- --- ----------<br>------------- ------ ------ ---- ---- ------- ----- -- ----<br>-------- ------- -- ---------- --- - --- ----- ----- ----<br>---- --- --- ----- --- ---- ---- ------- ----- ---- -------<br>--- --- -- ----- -- --- ---- to --- ---- -- ------ ------<br>--- ----- -- ----,127403.655000031,127399.25499993842,126997,126997.39999999292,127013.667,127413.675,,46,to
screen,html.Screen,1_1_0_1_47,2021-04-16T11:14:50.758Z,,,,,,,,,,,,,,,,53,,,,,,,,,,,,,,323.1199999170349,,response,,,,99,,,,,,,Space,keypress(Space),,,,,,,,"---- -- ----- -- ------ - ------- --- ----------<br>------------- ------ ------ ---- ---- ------- ----- -- ----<br>-------- ------- -- ---------- --- - --- ----- ----- ----<br>---- --- --- ----- --- ---- ---- ------- ----- ---- -------<br>--- --- -- ----- -- --- ---- -- be, ---- -- ------ ------<br>--- ----- -- ----",127741.14499997813,127736.79499991704,127397.008,127403.83500000462,127413.675,127747.015,,47,"be,"
screen,html.Screen,1_1_0_1_48,2021-04-16T11:14:51.284Z,,,,,,,,,,,,,,,,53,,,,,,,,,,,,,,515.199999995195,,response,,,,99,,,,,,,Space,keypress(Space),,,,,,,,---- -- ----- -- ------ - ------- --- ----------<br>------------- ------ ------ ---- ---- ------- ----- -- ----<br>-------- ------- -- ---------- --- - --- ----- ----- ----<br>---- --- --- ----- --- ---- ---- ------- ----- ---- -------<br>--- --- -- ----- -- --- ---- -- --- even -- ------ ------<br>--- ----- -- ----,128266.9749999186,128262.2149999952,127730.348,127741.29499995615,127747.015,128280.359,,48,even
screen,html.Screen,1_1_0_1_49,2021-04-16T11:14:51.573Z,,,,,,,,,,,,,,,,53,,,,,,,,,,,,,,268.8309999324265,,response,,,,99,,,,,,,Space,keypress(Space),,,,,,,,---- -- ----- -- ------ - ------- --- ----------<br>------------- ------ ------ ---- ---- ------- ----- -- ----<br>-------- ------- -- ---------- --- - --- ----- ----- ----<br>---- --- --- ----- --- ---- ---- ------- ----- ---- -------<br>--- --- -- ----- -- --- ---- -- --- ---- if ------ ------<br>--- ----- -- ----,128556.03500001598,128549.18999993242,128263.692,128267.15500000864,128280.359,128563.698,,49,if
screen,html.Screen,1_1_0_1_50,2021-04-16T11:14:52.008Z,,,,,,,,,,,,,,,,53,,,,,,,,,,,,,,422.9919999324193,,response,,,,99,,,,,,,Space,keypress(Space),,,,,,,,---- -- ----- -- ------ - ------- --- ----------<br>------------- ------ ------ ---- ---- ------- ----- -- ----<br>-------- ------- -- ---------- --- - --- ----- ----- ----<br>---- --- --- ----- --- ---- ---- ------- ----- ---- -------<br>--- --- -- ----- -- --- ---- -- --- ---- -- that's ------<br>--- ----- -- ----,128990.86499994155,128986.68999993242,128547.031,128556.20500002988,128563.698,128997.04,,50,that's
screen,html.Screen,1_1_0_1_51,2021-04-16T11:14:52.497Z,,,,,,,,,,,,,,,,53,,,,,,,,,,,,,,478.16999994595244,,response,,,,99,,,,,,,Space,keypress(Space),,,,,,,,---- -- ----- -- ------ - ------- --- ----------<br>------------- ------ ------ ---- ---- ------- ----- -- ----<br>-------- ------- -- ---------- --- - --- ----- ----- ----<br>---- --- --- ----- --- ---- ---- ------- ----- ---- -------<br>--- --- -- ----- -- --- ---- -- --- ---- -- ------ really<br>--- ----- -- ----,129479.7499999404,129475.20999994595,128980.373,128991.00999999791,128997.04,129497.05,,51,really
screen,html.Screen,1_1_0_1_52,2021-04-16T11:14:52.898Z,,,,,,,,,,,,,,,,53,,,,,,,,,,,,,,379.18499997425533,,response,,,,99,,,,,,,Space,keypress(Space),,,,,,,,---- -- ----- -- ------ - ------- --- ----------<br>------------- ------ ------ ---- ---- ------- ----- -- ----<br>-------- ------- -- ---------- --- - --- ----- ----- ----<br>---- --- --- ----- --- ---- ---- ------- ----- ---- -------<br>--- --- -- ----- -- --- ---- -- --- ---- -- ------ ------<br>not ----- -- ----,129880.78499992844,129876.23499997426,129480.383,129479.93999999017,129497.05,129897.058,,52,not
screen,html.Screen,1_1_0_1_53,2021-04-16T11:14:53.271Z,,,,,,,,,,,,,,,,53,,,,,,,,,,,,,,352.0720000110596,,response,,,,99,,,,,,,Space,keypress(Space),,,,,,,,---- -- ----- -- ------ - ------- --- ----------<br>------------- ------ ------ ---- ---- ------- ----- -- ----<br>-------- ------- -- ---------- --- - --- ----- ----- ----<br>---- --- --- ----- --- ---- ---- ------- ----- ---- -------<br>--- --- -- ----- -- --- ---- -- --- ---- -- ------ ------<br>--- close -- ----,130253.60499997623,130249.13000001106,129880.391,129880.9749999782,129897.058,130263.732,,53,close
screen,html.Screen,1_1_0_1_54,2021-04-16T11:14:53.731Z,,,,,,,,,,,,,,,,53,,,,,,,,,,,,,,444.48800002953794,,response,,,,99,,,,,,,Space,keypress(Space),,,,,,,,---- -- ----- -- ------ - ------- --- ----------<br>------------- ------ ------ ---- ---- ------- ----- -- ----<br>-------- ------- -- ---------- --- - --- ----- ----- ----<br>---- --- --- ----- --- ---- ---- ------- ----- ---- -------<br>--- --- -- ----- -- --- ---- -- --- ---- -- ------ ------<br>--- ----- at ----,130713.31499994267,130708.22000002954,130247.065,130254.61499998346,130263.732,130730.408,,54,at
screen,html.Screen,1_1_0_1_55,2021-04-16T11:14:54.436Z,,,,,,,,,,,,,,,,53,,,,,,,,,,,,,,682.572000022803,,response,,,,99,,,,,,,Space,keypress(Space),,,,,,,,---- -- ----- -- ------ - ------- --- ----------<br>------------- ------ ------ ---- ---- ------- ----- -- ----<br>-------- ------- -- ---------- --- - --- ----- ----- ----<br>---- --- --- ----- --- ---- ---- ------- ----- ---- -------<br>--- --- -- ----- -- --- ---- -- --- ---- -- ------ ------<br>--- ----- -- all.,131418.25500002597,131412.9800000228,130713.741,130713.47999991849,130730.408,131430.422,,55,all.
Item 99,flow.Loop,1_1_0_1,2021-04-16T11:14:54.437Z,,,,,,,,,,,,,,,,,,,,,,,,,,,,,,29451.3140000228,,completion,,,,,C,,,,,,,,,,,silence,,,,,131419.48499996215,131412.9800000228,101944.999,101946.72999996692,101961.666,131430.422,,,
Question 1,html.Screen,1_1_0_2,2021-04-16T11:15:01.749Z,,,,,,,,,,,,,,,,,,,,,,,,,,,false,FALSE,,7298.172999993229,,response,,,,99,C,,,,,,TRUE,click #choice-1,,,,silence,,,,,138731.75499995705,138728.59499999322,131413.755,131419.72000000533,131430.422,138747.808,,,
Question 2,html.Screen,1_1_0_3,2021-04-16T11:15:11.418Z,,,,,,,,,,,,,,,,,,,,,,,,,,,false,TRUE,,9649.701999922487,,response,,,,99,C,,,,,,FALSE,click #choice-2,,,,silence,,,,,148400.44999995735,148397.50999992248,138731.141,138731.96999996435,138747.808,148415.063,,,
Item 99,flow.Sequence,1_1_0,2021-04-16T11:15:11.419Z,,,,,,,,,,,,,,,,,,,,,,,,,,,,,,56436.46099992248,,completion,,,,,,,,,,,,,,,,,,,,,148400.72999999393,148397.50999992248,91944.382,91952.73000001907,91961.049,148415.063,,,
Holding screen,html.Screen,1_1_1_0,2021-04-16T11:15:21.419Z,,,,,,,,,,,,,,,,,,,,,,,,,,,,,,10000.809000000008,,timeout,,,,,,,,,,,,,,,,,,,,,158401.1649999302,158399.205,148398.396,148400.90999996755,148415.063,158415.872,,,
screen,html.Screen,1_1_1_1_0,2021-04-16T11:15:22.465Z,,,,,,,,,,,,,,,,54,,,,,,,,,,,,,,1025.58299996375,,response,,,,100,,,,,,,Space,keypress(Space),,,,,,,,At --- ---- --- ------ ----- ------- ---- -- --- ------- --<br>------- ---------- ------ -- ----- -- ----- -- ---- ------<br>--- ----- --- --- ------ -------- ----- --- ------ ----- --<br>----- ----- ---------- --- --- ------ ------ ---- -- ------<br>------- --- ------ ----- --- ---- ------- -- ---- --- --<br>------- ------,159446.87500002328,159441.45499996375,158399.205,158401.38499997556,158415.872,159449.226,,0,At
screen,html.Screen,1_1_1_1_1,2021-04-16T11:15:22.910Z,,,,,,,,,,,,,,,,54,,,,,,,,,,,,,,436.84899992941064,,response,,,,100,,,,,,,Space,keypress(Space),,,,,,,,-- the ---- --- ------ ----- ------- ---- -- --- ------- --<br>------- ---------- ------ -- ----- -- ----- -- ---- ------<br>--- ----- --- --- ------ -------- ----- --- ------ ----- --<br>----- ----- ---------- --- --- ------ ------ ---- -- ------<br>------- --- ------ ----- --- ---- ------- -- ---- --- --<br>------- ------,159891.57500001602,159886.0749999294,159432.559,159447.06499995664,159449.226,159899.235,,1,the
screen,html.Screen,1_1_1_1_2,2021-04-16T11:15:23.323Z,,,,,,,,,,,,,,,,54,,,,,,,,,,,,,,400.8149999616435,,response,,,,100,,,,,,,Space,keypress(Space),,,,,,,,-- --- time --- ------ ----- ------- ---- -- --- ------- --<br>------- ---------- ------ -- ----- -- ----- -- ---- ------<br>--- ----- --- --- ------ -------- ----- --- ------ ----- --<br>----- ----- ---------- --- --- ------ ------ ---- -- ------<br>------- --- ------ ----- --- ---- ------- -- ---- --- --<br>------- ------,160305.15000002924,160300.04999996163,159882.568,159891.7450000299,159899.235,160315.91,,2,time
screen,html.Screen,1_1_1_1_3,2021-04-16T11:15:23.645Z,,,,,,,,,,,,,,,,54,,,,,,,,,,,,,,305.96000003177323,,response,,,,100,,,,,,,Space,keypress(Space),,,,,,,,-- --- ---- the ------ ----- ------- ---- -- --- ------- --<br>------- ---------- ------ -- ----- -- ----- -- ---- ------<br>--- ----- --- --- ------ -------- ----- --- ------ ----- --<br>----- ----- ---------- --- --- ------ ------ ---- -- ------<br>------- --- ------ ----- --- ---- ------- -- ---- --- --<br>------- ------,160626.35499995667,160621.87000003178,160299.243,160305.4449999472,160315.91,160632.583,,3,the
screen,html.Screen,1_1_1_1_4,2021-04-16T11:15:24.036Z,,,,,,,,,,,,,,,,54,,,,,,,,,,,,,,382.38199998027994,,response,,,,100,,,,,,,Space,keypress(Space),,,,,,,,-- --- ---- --- French ----- ------- ---- -- --- ------- --<br>------- ---------- ------ -- ----- -- ----- -- ---- ------<br>--- ----- --- --- ------ -------- ----- --- ------ ----- --<br>----- ----- ---------- --- --- ------ ------ ---- -- ------<br>------- --- ------ ----- --- ---- ------- -- ---- --- --<br>------- ------,161018.15000001807,161014.9649999803,160615.916,160626.52499997057,160632.583,161032.591,,4,French
screen,html.Screen,1_1_1_1_5,2021-04-16T11:15:24.389Z,,,,,,,,,,,,,,,,54,,,,,,,,,,,,,,333.2589999437623,,response,,,,100,,,,,,,Space,keypress(Space),,,,,,,,-- --- ---- --- ------ crown ------- ---- -- --- ------- --<br>------- ---------- ------ -- ----- -- ----- -- ---- ------<br>--- ----- --- --- ------ -------- ----- --- ------ ----- --<br>----- ----- ---------- --- --- ------ ------ ---- -- ------<br>------- --- ------ ----- --- ---- ------- -- ---- --- --<br>------- ------,161370.40999997407,161365.84999994375,161015.924,161018.24499992654,161032.591,161382.598,,5,crown
screen,html.Screen,1_1_1_1_6,2021-04-16T11:15:25.030Z,,,,,,,,,,,,,,,,54,,,,,,,,,,,,,,625.176999947289,,response,,,,100,,,,,,,Space,keypress(Space),,,,,,,,-- --- ---- --- ------ ----- secured ---- -- --- ------- --<br>------- ---------- ------ -- ----- -- ----- -- ---- ------<br>--- ----- --- --- ------ -------- ----- --- ------ ----- --<br>----- ----- ---------- --- --- ------ ------ ---- -- ------<br>------- --- ------ ----- --- ---- ------- -- ---- --- --<br>------- ------,162012.03999994323,162007.7749999473,161365.931,161370.57999998797,161382.598,162015.944,,6,secured
screen,html.Screen,1_1_1_1_7,2021-04-16T11:15:25.446Z,,,,,,,,,,,,,,,,54,,,,,,,,,,,,,,406.83099998455145,,response,,,,100,,,,,,,Space,keypress(Space),,,,,,,,-- --- ---- --- ------ ----- ------- much -- --- ------- --<br>------- ---------- ------ -- ----- -- ----- -- ---- ------<br>--- ----- --- --- ------ -------- ----- --- ------ ----- --<br>----- ----- ---------- --- --- ------ ------ ---- -- ------<br>------- --- ------ ----- --- ---- ------- -- ---- --- --<br>------- ------,162427.44499992114,162422.77499998454,161999.277,162012.16499996372,162015.944,162432.619,,7,much
screen,html.Screen,1_1_1_1_8,2021-04-16T11:15:25.788Z,,,,,,,,,,,,,,,,54,,,,,,,,,,,,,,332.26100003154716,,response,,,,100,,,,,,,Space,keypress(Space),,,,,,,,-- --- ---- --- ------ ----- ------- ---- of --- ------- --<br>------- ---------- ------ -- ----- -- ----- -- ---- ------<br>--- ----- --- --- ------ -------- ----- --- ------ ----- --<br>----- ----- ---------- --- --- ------ ------ ---- -- ------<br>------- --- ------ ----- --- ---- ------- -- ---- --- --<br>------- ------,162769.45999998134,162764.88000003155,162415.952,162427.61499993503,162432.619,162782.626,,8,of
screen,html.Screen,1_1_1_1_9,2021-04-16T11:15:26.110Z,,,,,,,,,,,,,,,,54,,,,,,,,,,,,,,304.214000003587,,response,,,,100,,,,,,,Space,keypress(Space),,,,,,,,-- --- ---- --- ------ ----- ------- ---- -- its ------- --<br>------- ---------- ------ -- ----- -- ----- -- ---- ------<br>--- ----- --- --- ------ -------- ----- --- ------ ----- --<br>----- ----- ---------- --- --- ------ ------ ---- -- ------<br>------- --- ------ ----- --- ---- ------- -- ---- --- --<br>------- ------,163091.8449999299,163086.84000000358,162765.959,162769.62999999523,162782.626,163099.299,,9,its
screen,html.Screen,1_1_1_1_10,2021-04-16T11:15:26.495Z,,,,,,,,,,,,,,,,54,,,,,,,,,,,,,,372.4960000194842,,response,,,,100,,,,,,,Space,keypress(Space),,,,,,,,-- --- ---- --- ------ ----- ------- ---- -- --- revenue --<br>------- ---------- ------ -- ----- -- ----- -- ---- ------<br>--- ----- --- --- ------ -------- ----- --- ------ ----- --<br>----- ----- ---------- --- --- ------ ------ ---- -- ------<br>------- --- ------ ----- --- ---- ------- -- ---- --- --<br>------- ------,163477.09499998018,163471.79500001948,163082.632,163092.01499994379,163099.299,163483.061,,10,revenue
screen,html.Screen,1_1_1_1_11,2021-04-16T11:15:26.908Z,,,,,,,,,,,,,,,,54,,,,,,,,,,,,,,402.6189999484923,,response,,,,100,,,,,,,Space,keypress(Space),,,,,,,,-- --- ---- --- ------ ----- ------- ---- -- --- ------- by<br>------- ---------- ------ -- ----- -- ----- -- ---- ------<br>--- ----- --- --- ------ -------- ----- --- ------ ----- --<br>----- ----- ---------- --- --- ------ ------ ---- -- ------<br>------- --- ------ ----- --- ---- ------- -- ---- --- --<br>------- ------,163889.94499994442,163885.67999994848,163466.394,163478.39499998372,163483.061,163899.736,,11,by
screen,html.Screen,1_1_1_1_12,2021-04-16T11:15:27.589Z,,,,,,,,,,,,,,,,54,,,,,,,,,,,,,,663.0189999626309,,response,,,,100,,,,,,,Space,keypress(Space),,,,,,,,-- --- ---- --- ------ ----- ------- ---- -- --- ------- --<br>issuing ---------- ------ -- ----- -- ----- -- ---- ------<br>--- ----- --- --- ------ -------- ----- --- ------ ----- --<br>----- ----- ---------- --- --- ------ ------ ---- -- ------<br>------- --- ------ ----- --- ---- ------- -- ---- --- --<br>------- ------,164571.0549999494,164562.75499996264,163883.069,163890.1199999964,163899.736,164583.083,,12,issuing
screen,html.Screen,1_1_1_1_13,2021-04-16T11:15:28.080Z,,,,,,,,,,,,,,,,54,,,,,,,,,,,,,,474.54699993747636,,response,,,,100,,,,,,,Space,keypress(Space),,,,,,,,-- --- ---- --- ------ ----- ------- ---- -- --- ------- --<br>------- government ------ -- ----- -- ----- -- ---- ------<br>--- ----- --- --- ------ -------- ----- --- ------ ----- --<br>----- ----- ---------- --- --- ------ ------ ---- -- ------<br>------- --- ------ ----- --- ---- ------- -- ---- --- --<br>------- ------,165062.0099999942,165057.6299999375,164566.416,164571.18999992963,164583.083,165066.426,,13,government
screen,html.Screen,1_1_1_1_14,2021-04-16T11:15:28.959Z,,,,,,,,,,,,,,,,54,,,,,,,,,,,,,,867.1739999893762,,response,,,,100,,,,,,,Space,keypress(Space),,,,,,,,-- --- ---- --- ------ ----- ------- ---- -- --- ------- --<br>------- ---------- bonds. -- ----- -- ----- -- ---- ------<br>--- ----- --- --- ------ -------- ----- --- ------ ----- --<br>----- ----- ---------- --- --- ------ ------ ---- -- ------<br>------- --- ------ ----- --- ---- ------- -- ---- --- --<br>------- ------,165940.45999995433,165933.59999998938,165049.759,165062.1899999678,165066.426,165949.777,,14,bonds.
screen,html.Screen,1_1_1_1_15,2021-04-16T11:15:29.837Z,,,,,,,,,,,,,,,,54,,,,,,,,,,,,,,863.8379999918398,,response,,,,100,,,,,,,Space,keypress(Space),,,,,,,,-- --- ---- --- ------ ----- ------- ---- -- --- ------- --<br>------- ---------- ------ In ----- -- ----- -- ---- ------<br>--- ----- --- --- ------ -------- ----- --- ------ ----- --<br>----- ----- ---------- --- --- ------ ------ ---- -- ------<br>------- --- ------ ----- --- ---- ------- -- ---- --- --<br>------- ------,166819.0300000133,166813.61499999184,165933.11,165940.5750000151,165949.777,166833.128,,15,In
screen,html.Screen,1_1_1_1_16,2021-04-16T11:15:30.939Z,,,,,,,,,,,,,,,,54,,,,,,,,,,,,,,1081.4369999845803,,response,,,,100,,,,,,,Space,keypress(Space),,,,,,,,"-- --- ---- --- ------ ----- ------- ---- -- --- ------- --<br>------- ---------- ------ -- 1727, -- ----- -- ---- ------<br>--- ----- --- --- ------ -------- ----- --- ------ ----- --<br>----- ----- ---------- --- --- ------ ------ ---- -- ------<br>------- --- ------ ----- --- ---- ------- -- ---- --- --<br>------- ------",167920.12000002433,167914.56499998458,166816.461,166819.25499998033,166833.128,167933.15,,16,"1727,"
screen,html.Screen,1_1_1_1_17,2021-04-16T11:15:31.422Z,,,,,,,,,,,,,,,,54,,,,,,,,,,,,,,465.44499991872,,response,,,,100,,,,,,,Space,keypress(Space),,,,,,,,-- --- ---- --- ------ ----- ------- ---- -- --- ------- --<br>------- ---------- ------ -- ----- in ----- -- ---- ------<br>--- ----- --- --- ------ -------- ----- --- ------ ----- --<br>----- ----- ---------- --- --- ------ ------ ---- -- ------<br>------- --- ------ ----- --- ---- ------- -- ---- --- --<br>------- ------,168403.0700000003,168398.5949999187,167916.483,167920.2899999218,167933.15,168416.493,,17,in
screen,html.Screen,1_1_1_1_18,2021-04-16T11:15:31.877Z,,,,,,,,,,,,,,,,54,,,,,,,,,,,,,,437.9620000224386,,response,,,,100,,,,,,,Space,keypress(Space),,,,,,,,-- --- ---- --- ------ ----- ------- ---- -- --- ------- --<br>------- ---------- ------ -- ----- -- order -- ---- ------<br>--- ----- --- --- ------ -------- ----- --- ------ ----- --<br>----- ----- ---------- --- --- ------ ------ ---- -- ------<br>------- --- ------ ----- --- ---- ------- -- ---- --- --<br>------- ------,168858.76500001177,168854.45500002243,168399.826,168403.24499993585,168416.493,168866.502,,18,order
screen,html.Screen,1_1_1_1_19,2021-04-16T11:15:32.211Z,,,,,,,,,,,,,,,,54,,,,,,,,,,,,,,322.02300000502146,,response,,,,100,,,,,,,Space,keypress(Space),,,,,,,,-- --- ---- --- ------ ----- ------- ---- -- --- ------- --<br>------- ---------- ------ -- ----- -- ----- to ---- ------<br>--- ----- --- --- ------ -------- ----- --- ------ ----- --<br>----- ----- ---------- --- --- ------ ------ ---- -- ------<br>------- --- ------ ----- --- ---- ------- -- ---- --- --<br>------- ------,169192.8749999497,169188.52500000503,168849.835,168858.93999994732,168866.502,169199.842,,19,to
screen,html.Screen,1_1_1_1_20,2021-04-16T11:15:32.534Z,,,,,,,,,,,,,,,,54,,,,,,,,,,,,,,310.61299998144386,,response,,,,100,,,,,,,Space,keypress(Space),,,,,,,,-- --- ---- --- ------ ----- ------- ---- -- --- ------- --<br>------- ---------- ------ -- ----- -- ----- -- save ------<br>--- ----- --- --- ------ -------- ----- --- ------ ----- --<br>----- ----- ---------- --- --- ------ ------ ---- -- ------<br>------- --- ------ ----- --- ---- ------- -- ---- --- --<br>------- ------,169515.21999994293,169510.45499998145,169183.175,169193.05499992333,169199.842,169533.182,,20,save
screen,html.Screen,1_1_1_1_21,2021-04-16T11:15:32.999Z,,,,,,,,,,,,,,,,54,,,,,,,,,,,,,,442.23800003158976,,response,,,,100,,,,,,,Space,keypress(Space),,,,,,,,"-- --- ---- --- ------ ----- ------- ---- -- --- ------- --<br>------- ---------- ------ -- ----- -- ----- -- ---- money,<br>--- ----- --- --- ------ -------- ----- --- ------ ----- --<br>----- ----- ---------- --- --- ------ ------ ---- -- ------<br>------- --- ------ ----- --- ---- ------- -- ---- --- --<br>------- ------",169980.87500000838,169975.4200000316,169516.515,169515.38999995682,169533.182,169983.191,,21,"money,"
screen,html.Screen,1_1_1_1_22,2021-04-16T11:15:33.421Z,,,,,,,,,,,,,,,,54,,,,,,,,,,,,,,415.2839999363059,,response,,,,100,,,,,,,Space,keypress(Space),,,,,,,,-- --- ---- --- ------ ----- ------- ---- -- --- ------- --<br>------- ---------- ------ -- ----- -- ----- -- ---- ------<br>the ----- --- --- ------ -------- ----- --- ------ ----- --<br>----- ----- ---------- --- --- ------ ------ ---- -- ------<br>------- --- ------ ----- --- ---- ------- -- ---- --- --<br>------- ------,170402.7950000018,170398.4749999363,169966.524,169981.04999994393,169983.191,170416.533,,22,the
screen,html.Screen,1_1_1_1_23,2021-04-16T11:15:33.815Z,,,,,,,,,,,,,,,,54,,,,,,,,,,,,,,375.8469999989611,,response,,,,100,,,,,,,Space,keypress(Space),,,,,,,,-- --- ---- --- ------ ----- ------- ---- -- --- ------- --<br>------- ---------- ------ -- ----- -- ----- -- ---- ------<br>--- state --- --- ------ -------- ----- --- ------ ----- --<br>----- ----- ---------- --- --- ------ ------ ---- -- ------<br>------- --- ------ ----- --- ---- ------- -- ---- --- --<br>------- ------,170796.69999994803,170792.37999999896,170399.866,170402.96500001568,170416.533,170799.874,,23,state
screen,html.Screen,1_1_1_1_24,2021-04-16T11:15:34.253Z,,,,,,,,,,,,,,,,54,,,,,,,,,,,,,,430.36100002453895,,response,,,,100,,,,,,,Space,keypress(Space),,,,,,,,-- --- ---- --- ------ ----- ------- ---- -- --- ------- --<br>------- ---------- ------ -- ----- -- ----- -- ---- ------<br>--- ----- cut --- ------ -------- ----- --- ------ ----- --<br>----- ----- ---------- --- --- ------ ------ ---- -- ------<br>------- --- ------ ----- --- ---- ------- -- ---- --- --<br>------- ------,171234.6850000322,171230.23500002455,170783.207,170796.86999996193,170799.874,171249.883,,24,cut
screen,html.Screen,1_1_1_1_25,2021-04-16T11:15:34.844Z,,,,,,,,,,,,,,,,54,,,,,,,,,,,,,,570.3069999985455,,response,,,,100,,,,,,,Space,keypress(Space),,,,,,,,-- --- ---- --- ------ ----- ------- ---- -- --- ------- --<br>------- ---------- ------ -- ----- -- ----- -- ---- ------<br>--- ----- --- the ------ -------- ----- --- ------ ----- --<br>----- ----- ---------- --- --- ------ ------ ---- -- ------<br>------- --- ------ ----- --- ---- ------- -- ---- --- --<br>------- ------,171825.71499992628,171820.18999999855,171233.216,171234.87499996554,171249.883,171833.228,,25,the
screen,html.Screen,1_1_1_1_26,2021-04-16T11:15:35.480Z,,,,,,,,,,,,,,,,54,,,,,,,,,,,,,,623.0769999996992,,response,,,,100,,,,,,,Space,keypress(Space),,,,,,,,-- --- ---- --- ------ ----- ------- ---- -- --- ------- --<br>------- ---------- ------ -- ----- -- ----- -- ---- ------<br>--- ----- --- --- bonds' -------- ----- --- ------ ----- --<br>----- ----- ---------- --- --- ------ ------ ---- -- ------<br>------- --- ------ ----- --- ---- ------- -- ---- --- --<br>------- ------,172461.26999997068,172456.3049999997,171816.561,171826.31499995477,171833.228,172466.574,,26,bonds'
screen,html.Screen,1_1_1_1_27,2021-04-16T11:15:35.913Z,,,,,,,,,,,,,,,,54,,,,,,,,,,,,,,423.56600003226777,,response,,,,100,,,,,,,Space,keypress(Space),,,,,,,,-- --- ---- --- ------ ----- ------- ---- -- --- ------- --<br>------- ---------- ------ -- ----- -- ----- -- ---- ------<br>--- ----- --- --- ------ interest ----- --- ------ ----- --<br>----- ----- ---------- --- --- ------ ------ ---- -- ------<br>------- --- ------ ----- --- ---- ------- -- ---- --- --<br>------- ------,172894.54000000842,172890.14000003226,172449.907,172461.43999998458,172466.574,172899.916,,27,interest
screen,html.Screen,1_1_1_1_28,2021-04-16T11:15:36.235Z,,,,,,,,,,,,,,,,54,,,,,,,,,,,,,,311.3089999772783,,response,,,,100,,,,,,,Space,keypress(Space),,,,,,,,-- --- ---- --- ------ ----- ------- ---- -- --- ------- --<br>------- ---------- ------ -- ----- -- ----- -- ---- ------<br>--- ----- --- --- ------ -------- rate. --- ------ ----- --<br>----- ----- ---------- --- --- ------ ------ ---- -- ------<br>------- --- ------ ----- --- ---- ------- -- ---- --- --<br>------- ------,173216.06999996584,173211.22499997728,172883.249,172894.71499994397,172899.916,173233.256,,28,rate.
screen,html.Screen,1_1_1_1_29,2021-04-16T11:15:36.766Z,,,,,,,,,,,,,,,,54,,,,,,,,,,,,,,507.92899993347237,,response,,,,100,,,,,,,Space,keypress(Space),,,,,,,,-- --- ---- --- ------ ----- ------- ---- -- --- ------- --<br>------- ---------- ------ -- ----- -- ----- -- ---- ------<br>--- ----- --- --- ------ -------- ----- The ------ ----- --<br>----- ----- ---------- --- --- ------ ------ ---- -- ------<br>------- --- ------ ----- --- ---- ------- -- ---- --- --<br>------- ------,173747.86000000313,173741.18499993347,173216.589,173216.23999997973,173233.256,173767.109,,29,The
screen,html.Screen,1_1_1_1_30,2021-04-16T11:15:37.142Z,,,,,,,,,,,,,,,,54,,,,,,,,,,,,,,351.9409999793279,,response,,,,100,,,,,,,Space,keypress(Space),,,,,,,,-- --- ---- --- ------ ----- ------- ---- -- --- ------- --<br>------- ---------- ------ -- ----- -- ----- -- ---- ------<br>--- ----- --- --- ------ -------- ----- --- market ----- --<br>----- ----- ---------- --- --- ------ ------ ---- -- ------<br>------- --- ------ ----- --- ---- ------- -- ---- --- --<br>------- ------,174123.7099999562,174119.04999997932,173750.442,173747.955000028,173767.109,174133.783,,30,market
screen,html.Screen,1_1_1_1_31,2021-04-16T11:15:39.458Z,,,,,,,,,,,,,,,,54,,,,,,,,,,,,,,2299.3269999835757,,response,,,,100,,,,,,,Space,keypress(Space),,,,,,,,-- --- ---- --- ------ ----- ------- ---- -- --- ------- --<br>------- ---------- ------ -- ----- -- ----- -- ---- ------<br>--- ----- --- --- ------ -------- ----- --- ------ value --<br>----- ----- ---------- --- --- ------ ------ ---- -- ------<br>------- --- ------ ----- --- ---- ------- -- ---- --- --<br>------- ------,176439.619999961,176433.10999998357,174117.116,174123.8799999701,174133.783,176450.496,,31,value
screen,html.Screen,1_1_1_1_32,2021-04-16T11:15:39.938Z,,,,,,,,,,,,,,,,54,,,,,,,,,,,,,,463.5540000212204,,response,,,,100,,,,,,,Space,keypress(Space),,,,,,,,-- --- ---- --- ------ ----- ------- ---- -- --- ------- --<br>------- ---------- ------ -- ----- -- ----- -- ---- ------<br>--- ----- --- --- ------ -------- ----- --- ------ ----- of<br>----- ----- ---------- --- --- ------ ------ ---- -- ------<br>------- --- ------ ----- --- ---- ------- -- ---- --- --<br>------- ------,176919.09999994095,176914.05000002123,176433.829,176439.79500001296,176450.496,176933.839,,32,of
screen,html.Screen,1_1_1_1_33,2021-04-16T11:15:40.523Z,,,,,,,,,,,,,,,,54,,,,,,,,,,,,,,564.1259999877366,,response,,,,100,,,,,,,Space,keypress(Space),,,,,,,,-- --- ---- --- ------ ----- ------- ---- -- --- ------- --<br>------- ---------- ------ -- ----- -- ----- -- ---- ------<br>--- ----- --- --- ------ -------- ----- --- ------ ----- --<br>these ----- ---------- --- --- ------ ------ ---- -- ------<br>------- --- ------ ----- --- ---- ------- -- ---- --- --<br>------- ------,177503.83499998134,177497.96499998774,176917.172,176919.280000031,176933.839,177517.184,,33,these
screen,html.Screen,1_1_1_1_34,2021-04-16T11:15:40.930Z,,,,,,,,,,,,,,,,54,,,,,,,,,,,,,,389.820999928168,,response,,,,100,,,,,,,Space,keypress(Space),,,,,,,,-- --- ---- --- ------ ----- ------- ---- -- --- ------- --<br>------- ---------- ------ -- ----- -- ----- -- ---- ------<br>--- ----- --- --- ------ -------- ----- --- ------ ----- --<br>----- bonds ---------- --- --- ------ ------ ---- -- ------<br>------- --- ------ ----- --- ---- ------- -- ---- --- --<br>------- ------,177911.28499992192,177907.00499992818,177500.517,177504.13999997545,177517.184,177917.192,,34,bonds
screen,html.Screen,1_1_1_1_35,2021-04-16T11:15:41.623Z,,,,,,,,,,,,,,,,54,,,,,,,,,,,,,,681.6980000229378,,response,,,,100,,,,,,,Space,keypress(Space),,,,,,,,"-- --- ---- --- ------ ----- ------- ---- -- --- ------- --<br>------- ---------- ------ -- ----- -- ----- -- ---- ------<br>--- ----- --- --- ------ -------- ----- --- ------ ----- --<br>----- ----- plummeted, --- --- ------ ------ ---- -- ------<br>------- --- ------ ----- --- ---- ------- -- ---- --- --<br>------- ------",178603.99999993388,178598.89000002295,177900.525,177911.46500001196,177917.192,178617.206,,35,"plummeted,"
screen,html.Screen,1_1_1_1_36,2021-04-16T11:15:42.031Z,,,,,,,,,,,,,,,,54,,,,,,,,,,,,,,390.6639999721665,,response,,,,100,,,,,,,Space,keypress(Space),,,,,,,,-- --- ---- --- ------ ----- ------- ---- -- --- ------- --<br>------- ---------- ------ -- ----- -- ----- -- ---- ------<br>--- ----- --- --- ------ -------- ----- --- ------ ----- --<br>----- ----- ---------- and --- ------ ------ ---- -- ------<br>------- --- ------ ----- --- ---- ------- -- ---- --- --<br>------- ------,179012.3700000113,179007.86999997217,178600.539,178604.17499998584,178617.206,179017.214,,36,and
screen,html.Screen,1_1_1_1_37,2021-04-16T11:15:42.350Z,,,,,,,,,,,,,,,,54,,,,,,,,,,,,,,309.6809999473917,,response,,,,100,,,,,,,Space,keypress(Space),,,,,,,,-- --- ---- --- ------ ----- ------- ---- -- --- ------- --<br>------- ---------- ------ -- ----- -- ----- -- ---- ------<br>--- ----- --- --- ------ -------- ----- --- ------ ----- --<br>----- ----- ---------- --- the ------ ------ ---- -- ------<br>------- --- ------ ----- --- ---- ------- -- ---- --- --<br>------- ------,179331.28499996383,179326.8949999474,179000.547,179012.54000002518,179017.214,179333.887,,37,the
screen,html.Screen,1_1_1_1_38,2021-04-16T11:15:42.657Z,,,,,,,,,,,,,,,,54,,,,,,,,,,,,,,299.8229999655159,,response,,,,100,,,,,,,Space,keypress(Space),,,,,,,,-- --- ---- --- ------ ----- ------- ---- -- --- ------- --<br>------- ---------- ------ -- ----- -- ----- -- ---- ------<br>--- ----- --- --- ------ -------- ----- --- ------ ----- --<br>----- ----- ---------- --- --- market ------ ---- -- ------<br>------- --- ------ ----- --- ---- ------- -- ---- --- --<br>------- ------,179638.30999995116,179633.7099999655,179317.22,179331.4600000158,179333.887,179650.56,,38,market
screen,html.Screen,1_1_1_1_39,2021-04-16T11:15:42.984Z,,,,,,,,,,,,,,,,54,,,,,,,,,,,,,,310.14499997586245,,response,,,,100,,,,,,,Space,keypress(Space),,,,,,,,-- --- ---- --- ------ ----- ------- ---- -- --- ------- --<br>------- ---------- ------ -- ----- -- ----- -- ---- ------<br>--- ----- --- --- ------ -------- ----- --- ------ ----- --<br>----- ----- ---------- --- --- ------ became ---- -- ------<br>------- --- ------ ----- --- ---- ------- -- ---- --- --<br>------- ------,179964.81999999378,179960.70499997586,179633.893,179638.48500000313,179650.56,179967.233,,39,became
screen,html.Screen,1_1_1_1_40,2021-04-16T11:15:43.304Z,,,,,,,,,,,,,,,,54,,,,,,,,,,,,,,314.5269999252632,,response,,,,100,,,,,,,Space,keypress(Space),,,,,,,,-- --- ---- --- ------ ----- ------- ---- -- --- ------- --<br>------- ---------- ------ -- ----- -- ----- -- ---- ------<br>--- ----- --- --- ------ -------- ----- --- ------ ----- --<br>----- ----- ---------- --- --- ------ ------ wary -- ------<br>------- --- ------ ----- --- ---- ------- -- ---- --- --<br>------- ------,180285.19500000402,180281.75999992527,179950.566,179964.99000000767,179967.233,180300.573,,40,wary
screen,html.Screen,1_1_1_1_41,2021-04-16T11:15:43.642Z,,,,,,,,,,,,,,,,54,,,,,,,,,,,,,,317.0819999508967,,response,,,,100,,,,,,,Space,keypress(Space),,,,,,,,-- --- ---- --- ------ ----- ------- ---- -- --- ------- --<br>------- ---------- ------ -- ----- -- ----- -- ---- ------<br>--- ----- --- --- ------ -------- ----- --- ------ ----- --<br>----- ----- ---------- --- --- ------ ------ ---- of ------<br>------- --- ------ ----- --- ---- ------- -- ---- --- --<br>------- ------,180622.77000001632,180617.6549999509,180283.906,180285.2900000289,180300.573,180633.913,,41,of
screen,html.Screen,1_1_1_1_42,2021-04-16T11:15:44.047Z,,,,,,,,,,,,,,,,54,,,,,,,,,,,,,,389.8669999304111,,response,,,,100,,,,,,,Space,keypress(Space),,,,,,,,-- --- ---- --- ------ ----- ------- ---- -- --- ------- --<br>------- ---------- ------ -- ----- -- ----- -- ---- ------<br>--- ----- --- --- ------ -------- ----- --- ------ ----- --<br>----- ----- ---------- --- --- ------ ------ ---- -- French<br>------- --- ------ ----- --- ---- ------- -- ---- --- --<br>------- ------,181028.31999992486,181023.7799999304,180617.246,180622.94499995187,180633.913,181033.921,,42,French
screen,html.Screen,1_1_1_1_43,2021-04-16T11:15:44.513Z,,,,,,,,,,,,,,,,54,,,,,,,,,,,,,,455.85899994531064,,response,,,,100,,,,,,,Space,keypress(Space),,,,,,,,-- --- ---- --- ------ ----- ------- ---- -- --- ------- --<br>------- ---------- ------ -- ----- -- ----- -- ---- ------<br>--- ----- --- --- ------ -------- ----- --- ------ ----- --<br>----- ----- ---------- --- --- ------ ------ ---- -- ------<br>credit. --- ------ ----- --- ---- ------- -- ---- --- --<br>------- ------,181494.41499996465,181489.7799999453,181017.254,181028.88999995776,181033.921,181500.597,,43,credit.
screen,html.Screen,1_1_1_1_44,2021-04-16T11:15:44.953Z,,,,,,,,,,,,,,,,54,,,,,,,,,,,,,,429.0930000190274,,response,,,,100,,,,,,,Space,keypress(Space),,,,,,,,-- --- ---- --- ------ ----- ------- ---- -- --- ------- --<br>------- ---------- ------ -- ----- -- ----- -- ---- ------<br>--- ----- --- --- ------ -------- ----- --- ------ ----- --<br>----- ----- ---------- --- --- ------ ------ ---- -- ------<br>------- The ------ ----- --- ---- ------- -- ---- --- --<br>------- ------,181934.26499993075,181929.69000001904,181483.93,181494.58499997854,181500.597,181950.606,,44,The
screen,html.Screen,1_1_1_1_45,2021-04-16T11:15:45.229Z,,,,,,,,,,,,,,,,54,,,,,,,,,,,,,,254.97399995071464,,response,,,,100,,,,,,,Space,keypress(Space),,,,,,,,-- --- ---- --- ------ ----- ------- ---- -- --- ------- --<br>------- ---------- ------ -- ----- -- ----- -- ---- ------<br>--- ----- --- --- ------ -------- ----- --- ------ ----- --<br>----- ----- ---------- --- --- ------ ------ ---- -- ------<br>------- --- French ----- --- ---- ------- -- ---- --- --<br>------- ------,182209.87999998033,182205.5799999507,181933.939,181934.44999994244,181950.606,182217.278,,45,French
screen,html.Screen,1_1_1_1_46,2021-04-16T11:15:45.544Z,,,,,,,,,,,,,,,,54,,,,,,,,,,,,,,302.26699993008515,,response,,,,100,,,,,,,Space,keypress(Space),,,,,,,,-- --- ---- --- ------ ----- ------- ---- -- --- ------- --<br>------- ---------- ------ -- ----- -- ----- -- ---- ------<br>--- ----- --- --- ------ -------- ----- --- ------ ----- --<br>----- ----- ---------- --- --- ------ ------ ---- -- ------<br>------- --- ------ state --- ---- ------- -- ---- --- --<br>------- ------,182524.92499991786,182519.54499993008,182200.611,182210.0550000323,182217.278,182533.951,,46,state
screen,html.Screen,1_1_1_1_47,2021-04-16T11:15:45.831Z,,,,,,,,,,,,,,,,54,,,,,,,,,,,,,,273.6939999352908,,response,,,,100,,,,,,,Space,keypress(Space),,,,,,,,-- --- ---- --- ------ ----- ------- ---- -- --- ------- --<br>------- ---------- ------ -- ----- -- ----- -- ---- ------<br>--- ----- --- --- ------ -------- ----- --- ------ ----- --<br>----- ----- ---------- --- --- ------ ------ ---- -- ------<br>------- --- ------ ----- was ---- ------- -- ---- --- --<br>------- ------,182811.9449999649,182807.6449999353,182517.284,182525.09499993175,182533.951,182817.29,,47,was
screen,html.Screen,1_1_1_1_48,2021-04-16T11:15:46.097Z,,,,,,,,,,,,,,,,54,,,,,,,,,,,,,,252.3249999275722,,response,,,,100,,,,,,,Space,keypress(Space),,,,,,,,-- --- ---- --- ------ ----- ------- ---- -- --- ------- --<br>------- ---------- ------ -- ----- -- ----- -- ---- ------<br>--- ----- --- --- ------ -------- ----- --- ------ ----- --<br>----- ----- ---------- --- --- ------ ------ ---- -- ------<br>------- --- ------ ----- --- left ------- -- ---- --- --<br>------- ------,183077.7099999832,183069.61499992758,182800.623,182812.1149999788,182817.29,183083.962,,48,left
screen,html.Screen,1_1_1_1_49,2021-04-16T11:15:46.366Z,,,,,,,,,,,,,,,,54,,,,,,,,,,,,,,258.6430000125547,,response,,,,100,,,,,,,Space,keypress(Space),,,,,,,,-- --- ---- --- ------ ----- ------- ---- -- --- ------- --<br>------- ---------- ------ -- ----- -- ----- -- ---- ------<br>--- ----- --- --- ------ -------- ----- --- ------ ----- --<br>----- ----- ---------- --- --- ------ ------ ---- -- ------<br>------- --- ------ ----- --- ---- without -- ---- --- --<br>------- ------,183346.9449999975,183342.60500001255,183067.295,183077.88999995682,183083.962,183351.094,,49,without
screen,html.Screen,1_1_1_1_50,2021-04-16T11:15:46.663Z,,,,,,,,,,,,,,,,54,,,,,,,,,,,,,,288.48599995908444,,response,,,,100,,,,,,,Space,keypress(Space),,,,,,,,-- --- ---- --- ------ ----- ------- ---- -- --- ------- --<br>------- ---------- ------ -- ----- -- ----- -- ---- ------<br>--- ----- --- --- ------ -------- ----- --- ------ ----- --<br>----- ----- ---------- --- --- ------ ------ ---- -- ------<br>------- --- ------ ----- --- ---- ------- an ---- --- --<br>------- ------,183644.43999994546,183639.5799999591,183334.427,183347.11999993306,183351.094,183651.1,,50,an
screen,html.Screen,1_1_1_1_51,2021-04-16T11:15:47.034Z,,,,,,,,,,,,,,,,54,,,,,,,,,,,,,,359.4699999257864,,response,,,,100,,,,,,,Space,keypress(Space),,,,,,,,-- --- ---- --- ------ ----- ------- ---- -- --- ------- --<br>------- ---------- ------ -- ----- -- ----- -- ---- ------<br>--- ----- --- --- ------ -------- ----- --- ------ ----- --<br>----- ----- ---------- --- --- ------ ------ ---- -- ------<br>------- --- ------ ----- --- ---- ------- -- easy --- --<br>------- ------,184015.14499995392,184010.5699999258,183634.433,183644.60999995936,183651.1,184017.774,,51,easy
screen,html.Screen,1_1_1_1_52,2021-04-16T11:15:47.366Z,,,,,,,,,,,,,,,,54,,,,,,,,,,,,,,324.77599994299817,,response,,,,100,,,,,,,Space,keypress(Space),,,,,,,,-- --- ---- --- ------ ----- ------- ---- -- --- ------- --<br>------- ---------- ------ -- ----- -- ----- -- ---- ------<br>--- ----- --- --- ------ -------- ----- --- ------ ----- --<br>----- ----- ---------- --- --- ------ ------ ---- -- ------<br>------- --- ------ ----- --- ---- ------- -- ---- way --<br>------- ------,184346.84999997262,184342.549999943,184001.107,184015.3200000059,184017.774,184351.114,,52,way
screen,html.Screen,1_1_1_1_53,2021-04-16T11:15:47.620Z,,,,,,,,,,,,,,,,54,,,,,,,,,,,,,,245.43099997850368,,response,,,,100,,,,,,,Space,keypress(Space),,,,,,,,-- --- ---- --- ------ ----- ------- ---- -- --- ------- --<br>------- ---------- ------ -- ----- -- ----- -- ---- ------<br>--- ----- --- --- ------ -------- ----- --- ------ ----- --<br>----- ----- ---------- --- --- ------ ------ ---- -- ------<br>------- --- ------ ----- --- ---- ------- -- ---- --- of<br>------- ------,184600.86000000592,184596.5449999785,184334.447,184347.0250000246,184351.114,184617.786,,53,of
screen,html.Screen,1_1_1_1_54,2021-04-16T11:15:47.945Z,,,,,,,,,,,,,,,,54,,,,,,,,,,,,,,303.7090000168828,,response,,,,100,,,,,,,Space,keypress(Space),,,,,,,,-- --- ---- --- ------ ----- ------- ---- -- --- ------- --<br>------- ---------- ------ -- ----- -- ----- -- ---- ------<br>--- ----- --- --- ------ -------- ----- --- ------ ----- --<br>----- ----- ---------- --- --- ------ ------ ---- -- ------<br>------- --- ------ ----- --- ---- ------- -- ---- --- --<br>raising ------,184925.72499997914,184921.49500001688,184601.119,184601.03499994148,184617.786,184934.459,,54,raising
screen,html.Screen,1_1_1_1_55,2021-04-16T11:15:48.476Z,,,,,,,,,,,,,,,,54,,,,,,,,,,,,,,517.0859999598761,,response,,,,100,,,,,,,Space,keypress(Space),,,,,,,,-- --- ---- --- ------ ----- ------- ---- -- --- ------- --<br>------- ---------- ------ -- ----- -- ----- -- ---- ------<br>--- ----- --- --- ------ -------- ----- --- ------ ----- --<br>----- ----- ---------- --- --- ------ ------ ---- -- ------<br>------- --- ------ ----- --- ---- ------- -- ---- --- --<br>------- money.,185457.44999998715,185451.54499995988,184917.792,184925.9000000311,184934.459,185467.803,,55,money.
Item 100,flow.Loop,1_1_1_1,2021-04-16T11:15:48.477Z,,,,,,,,,,,,,,,,,,,,,,,,,,,,,,27035.672999959876,,completion,,,,,C,,,,,,,,,,,silence,,,,,185457.73999998346,185451.54499995988,158399.205,158401.33000002243,158415.872,185467.803,,,
Question 1,html.Screen,1_1_1_2,2021-04-16T11:15:52.611Z,,,,,,,,,,,,,,,,,,,,,,,,,,,true,TRUE,,4121.061999939673,,response,,,,100,C,,,,,,TRUE,click #choice-1,,,,silence,,,,,189591.95499995258,189588.8649999397,185451.136,185457.87499996368,185467.803,189601.219,,,
Question 2,html.Screen,1_1_1_3,2021-04-16T11:15:54.819Z,,,,,,,,,,,,,,,,,,,,,,,,,,,true,FALSE,,2195.446000030759,,response,,,,100,C,,,,,,FALSE,click #choice-2,,,,silence,,,,,191799.72499993164,191796.66500003077,189584.552,189592.21999999136,189601.219,191801.263,,,
Item 100,flow.Sequence,1_1_1,2021-04-16T11:15:54.819Z,,,,,,,,,,,,,,,,,,,,,,,,,,,,,,43381.602000030776,,completion,,,,,,,,,,,,,,,,,,,,,191800.02999992575,191796.66500003077,148398.396,148400.85500001442,148415.063,191801.263,,,
End of Practice,html.Page,1_1_2,2021-04-16T11:15:59.110Z,,,,,,,,,,,,,,,,,,,,,,,,,,,,,,4289.387000027375,,form submission,,,,,,,,,,,,,,,,,,,,,196090.95999994315,196090.65000002738,191784.596,191800.1650000224,191801.263,196101.815,,,
Practice,flow.Sequence,1_1,2021-04-16T11:15:59.111Z,,,,,,,,,,,,,,,,,,,,,,,,,,,,,,104129.60100002738,,completion,,,,,,,,,,,,,,,,,,,,,196091.23000002,196090.65000002738,91944.382,91952.65500003006,91961.049,196101.815,,,
Trap_instruction,html.Page,1_2_0,2021-04-16T11:16:02.753Z,,,,,,,,,,,,,,,,,,,,,,,,,,,,,,3631.735000004468,,form submission,,,,,,,,,,,,,,,,,,,,,199733.85499999858,199733.55000000447,196085.148,196091.40999999363,196101.815,199751.888,,,
trap_trial,html.Screen,1_2_1,2021-04-16T11:16:07.822Z,,,,,,,,,,,,,,,,,,,,,,,,,,,true,1,,5048.056999977009,,response,,,,,,,,,,,1,click #choice-1,,,,,,,,,204802.87499993574,204799.94499997701,199718.554,199734.0049999766,199751.888,204819.157,,,
end of trap trial,html.Page,1_2_2,2021-04-16T11:16:09.218Z,,,,,,,,,,,,,,,,,,,,,,,,,,,,,,1378.5329999426613,,form submission,,,,,,,,,,,,,,,,,,,,,206197.99999997485,206197.68999994267,204802.49,204803.07499994524,204819.157,206202.518,,,
Trap 1,flow.Sequence,1_2,2021-04-16T11:16:09.218Z,,,,,,,,,,,,,,,,,,,,,,,,,,,,,,10095.874999942665,,completion,,,,,,,,,,,,,,,,,,,,,206198.25000001583,206197.68999994267,196085.148,196091.35000000242,196101.815,206202.518,,,
Standby,html.Page,1_3_0,2021-04-16T11:16:17.207Z,,,,,,,,,,,,,,,,,,,,,,,,,,,,,,8000.1600000000035,,timeout,,,,,,,,,,,,,,,,,,,,,214187.2100000037,214186.011,206185.851,206198.42000002973,206202.518,214202.678,,,
Holding screen,html.Screen,1_3_1_0_0,2021-04-16T11:16:24.208Z,,,,,,,,,,,,,,,,,,,,,,,,,,,,,,7000.7149999999965,,timeout,,,,,,,,,,,,,,,,,,,,,221188.13499994576,221186.726,214186.011,214187.42999993265,214202.678,221203.393,,,
screen,html.Screen,1_3_1_0_1_0,2021-04-16T11:16:25.514Z,,,,,,,,,,,,,,,,51,,,,,,,,,,,,,,1284.6769999630342,,response,,,,13,C,,,,,,Space,keypress(Space),,,,instrumental,,,,American -------- --- --- ---- --- --- ------ -- --------<br>---- --------- --- ------- ------------ ---------- ---------<br>--- ---------- ------- ---------- ------- -- -------- ----<br>---- --- ------ ----- ------ -- ---- --- ----- -- - -------<br>-------- -- --- --- -- ----- ----------- ----- -----------<br>---- --- ---------- --- ---- --- -- ----------,222493.78999997862,222488.06999996305,221186.726,221188.31999995746,221203.393,222503.419,,0,American
screen,html.Screen,1_3_1_0_1_1,2021-04-16T11:16:26.059Z,,,,,,,,,,,,,,,,51,,,,,,,,,,,,,,531.765999927884,,response,,,,13,C,,,,,,Space,keypress(Space),,,,instrumental,,,,-------- industry --- --- ---- --- --- ------ -- --------<br>---- --------- --- ------- ------------ ---------- ---------<br>--- ---------- ------- ---------- ------- -- -------- ----<br>---- --- ------ ----- ------ -- ---- --- ----- -- - -------<br>-------- -- --- --- -- ----- ----------- ----- -----------<br>---- --- ---------- --- ---- --- -- ----------,223038.76499994658,223035.18499992788,222486.752,222493.9000000013,222503.419,223053.43,,1,industry
screen,html.Screen,1_3_1_0_1_2,2021-04-16T11:16:26.872Z,,,,,,,,,,,,,,,,51,,,,,,,,,,,,,,794.704999978363,,response,,,,13,C,,,,,,Space,keypress(Space),,,,instrumental,,,,-------- -------- may --- ---- --- --- ------ -- --------<br>---- --------- --- ------- ------------ ---------- ---------<br>--- ---------- ------- ---------- ------- -- -------- ----<br>---- --- ------ ----- ------ -- ---- --- ----- -- - -------<br>-------- -- --- --- -- ----- ----------- ----- -----------<br>---- --- ---------- --- ---- --- -- ----------,223851.94500000216,223848.13499997836,223036.763,223039.00999994949,223053.43,223853.446,,2,may
screen,html.Screen,1_3_1_0_1_3,2021-04-16T11:16:27.645Z,,,,,,,,,,,,,,,,51,,,,,,,,,,,,,,767.6539999893866,,response,,,,13,C,,,,,,Space,keypress(Space),,,,instrumental,,,,-------- -------- --- not ---- --- --- ------ -- --------<br>---- --------- --- ------- ------------ ---------- ---------<br>--- ---------- ------- ---------- ------- -- -------- ----<br>---- --- ------ ----- ------ -- ---- --- ----- -- - -------<br>-------- -- --- --- -- ----- ----------- ----- -----------<br>---- --- ---------- --- ---- --- -- ----------,224624.97499992605,224621.09999998938,223836.779,223852.03499998897,223853.446,224637.257,,3,not
screen,html.Screen,1_3_1_0_1_4,2021-04-16T11:16:28.312Z,,,,,,,,,,,,,,,,51,,,,,,,,,,,,,,650.7230000227864,,response,,,,13,C,,,,,,Space,keypress(Space),,,,instrumental,,,,-------- -------- --- --- know --- --- ------ -- --------<br>---- --------- --- ------- ------------ ---------- ---------<br>--- ---------- ------- ---------- ------- -- -------- ----<br>---- --- ------ ----- ------ -- ---- --- ----- -- - -------<br>-------- -- --- --- -- ----- ----------- ----- -----------<br>---- --- ---------- --- ---- --- -- ----------,225291.36999999173,225287.9800000228,224620.59,224625.06500002928,224637.257,225303.937,,4,know
screen,html.Screen,1_3_1_0_1_5,2021-04-16T11:16:29.063Z,,,,,,,,,,,,,,,,51,,,,,,,,,,,,,,735.8829999472073,,response,,,,13,C,,,,,,Space,keypress(Space),,,,instrumental,,,,"-------- -------- --- --- ---- it, --- ------ -- --------<br>---- --------- --- ------- ------------ ---------- ---------<br>--- ---------- ------- ---------- ------- -- -------- ----<br>---- --- ------ ----- ------ -- ---- --- ----- -- - -------<br>-------- -- --- --- -- ----- ----------- ----- -----------<br>---- --- ---------- --- ---- --- -- ----------",226042.62999992352,226039.8199999472,225287.27,225291.45999997854,225303.937,226053.952,,5,"it,"
screen,html.Screen,1_3_1_0_1_6,2021-04-16T11:16:29.726Z,,,,,,,,,,,,,,,,51,,,,,,,,,,,,,,648.0079999766895,,response,,,,13,C,,,,,,Space,keypress(Space),,,,instrumental,,,,-------- -------- --- --- ---- --- but ------ -- --------<br>---- --------- --- ------- ------------ ---------- ---------<br>--- ---------- ------- ---------- ------- -- -------- ----<br>---- --- ------ ----- ------ -- ---- --- ----- -- - -------<br>-------- -- --- --- -- ----- ----------- ----- -----------<br>---- --- ---------- --- ---- --- -- ----------,226706.25499996822,226701.95999997668,226037.285,226042.7399999462,226053.952,226720.632,,6,but
screen,html.Screen,1_3_1_0_1_7,2021-04-16T11:16:30.365Z,,,,,,,,,,,,,,,,51,,,,,,,,,,,,,,621.1579999767418,,response,,,,13,C,,,,,,Space,keypress(Space),,,,instrumental,,,,-------- -------- --- --- ---- --- --- debate -- --------<br>---- --------- --- ------- ------------ ---------- ---------<br>--- ---------- ------- ---------- ------- -- -------- ----<br>---- --- ------ ----- ------ -- ---- --- ----- -- - -------<br>-------- -- --- --- -- ----- ----------- ----- -----------<br>---- --- ---------- --- ---- --- -- ----------,227345.12499999255,227341.78999997675,226703.965,226706.34499995504,226720.632,227353.978,,7,debate
screen,html.Screen,1_3_1_0_1_8,2021-04-16T11:16:30.907Z,,,,,,,,,,,,,,,,51,,,,,,,,,,,,,,529.9019999793964,,response,,,,13,C,,,,,,Space,keypress(Space),,,,instrumental,,,,-------- -------- --- --- ---- --- --- ------ in --------<br>---- --------- --- ------- ------------ ---------- ---------<br>--- ---------- ------- ---------- ------- -- -------- ----<br>---- --- ------ ----- ------ -- ---- --- ----- -- - -------<br>-------- -- --- --- -- ----- ----------- ----- -----------<br>---- --- ---------- --- ---- --- -- ----------,227887.02000002377,227883.8799999794,227337.311,227345.2399999369,227353.978,227903.989,,8,in
screen,html.Screen,1_3_1_0_1_9,2021-04-16T11:16:31.390Z,,,,,,,,,,,,,,,,51,,,,,,,,,,,,,,462.7309999326826,,response,,,,13,C,,,,,,Space,keypress(Space),,,,instrumental,,,,-------- -------- --- --- ---- --- --- ------ -- Congress<br>---- --------- --- ------- ------------ ---------- ---------<br>--- ---------- ------- ---------- ------- -- -------- ----<br>---- --- ------ ----- ------ -- ---- --- ----- -- - -------<br>-------- -- --- --- -- ----- ----------- ----- -----------<br>---- --- ---------- --- ---- --- -- ----------,228369.74999995437,228366.71999993268,227887.322,227887.11499993224,227903.989,228370.665,,9,Congress
screen,html.Screen,1_3_1_0_1_10,2021-04-16T11:16:31.781Z,,,,,,,,,,,,,,,,51,,,,,,,,,,,,,,387.02999992019613,,response,,,,13,C,,,,,,Space,keypress(Space),,,,instrumental,,,,-------- -------- --- --- ---- --- --- ------ -- --------<br>over --------- --- ------- ------------ ---------- ---------<br>--- ---------- ------- ---------- ------- -- -------- ----<br>---- --- ------ ----- ------ -- ---- --- ----- -- - -------<br>-------- -- --- --- -- ----- ----------- ----- -----------<br>---- --- ---------- --- ---- --- -- ----------,228760.91499999166,228757.6949999202,228353.998,228369.83999994118,228370.665,228770.673,,10,over
screen,html.Screen,1_3_1_0_1_11,2021-04-16T11:16:32.303Z,,,,,,,,,,,,,,,,51,,,,,,,,,,,,,,508.0819999775267,,response,,,,13,C,,,,,,Space,keypress(Space),,,,instrumental,,,,-------- -------- --- --- ---- --- --- ------ -- --------<br>---- reforming --- ------- ------------ ---------- ---------<br>--- ---------- ------- ---------- ------- -- -------- ----<br>---- --- ------ ----- ------ -- ---- --- ----- -- - -------<br>-------- -- --- --- -- ----- ----------- ----- -----------<br>---- --- ---------- --- ---- --- -- ----------,229282.65499998815,229278.75499997754,228754.006,228761.00499997847,228770.673,229287.35,,11,reforming
screen,html.Screen,1_3_1_0_1_12,2021-04-16T11:16:32.695Z,,,,,,,,,,,,,,,,51,,,,,,,,,,,,,,383.4799999590905,,response,,,,13,C,,,,,,Space,keypress(Space),,,,instrumental,,,,-------- -------- --- --- ---- --- --- ------ -- --------<br>---- --------- the ------- ------------ ---------- ---------<br>--- ---------- ------- ---------- ------- -- -------- ----<br>---- --- ------ ----- ------ -- ---- --- ----- -- - -------<br>-------- -- --- --- -- ----- ----------- ----- -----------<br>---- --- ---------- --- ---- --- -- ----------,229674.35999994632,229670.8299999591,229270.683,229282.7399999369,229287.35,229687.358,,12,the
screen,html.Screen,1_3_1_0_1_13,2021-04-16T11:16:33.201Z,,,,,,,,,,,,,,,,51,,,,,,,,,,,,,,489.38200002443045,,response,,,,13,C,,,,,,Space,keypress(Space),,,,instrumental,,,,-------- -------- --- --- ---- --- --- ------ -- --------<br>---- --------- --- federal ------------ ---------- ---------<br>--- ---------- ------- ---------- ------- -- -------- ----<br>---- --- ------ ----- ------ -- ---- --- ----- -- - -------<br>-------- -- --- --- -- ----- ----------- ----- -----------<br>---- --- ---------- --- ---- --- -- ----------,230180.5699999677,230176.74000002444,229670.691,229674.47999992874,229687.358,230187.368,,13,federal
screen,html.Screen,1_3_1_0_1_14,2021-04-16T11:16:33.619Z,,,,,,,,,,,,,,,,51,,,,,,,,,,,,,,405.3569999949832,,response,,,,13,C,,,,,,Space,keypress(Space),,,,instrumental,,,,-------- -------- --- --- ---- --- --- ------ -- --------<br>---- --------- --- ------- government's ---------- ---------<br>--- ---------- ------- ---------- ------- -- -------- ----<br>---- --- ------ ----- ------ -- ---- --- ----- -- - -------<br>-------- -- --- --- -- ----- ----------- ----- -----------<br>---- --- ---------- --- ---- --- -- ----------,230598.53499999736,230592.72499999497,230170.701,230180.68999995012,230187.368,230604.043,,14,government's
screen,html.Screen,1_3_1_0_1_15,2021-04-16T11:16:34.082Z,,,,,,,,,,,,,,,,51,,,,,,,,,,,,,,454.4969999981695,,response,,,,13,C,,,,,,Space,keypress(Space),,,,instrumental,,,,-------- -------- --- --- ---- --- --- ------ -- --------<br>---- --------- --- ------- ------------ regulatory ---------<br>--- ---------- ------- ---------- ------- -- -------- ----<br>---- --- ------ ----- ------ -- ---- --- ----- -- - -------<br>-------- -- --- --- -- ----- ----------- ----- -----------<br>---- --- ---------- --- ---- --- -- ----------,231061.2849999452,231058.53999999817,230587.376,230598.62499998417,230604.043,231070.719,,15,regulatory
screen,html.Screen,1_3_1_0_1_16,2021-04-16T11:16:34.486Z,,,,,,,,,,,,,,,,51,,,,,,,,,,,,,,390.94100002993946,,response,,,,13,C,,,,,,Space,keypress(Space),,,,instrumental,,,,-------- -------- --- --- ---- --- --- ------ -- --------<br>---- --------- --- ------- ------------ ---------- apparatus<br>--- ---------- ------- ---------- ------- -- -------- ----<br>---- --- ------ ----- ------ -- ---- --- ----- -- - -------<br>-------- -- --- --- -- ----- ----------- ----- -----------<br>---- --- ---------- --- ---- --- -- ----------,231465.14999994542,231461.66000002995,231054.052,231061.3799999701,231070.719,231470.727,,16,apparatus
screen,html.Screen,1_3_1_0_1_17,2021-04-16T11:16:34.911Z,,,,,,,,,,,,,,,,51,,,,,,,,,,,,,,415.9730000318377,,response,,,,13,C,,,,,,Space,keypress(Space),,,,instrumental,,,,-------- -------- --- --- ---- --- --- ------ -- --------<br>---- --------- --- ------- ------------ ---------- ---------<br>may ---------- ------- ---------- ------- -- -------- ----<br>---- --- ------ ----- ------ -- ---- --- ----- -- - -------<br>-------- -- --- --- -- ----- ----------- ----- -----------<br>---- --- ---------- --- ---- --- -- ----------,231891.10999996774,231886.70000003185,231454.06,231465.2449999703,231470.727,231904.069,,17,may
screen,html.Screen,1_3_1_0_1_18,2021-04-16T11:16:35.304Z,,,,,,,,,,,,,,,,51,,,,,,,,,,,,,,376.4209999173472,,response,,,,13,C,,,,,,Space,keypress(Space),,,,instrumental,,,,-------- -------- --- --- ---- --- --- ------ -- --------<br>---- --------- --- ------- ------------ ---------- ---------<br>--- profoundly ------- ---------- ------- -- -------- ----<br>---- --- ------ ----- ------ -- ---- --- ----- -- - -------<br>-------- -- --- --- -- ----- ----------- ----- -----------<br>---- --- ---------- --- ---- --- -- ----------,232283.7849999778,232280.48999991734,231887.402,231891.19499991648,231904.069,232287.41,,18,profoundly
screen,html.Screen,1_3_1_0_1_19,2021-04-16T11:16:35.688Z,,,,,,,,,,,,,,,,51,,,,,,,,,,,,,,377.0350000021572,,response,,,,13,C,,,,,,Space,keypress(Space),,,,instrumental,,,,-------- -------- --- --- ---- --- --- ------ -- --------<br>---- --------- --- ------- ------------ ---------- ---------<br>--- ---------- improve ---------- ------- -- -------- ----<br>---- --- ------ ----- ------ -- ---- --- ----- -- - -------<br>-------- -- --- --- -- ----- ----------- ----- -----------<br>---- --- ---------- --- ---- --- -- ----------,232667.84000000916,232664.44500000216,232270.743,232283.9049999602,232287.41,232670.751,,19,improve
screen,html.Screen,1_3_1_0_1_20,2021-04-16T11:16:36.133Z,,,,,,,,,,,,,,,,51,,,,,,,,,,,,,,438.8939999604481,,response,,,,13,C,,,,,,Space,keypress(Space),,,,instrumental,,,,-------- -------- --- --- ---- --- --- ------ -- --------<br>---- --------- --- ------- ------------ ---------- ---------<br>--- ---------- ------- companies' ------- -- -------- ----<br>---- --- ------ ----- ------ -- ---- --- ----- -- - -------<br>-------- -- --- --- -- ----- ----------- ----- -----------<br>---- --- ---------- --- ---- --- -- ----------,233112.78999992646,233109.64499996044,232654.084,232667.93499991763,232670.751,233120.76,,20,companies'
screen,html.Screen,1_3_1_0_1_21,2021-04-16T11:16:36.569Z,,,,,,,,,,,,,,,,51,,,,,,,,,,,,,,424.6449999825563,,response,,,,13,C,,,,,,Space,keypress(Space),,,,instrumental,,,,-------- -------- --- --- ---- --- --- ------ -- --------<br>---- --------- --- ------- ------------ ---------- ---------<br>--- ---------- ------- ---------- ability -- -------- ----<br>---- --- ------ ----- ------ -- ---- --- ----- -- - -------<br>-------- -- --- --- -- ----- ----------- ----- -----------<br>---- --- ---------- --- ---- --- -- ----------,233548.53999998886,233545.40499998257,233104.093,233112.90499998722,233120.76,233554.102,,21,ability
screen,html.Screen,1_3_1_0_1_22,2021-04-16T11:16:36.918Z,,,,,,,,,,,,,,,,51,,,,,,,,,,,,,,340.25299999670824,,response,,,,13,C,,,,,,Space,keypress(Space),,,,instrumental,,,,-------- -------- --- --- ---- --- --- ------ -- --------<br>---- --------- --- ------- ------------ ---------- ---------<br>--- ---------- ------- ---------- ------- to -------- ----<br>---- --- ------ ----- ------ -- ---- --- ----- -- - -------<br>-------- -- --- --- -- ----- ----------- ----- -----------<br>---- --- ---------- --- ---- --- -- ----------,233897.97499997076,233894.35499999672,233537.435,233548.68000000715,233554.102,233904.642,,22,to
screen,html.Screen,1_3_1_0_1_23,2021-04-16T11:16:37.299Z,,,,,,,,,,,,,,,,51,,,,,,,,,,,,,,370.7929999595508,,response,,,,13,C,,,,,,Space,keypress(Space),,,,instrumental,,,,-------- -------- --- --- ---- --- --- ------ -- --------<br>---- --------- --- ------- ------------ ---------- ---------<br>--- ---------- ------- ---------- ------- -- survive. ----<br>---- --- ------ ----- ------ -- ---- --- ----- -- - -------<br>-------- -- --- --- -- ----- ----------- ----- -----------<br>---- --- ---------- --- ---- --- -- ----------,234278.4550000215,234275.43499995954,233887.975,233898.06999999564,233904.642,234287.983,,23,survive.
screen,html.Screen,1_3_1_0_1_24,2021-04-16T11:16:37.665Z,,,,,,,,,,,,,,,,51,,,,,,,,,,,,,,353.326999977231,,response,,,,13,C,,,,,,Space,keypress(Space),,,,instrumental,,,,-------- -------- --- --- ---- --- --- ------ -- --------<br>---- --------- --- ------- ------------ ---------- ---------<br>--- ---------- ------- ---------- ------- -- -------- This<br>---- --- ------ ----- ------ -- ---- --- ----- -- - -------<br>-------- -- --- --- -- ----- ----------- ----- -----------<br>---- --- ---------- --- ---- --- -- ----------,234644.28999996744,234641.30999997724,234271.316,234278.54999992996,234287.983,234654.657,,24,This
screen,html.Screen,1_3_1_0_1_25,2021-04-16T11:16:38.046Z,,,,,,,,,,,,,,,,51,,,,,,,,,,,,,,365.77299991680775,,response,,,,13,C,,,,,,Space,keypress(Space),,,,instrumental,,,,-------- -------- --- --- ---- --- --- ------ -- --------<br>---- --------- --- ------- ------------ ---------- ---------<br>--- ---------- ------- ---------- ------- -- -------- ----<br>week --- ------ ----- ------ -- ---- --- ----- -- - -------<br>-------- -- --- --- -- ----- ----------- ----- -----------<br>---- --- ---------- --- ---- --- -- ----------,235025.49499995075,235020.4299999168,234637.99,234644.3900000304,234654.657,235037.998,,25,week
screen,html.Screen,1_3_1_0_1_26,2021-04-16T11:16:38.401Z,,,,,,,,,,,,,,,,51,,,,,,,,,,,,,,339.26700001736754,,response,,,,13,C,,,,,,Space,keypress(Space),,,,instrumental,,,,-------- -------- --- --- ---- --- --- ------ -- --------<br>---- --------- --- ------- ------------ ---------- ---------<br>--- ---------- ------- ---------- ------- -- -------- ----<br>---- the ------ ----- ------ -- ---- --- ----- -- - -------<br>-------- -- --- --- -- ----- ----------- ----- -----------<br>---- --- ---------- --- ---- --- -- ----------,235380.7749999687,235377.26500001736,235021.331,235025.58999997564,235037.998,235388.005,,26,the
screen,html.Screen,1_3_1_0_1_27,2021-04-16T11:16:38.717Z,,,,,,,,,,,,,,,,51,,,,,,,,,,,,,,303.3950000106124,,response,,,,13,C,,,,,,Space,keypress(Space),,,,instrumental,,,,-------- -------- --- --- ---- --- --- ------ -- --------<br>---- --------- --- ------- ------------ ---------- ---------<br>--- ---------- ------- ---------- ------- -- -------- ----<br>---- --- Senate ----- ------ -- ---- --- ----- -- - -------<br>-------- -- --- --- -- ----- ----------- ----- -----------<br>---- --- ---------- --- ---- --- -- ----------,235696.02999999188,235691.40000001062,235371.338,235380.86499995552,235388.005,235704.678,,27,Senate
screen,html.Screen,1_3_1_0_1_28,2021-04-16T11:16:39.082Z,,,,,,,,,,,,,,,,51,,,,,,,,,,,,,,353.57699992350535,,response,,,,13,C,,,,,,Space,keypress(Space),,,,instrumental,,,,-------- -------- --- --- ---- --- --- ------ -- --------<br>---- --------- --- ------- ------------ ---------- ---------<br>--- ---------- ------- ---------- ------- -- -------- ----<br>---- --- ------ seems ------ -- ---- --- ----- -- - -------<br>-------- -- --- --- -- ----- ----------- ----- -----------<br>---- --- ---------- --- ---- --- -- ----------,236061.2099999562,236058.25499992352,235688.011,235696.14000001457,235704.678,236071.352,,28,seems
screen,html.Screen,1_3_1_0_1_29,2021-04-16T11:16:39.378Z,,,,,,,,,,,,,,,,51,,,,,,,,,,,,,,282.83299994556,,response,,,,13,C,,,,,,Space,keypress(Space),,,,instrumental,,,,-------- -------- --- --- ---- --- --- ------ -- --------<br>---- --------- --- ------- ------------ ---------- ---------<br>--- ---------- ------- ---------- ------- -- -------- ----<br>---- --- ------ ----- poised -- ---- --- ----- -- - -------<br>-------- -- --- --- -- ----- ----------- ----- -----------<br>---- --- ---------- --- ---- --- -- ----------,236357.11999994237,236354.18499994557,236054.685,236061.31000001915,236071.352,236371.358,,29,poised
screen,html.Screen,1_3_1_0_1_30,2021-04-16T11:16:40.507Z,,,,,,,,,,,,,,,,51,,,,,,,,,,,,,,1110.9669999899343,,response,,,,13,C,,,,,,Space,keypress(Space),,,,instrumental,,,,-------- -------- --- --- ---- --- --- ------ -- --------<br>---- --------- --- ------- ------------ ---------- ---------<br>--- ---------- ------- ---------- ------- -- -------- ----<br>---- --- ------ ----- ------ to ---- --- ----- -- - -------<br>-------- -- --- --- -- ----- ----------- ----- -----------<br>---- --- ---------- --- ---- --- -- ----------,237486.10500001814,237482.32499998994,236354.691,236357.20999992918,236371.358,237488.047,,30,to
screen,html.Screen,1_3_1_0_1_31,2021-04-16T11:16:41.020Z,,,,,,,,,,,,,,,,51,,,,,,,,,,,,,,507.15799992650864,,response,,,,13,C,,,,,,Space,keypress(Space),,,,instrumental,,,,-------- -------- --- --- ---- --- --- ------ -- --------<br>---- --------- --- ------- ------------ ---------- ---------<br>--- ---------- ------- ---------- ------- -- -------- ----<br>---- --- ------ ----- ------ -- join --- ----- -- - -------<br>-------- -- --- --- -- ----- ----------- ----- -----------<br>---- --- ---------- --- ---- --- -- ----------,237998.97999991663,237995.2049999265,237471.38,237486.1999999266,237488.047,238004.724,,31,join
screen,html.Screen,1_3_1_0_1_32,2021-04-16T11:16:41.339Z,,,,,,,,,,,,,,,,51,,,,,,,,,,,,,,310.5409999829135,,response,,,,13,C,,,,,,Space,keypress(Space),,,,instrumental,,,,-------- -------- --- --- ---- --- --- ------ -- --------<br>---- --------- --- ------- ------------ ---------- ---------<br>--- ---------- ------- ---------- ------- -- -------- ----<br>---- --- ------ ----- ------ -- ---- the ----- -- - -------<br>-------- -- --- --- -- ----- ----------- ----- -----------<br>---- --- ---------- --- ---- --- -- ----------,238318.8300000038,238315.2649999829,237988.057,237999.08999993932,238004.724,238321.397,,32,the
screen,html.Screen,1_3_1_0_1_33,2021-04-16T11:16:41.645Z,,,,,,,,,,,,,,,,51,,,,,,,,,,,,,,299.68299995351117,,response,,,,13,C,,,,,,Space,keypress(Space),,,,instrumental,,,,-------- -------- --- --- ---- --- --- ------ -- --------<br>---- --------- --- ------- ------------ ---------- ---------<br>--- ---------- ------- ---------- ------- -- -------- ----<br>---- --- ------ ----- ------ -- ---- --- House -- - -------<br>-------- -- --- --- -- ----- ----------- ----- -----------<br>---- --- ---------- --- ---- --- -- ----------,238624.60999994073,238621.0799999535,238304.73,238318.94499994814,238321.397,238638.07,,33,House
screen,html.Screen,1_3_1_0_1_34,2021-04-16T11:16:42.003Z,,,,,,,,,,,,,,,,51,,,,,,,,,,,,,,341.14999997924315,,response,,,,13,C,,,,,,Space,keypress(Space),,,,instrumental,,,,-------- -------- --- --- ---- --- --- ------ -- --------<br>---- --------- --- ------- ------------ ---------- ---------<br>--- ---------- ------- ---------- ------- -- -------- ----<br>---- --- ------ ----- ------ -- ---- --- ----- in - -------<br>-------- -- --- --- -- ----- ----------- ----- -----------<br>---- --- ---------- --- ---- --- -- ----------,238982.13000001851,238979.21999997925,238621.403,238624.69999992754,238638.07,238988.077,,34,in
screen,html.Screen,1_3_1_0_1_35,2021-04-16T11:16:42.371Z,,,,,,,,,,,,,,,,51,,,,,,,,,,,,,,359.1229999601492,,response,,,,13,C,,,,,,Space,keypress(Space),,,,instrumental,,,,-------- -------- --- --- ---- --- --- ------ -- --------<br>---- --------- --- ------- ------------ ---------- ---------<br>--- ---------- ------- ---------- ------- -- -------- ----<br>---- --- ------ ----- ------ -- ---- --- ----- -- a -------<br>-------- -- --- --- -- ----- ----------- ----- -----------<br>---- --- ---------- --- ---- --- -- ----------,239350.32999992836,239347.19999996014,238971.41,238982.22999996506,238988.077,239354.751,,35,a
screen,html.Screen,1_3_1_0_1_36,2021-04-16T11:16:42.789Z,,,,,,,,,,,,,,,,51,,,,,,,,,,,,,,411.25399998313515,,response,,,,13,C,,,,,,Space,keypress(Space),,,,instrumental,,,,-------- -------- --- --- ---- --- --- ------ -- --------<br>---- --------- --- ------- ------------ ---------- ---------<br>--- ---------- ------- ---------- ------- -- -------- ----<br>---- --- ------ ----- ------ -- ---- --- ----- -- - massive<br>-------- -- --- --- -- ----- ----------- ----- -----------<br>---- --- ---------- --- ---- --- -- ----------,239768.7450000085,239766.00499998312,239338.084,239350.41499999352,239354.751,239771.426,,36,massive
screen,html.Screen,1_3_1_0_1_37,2021-04-16T11:16:43.112Z,,,,,,,,,,,,,,,,51,,,,,,,,,,,,,,316.65400001590024,,response,,,,13,C,,,,,,Space,keypress(Space),,,,instrumental,,,,-------- -------- --- --- ---- --- --- ------ -- --------<br>---- --------- --- ------- ------------ ---------- ---------<br>--- ---------- ------- ---------- ------- -- -------- ----<br>---- --- ------ ----- ------ -- ---- --- ----- -- - -------<br>overhaul -- --- --- -- ----- ----------- ----- -----------<br>---- --- ---------- --- ---- --- -- ----------,240091.69499995187,240088.0800000159,239754.759,239768.83999991696,239771.426,240104.766,,37,overhaul
