sender,sender_type,sender_id,timestamp,meta,,Blues,Classical,Country,Dance,Electronic,Folk,Gospel,Hip-Hop,Jazz,Latin,Musical/Film,New-age,Pop,Provo_ID,R&B,Rap,Reggae,Religious,Rock,Soul,Swing,Traditional,age,artist_name,correct,correctResponse,distraction,duration,education,ended_on,familiarity,gender,headphone_check_performance,item,list,music_frequency,offensiveness,pleasantness,position_correct,preference,response,response_action,snippet_file,song_name,song_rating,sound,stimulus_1,stimulus_2,stimulus_3,text,time_commit,time_end,time_render,time_run,time_show,time_switch,url,word,word_ID
Introduction,html.Screen,0_0,2021-04-18T13:16:26.672Z,"{""labjs_version"":""20.2.2"",""labjs_build"":{""flavor"":""production"",""commit"":""a25486e0c714a0ae2ce03ff94b7bb6896854dcfa""},""location"":""https://run.pavlovia.org/mvasilev/music_f/"",""userAgent"":""Mozilla/5.0 (Windows NT 10.0; Win64; x64) AppleWebKit/537.36 (KHTML, like Gecko) Chrome/89.0.4389.128 Safari/537.36"",""platform"":""Win32"",""language"":""en-GB"",""locale"":""en-GB"",""timeZone"":""Europe/London"",""timezoneOffset"":-60,""screen_width"":1920,""screen_height"":1080,""scroll_width"":1920,""scroll_height"":889,""window_innerWidth"":1920,""window_innerHeight"":937,""devicePixelRatio"":1}",,,,,,,,,,,,,,,,,,,,,,,,,,,,,8132.358000144537,,response,,,,,,,,,,,continue,click button,,,,,,,,,177945.03500009887,177942.07500014454,169725.975,169728.56499999762,169809.717,177957.262,{},,
Volume calibration,html.Screen,0_1,2021-04-18T13:17:09.438Z,,,,,,,,,,,,,,,,,,,,,,,,,,,,,,42750.70300006692,,response,,,,,,,,,,,continue,click button,,,,,,,,,220710.79499996267,220707.9650000669,177940.511,177945.4000000842,177957.262,220740.404,,,
Task instructions,html.Screen,0_2,2021-04-18T13:17:53.126Z,,,,,,,,,,,,,,,,,,,,,,,,,,,,,,43657.426000147214,,response,,,,,,,,,,,continue,click button,,,,,,,,,264398.70000001974,264397.8300001472,220692.45,220710.9149999451,220740.404,264411.315,,,
Sounds,html.Screen,0_3_0_0,2021-04-18T13:17:57.373Z,,,,,,,,,,,,,,,,,,,,,,,,,,,,,,4248.690999999992,,timeout,,,,,,,,,3,,,,,,,,I,O,S,,268645.770000061,268643.26,264394.753,264398.87999999337,264411.315,268660.006,,,
Judgement,html.Screen,0_3_0_1,2021-04-18T13:18:04.108Z,,,,,,,,,,,,,,,,,,,,,,,,,,,false,3,,6719.779000113776,,response,,,,,,,,,3,,1,click #choice-1,,,,,I,O,S,,275380.66500006244,275379.78500011377,268643.26,268645.92000003904,268660.006,275391.013,,,
Trial,flow.Sequence,0_3_0,2021-04-18T13:18:04.109Z,,,,,,,,,,,,,,,,,,,,,,,,,,,,,,10968.470000113768,,completion,,,,,,,,,3,,,,,,,,I,O,S,,275381.9500000682,275379.78500011377,264394.753,264398.84000015445,264411.315,275391.013,,,
Sounds,html.Screen,0_3_1_0,2021-04-18T13:18:08.350Z,,,,,,,,,,,,,,,,,,,,,,,,,,,,,,4248.108999999997,,timeout,,,,,,,,,2,,,,,,,,I,S,O,,279623.30500013195,279622.428,275374.142,275382.0650000125,275391.013,279639.122,,,
Judgement,html.Screen,0_3_1_1,2021-04-18T13:18:09.040Z,,,,,,,,,,,,,,,,,,,,,,,,,,,true,2,,672.7180000967346,,response,,,,,,,,,2,,2,click #choice-2,,,,,I,S,O,,280312.66500009224,280311.8400000967,279622.428,279623.40000015683,279639.122,280322.696,,,
Trial,flow.Sequence,0_3_1,2021-04-18T13:18:09.040Z,,,,,,,,,,,,,,,,,,,,,,,,,,,,,,4920.827000096731,,completion,,,,,,,,,2,,,,,,,,I,S,O,,280312.81500007026,280311.8400000967,275374.142,275382.0350000169,275391.013,280322.696,,,
Sounds,html.Screen,0_3_2_0,2021-04-18T13:18:13.283Z,,,,,,,,,,,,,,,,,,,,,,,,,,,,,,4248.564000000013,,timeout,,,,,,,,,1,,,,,,,,S,O,I,,284555.6700001471,284554.674,280305.879,280312.9150001332,280322.696,284571.26,,,
Judgement,html.Screen,0_3_2_1,2021-04-18T13:18:13.910Z,,,,,,,,,,,,,,,,,,,,,,,,,,,true,1,,610.570000132313,,response,,,,,,,,,1,,1,click #choice-1,,,,,S,O,I,,285182.57499998435,285181.8300001323,284554.674,284555.7850000914,284571.26,285187.201,,,
Trial,flow.Sequence,0_3_2,2021-04-18T13:18:13.910Z,,,,,,,,,,,,,,,,,,,,,,,,,,,,,,4859.134000132326,,completion,,,,,,,,,1,,,,,,,,S,O,I,,285182.710000081,285181.8300001323,280305.879,280312.8850001376,280322.696,285187.201,,,
Sounds,html.Screen,0_3_3_0,2021-04-18T13:18:18.147Z,,,,,,,,,,,,,,,,,,,,,,,,,,,,,,4248.598999999987,,timeout,,,,,,,,,3,,,,,,,,O,I,S,,289420.0150000397,289419.538,285170.763,285182.8050001059,285187.201,289435.8,,,
Judgement,html.Screen,0_3_3_1,2021-04-18T13:18:18.755Z,,,,,,,,,,,,,,,,,,,,,,,,,,,true,3,,591.6350000545499,,response,,,,,,,,,3,,3,click #choice-3,,,,,O,I,S,,290028.11000007205,290027.43500005454,289419.538,289420.11500010267,289435.8,290052.479,,,
Trial,flow.Sequence,0_3_3,2021-04-18T13:18:18.755Z,,,,,,,,,,,,,,,,,,,,,,,,,,,,,,4840.234000054537,,completion,,,,,,,,,3,,,,,,,,O,I,S,,290028.23500009254,290027.43500005454,285170.763,285182.77500011027,285187.201,290052.479,,,
Sounds,html.Screen,0_3_4_0,2021-04-18T13:18:23.012Z,,,,,,,,,,,,,,,,,,,,,,,,,,,,,,4248.277999999991,,timeout,,,,,,,,,1,,,,,,,,S,I,O,,294285.15999997035,294284.577,290035.565,290028.30999996513,290052.479,294300.757,,,
Judgement,html.Screen,0_3_4_1,2021-04-18T13:18:24.892Z,,,,,,,,,,,,,,,,,,,,,,,,,,,true,1,,1863.2030000344384,,response,,,,,,,,,1,,1,click #choice-1,,,,,S,I,O,,296164.75500003435,296163.9600000344,294284.577,294285.24999995716,294300.757,296166.949,,,
Trial,flow.Sequence,0_3_4,2021-04-18T13:18:24.892Z,,,,,,,,,,,,,,,,,,,,,,,,,,,,,,6111.48100003443,,completion,,,,,,,,,1,,,,,,,,S,I,O,,296164.87500001676,296163.9600000344,290035.565,290028.2900000457,290052.479,296166.949,,,
Sounds,html.Screen,0_3_5_0,2021-04-18T13:18:29.127Z,,,,,,,,,,,,,,,,,,,,,,,,,,,,,,4248.760999999999,,timeout,,,,,,,,,2,,,,,,,,O,S,I,,300400.02500009723,300399.118,296150.393,296164.95500016026,296166.949,300415.71,,,
Judgement,html.Screen,0_3_5_1,2021-04-18T13:18:29.668Z,,,,,,,,,,,,,,,,,,,,,,,,,,,true,2,,524.010000140348,,response,,,,,,,,,2,,2,click #choice-2,,,,,O,S,I,,300940.44500007294,300939.72000014037,300399.118,300400.12999996543,300415.71,300965.184,,,
Trial,flow.Sequence,0_3_5,2021-04-18T13:18:29.668Z,,,,,,,,,,,,,,,,,,,,,,,,,,,,,,4772.771000140347,,completion,,,,,,,,,2,,,,,,,,O,S,I,,300940.56500005536,300939.72000014037,296150.393,296164.9299999699,296166.949,300965.184,,,
Task,flow.Loop,0_3,2021-04-18T13:18:29.672Z,,,,,,,,,,,,,,,,,,,,,,,,,,,,,,36528.40500014037,,completion,,,0.8333333333333334,,,,,,,,,,,,,,,,,,300944.60500008427,300939.72000014037,264394.753,264398.8050001208,264411.315,300965.184,,,
Trap,html.Screen,0_4,2021-04-18T13:18:29.676Z,,,,,,,,,,,,,,,,,,,,,,,,,,,,,,NaN,,skipped,,,,,,,,,,,,,,,,,,,,,300948.4300001059,300939.72000014037,,300948.31999996677,,300965.184,,,
Thanks,html.Screen,0_5,2021-04-18T13:18:37.706Z,,,,,,,,,,,,,,,,,,,,,,,,,,,,,,8012.365999952308,,response,,,,,,,,,,,continue,click button,,,,,,,,,308978.34499995224,308977.5499999523,300948.514,300948.6400000751,300965.184,313111.151,,,
Headphone screening,flow.Sequence,0,2021-04-18T13:18:37.706Z,,,,,,,,,,,,,,,,,,,,,,,,,,,,,,139167.8329999523,,completion,,,,,,,,,,,,,,,,,,,,,308978.4600001294,308977.5499999523,169725.975,169728.22499996983,169809.717,313111.151,,,
Instructions,html.Page,1_0,2021-04-18T13:19:24.701Z,,,,,,,,,,,,,,,,,,,,,,,,,,,,,,42862.56400008738,,form submission,,,,,,,,,,,,,,,,,,,,,355973.93500013277,355973.7150000874,313094.476,313109.0900001582,313111.151,355979.803,,,
Holding screen,html.Screen,1_1_0_0,2021-04-18T13:19:34.688Z,,,,,,,,,,,,,,,,,,,,,,,,,,,,,,10013.274999999965,,timeout,,,,,,,,,,,,,,,,,,,,,365960.69500013255,365960.129,355963.521,355974.0949999541,355979.803,365993.078,,,
screen,html.Screen,1_1_0_1_0,2021-04-18T13:19:36.223Z,,,,,,,,,,,,,,,,53,,,,,,,,,,,,,,1495.617000065511,,response,,,,99,,,,,,,Space,keypress(Space),,,,,,,,When -- ----- -- ------ - ------- --- ----------<br>------------- ------ ------ ---- ---- ------- ----- -- ----<br>-------- ------- -- ---------- --- - --- ----- ----- ----<br>---- --- --- ----- --- ---- ---- ------- ----- ---- -------<br>--- --- -- ----- -- --- ---- -- --- ---- -- ------ ------<br>--- ----- -- ----,367495.2849999536,367488.6950000655,365960.129,365960.8849999495,365993.078,367492.603,,0,When
screen,html.Screen,1_1_0_1_1,2021-04-18T13:19:36.614Z,,,,,,,,,,,,,,,,53,,,,,,,,,,,,,,393.41200005460996,,response,,,,99,,,,,,,Space,keypress(Space),,,,,,,,---- it ----- -- ------ - ------- --- ----------<br>------------- ------ ------ ---- ---- ------- ----- -- ----<br>-------- ------- -- ---------- --- - --- ----- ----- ----<br>---- --- --- ----- --- ---- ---- ------- ----- ---- -------<br>--- --- -- ----- -- --- ---- -- --- ---- -- ------ ------<br>--- ----- -- ----,367886.6000000853,367886.0150000546,367475.808,367495.4200000502,367492.603,367892.74,,1,it
screen,html.Screen,1_1_0_1_2,2021-04-18T13:19:37.150Z,,,,,,,,,,,,,,,,53,,,,,,,,,,,,,,529.2400001010392,,response,,,,99,,,,,,,Space,keypress(Space),,,,,,,,---- -- comes -- ------ - ------- --- ----------<br>------------- ------ ------ ---- ---- ------- ----- -- ----<br>-------- ------- -- ---------- --- - --- ----- ----- ----<br>---- --- --- ----- --- ---- ---- ------- ----- ---- -------<br>--- --- -- ----- -- --- ---- -- --- ---- -- ------ ------<br>--- ----- -- ----,368422.6100000087,368421.98000010103,367876.345,367886.73000014387,367892.74,368425.71,,2,comes
screen,html.Screen,1_1_0_1_3,2021-04-18T13:19:37.758Z,,,,,,,,,,,,,,,,53,,,,,,,,,,,,,,603.8400000938564,,response,,,,99,,,,,,,Space,keypress(Space),,,,,,,,---- -- ----- to ------ - ------- --- ----------<br>------------- ------ ------ ---- ---- ------- ----- -- ----<br>-------- ------- -- ---------- --- - --- ----- ----- ----<br>---- --- --- ----- --- ---- ---- ------- ----- ---- -------<br>--- --- -- ----- -- --- ---- -- --- ---- -- ------ ------<br>--- ----- -- ----,369030.1600000821,369029.5500000939,368409.497,368422.69999999553,368425.71,369042.508,,3,to
screen,html.Screen,1_1_0_1_4,2021-04-18T13:19:38.206Z,,,,,,,,,,,,,,,,53,,,,,,,,,,,,,,435.3620000606752,,response,,,,99,,,,,,,Space,keypress(Space),,,,,,,,---- -- ----- -- having - ------- --- ----------<br>------------- ------ ------ ---- ---- ------- ----- -- ----<br>-------- ------- -- ---------- --- - --- ----- ----- ----<br>---- --- --- ----- --- ---- ---- ------- ----- ---- -------<br>--- --- -- ----- -- --- ---- -- --- ---- -- ------ ------<br>--- ----- -- ----,369478.40499994345,369477.87000006065,369025.62,369030.3150000982,369042.508,369492.2,,4,having
screen,html.Screen,1_1_0_1_5,2021-04-18T13:19:38.662Z,,,,,,,,,,,,,,,,53,,,,,,,,,,,,,,441.87499999738066,,response,,,,99,,,,,,,Space,keypress(Space),,,,,,,,---- -- ----- -- ------ a ------- --- ----------<br>------------- ------ ------ ---- ---- ------- ----- -- ----<br>-------- ------- -- ---------- --- - --- ----- ----- ----<br>---- --- --- ----- --- ---- ---- ------- ----- ---- -------<br>--- --- -- ----- -- --- ---- -- --- ---- -- ------ ------<br>--- ----- -- ----,369934.6249999944,369934.0749999974,369475.284,369479.2100000195,369492.2,369941.794,,5,a
screen,html.Screen,1_1_0_1_6,2021-04-18T13:19:39.518Z,,,,,,,,,,,,,,,,53,,,,,,,,,,,,,,848.0159999874886,,response,,,,99,,,,,,,Space,keypress(Space),,,,,,,,---- -- ----- -- ------ - lasting --- ----------<br>------------- ------ ------ ---- ---- ------- ----- -- ----<br>-------- ------- -- ---------- --- - --- ----- ----- ----<br>---- --- --- ----- --- ---- ---- ------- ----- ---- -------<br>--- --- -- ----- -- --- ---- -- --- ---- -- ------ ------<br>--- ----- -- ----,370790.4550000094,370789.8099999875,369925.457,369934.7449999768,369941.794,370821.203,,6,lasting
screen,html.Screen,1_1_0_1_7,2021-04-18T13:19:39.894Z,,,,,,,,,,,,,,,,53,,,,,,,,,,,,,,344.64199995226227,,response,,,,99,,,,,,,Space,keypress(Space),,,,,,,,---- -- ----- -- ------ - ------- and ----------<br>------------- ------ ------ ---- ---- ------- ----- -- ----<br>-------- ------- -- ---------- --- - --- ----- ----- ----<br>---- --- --- ----- --- ---- ---- ------- ----- ---- -------<br>--- --- -- ----- -- --- ---- -- --- ---- -- ------ ------<br>--- ----- -- ----,371166.4700000547,371165.84499995224,370775.059,370790.5950001441,370821.203,371174.996,,7,and
screen,html.Screen,1_1_0_1_8,2021-04-18T13:19:40.454Z,,,,,,,,,,,,,,,,53,,,,,,,,,,,,,,551.0540001721238,,response,,,,99,,,,,,,Space,keypress(Space),,,,,,,,---- -- ----- -- ------ - ------- --- fulfilling<br>------------- ------ ------ ---- ---- ------- ----- -- ----<br>-------- ------- -- ---------- --- - --- ----- ----- ----<br>---- --- --- ----- --- ---- ---- ------- ----- ---- -------<br>--- --- -- ----- -- --- ---- -- --- ---- -- ------ ------<br>--- ----- -- ----,371726.8300000578,371726.0500001721,371158.442,371166.6050001513,371174.996,371741.162,,8,fulfilling
screen,html.Screen,1_1_0_1_9,2021-04-18T13:19:40.774Z,,,,,,,,,,,,,,,,53,,,,,,,,,,,,,,304.7130000689067,,response,,,,99,,,,,,,Space,keypress(Space),,,,,,,,"---- -- ----- -- ------ - ------- --- ----------<br>relationship, ------ ------ ---- ---- ------- ----- -- ----<br>-------- ------- -- ---------- --- - --- ----- ----- ----<br>---- --- --- ----- --- ---- ---- ------- ----- ---- -------<br>--- --- -- ----- -- --- ---- -- --- ---- -- ------ ------<br>--- ----- -- ----",372046.4149999898,372045.8750000689,371724.978,371726.97499999776,371741.162,372058.268,,9,"relationship,"
screen,html.Screen,1_1_0_1_10,2021-04-18T13:19:41.214Z,,,,,,,,,,,,,,,,53,,,,,,,,,,,,,,427.65200012287823,,response,,,,99,,,,,,,Space,keypress(Space),,,,,,,,---- -- ----- -- ------ - ------- --- ----------<br>------------- common ------ ---- ---- ------- ----- -- ----<br>-------- ------- -- ---------- --- - --- ----- ----- ----<br>---- --- --- ----- --- ---- ---- ------- ----- ---- -------<br>--- --- -- ----- -- --- ---- -- --- ---- -- ------ ------<br>--- ----- -- ----,372486.50500015356,372485.92000012286,372041.586,372046.5550001245,372058.268,372491.083,,10,common
screen,html.Screen,1_1_0_1_11,2021-04-18T13:19:42.230Z,,,,,,,,,,,,,,,,53,,,,,,,,,,,,,,1010.9019999807933,,response,,,,99,,,,,,,Space,keypress(Space),,,,,,,,---- -- ----- -- ------ - ------- --- ----------<br>------------- ------ wisdom ---- ---- ------- ----- -- ----<br>-------- ------- -- ---------- --- - --- ----- ----- ----<br>---- --- --- ----- --- ---- ---- ------- ----- ---- -------<br>--- --- -- ----- -- --- ---- -- --- ---- -- ------ ------<br>--- ----- -- ----,373502.594999969,373501.9849999808,372474.675,372486.64000001736,372491.083,373507.28,,11,wisdom
screen,html.Screen,1_1_0_1_12,2021-04-18T13:19:42.637Z,,,,,,,,,,,,,,,,53,,,,,,,,,,,,,,402.3050000157673,,response,,,,99,,,,,,,Space,keypress(Space),,,,,,,,---- -- ----- -- ------ - ------- --- ----------<br>------------- ------ ------ says ---- ------- ----- -- ----<br>-------- ------- -- ---------- --- - --- ----- ----- ----<br>---- --- --- ----- --- ---- ---- ------- ----- ---- -------<br>--- --- -- ----- -- --- ---- -- --- ---- -- ------ ------<br>--- ----- -- ----,373910.0500000641,373909.5850000158,373490.829,373502.7100001462,373507.28,373924.165,,12,says
screen,html.Screen,1_1_0_1_13,2021-04-18T13:19:43.069Z,,,,,,,,,,,,,,,,53,,,,,,,,,,,,,,417.34999997826526,,response,,,,99,,,,,,,Space,keypress(Space),,,,,,,,---- -- ----- -- ------ - ------- --- ----------<br>------------- ------ ------ ---- that ------- ----- -- ----<br>-------- ------- -- ---------- --- - --- ----- ----- ----<br>---- --- --- ----- --- ---- ---- ------- ----- ---- -------<br>--- --- -- ----- -- --- ---- -- --- ---- -- ------ ------<br>--- ----- -- ----,374342.06499997526,374341.51499997824,373907.397,373910.12999997474,373924.165,374357.372,,13,that
screen,html.Screen,1_1_0_1_14,2021-04-18T13:19:43.726Z,,,,,,,,,,,,,,,,53,,,,,,,,,,,,,,640.3980000163428,,response,,,,99,,,,,,,Space,keypress(Space),,,,,,,,---- -- ----- -- ------ - ------- --- ----------<br>------------- ------ ------ ---- ---- feeling ----- -- ----<br>-------- ------- -- ---------- --- - --- ----- ----- ----<br>---- --- --- ----- --- ---- ---- ------- ----- ---- -------<br>--- --- -- ----- -- --- ---- -- --- ---- -- ------ ------<br>--- ----- -- ----,374998.3600000851,374997.7700000163,374340.79,374342.2149999533,374357.372,375007.081,,14,feeling
screen,html.Screen,1_1_0_1_15,2021-04-18T13:19:44.214Z,,,,,,,,,,,,,,,,53,,,,,,,,,,,,,,478.54399997205473,,response,,,,99,,,,,,,Space,keypress(Space),,,,,,,,---- -- ----- -- ------ - ------- --- ----------<br>------------- ------ ------ ---- ---- ------- close -- ----<br>-------- ------- -- ---------- --- - --- ----- ----- ----<br>---- --- --- ----- --- ---- ---- ------- ----- ---- -------<br>--- --- -- ----- -- --- ---- -- --- ---- -- ------ ------<br>--- ----- -- ----,375486.23999999836,375485.62499997206,374990.378,374998.4850001056,375007.081,375490.226,,15,close
screen,html.Screen,1_1_0_1_16,2021-04-18T13:19:44.606Z,,,,,,,,,,,,,,,,53,,,,,,,,,,,,,,387.7290001490619,,response,,,,99,,,,,,,Space,keypress(Space),,,,,,,,---- -- ----- -- ------ - ------- --- ----------<br>------------- ------ ------ ---- ---- ------- ----- to ----<br>-------- ------- -- ---------- --- - --- ----- ----- ----<br>---- --- --- ----- --- ---- ---- ------- ----- ---- -------<br>--- --- -- ----- -- --- ---- -- --- ---- -- ------ ------<br>--- ----- -- ----,375878.600000171,375877.9550001491,375473.578,375486.38000013307,375490.226,375890.071,,16,to
screen,html.Screen,1_1_0_1_17,2021-04-18T13:19:45.126Z,,,,,,,,,,,,,,,,53,,,,,,,,,,,,,,507.84900013403967,,response,,,,99,,,,,,,Space,keypress(Space),,,,,,,,---- -- ----- -- ------ - ------- --- ----------<br>------------- ------ ------ ---- ---- ------- ----- -- your<br>-------- ------- -- ---------- --- - --- ----- ----- ----<br>---- --- --- ----- --- ---- ---- ------- ----- ---- -------<br>--- --- -- ----- -- --- ---- -- --- ---- -- ------ ------<br>--- ----- -- ----,376398.53500016034,376397.92000013404,375873.601,375878.72499995865,375890.071,376406.496,,17,your
screen,html.Screen,1_1_0_1_18,2021-04-18T13:19:45.574Z,,,,,,,,,,,,,,,,53,,,,,,,,,,,,,,439.6339999617194,,response,,,,99,,,,,,,Space,keypress(Space),,,,,,,,---- -- ----- -- ------ - ------- --- ----------<br>------------- ------ ------ ---- ---- ------- ----- -- ----<br>romantic ------- -- ---------- --- - --- ----- ----- ----<br>---- --- --- ----- --- ---- ---- ------- ----- ---- -------<br>--- --- -- ----- -- --- ---- -- --- ---- -- ------ ------<br>--- ----- -- ----,376846.72500006855,376846.1299999617,376390.063,376398.6500001047,376406.496,376856.477,,18,romantic
screen,html.Screen,1_1_0_1_19,2021-04-18T13:19:45.991Z,,,,,,,,,,,,,,,,53,,,,,,,,,,,,,,406.59300010273,,response,,,,99,,,,,,,Space,keypress(Space),,,,,,,,---- -- ----- -- ------ - ------- --- ----------<br>------------- ------ ------ ---- ---- ------- ----- -- ----<br>-------- partner -- ---------- --- - --- ----- ----- ----<br>---- --- --- ----- --- ---- ---- ------- ----- ---- -------<br>--- --- -- ----- -- --- ---- -- --- ---- -- ------ ------<br>--- ----- -- ----,377263.7050000485,377263.07000010274,376839.63,376846.8400000129,376856.477,377273.009,,19,partner
screen,html.Screen,1_1_0_1_20,2021-04-18T13:19:46.398Z,,,,,,,,,,,,,,,,53,,,,,,,,,,,,,,396.94600004848326,,response,,,,99,,,,,,,Space,keypress(Space),,,,,,,,---- -- ----- -- ------ - ------- --- ----------<br>------------- ------ ------ ---- ---- ------- ----- -- ----<br>-------- ------- is ---------- --- - --- ----- ----- ----<br>---- --- --- ----- --- ---- ---- ------- ----- ---- -------<br>--- --- -- ----- -- --- ---- -- --- ---- -- ------ ------<br>--- ----- -- ----,377670.51500012167,377669.9550000485,377256.29,377263.81999999285,377273.009,377672.541,,20,is
screen,html.Screen,1_1_0_1_21,2021-04-18T13:19:47.294Z,,,,,,,,,,,,,,,,53,,,,,,,,,,,,,,893.3590000450495,,response,,,,99,,,,,,,Space,keypress(Space),,,,,,,,---- -- ----- -- ------ - ------- --- ----------<br>------------- ------ ------ ---- ---- ------- ----- -- ----<br>-------- ------- -- paramount. --- - --- ----- ----- ----<br>---- --- --- ----- --- ---- ---- ------- ----- ---- -------<br>--- --- -- ----- -- --- ---- -- --- ---- -- ------ ------<br>--- ----- -- ----,378566.46999996156,378565.9000000451,377656.198,377670.64000014216,377672.541,378572.461,,21,paramount.
screen,html.Screen,1_1_0_1_22,2021-04-18T13:19:48.006Z,,,,,,,,,,,,,,,,53,,,,,,,,,,,,,,705.5490000090795,,response,,,,99,,,,,,,Space,keypress(Space),,,,,,,,---- -- ----- -- ------ - ------- --- ----------<br>------------- ------ ------ ---- ---- ------- ----- -- ----<br>-------- ------- -- ---------- But - --- ----- ----- ----<br>---- --- --- ----- --- ---- ---- ------- ----- ---- -------<br>--- --- -- ----- -- --- ---- -- --- ---- -- ------ ------<br>--- ----- -- ----,379278.6700001452,379278.0100000091,378555.737,378566.6050000582,378572.461,379288.709,,22,But
screen,html.Screen,1_1_0_1_23,2021-04-18T13:19:48.310Z,,,,,,,,,,,,,,,,53,,,,,,,,,,,,,,293.29100016952725,,response,,,,99,,,,,,,Space,keypress(Space),,,,,,,,---- -- ----- -- ------ - ------- --- ----------<br>------------- ------ ------ ---- ---- ------- ----- -- ----<br>-------- ------- -- ---------- --- a --- ----- ----- ----<br>---- --- --- ----- --- ---- ---- ------- ----- ---- -------<br>--- --- -- ----- -- --- ---- -- --- ---- -- ------ ------<br>--- ----- -- ----,379582.62000000104,379582.0000001695,379272.207,379278.7950001657,379288.709,379588.86,,23,a
screen,html.Screen,1_1_0_1_24,2021-04-18T13:19:48.647Z,,,,,,,,,,,,,,,,53,,,,,,,,,,,,,,329.8250001569977,,response,,,,99,,,,,,,Space,keypress(Space),,,,,,,,---- -- ----- -- ------ - ------- --- ----------<br>------------- ------ ------ ---- ---- ------- ----- -- ----<br>-------- ------- -- ---------- --- - new ----- ----- ----<br>---- --- --- ----- --- ---- ---- ------- ----- ---- -------<br>--- --- -- ----- -- --- ---- -- --- ---- -- ------ ------<br>--- ----- -- ----,379919.32999994606,379918.685000157,379572.091,379582.73000014015,379588.86,379921.697,,24,new
screen,html.Screen,1_1_0_1_25,2021-04-18T13:19:48.934Z,,,,,,,,,,,,,,,,53,,,,,,,,,,,,,,284.74300009635044,,response,,,,99,,,,,,,Space,keypress(Space),,,,,,,,---- -- ----- -- ------ - ------- --- ----------<br>------------- ------ ------ ---- ---- ------- ----- -- ----<br>-------- ------- -- ---------- --- - --- study ----- ----<br>---- --- --- ----- --- ---- ---- ------- ----- ---- -------<br>--- --- -- ----- -- --- ---- -- --- ---- -- ------ ------<br>--- ----- -- ----,380206.9550000597,380206.44000009634,379905.491,379919.4600000046,379921.697,380221.931,,25,study
screen,html.Screen,1_1_0_1_26,2021-04-18T13:19:49.278Z,,,,,,,,,,,,,,,,53,,,,,,,,,,,,,,328.00400001730304,,response,,,,99,,,,,,,Space,keypress(Space),,,,,,,,---- -- ----- -- ------ - ------- --- ----------<br>------------- ------ ------ ---- ---- ------- ----- -- ----<br>-------- ------- -- ---------- --- - --- ----- finds ----<br>---- --- --- ----- --- ---- ---- ------- ----- ---- -------<br>--- --- -- ----- -- --- ---- -- --- ---- -- ------ ------<br>--- ----- -- ----,380550.64500006847,380549.9350000173,380205.49,380207.0999999996,380221.931,380555.539,,26,finds
screen,html.Screen,1_1_0_1_27,2021-04-18T13:19:49.638Z,,,,,,,,,,,,,,,,53,,,,,,,,,,,,,,354.0460000158055,,response,,,,99,,,,,,,Space,keypress(Space),,,,,,,,---- -- ----- -- ------ - ------- --- ----------<br>------------- ------ ------ ---- ---- ------- ----- -- ----<br>-------- ------- -- ---------- --- - --- ----- ----- that<br>---- --- --- ----- --- ---- ---- ------- ----- ---- -------<br>--- --- -- ----- -- --- ---- -- --- ---- -- ------ ------<br>--- ----- -- ----,380910.1400000509,380909.5850000158,380538.659,380550.7650000509,380555.539,380921.845,,27,that
screen,html.Screen,1_1_0_1_28,2021-04-18T13:19:50.027Z,,,,,,,,,,,,,,,,53,,,,,,,,,,,,,,376.040000007255,,response,,,,99,,,,,,,Space,keypress(Space),,,,,,,,---- -- ----- -- ------ - ------- --- ----------<br>------------- ------ ------ ---- ---- ------- ----- -- ----<br>-------- ------- -- ---------- --- - --- ----- ----- ----<br>it's --- --- ----- --- ---- ---- ------- ----- ---- -------<br>--- --- -- ----- -- --- ---- -- --- ---- -- ------ ------<br>--- ----- -- ----,381300.0400001183,381297.8850000072,380905.055,380910.27999995276,380921.845,381304.545,,28,it's
screen,html.Screen,1_1_0_1_29,2021-04-18T13:19:50.358Z,,,,,,,,,,,,,,,,53,,,,,,,,,,,,,,325.72500008152565,,response,,,,99,,,,,,,Space,keypress(Space),,,,,,,,---- -- ----- -- ------ - ------- --- ----------<br>------------- ------ ------ ---- ---- ------- ----- -- ----<br>-------- ------- -- ---------- --- - --- ----- ----- ----<br>---- not --- ----- --- ---- ---- ------- ----- ---- -------<br>--- --- -- ----- -- --- ---- -- --- ---- -- ------ ------<br>--- ----- -- ----,381630.84500003606,381630.2700000815,381288.175,381300.16999994405,381304.545,381638.23,,29,not
screen,html.Screen,1_1_0_1_30,2021-04-18T13:19:50.690Z,,,,,,,,,,,,,,,,53,,,,,,,,,,,,,,319.22500014165416,,response,,,,99,,,,,,,Space,keypress(Space),,,,,,,,---- -- ----- -- ------ - ------- --- ----------<br>------------- ------ ------ ---- ---- ------- ----- -- ----<br>-------- ------- -- ---------- --- - --- ----- ----- ----<br>---- --- how ----- --- ---- ---- ------- ----- ---- -------<br>--- --- -- ----- -- --- ---- -- --- ---- -- ------ ------<br>--- ----- -- ----,381962.93499995954,381957.45500014164,381621.095,381630.9650000185,381638.23,381971.015,,30,how
screen,html.Screen,1_1_0_1_31,2021-04-18T13:19:51.006Z,,,,,,,,,,,,,,,,53,,,,,,,,,,,,,,306.84500003105495,,response,,,,99,,,,,,,Space,keypress(Space),,,,,,,,---- -- ----- -- ------ - ------- --- ----------<br>------------- ------ ------ ---- ---- ------- ----- -- ----<br>-------- ------- -- ---------- --- - --- ----- ----- ----<br>---- --- --- close --- ---- ---- ------- ----- ---- -------<br>--- --- -- ----- -- --- ---- -- --- ---- -- ------ ------<br>--- ----- -- ----,382278.60500011593,382277.86000003107,381954.804,381963.04500009865,381971.015,382287.602,,31,close
screen,html.Screen,1_1_0_1_32,2021-04-18T13:19:51.342Z,,,,,,,,,,,,,,,,53,,,,,,,,,,,,,,326.537999961467,,response,,,,99,,,,,,,Space,keypress(Space),,,,,,,,---- -- ----- -- ------ - ------- --- ----------<br>------------- ------ ------ ---- ---- ------- ----- -- ----<br>-------- ------- -- ---------- --- - --- ----- ----- ----<br>---- --- --- ----- you ---- ---- ------- ----- ---- -------<br>--- --- -- ----- -- --- ---- -- --- ---- -- ------ ------<br>--- ----- -- ----,382614.67000003904,382614.1399999615,382271.316,382278.6900000647,382287.602,382621.089,,32,you
screen,html.Screen,1_1_0_1_33,2021-04-18T13:19:51.662Z,,,,,,,,,,,,,,,,53,,,,,,,,,,,,,,312.9160001628916,,response,,,,99,,,,,,,Space,keypress(Space),,,,,,,,---- -- ----- -- ------ - ------- --- ----------<br>------------- ------ ------ ---- ---- ------- ----- -- ----<br>-------- ------- -- ---------- --- - --- ----- ----- ----<br>---- --- --- ----- --- feel ---- ------- ----- ---- -------<br>--- --- -- ----- -- --- ---- -- --- ---- -- ------ ------<br>--- ----- -- ----,382934.610000113,382934.00500016287,382604.549,382614.82000001706,382621.089,382937.33,,33,feel
screen,html.Screen,1_1_0_1_34,2021-04-18T13:19:52.126Z,,,,,,,,,,,,,,,,53,,,,,,,,,,,,,,460.6200001296238,,response,,,,99,,,,,,,Space,keypress(Space),,,,,,,,---- -- ----- -- ------ - ------- --- ----------<br>------------- ------ ------ ---- ---- ------- ----- -- ----<br>-------- ------- -- ---------- --- - --- ----- ----- ----<br>---- --- --- ----- --- ---- that ------- ----- ---- -------<br>--- --- -- ----- -- --- ---- -- --- ---- -- ------ ------<br>--- ----- -- ----,383398.56000011787,383397.95000012964,382921.213,382934.7500000149,382937.33,383404.049,,34,that
screen,html.Screen,1_1_0_1_35,2021-04-18T13:19:52.582Z,,,,,,,,,,,,,,,,53,,,,,,,,,,,,,,449.9560000883648,,response,,,,99,,,,,,,Space,keypress(Space),,,,,,,,---- -- ----- -- ------ - ------- --- ----------<br>------------- ------ ------ ---- ---- ------- ----- -- ----<br>-------- ------- -- ---------- --- - --- ----- ----- ----<br>---- --- --- ----- --- ---- ---- matters ----- ---- -------<br>--- --- -- ----- -- --- ---- -- --- ---- -- ------ ------<br>--- ----- -- ----,383854.5999999624,383854.00500008836,383387.61,383398.67000002414,383404.049,383870.752,,35,matters
screen,html.Screen,1_1_0_1_36,2021-04-18T13:19:52.942Z,,,,,,,,,,,,,,,,53,,,,,,,,,,,,,,343.2780001483625,,response,,,,99,,,,,,,Space,keypress(Space),,,,,,,,"---- -- ----- -- ------ - ------- --- ----------<br>------------- ------ ------ ---- ---- ------- ----- -- ----<br>-------- ------- -- ---------- --- - --- ----- ----- ----<br>---- --- --- ----- --- ---- ---- ------- most, ---- -------<br>--- --- -- ----- -- --- ---- -- --- ---- -- ------ ------<br>--- ----- -- ----",384214.62500002235,384214.03000014834,383854.105,383854.7650000546,383870.752,384220.536,,36,"most,"
screen,html.Screen,1_1_0_1_37,2021-04-18T13:19:53.854Z,,,,,,,,,,,,,,,,53,,,,,,,,,,,,,,905.3489999867161,,response,,,,99,,,,,,,Space,keypress(Space),,,,,,,,---- -- ----- -- ------ - ------- --- ----------<br>------------- ------ ------ ---- ---- ------- ----- -- ----<br>-------- ------- -- ---------- --- - --- ----- ----- ----<br>---- --- --- ----- --- ---- ---- ------- ----- it's -------<br>--- --- -- ----- -- --- ---- -- --- ---- -- ------ ------<br>--- ----- -- ----,385126.4600001741,385125.88499998674,384203.608,384214.75000004284,384220.536,385136.926,,37,it's
screen,html.Screen,1_1_0_1_38,2021-04-18T13:19:54.414Z,,,,,,,,,,,,,,,,53,,,,,,,,,,,,,,549.2190001597628,,response,,,,99,,,,,,,Space,keypress(Space),,,,,,,,---- -- ----- -- ------ - ------- --- ----------<br>------------- ------ ------ ---- ---- ------- ----- -- ----<br>-------- ------- -- ---------- --- - --- ----- ----- ----<br>---- --- --- ----- --- ---- ---- ------- ----- ---- whether<br>--- --- -- ----- -- --- ---- -- --- ---- -- ------ ------<br>--- ----- -- ----,385686.95500004105,385686.14500015974,385120.424,385126.57500011846,385136.926,385703.621,,38,whether
screen,html.Screen,1_1_0_1_39,2021-04-18T13:19:54.830Z,,,,,,,,,,,,,,,,53,,,,,,,,,,,,,,398.0439999655937,,response,,,,99,,,,,,,Space,keypress(Space),,,,,,,,---- -- ----- -- ------ - ------- --- ----------<br>------------- ------ ------ ---- ---- ------- ----- -- ----<br>-------- ------- -- ---------- --- - --- ----- ----- ----<br>---- --- --- ----- --- ---- ---- ------- ----- ---- -------<br>you --- -- ----- -- --- ---- -- --- ---- -- ------ ------<br>--- ----- -- ----,386102.22500003874,386101.6649999656,385686.629,385687.05000006594,385703.621,386133.123,,39,you
screen,html.Screen,1_1_0_1_40,2021-04-18T13:19:55.286Z,,,,,,,,,,,,,,,,53,,,,,,,,,,,,,,424.6120000384981,,response,,,,99,,,,,,,Space,keypress(Space),,,,,,,,---- -- ----- -- ------ - ------- --- ----------<br>------------- ------ ------ ---- ---- ------- ----- -- ----<br>-------- ------- -- ---------- --- - --- ----- ----- ----<br>---- --- --- ----- --- ---- ---- ------- ----- ---- -------<br>--- are -- ----- -- --- ---- -- --- ---- -- ------ ------<br>--- ----- -- ----,386558.31500003114,386557.7350000385,386086.814,386102.3550000973,386133.123,386569.732,,40,are
screen,html.Screen,1_1_0_1_41,2021-04-18T13:19:55.606Z,,,,,,,,,,,,,,,,53,,,,,,,,,,,,,,308.20800003485056,,response,,,,99,,,,,,,Space,keypress(Space),,,,,,,,---- -- ----- -- ------ - ------- --- ----------<br>------------- ------ ------ ---- ---- ------- ----- -- ----<br>-------- ------- -- ---------- --- - --- ----- ----- ----<br>---- --- --- ----- --- ---- ---- ------- ----- ---- -------<br>--- --- as ----- -- --- ---- -- --- ---- -- ------ ------<br>--- ----- -- ----,386878.56000009924,386877.94000003487,386553.272,386558.43500001356,386569.732,386886.4,,41,as
screen,html.Screen,1_1_0_1_42,2021-04-18T13:19:55.997Z,,,,,,,,,,,,,,,,53,,,,,,,,,,,,,,383.1100000127917,,response,,,,99,,,,,,,Space,keypress(Space),,,,,,,,---- -- ----- -- ------ - ------- --- ----------<br>------------- ------ ------ ---- ---- ------- ----- -- ----<br>-------- ------- -- ---------- --- - --- ----- ----- ----<br>---- --- --- ----- --- ---- ---- ------- ----- ---- -------<br>--- --- -- close -- --- ---- -- --- ---- -- ------ ------<br>--- ----- -- ----,387270.0650000479,387269.5100000128,386869.576,386878.6550001241,386886.4,387285.904,,42,close
screen,html.Screen,1_1_0_1_43,2021-04-18T13:19:56.798Z,,,,,,,,,,,,,,,,53,,,,,,,,,,,,,,783.8560001003789,,response,,,,99,,,,,,,Space,keypress(Space),,,,,,,,---- -- ----- -- ------ - ------- --- ----------<br>------------- ------ ------ ---- ---- ------- ----- -- ----<br>-------- ------- -- ---------- --- - --- ----- ----- ----<br>---- --- --- ----- --- ---- ---- ------- ----- ---- -------<br>--- --- -- ----- as --- ---- -- --- ---- -- ------ ------<br>--- ----- -- ----,388070.4449999612,388069.76000010036,387269.461,387270.2550000977,387285.904,388085.897,,43,as
screen,html.Screen,1_1_0_1_44,2021-04-18T13:19:57.206Z,,,,,,,,,,,,,,,,53,,,,,,,,,,,,,,392.00800009432714,,response,,,,99,,,,,,,Space,keypress(Space),,,,,,,,---- -- ----- -- ------ - ------- --- ----------<br>------------- ------ ------ ---- ---- ------- ----- -- ----<br>-------- ------- -- ---------- --- - --- ----- ----- ----<br>---- --- --- ----- --- ---- ---- ------- ----- ---- -------<br>--- --- -- ----- -- you ---- -- --- ---- -- ------ ------<br>--- ----- -- ----,388478.5050000064,388477.9050000943,388068.868,388070.5800000578,388085.897,388485.911,,44,you
screen,html.Screen,1_1_0_1_45,2021-04-18T13:19:57.694Z,,,,,,,,,,,,,,,,53,,,,,,,,,,,,,,479.9390000368585,,response,,,,99,,,,,,,Space,keypress(Space),,,,,,,,---- -- ----- -- ------ - ------- --- ----------<br>------------- ------ ------ ---- ---- ------- ----- -- ----<br>-------- ------- -- ---------- --- - --- ----- ----- ----<br>---- --- --- ----- --- ---- ---- ------- ----- ---- -------<br>--- --- -- ----- -- --- want -- --- ---- -- ------ ------<br>--- ----- -- ----,388966.4150001481,388965.8500000369,388469.05,388478.63500006497,388485.911,388968.643,,45,want
screen,html.Screen,1_1_0_1_46,2021-04-18T13:19:58.142Z,,,,,,,,,,,,,,,,53,,,,,,,,,,,,,,445.37700002564816,,response,,,,99,,,,,,,Space,keypress(Space),,,,,,,,---- -- ----- -- ------ - ------- --- ----------<br>------------- ------ ------ ---- ---- ------- ----- -- ----<br>-------- ------- -- ---------- --- - --- ----- ----- ----<br>---- --- --- ----- --- ---- ---- ------- ----- ---- -------<br>--- --- -- ----- -- --- ---- to --- ---- -- ------ ------<br>--- ----- -- ----,389414.5599999465,389414.02000002563,388952.001,388966.59000008367,388968.643,389418.733,,46,to
screen,html.Screen,1_1_0_1_47,2021-04-18T13:19:58.606Z,,,,,,,,,,,,,,,,53,,,,,,,,,,,,,,459.37200012709945,,response,,,,99,,,,,,,Space,keypress(Space),,,,,,,,"---- -- ----- -- ------ - ------- --- ----------<br>------------- ------ ------ ---- ---- ------- ----- -- ----<br>-------- ------- -- ---------- --- - --- ----- ----- ----<br>---- --- --- ----- --- ---- ---- ------- ----- ---- -------<br>--- --- -- ----- -- --- ---- -- be, ---- -- ------ ------<br>--- ----- -- ----",389878.7200001534,389878.1050001271,389402.088,389414.72000000067,389418.733,389885.406,,47,"be,"
screen,html.Screen,1_1_0_1_48,2021-04-18T13:19:59.094Z,,,,,,,,,,,,,,,,53,,,,,,,,,,,,,,480.77400012820726,,response,,,,99,,,,,,,Space,keypress(Space),,,,,,,,---- -- ----- -- ------ - ------- --- ----------<br>------------- ------ ------ ---- ---- ------- ----- -- ----<br>-------- ------- -- ---------- --- - --- ----- ----- ----<br>---- --- --- ----- --- ---- ---- ------- ----- ---- -------<br>--- --- -- ----- -- --- ---- -- --- even -- ------ ------<br>--- ----- -- ----,390366.73999996856,390366.1800001282,389868.776,389878.80500010215,389885.406,390368.166,,48,even
screen,html.Screen,1_1_0_1_49,2021-04-18T13:19:59.693Z,,,,,,,,,,,,,,,,53,,,,,,,,,,,,,,597.7740000236663,,response,,,,99,,,,,,,Space,keypress(Space),,,,,,,,---- -- ----- -- ------ - ------- --- ----------<br>------------- ------ ------ ---- ---- ------- ----- -- ----<br>-------- ------- -- ---------- --- - --- ----- ----- ----<br>---- --- --- ----- --- ---- ---- ------- ----- ---- -------<br>--- --- -- ----- -- --- ---- -- --- ---- if ------ ------<br>--- ----- -- ----,390966.54499997385,390965.9400000237,390351.538,390366.85000010766,390368.166,390994.396,,49,if
screen,html.Screen,1_1_0_1_50,2021-04-18T13:20:00.453Z,,,,,,,,,,,,,,,,53,,,,,,,,,,,,,,731.5240001135389,,response,,,,99,,,,,,,Space,keypress(Space),,,,,,,,---- -- ----- -- ------ - ------- --- ----------<br>------------- ------ ------ ---- ---- ------- ----- -- ----<br>-------- ------- -- ---------- --- - --- ----- ----- ----<br>---- --- --- ----- --- ---- ---- ------- ----- ---- -------<br>--- --- -- ----- -- --- ---- -- --- ---- -- that's ------<br>--- ----- -- ----,391726.41000011936,391725.92000011355,390951.651,390966.705000028,390994.396,391734.582,,50,that's
screen,html.Screen,1_1_0_1_51,2021-04-18T13:20:00.909Z,,,,,,,,,,,,,,,,53,,,,,,,,,,,,,,446.90800010453677,,response,,,,99,,,,,,,Space,keypress(Space),,,,,,,,---- -- ----- -- ------ - ------- --- ----------<br>------------- ------ ------ ---- ---- ------- ----- -- ----<br>-------- ------- -- ---------- --- - --- ----- ----- ----<br>---- --- --- ----- --- ---- ---- ------- ----- ---- -------<br>--- --- -- ----- -- --- ---- -- --- ---- -- ------ really<br>--- ----- -- ----,392182.01999994926,392181.49000010453,391717.692,391726.5600000974,391734.582,392184.185,,51,really
screen,html.Screen,1_1_0_1_52,2021-04-18T13:20:01.469Z,,,,,,,,,,,,,,,,53,,,,,,,,,,,,,,557.7550000944757,,response,,,,99,,,,,,,Space,keypress(Space),,,,,,,,---- -- ----- -- ------ - ------- --- ----------<br>------------- ------ ------ ---- ---- ------- ----- -- ----<br>-------- ------- -- ---------- --- - --- ----- ----- ----<br>---- --- --- ----- --- ---- ---- ------- ----- ---- -------<br>--- --- -- ----- -- --- ---- -- --- ---- -- ------ ------<br>not ----- -- ----,392742.49500012957,392741.9400000945,392167.854,392182.14499996975,392184.185,392751.108,,52,not
screen,html.Screen,1_1_0_1_53,2021-04-18T13:20:02.125Z,,,,,,,,,,,,,,,,53,,,,,,,,,,,,,,646.4120001150295,,response,,,,99,,,,,,,Space,keypress(Space),,,,,,,,---- -- ----- -- ------ - ------- --- ----------<br>------------- ------ ------ ---- ---- ------- ----- -- ----<br>-------- ------- -- ---------- --- - --- ----- ----- ----<br>---- --- --- ----- --- ---- ---- ------- ----- ---- -------<br>--- --- -- ----- -- --- ---- -- --- ---- -- ------ ------<br>--- close -- ----,393398.07500015013,393397.52000011504,392734.473,392742.62999999337,392751.108,393400.441,,53,close
screen,html.Screen,1_1_0_1_54,2021-04-18T13:20:02.549Z,,,,,,,,,,,,,,,,53,,,,,,,,,,,,,,421.41900002548937,,response,,,,99,,,,,,,Space,keypress(Space),,,,,,,,---- -- ----- -- ------ - ------- --- ----------<br>------------- ------ ------ ---- ---- ------- ----- -- ----<br>-------- ------- -- ---------- --- - --- ----- ----- ----<br>---- --- --- ----- --- ---- ---- ------- ----- ---- -------<br>--- --- -- ----- -- --- ---- -- --- ---- -- ------ ------<br>--- ----- at ----,393822.43499998003,393821.8600000255,393384.327,393398.20499997586,393400.441,393834.211,,54,at
screen,html.Screen,1_1_0_1_55,2021-04-18T13:20:03.133Z,,,,,,,,,,,,,,,,53,,,,,,,,,,,,,,571.6689999765949,,response,,,,99,,,,,,,Space,keypress(Space),,,,,,,,---- -- ----- -- ------ - ------- --- ----------<br>------------- ------ ------ ---- ---- ------- ----- -- ----<br>-------- ------- -- ---------- --- - --- ----- ----- ----<br>---- --- --- ----- --- ---- ---- ------- ----- ---- -------<br>--- --- -- ----- -- --- ---- -- --- ---- -- ------ ------<br>--- ----- -- all.,394406.48999996483,394405.8799999766,393817.532,393822.5650000386,393834.211,394416.767,,55,all.
Item 99,flow.Loop,1_1_0_1,2021-04-18T13:20:03.133Z,,,,,,,,,,,,,,,,,,,,,,,,,,,,,,28412.801999976626,,completion,,,,,F,,,,,,,,,,,silence,,,,,394406.7150000483,394405.8799999766,365960.129,365960.84500011057,365993.078,394416.767,,,
Question 1,html.Screen,1_1_0_2,2021-04-18T13:20:10.267Z,,,,,,,,,,,,,,,,,,,,,,,,,,,true,FALSE,,7122.63800016325,,response,,,,99,F,,,,,,FALSE,click #choice-2,,,,silence,,,,,401540.1099999435,401539.40500016324,394400.666,394406.78000007756,394416.767,401547.655,,,
Question 2,html.Screen,1_1_0_3,2021-04-18T13:20:17.539Z,,,,,,,,,,,,,,,,,,,,,,,,,,,true,TRUE,,7263.880000102567,,response,,,,99,F,,,,,,TRUE,click #choice-1,,,,silence,,,,,408812.44500004686,408811.5350001026,401531.271,401540.190000087,401547.655,408828.905,,,
Item 99,flow.Sequence,1_1_0,2021-04-18T13:20:17.539Z,,,,,,,,,,,,,,,,,,,,,,,,,,,,,,52831.73200010258,,completion,,,,,,,,,,,,,,,,,,,,,408812.57000006735,408811.5350001026,355963.521,355974.0699999966,355979.803,408828.905,,,
Holding screen,html.Screen,1_1_1_0,2021-04-18T13:20:27.537Z,,,,,,,,,,,,,,,,,,,,,,,,,,,,,,9996.545999999973,,timeout,,,,,,,,,,,,,,,,,,,,,418810.16999995336,418808.602,408811.912,408812.6550000161,408828.905,418825.451,,,
screen,html.Screen,1_1_1_1_0,2021-04-18T13:20:28.461Z,,,,,,,,,,,,,,,,54,,,,,,,,,,,,,,908.4840001420816,,response,,,,100,,,,,,,Space,keypress(Space),,,,,,,,At --- ---- --- ------ ----- ------- ---- -- --- ------- --<br>------- ---------- ------ -- ----- -- ----- -- ---- ------<br>--- ----- --- --- ------ -------- ----- --- ------ ----- --<br>----- ----- ---------- --- --- ------ ------ ---- -- ------<br>------- --- ------ ----- --- ---- ------- -- ---- --- --<br>------- ------,419734.4349999912,419733.9350001421,418808.602,418810.28000009246,418825.451,419741.961,,0,At
screen,html.Screen,1_1_1_1_1,2021-04-18T13:20:28.861Z,,,,,,,,,,,,,,,,54,,,,,,,,,,,,,,391.9240001338767,,response,,,,100,,,,,,,Space,keypress(Space),,,,,,,,-- the ---- --- ------ ----- ------- ---- -- --- ------- --<br>------- ---------- ------ -- ----- -- ----- -- ---- ------<br>--- ----- --- --- ------ -------- ----- --- ------ ----- --<br>----- ----- ---------- --- --- ------ ------ ---- -- ------<br>------- --- ------ ----- --- ---- ------- -- ---- --- --<br>------- ------,420134.49000008404,420133.8850001339,419724.95,419734.580000164,419741.961,420141.801,,1,the
screen,html.Screen,1_1_1_1_2,2021-04-18T13:20:29.253Z,,,,,,,,,,,,,,,,54,,,,,,,,,,,,,,384.0440000547096,,response,,,,100,,,,,,,Space,keypress(Space),,,,,,,,-- --- time --- ------ ----- ------- ---- -- --- ------- --<br>------- ---------- ------ -- ----- -- ----- -- ---- ------<br>--- ----- --- --- ------ -------- ----- --- ------ ----- --<br>----- ----- ---------- --- --- ------ ------ ---- -- ------<br>------- --- ------ ----- --- ---- ------- -- ---- --- --<br>------- ------,420526.3800001703,420525.8450000547,420125.153,420134.6050000284,420141.801,420541.657,,2,time
screen,html.Screen,1_1_1_1_3,2021-04-18T13:20:29.845Z,,,,,,,,,,,,,,,,54,,,,,,,,,,,,,,576.1080000899965,,response,,,,100,,,,,,,Space,keypress(Space),,,,,,,,-- --- ---- the ------ ----- ------- ---- -- --- ------- --<br>------- ---------- ------ -- ----- -- ----- -- ---- ------<br>--- ----- --- --- ------ -------- ----- --- ------ ----- --<br>----- ----- ---------- --- --- ------ ------ ---- -- ------<br>------- --- ------ ----- --- ---- ------- -- ---- --- --<br>------- ------,421118.2399999816,421117.76500009,420525.137,420526.49500011466,420541.657,421124.749,,3,the
screen,html.Screen,1_1_1_1_4,2021-04-18T13:20:30.565Z,,,,,,,,,,,,,,,,54,,,,,,,,,,,,,,713.381000047375,,response,,,,100,,,,,,,Space,keypress(Space),,,,,,,,-- --- ---- --- French ----- ------- ---- -- --- ------- --<br>------- ---------- ------ -- ----- -- ----- -- ---- ------<br>--- ----- --- --- ------ -------- ----- --- ------ ----- --<br>----- ----- ---------- --- --- ------ ------ ---- -- ------<br>------- --- ------ ----- --- ---- ------- -- ---- --- --<br>------- ------,421838.6350001674,421838.1300000474,421108.211,421118.3800001163,421124.749,421840.823,,4,French
screen,html.Screen,1_1_1_1_5,2021-04-18T13:20:31.029Z,,,,,,,,,,,,,,,,54,,,,,,,,,,,,,,460.9670001723571,,response,,,,100,,,,,,,Space,keypress(Space),,,,,,,,-- --- ---- --- ------ crown ------- ---- -- --- ------- --<br>------- ---------- ------ -- ----- -- ----- -- ---- ------<br>--- ----- --- --- ------ -------- ----- --- ------ ----- --<br>----- ----- ---------- --- --- ------ ------ ---- -- ------<br>------- --- ------ ----- --- ---- ------- -- ---- --- --<br>------- ------,422302.4100000039,422301.79000017233,421824.652,421838.7450000737,421840.823,422307.589,,5,crown
screen,html.Screen,1_1_1_1_6,2021-04-18T13:20:31.469Z,,,,,,,,,,,,,,,,54,,,,,,,,,,,,,,434.0060000286321,,response,,,,100,,,,,,,Space,keypress(Space),,,,,,,,-- --- ---- --- ------ ----- secured ---- -- --- ------- --<br>------- ---------- ------ -- ----- -- ----- -- ---- ------<br>--- ----- --- --- ------ -------- ----- --- ------ ----- --<br>----- ----- ---------- --- --- ------ ------ ---- -- ------<br>------- --- ------ ----- --- ---- ------- -- ---- --- --<br>------- ------,422742.365000071,422741.5950000286,422291.096,422302.5249999482,422307.589,422757.181,,6,secured
screen,html.Screen,1_1_1_1_7,2021-04-18T13:20:32.109Z,,,,,,,,,,,,,,,,54,,,,,,,,,,,,,,624.6140000520973,,response,,,,100,,,,,,,Space,keypress(Space),,,,,,,,-- --- ---- --- ------ ----- ------- much -- --- ------- --<br>------- ---------- ------ -- ----- -- ----- -- ---- ------<br>--- ----- --- --- ------ -------- ----- --- ------ ----- --<br>----- ----- ---------- --- --- ------ ------ ---- -- ------<br>------- --- ------ ----- --- ---- ------- -- ---- --- --<br>------- ------,423382.37000000663,423381.7950000521,422740.816,422742.51000001095,422757.181,423390.53,,7,much
screen,html.Screen,1_1_1_1_8,2021-04-18T13:20:33.006Z,,,,,,,,,,,,,,,,54,,,,,,,,,,,,,,888.0600000016857,,response,,,,100,,,,,,,Space,keypress(Space),,,,,,,,-- --- ---- --- ------ ----- ------- ---- of --- ------- --<br>------- ---------- ------ -- ----- -- ----- -- ---- ------<br>--- ----- --- --- ------ -------- ----- --- ------ ----- --<br>----- ----- ---------- --- --- ------ ------ ---- -- ------<br>------- --- ------ ----- --- ---- ------- -- ---- --- --<br>------- ------,424279.15500011295,424278.5900000017,423373.893,423382.50500010327,423390.53,424289.987,,8,of
screen,html.Screen,1_1_1_1_9,2021-04-18T13:20:33.373Z,,,,,,,,,,,,,,,,54,,,,,,,,,,,,,,356.01799998775823,,response,,,,100,,,,,,,Space,keypress(Space),,,,,,,,-- --- ---- --- ------ ----- ------- ---- -- its ------- --<br>------- ---------- ------ -- ----- -- ----- -- ---- ------<br>--- ----- --- --- ------ -------- ----- --- ------ ----- --<br>----- ----- ---------- --- --- ------ ------ ---- -- ------<br>------- --- ------ ----- --- ---- ------- -- ---- --- --<br>------- ------,424646.4949999936,424646.0049999878,424273.681,424279.27500009537,424289.987,424657.102,,9,its
screen,html.Screen,1_1_1_1_10,2021-04-18T13:20:33.765Z,,,,,,,,,,,,,,,,54,,,,,,,,,,,,,,380.81800003157696,,response,,,,100,,,,,,,Space,keypress(Space),,,,,,,,-- --- ---- --- ------ ----- ------- ---- -- --- revenue --<br>------- ---------- ------ -- ----- -- ----- -- ---- ------<br>--- ----- --- --- ------ -------- ----- --- ------ ----- --<br>----- ----- ---------- --- --- ------ ------ ---- -- ------<br>------- --- ------ ----- --- ---- ------- -- ---- --- --<br>------- ------,425038.49499998614,425037.9200000316,424640.355,424646.62500005215,424657.102,425064.645,,10,revenue
screen,html.Screen,1_1_1_1_11,2021-04-18T13:20:34.189Z,,,,,,,,,,,,,,,,54,,,,,,,,,,,,,,396.60000012954697,,response,,,,100,,,,,,,Space,keypress(Space),,,,,,,,-- --- ---- --- ------ ----- ------- ---- -- --- ------- by<br>------- ---------- ------ -- ----- -- ----- -- ---- ------<br>--- ----- --- --- ------ -------- ----- --- ------ ----- --<br>----- ----- ---------- --- --- ------ ------ ---- -- ------<br>------- --- ------ ----- --- ---- ------- -- ---- --- --<br>------- ------,425461.9800001383,425461.24500012957,425023.312,425038.6250000447,425064.645,425473.428,,11,by
screen,html.Screen,1_1_1_1_12,2021-04-18T13:20:34.534Z,,,,,,,,,,,,,,,,54,,,,,,,,,,,,,,332.54700014117407,,response,,,,100,,,,,,,Space,keypress(Space),,,,,,,,-- --- ---- --- ------ ----- ------- ---- -- --- ------- --<br>issuing ---------- ------ -- ----- -- ----- -- ---- ------<br>--- ----- --- --- ------ -------- ----- --- ------ ----- --<br>----- ----- ---------- --- --- ------ ------ ---- -- ------<br>------- --- ------ ----- --- ---- ------- -- ---- --- --<br>------- ------,425806.79500009865,425805.9750001412,425456.556,425462.0850000065,425473.428,425823.283,,12,issuing
screen,html.Screen,1_1_1_1_13,2021-04-18T13:20:35.013Z,,,,,,,,,,,,,,,,54,,,,,,,,,,,,,,462.0970000157249,,response,,,,100,,,,,,,Space,keypress(Space),,,,,,,,-- --- ---- --- ------ ----- ------- ---- -- --- ------- --<br>------- government ------ -- ----- -- ----- -- ---- ------<br>--- ----- --- --- ------ -------- ----- --- ------ ----- --<br>----- ----- ---------- --- --- ------ ------ ---- -- ------<br>------- --- ------ ----- --- ---- ------- -- ---- --- --<br>------- ------,426286.04999999516,426285.3800000157,425806.648,425806.8800000474,425823.283,426289.362,,13,government
screen,html.Screen,1_1_1_1_14,2021-04-18T13:20:35.333Z,,,,,,,,,,,,,,,,54,,,,,,,,,,,,,,316.65300002665026,,response,,,,100,,,,,,,Space,keypress(Space),,,,,,,,-- --- ---- --- ------ ----- ------- ---- -- --- ------- --<br>------- ---------- bonds. -- ----- -- ----- -- ---- ------<br>--- ----- --- --- ------ -------- ----- --- ------ ----- --<br>----- ----- ---------- --- --- ------ ------ ---- -- ------<br>------- --- ------ ----- --- ---- ------- -- ---- --- --<br>------- ------,426606.6850000061,426606.0150000267,426273.082,426286.20500001125,426289.362,426622.525,,14,bonds.
screen,html.Screen,1_1_1_1_15,2021-04-18T13:20:35.789Z,,,,,,,,,,,,,,,,54,,,,,,,,,,,,,,439.3250001728302,,response,,,,100,,,,,,,Space,keypress(Space),,,,,,,,-- --- ---- --- ------ ----- ------- ---- -- --- ------- --<br>------- ---------- ------ In ----- -- ----- -- ---- ------<br>--- ----- --- --- ------ -------- ----- --- ------ ----- --<br>----- ----- ---------- --- --- ------ ------ ---- -- ------<br>------- --- ------ ----- --- ---- ------- -- ---- --- --<br>------- ------,427062.4600001611,427061.85000017285,426606.271,426606.8150000647,426622.525,427072.813,,15,In
screen,html.Screen,1_1_1_1_16,2021-04-18T13:20:36.133Z,,,,,,,,,,,,,,,,54,,,,,,,,,,,,,,333.0470000571222,,response,,,,100,,,,,,,Space,keypress(Space),,,,,,,,"-- --- ---- --- ------ ----- ------- ---- -- --- ------- --<br>------- ---------- ------ -- 1727, -- ----- -- ---- ------<br>--- ----- --- --- ------ -------- ----- --- ------ ----- --<br>----- ----- ---------- --- --- ------ ------ ---- -- ------<br>------- --- ------ ----- --- ---- ------- -- ---- --- --<br>------- ------",427406.4299999736,427405.86000005715,427055.657,427062.5950000249,427072.813,427422.648,,16,"1727,"
screen,html.Screen,1_1_1_1_17,2021-04-18T13:20:37.565Z,,,,,,,,,,,,,,,,54,,,,,,,,,,,,,,1415.3519999888376,,response,,,,100,,,,,,,Space,keypress(Space),,,,,,,,-- --- ---- --- ------ ----- ------- ---- -- --- ------- --<br>------- ---------- ------ -- ----- in ----- -- ---- ------<br>--- ----- --- --- ------ -------- ----- --- ------ ----- --<br>----- ----- ---------- --- --- ------ ------ ---- -- ------<br>------- --- ------ ----- --- ---- ------- -- ---- --- --<br>------- ------,428838.7400000356,428837.9999999888,427405.571,427406.53500007465,427422.648,428855.041,,17,in
screen,html.Screen,1_1_1_1_18,2021-04-18T13:20:37.973Z,,,,,,,,,,,,,,,,54,,,,,,,,,,,,,,391.01399999595014,,response,,,,100,,,,,,,Space,keypress(Space),,,,,,,,-- --- ---- --- ------ ----- ------- ---- -- --- ------- --<br>------- ---------- ------ -- ----- -- order -- ---- ------<br>--- ----- --- --- ------ -------- ----- --- ------ ----- --<br>----- ----- ---------- --- --- ------ ------ ---- -- ------<br>------- --- ------ ----- --- ---- ------- -- ---- --- --<br>------- ------,429246.55500007793,429246.054999996,428838.762,428838.9250000473,428855.041,429255.335,,18,order
screen,html.Screen,1_1_1_1_19,2021-04-18T13:20:38.677Z,,,,,,,,,,,,,,,,54,,,,,,,,,,,,,,694.1700001423596,,response,,,,100,,,,,,,Space,keypress(Space),,,,,,,,-- --- ---- --- ------ ----- ------- ---- -- --- ------- --<br>------- ---------- ------ -- ----- -- ----- to ---- ------<br>--- ----- --- --- ------ -------- ----- --- ------ ----- --<br>----- ----- ---------- --- --- ------ ------ ---- -- ------<br>------- --- ------ ----- --- ---- ------- -- ---- --- --<br>------- ------,429949.9950001482,429949.5050001424,429238.312,429246.7300000135,429255.335,429954.812,,19,to
screen,html.Screen,1_1_1_1_20,2021-04-18T13:20:39.213Z,,,,,,,,,,,,,,,,54,,,,,,,,,,,,,,530.7330000614165,,response,,,,100,,,,,,,Space,keypress(Space),,,,,,,,-- --- ---- --- ------ ----- ------- ---- -- --- ------- --<br>------- ---------- ------ -- ----- -- ----- -- save ------<br>--- ----- --- --- ------ -------- ----- --- ------ ----- --<br>----- ----- ---------- --- --- ------ ------ ---- -- ------<br>------- --- ------ ----- --- ---- ------- -- ---- --- --<br>------- ------,430486.125000054,430485.5450000614,429938.157,429950.1750001218,429954.812,430487.838,,20,save
screen,html.Screen,1_1_1_1_21,2021-04-18T13:20:39.637Z,,,,,,,,,,,,,,,,54,,,,,,,,,,,,,,421.9070000699721,,response,,,,100,,,,,,,Space,keypress(Space),,,,,,,,"-- --- ---- --- ------ ----- ------- ---- -- --- ------- --<br>------- ---------- ------ -- ----- -- ----- -- ---- money,<br>--- ----- --- --- ------ -------- ----- --- ------ ----- --<br>----- ----- ---------- --- --- ------ ------ ---- -- ------<br>------- --- ------ ----- --- ---- ------- -- ---- --- --<br>------- ------",430910.3500000201,430909.74500006996,430471.617,430486.225000117,430487.838,430921.289,,21,"money,"
screen,html.Screen,1_1_1_1_22,2021-04-18T13:20:40.085Z,,,,,,,,,,,,,,,,54,,,,,,,,,,,,,,436.5660000675125,,response,,,,100,,,,,,,Space,keypress(Space),,,,,,,,-- --- ---- --- ------ ----- ------- ---- -- --- ------- --<br>------- ---------- ------ -- ----- -- ----- -- ---- ------<br>the ----- --- --- ------ -------- ----- --- ------ ----- --<br>----- ----- ---------- --- --- ------ ------ ---- -- ------<br>------- --- ------ ----- --- ---- ------- -- ---- --- --<br>------- ------,431358.46500005573,431357.8550000675,430904.575,430910.4800000787,430921.289,431371.316,,22,the
screen,html.Screen,1_1_1_1_23,2021-04-18T13:20:40.653Z,,,,,,,,,,,,,,,,54,,,,,,,,,,,,,,554.3340001065517,,response,,,,100,,,,,,,Space,keypress(Space),,,,,,,,-- --- ---- --- ------ ----- ------- ---- -- --- ------- --<br>------- ---------- ------ -- ----- -- ----- -- ---- ------<br>--- state --- --- ------ -------- ----- --- ------ ----- --<br>----- ----- ---------- --- --- ------ ------ ---- -- ------<br>------- --- ------ ----- --- ---- ------- -- ---- --- --<br>------- ------,431926.1799999513,431925.65000010654,431354.707,431358.5600000806,431371.316,431937.447,,23,state
screen,html.Screen,1_1_1_1_24,2021-04-18T13:20:40.973Z,,,,,,,,,,,,,,,,54,,,,,,,,,,,,,,308.398000026762,,response,,,,100,,,,,,,Space,keypress(Space),,,,,,,,-- --- ---- --- ------ ----- ------- ---- -- --- ------- --<br>------- ---------- ------ -- ----- -- ----- -- ---- ------<br>--- ----- cut --- ------ -------- ----- --- ------ ----- --<br>----- ----- ---------- --- --- ------ ------ ---- -- ------<br>------- --- ------ ----- --- ---- ------- -- ---- --- --<br>------- ------,432246.410000138,432245.84500002675,431921.123,431926.3150000479,431937.447,432254.389,,24,cut
screen,html.Screen,1_1_1_1_25,2021-04-18T13:20:41.373Z,,,,,,,,,,,,,,,,54,,,,,,,,,,,,,,391.3409999892465,,response,,,,100,,,,,,,Space,keypress(Space),,,,,,,,-- --- ---- --- ------ ----- ------- ---- -- --- ------- --<br>------- ---------- ------ -- ----- -- ----- -- ---- ------<br>--- ----- --- the ------ -------- ----- --- ------ ----- --<br>----- ----- ---------- --- --- ------ ------ ---- -- ------<br>------- --- ------ ----- --- ---- ------- -- ---- --- --<br>------- ------,432646.3600001298,432645.7299999893,432237.653,432246.560000116,432254.389,432654.242,,25,the
screen,html.Screen,1_1_1_1_26,2021-04-18T13:20:42.077Z,,,,,,,,,,,,,,,,54,,,,,,,,,,,,,,695.5879999627941,,response,,,,100,,,,,,,Space,keypress(Space),,,,,,,,-- --- ---- --- ------ ----- ------- ---- -- --- ------- --<br>------- ---------- ------ -- ----- -- ----- -- ---- ------<br>--- ----- --- --- bonds' -------- ----- --- ------ ----- --<br>----- ----- ---------- --- --- ------ ------ ---- -- ------<br>------- --- ------ ----- --- ---- ------- -- ---- --- --<br>------- ------,433350.4200000316,433349.8299999628,432637.677,432646.4550001547,432654.242,433353.61,,26,bonds'
screen,html.Screen,1_1_1_1_27,2021-04-18T13:20:42.525Z,,,,,,,,,,,,,,,,54,,,,,,,,,,,,,,444.12500002922025,,response,,,,100,,,,,,,Space,keypress(Space),,,,,,,,-- --- ---- --- ------ ----- ------- ---- -- --- ------- --<br>------- ---------- ------ -- ----- -- ----- -- ---- ------<br>--- ----- --- --- ------ interest ----- --- ------ ----- --<br>----- ----- ---------- --- --- ------ ------ ---- -- ------<br>------- --- ------ ----- --- ---- ------- -- ---- --- --<br>------- ------,433798.31500002183,433797.7350000292,433337.42,433350.5300001707,433353.61,433803.649,,27,interest
screen,html.Screen,1_1_1_1_28,2021-04-18T13:20:43.046Z,,,,,,,,,,,,,,,,54,,,,,,,,,,,,,,514.7509999892209,,response,,,,100,,,,,,,Space,keypress(Space),,,,,,,,-- --- ---- --- ------ ----- ------- ---- -- --- ------- --<br>------- ---------- ------ -- ----- -- ----- -- ---- ------<br>--- ----- --- --- ------ -------- rate. --- ------ ----- --<br>----- ----- ---------- --- --- ------ ------ ---- -- ------<br>------- --- ------ ----- --- ---- ------- -- ---- --- --<br>------- ------,434318.94499994814,434318.3999999892,433787.068,433798.4150000848,433803.649,434348.88,,28,rate.
screen,html.Screen,1_1_1_1_29,2021-04-18T13:20:43.549Z,,,,,,,,,,,,,,,,54,,,,,,,,,,,,,,472.85500000498723,,response,,,,100,,,,,,,Space,keypress(Space),,,,,,,,-- --- ---- --- ------ ----- ------- ---- -- --- ------- --<br>------- ---------- ------ -- ----- -- ----- -- ---- ------<br>--- ----- --- --- ------ -------- ----- The ------ ----- --<br>----- ----- ---------- --- --- ------ ------ ---- -- ------<br>------- --- ------ ----- --- ---- ------- -- ---- --- --<br>------- ------,434822.3200000357,434821.735000005,434303.784,434319.0600001253,434348.88,434836.628,,29,The
screen,html.Screen,1_1_1_1_30,2021-04-18T13:20:44.093Z,,,,,,,,,,,,,,,,54,,,,,,,,,,,,,,529.3270000447519,,response,,,,100,,,,,,,Space,keypress(Space),,,,,,,,-- --- ---- --- ------ ----- ------- ---- -- --- ------- --<br>------- ---------- ------ -- ----- -- ----- -- ---- ------<br>--- ----- --- --- ------ -------- ----- --- market ----- --<br>----- ----- ---------- --- --- ------ ------ ---- -- ------<br>------- --- ------ ----- --- ---- ------- -- ---- --- --<br>------- ------,435366.4750000462,435365.9550000448,434820.091,434822.45000009425,434836.628,435369.643,,30,market
screen,html.Screen,1_1_1_1_31,2021-04-18T13:20:44.477Z,,,,,,,,,,,,,,,,54,,,,,,,,,,,,,,379.842000036675,,response,,,,100,,,,,,,Space,keypress(Space),,,,,,,,-- --- ---- --- ------ ----- ------- ---- -- --- ------- --<br>------- ---------- ------ -- ----- -- ----- -- ---- ------<br>--- ----- --- --- ------ -------- ----- --- ------ value --<br>----- ----- ---------- --- --- ------ ------ ---- -- ------<br>------- --- ------ ----- --- ---- ------- -- ---- --- --<br>------- ------,435750.0299999956,435749.48500003666,435353.159,435366.63500010036,435369.643,435752.756,,31,value
screen,html.Screen,1_1_1_1_32,2021-04-18T13:20:44.877Z,,,,,,,,,,,,,,,,54,,,,,,,,,,,,,,397.0490000518621,,response,,,,100,,,,,,,Space,keypress(Space),,,,,,,,-- --- ---- --- ------ ----- ------- ---- -- --- ------- --<br>------- ---------- ------ -- ----- -- ----- -- ---- ------<br>--- ----- --- --- ------ -------- ----- --- ------ ----- of<br>----- ----- ---------- --- --- ------ ------ ---- -- ------<br>------- --- ------ ----- --- ---- ------- -- ---- --- --<br>------- ------,436150.5700000562,436149.80500005186,435736.597,435750.1550000161,435752.756,436152.606,,32,of
screen,html.Screen,1_1_1_1_33,2021-04-18T13:20:45.197Z,,,,,,,,,,,,,,,,54,,,,,,,,,,,,,,316.74899995012674,,response,,,,100,,,,,,,Space,keypress(Space),,,,,,,,-- --- ---- --- ------ ----- ------- ---- -- --- ------- --<br>------- ---------- ------ -- ----- -- ----- -- ---- ------<br>--- ----- --- --- ------ -------- ----- --- ------ ----- --<br>these ----- ---------- --- --- ------ ------ ---- -- ------<br>------- --- ------ ----- --- ---- ------- -- ---- --- --<br>------- ------,436470.60500015505,436469.35499995016,436135.959,436150.72500007227,436152.606,436486.27,,33,these
screen,html.Screen,1_1_1_1_34,2021-04-18T13:20:45.621Z,,,,,,,,,,,,,,,,54,,,,,,,,,,,,,,407.45000005094334,,response,,,,100,,,,,,,Space,keypress(Space),,,,,,,,-- --- ---- --- ------ ----- ------- ---- -- --- ------- --<br>------- ---------- ------ -- ----- -- ----- -- ---- ------<br>--- ----- --- --- ------ -------- ----- --- ------ ----- --<br>----- bonds ---------- --- --- ------ ------ ---- -- ------<br>------- --- ------ ----- --- ---- ------- -- ---- --- --<br>------- ------,436894.30500008166,436893.72000005096,436469.629,436470.7150000613,436486.27,436902.848,,34,bonds
screen,html.Screen,1_1_1_1_35,2021-04-18T13:20:46.109Z,,,,,,,,,,,,,,,,54,,,,,,,,,,,,,,478.9470000520814,,response,,,,100,,,,,,,Space,keypress(Space),,,,,,,,"-- --- ---- --- ------ ----- ------- ---- -- --- ------- --<br>------- ---------- ------ -- ----- -- ----- -- ---- ------<br>--- ----- --- --- ------ -------- ----- --- ------ ----- --<br>----- ----- plummeted, --- --- ------ ------ ---- -- ------<br>------- --- ------ ----- --- ---- ------- -- ---- --- --<br>------- ------",437382.3750000447,437381.7950000521,436885.976,436894.43000010215,436902.848,437385.635,,35,"plummeted,"
screen,html.Screen,1_1_1_1_36,2021-04-18T13:20:46.821Z,,,,,,,,,,,,,,,,54,,,,,,,,,,,,,,708.2150000629481,,response,,,,100,,,,,,,Space,keypress(Space),,,,,,,,-- --- ---- --- ------ ----- ------- ---- -- --- ------- --<br>------- ---------- ------ -- ----- -- ----- -- ---- ------<br>--- ----- --- --- ------ -------- ----- --- ------ ----- --<br>----- ----- ---------- and --- ------ ------ ---- -- ------<br>------- --- ------ ----- --- ---- ------- -- ---- --- --<br>------- ------,438094.4150001742,438093.85000006296,437369.439,437382.4950000271,437385.635,438102.091,,36,and
screen,html.Screen,1_1_1_1_37,2021-04-18T13:20:47.277Z,,,,,,,,,,,,,,,,54,,,,,,,,,,,,,,447.58900017105043,,response,,,,100,,,,,,,Space,keypress(Space),,,,,,,,-- --- ---- --- ------ ----- ------- ---- -- --- ------- --<br>------- ---------- ------ -- ----- -- ----- -- ---- ------<br>--- ----- --- --- ------ -------- ----- --- ------ ----- --<br>----- ----- ---------- --- the ------ ------ ---- -- ------<br>------- --- ------ ----- --- ---- ------- -- ---- --- --<br>------- ------,438550.25000008754,438549.68000017107,438085.253,438094.55500007607,438102.091,438551.778,,37,the
screen,html.Screen,1_1_1_1_38,2021-04-18T13:20:47.805Z,,,,,,,,,,,,,,,,54,,,,,,,,,,,,,,525.6369999488234,,response,,,,100,,,,,,,Space,keypress(Space),,,,,,,,-- --- ---- --- ------ ----- ------- ---- -- --- ------- --<br>------- ---------- ------ -- ----- -- ----- -- ---- ------<br>--- ----- --- --- ------ -------- ----- --- ------ ----- --<br>----- ----- ---------- --- --- market ------ ---- -- ------<br>------- --- ------ ----- --- ---- ------- -- ---- --- --<br>------- ------,439078.07000004686,439077.4149999488,438535.612,438550.41499994695,438551.778,439084.976,,38,market
screen,html.Screen,1_1_1_1_39,2021-04-18T13:20:48.269Z,,,,,,,,,,,,,,,,54,,,,,,,,,,,,,,456.84400015859865,,response,,,,100,,,,,,,Space,keypress(Space),,,,,,,,-- --- ---- --- ------ ----- ------- ---- -- --- ------- --<br>------- ---------- ------ -- ----- -- ----- -- ---- ------<br>--- ----- --- --- ------ -------- ----- --- ------ ----- --<br>----- ----- ---------- --- --- ------ became ---- -- ------<br>------- --- ------ ----- --- ---- ------- -- ---- --- --<br>------- ------,439542.41500003263,439541.8200001586,439068.71,439078.2000001054,439084.976,439551.757,,39,became
screen,html.Screen,1_1_1_1_40,2021-04-18T13:20:48.701Z,,,,,,,,,,,,,,,,54,,,,,,,,,,,,,,422.1279999848921,,response,,,,100,,,,,,,Space,keypress(Space),,,,,,,,-- --- ---- --- ------ ----- ------- ---- -- --- ------- --<br>------- ---------- ------ -- ----- -- ----- -- ---- ------<br>--- ----- --- --- ------ -------- ----- --- ------ ----- --<br>----- ----- ---------- --- --- ------ ------ wary -- ------<br>------- --- ------ ----- --- ---- ------- -- ---- --- --<br>------- ------,439974.46000017226,439973.8849999849,439534.749,439542.5100000575,439551.757,439985.048,,40,wary
screen,html.Screen,1_1_1_1_41,2021-04-18T13:20:49.277Z,,,,,,,,,,,,,,,,54,,,,,,,,,,,,,,564.7370000392548,,response,,,,100,,,,,,,Space,keypress(Space),,,,,,,,-- --- ---- --- ------ ----- ------- ---- -- --- ------- --<br>------- ---------- ------ -- ----- -- ----- -- ---- ------<br>--- ----- --- --- ------ -------- ----- --- ------ ----- --<br>----- ----- ---------- --- --- ------ ------ ---- of ------<br>------- --- ------ ----- --- ---- ------- -- ---- --- --<br>------- ------,440550.37000006996,440549.78500003926,439968.391,439974.63000006974,439985.048,440581.34,,41,of
screen,html.Screen,1_1_1_1_42,2021-04-18T13:20:49.661Z,,,,,,,,,,,,,,,,54,,,,,,,,,,,,,,352.310000020836,,response,,,,100,,,,,,,Space,keypress(Space),,,,,,,,-- --- ---- --- ------ ----- ------- ---- -- --- ------- --<br>------- ---------- ------ -- ----- -- ----- -- ---- ------<br>--- ----- --- --- ------ -------- ----- --- ------ ----- --<br>----- ----- ---------- --- --- ------ ------ ---- -- French<br>------- --- ------ ----- --- ---- ------- -- ---- --- --<br>------- ------,440934.23500005156,440933.65000002086,440534.803,440550.4850000143,440581.34,440967.898,,42,French
screen,html.Screen,1_1_1_1_43,2021-04-18T13:20:50.141Z,,,,,,,,,,,,,,,,54,,,,,,,,,,,,,,445.7620000783936,,response,,,,100,,,,,,,Space,keypress(Space),,,,,,,,-- --- ---- --- ------ ----- ------- ---- -- --- ------- --<br>------- ---------- ------ -- ----- -- ----- -- ---- ------<br>--- ----- --- --- ------ -------- ----- --- ------ ----- --<br>----- ----- ---------- --- --- ------ ------ ---- -- ------<br>credit. --- ------ ----- --- ---- ------- -- ---- --- --<br>------- ------,441414.22999999486,441413.6600000784,440951.295,440934.37499995343,440967.898,441417.462,,43,credit.
screen,html.Screen,1_1_1_1_44,2021-04-18T13:20:50.781Z,,,,,,,,,,,,,,,,54,,,,,,,,,,,,,,636.5679999993299,,response,,,,100,,,,,,,Space,keypress(Space),,,,,,,,-- --- ---- --- ------ ----- ------- ---- -- --- ------- --<br>------- ---------- ------ -- ----- -- ----- -- ---- ------<br>--- ----- --- --- ------ -------- ----- --- ------ ----- --<br>----- ----- ---------- --- --- ------ ------ ---- -- ------<br>------- The ------ ----- --- ---- ------- -- ---- --- --<br>------- ------,442054.5550000388,442054.02999999933,441401.109,441414.3499999773,441417.462,442067.469,,44,The
screen,html.Screen,1_1_1_1_45,2021-04-18T13:20:51.101Z,,,,,,,,,,,,,,,,54,,,,,,,,,,,,,,306.1360000880086,,response,,,,100,,,,,,,Space,keypress(Space),,,,,,,,-- --- ---- --- ------ ----- ------- ---- -- --- ------- --<br>------- ---------- ------ -- ----- -- ----- -- ---- ------<br>--- ----- --- --- ------ -------- ----- --- ------ ----- --<br>----- ----- ---------- --- --- ------ ------ ---- -- ------<br>------- --- French ----- --- ---- ------- -- ---- --- --<br>------- ------,442374.1000001319,442373.605000088,442050.61,442054.6850000974,442067.469,442384.057,,45,French
screen,html.Screen,1_1_1_1_46,2021-04-18T13:20:52.085Z,,,,,,,,,,,,,,,,54,,,,,,,,,,,,,,973.9030001685605,,response,,,,100,,,,,,,Space,keypress(Space),,,,,,,,-- --- ---- --- ------ ----- ------- ---- -- --- ------- --<br>------- ---------- ------ -- ----- -- ----- -- ---- ------<br>--- ----- --- --- ------ -------- ----- --- ------ ----- --<br>----- ----- ---------- --- --- ------ ------ ---- -- ------<br>------- --- ------ state --- ---- ------- -- ---- --- --<br>------- ------,443358.55500004254,443357.96000016853,442367.176,442374.2200001143,442384.057,443367.334,,46,state
screen,html.Screen,1_1_1_1_47,2021-04-18T13:20:52.501Z,,,,,,,,,,,,,,,,54,,,,,,,,,,,,,,406.49600007833214,,response,,,,100,,,,,,,Space,keypress(Space),,,,,,,,-- --- ---- --- ------ ----- ------- ---- -- --- ------- --<br>------- ---------- ------ -- ----- -- ----- -- ---- ------<br>--- ----- --- --- ------ -------- ----- --- ------ ----- --<br>----- ----- ---------- --- --- ------ ------ ---- -- ------<br>------- --- ------ ----- was ---- ------- -- ---- --- --<br>------- ------,443774.4249999523,443773.8300000783,443350.402,443358.6600001436,443367.334,443783.772,,47,was
screen,html.Screen,1_1_1_1_48,2021-04-18T13:20:52.877Z,,,,,,,,,,,,,,,,54,,,,,,,,,,,,,,365.8979999552248,,response,,,,100,,,,,,,Space,keypress(Space),,,,,,,,-- --- ---- --- ------ ----- ------- ---- -- --- ------- --<br>------- ---------- ------ -- ----- -- ----- -- ---- ------<br>--- ----- --- --- ------ -------- ----- --- ------ ----- --<br>----- ----- ---------- --- --- ------ ------ ---- -- ------<br>------- --- ------ ----- --- left ------- -- ---- --- --<br>------- ------,444150.4999999888,444149.6699999552,443766.915,443774.5350000914,443783.772,444167.129,,48,left
screen,html.Screen,1_1_1_1_49,2021-04-18T13:20:53.253Z,,,,,,,,,,,,,,,,54,,,,,,,,,,,,,,358.16100001957966,,response,,,,100,,,,,,,Space,keypress(Space),,,,,,,,-- --- ---- --- ------ ----- ------- ---- -- --- ------- --<br>------- ---------- ------ -- ----- -- ----- -- ---- ------<br>--- ----- --- --- ------ -------- ----- --- ------ ----- --<br>----- ----- ---------- --- --- ------ ------ ---- -- ------<br>------- --- ------ ----- --- ---- without -- ---- --- --<br>------- ------,444526.13000012934,444525.2900000196,444150.337,444150.6000000518,444167.129,444533.404,,49,without
screen,html.Screen,1_1_1_1_50,2021-04-18T13:20:53.653Z,,,,,,,,,,,,,,,,54,,,,,,,,,,,,,,391.8560001637088,,response,,,,100,,,,,,,Space,keypress(Space),,,,,,,,-- --- ---- --- ------ ----- ------- ---- -- --- ------- --<br>------- ---------- ------ -- ----- -- ----- -- ---- ------<br>--- ----- --- --- ------ -------- ----- --- ------ ----- --<br>----- ----- ---------- --- --- ------ ------ ---- -- ------<br>------- --- ------ ----- --- ---- ------- an ---- --- --<br>------- ------,444925.8850000333,444925.2600001637,444516.814,444526.2750000693,444533.404,444933.371,,50,an
screen,html.Screen,1_1_1_1_51,2021-04-18T13:20:54.085Z,,,,,,,,,,,,,,,,54,,,,,,,,,,,,,,424.449000033841,,response,,,,100,,,,,,,Space,keypress(Space),,,,,,,,-- --- ---- --- ------ ----- ------- ---- -- --- ------- --<br>------- ---------- ------ -- ----- -- ----- -- ---- ------<br>--- ----- --- --- ------ -------- ----- --- ------ ----- --<br>----- ----- ---------- --- --- ------ ------ ---- -- ------<br>------- --- ------ ----- --- ---- ------- -- easy --- --<br>------- ------,445358.4400000982,445357.8200000338,444916.822,444926.0100000538,444933.371,445366.384,,51,easy
screen,html.Screen,1_1_1_1_52,2021-04-18T13:20:54.453Z,,,,,,,,,,,,,,,,54,,,,,,,,,,,,,,359.49600004177773,,response,,,,100,,,,,,,Space,keypress(Space),,,,,,,,-- --- ---- --- ------ ----- ------- ---- -- --- ------- --<br>------- ---------- ------ -- ----- -- ----- -- ---- ------<br>--- ----- --- --- ------ -------- ----- --- ------ ----- --<br>----- ----- ---------- --- --- ------ ------ ---- -- ------<br>------- --- ------ ----- --- ---- ------- -- ---- way --<br>------- ------,445726.58000001684,445725.8800000418,445349.77,445358.5449999664,445366.384,445732.896,,52,way
screen,html.Screen,1_1_1_1_53,2021-04-18T13:20:54.853Z,,,,,,,,,,,,,,,,54,,,,,,,,,,,,,,392.9740001053433,,response,,,,100,,,,,,,Space,keypress(Space),,,,,,,,-- --- ---- --- ------ ----- ------- ---- -- --- ------- --<br>------- ---------- ------ -- ----- -- ----- -- ---- ------<br>--- ----- --- --- ------ -------- ----- --- ------ ----- --<br>----- ----- ---------- --- --- ------ ------ ---- -- ------<br>------- --- ------ ----- --- ---- ------- -- ---- --- of<br>------- ------,446126.45500013605,446125.87000010535,445716.347,445726.72999999486,445732.896,446132.964,,53,of
screen,html.Screen,1_1_1_1_54,2021-04-18T13:20:55.325Z,,,,,,,,,,,,,,,,54,,,,,,,,,,,,,,464.90100013435585,,response,,,,100,,,,,,,Space,keypress(Space),,,,,,,,-- --- ---- --- ------ ----- ------- ---- -- --- ------- --<br>------- ---------- ------ -- ----- -- ----- -- ---- ------<br>--- ----- --- --- ------ -------- ----- --- ------ ----- --<br>----- ----- ---------- --- --- ------ ------ ---- -- ------<br>------- --- ------ ----- --- ---- ------- -- ---- --- --<br>raising ------,446598.44500012696,446597.86500013433,446116.443,446126.5650000423,446132.964,446624.78,,54,raising
screen,html.Screen,1_1_1_1_55,2021-04-18T13:20:55.989Z,,,,,,,,,,,,,,,,54,,,,,,,,,,,,,,637.0150001731236,,response,,,,100,,,,,,,Space,keypress(Space),,,,,,,,-- --- ---- --- ------ ----- ------- ---- -- --- ------- --<br>------- ---------- ------ -- ----- -- ----- -- ---- ------<br>--- ----- --- --- ------ -------- ----- --- ------ ----- --<br>----- ----- ---------- --- --- ------ ------ ---- -- ------<br>------- --- ------ ----- --- ---- ------- -- ---- --- --<br>------- money.,447262.3550000135,447261.79500017315,446582.923,446598.5749999527,446624.78,447265.496,,55,money.
Item 100,flow.Loop,1_1_1_1,2021-04-18T13:20:55.989Z,,,,,,,,,,,,,,,,,,,,,,,,,,,,,,28436.34400017315,,completion,,,,,F,,,,,,,,,,,silence,,,,,447262.585000135,447261.79500017315,418808.602,418810.25000009686,418825.451,447265.496,,,
Question 1,html.Screen,1_1_1_2,2021-04-18T13:20:59.756Z,,,,,,,,,,,,,,,,,,,,,,,,,,,true,TRUE,,3762.2240001292084,,response,,,,100,F,,,,,,TRUE,click #choice-1,,,,silence,,,,,451028.42999994755,451027.7200001292,447249.052,447262.64000008814,447265.496,451030.866,,,
Question 2,html.Screen,1_1_1_3,2021-04-18T13:21:02.092Z,,,,,,,,,,,,,,,,,,,,,,,,,,,false,FALSE,,2332.374000093376,,response,,,,100,F,,,,,,TRUE,click #choice-1,,,,silence,,,,,453364.34500012547,453363.24000009336,451014.58,451028.5000000149,451030.866,453380.387,,,
Item 100,flow.Sequence,1_1_1,2021-04-18T13:21:02.092Z,,,,,,,,,,,,,,,,,,,,,,,,,,,,,,44534.33500009333,,completion,,,,,,,,,,,,,,,,,,,,,453364.47000014596,453363.24000009336,408811.912,408812.63000005856,408828.905,453380.387,,,
End of Practice,html.Page,1_1_2,2021-04-18T13:21:08.154Z,,,,,,,,,,,,,,,,,,,,,,,,,,,,,,6046.143000055221,,form submission,,,,,,,,,,,,,,,,,,,,,459426.66000011377,459426.5300000552,453363.735,453364.5250000991,453380.387,459428.035,,,
Practice,flow.Sequence,1_1,2021-04-18T13:21:08.154Z,,,,,,,,,,,,,,,,,,,,,,,,,,,,,,103446.7270000552,,completion,,,,,,,,,,,,,,,,,,,,,459426.77000002004,459426.5300000552,355963.521,355974.04000000097,355979.803,459428.035,,,
Trap_instruction,html.Page,1_2_0,2021-04-18T13:21:13.623Z,,,,,,,,,,,,,,,,,,,,,,,,,,,,,,5466.950000137265,,form submission,,,,,,,,,,,,,,,,,,,,,464895.13500011526,464894.98500013724,459411.658,459426.8350000493,459428.035,464909.671,,,
trap_trial,html.Screen,1_2_1,2021-04-18T13:21:22.791Z,,,,,,,,,,,,,,,,,,,,,,,,,,,true,1,,9153.519000131753,,response,,,,,,,,,,,1,click #choice-1,,,,,,,,,474063.9800000936,474063.1900001317,464893.061,464895.20000014454,464909.671,474073.081,,,
end of trap trial,html.Page,1_2_2,2021-04-18T13:21:24.684Z,,,,,,,,,,,,,,,,,,,,,,,,,,,,,,1883.7640001534019,,form submission,,,,,,,,,,,,,,,,,,,,,475956.9850000553,475956.8450001534,474056.687,474064.08000015654,474073.081,475972.459,,,
Trap 1,flow.Sequence,1_2,2021-04-18T13:21:24.685Z,,,,,,,,,,,,,,,,,,,,,,,,,,,,,,16528.810000153433,,completion,,,,,,,,,,,,,,,,,,,,,475957.08500011824,475956.8450001534,459411.658,459426.81500012986,459428.035,475972.459,,,
Standby,html.Page,1_3_0,2021-04-18T13:21:32.682Z,,,,,,,,,,,,,,,,,,,,,,,,,,,,,,7997.411000000022,,timeout,,,,,,,,,,,,,,,,,,,,,483954.38000001013,483953.563,475955.79,475957.15499995276,475972.459,483969.87,,,
Holding screen,html.Screen,1_3_1_0_0,2021-04-18T13:21:39.679Z,,,,,,,,,,,,,,,,,,,,,,,,,,,,,,6997.765000000014,,timeout,,,,,,,,,,,,,,,,,,,,,490951.5400000382,490950.965,483953.563,483954.6300000511,483969.87,490967.635,,,
screen,html.Screen,1_3_1_0_1_0,2021-04-18T13:21:41.494Z,,,,,,,,,,,,,,,,51,,,,,,,,,,,,,,1797.84000002197,,response,,,,13,F,,,,,,Space,keypress(Space),,,,instrumental,,,,American -------- --- --- ---- --- --- ------ -- --------<br>---- --------- --- ------- ------------ ---------- ---------<br>--- ---------- ------- ---------- ------- -- -------- ----<br>---- --- ------ ----- ------ -- ---- --- ----- -- - -------<br>-------- -- --- --- -- ----- ----------- ----- -----------<br>---- --- ---------- --- ---- --- -- ----------,492766.1950001493,492765.475000022,490950.965,490951.6950000543,490967.635,492783.926,,0,American
screen,html.Screen,1_3_1_0_1_1,2021-04-18T13:21:42.110Z,,,,,,,,,,,,,,,,51,,,,,,,,,,,,,,597.9839999964461,,response,,,,13,F,,,,,,Space,keypress(Space),,,,instrumental,,,,-------- industry --- --- ---- --- --- ------ -- --------<br>---- --------- --- ------- ------------ ---------- ---------<br>--- ---------- ------- ---------- ------- -- -------- ----<br>---- --- ------ ----- ------ -- ---- --- ----- -- - -------<br>-------- -- --- --- -- ----- ----------- ----- -----------<br>---- --- ---------- --- ---- --- -- ----------,493382.45000015013,493381.9099999964,492750.009,492766.31000009365,492783.926,493403.958,,1,industry
screen,html.Screen,1_3_1_0_1_2,2021-04-18T13:21:42.565Z,,,,,,,,,,,,,,,,51,,,,,,,,,,,,,,433.17700015439186,,response,,,,13,F,,,,,,Space,keypress(Space),,,,instrumental,,,,-------- -------- may --- ---- --- --- ------ -- --------<br>---- --------- --- ------- ------------ ---------- ---------<br>--- ---------- ------- ---------- ------- -- -------- ----<br>---- --- ------ ----- ------ -- ---- --- ----- -- - -------<br>-------- -- --- --- -- ----- ----------- ----- -----------<br>---- --- ---------- --- ---- --- -- ----------,493837.79500005767,493837.1350001544,493366.705,493382.5650000945,493403.958,493849.713,,2,may
screen,html.Screen,1_3_1_0_1_3,2021-04-18T13:21:43.053Z,,,,,,,,,,,,,,,,51,,,,,,,,,,,,,,475.7270000441931,,response,,,,13,F,,,,,,Space,keypress(Space),,,,instrumental,,,,-------- -------- --- not ---- --- --- ------ -- --------<br>---- --------- --- ------- ------------ ---------- ---------<br>--- ---------- ------- ---------- ------- -- -------- ----<br>---- --- ------ ----- ------ -- ---- --- ----- -- - -------<br>-------- -- --- --- -- ----- ----------- ----- -----------<br>---- --- ---------- --- ---- --- -- ----------,494325.97999996506,494325.4400000442,493833.526,493837.8950001206,493849.713,494333.283,,3,not
screen,html.Screen,1_3_1_0_1_4,2021-04-18T13:21:43.582Z,,,,,,,,,,,,,,,,51,,,,,,,,,,,,,,520.6169999873382,,response,,,,13,F,,,,,,Space,keypress(Space),,,,instrumental,,,,-------- -------- --- --- know --- --- ------ -- --------<br>---- --------- --- ------- ------------ ---------- ---------<br>--- ---------- ------- ---------- ------- -- -------- ----<br>---- --- ------ ----- ------ -- ---- --- ----- -- - -------<br>-------- -- --- --- -- ----- ----------- ----- -----------<br>---- --- ---------- --- ---- --- -- ----------,494854.50000013225,494853.89999998733,494316.444,494326.080000028,494333.283,494866.34,,4,know
screen,html.Screen,1_3_1_0_1_5,2021-04-18T13:21:44.302Z,,,,,,,,,,,,,,,,51,,,,,,,,,,,,,,707.2350000457955,,response,,,,13,F,,,,,,Space,keypress(Space),,,,instrumental,,,,"-------- -------- --- --- ---- it, --- ------ -- --------<br>---- --------- --- ------- ------------ ---------- ---------<br>--- ---------- ------- ---------- ------- -- -------- ----<br>---- --- ------ ----- ------ -- ---- --- ----- -- - -------<br>-------- -- --- --- -- ----- ----------- ----- -----------<br>---- --- ---------- --- ---- --- -- ----------",495574.15500003844,495573.5750000458,494849.663,494854.63499999605,494866.34,495582.86,,5,"it,"
screen,html.Screen,1_3_1_0_1_6,2021-04-18T13:21:44.677Z,,,,,,,,,,,,,,,,51,,,,,,,,,,,,,,366.4999999696156,,response,,,,13,F,,,,,,Space,keypress(Space),,,,instrumental,,,,-------- -------- --- --- ---- --- but ------ -- --------<br>---- --------- --- ------- ------------ ---------- ---------<br>--- ---------- ------- ---------- ------- -- -------- ----<br>---- --- ------ ----- ------ -- ---- --- ----- -- - -------<br>-------- -- --- --- -- ----- ----------- ----- -----------<br>---- --- ---------- --- ---- --- -- ----------,495949.9650001526,495949.3599999696,495566.017,495574.33500001207,495582.86,495965.644,,6,but
screen,html.Screen,1_3_1_0_1_7,2021-04-18T13:21:45.190Z,,,,,,,,,,,,,,,,51,,,,,,,,,,,,,,496.23600007535424,,response,,,,13,F,,,,,,Space,keypress(Space),,,,instrumental,,,,-------- -------- --- --- ---- --- --- debate -- --------<br>---- --------- --- ------- ------------ ---------- ---------<br>--- ---------- ------- ---------- ------- -- -------- ----<br>---- --- ------ ----- ------ -- ---- --- ----- -- - -------<br>-------- -- --- --- -- ----- ----------- ----- -----------<br>---- --- ---------- --- ---- --- -- ----------,496462.4350001104,496461.8800000753,495949.211,495950.0949999783,495965.644,496465.447,,7,debate
screen,html.Screen,1_3_1_0_1_8,2021-04-18T13:21:45.558Z,,,,,,,,,,,,,,,,51,,,,,,,,,,,,,,364.15300005552126,,response,,,,13,F,,,,,,Space,keypress(Space),,,,instrumental,,,,-------- -------- --- --- ---- --- --- ------ in --------<br>---- --------- --- ------- ------------ ---------- ---------<br>--- ---------- ------- ---------- ------- -- -------- ----<br>---- --- ------ ----- ------ -- ---- --- ----- -- - -------<br>-------- -- --- --- -- ----- ----------- ----- -----------<br>---- --- ---------- --- ---- --- -- ----------,496830.21000004373,496829.6000000555,496448.939,496462.55500009283,496465.447,496831.977,,8,in
screen,html.Screen,1_3_1_0_1_9,2021-04-18T13:21:46.438Z,,,,,,,,,,,,,,,,51,,,,,,,,,,,,,,877.7930000740453,,response,,,,13,F,,,,,,Space,keypress(Space),,,,instrumental,,,,-------- -------- --- --- ---- --- --- ------ -- Congress<br>---- --------- --- ------- ------------ ---------- ---------<br>--- ---------- ------- ---------- ------- -- -------- ----<br>---- --- ------ ----- ------ -- ---- --- ----- -- - -------<br>-------- -- --- --- -- ----- ----------- ----- -----------<br>---- --- ---------- --- ---- --- -- ----------,497710.36999998614,497709.77000007406,496815.753,496830.3350000642,496831.977,497715.069,,9,Congress
screen,html.Screen,1_3_1_0_1_10,2021-04-18T13:21:46.877Z,,,,,,,,,,,,,,,,51,,,,,,,,,,,,,,434.38599994790275,,response,,,,13,F,,,,,,Space,keypress(Space),,,,instrumental,,,,-------- -------- --- --- ---- --- --- ------ -- --------<br>over --------- --- ------- ------------ ---------- ---------<br>--- ---------- ------- ---------- ------- -- -------- ----<br>---- --- ------ ----- ------ -- ---- --- ----- -- - -------<br>-------- -- --- --- -- ----- ----------- ----- -----------<br>---- --- ---------- --- ---- --- -- ----------,498149.96000006795,498149.4549999479,497698.607,497710.48000012524,497715.069,498165.128,,10,over
screen,html.Screen,1_3_1_0_1_11,2021-04-18T13:21:47.430Z,,,,,,,,,,,,,,,,51,,,,,,,,,,,,,,536.5920000118203,,response,,,,13,F,,,,,,Space,keypress(Space),,,,instrumental,,,,-------- -------- --- --- ---- --- --- ------ -- --------<br>---- reforming --- ------- ------------ ---------- ---------<br>--- ---------- ------- ---------- ------- -- -------- ----<br>---- --- ------ ----- ------ -- ---- --- ----- -- - -------<br>-------- -- --- --- -- ----- ----------- ----- -----------<br>---- --- ---------- --- ---- --- -- ----------,498702.30000000447,498701.72000001185,498148.397,498150.0900001265,498165.128,498714.717,,11,reforming
screen,html.Screen,1_3_1_0_1_12,2021-04-18T13:21:48.150Z,,,,,,,,,,,,,,,,51,,,,,,,,,,,,,,707.2280000673491,,response,,,,13,F,,,,,,Space,keypress(Space),,,,instrumental,,,,-------- -------- --- --- ---- --- --- ------ -- --------<br>---- --------- the ------- ------------ ---------- ---------<br>--- ---------- ------- ---------- ------- -- -------- ----<br>---- --- ------ ----- ------ -- ---- --- ----- -- - -------<br>-------- -- --- --- -- ----- ----------- ----- -----------<br>---- --- ---------- --- ---- --- -- ----------,499422.47000010684,499421.94500006735,498698.246,498702.43000006303,498714.717,499431.369,,12,the
screen,html.Screen,1_3_1_0_1_13,2021-04-18T13:21:48.806Z,,,,,,,,,,,,,,,,51,,,,,,,,,,,,,,646.3509999429225,,response,,,,13,F,,,,,,Space,keypress(Space),,,,instrumental,,,,-------- -------- --- --- ---- --- --- ------ -- --------<br>---- --------- --- federal ------------ ---------- ---------<br>--- ---------- ------- ---------- ------- -- -------- ----<br>---- --- ------ ----- ------ -- ---- --- ----- -- - -------<br>-------- -- --- --- -- ----- ----------- ----- -----------<br>---- --- ---------- --- ---- --- -- ----------,500078.2700001728,500077.7199999429,499414.896,499422.6150000468,499431.369,500080.863,,13,federal
screen,html.Screen,1_3_1_0_1_14,2021-04-18T13:21:49.390Z,,,,,,,,,,,,,,,,51,,,,,,,,,,,,,,580.817000135663,,response,,,,13,F,,,,,,Space,keypress(Space),,,,instrumental,,,,-------- -------- --- --- ---- --- --- ------ -- --------<br>---- --------- --- ------- government's ---------- ---------<br>--- ---------- ------- ---------- ------- -- -------- ----<br>---- --- ------ ----- ------ -- ---- --- ----- -- - -------<br>-------- -- --- --- -- ----- ----------- ----- -----------<br>---- --- ---------- --- ---- --- -- ----------,500662.28000004776,500661.6800001357,500064.215,500078.41000007465,500080.863,500664.017,,14,government's
screen,html.Screen,1_3_1_0_1_15,2021-04-18T13:21:50.862Z,,,,,,,,,,,,,,,,51,,,,,,,,,,,,,,1469.632999974303,,response,,,,13,F,,,,,,Space,keypress(Space),,,,instrumental,,,,-------- -------- --- --- ---- --- --- ------ -- --------<br>---- --------- --- ------- ------------ regulatory ---------<br>--- ---------- ------- ---------- ------- -- -------- ----<br>---- --- ------ ----- ------ -- ---- --- ----- -- - -------<br>-------- -- --- --- -- ----- ----------- ----- -----------<br>---- --- ---------- --- ---- --- -- ----------,502134.24000004306,502133.6499999743,500647.594,500662.3949999921,500664.017,502147.29,,15,regulatory
screen,html.Screen,1_3_1_0_1_16,2021-04-18T13:21:51.798Z,,,,,,,,,,,,,,,,51,,,,,,,,,,,,,,922.6500000740052,,response,,,,13,F,,,,,,Space,keypress(Space),,,,instrumental,,,,-------- -------- --- --- ---- --- --- ------ -- --------<br>---- --------- --- ------- ------------ ---------- apparatus<br>--- ---------- ------- ---------- ------- -- -------- ----<br>---- --- ------ ----- ------ -- ---- --- ----- -- - -------<br>-------- -- --- --- -- ----- ----------- ----- -----------<br>---- --- ---------- --- ---- --- -- ----------,503070.44000015594,503069.940000074,502130.543,502134.4200000167,502147.29,503080.174,,16,apparatus
screen,html.Screen,1_3_1_0_1_17,2021-04-18T13:21:52.253Z,,,,,,,,,,,,,,,,51,,,,,,,,,,,,,,445.20099996833596,,response,,,,13,F,,,,,,Space,keypress(Space),,,,instrumental,,,,-------- -------- --- --- ---- --- --- ------ -- --------<br>---- --------- --- ------- ------------ ---------- ---------<br>may ---------- ------- ---------- ------- -- -------- ----<br>---- --- ------ ----- ------ -- ---- --- ----- -- - -------<br>-------- -- --- --- -- ----- ----------- ----- -----------<br>---- --- ---------- --- ---- --- -- ----------,503525.9400000796,503525.37499996834,503063.174,503070.5850000959,503080.174,503530.064,,17,may
screen,html.Screen,1_3_1_0_1_18,2021-04-18T13:21:53.493Z,,,,,,,,,,,,,,,,51,,,,,,,,,,,,,,1235.3010001156945,,response,,,,13,F,,,,,,Space,keypress(Space),,,,instrumental,,,,-------- -------- --- --- ---- --- --- ------ -- --------<br>---- --------- --- ------- ------------ ---------- ---------<br>--- profoundly ------- ---------- ------- -- -------- ----<br>---- --- ------ ----- ------ -- ---- --- ----- -- - -------<br>-------- -- --- --- -- ----- ----------- ----- -----------<br>---- --- ---------- --- ---- --- -- ----------,504765.8250001259,504765.3650001157,503513.395,503526.04000014253,503530.064,504779.299,,18,profoundly
screen,html.Screen,1_3_1_0_1_19,2021-04-18T13:21:54.062Z,,,,,,,,,,,,,,,,51,,,,,,,,,,,,,,554.7160001458833,,response,,,,13,F,,,,,,Space,keypress(Space),,,,instrumental,,,,-------- -------- --- --- ---- --- --- ------ -- --------<br>---- --------- --- ------- ------------ ---------- ---------<br>--- ---------- improve ---------- ------- -- -------- ----<br>---- --- ------ ----- ------ -- ---- --- ----- -- - -------<br>-------- -- --- --- -- ----- ----------- ----- -----------<br>---- --- ---------- --- ---- --- -- ----------,505334.83500010334,505334.0150001459,504762.818,504765.9899999853,504779.299,505346.084,,19,improve
screen,html.Screen,1_3_1_0_1_20,2021-04-18T13:21:54.581Z,,,,,,,,,,,,,,,,51,,,,,,,,,,,,,,507.0060001060483,,response,,,,13,F,,,,,,Space,keypress(Space),,,,instrumental,,,,-------- -------- --- --- ---- --- --- ------ -- --------<br>---- --------- --- ------- ------------ ---------- ---------<br>--- ---------- ------- companies' ------- -- -------- ----<br>---- --- ------ ----- ------ -- ---- --- ----- -- - -------<br>-------- -- --- --- -- ----- ----------- ----- -----------<br>---- --- ---------- --- ---- --- -- ----------,505853.73000008985,505853.090000106,505329.451,505334.9800000433,505346.084,505862.25,,20,companies'
screen,html.Screen,1_3_1_0_1_21,2021-04-18T13:21:55.166Z,,,,,,,,,,,,,,,,51,,,,,,,,,,,,,,575.1450001318008,,response,,,,13,F,,,,,,Space,keypress(Space),,,,instrumental,,,,-------- -------- --- --- ---- --- --- ------ -- --------<br>---- --------- --- ------- ------------ ---------- ---------<br>--- ---------- ------- ---------- ability -- -------- ----<br>---- --- ------ ----- ------ -- ---- --- ----- -- - -------<br>-------- -- --- --- -- ----- ----------- ----- -----------<br>---- --- ---------- --- ---- --- -- ----------,506438.2050000131,506437.3950001318,505845.839,505853.8399999961,505862.25,506445.666,,21,ability
screen,html.Screen,1_3_1_0_1_22,2021-04-18T13:21:55.630Z,,,,,,,,,,,,,,,,51,,,,,,,,,,,,,,455.9790000926587,,response,,,,13,F,,,,,,Space,keypress(Space),,,,instrumental,,,,-------- -------- --- --- ---- --- --- ------ -- --------<br>---- --------- --- ------- ------------ ---------- ---------<br>--- ---------- ------- ---------- ------- to -------- ----<br>---- --- ------ ----- ------ -- ---- --- ----- -- - -------<br>-------- -- --- --- -- ----- ----------- ----- -----------<br>---- --- ---------- --- ---- --- -- ----------,506902.25000004284,506901.6450000927,506428.933,506438.3300000336,506445.666,506912.381,,22,to
screen,html.Screen,1_3_1_0_1_23,2021-04-18T13:21:56.158Z,,,,,,,,,,,,,,,,51,,,,,,,,,,,,,,517.2690000637085,,response,,,,13,F,,,,,,Space,keypress(Space),,,,instrumental,,,,-------- -------- --- --- ---- --- --- ------ -- --------<br>---- --------- --- ------- ------------ ---------- ---------<br>--- ---------- ------- ---------- ------- -- survive. ----<br>---- --- ------ ----- ------ -- ---- --- ----- -- - -------<br>-------- -- --- --- -- ----- ----------- ----- -----------<br>---- --- ---------- --- ---- --- -- ----------,507430.19500002265,507429.6500000637,506895.683,506902.3599999491,506912.381,507445.293,,23,survive.
screen,html.Screen,1_3_1_0_1_24,2021-04-18T13:21:56.558Z,,,,,,,,,,,,,,,,51,,,,,,,,,,,,,,384.231999950076,,response,,,,13,F,,,,,,Space,keypress(Space),,,,instrumental,,,,-------- -------- --- --- ---- --- --- ------ -- --------<br>---- --------- --- ------- ------------ ---------- ---------<br>--- ---------- ------- ---------- ------- -- -------- This<br>---- --- ------ ----- ------ -- ---- --- ----- -- - -------<br>-------- -- --- --- -- ----- ----------- ----- -----------<br>---- --- ---------- --- ---- --- -- ----------,507830.25500015356,507829.5249999501,507428.695,507430.3250000812,507445.293,507845.201,,24,This
screen,html.Screen,1_3_1_0_1_25,2021-04-18T13:21:57.390Z,,,,,,,,,,,,,,,,51,,,,,,,,,,,,,,816.7390000199666,,response,,,,13,F,,,,,,Space,keypress(Space),,,,instrumental,,,,-------- -------- --- --- ---- --- --- ------ -- --------<br>---- --------- --- ------- ------------ ---------- ---------<br>--- ---------- ------- ---------- ------- -- -------- ----<br>week --- ------ ----- ------ -- ---- --- ----- -- - -------<br>-------- -- --- --- -- ----- ----------- ----- -----------<br>---- --- ---------- --- ---- --- -- ----------,508662.5200000126,508661.94000001997,507828.697,507830.3650000598,507845.201,508678.449,,25,week
screen,html.Screen,1_3_1_0_1_26,2021-04-18T13:21:57.685Z,,,,,,,,,,,,,,,,51,,,,,,,,,,,,,,279.0159999849275,,response,,,,13,F,,,,,,Space,keypress(Space),,,,instrumental,,,,-------- -------- --- --- ---- --- --- ------ -- --------<br>---- --------- --- ------- ------------ ---------- ---------<br>--- ---------- ------- ---------- ------- -- -------- ----<br>---- the ------ ----- ------ -- ---- --- ----- -- - -------<br>-------- -- --- --- -- ----- ----------- ----- -----------<br>---- --- ---------- --- ---- --- -- ----------,508958.02000002004,508957.46499998495,508661.7,508662.6300001517,508678.449,508961.341,,26,the
screen,html.Screen,1_3_1_0_1_27,2021-04-18T13:21:58.078Z,,,,,,,,,,,,,,,,51,,,,,,,,,,,,,,388.4390000477433,,response,,,,13,F,,,,,,Space,keypress(Space),,,,instrumental,,,,-------- -------- --- --- ---- --- --- ------ -- --------<br>---- --------- --- ------- ------------ ---------- ---------<br>--- ---------- ------- ---------- ------- -- -------- ----<br>---- --- Senate ----- ------ -- ---- --- ----- -- - -------<br>-------- -- --- --- -- ----- ----------- ----- -----------<br>---- --- ---------- --- ---- --- -- ----------,509350.36500007845,509349.78000004776,508944.981,508958.120000083,508961.341,509361.117,,27,Senate
screen,html.Screen,1_3_1_0_1_28,2021-04-18T13:21:58.382Z,,,,,,,,,,,,,,,,51,,,,,,,,,,,,,,292.5329999928945,,response,,,,13,F,,,,,,Space,keypress(Space),,,,instrumental,,,,-------- -------- --- --- ---- --- --- ------ -- --------<br>---- --------- --- ------- ------------ ---------- ---------<br>--- ---------- ------- ---------- ------- -- -------- ----<br>---- --- ------ seems ------ -- ---- --- ----- -- - -------<br>-------- -- --- --- -- ----- ----------- ----- -----------<br>---- --- ---------- --- ---- --- -- ----------,509654.305000091,509653.6499999929,509344.4,509350.4800000228,509361.117,509661.221,,28,seems
screen,html.Screen,1_3_1_0_1_29,2021-04-18T13:21:58.662Z,,,,,,,,,,,,,,,,51,,,,,,,,,,,,,,272.7240001716418,,response,,,,13,F,,,,,,Space,keypress(Space),,,,instrumental,,,,-------- -------- --- --- ---- --- --- ------ -- --------<br>---- --------- --- ------- ------------ ---------- ---------<br>--- ---------- ------- ---------- ------- -- -------- ----<br>---- --- ------ ----- poised -- ---- --- ----- -- - -------<br>-------- -- --- --- -- ----- ----------- ----- -----------<br>---- --- ---------- --- ---- --- -- ----------,509934.6849999856,509933.94500017166,509644.311,509654.4500000309,509661.221,509944.449,,29,poised
screen,html.Screen,1_3_1_0_1_30,2021-04-18T13:21:59.383Z,,,,,,,,,,,,,,,,51,,,,,,,,,,,,,,710.0660000601783,,response,,,,13,F,,,,,,Space,keypress(Space),,,,instrumental,,,,-------- -------- --- --- ---- --- --- ------ -- --------<br>---- --------- --- ------- ------------ ---------- ---------<br>--- ---------- ------- ---------- ------- -- -------- ----<br>---- --- ------ ----- ------ to ---- --- ----- -- - -------<br>-------- -- --- --- -- ----- ----------- ----- -----------<br>---- --- ---------- --- ---- --- -- ----------,510655.1449999679,510654.5150000602,509927.548,509934.7950001247,509944.449,510660.829,,30,to
screen,html.Screen,1_3_1_0_1_31,2021-04-18T13:21:59.678Z,,,,,,,,,,,,,,,,51,,,,,,,,,,,,,,288.9909999797819,,response,,,,13,F,,,,,,Space,keypress(Space),,,,instrumental,,,,-------- -------- --- --- ---- --- --- ------ -- --------<br>---- --------- --- ------- ------------ ---------- ---------<br>--- ---------- ------- ---------- ------- -- -------- ----<br>---- --- ------ ----- ------ -- join --- ----- -- - -------<br>-------- -- --- --- -- ----- ----------- ----- -----------<br>---- --- ---------- --- ---- --- -- ----------,510950.3450000193,510949.8199999798,510644.355,510655.27500002645,510660.829,510961.049,,31,join
screen,html.Screen,1_3_1_0_1_32,2021-04-18T13:22:00.011Z,,,,,,,,,,,,,,,,51,,,,,,,,,,,,,,324.07600016950164,,response,,,,13,F,,,,,,Space,keypress(Space),,,,instrumental,,,,-------- -------- --- --- ---- --- --- ------ -- --------<br>---- --------- --- ------- ------------ ---------- ---------<br>--- ---------- ------- ---------- ------- -- -------- ----<br>---- --- ------ ----- ------ -- ---- the ----- -- - -------<br>-------- -- --- --- -- ----- ----------- ----- -----------<br>---- --- ---------- --- ---- --- -- ----------,511285.82500014454,511285.1250001695,510944.091,510950.48999995925,510961.049,511293.748,,32,the
screen,html.Screen,1_3_1_0_1_33,2021-04-18T13:22:00.611Z,,,,,,,,,,,,,,,,51,,,,,,,,,,,,,,591.5170001644874,,response,,,,13,F,,,,,,Space,keypress(Space),,,,instrumental,,,,-------- -------- --- --- ---- --- --- ------ -- --------<br>---- --------- --- ------- ------------ ---------- ---------<br>--- ---------- ------- ---------- ------- -- -------- ----<br>---- --- ------ ----- ------ -- ---- --- House -- - -------<br>-------- -- --- --- -- ----- ----------- ----- -----------<br>---- --- ---------- --- ---- --- -- ----------,511885.79500000924,511885.2650001645,511277.358,511285.94500012696,511293.748,511893.59,,33,House
screen,html.Screen,1_3_1_0_1_34,2021-04-18T13:22:00.955Z,,,,,,,,,,,,,,,,51,,,,,,,,,,,,,,336.09999994916143,,response,,,,13,F,,,,,,Space,keypress(Space),,,,instrumental,,,,-------- -------- --- --- ---- --- --- ------ -- --------<br>---- --------- --- ------- ------------ ---------- ---------<br>--- ---------- ------- ---------- ------- -- -------- ----<br>---- --- ------ ----- ------ -- ---- --- ----- in - -------<br>-------- -- --- --- -- ----- ----------- ----- -----------<br>---- --- ---------- --- ---- --- -- ----------,512230.26500013657,512229.6899999492,511877.29,511885.91499999166,511893.59,512243.65,,34,in
screen,html.Screen,1_3_1_0_1_35,2021-04-18T13:22:01.355Z,,,,,,,,,,,,,,,,51,,,,,,,,,,,,,,386.0900000039255,,response,,,,13,F,,,,,,Space,keypress(Space),,,,instrumental,,,,-------- -------- --- --- ---- --- --- ------ -- --------<br>---- --------- --- ------- ------------ ---------- ---------<br>--- ---------- ------- ---------- ------- -- -------- ----<br>---- --- ------ ----- ------ -- ---- --- ----- -- a -------<br>-------- -- --- --- -- ----- ----------- ----- -----------<br>---- --- ---------- --- ---- --- -- ----------,512630.3050001152,512629.74000000395,512227.068,512230.9400001541,512243.65,512643.316,,35,a
screen,html.Screen,1_3_1_0_1_36,2021-04-18T13:22:01.899Z,,,,,,,,,,,,,,,,51,,,,,,,,,,,,,,530.3840001594508,,response,,,,13,F,,,,,,Space,keypress(Space),,,,instrumental,,,,-------- -------- --- --- ---- --- --- ------ -- --------<br>---- --------- --- ------- ------------ ---------- ---------<br>--- ---------- ------- ---------- ------- -- -------- ----<br>---- --- ------ ----- ------ -- ---- --- ----- -- - massive<br>-------- -- --- --- -- ----- ----------- ----- -----------<br>---- --- ---------- --- ---- --- -- ----------,513174.41500001587,513173.70000015944,512627.001,512630.4000001401,512643.316,513176.468,,36,massive
screen,html.Screen,1_3_1_0_1_37,2021-04-18T13:22:02.580Z,,,,,,,,,,,,,,,,51,,,,,,,,,,,,,,677.4120000678813,,response,,,,13,F,,,,,,Space,keypress(Space),,,,instrumental,,,,-------- -------- --- --- ---- --- --- ------ -- --------<br>---- --------- --- ------- ------------ ---------- ---------<br>--- ---------- ------- ---------- ------- -- -------- ----<br>---- --- ------ ----- ------ -- ---- --- ----- -- - -------<br>overhaul -- --- --- -- ----- ----------- ----- -----------<br>---- --- ---------- --- ---- --- -- ----------,513854.7700000927,513853.8800000679,513160.168,513174.5150000788,513176.468,513859.736,,37,overhaul
