sender,sender_type,sender_id,timestamp,meta,,Blues,Classical,Country,Dance,Electronic,Folk,Gospel,Hip-Hop,Jazz,Latin,Musical/Film,New-age,Pop,Provo_ID,R&B,Rap,Reggae,Religious,Rock,Soul,Swing,Traditional,age,artist_name,correct,correctResponse,distraction,duration,education,ended_on,familiarity,gender,headphone_check_performance,item,list,music_frequency,offensiveness,pleasantness,position_correct,preference,response,response_action,snippet_file,song_name,song_rating,sound,stimulus_1,stimulus_2,stimulus_3,text,time_commit,time_end,time_render,time_run,time_show,time_switch,url,word,word_ID
Introduction,html.Screen,0_0,2021-04-19T10:08:04.170Z,"{""labjs_version"":""20.2.2"",""labjs_build"":{""flavor"":""production"",""commit"":""a25486e0c714a0ae2ce03ff94b7bb6896854dcfa""},""location"":""https://run.pavlovia.org/mvasilev/music_d/"",""userAgent"":""Mozilla/5.0 (Windows NT 10.0; Win64; x64) AppleWebKit/537.36 (KHTML, like Gecko) Chrome/89.0.4389.128 Safari/537.36"",""platform"":""Win32"",""language"":""en-GB"",""locale"":""en-GB"",""timeZone"":""Europe/London"",""timezoneOffset"":-60,""screen_width"":1536,""screen_height"":864,""scroll_width"":1536,""scroll_height"":706,""window_innerWidth"":1536,""window_innerHeight"":754,""devicePixelRatio"":1.25}",,,,,,,,,,,,,,,,,,,,,,,,,,,,,5162.138999974573,,response,,,,,,,,,,,continue,click button,,,,,,,,,23857.92500001844,23853.324999974575,18642.903,18651.590000023134,18691.186,23862.309,{},,
Volume calibration,html.Screen,0_1,2021-04-19T10:08:27.286Z,,,,,,,,,,,,,,,,,,,,,,,,,,,,,,23107.645999978653,,response,,,,,,,,,,,continue,click button,,,,,,,,,46974.675000004936,46969.954999978654,23846.015,23858.294999983627,23862.309,46978.967,,,
Task instructions,html.Screen,0_2,2021-04-19T10:08:37.564Z,,,,,,,,,,,,,,,,,,,,,,,,,,,,,,10272.258000014532,,response,,,,,,,,,,,continue,click button,,,,,,,,,57252.32999998843,57251.22500001453,46962.565,46974.94500002358,46978.967,57260.823,,,
Sounds,html.Screen,0_3_0_0,2021-04-19T10:08:41.815Z,,,,,,,,,,,,,,,,,,,,,,,,,,,,,,4243.954000000005,,timeout,,,,,,,,,3,,,,,,,,I,O,S,,61502.86499998765,61488.242,57244.411,57252.67499999609,57260.823,61504.777,,,
Judgement,html.Screen,0_3_0_1,2021-04-19T10:08:49.296Z,,,,,,,,,,,,,,,,,,,,,,,,,,,true,3,,7477.828000026522,,response,,,,,,,,,3,,3,click #choice-3,,,,,I,O,S,,68984.25999999745,68982.60500002652,61488.242,61503.25499998871,61504.777,68991.955,,,
Trial,flow.Sequence,0_3_0,2021-04-19T10:08:49.299Z,,,,,,,,,,,,,,,,,,,,,,,,,,,,,,11721.782000026527,,completion,,,,,,,,,3,,,,,,,,I,O,S,,68987.1249999851,68982.60500002652,57244.411,57252.58999998914,57260.823,68991.955,,,
Sounds,html.Screen,0_3_1_0,2021-04-19T10:08:53.546Z,,,,,,,,,,,,,,,,,,,,,,,,,,,,,,4256.781999999992,,timeout,,,,,,,,,3,,,,,,,,O,I,S,,73233.59000001801,73232.282,68975.535,68987.369999988,68991.955,73248.737,,,
Judgement,html.Screen,0_3_1_1,2021-04-19T10:08:54.569Z,,,,,,,,,,,,,,,,,,,,,,,,,,,true,3,,1007.4079999921087,,response,,,,,,,,,3,,3,click #choice-3,,,,,O,I,S,,74257.32999999309,74256.1449999921,73232.282,73233.90500003006,73248.737,74266.304,,,
Trial,flow.Sequence,0_3_1,2021-04-19T10:08:54.570Z,,,,,,,,,,,,,,,,,,,,,,,,,,,,,,5264.189999992101,,completion,,,,,,,,,3,,,,,,,,O,I,S,,74257.66499998281,74256.1449999921,68975.535,68987.29999997886,68991.955,74266.304,,,
Sounds,html.Screen,0_3_2_0,2021-04-19T10:08:58.819Z,,,,,,,,,,,,,,,,,,,,,,,,,,,,,,4255.7149999999965,,timeout,,,,,,,,,1,,,,,,,,S,I,O,,78507.29500001762,78505.387,74249.938,74257.89000000805,74266.304,78522.019,,,
Judgement,html.Screen,0_3_2_1,2021-04-19T10:08:59.642Z,,,,,,,,,,,,,,,,,,,,,,,,,,,true,1,,807.1260000251641,,response,,,,,,,,,1,,1,click #choice-1,,,,,S,I,O,,79330.20500000566,79329.14500002516,78505.387,78507.649999985,78522.019,79339.77,,,
Trial,flow.Sequence,0_3_2,2021-04-19T10:08:59.643Z,,,,,,,,,,,,,,,,,,,,,,,,,,,,,,5062.841000025161,,completion,,,,,,,,,1,,,,,,,,S,I,O,,79330.50500001991,79329.14500002516,74249.938,74257.8199999989,74266.304,79339.77,,,
Sounds,html.Screen,0_3_3_0,2021-04-19T10:09:03.886Z,,,,,,,,,,,,,,,,,,,,,,,,,,,,,,4249.585999999996,,timeout,,,,,,,,,2,,,,,,,,O,S,I,,83574.19999997364,83572.599,79323.405,79330.71000000928,79339.77,83589.356,,,
Judgement,html.Screen,0_3_3_1,2021-04-19T10:09:04.580Z,,,,,,,,,,,,,,,,,,,,,,,,,,,true,2,,676.7440000080096,,response,,,,,,,,,2,,2,click #choice-2,,,,,O,S,I,,84267.44999998482,84266.10000000801,83572.599,83574.50500002597,83589.356,84275.433,,,
Trial,flow.Sequence,0_3_3,2021-04-19T10:09:04.580Z,,,,,,,,,,,,,,,,,,,,,,,,,,,,,,4926.330000008005,,completion,,,,,,,,,2,,,,,,,,O,S,I,,84267.9450000287,84266.10000000801,79323.405,79330.64000000013,79339.77,84275.433,,,
Sounds,html.Screen,0_3_4_0,2021-04-19T10:09:08.819Z,,,,,,,,,,,,,,,,,,,,,,,,,,,,,,4246.659999999989,,timeout,,,,,,,,,2,,,,,,,,I,S,O,,88506.83500000741,88505.421,84258.917,84268.30499997595,84275.433,88522.093,,,
Judgement,html.Screen,0_3_4_1,2021-04-19T10:09:09.545Z,,,,,,,,,,,,,,,,,,,,,,,,,,,true,2,,709.8070000134176,,response,,,,,,,,,2,,2,click #choice-2,,,,,I,S,O,,89233.0850000144,89231.90000001341,88505.421,88507.12999998359,88522.093,89240.105,,,
Trial,flow.Sequence,0_3_4,2021-04-19T10:09:09.545Z,,,,,,,,,,,,,,,,,,,,,,,,,,,,,,4956.4670000134065,,completion,,,,,,,,,2,,,,,,,,I,S,O,,89233.37000003085,89231.90000001341,84258.917,84268.19999999134,84275.433,89240.105,,,
Sounds,html.Screen,0_3_5_0,2021-04-19T10:09:13.789Z,,,,,,,,,,,,,,,,,,,,,,,,,,,,,,4252.497000000003,,timeout,,,,,,,,,1,,,,,,,,S,O,I,,93477.35000000102,93475.894,89223.447,89233.55000000447,89240.105,93492.602,,,
Judgement,html.Screen,0_3_5_1,2021-04-19T10:09:14.568Z,,,,,,,,,,,,,,,,,,,,,,,,,,,true,1,,762.31299999771,,response,,,,,,,,,1,,1,click #choice-1,,,,,S,O,I,,94256.0850000009,94254.91499999771,93475.894,93477.6299999794,93492.602,94264.251,,,
Trial,flow.Sequence,0_3_5,2021-04-19T10:09:14.568Z,,,,,,,,,,,,,,,,,,,,,,,,,,,,,,5014.809999997713,,completion,,,,,,,,,1,,,,,,,,S,O,I,,94256.35500001954,94254.91499999771,89223.447,89233.49499999313,89240.105,94264.251,,,
Task,flow.Loop,0_3,2021-04-19T10:09:14.575Z,,,,,,,,,,,,,,,,,,,,,,,,,,,,,,36994.09199999771,,completion,,,1,,,,,,,,,,,,,,,,,,94262.8900000127,94254.91499999771,57244.411,57252.519999979995,57260.823,94264.251,,,
Trap,html.Screen,0_4,2021-04-19T10:09:14.577Z,,,,,,,,,,,,,,,,,,,,,,,,,,,,,,NaN,,skipped,,,,,,,,,,,,,,,,,,,,,94264.74499999313,94254.91499999771,,94264.42000002135,,94264.251,,,
Thanks,html.Screen,0_5,2021-04-19T10:09:18.005Z,,,,,,,,,,,,,,,,,,,,,,,,,,,,,,3427.829000007987,,response,,,,,,,,,,,continue,click button,,,,,,,,,97693.1849999819,97692.08000000799,94247.834,94264.94500000263,94264.251,102275.307,,,
Headphone screening,flow.Sequence,0,2021-04-19T10:09:18.006Z,,,,,,,,,,,,,,,,,,,,,,,,,,,,,,79000.89400000799,,completion,,,,,,,,,,,,,,,,,,,,,97693.75500001479,97692.08000000799,18642.903,18651.53500001179,18691.186,102275.307,,,
Instructions,html.Page,1_0,2021-04-19T10:09:53.254Z,,,,,,,,,,,,,,,,,,,,,,,,,,,,,,30666.063000015012,,form submission,,,,,,,,,,,,,,,,,,,,,132941.70000002487,132941.370000015,102258.615,102272.36499998253,102275.307,132938.462,,,
Holding screen,html.Screen,1_1_0_0,2021-04-19T10:10:03.241Z,,,,,,,,,,,,,,,,,,,,,,,,,,,,,,10039.087,,timeout,,,,,,,,,,,,,,,,,,,,,142928.98000002606,142927.777,132922.087,132941.99500000104,132938.462,142977.549,,,
screen,html.Screen,1_1_0_1_0,2021-04-19T10:10:04.802Z,,,,,,,,,,,,,,,,53,,,,,,,,,,,,,,1507.1359999739798,,response,,,,99,,,,,,,Space,keypress(Space),,,,,,,,When -- ----- -- ------ - ------- --- ----------<br>------------- ------ ------ ---- ---- ------- ----- -- ----<br>-------- ------- -- ---------- --- - --- ----- ----- ----<br>---- --- --- ----- --- ---- ---- ------- ----- ---- -------<br>--- --- -- ----- -- --- ---- -- --- ---- -- ------ ------<br>--- ----- -- ----,144490.0899999775,144484.68499997398,142927.777,142929.39499998465,142977.549,144513.719,,0,When
screen,html.Screen,1_1_0_1_1,2021-04-19T10:10:05.224Z,,,,,,,,,,,,,,,,53,,,,,,,,,,,,,,398.1660000086122,,response,,,,99,,,,,,,Space,keypress(Space),,,,,,,,---- it ----- -- ------ - ------- --- ----------<br>------------- ------ ------ ---- ---- ------- ----- -- ----<br>-------- ------- -- ---------- --- - --- ----- ----- ----<br>---- --- --- ----- --- ---- ---- ------- ----- ---- -------<br>--- --- -- ----- -- --- ---- -- --- ---- -- ------ ------<br>--- ----- -- ----,144912.37500001444,144911.88500000862,144477.507,144490.41999998735,144513.719,144935.264,,1,it
screen,html.Screen,1_1_0_1_2,2021-04-19T10:10:05.688Z,,,,,,,,,,,,,,,,53,,,,,,,,,,,,,,439.65099999305676,,response,,,,99,,,,,,,Space,keypress(Space),,,,,,,,---- -- comes -- ------ - ------- --- ----------<br>------------- ------ ------ ---- ---- ------- ----- -- ----<br>-------- ------- -- ---------- --- - --- ----- ----- ----<br>---- --- --- ----- --- ---- ---- ------- ----- ---- -------<br>--- --- -- ----- -- --- ---- -- --- ---- -- ------ ------<br>--- ----- -- ----,145375.99000002956,145374.91499999305,144896.766,144912.49499999685,144935.264,145399.53,,2,comes
screen,html.Screen,1_1_0_1_3,2021-04-19T10:10:06.082Z,,,,,,,,,,,,,,,,53,,,,,,,,,,,,,,369.7099999941711,,response,,,,99,,,,,,,Space,keypress(Space),,,,,,,,---- -- ----- to ------ - ------- --- ----------<br>------------- ------ ------ ---- ---- ------- ----- -- ----<br>-------- ------- -- ---------- --- - --- ----- ----- ----<br>---- --- --- ----- --- ---- ---- ------- ----- ---- -------<br>--- --- -- ----- -- --- ---- -- --- ---- -- ------ ------<br>--- ----- -- ----,145770.3900000197,145769.23999999417,145368.557,145376.2749999878,145399.53,145794.032,,3,to
screen,html.Screen,1_1_0_1_4,2021-04-19T10:10:06.517Z,,,,,,,,,,,,,,,,53,,,,,,,,,,,,,,410.0629999936791,,response,,,,99,,,,,,,Space,keypress(Space),,,,,,,,---- -- ----- -- having - ------- --- ----------<br>------------- ------ ------ ---- ---- ------- ----- -- ----<br>-------- ------- -- ---------- --- - --- ----- ----- ----<br>---- --- --- ----- --- ---- ---- ------- ----- ---- -------<br>--- --- -- ----- -- --- ---- -- --- ---- -- ------ ------<br>--- ----- -- ----,146205.07000002544,146204.0949999937,145766.104,145770.72000002954,145794.032,146245.23,,4,having
screen,html.Screen,1_1_0_1_5,2021-04-19T10:10:06.930Z,,,,,,,,,,,,,,,,53,,,,,,,,,,,,,,372.25999997506733,,response,,,,99,,,,,,,Space,keypress(Space),,,,,,,,---- -- ----- -- ------ a ------- --- ----------<br>------------- ------ ------ ---- ---- ------- ----- -- ----<br>-------- ------- -- ---------- --- - --- ----- ----- ----<br>---- --- --- ----- --- ---- ---- ------- ----- ---- -------<br>--- --- -- ----- -- --- ---- -- --- ---- -- ------ ------<br>--- ----- -- ----,146618.49500000244,146617.48999997508,146210.688,146221.65000002133,146245.23,146642.046,,5,a
screen,html.Screen,1_1_0_1_6,2021-04-19T10:10:07.425Z,,,,,,,,,,,,,,,,53,,,,,,,,,,,,,,469.68400000417023,,response,,,,99,,,,,,,Space,keypress(Space),,,,,,,,---- -- ----- -- ------ - lasting --- ----------<br>------------- ------ ------ ---- ---- ------- ----- -- ----<br>-------- ------- -- ---------- --- - --- ----- ----- ----<br>---- --- --- ----- --- ---- ---- ------- ----- ---- -------<br>--- --- -- ----- -- --- ---- -- --- ---- -- ------ ------<br>--- ----- -- ----,147112.7850000048,147111.73000000417,146611.805,146618.78499999875,146642.046,147135.981,,6,lasting
screen,html.Screen,1_1_0_1_7,2021-04-19T10:10:07.847Z,,,,,,,,,,,,,,,,53,,,,,,,,,,,,,,398.2440000103379,,response,,,,99,,,,,,,Space,keypress(Space),,,,,,,,---- -- ----- -- ------ - ------- and ----------<br>------------- ------ ------ ---- ---- ------- ----- -- ----<br>-------- ------- -- ---------- --- - --- ----- ----- ----<br>---- --- --- ----- --- ---- ---- ------- ----- ---- -------<br>--- --- -- ----- -- --- ---- -- --- ---- -- ------ ------<br>--- ----- -- ----,147535.20500002196,147534.22500001034,147108.623,147113.06000000332,147135.981,147554.735,,7,and
screen,html.Screen,1_1_0_1_8,2021-04-19T10:10:08.437Z,,,,,,,,,,,,,,,,53,,,,,,,,,,,,,,569.2549999927869,,response,,,,99,,,,,,,Space,keypress(Space),,,,,,,,---- -- ----- -- ------ - ------- --- fulfilling<br>------------- ------ ------ ---- ---- ------- ----- -- ----<br>-------- ------- -- ---------- --- - --- ----- ----- ----<br>---- --- --- ----- --- ---- ---- ------- ----- ---- -------<br>--- --- -- ----- -- --- ---- -- --- ---- -- ------ ------<br>--- ----- -- ----,148125.07000000915,148123.98999999277,147535.911,147535.49500001827,147554.735,148148.43,,8,fulfilling
screen,html.Screen,1_1_0_1_9,2021-04-19T10:10:08.923Z,,,,,,,,,,,,,,,,53,,,,,,,,,,,,,,461.12499997363193,,response,,,,99,,,,,,,Space,keypress(Space),,,,,,,,"---- -- ----- -- ------ - ------- --- ----------<br>relationship, ------ ------ ---- ---- ------- ----- -- ----<br>-------- ------- -- ---------- --- - --- ----- ----- ----<br>---- --- --- ----- --- ---- ---- ------- ----- ---- -------<br>--- --- -- ----- -- --- ---- -- --- ---- -- ------ ------<br>--- ----- -- ----",148610.69000000134,148609.55499997362,148125.288,148125.37500000326,148148.43,148637.207,,9,"relationship,"
screen,html.Screen,1_1_0_1_10,2021-04-19T10:10:09.368Z,,,,,,,,,,,,,,,,53,,,,,,,,,,,,,,417.458000003302,,response,,,,99,,,,,,,Space,keypress(Space),,,,,,,,---- -- ----- -- ------ - ------- --- ----------<br>------------- common ------ ---- ---- ------- ----- -- ----<br>-------- ------- -- ---------- --- - --- ----- ----- ----<br>---- --- --- ----- --- ---- ---- ------- ----- ---- -------<br>--- --- -- ----- -- --- ---- -- --- ---- -- ------ ------<br>--- ----- -- ----,149055.87500002002,149054.6650000033,148598.4,148610.98499997752,148637.207,149079.544,,10,common
screen,html.Screen,1_1_0_1_11,2021-04-19T10:10:09.916Z,,,,,,,,,,,,,,,,53,,,,,,,,,,,,,,522.7310000120196,,response,,,,99,,,,,,,Space,keypress(Space),,,,,,,,---- -- ----- -- ------ - ------- --- ----------<br>------------- ------ wisdom ---- ---- ------- ----- -- ----<br>-------- ------- -- ---------- --- - --- ----- ----- ----<br>---- --- --- ----- --- ---- ---- ------- ----- ---- -------<br>--- --- -- ----- -- --- ---- -- --- ---- -- ------ ------<br>--- ----- -- ----,149603.60999999102,149602.275000012,149050.823,149056.2149999896,149079.544,149623.825,,11,wisdom
screen,html.Screen,1_1_0_1_12,2021-04-19T10:10:10.339Z,,,,,,,,,,,,,,,,53,,,,,,,,,,,,,,401.4550000016461,,response,,,,99,,,,,,,Space,keypress(Space),,,,,,,,---- -- ----- -- ------ - ------- --- ----------<br>------------- ------ ------ says ---- ------- ----- -- ----<br>-------- ------- -- ---------- --- - --- ----- ----- ----<br>---- --- --- ----- --- ---- ---- ------- ----- ---- -------<br>--- --- -- ----- -- --- ---- -- --- ---- -- ------ ------<br>--- ----- -- ----,150026.53999999166,150025.28000000166,149596.154,149604.14499999024,149623.825,150045.635,,12,says
screen,html.Screen,1_1_0_1_13,2021-04-19T10:10:10.747Z,,,,,,,,,,,,,,,,53,,,,,,,,,,,,,,388.84499999624677,,response,,,,99,,,,,,,Space,keypress(Space),,,,,,,,---- -- ----- -- ------ - ------- --- ----------<br>------------- ------ ------ ---- that ------- ----- -- ----<br>-------- ------- -- ---------- --- - --- ----- ----- ----<br>---- --- --- ----- --- ---- ---- ------- ----- ---- -------<br>--- --- -- ----- -- --- ---- -- --- ---- -- ------ ------<br>--- ----- -- ----,150435.47999998555,150434.47999999626,150027.269,150026.8849999993,150045.635,150459.065,,13,that
screen,html.Screen,1_1_0_1_14,2021-04-19T10:10:11.226Z,,,,,,,,,,,,,,,,53,,,,,,,,,,,,,,453.2999999964959,,response,,,,99,,,,,,,Space,keypress(Space),,,,,,,,---- -- ----- -- ------ - ------- --- ----------<br>------------- ------ ------ ---- ---- feeling ----- -- ----<br>-------- ------- -- ---------- --- - --- ----- ----- ----<br>---- --- --- ----- --- ---- ---- ------- ----- ---- -------<br>--- --- -- ----- -- --- ---- -- --- ---- -- ------ ------<br>--- ----- -- ----,150913.7149999733,150912.3649999965,150433.4,150435.765000002,150459.065,150937.312,,14,feeling
screen,html.Screen,1_1_0_1_15,2021-04-19T10:10:11.597Z,,,,,,,,,,,,,,,,53,,,,,,,,,,,,,,346.2780000063649,,response,,,,99,,,,,,,Space,keypress(Space),,,,,,,,---- -- ----- -- ------ - ------- --- ----------<br>------------- ------ ------ ---- ---- ------- close -- ----<br>-------- ------- -- ---------- --- - --- ----- ----- ----<br>---- --- --- ----- --- ---- ---- ------- ----- ---- -------<br>--- --- -- ----- -- --- ---- -- --- ---- -- ------ ------<br>--- ----- -- ----,151284.69499998027,151283.59000000637,150908.753,150914.22999999486,150937.312,151308.031,,15,close
screen,html.Screen,1_1_0_1_16,2021-04-19T10:10:12.012Z,,,,,,,,,,,,,,,,53,,,,,,,,,,,,,,390.7140000015206,,response,,,,99,,,,,,,Space,keypress(Space),,,,,,,,---- -- ----- -- ------ - ------- --- ----------<br>------------- ------ ------ ---- ---- ------- ----- to ----<br>-------- ------- -- ---------- --- - --- ----- ----- ----<br>---- --- --- ----- --- ---- ---- ------- ----- ---- -------<br>--- --- -- ----- -- --- ---- -- --- ---- -- ------ ------<br>--- ----- -- ----,151699.7899999842,151698.7450000015,151270.859,151285.00999999233,151308.031,151723.28,,16,to
screen,html.Screen,1_1_0_1_17,2021-04-19T10:10:12.441Z,,,,,,,,,,,,,,,,53,,,,,,,,,,,,,,404.7100000081409,,response,,,,99,,,,,,,Space,keypress(Space),,,,,,,,---- -- ----- -- ------ - ------- --- ----------<br>------------- ------ ------ ---- ---- ------- ----- -- your<br>-------- ------- -- ---------- --- - --- ----- ----- ----<br>---- --- --- ----- --- ---- ---- ------- ----- ---- -------<br>--- --- -- ----- -- --- ---- -- --- ---- -- ------ ------<br>--- ----- -- ----,152129.14500001352,152127.99000000814,151691.51,151700.07999998052,151723.28,152152.283,,17,your
screen,html.Screen,1_1_0_1_18,2021-04-19T10:10:12.906Z,,,,,,,,,,,,,,,,53,,,,,,,,,,,,,,440.4719999905792,,response,,,,99,,,,,,,Space,keypress(Space),,,,,,,,---- -- ----- -- ------ - ------- --- ----------<br>------------- ------ ------ ---- ---- ------- ----- -- ----<br>romantic ------- -- ---------- --- - --- ----- ----- ----<br>---- --- --- ----- --- ---- ---- ------- ----- ---- -------<br>--- --- -- ----- -- --- ---- -- --- ---- -- ------ ------<br>--- ----- -- ----,152593.7949999934,152592.75499999058,152123.222,152129.4699999853,152152.283,152617.083,,18,romantic
screen,html.Screen,1_1_0_1_19,2021-04-19T10:10:13.448Z,,,,,,,,,,,,,,,,53,,,,,,,,,,,,,,517.0719999778958,,response,,,,99,,,,,,,Space,keypress(Space),,,,,,,,---- -- ----- -- ------ - ------- --- ----------<br>------------- ------ ------ ---- ---- ------- ----- -- ----<br>-------- partner -- ---------- --- - --- ----- ----- ----<br>---- --- --- ----- --- ---- ---- ------- ----- ---- -------<br>--- --- -- ----- -- --- ---- -- --- ---- -- ------ ------<br>--- ----- -- ----,153135.63999999315,153134.1549999779,152585.893,152594.09999998752,152617.083,153159.114,,19,partner
screen,html.Screen,1_1_0_1_20,2021-04-19T10:10:13.794Z,,,,,,,,,,,,,,,,53,,,,,,,,,,,,,,321.87600001093233,,response,,,,99,,,,,,,Space,keypress(Space),,,,,,,,---- -- ----- -- ------ - ------- --- ----------<br>------------- ------ ------ ---- ---- ------- ----- -- ----<br>-------- ------- is ---------- --- - --- ----- ----- ----<br>---- --- --- ----- --- ---- ---- ------- ----- ---- -------<br>--- --- -- ----- -- --- ---- -- --- ---- -- ------ ------<br>--- ----- -- ----,153482.0099999779,153480.99000001093,153133.903,153136.0950000235,153159.114,153502.091,,20,is
screen,html.Screen,1_1_0_1_21,2021-04-19T10:10:14.171Z,,,,,,,,,,,,,,,,53,,,,,,,,,,,,,,355.3140000170388,,response,,,,99,,,,,,,Space,keypress(Space),,,,,,,,---- -- ----- -- ------ - ------- --- ----------<br>------------- ------ ------ ---- ---- ------- ----- -- ----<br>-------- ------- -- paramount. --- - --- ----- ----- ----<br>---- --- --- ----- --- ---- ---- ------- ----- ---- -------<br>--- --- -- ----- -- --- ---- -- --- ---- -- ------ ------<br>--- ----- -- ----,153858.7750000297,153857.40500001702,153475.697,153482.2999999742,153502.091,153882.381,,21,paramount.
screen,html.Screen,1_1_0_1_22,2021-04-19T10:10:14.652Z,,,,,,,,,,,,,,,,53,,,,,,,,,,,,,,456.729000000807,,response,,,,99,,,,,,,Space,keypress(Space),,,,,,,,---- -- ----- -- ------ - ------- --- ----------<br>------------- ------ ------ ---- ---- ------- ----- -- ----<br>-------- ------- -- ---------- But - --- ----- ----- ----<br>---- --- --- ----- --- ---- ---- ------- ----- ---- -------<br>--- --- -- ----- -- --- ---- -- --- ---- -- ------ ------<br>--- ----- -- ----,154340.22000001278,154339.1100000008,153855.422,153859.0850000037,153882.381,154363.636,,22,But
screen,html.Screen,1_1_0_1_23,2021-04-19T10:10:15.089Z,,,,,,,,,,,,,,,,53,,,,,,,,,,,,,,412.2490000100224,,response,,,,99,,,,,,,Space,keypress(Space),,,,,,,,---- -- ----- -- ------ - ------- --- ----------<br>------------- ------ ------ ---- ---- ------- ----- -- ----<br>-------- ------- -- ---------- --- a --- ----- ----- ----<br>---- --- --- ----- --- ---- ---- ------- ----- ---- -------<br>--- --- -- ----- -- --- ---- -- --- ---- -- ------ ------<br>--- ----- -- ----,154776.95999998832,154775.88500001002,154332.246,154340.55000002263,154363.636,154800.491,,23,a
screen,html.Screen,1_1_0_1_24,2021-04-19T10:10:15.480Z,,,,,,,,,,,,,,,,53,,,,,,,,,,,,,,366.02399998987676,,response,,,,99,,,,,,,Space,keypress(Space),,,,,,,,---- -- ----- -- ------ - ------- --- ----------<br>------------- ------ ------ ---- ---- ------- ----- -- ----<br>-------- ------- -- ---------- --- - new ----- ----- ----<br>---- --- --- ----- --- ---- ---- ------- ----- ---- -------<br>--- --- -- ----- -- --- ---- -- --- ---- -- ------ ------<br>--- ----- -- ----,155167.61499998393,155166.5149999899,154763.541,154777.40000002086,154800.491,155191.242,,24,new
screen,html.Screen,1_1_0_1_25,2021-04-19T10:10:15.861Z,,,,,,,,,,,,,,,,53,,,,,,,,,,,,,,356.59299997575,,response,,,,99,,,,,,,Space,keypress(Space),,,,,,,,---- -- ----- -- ------ - ------- --- ----------<br>------------- ------ ------ ---- ---- ------- ----- -- ----<br>-------- ------- -- ---------- --- - --- study ----- ----<br>---- --- --- ----- --- ---- ---- ------- ----- ---- -------<br>--- --- -- ----- -- --- ---- -- --- ---- -- ------ ------<br>--- ----- -- ----,155548.8100000075,155547.83499997575,155167.311,155167.93499997584,155191.242,155572.119,,25,study
screen,html.Screen,1_1_0_1_26,2021-04-19T10:10:16.297Z,,,,,,,,,,,,,,,,53,,,,,,,,,,,,,,412.0309999747551,,response,,,,99,,,,,,,Space,keypress(Space),,,,,,,,---- -- ----- -- ------ - ------- --- ----------<br>------------- ------ ------ ---- ---- ------- ----- -- ----<br>-------- ------- -- ---------- --- - --- ----- finds ----<br>---- --- --- ----- --- ---- ---- ------- ----- ---- -------<br>--- --- -- ----- -- --- ---- -- --- ---- -- ------ ------<br>--- ----- -- ----,155985.2049999754,155984.14999997476,155541.196,155549.09500002395,155572.119,156016.373,,26,finds
screen,html.Screen,1_1_0_1_27,2021-04-19T10:10:16.691Z,,,,,,,,,,,,,,,,53,,,,,,,,,,,,,,361.2420000048878,,response,,,,99,,,,,,,Space,keypress(Space),,,,,,,,---- -- ----- -- ------ - ------- --- ----------<br>------------- ------ ------ ---- ---- ------- ----- -- ----<br>-------- ------- -- ---------- --- - --- ----- ----- that<br>---- --- --- ----- --- ---- ---- ------- ----- ---- -------<br>--- --- -- ----- -- --- ---- -- --- ---- -- ------ ------<br>--- ----- -- ----,156378.61999997403,156377.61500000488,155972.078,155985.48500001198,156016.373,156402.181,,27,that
screen,html.Screen,1_1_0_1_28,2021-04-19T10:10:17.068Z,,,,,,,,,,,,,,,,53,,,,,,,,,,,,,,352.5690000218747,,response,,,,99,,,,,,,Space,keypress(Space),,,,,,,,---- -- ----- -- ------ - ------- --- ----------<br>------------- ------ ------ ---- ---- ------- ----- -- ----<br>-------- ------- -- ---------- --- - --- ----- ----- ----<br>it's --- --- ----- --- ---- ---- ------- ----- ---- -------<br>--- --- -- ----- -- --- ---- -- --- ---- -- ------ ------<br>--- ----- -- ----,156755.82999998005,156754.7500000219,156375.386,156378.91500000842,156402.181,156779.19,,28,it's
screen,html.Screen,1_1_0_1_29,2021-04-19T10:10:17.367Z,,,,,,,,,,,,,,,,53,,,,,,,,,,,,,,275.34999998280546,,response,,,,99,,,,,,,Space,keypress(Space),,,,,,,,---- -- ----- -- ------ - ------- --- ----------<br>------------- ------ ------ ---- ---- ------- ----- -- ----<br>-------- ------- -- ---------- --- - --- ----- ----- ----<br>---- not --- ----- --- ---- ---- ------- ----- ---- -------<br>--- --- -- ----- -- --- ---- -- --- ---- -- ------ ------<br>--- ----- -- ----,157055.47000002116,157054.5399999828,156752.154,156756.1449999921,156779.19,157082.401,,29,not
screen,html.Screen,1_1_0_1_30,2021-04-19T10:10:17.713Z,,,,,,,,,,,,,,,,53,,,,,,,,,,,,,,316.5890000160434,,response,,,,99,,,,,,,Space,keypress(Space),,,,,,,,---- -- ----- -- ------ - ------- --- ----------<br>------------- ------ ------ ---- ---- ------- ----- -- ----<br>-------- ------- -- ---------- --- - --- ----- ----- ----<br>---- --- how ----- --- ---- ---- ------- ----- ---- -------<br>--- --- -- ----- -- --- ---- -- --- ---- -- ------ ------<br>--- ----- -- ----,157400.72500001406,157398.99000001606,157045.852,157055.74500001967,157082.401,157424.133,,30,how
screen,html.Screen,1_1_0_1_31,2021-04-19T10:10:18.065Z,,,,,,,,,,,,,,,,53,,,,,,,,,,,,,,328.11700001955614,,response,,,,99,,,,,,,Space,keypress(Space),,,,,,,,---- -- ----- -- ------ - ------- --- ----------<br>------------- ------ ------ ---- ---- ------- ----- -- ----<br>-------- ------- -- ---------- --- - --- ----- ----- ----<br>---- --- --- close --- ---- ---- ------- ----- ---- -------<br>--- --- -- ----- -- --- ---- -- --- ---- -- ------ ------<br>--- ----- -- ----,157753.320000018,157752.25000001956,157395.632,157400.98500001477,157424.133,157775.302,,31,close
screen,html.Screen,1_1_0_1_32,2021-04-19T10:10:18.370Z,,,,,,,,,,,,,,,,53,,,,,,,,,,,,,,281.73300000527524,,response,,,,99,,,,,,,Space,keypress(Space),,,,,,,,---- -- ----- -- ------ - ------- --- ----------<br>------------- ------ ------ ---- ---- ------- ----- -- ----<br>-------- ------- -- ---------- --- - --- ----- ----- ----<br>---- --- --- ----- you ---- ---- ------- ----- ---- -------<br>--- --- -- ----- -- --- ---- -- --- ---- -- ------ ------<br>--- ----- -- ----,158058.48000000697,158057.03500000527,157740.777,157753.61999997403,157775.302,158082.042,,32,you
screen,html.Screen,1_1_0_1_33,2021-04-19T10:10:18.628Z,,,,,,,,,,,,,,,,53,,,,,,,,,,,,,,232.78799998844624,,response,,,,99,,,,,,,Space,keypress(Space),,,,,,,,---- -- ----- -- ------ - ------- --- ----------<br>------------- ------ ------ ---- ---- ------- ----- -- ----<br>-------- ------- -- ---------- --- - --- ----- ----- ----<br>---- --- --- ----- --- feel ---- ------- ----- ---- -------<br>--- --- -- ----- -- --- ---- -- --- ---- -- ------ ------<br>--- ----- -- ----,158315.9100000048,158314.82999998843,158043.706,158058.98999999044,158082.042,158339.354,,33,feel
screen,html.Screen,1_1_0_1_34,2021-04-19T10:10:19.043Z,,,,,,,,,,,,,,,,53,,,,,,,,,,,,,,391.11600000952603,,response,,,,99,,,,,,,Space,keypress(Space),,,,,,,,---- -- ----- -- ------ - ------- --- ----------<br>------------- ------ ------ ---- ---- ------- ----- -- ----<br>-------- ------- -- ---------- --- - --- ----- ----- ----<br>---- --- --- ----- --- ---- that ------- ----- ---- -------<br>--- --- -- ----- -- --- ---- -- --- ---- -- ------ ------<br>--- ----- -- ----,158731.50499997428,158730.47000000952,158315.339,158316.18500000332,158339.354,158755.024,,34,that
screen,html.Screen,1_1_0_1_35,2021-04-19T10:10:19.336Z,,,,,,,,,,,,,,,,53,,,,,,,,,,,,,,268.23100000733393,,response,,,,99,,,,,,,Space,keypress(Space),,,,,,,,---- -- ----- -- ------ - ------- --- ----------<br>------------- ------ ------ ---- ---- ------- ----- -- ----<br>-------- ------- -- ---------- --- - --- ----- ----- ----<br>---- --- --- ----- --- ---- ---- matters ----- ---- -------<br>--- --- -- ----- -- --- ---- -- --- ---- -- ------ ------<br>--- ----- -- ----,159024.48000002187,159023.25500000734,158722.638,158731.77499999292,158755.024,159048.138,,35,matters
screen,html.Screen,1_1_0_1_36,2021-04-19T10:10:19.639Z,,,,,,,,,,,,,,,,53,,,,,,,,,,,,,,277.8919999965292,,response,,,,99,,,,,,,Space,keypress(Space),,,,,,,,"---- -- ----- -- ------ - ------- --- ----------<br>------------- ------ ------ ---- ---- ------- ----- -- ----<br>-------- ------- -- ---------- --- - --- ----- ----- ----<br>---- --- --- ----- --- ---- ---- ------- most, ---- -------<br>--- --- -- ----- -- --- ---- -- --- ---- -- ------ ------<br>--- ----- -- ----",159326.7750000232,159326.02999999654,159021.662,159024.8150000116,159048.138,159349.69,,36,"most,"
screen,html.Screen,1_1_0_1_37,2021-04-19T10:10:19.974Z,,,,,,,,,,,,,,,,53,,,,,,,,,,,,,,311.2199999768636,,response,,,,99,,,,,,,Space,keypress(Space),,,,,,,,---- -- ----- -- ------ - ------- --- ----------<br>------------- ------ ------ ---- ---- ------- ----- -- ----<br>-------- ------- -- ---------- --- - --- ----- ----- ----<br>---- --- --- ----- --- ---- ---- ------- ----- it's -------<br>--- --- -- ----- -- --- ---- -- --- ---- -- ------ ------<br>--- ----- -- ----,159661.88500000862,159660.90999997687,159314.781,159327.0200000261,159349.69,159685.386,,37,it's
screen,html.Screen,1_1_0_1_38,2021-04-19T10:10:20.350Z,,,,,,,,,,,,,,,,53,,,,,,,,,,,,,,351.18899997643894,,response,,,,99,,,,,,,Space,keypress(Space),,,,,,,,---- -- ----- -- ------ - ------- --- ----------<br>------------- ------ ------ ---- ---- ------- ----- -- ----<br>-------- ------- -- ---------- --- - --- ----- ----- ----<br>---- --- --- ----- --- ---- ---- ------- ----- ---- whether<br>--- --- -- ----- -- --- ---- -- --- ---- -- ------ ------<br>--- ----- -- ----,160037.565000006,160036.57499997644,159649.935,159662.15500002727,159685.386,160061.059,,38,whether
screen,html.Screen,1_1_0_1_39,2021-04-19T10:10:20.782Z,,,,,,,,,,,,,,,,53,,,,,,,,,,,,,,408.7509999804897,,response,,,,99,,,,,,,Space,keypress(Space),,,,,,,,---- -- ----- -- ------ - ------- --- ----------<br>------------- ------ ------ ---- ---- ------- ----- -- ----<br>-------- ------- -- ---------- --- - --- ----- ----- ----<br>---- --- --- ----- --- ---- ---- ------- ----- ---- -------<br>you --- -- ----- -- --- ---- -- --- ---- -- ------ ------<br>--- ----- -- ----,160470.48000001814,160469.8099999805,160035.299,160037.83500002464,160061.059,160493.404,,39,you
screen,html.Screen,1_1_0_1_40,2021-04-19T10:10:21.131Z,,,,,,,,,,,,,,,,53,,,,,,,,,,,,,,324.8809999866353,,response,,,,99,,,,,,,Space,keypress(Space),,,,,,,,---- -- ----- -- ------ - ------- --- ----------<br>------------- ------ ------ ---- ---- ------- ----- -- ----<br>-------- ------- -- ---------- --- - --- ----- ----- ----<br>---- --- --- ----- --- ---- ---- ------- ----- ---- -------<br>--- are -- ----- -- --- ---- -- --- ---- -- ------ ------<br>--- ----- -- ----,160819.23500000266,160818.28499998664,160461,160470.66500002984,160493.404,160842.735,,40,are
screen,html.Screen,1_1_0_1_41,2021-04-19T10:10:21.464Z,,,,,,,,,,,,,,,,53,,,,,,,,,,,,,,307.8300000181189,,response,,,,99,,,,,,,Space,keypress(Space),,,,,,,,---- -- ----- -- ------ - ------- --- ----------<br>------------- ------ ------ ---- ---- ------- ----- -- ----<br>-------- ------- -- ---------- --- - --- ----- ----- ----<br>---- --- --- ----- --- ---- ---- ------- ----- ---- -------<br>--- --- as ----- -- --- ---- -- --- ---- -- ------ ------<br>--- ----- -- ----,161151.71499998542,161150.5650000181,160809.935,160819.51499998104,160842.735,161175.165,,41,as
screen,html.Screen,1_1_0_1_42,2021-04-19T10:10:21.822Z,,,,,,,,,,,,,,,,53,,,,,,,,,,,,,,333.99999999583815,,response,,,,99,,,,,,,Space,keypress(Space),,,,,,,,---- -- ----- -- ------ - ------- --- ----------<br>------------- ------ ------ ---- ---- ------- ----- -- ----<br>-------- ------- -- ---------- --- - --- ----- ----- ----<br>---- --- --- ----- --- ---- ---- ------- ----- ---- -------<br>--- --- -- close -- --- ---- -- --- ---- -- ------ ------<br>--- ----- -- ----,161510.20999997854,161509.16499999585,161142.497,161152.0250000176,161175.165,161533.688,,42,close
screen,html.Screen,1_1_0_1_43,2021-04-19T10:10:22.120Z,,,,,,,,,,,,,,,,53,,,,,,,,,,,,,,273.1120000203082,,response,,,,99,,,,,,,Space,keypress(Space),,,,,,,,---- -- ----- -- ------ - ------- --- ----------<br>------------- ------ ------ ---- ---- ------- ----- -- ----<br>-------- ------- -- ---------- --- - --- ----- ----- ----<br>---- --- --- ----- --- ---- ---- ------- ----- ---- -------<br>--- --- -- ----- as --- ---- -- --- ---- -- ------ ------<br>--- ----- -- ----,161807.8150000074,161806.8000000203,161508.444,161510.494999995,161533.688,161831.288,,43,as
screen,html.Screen,1_1_0_1_44,2021-04-19T10:10:22.411Z,,,,,,,,,,,,,,,,53,,,,,,,,,,,,,,266.55200000217883,,response,,,,99,,,,,,,Space,keypress(Space),,,,,,,,---- -- ----- -- ------ - ------- --- ----------<br>------------- ------ ------ ---- ---- ------- ----- -- ----<br>-------- ------- -- ---------- --- - --- ----- ----- ----<br>---- --- --- ----- --- ---- ---- ------- ----- ---- -------<br>--- --- -- ----- -- you ---- -- --- ---- -- ------ ------<br>--- ----- -- ----,162098.8350000116,162097.84000000218,161800.057,161808.06499999017,161831.288,162122.292,,44,you
screen,html.Screen,1_1_0_1_45,2021-04-19T10:10:22.721Z,,,,,,,,,,,,,,,,53,,,,,,,,,,,,,,285.1280000031984,,response,,,,99,,,,,,,Space,keypress(Space),,,,,,,,---- -- ----- -- ------ - ------- --- ----------<br>------------- ------ ------ ---- ---- ------- ----- -- ----<br>-------- ------- -- ---------- --- - --- ----- ----- ----<br>---- --- --- ----- --- ---- ---- ------- ----- ---- -------<br>--- --- -- ----- -- --- want -- --- ---- -- ------ ------<br>--- ----- -- ----,162408.66499999538,162407.42000000319,162097.885,162099.08499999437,162122.292,162432.259,,45,want
screen,html.Screen,1_1_0_1_46,2021-04-19T10:10:22.994Z,,,,,,,,,,,,,,,,53,,,,,,,,,,,,,,248.70100002698018,,response,,,,99,,,,,,,Space,keypress(Space),,,,,,,,---- -- ----- -- ------ - ------- --- ----------<br>------------- ------ ------ ---- ---- ------- ----- -- ----<br>-------- ------- -- ---------- --- - --- ----- ----- ----<br>---- --- --- ----- --- ---- ---- ------- ----- ---- -------<br>--- --- -- ----- -- --- ---- to --- ---- -- ------ ------<br>--- ----- -- ----,162681.96000001626,162680.96000002697,162405.589,162409.1250000056,162432.259,162708.825,,46,to
screen,html.Screen,1_1_0_1_47,2021-04-19T10:10:23.261Z,,,,,,,,,,,,,,,,53,,,,,,,,,,,,,,240.1249999908614,,response,,,,99,,,,,,,Space,keypress(Space),,,,,,,,"---- -- ----- -- ------ - ------- --- ----------<br>------------- ------ ------ ---- ---- ------- ----- -- ----<br>-------- ------- -- ---------- --- - --- ----- ----- ----<br>---- --- --- ----- --- ---- ---- ------- ----- ---- -------<br>--- --- -- ----- -- --- ---- -- be, ---- -- ------ ------<br>--- ----- -- ----",162949.46500001242,162948.94999999087,162682.168,162682.22000001697,162708.825,162972.361,,47,"be,"
screen,html.Screen,1_1_0_1_48,2021-04-19T10:10:23.574Z,,,,,,,,,,,,,,,,53,,,,,,,,,,,,,,288.8889999813691,,response,,,,99,,,,,,,Space,keypress(Space),,,,,,,,---- -- ----- -- ------ - ------- --- ----------<br>------------- ------ ------ ---- ---- ------- ----- -- ----<br>-------- ------- -- ---------- --- - --- ----- ----- ----<br>---- --- --- ----- --- ---- ---- ------- ----- ---- -------<br>--- --- -- ----- -- --- ---- -- --- even -- ------ ------<br>--- ----- -- ----,163262.2899999842,163261.24999998137,162938.729,162949.5899999747,162972.361,163285.802,,48,even
screen,html.Screen,1_1_0_1_49,2021-04-19T10:10:23.987Z,,,,,,,,,,,,,,,,53,,,,,,,,,,,,,,388.0930000144581,,response,,,,99,,,,,,,Space,keypress(Space),,,,,,,,---- -- ----- -- ------ - ------- --- ----------<br>------------- ------ ------ ---- ---- ------- ----- -- ----<br>-------- ------- -- ---------- --- - --- ----- ----- ----<br>---- --- --- ----- --- ---- ---- ------- ----- ---- -------<br>--- --- -- ----- -- --- ---- -- --- ---- if ------ ------<br>--- ----- -- ----,163674.8249999946,163673.89500001445,163255.657,163262.56499998271,163285.802,163698.321,,49,if
screen,html.Screen,1_1_0_1_50,2021-04-19T10:10:24.337Z,,,,,,,,,,,,,,,,53,,,,,,,,,,,,,,325.618999984581,,response,,,,99,,,,,,,Space,keypress(Space),,,,,,,,---- -- ----- -- ------ - ------- --- ----------<br>------------- ------ ------ ---- ---- ------- ----- -- ----<br>-------- ------- -- ---------- --- - --- ----- ----- ----<br>---- --- --- ----- --- ---- ---- ------- ----- ---- -------<br>--- --- -- ----- -- --- ---- -- --- ---- -- that's ------<br>--- ----- -- ----,164025.42000001995,164023.93999998458,163669.033,163675.07499997737,163698.321,164049.249,,50,that's
screen,html.Screen,1_1_0_1_51,2021-04-19T10:10:24.703Z,,,,,,,,,,,,,,,,53,,,,,,,,,,,,,,340.87599997624056,,response,,,,99,,,,,,,Space,keypress(Space),,,,,,,,---- -- ----- -- ------ - ------- --- ----------<br>------------- ------ ------ ---- ---- ------- ----- -- ----<br>-------- ------- -- ---------- --- - --- ----- ----- ----<br>---- --- --- ----- --- ---- ---- ------- ----- ---- -------<br>--- --- -- ----- -- --- ---- -- --- ---- -- ------ really<br>--- ----- -- ----,164391.14000002155,164390.12499997625,164014.944,164025.9349999833,164049.249,164414.646,,51,really
screen,html.Screen,1_1_0_1_52,2021-04-19T10:10:25.403Z,,,,,,,,,,,,,,,,53,,,,,,,,,,,,,,675.3639999853331,,response,,,,99,,,,,,,Space,keypress(Space),,,,,,,,---- -- ----- -- ------ - ------- --- ----------<br>------------- ------ ------ ---- ---- ------- ----- -- ----<br>-------- ------- -- ---------- --- - --- ----- ----- ----<br>---- --- --- ----- --- ---- ---- ------- ----- ---- -------<br>--- --- -- ----- -- --- ---- -- --- ---- -- ------ ------<br>not ----- -- ----,165091.10999997938,165090.00999998534,164382.546,164391.46499999333,164414.646,165117.286,,52,not
screen,html.Screen,1_1_0_1_53,2021-04-19T10:10:25.739Z,,,,,,,,,,,,,,,,53,,,,,,,,,,,,,,308.9340000230295,,response,,,,99,,,,,,,Space,keypress(Space),,,,,,,,---- -- ----- -- ------ - ------- --- ----------<br>------------- ------ ------ ---- ---- ------- ----- -- ----<br>-------- ------- -- ---------- --- - --- ----- ----- ----<br>---- --- --- ----- --- ---- ---- ------- ----- ---- -------<br>--- --- -- ----- -- --- ---- -- --- ---- -- ------ ------<br>--- close -- ----,165426.66499997722,165426.22000002302,165081.219,165091.37500001816,165117.286,165449.425,,53,close
screen,html.Screen,1_1_0_1_54,2021-04-19T10:10:26.175Z,,,,,,,,,,,,,,,,53,,,,,,,,,,,,,,412.83500002353685,,response,,,,99,,,,,,,Space,keypress(Space),,,,,,,,---- -- ----- -- ------ - ------- --- ----------<br>------------- ------ ------ ---- ---- ------- ----- -- ----<br>-------- ------- -- ---------- --- - --- ----- ----- ----<br>---- --- --- ----- --- ---- ---- ------- ----- ---- -------<br>--- --- -- ----- -- --- ---- -- --- ---- -- ------ ------<br>--- ----- at ----,165863.30500000622,165862.26000002353,165414.549,165426.77000002004,165449.425,165886.955,,54,at
screen,html.Screen,1_1_0_1_55,2021-04-19T10:10:26.638Z,,,,,,,,,,,,,,,,53,,,,,,,,,,,,,,438.03999997358187,,response,,,,99,,,,,,,Space,keypress(Space),,,,,,,,---- -- ----- -- ------ - ------- --- ----------<br>------------- ------ ------ ---- ---- ------- ----- -- ----<br>-------- ------- -- ---------- --- - --- ----- ----- ----<br>---- --- --- ----- --- ---- ---- ------- ----- ---- -------<br>--- --- -- ----- -- --- ---- -- --- ---- -- ------ ------<br>--- ----- -- all.,166326.02999999654,166324.99499997357,165849.334,165863.59000002267,165886.955,166345.801,,55,all.
Item 99,flow.Loop,1_1_0_1,2021-04-19T10:10:26.639Z,,,,,,,,,,,,,,,,,,,,,,,,,,,,,,23347.44599997357,,completion,,,,,D,,,,,,,,,,,silence,,,,,166326.6200000071,166324.99499997357,142927.777,142929.27500000224,142977.549,166345.801,,,
Question 1,html.Screen,1_1_0_2,2021-04-19T10:10:31.692Z,,,,,,,,,,,,,,,,,,,,,,,,,,,false,FALSE,,5033.348999993381,,response,,,,99,D,,,,,,TRUE,click #choice-1,,,,silence,,,,,171380.2250000299,171379.1499999934,166320.174,166326.9100000034,166345.801,171406.016,,,
Question 2,html.Screen,1_1_0_3,2021-04-19T10:10:35.984Z,,,,,,,,,,,,,,,,,,,,,,,,,,,true,TRUE,,4265.279000007373,,response,,,,99,D,,,,,,TRUE,click #choice-1,,,,silence,,,,,175672.350000008,175671.29500000738,171389.101,171380.40000002366,171406.016,175676.157,,,
Item 99,flow.Sequence,1_1_0,2021-04-19T10:10:35.985Z,,,,,,,,,,,,,,,,,,,,,,,,,,,,,,42732.83300000738,,completion,,,,,,,,,,,,,,,,,,,,,175672.59000003105,175671.29500000738,132922.087,132941.95000000764,132938.462,175676.157,,,
Holding screen,html.Screen,1_1_1_0,2021-04-19T10:10:45.972Z,,,,,,,,,,,,,,,,,,,,,,,,,,,,,,9999.407000000007,,timeout,,,,,,,,,,,,,,,,,,,,,185660.25499999523,185659.124,175659.555,175672.77499998454,175676.157,185675.564,,,
screen,html.Screen,1_1_1_1_0,2021-04-19T10:10:49.768Z,,,,,,,,,,,,,,,,54,,,,,,,,,,,,,,3779.131000022171,,response,,,,100,,,,,,,Space,keypress(Space),,,,,,,,At --- ---- --- ------ ----- ------- ---- -- --- ------- --<br>------- ---------- ------ -- ----- -- ----- -- ---- ------<br>--- ----- --- --- ------ -------- ----- --- ------ ----- --<br>----- ----- ---------- --- --- ------ ------ ---- -- ------<br>------- --- ------ ----- --- ---- ------- -- ---- --- --<br>------- ------,189455.54499997525,189454.69500002218,185659.124,185660.58500000509,185675.564,189477.428,,0,At
screen,html.Screen,1_1_1_1_1,2021-04-19T10:10:50.643Z,,,,,,,,,,,,,,,,54,,,,,,,,,,,,,,852.9320000217413,,response,,,,100,,,,,,,Space,keypress(Space),,,,,,,,-- the ---- --- ------ ----- ------- ---- -- --- ------- --<br>------- ---------- ------ -- ----- -- ----- -- ---- ------<br>--- ----- --- --- ------ -------- ----- --- ------ ----- --<br>----- ----- ---------- --- --- ------ ------ ---- -- ------<br>------- --- ------ ----- --- ---- ------- -- ---- --- --<br>------- ------,190331.35500003118,190330.36000002176,189441.655,189455.82500001183,189477.428,190354.77,,1,the
screen,html.Screen,1_1_1_1_2,2021-04-19T10:10:51.127Z,,,,,,,,,,,,,,,,54,,,,,,,,,,,,,,458.92999999879976,,response,,,,100,,,,,,,Space,keypress(Space),,,,,,,,-- --- time --- ------ ----- ------- ---- -- --- ------- --<br>------- ---------- ------ -- ----- -- ----- -- ---- ------<br>--- ----- --- --- ------ -------- ----- --- ------ ----- --<br>----- ----- ---------- --- --- ------ ------ ---- -- ------<br>------- --- ------ ----- --- ---- ------- -- ---- --- --<br>------- ------,190814.635000017,190813.6999999988,190327.587,190331.62499999162,190354.77,190838.125,,2,time
screen,html.Screen,1_1_1_1_3,2021-04-19T10:10:51.717Z,,,,,,,,,,,,,,,,54,,,,,,,,,,,,,,565.5350000108592,,response,,,,100,,,,,,,Space,keypress(Space),,,,,,,,-- --- ---- the ------ ----- ------- ---- -- --- ------- --<br>------- ---------- ------ -- ----- -- ----- -- ---- ------<br>--- ----- --- --- ------ -------- ----- --- ------ ----- --<br>----- ----- ---------- --- --- ------ ------ ---- -- ------<br>------- --- ------ ----- --- ---- ------- -- ---- --- --<br>------- ------,191404.7300000093,191403.66000001086,190804.687,190814.89999999758,190838.125,191428.292,,3,the
screen,html.Screen,1_1_1_1_4,2021-04-19T10:10:52.284Z,,,,,,,,,,,,,,,,54,,,,,,,,,,,,,,542.5879999789468,,response,,,,100,,,,,,,Space,keypress(Space),,,,,,,,-- --- ---- --- French ----- ------- ---- -- --- ------- --<br>------- ---------- ------ -- ----- -- ----- -- ---- ------<br>--- ----- --- --- ------ -------- ----- --- ------ ----- --<br>----- ----- ---------- --- --- ------ ------ ---- -- ------<br>------- --- ------ ----- --- ---- ------- -- ---- --- --<br>------- ------,191971.85000003083,191970.87999997893,191404.416,191405.03000002354,191428.292,191998.609,,4,French
screen,html.Screen,1_1_1_1_5,2021-04-19T10:10:52.768Z,,,,,,,,,,,,,,,,54,,,,,,,,,,,,,,456.6510000170092,,response,,,,100,,,,,,,Space,keypress(Space),,,,,,,,-- --- ---- --- ------ crown ------- ---- -- --- ------- --<br>------- ---------- ------ -- ----- -- ----- -- ---- ------<br>--- ----- --- --- ------ -------- ----- --- ------ ----- --<br>----- ----- ---------- --- --- ------ ------ ---- -- ------<br>------- --- ------ ----- --- ---- ------- -- ---- --- --<br>------- ------,192455.88500000304,192455.260000017,191961.584,191972.11999999126,191998.609,192478.677,,5,crown
screen,html.Screen,1_1_1_1_6,2021-04-19T10:10:53.314Z,,,,,,,,,,,,,,,,54,,,,,,,,,,,,,,522.6330000214803,,response,,,,100,,,,,,,Space,keypress(Space),,,,,,,,-- --- ---- --- ------ ----- secured ---- -- --- ------- --<br>------- ---------- ------ -- ----- -- ----- -- ---- ------<br>--- ----- --- --- ------ -------- ----- --- ------ ----- --<br>----- ----- ---------- --- --- ------ ------ ---- -- ------<br>------- --- ------ ----- --- ---- ------- -- ---- --- --<br>------- ------,193001.9650000031,193001.31000002148,192445.036,192456.0749999946,192478.677,193024.627,,6,secured
screen,html.Screen,1_1_1_1_7,2021-04-19T10:10:53.782Z,,,,,,,,,,,,,,,,54,,,,,,,,,,,,,,444.3330000274291,,response,,,,100,,,,,,,Space,keypress(Space),,,,,,,,-- --- ---- --- ------ ----- ------- much -- --- ------- --<br>------- ---------- ------ -- ----- -- ----- -- ---- ------<br>--- ----- --- --- ------ -------- ----- --- ------ ----- --<br>----- ----- ---------- --- --- ------ ------ ---- -- ------<br>------- --- ------ ----- --- ---- ------- -- ---- --- --<br>------- ------,193469.77000002516,193468.96000002744,192995.245,193002.09999998333,193024.627,193492.943,,7,much
screen,html.Screen,1_1_1_1_8,2021-04-19T10:10:54.227Z,,,,,,,,,,,,,,,,54,,,,,,,,,,,,,,421.0920000234328,,response,,,,100,,,,,,,Space,keypress(Space),,,,,,,,-- --- ---- --- ------ ----- ------- ---- of --- ------- --<br>------- ---------- ------ -- ----- -- ----- -- ---- ------<br>--- ----- --- --- ------ -------- ----- --- ------ ----- --<br>----- ----- ---------- --- --- ------ ------ ---- -- ------<br>------- --- ------ ----- --- ---- ------- -- ---- --- --<br>------- ------,193915.159999975,193914.03500002343,193457.836,193470.02000000793,193492.943,193938.557,,8,of
screen,html.Screen,1_1_1_1_9,2021-04-19T10:10:54.611Z,,,,,,,,,,,,,,,,54,,,,,,,,,,,,,,359.41300001417403,,response,,,,100,,,,,,,Space,keypress(Space),,,,,,,,-- --- ---- --- ------ ----- ------- ---- -- its ------- --<br>------- ---------- ------ -- ----- -- ----- -- ---- ------<br>--- ----- --- --- ------ -------- ----- --- ------ ----- --<br>----- ----- ---------- --- --- ------ ------ ---- -- ------<br>------- --- ------ ----- --- ---- ------- -- ---- --- --<br>------- ------,194298.9950000192,194297.97000001417,193909.667,193915.48000002513,193938.557,194322.499,,9,its
screen,html.Screen,1_1_1_1_10,2021-04-19T10:10:55.043Z,,,,,,,,,,,,,,,,54,,,,,,,,,,,,,,407.4009999766131,,response,,,,100,,,,,,,Space,keypress(Space),,,,,,,,-- --- ---- --- ------ ----- ------- ---- -- --- revenue --<br>------- ---------- ------ -- ----- -- ----- -- ---- ------<br>--- ----- --- --- ------ -------- ----- --- ------ ----- --<br>----- ----- ---------- --- --- ------ ------ ---- -- ------<br>------- --- ------ ----- --- ---- ------- -- ---- --- --<br>------- ------,194730.93000001973,194729.89999997662,194288.734,194299.24500000197,194322.499,194754.367,,10,revenue
screen,html.Screen,1_1_1_1_11,2021-04-19T10:10:55.504Z,,,,,,,,,,,,,,,,54,,,,,,,,,,,,,,436.7079999806301,,response,,,,100,,,,,,,Space,keypress(Space),,,,,,,,-- --- ---- --- ------ ----- ------- ---- -- --- ------- by<br>------- ---------- ------ -- ----- -- ----- -- ---- ------<br>--- ----- --- --- ------ -------- ----- --- ------ ----- --<br>----- ----- ---------- --- --- ------ ------ ---- -- ------<br>------- --- ------ ----- --- ---- ------- -- ---- --- --<br>------- ------,195192.09999998566,195191.07499998063,194722.159,194731.17500002263,194754.367,195215.615,,11,by
screen,html.Screen,1_1_1_1_12,2021-04-19T10:10:56.008Z,,,,,,,,,,,,,,,,54,,,,,,,,,,,,,,478.8600000257138,,response,,,,100,,,,,,,Space,keypress(Space),,,,,,,,-- --- ---- --- ------ ----- ------- ---- -- --- ------- --<br>issuing ---------- ------ -- ----- -- ----- -- ---- ------<br>--- ----- --- --- ------ -------- ----- --- ------ ----- --<br>----- ----- ---------- --- --- ------ ------ ---- -- ------<br>------- --- ------ ----- --- ---- ------- -- ---- --- --<br>------- ------,195695.52499998827,195694.4750000257,195187.69,195192.35999998637,195215.615,195719.087,,12,issuing
screen,html.Screen,1_1_1_1_13,2021-04-19T10:10:56.579Z,,,,,,,,,,,,,,,,54,,,,,,,,,,,,,,546.5080000043963,,response,,,,100,,,,,,,Space,keypress(Space),,,,,,,,-- --- ---- --- ------ ----- ------- ---- -- --- ------- --<br>------- government ------ -- ----- -- ----- -- ---- ------<br>--- ----- --- --- ------ -------- ----- --- ------ ----- --<br>----- ----- ---------- --- --- ------ ------ ---- -- ------<br>------- --- ------ ----- --- ---- ------- -- ---- --- --<br>------- ------,196266.53999998234,196265.5950000044,195682.191,195695.7950000069,195719.087,196291.501,,13,government
screen,html.Screen,1_1_1_1_14,2021-04-19T10:10:57.085Z,,,,,,,,,,,,,,,,54,,,,,,,,,,,,,,479.9389999822597,,response,,,,100,,,,,,,Space,keypress(Space),,,,,,,,-- --- ---- --- ------ ----- ------- ---- -- --- ------- --<br>------- ---------- bonds. -- ----- -- ----- -- ---- ------<br>--- ----- --- --- ------ -------- ----- --- ------ ----- --<br>----- ----- ---------- --- --- ------ ------ ---- -- ------<br>------- --- ------ ----- --- ---- ------- -- ---- --- --<br>------- ------,196772.415000014,196771.43999998225,196252.348,196266.79999998305,196291.501,196795.868,,14,bonds.
screen,html.Screen,1_1_1_1_15,2021-04-19T10:10:57.509Z,,,,,,,,,,,,,,,,54,,,,,,,,,,,,,,400.12700001642224,,response,,,,100,,,,,,,Space,keypress(Space),,,,,,,,-- --- ---- --- ------ ----- ------- ---- -- --- ------- --<br>------- ---------- ------ In ----- -- ----- -- ---- ------<br>--- ----- --- --- ------ -------- ----- --- ------ ----- --<br>----- ----- ---------- --- --- ------ ------ ---- -- ------<br>------- --- ------ ----- --- ---- ------- -- ---- --- --<br>------- ------,197197.02000002144,197195.9950000164,196773.316,196772.67500001471,196795.868,197220.357,,15,In
screen,html.Screen,1_1_1_1_16,2021-04-19T10:10:57.924Z,,,,,,,,,,,,,,,,54,,,,,,,,,,,,,,390.1229999739153,,response,,,,100,,,,,,,Space,keypress(Space),,,,,,,,"-- --- ---- --- ------ ----- ------- ---- -- --- ------- --<br>------- ---------- ------ -- 1727, -- ----- -- ---- ------<br>--- ----- --- --- ------ -------- ----- --- ------ ----- --<br>----- ----- ---------- --- --- ------ ------ ---- -- ------<br>------- --- ------ ----- --- ---- ------- -- ---- --- --<br>------- ------",197611.5700000082,197610.4799999739,197195.841,197197.34999997308,197220.357,197638.52,,16,"1727,"
screen,html.Screen,1_1_1_1_17,2021-04-19T10:10:58.603Z,,,,,,,,,,,,,,,,54,,,,,,,,,,,,,,651.4349999856495,,response,,,,100,,,,,,,Space,keypress(Space),,,,,,,,-- --- ---- --- ------ ----- ------- ---- -- --- ------- --<br>------- ---------- ------ -- ----- in ----- -- ---- ------<br>--- ----- --- --- ------ -------- ----- --- ------ ----- --<br>----- ----- ---------- --- --- ------ ------ ---- -- ------<br>------- --- ------ ----- --- ---- ------- -- ---- --- --<br>------- ------,198291.3299999782,198289.95499998564,197603.865,197611.83000000892,197638.52,198315.183,,17,in
screen,html.Screen,1_1_1_1_18,2021-04-19T10:10:59.161Z,,,,,,,,,,,,,,,,54,,,,,,,,,,,,,,532.9420000186365,,response,,,,100,,,,,,,Space,keypress(Space),,,,,,,,-- --- ---- --- ------ ----- ------- ---- -- --- ------- --<br>------- ---------- ------ -- ----- -- order -- ---- ------<br>--- ----- --- --- ------ -------- ----- --- ------ ----- --<br>----- ----- ---------- --- --- ------ ------ ---- -- ------<br>------- --- ------ ----- --- ---- ------- -- ---- --- --<br>------- ------,198849.2049999768,198848.12500001863,198285.029,198291.78000002867,198315.183,198872.606,,18,order
screen,html.Screen,1_1_1_1_19,2021-04-19T10:10:59.619Z,,,,,,,,,,,,,,,,54,,,,,,,,,,,,,,433.68399997861707,,response,,,,100,,,,,,,Space,keypress(Space),,,,,,,,-- --- ---- --- ------ ----- ------- ---- -- --- ------- --<br>------- ---------- ------ -- ----- -- ----- to ---- ------<br>--- ----- --- --- ------ -------- ----- --- ------ ----- --<br>----- ----- ---------- --- --- ------ ------ ---- -- ------<br>------- --- ------ ----- --- ---- ------- -- ---- --- --<br>------- ------,199307.22499999683,199306.28999997862,198848.441,198849.47000001557,198872.606,199330.729,,19,to
screen,html.Screen,1_1_1_1_20,2021-04-19T10:10:59.972Z,,,,,,,,,,,,,,,,54,,,,,,,,,,,,,,327.3060000294936,,response,,,,100,,,,,,,Space,keypress(Space),,,,,,,,-- --- ---- --- ------ ----- ------- ---- -- --- ------- --<br>------- ---------- ------ -- ----- -- ----- -- save ------<br>--- ----- --- --- ------ -------- ----- --- ------ ----- --<br>----- ----- ---------- --- --- ------ ------ ---- -- ------<br>------- --- ------ ----- --- ---- ------- -- ---- --- --<br>------- ------,199659.50000000885,199658.0350000295,199306,199307.4749999796,199330.729,199682.896,,20,save
screen,html.Screen,1_1_1_1_21,2021-04-19T10:11:00.433Z,,,,,,,,,,,,,,,,54,,,,,,,,,,,,,,437.1990000202204,,response,,,,100,,,,,,,Space,keypress(Space),,,,,,,,"-- --- ---- --- ------ ----- ------- ---- -- --- ------- --<br>------- ---------- ------ -- ----- -- ----- -- ---- money,<br>--- ----- --- --- ------ -------- ----- --- ------ ----- --<br>----- ----- ---------- --- --- ------ ------ ---- -- ------<br>------- --- ------ ----- --- ---- ------- -- ---- --- --<br>------- ------",200121.21000001207,200120.09500002023,199647.335,199659.83499999857,199682.896,200144.832,,21,"money,"
screen,html.Screen,1_1_1_1_22,2021-04-19T10:11:01.014Z,,,,,,,,,,,,,,,,54,,,,,,,,,,,,,,555.6079999859794,,response,,,,100,,,,,,,Space,keypress(Space),,,,,,,,-- --- ---- --- ------ ----- ------- ---- -- --- ------- --<br>------- ---------- ------ -- ----- -- ----- -- ---- ------<br>the ----- --- --- ------ -------- ----- --- ------ ----- --<br>----- ----- ---------- --- --- ------ ------ ---- -- ------<br>------- --- ------ ----- --- ---- ------- -- ---- --- --<br>------- ------,200701.5900000115,200700.43999998597,200116.169,200121.56499997946,200144.832,200725.057,,22,the
screen,html.Screen,1_1_1_1_23,2021-04-19T10:11:01.418Z,,,,,,,,,,,,,,,,54,,,,,,,,,,,,,,379.65800002313335,,response,,,,100,,,,,,,Space,keypress(Space),,,,,,,,-- --- ---- --- ------ ----- ------- ---- -- --- ------- --<br>------- ---------- ------ -- ----- -- ----- -- ---- ------<br>--- state --- --- ------ -------- ----- --- ------ ----- --<br>----- ----- ---------- --- --- ------ ------ ---- -- ------<br>------- --- ------ ----- --- ---- ------- -- ---- --- --<br>------- ------,201105.69499997655,201104.71500002313,200694.561,200701.99500001036,200725.057,201129.045,,23,state
screen,html.Screen,1_1_1_1_24,2021-04-19T10:11:01.883Z,,,,,,,,,,,,,,,,54,,,,,,,,,,,,,,440.635000015056,,response,,,,100,,,,,,,Space,keypress(Space),,,,,,,,-- --- ---- --- ------ ----- ------- ---- -- --- ------- --<br>------- ---------- ------ -- ----- -- ----- -- ---- ------<br>--- ----- cut --- ------ -------- ----- --- ------ ----- --<br>----- ----- ---------- --- --- ------ ------ ---- -- ------<br>------- --- ------ ----- --- ---- ------- -- ---- --- --<br>------- ------,201570.4300000216,201569.68000001507,201091.615,201105.96999997506,201129.045,201593.564,,24,cut
screen,html.Screen,1_1_1_1_25,2021-04-19T10:11:02.307Z,,,,,,,,,,,,,,,,54,,,,,,,,,,,,,,399.965999977896,,response,,,,100,,,,,,,Space,keypress(Space),,,,,,,,-- --- ---- --- ------ ----- ------- ---- -- --- ------- --<br>------- ---------- ------ -- ----- -- ----- -- ---- ------<br>--- ----- --- the ------ -------- ----- --- ------ ----- --<br>----- ----- ---------- --- --- ------ ------ ---- -- ------<br>------- --- ------ ----- --- ---- ------- -- ---- --- --<br>------- ------,201994.4549999782,201993.5299999779,201562.339,201570.60500001535,201593.564,202017.94,,25,the
screen,html.Screen,1_1_1_1_26,2021-04-19T10:11:02.714Z,,,,,,,,,,,,,,,,54,,,,,,,,,,,,,,383.1549999792478,,response,,,,100,,,,,,,Space,keypress(Space),,,,,,,,-- --- ---- --- ------ ----- ------- ---- -- --- ------- --<br>------- ---------- ------ -- ----- -- ----- -- ---- ------<br>--- ----- --- --- bonds' -------- ----- --- ------ ----- --<br>----- ----- ---------- --- --- ------ ------ ---- -- ------<br>------- --- ------ ----- --- ---- ------- -- ---- --- --<br>------- ------,202402.11000002455,202401.09499997925,201993.503,201994.72000001697,202017.94,202425.633,,26,bonds'
screen,html.Screen,1_1_1_1_27,2021-04-19T10:11:03.109Z,,,,,,,,,,,,,,,,54,,,,,,,,,,,,,,370.3069999817817,,response,,,,100,,,,,,,Space,keypress(Space),,,,,,,,-- --- ---- --- ------ ----- ------- ---- -- --- ------- --<br>------- ---------- ------ -- ----- -- ----- -- ---- ------<br>--- ----- --- --- ------ interest ----- --- ------ ----- --<br>----- ----- ---------- --- --- ------ ------ ---- -- ------<br>------- --- ------ ----- --- ---- ------- -- ---- --- --<br>------- ------,202796.9850000227,202795.93999998178,202401.217,202402.36000000732,202425.633,202823.884,,27,interest
screen,html.Screen,1_1_1_1_28,2021-04-19T10:11:03.510Z,,,,,,,,,,,,,,,,54,,,,,,,,,,,,,,373.0210000188963,,response,,,,100,,,,,,,Space,keypress(Space),,,,,,,,-- --- ---- --- ------ ----- ------- ---- -- --- ------- --<br>------- ---------- ------ -- ----- -- ----- -- ---- ------<br>--- ----- --- --- ------ -------- rate. --- ------ ----- --<br>----- ----- ---------- --- --- ------ ------ ---- -- ------<br>------- --- ------ ----- --- ---- ------- -- ---- --- --<br>------- ------,203197.98499997705,203196.9050000189,202792.242,202797.25000000326,202823.884,203216.642,,28,rate.
screen,html.Screen,1_1_1_1_29,2021-04-19T10:11:03.911Z,,,,,,,,,,,,,,,,54,,,,,,,,,,,,,,381.3579999981448,,response,,,,100,,,,,,,Space,keypress(Space),,,,,,,,-- --- ---- --- ------ ----- ------- ---- -- --- ------- --<br>------- ---------- ------ -- ----- -- ----- -- ---- ------<br>--- ----- --- --- ------ -------- ----- The ------ ----- --<br>----- ----- ---------- --- --- ------ ------ ---- -- ------<br>------- --- ------ ----- --- ---- ------- -- ---- --- --<br>------- ------,203598.95499999402,203597.99999999814,203187.08,203198.2399999979,203216.642,203618.904,,29,The
screen,html.Screen,1_1_1_1_30,2021-04-19T10:11:04.271Z,,,,,,,,,,,,,,,,54,,,,,,,,,,,,,,338.77599999224185,,response,,,,100,,,,,,,Space,keypress(Space),,,,,,,,-- --- ---- --- ------ ----- ------- ---- -- --- ------- --<br>------- ---------- ------ -- ----- -- ----- -- ---- ------<br>--- ----- --- --- ------ -------- ----- --- market ----- --<br>----- ----- ---------- --- --- ------ ------ ---- -- ------<br>------- --- ------ ----- --- ---- ------- -- ---- --- --<br>------- ------,203958.70999997715,203957.67999999225,203588.103,203599.2049999768,203618.904,203981.979,,30,market
screen,html.Screen,1_1_1_1_31,2021-04-19T10:11:04.700Z,,,,,,,,,,,,,,,,54,,,,,,,,,,,,,,405.431000024837,,response,,,,100,,,,,,,Space,keypress(Space),,,,,,,,-- --- ---- --- ------ ----- ------- ---- -- --- ------- --<br>------- ---------- ------ -- ----- -- ----- -- ---- ------<br>--- ----- --- --- ------ -------- ----- --- ------ value --<br>----- ----- ---------- --- --- ------ ------ ---- -- ------<br>------- --- ------ ----- --- ---- ------- -- ---- --- --<br>------- ------,204388.3350000251,204387.41000002483,203955.677,203958.96999997785,203981.979,204415.115,,31,value
screen,html.Screen,1_1_1_1_32,2021-04-19T10:11:05.101Z,,,,,,,,,,,,,,,,54,,,,,,,,,,,,,,373.1349999832455,,response,,,,100,,,,,,,Space,keypress(Space),,,,,,,,-- --- ---- --- ------ ----- ------- ---- -- --- ------- --<br>------- ---------- ------ -- ----- -- ----- -- ---- ------<br>--- ----- --- --- ------ -------- ----- --- ------ ----- of<br>----- ----- ---------- --- --- ------ ------ ---- -- ------<br>------- --- ------ ----- --- ---- ------- -- ---- --- --<br>------- ------,204789.2400000128,204788.24999998324,204382.079,204388.58500000788,204415.115,204812.701,,32,of
screen,html.Screen,1_1_1_1_33,2021-04-19T10:11:05.532Z,,,,,,,,,,,,,,,,54,,,,,,,,,,,,,,405.8339999926975,,response,,,,100,,,,,,,Space,keypress(Space),,,,,,,,-- --- ---- --- ------ ----- ------- ---- -- --- ------- --<br>------- ---------- ------ -- ----- -- ----- -- ---- ------<br>--- ----- --- --- ------ -------- ----- --- ------ ----- --<br>these ----- ---------- --- --- ------ ------ ---- -- ------<br>------- --- ------ ----- --- ---- ------- -- ---- --- --<br>------- ------,205219.48500000872,205218.5349999927,204778.444,204789.5000000135,204812.701,205242.755,,33,these
screen,html.Screen,1_1_1_1_34,2021-04-19T10:11:05.905Z,,,,,,,,,,,,,,,,54,,,,,,,,,,,,,,349.1749999950407,,response,,,,100,,,,,,,Space,keypress(Space),,,,,,,,-- --- ---- --- ------ ----- ------- ---- -- --- ------- --<br>------- ---------- ------ -- ----- -- ----- -- ---- ------<br>--- ----- --- --- ------ -------- ----- --- ------ ----- --<br>----- bonds ---------- --- --- ------ ------ ---- -- ------<br>------- --- ------ ----- --- ---- ------- -- ---- --- --<br>------- ------,205592.83500001766,205591.92999999505,205212.672,205219.76000000723,205242.755,205616.336,,34,bonds
screen,html.Screen,1_1_1_1_35,2021-04-19T10:11:06.278Z,,,,,,,,,,,,,,,,54,,,,,,,,,,,,,,348.78400000801776,,response,,,,100,,,,,,,Space,keypress(Space),,,,,,,,"-- --- ---- --- ------ ----- ------- ---- -- --- ------- --<br>------- ---------- ------ -- ----- -- ----- -- ---- ------<br>--- ----- --- --- ------ -------- ----- --- ------ ----- --<br>----- ----- plummeted, --- --- ------ ------ ---- -- ------<br>------- --- ------ ----- --- ---- ------- -- ---- --- --<br>------- ------",205966.23999997973,205965.12000000803,205592.918,205593.0899999803,205616.336,205993.102,,35,"plummeted,"
screen,html.Screen,1_1_1_1_36,2021-04-19T10:11:06.640Z,,,,,,,,,,,,,,,,54,,,,,,,,,,,,,,334.12300001544645,,response,,,,100,,,,,,,Space,keypress(Space),,,,,,,,-- --- ---- --- ------ ----- ------- ---- -- --- ------- --<br>------- ---------- ------ -- ----- -- ----- -- ---- ------<br>--- ----- --- --- ------ -------- ----- --- ------ ----- --<br>----- ----- ---------- and --- ------ ------ ---- -- ------<br>------- --- ------ ----- --- ---- ------- -- ---- --- --<br>------- ------,206328.0200000154,206327.22500001546,205966.239,205966.52000001632,205993.102,206350.706,,36,and
screen,html.Screen,1_1_1_1_37,2021-04-19T10:11:06.996Z,,,,,,,,,,,,,,,,54,,,,,,,,,,,,,,332.0490000161808,,response,,,,100,,,,,,,Space,keypress(Space),,,,,,,,-- --- ---- --- ------ ----- ------- ---- -- --- ------- --<br>------- ---------- ------ -- ----- -- ----- -- ---- ------<br>--- ----- --- --- ------ -------- ----- --- ------ ----- --<br>----- ----- ---------- --- the ------ ------ ---- -- ------<br>------- --- ------ ----- --- ---- ------- -- ---- --- --<br>------- ------,206683.8299999945,206682.7550000162,206323.098,206328.16500001354,206350.706,206702.982,,37,the
screen,html.Screen,1_1_1_1_38,2021-04-19T10:11:07.279Z,,,,,,,,,,,,,,,,54,,,,,,,,,,,,,,262.87799999662093,,response,,,,100,,,,,,,Space,keypress(Space),,,,,,,,-- --- ---- --- ------ ----- ------- ---- -- --- ------- --<br>------- ---------- ------ -- ----- -- ----- -- ---- ------<br>--- ----- --- --- ------ -------- ----- --- ------ ----- --<br>----- ----- ---------- --- --- market ------ ---- -- ------<br>------- --- ------ ----- --- ---- ------- -- ---- --- --<br>------- ------,206966.91000001738,206965.8599999966,206684.201,206684.13000000874,206702.982,206990.523,,38,market
screen,html.Screen,1_1_1_1_39,2021-04-19T10:11:07.629Z,,,,,,,,,,,,,,,,54,,,,,,,,,,,,,,325.7470000102767,,response,,,,100,,,,,,,Space,keypress(Space),,,,,,,,-- --- ---- --- ------ ----- ------- ---- -- --- ------- --<br>------- ---------- ------ -- ----- -- ----- -- ---- ------<br>--- ----- --- --- ------ -------- ----- --- ------ ----- --<br>----- ----- ---------- --- --- ------ became ---- -- ------<br>------- --- ------ ----- --- ---- ------- -- ---- --- --<br>------- ------,207317.33500002883,207316.27000001026,206957.216,206967.19499997562,206990.523,207340.775,,39,became
screen,html.Screen,1_1_1_1_40,2021-04-19T10:11:07.976Z,,,,,,,,,,,,,,,,54,,,,,,,,,,,,,,321.90500000855536,,response,,,,100,,,,,,,Space,keypress(Space),,,,,,,,-- --- ---- --- ------ ----- ------- ---- -- --- ------- --<br>------- ---------- ------ -- ----- -- ----- -- ---- ------<br>--- ----- --- --- ------ -------- ----- --- ------ ----- --<br>----- ----- ---------- --- --- ------ ------ wary -- ------<br>------- --- ------ ----- --- ---- ------- -- ---- --- --<br>------- ------,207663.59000001103,207662.68000000855,207307.151,207317.64000002295,207340.775,207687.038,,40,wary
screen,html.Screen,1_1_1_1_41,2021-04-19T10:11:08.472Z,,,,,,,,,,,,,,,,54,,,,,,,,,,,,,,471.0570000206935,,response,,,,100,,,,,,,Space,keypress(Space),,,,,,,,-- --- ---- --- ------ ----- ------- ---- -- --- ------- --<br>------- ---------- ------ -- ----- -- ----- -- ---- ------<br>--- ----- --- --- ------ -------- ----- --- ------ ----- --<br>----- ----- ---------- --- --- ------ ------ ---- of ------<br>------- --- ------ ----- --- ---- ------- -- ---- --- --<br>------- ------,208159.4599999953,208158.0950000207,207657.358,207663.84499997366,207687.038,208182.995,,41,of
screen,html.Screen,1_1_1_1_42,2021-04-19T10:11:08.928Z,,,,,,,,,,,,,,,,54,,,,,,,,,,,,,,431.1499999995576,,response,,,,100,,,,,,,Space,keypress(Space),,,,,,,,-- --- ---- --- ------ ----- ------- ---- -- --- ------- --<br>------- ---------- ------ -- ----- -- ----- -- ---- ------<br>--- ----- --- --- ------ -------- ----- --- ------ ----- --<br>----- ----- ---------- --- --- ------ ------ ---- -- French<br>------- --- ------ ----- --- ---- ------- -- ---- --- --<br>------- ------,208615.40499998955,208614.14499999955,208153.616,208159.76000000956,208182.995,208642.122,,42,French
screen,html.Screen,1_1_1_1_43,2021-04-19T10:11:09.391Z,,,,,,,,,,,,,,,,54,,,,,,,,,,,,,,435.9880000021949,,response,,,,100,,,,,,,Space,keypress(Space),,,,,,,,-- --- ---- --- ------ ----- ------- ---- -- --- ------- --<br>------- ---------- ------ -- ----- -- ----- -- ---- ------<br>--- ----- --- --- ------ -------- ----- --- ------ ----- --<br>----- ----- ---------- --- --- ------ ------ ---- -- ------<br>credit. --- ------ ----- --- ---- ------- -- ---- --- --<br>------- ------,209079.1099999915,209078.1100000022,208616.297,208615.69499998586,208642.122,209102.591,,43,credit.
screen,html.Screen,1_1_1_1_44,2021-04-19T10:11:09.817Z,,,,,,,,,,,,,,,,54,,,,,,,,,,,,,,401.66399997801636,,response,,,,100,,,,,,,Space,keypress(Space),,,,,,,,-- --- ---- --- ------ ----- ------- ---- -- --- ------- --<br>------- ---------- ------ -- ----- -- ----- -- ---- ------<br>--- ----- --- --- ------ -------- ----- --- ------ ----- --<br>----- ----- ---------- --- --- ------ ------ ---- -- ------<br>------- The ------ ----- --- ---- ------- -- ---- --- --<br>------- ------,209505.33499999437,209504.254999978,209071.991,209079.35999997426,209102.591,209528.883,,44,The
screen,html.Screen,1_1_1_1_45,2021-04-19T10:11:10.264Z,,,,,,,,,,,,,,,,54,,,,,,,,,,,,,,421.87199999802397,,response,,,,100,,,,,,,Space,keypress(Space),,,,,,,,-- --- ---- --- ------ ----- ------- ---- -- --- ------- --<br>------- ---------- ------ -- ----- -- ----- -- ---- ------<br>--- ----- --- --- ------ -------- ----- --- ------ ----- --<br>----- ----- ---------- --- --- ------ ------ ---- -- ------<br>------- --- French ----- --- ---- ------- -- ---- --- --<br>------- ------,209951.7750000232,209950.75499999803,209502.512,209505.61500003096,209528.883,209975.056,,45,French
screen,html.Screen,1_1_1_1_46,2021-04-19T10:11:10.654Z,,,,,,,,,,,,,,,,54,,,,,,,,,,,,,,365.7840000189317,,response,,,,100,,,,,,,Space,keypress(Space),,,,,,,,-- --- ---- --- ------ ----- ------- ---- -- --- ------- --<br>------- ---------- ------ -- ----- -- ----- -- ---- ------<br>--- ----- --- --- ------ -------- ----- --- ------ ----- --<br>----- ----- ---------- --- --- ------ ------ ---- -- ------<br>------- --- ------ state --- ---- ------- -- ---- --- --<br>------- ------,210342.0449999976,210340.84000001894,209945.192,209952.05999998143,209975.056,210365.558,,46,state
screen,html.Screen,1_1_1_1_47,2021-04-19T10:11:11.470Z,,,,,,,,,,,,,,,,54,,,,,,,,,,,,,,791.1820000058215,,response,,,,100,,,,,,,Space,keypress(Space),,,,,,,,-- --- ---- --- ------ ----- ------- ---- -- --- ------- --<br>------- ---------- ------ -- ----- -- ----- -- ---- ------<br>--- ----- --- --- ------ -------- ----- --- ------ ----- --<br>----- ----- ---------- --- --- ------ ------ ---- -- ------<br>------- --- ------ ----- was ---- ------- -- ---- --- --<br>------- ------,211157.88499999326,211156.7400000058,210341.661,210342.3349999939,210365.558,211181.221,,47,was
screen,html.Screen,1_1_1_1_48,2021-04-19T10:11:11.979Z,,,,,,,,,,,,,,,,54,,,,,,,,,,,,,,484.19399999585585,,response,,,,100,,,,,,,Space,keypress(Space),,,,,,,,-- --- ---- --- ------ ----- ------- ---- -- --- ------- --<br>------- ---------- ------ -- ----- -- ----- -- ---- ------<br>--- ----- --- --- ------ -------- ----- --- ------ ----- --<br>----- ----- ---------- --- --- ------ ------ ---- -- ------<br>------- --- ------ ----- --- left ------- -- ---- --- --<br>------- ------,211666.3750000298,211665.41499999585,211148.787,211158.1550000119,211181.221,211689.925,,48,left
screen,html.Screen,1_1_1_1_49,2021-04-19T10:11:12.384Z,,,,,,,,,,,,,,,,54,,,,,,,,,,,,,,380.9199999801931,,response,,,,100,,,,,,,Space,keypress(Space),,,,,,,,-- --- ---- --- ------ ----- ------- ---- -- --- ------- --<br>------- ---------- ------ -- ----- -- ----- -- ---- ------<br>--- ----- --- --- ------ -------- ----- --- ------ ----- --<br>----- ----- ---------- --- --- ------ ------ ---- -- ------<br>------- --- ------ ----- --- ---- without -- ---- --- --<br>------- ------,212071.8399999896,212070.84499998018,211664.44,211666.64499999024,211689.925,212095.254,,49,without
screen,html.Screen,1_1_1_1_50,2021-04-19T10:11:12.846Z,,,,,,,,,,,,,,,,54,,,,,,,,,,,,,,437.43099998377147,,response,,,,100,,,,,,,Space,keypress(Space),,,,,,,,-- --- ---- --- ------ ----- ------- ---- -- --- ------- --<br>------- ---------- ------ -- ----- -- ----- -- ---- ------<br>--- ----- --- --- ------ -------- ----- --- ------ ----- --<br>----- ----- ---------- --- --- ------ ------ ---- -- ------<br>------- --- ------ ----- --- ---- ------- an ---- --- --<br>------- ------,212533.64999999758,212532.68499998376,212056.559,212072.11499998812,212095.254,212556.853,,50,an
screen,html.Screen,1_1_1_1_51,2021-04-19T10:11:13.254Z,,,,,,,,,,,,,,,,54,,,,,,,,,,,,,,383.0369999796385,,response,,,,100,,,,,,,Space,keypress(Space),,,,,,,,-- --- ---- --- ------ ----- ------- ---- -- --- ------- --<br>------- ---------- ------ -- ----- -- ----- -- ---- ------<br>--- ----- --- --- ------ -------- ----- --- ------ ----- --<br>----- ----- ---------- --- --- ------ ------ ---- -- ------<br>------- --- ------ ----- --- ---- ------- -- easy --- --<br>------- ------,212942.12999998126,212939.88999997964,212528.478,212533.9099999983,212556.853,212965.859,,51,easy
screen,html.Screen,1_1_1_1_52,2021-04-19T10:11:13.665Z,,,,,,,,,,,,,,,,54,,,,,,,,,,,,,,386.4160000120173,,response,,,,100,,,,,,,Space,keypress(Space),,,,,,,,-- --- ---- --- ------ ----- ------- ---- -- --- ------- --<br>------- ---------- ------ -- ----- -- ----- -- ---- ------<br>--- ----- --- --- ------ -------- ----- --- ------ ----- --<br>----- ----- ---------- --- --- ------ ------ ---- -- ------<br>------- --- ------ ----- --- ---- ------- -- ---- way --<br>------- ------,213353.27999998117,213352.275000012,212940.177,212942.61999998707,212965.859,213379.568,,52,way
screen,html.Screen,1_1_1_1_53,2021-04-19T10:11:14.098Z,,,,,,,,,,,,,,,,54,,,,,,,,,,,,,,405.1119999824732,,response,,,,100,,,,,,,Space,keypress(Space),,,,,,,,-- --- ---- --- ------ ----- ------- ---- -- --- ------- --<br>------- ---------- ------ -- ----- -- ----- -- ---- ------<br>--- ----- --- --- ------ -------- ----- --- ------ ----- --<br>----- ----- ---------- --- --- ------ ------ ---- -- ------<br>------- --- ------ ----- --- ---- ------- -- ---- --- of<br>------- ------,213785.7049999875,213784.67999998247,213349.141,213353.5499999998,213379.568,213809.194,,53,of
screen,html.Screen,1_1_1_1_54,2021-04-19T10:11:15.047Z,,,,,,,,,,,,,,,,54,,,,,,,,,,,,,,924.290999975201,,response,,,,100,,,,,,,Space,keypress(Space),,,,,,,,-- --- ---- --- ------ ----- ------- ---- -- --- ------- --<br>------- ---------- ------ -- ----- -- ----- -- ---- ------<br>--- ----- --- --- ------ -------- ----- --- ------ ----- --<br>----- ----- ---------- --- --- ------ ------ ---- -- ------<br>------- --- ------ ----- --- ---- ------- -- ---- --- --<br>raising ------,214734.57999998936,214733.4849999752,213776.707,213785.9949999838,213809.194,214757.843,,54,raising
screen,html.Screen,1_1_1_1_55,2021-04-19T10:11:15.448Z,,,,,,,,,,,,,,,,54,,,,,,,,,,,,,,377.43200000782963,,response,,,,100,,,,,,,Space,keypress(Space),,,,,,,,-- --- ---- --- ------ ----- ------- ---- -- --- ------- --<br>------- ---------- ------ -- ----- -- ----- -- ---- ------<br>--- ----- --- --- ------ -------- ----- --- ------ ----- --<br>----- ----- ---------- --- --- ------ ------ ---- -- ------<br>------- --- ------ ----- --- ---- ------- -- ---- --- --<br>------- money.,215136.2000000081,215135.27500000782,214725.707,214734.8350000102,214757.843,215162.739,,55,money.
Item 100,flow.Loop,1_1_1_1,2021-04-19T10:11:15.449Z,,,,,,,,,,,,,,,,,,,,,,,,,,,,,,29459.71100000781,,completion,,,,,D,,,,,,,,,,,silence,,,,,215136.65000000037,215135.27500000782,185659.124,185660.49500001827,185675.564,215162.739,,,
Question 1,html.Screen,1_1_1_2,2021-04-19T10:11:18.096Z,,,,,,,,,,,,,,,,,,,,,,,,,,,true,TRUE,,2619.9759999793605,,response,,,,100,D,,,,,,TRUE,click #choice-1,,,,silence,,,,,217783.82000001147,217782.71499997936,215124.434,215136.85499998974,215162.739,217791.939,,,
Question 2,html.Screen,1_1_1_3,2021-04-19T10:11:22.079Z,,,,,,,,,,,,,,,,,,,,,,,,,,,true,FALSE,,3974.0460000054445,,response,,,,100,D,,,,,,FALSE,click #choice-2,,,,silence,,,,,221767.0250000083,221765.98500000546,217775.461,217784.08000001218,217791.939,221776.329,,,
Item 100,flow.Sequence,1_1_1,2021-04-19T10:11:22.079Z,,,,,,,,,,,,,,,,,,,,,,,,,,,,,,46089.82800000545,,completion,,,,,,,,,,,,,,,,,,,,,221767.285000009,221765.98500000546,175659.555,175672.72500001127,175676.157,221776.329,,,
End of Practice,html.Page,1_1_2,2021-04-19T10:11:24.643Z,,,,,,,,,,,,,,,,,,,,,,,,,,,,,,2554.061000017362,,form submission,,,,,,,,,,,,,,,,,,,,,224330.65499999793,224330.39000001736,221759.461,221767.40000001155,221776.329,224338.853,,,
Practice,flow.Sequence,1_1,2021-04-19T10:11:24.643Z,,,,,,,,,,,,,,,,,,,,,,,,,,,,,,91391.92800001736,,completion,,,,,,,,,,,,,,,,,,,,,224330.90000000084,224330.39000001736,132922.087,132941.8949999963,132938.462,224338.853,,,
Trap_instruction,html.Page,1_2_0,2021-04-19T10:11:29.256Z,,,,,,,,,,,,,,,,,,,,,,,,,,,,,,4605.166999995359,,form submission,,,,,,,,,,,,,,,,,,,,,228944.28499997593,228944.01999999536,224322.432,224331.0599999968,224338.853,228968.745,,,
trap_trial,html.Screen,1_2_1,2021-04-19T10:11:33.397Z,,,,,,,,,,,,,,,,,,,,,,,,,,,true,1,,4115.104999995441,,response,,,,,,,,,,,1,click #choice-1,,,,,,,,,233085.04500001436,233083.84999999544,228935.634,228944.4299999741,228968.745,233091.787,,,
end of trap trial,html.Page,1_2_2,2021-04-19T10:11:35.515Z,,,,,,,,,,,,,,,,,,,,,,,,,,,,,,2110.357999988366,,form submission,,,,,,,,,,,,,,,,,,,,,235202.4199999869,235202.14499998838,233075.129,233085.21500002826,233091.787,235217.875,,,
Trap 1,flow.Sequence,1_2,2021-04-19T10:11:35.515Z,,,,,,,,,,,,,,,,,,,,,,,,,,,,,,10863.291999988374,,completion,,,,,,,,,,,,,,,,,,,,,235202.64500001213,235202.14499998838,224322.432,224331.0150000034,224338.853,235217.875,,,
Standby,html.Page,1_3_0,2021-04-19T10:11:43.517Z,,,,,,,,,,,,,,,,,,,,,,,,,,,,,,8002.481999999989,,timeout,,,,,,,,,,,,,,,,,,,,,243205.0300000119,243203.748,235201.26,235202.80000002822,235217.875,243220.357,,,
Holding screen,html.Screen,1_3_1_0_0,2021-04-19T10:11:50.525Z,,,,,,,,,,,,,,,,,,,,,,,,,,,,,,7008.316000000021,,timeout,,,,,,,,,,,,,,,,,,,,,250213.18000002066,250212.032,243203.748,243205.4300000309,243220.357,250228.673,,,
screen,html.Screen,1_3_1_0_1_0,2021-04-19T10:11:53.055Z,,,,,,,,,,,,,,,,51,,,,,,,,,,,,,,2512.6520000099554,,response,,,,13,D,,,,,,Space,keypress(Space),,,,silence,,,,American -------- --- --- ---- --- --- ------ -- --------<br>---- --------- --- ------- ------------ ---------- ---------<br>--- ---------- ------- ---------- ------- -- -------- ----<br>---- --- ------ ----- ------ -- ---- --- ----- -- - -------<br>-------- -- --- --- -- ----- ----------- ----- -----------<br>---- --- ---------- --- ---- --- -- ----------,252742.55999998422,252741.32500000997,250212.032,250213.56000000378,250228.673,252764.711,,0,American
screen,html.Screen,1_3_1_0_1_1,2021-04-19T10:11:53.700Z,,,,,,,,,,,,,,,,51,,,,,,,,,,,,,,622.0989999963203,,response,,,,13,D,,,,,,Space,keypress(Space),,,,silence,,,,-------- industry --- --- ---- --- --- ------ -- --------<br>---- --------- --- ------- ------------ ---------- ---------<br>--- ---------- ------- ---------- ------- -- -------- ----<br>---- --- ------ ----- ------ -- ---- --- ----- -- - -------<br>-------- -- --- --- -- ----- ----------- ----- -----------<br>---- --- ---------- --- ---- --- -- ----------,253388.10999999987,253386.80999999633,252728.269,252742.88999999408,252764.711,253411.427,,1,industry
screen,html.Screen,1_3_1_0_1_2,2021-04-19T10:11:54.280Z,,,,,,,,,,,,,,,,51,,,,,,,,,,,,,,555.7180000023509,,response,,,,13,D,,,,,,Space,keypress(Space),,,,silence,,,,-------- -------- may --- ---- --- --- ------ -- --------<br>---- --------- --- ------- ------------ ---------- ---------<br>--- ---------- ------- ---------- ------- -- -------- ----<br>---- --- ------ ----- ------ -- ---- --- ----- -- - -------<br>-------- -- --- --- -- ----- ----------- ----- -----------<br>---- --- ---------- --- ---- --- -- ----------,253968.1349999737,253967.14500000235,253381.309,253388.38499999838,253411.427,253991.577,,2,may
screen,html.Screen,1_3_1_0_1_3,2021-04-19T10:11:54.743Z,,,,,,,,,,,,,,,,51,,,,,,,,,,,,,,437.9980000164942,,response,,,,13,D,,,,,,Space,keypress(Space),,,,silence,,,,-------- -------- --- not ---- --- --- ------ -- --------<br>---- --------- --- ------- ------------ ---------- ---------<br>--- ---------- ------- ---------- ------- -- -------- ----<br>---- --- ------ ----- ------ -- ---- --- ----- -- - -------<br>-------- -- --- --- -- ----- ----------- ----- -----------<br>---- --- ---------- --- ---- --- -- ----------,254430.5099999765,254429.57500001648,253961.337,253968.40499999234,253991.577,254457.433,,3,not
screen,html.Screen,1_3_1_0_1_4,2021-04-19T10:11:55.291Z,,,,,,,,,,,,,,,,51,,,,,,,,,,,,,,521.1069999818865,,response,,,,13,D,,,,,,Space,keypress(Space),,,,silence,,,,-------- -------- --- --- know --- --- ------ -- --------<br>---- --------- --- ------- ------------ ---------- ---------<br>--- ---------- ------- ---------- ------- -- -------- ----<br>---- --- ------ ----- ------ -- ---- --- ----- -- - -------<br>-------- -- --- --- -- ----- ----------- ----- -----------<br>---- --- ---------- --- ---- --- -- ----------,254979.25500001293,254978.53999998188,254424.853,254430.80999999074,254457.433,255002.07,,4,know
screen,html.Screen,1_3_1_0_1_5,2021-04-19T10:11:55.807Z,,,,,,,,,,,,,,,,51,,,,,,,,,,,,,,491.9349999859114,,response,,,,13,D,,,,,,Space,keypress(Space),,,,silence,,,,"-------- -------- --- --- ---- it, --- ------ -- --------<br>---- --------- --- ------- ------------ ---------- ---------<br>--- ---------- ------- ---------- ------- -- -------- ----<br>---- --- ------ ----- ------ -- ---- --- ----- -- - -------<br>-------- -- --- --- -- ----- ----------- ----- -----------<br>---- --- ---------- --- ---- --- -- ----------",255494.94000000414,255494.00499998592,254970.75,254979.41999998875,255002.07,255518.458,,5,"it,"
screen,html.Screen,1_3_1_0_1_6,2021-04-19T10:11:56.392Z,,,,,,,,,,,,,,,,51,,,,,,,,,,,,,,560.0220000255795,,response,,,,13,D,,,,,,Space,keypress(Space),,,,silence,,,,-------- -------- --- --- ---- --- but ------ -- --------<br>---- --------- --- ------- ------------ ---------- ---------<br>--- ---------- ------- ---------- ------- -- -------- ----<br>---- --- ------ ----- ------ -- ---- --- ----- -- - -------<br>-------- -- --- --- -- ----- ----------- ----- -----------<br>---- --- ---------- --- ---- --- -- ----------,256079.48000001488,256078.4800000256,255485.353,255495.1899999869,255518.458,256102.967,,6,but
screen,html.Screen,1_3_1_0_1_7,2021-04-19T10:11:56.891Z,,,,,,,,,,,,,,,,51,,,,,,,,,,,,,,475.31799999595387,,response,,,,13,D,,,,,,Space,keypress(Space),,,,silence,,,,-------- -------- --- --- ---- --- --- debate -- --------<br>---- --------- --- ------- ------------ ---------- ---------<br>--- ---------- ------- ---------- ------- -- -------- ----<br>---- --- ------ ----- ------ -- ---- --- ----- -- - -------<br>-------- -- --- --- -- ----- ----------- ----- -----------<br>---- --- ---------- --- ---- --- -- ----------,256579.26500000758,256578.28499999596,256068.349,256079.73499997752,256102.967,256602.571,,7,debate
screen,html.Screen,1_3_1_0_1_8,2021-04-19T10:11:57.371Z,,,,,,,,,,,,,,,,51,,,,,,,,,,,,,,455.1290000048466,,response,,,,13,D,,,,,,Space,keypress(Space),,,,silence,,,,-------- -------- --- --- ---- --- --- ------ in --------<br>---- --------- --- ------- ------------ ---------- ---------<br>--- ---------- ------- ---------- ------- -- -------- ----<br>---- --- ------ ----- ------ -- ---- --- ----- -- - -------<br>-------- -- --- --- -- ----- ----------- ----- -----------<br>---- --- ---------- --- ---- --- -- ----------,257058.9349999791,257057.70000000484,256569.538,256579.52000002842,256602.571,257082.226,,8,in
screen,html.Screen,1_3_1_0_1_9,2021-04-19T10:11:57.844Z,,,,,,,,,,,,,,,,51,,,,,,,,,,,,,,448.9340000131924,,response,,,,13,D,,,,,,Space,keypress(Space),,,,silence,,,,-------- -------- --- --- ---- --- --- ------ -- Congress<br>---- --------- --- ------- ------------ ---------- ---------<br>--- ---------- ------- ---------- ------- -- -------- ----<br>---- --- ------ ----- ------ -- ---- --- ----- -- - -------<br>-------- -- --- --- -- ----- ----------- ----- -----------<br>---- --- ---------- --- ---- --- -- ----------,257532.2349999915,257531.1600000132,257052.732,257059.2450000113,257082.226,257555.821,,9,Congress
screen,html.Screen,1_3_1_0_1_10,2021-04-19T10:11:58.338Z,,,,,,,,,,,,,,,,51,,,,,,,,,,,,,,469.3290000013076,,response,,,,13,D,,,,,,Space,keypress(Space),,,,silence,,,,-------- -------- --- --- ---- --- --- ------ -- --------<br>over --------- --- ------- ------------ ---------- ---------<br>--- ---------- ------- ---------- ------- -- -------- ----<br>---- --- ------ ----- ------ -- ---- --- ----- -- - -------<br>-------- -- --- --- -- ----- ----------- ----- -----------<br>---- --- ---------- --- ---- --- -- ----------,258026.17000002647,258025.1500000013,257532.135,257532.51500002807,257555.821,258049.852,,10,over
screen,html.Screen,1_3_1_0_1_11,2021-04-19T10:11:58.786Z,,,,,,,,,,,,,,,,51,,,,,,,,,,,,,,423.3930000010296,,response,,,,13,D,,,,,,Space,keypress(Space),,,,silence,,,,-------- -------- --- --- ---- --- --- ------ -- --------<br>---- reforming --- ------- ------------ ---------- ---------<br>--- ---------- ------- ---------- ------- -- -------- ----<br>---- --- ------ ----- ------ -- ---- --- ----- -- - -------<br>-------- -- --- --- -- ----- ----------- ----- -----------<br>---- --- ---------- --- ---- --- -- ----------,258474.25999998813,258473.24500000104,258022.396,258026.4549999847,258049.852,258497.78,,11,reforming
screen,html.Screen,1_3_1_0_1_12,2021-04-19T10:11:59.277Z,,,,,,,,,,,,,,,,51,,,,,,,,,,,,,,465.6050000100222,,response,,,,13,D,,,,,,Space,keypress(Space),,,,silence,,,,-------- -------- --- --- ---- --- --- ------ -- --------<br>---- --------- the ------- ------------ ---------- ---------<br>--- ---------- ------- ---------- ------- -- -------- ----<br>---- --- ------ ----- ------ -- ---- --- ----- -- - -------<br>-------- -- --- --- -- ----- ----------- ----- -----------<br>---- --- ---------- --- ---- --- -- ----------,258964.64500000002,258963.38500001002,258466.423,258474.52500002692,258497.78,258988.337,,12,the
screen,html.Screen,1_3_1_0_1_13,2021-04-19T10:11:59.699Z,,,,,,,,,,,,,,,,51,,,,,,,,,,,,,,397.09300002391683,,response,,,,13,D,,,,,,Space,keypress(Space),,,,silence,,,,-------- -------- --- --- ---- --- --- ------ -- --------<br>---- --------- --- federal ------------ ---------- ---------<br>--- ---------- ------- ---------- ------- -- -------- ----<br>---- --- ------ ----- ------ -- ---- --- ----- -- - -------<br>-------- -- --- --- -- ----- ----------- ----- -----------<br>---- --- ---------- --- ---- --- -- ----------,259386.53499999782,259385.43000002392,258964.368,258964.96499999193,258988.337,259409.739,,13,federal
screen,html.Screen,1_3_1_0_1_14,2021-04-19T10:12:00.190Z,,,,,,,,,,,,,,,,51,,,,,,,,,,,,,,467.00600001594285,,response,,,,13,D,,,,,,Space,keypress(Space),,,,silence,,,,-------- -------- --- --- ---- --- --- ------ -- --------<br>---- --------- --- ------- government's ---------- ---------<br>--- ---------- ------- ---------- ------- -- -------- ----<br>---- --- ------ ----- ------ -- ---- --- ----- -- - -------<br>-------- -- --- --- -- ----- ----------- ----- -----------<br>---- --- ---------- --- ---- --- -- ----------,259877.68500001403,259876.74500001594,259371.591,259386.8149999762,259409.739,259901.249,,14,government's
screen,html.Screen,1_3_1_0_1_15,2021-04-19T10:12:00.616Z,,,,,,,,,,,,,,,,51,,,,,,,,,,,,,,402.09600002208026,,response,,,,13,D,,,,,,Space,keypress(Space),,,,silence,,,,-------- -------- --- --- ---- --- --- ------ -- --------<br>---- --------- --- ------- ------------ regulatory ---------<br>--- ---------- ------- ---------- ------- -- -------- ----<br>---- --- ------ ----- ------ -- ---- --- ----- -- - -------<br>-------- -- --- --- -- ----- ----------- ----- -----------<br>---- --- ---------- --- ---- --- -- ----------,260304.33499999344,260303.3450000221,259876.342,259877.9499999946,259901.249,260327.558,,15,regulatory
screen,html.Screen,1_3_1_0_1_16,2021-04-19T10:12:01.086Z,,,,,,,,,,,,,,,,51,,,,,,,,,,,,,,446.1919999930251,,response,,,,13,D,,,,,,Space,keypress(Space),,,,silence,,,,-------- -------- --- --- ---- --- --- ------ -- --------<br>---- --------- --- ------- ------------ ---------- apparatus<br>--- ---------- ------- ---------- ------- -- -------- ----<br>---- --- ------ ----- ------ -- ---- --- ----- -- - -------<br>-------- -- --- --- -- ----- ----------- ----- -----------<br>---- --- ---------- --- ---- --- -- ----------,260774.2449999787,260773.74999999302,260301.183,260304.5900000143,260327.558,260797.104,,16,apparatus
screen,html.Screen,1_3_1_0_1_17,2021-04-19T10:12:02.003Z,,,,,,,,,,,,,,,,51,,,,,,,,,,,,,,892.7010000309092,,response,,,,13,D,,,,,,Space,keypress(Space),,,,silence,,,,-------- -------- --- --- ---- --- --- ------ -- --------<br>---- --------- --- ------- ------------ ---------- ---------<br>may ---------- ------- ---------- ------- -- -------- ----<br>---- --- ------ ----- ------ -- ---- --- ----- -- - -------<br>-------- -- --- --- -- ----- ----------- ----- -----------<br>---- --- ---------- --- ---- --- -- ----------,261690.87500002934,261689.8050000309,260760.849,260774.3500000215,260797.104,261714.136,,17,may
screen,html.Screen,1_3_1_0_1_18,2021-04-19T10:12:02.574Z,,,,,,,,,,,,,,,,51,,,,,,,,,,,,,,546.6990000227815,,response,,,,13,D,,,,,,Space,keypress(Space),,,,silence,,,,-------- -------- --- --- ---- --- --- ------ -- --------<br>---- --------- --- ------- ------------ ---------- ---------<br>--- profoundly ------- ---------- ------- -- -------- ----<br>---- --- ------ ----- ------ -- ---- --- ----- -- - -------<br>-------- -- --- --- -- ----- ----------- ----- -----------<br>---- --- ---------- --- ---- --- -- ----------,262261.89999998314,262260.8350000228,261680.302,261691.15999998758,261714.136,262285.444,,18,profoundly
screen,html.Screen,1_3_1_0_1_19,2021-04-19T10:12:07.881Z,,,,,,,,,,,,,,,,51,,,,,,,,,,,,,,5281.966000017826,,response,,,,13,D,,,,,,Space,keypress(Space),,,,silence,,,,-------- -------- --- --- ---- --- --- ------ -- --------<br>---- --------- --- ------- ------------ ---------- ---------<br>--- ---------- improve ---------- ------- -- -------- ----<br>---- --- ------ ----- ------ -- ---- --- ----- -- - -------<br>-------- -- --- --- -- ----- ----------- ----- -----------<br>---- --- ---------- --- ---- --- -- ----------,267568.5999999987,267567.41000001784,262247.438,262262.1700000018,262285.444,267591.851,,19,improve
screen,html.Screen,1_3_1_0_1_20,2021-04-19T10:12:09.060Z,,,,,,,,,,,,,,,,51,,,,,,,,,,,,,,1155.0640000251587,,response,,,,13,D,,,,,,Space,keypress(Space),,,,silence,,,,-------- -------- --- --- ---- --- --- ------ -- --------<br>---- --------- --- ------- ------------ ---------- ---------<br>--- ---------- ------- companies' ------- -- -------- ----<br>---- --- ------ ----- ------ -- ---- --- ----- -- - -------<br>-------- -- --- --- -- ----- ----------- ----- -----------<br>---- --- ---------- --- ---- --- -- ----------,268748.00999998115,268746.9150000252,267567.826,267568.86499997927,267591.851,268774.583,,20,companies'
screen,html.Screen,1_3_1_0_1_21,2021-04-19T10:12:09.679Z,,,,,,,,,,,,,,,,51,,,,,,,,,,,,,,590.7870000140974,,response,,,,13,D,,,,,,Space,keypress(Space),,,,silence,,,,-------- -------- --- --- ---- --- --- ------ -- --------<br>---- --------- --- ------- ------------ ---------- ---------<br>--- ---------- ------- ---------- ability -- -------- ----<br>---- --- ------ ----- ------ -- ---- --- ----- -- - -------<br>-------- -- --- --- -- ----- ----------- ----- -----------<br>---- --- ---------- --- ---- --- -- ----------,269366.4700000081,269365.3700000141,268741.656,268748.26999998186,268774.583,269389.896,,21,ability
screen,html.Screen,1_3_1_0_1_22,2021-04-19T10:12:10.475Z,,,,,,,,,,,,,,,,51,,,,,,,,,,,,,,772.3239999983343,,response,,,,13,D,,,,,,Space,keypress(Space),,,,silence,,,,-------- -------- --- --- ---- --- --- ------ -- --------<br>---- --------- --- ------- ------------ ---------- ---------<br>--- ---------- ------- ---------- ------- to -------- ----<br>---- --- ------ ----- ------ -- ---- --- ----- -- - -------<br>-------- -- --- --- -- ----- ----------- ----- -----------<br>---- --- ---------- --- ---- --- -- ----------,270163.2250000257,270162.21999999834,269354.748,269366.74000002677,269389.896,270188.922,,22,to
screen,html.Screen,1_3_1_0_1_23,2021-04-19T10:12:11.138Z,,,,,,,,,,,,,,,,51,,,,,,,,,,,,,,636.3930000236724,,response,,,,13,D,,,,,,Space,keypress(Space),,,,silence,,,,-------- -------- --- --- ---- --- --- ------ -- --------<br>---- --------- --- ------- ------------ ---------- ---------<br>--- ---------- ------- ---------- ------- -- survive. ----<br>---- --- ------ ----- ------ -- ---- --- ----- -- - -------<br>-------- -- --- --- -- ----- ----------- ----- -----------<br>---- --- ---------- --- ---- --- -- ----------,270826.3700000243,270825.3150000237,270156.487,270163.4850000264,270188.922,270849.842,,23,survive.
screen,html.Screen,1_3_1_0_1_24,2021-04-19T10:12:11.936Z,,,,,,,,,,,,,,,,51,,,,,,,,,,,,,,773.0330000009271,,response,,,,13,D,,,,,,Space,keypress(Space),,,,silence,,,,-------- -------- --- --- ---- --- --- ------ -- --------<br>---- --------- --- ------- ------------ ---------- ---------<br>--- ---------- ------- ---------- ------- -- -------- This<br>---- --- ------ ----- ------ -- ---- --- ----- -- - -------<br>-------- -- --- --- -- ----- ----------- ----- -----------<br>---- --- ---------- --- ---- --- -- ----------,271623.81000001915,271622.87500000093,270819.78,270826.6350000049,270849.842,271647.211,,24,This
screen,html.Screen,1_3_1_0_1_25,2021-04-19T10:12:12.940Z,,,,,,,,,,,,,,,,51,,,,,,,,,,,,,,980.0339999814751,,response,,,,13,D,,,,,,Space,keypress(Space),,,,silence,,,,-------- -------- --- --- ---- --- --- ------ -- --------<br>---- --------- --- ------- ------------ ---------- ---------<br>--- ---------- ------- ---------- ------- -- -------- ----<br>week --- ------ ----- ------ -- ---- --- ----- -- - -------<br>-------- -- --- --- -- ----- ----------- ----- -----------<br>---- --- ---------- --- ---- --- -- ----------,272628.20500001544,272627.2449999815,271616.119,271624.0349999862,271647.211,272651.495,,25,week
screen,html.Screen,1_3_1_0_1_26,2021-04-19T10:12:15.117Z,,,,,,,,,,,,,,,,51,,,,,,,,,,,,,,2151.9500000268454,,response,,,,13,D,,,,,,Space,keypress(Space),,,,silence,,,,-------- -------- --- --- ---- --- --- ------ -- --------<br>---- --------- --- ------- ------------ ---------- ---------<br>--- ---------- ------- ---------- ------- -- -------- ----<br>---- the ------ ----- ------ -- ---- --- ----- -- - -------<br>-------- -- --- --- -- ----- ----------- ----- -----------<br>---- --- ---------- --- ---- --- -- ----------,274804.5099999872,274803.44500002684,272613.712,272628.46500001615,272651.495,274827.953,,26,the
screen,html.Screen,1_3_1_0_1_27,2021-04-19T10:12:15.580Z,,,,,,,,,,,,,,,,51,,,,,,,,,,,,,,438.96199998562224,,response,,,,13,D,,,,,,Space,keypress(Space),,,,silence,,,,-------- -------- --- --- ---- --- --- ------ -- --------<br>---- --------- --- ------- ------------ ---------- ---------<br>--- ---------- ------- ---------- ------- -- -------- ----<br>---- --- Senate ----- ------ -- ---- --- ----- -- - -------<br>-------- -- --- --- -- ----- ----------- ----- -----------<br>---- --- ---------- --- ---- --- -- ----------,275267.8549999837,275266.9149999856,274801.162,274804.76500000805,274827.953,275291.383,,27,Senate
screen,html.Screen,1_3_1_0_1_28,2021-04-19T10:12:15.995Z,,,,,,,,,,,,,,,,51,,,,,,,,,,,,,,390.1069999881438,,response,,,,13,D,,,,,,Space,keypress(Space),,,,silence,,,,-------- -------- --- --- ---- --- --- ------ -- --------<br>---- --------- --- ------- ------------ ---------- ---------<br>--- ---------- ------- ---------- ------- -- -------- ----<br>---- --- ------ seems ------ -- ---- --- ----- -- - -------<br>-------- -- --- --- -- ----- ----------- ----- -----------<br>---- --- ---------- --- ---- --- -- ----------,275682.5550000067,275681.4899999881,275261.274,275268.1250000023,275291.383,275705.794,,28,seems
screen,html.Screen,1_3_1_0_1_29,2021-04-19T10:12:16.344Z,,,,,,,,,,,,,,,,51,,,,,,,,,,,,,,325.59600001829676,,response,,,,13,D,,,,,,Space,keypress(Space),,,,silence,,,,-------- -------- --- --- ---- --- --- ------ -- --------<br>---- --------- --- ------- ------------ ---------- ---------<br>--- ---------- ------- ---------- ------- -- -------- ----<br>---- --- ------ ----- poised -- ---- --- ----- -- - -------<br>-------- -- --- --- -- ----- ----------- ----- -----------<br>---- --- ---------- --- ---- --- -- ----------,276032.3850000277,276031.3900000183,275674.594,275682.8150000074,275705.794,276055.874,,29,poised
screen,html.Screen,1_3_1_0_1_30,2021-04-19T10:12:16.903Z,,,,,,,,,,,,,,,,51,,,,,,,,,,,,,,533.8260000113514,,response,,,,13,D,,,,,,Space,keypress(Space),,,,silence,,,,-------- -------- --- --- ---- --- --- ------ -- --------<br>---- --------- --- ------- ------------ ---------- ---------<br>--- ---------- ------- ---------- ------- -- -------- ----<br>---- --- ------ ----- ------ to ---- --- ----- -- - -------<br>-------- -- --- --- -- ----- ----------- ----- -----------<br>---- --- ---------- --- ---- --- -- ----------,276590.7199999783,276589.70000001136,276022.353,276032.63999999035,276055.874,276614.186,,30,to
screen,html.Screen,1_3_1_0_1_31,2021-04-19T10:12:17.613Z,,,,,,,,,,,,,,,,51,,,,,,,,,,,,,,685.468999980716,,response,,,,13,D,,,,,,Space,keypress(Space),,,,silence,,,,-------- -------- --- --- ---- --- --- ------ -- --------<br>---- --------- --- ------- ------------ ---------- ---------<br>--- ---------- ------- ---------- ------- -- -------- ----<br>---- --- ------ ----- ------ -- join --- ----- -- - -------<br>-------- -- --- --- -- ----- ----------- ----- -----------<br>---- --- ---------- --- ---- --- -- ----------,277300.69000000367,277299.6549999807,276589.111,276590.9700000193,276614.186,277324.083,,31,join
screen,html.Screen,1_3_1_0_1_32,2021-04-19T10:12:18.136Z,,,,,,,,,,,,,,,,51,,,,,,,,,,,,,,499.1270000023069,,response,,,,13,D,,,,,,Space,keypress(Space),,,,silence,,,,-------- -------- --- --- ---- --- --- ------ -- --------<br>---- --------- --- ------- ------------ ---------- ---------<br>--- ---------- ------- ---------- ------- -- -------- ----<br>---- --- ------ ----- ------ -- ---- the ----- -- - -------<br>-------- -- --- --- -- ----- ----------- ----- -----------<br>---- --- ---------- --- ---- --- -- ----------,277824.1450000205,277823.2100000023,277297.44,277300.95499998424,277324.083,277847.33,,32,the
screen,html.Screen,1_3_1_0_1_33,2021-04-19T10:12:18.535Z,,,,,,,,,,,,,,,,51,,,,,,,,,,,,,,374.20999999862397,,response,,,,13,D,,,,,,Space,keypress(Space),,,,silence,,,,-------- -------- --- --- ---- --- --- ------ -- --------<br>---- --------- --- ------- ------------ ---------- ---------<br>--- ---------- ------- ---------- ------- -- -------- ----<br>---- --- ------ ----- ------ -- ---- --- House -- - -------<br>-------- -- --- --- -- ----- ----------- ----- -----------<br>---- --- ---------- --- ---- --- -- ----------,278222.4849999766,278221.53999999864,277824.043,277824.4350000168,277847.33,278250.339,,33,House
screen,html.Screen,1_3_1_0_1_34,2021-04-19T10:12:18.947Z,,,,,,,,,,,,,,,,51,,,,,,,,,,,,,,383.2260000255774,,response,,,,13,D,,,,,,Space,keypress(Space),,,,silence,,,,-------- -------- --- --- ---- --- --- ------ -- --------<br>---- --------- --- ------- ------------ ---------- ---------<br>--- ---------- ------- ---------- ------- -- -------- ----<br>---- --- ------ ----- ------ -- ---- --- ----- in - -------<br>-------- -- --- --- -- ----- ----------- ----- -----------<br>---- --- ---------- --- ---- --- -- ----------,278635.1900000009,278633.56500002556,278213.956,278227.40500001237,278250.339,278658.484,,34,in
screen,html.Screen,1_3_1_0_1_35,2021-04-19T10:12:19.363Z,,,,,,,,,,,,,,,,51,,,,,,,,,,,,,,391.381000008143,,response,,,,13,D,,,,,,Space,keypress(Space),,,,silence,,,,-------- -------- --- --- ---- --- --- ------ -- --------<br>---- --------- --- ------- ------------ ---------- ---------<br>--- ---------- ------- ---------- ------- -- -------- ----<br>---- --- ------ ----- ------ -- ---- --- ----- -- a -------<br>-------- -- --- --- -- ----- ----------- ----- -----------<br>---- --- ---------- --- ---- --- -- ----------,279050.8099999861,279049.86500000814,278633.899,278635.42499998584,278658.484,279074.312,,35,a
screen,html.Screen,1_3_1_0_1_36,2021-04-19T10:12:20.022Z,,,,,,,,,,,,,,,,51,,,,,,,,,,,,,,634.2079999856069,,response,,,,13,D,,,,,,Space,keypress(Space),,,,silence,,,,-------- -------- --- --- ---- --- --- ------ -- --------<br>---- --------- --- ------- ------------ ---------- ---------<br>--- ---------- ------- ---------- ------- -- -------- ----<br>---- --- ------ ----- ------ -- ---- --- ----- -- - massive<br>-------- -- --- --- -- ----- ----------- ----- -----------<br>---- --- ---------- --- ---- --- -- ----------,279709.514999995,279708.5199999856,279041.746,279051.04500002926,279074.312,279732.786,,36,massive
screen,html.Screen,1_3_1_0_1_37,2021-04-19T10:12:20.595Z,,,,,,,,,,,,,,,,51,,,,,,,,,,,,,,549.0589999904041,,response,,,,13,D,,,,,,Space,keypress(Space),,,,silence,,,,-------- -------- --- --- ---- --- --- ------ -- --------<br>---- --------- --- ------- ------------ ---------- ---------<br>--- ---------- ------- ---------- ------- -- -------- ----<br>---- --- ------ ----- ------ -- ---- --- ----- -- - -------<br>overhaul -- --- --- -- ----- ----------- ----- -----------<br>---- --- ---------- --- ---- --- -- ----------,280282.7999999863,280281.8449999904,279707.526,279709.7450000001,279732.786,280306.258,,37,overhaul
