sender,sender_type,sender_id,timestamp,meta,,Blues,Classical,Country,Dance,Electronic,Folk,Gospel,Hip-Hop,Jazz,Latin,Musical/Film,New-age,Pop,Provo_ID,R&B,Rap,Reggae,Religious,Rock,Soul,Swing,Traditional,age,artist_name,correct,correctResponse,distraction,duration,education,ended_on,familiarity,gender,headphone_check_performance,item,list,music_frequency,offensiveness,pleasantness,position_correct,preference,response,response_action,snippet_file,song_name,song_rating,sound,stimulus_1,stimulus_2,stimulus_3,text,time_commit,time_end,time_render,time_run,time_show,time_switch,url,word,word_ID
Introduction,html.Screen,0_0,2021-04-21T23:09:16.202Z,"{""labjs_version"":""20.2.2"",""labjs_build"":{""flavor"":""production"",""commit"":""a25486e0c714a0ae2ce03ff94b7bb6896854dcfa""},""location"":""https://run.pavlovia.org/mvasilev/music_d/"",""userAgent"":""Mozilla/5.0 (Windows NT 10.0; Win64; x64) AppleWebKit/537.36 (KHTML, like Gecko) Chrome/89.0.4389.128 Safari/537.36"",""platform"":""Win32"",""language"":""en-US"",""locale"":""en-US"",""timeZone"":""Europe/London"",""timezoneOffset"":-60,""screen_width"":1280,""screen_height"":720,""scroll_width"":1280,""scroll_height"":562,""window_innerWidth"":1280,""window_innerHeight"":610,""devicePixelRatio"":1.5}",,,,,,,,,,,,,,,,,,,,,,,,,,,,,109286.28700000008,,response,,,,,,,,,,,continue,click button,,,,,,,,,112928.63999999827,112923.96000000008,3620.975,3625.560000000405,3637.673,112939.308,{},,
Volume calibration,html.Screen,0_1,2021-04-21T23:09:35.341Z,,,,,,,,,,,,,,,,,,,,,,,,,,,,,,19123.94700000093,,response,,,,,,,,,,,continue,click button,,,,,,,,,132067.6500000045,132063.25500000094,112922.481,112929.04500000441,112939.308,132080.981,,,
Task instructions,html.Screen,0_2,2021-04-21T23:09:37.403Z,,,,,,,,,,,,,,,,,,,,,,,,,,,,,,2046.864000002708,,response,,,,,,,,,,,continue,click button,,,,,,,,,134128.98000000132,134127.8450000027,132047.844,132067.88999999844,132080.981,134153.88,,,
Sounds,html.Screen,0_3_0_0,2021-04-21T23:09:41.673Z,,,,,,,,,,,,,,,,,,,,,,,,,,,,,,4257.307000000001,,timeout,,,,,,,,,3,,,,,,,,O,I,S,,138398.82000000216,138394.674,134113.467,134129.32,134153.88,138411.187,,,
Judgement,html.Screen,0_3_0_1,2021-04-21T23:09:42.539Z,,,,,,,,,,,,,,,,,,,,,,,,,,,true,3,,852.3330000004207,,response,,,,,,,,,3,,3,click #choice-3,,,,,O,I,S,,139264.9700000038,139263.52000000043,138394.674,138399.10999999847,138411.187,139277.481,,,
Trial,flow.Sequence,0_3_0,2021-04-21T23:09:42.539Z,,,,,,,,,,,,,,,,,,,,,,,,,,,,,,5109.640000000421,,completion,,,,,,,,,3,,,,,,,,O,I,S,,139265.50000000134,139263.52000000043,134113.467,134129.24500000372,134153.88,139277.481,,,
Sounds,html.Screen,0_3_1_0,2021-04-21T23:09:46.784Z,,,,,,,,,,,,,,,,,,,,,,,,,,,,,,4248.236999999994,,timeout,,,,,,,,,2,,,,,,,,O,S,I,,143510.65999999992,143509.212,139261.12,139265.84500000172,139277.481,143525.718,,,
Judgement,html.Screen,0_3_1_1,2021-04-21T23:09:47.630Z,,,,,,,,,,,,,,,,,,,,,,,,,,,true,2,,828.9320000011357,,response,,,,,,,,,2,,2,click #choice-2,,,,,O,S,I,,144355.8850000045,144354.65000000113,143509.212,143510.88000000163,143525.718,144358.609,,,
Trial,flow.Sequence,0_3_1,2021-04-21T23:09:47.630Z,,,,,,,,,,,,,,,,,,,,,,,,,,,,,,5077.1690000011295,,completion,,,,,,,,,2,,,,,,,,O,S,I,,144356.1800000025,144354.65000000113,139261.12,139265.78500000323,139277.481,144358.609,,,
Sounds,html.Screen,0_3_2_0,2021-04-21T23:09:51.865Z,,,,,,,,,,,,,,,,,,,,,,,,,,,,,,4248.103000000003,,timeout,,,,,,,,,1,,,,,,,,S,O,I,,148591.22500000376,148590.266,144341.929,144356.38499999914,144358.609,148606.712,,,
Judgement,html.Screen,0_3_2_1,2021-04-21T23:09:52.831Z,,,,,,,,,,,,,,,,,,,,,,,,,,,true,1,,949.6630000001169,,response,,,,,,,,,1,,1,click #choice-1,,,,,S,O,I,,149557.69500000315,149556.37500000012,148590.266,148591.4000000048,148606.712,149573.225,,,
Trial,flow.Sequence,0_3_2,2021-04-21T23:09:52.832Z,,,,,,,,,,,,,,,,,,,,,,,,,,,,,,5197.76600000012,,completion,,,,,,,,,1,,,,,,,,S,O,I,,149557.99500000285,149556.37500000012,144341.929,144356.33000000234,144358.609,149573.225,,,
Sounds,html.Screen,0_3_3_0,2021-04-21T23:09:57.080Z,,,,,,,,,,,,,,,,,,,,,,,,,,,,,,4248.029999999999,,timeout,,,,,,,,,1,,,,,,,,S,I,O,,153805.70000000444,153804.633,149556.575,149558.18,149573.225,153821.255,,,
Judgement,html.Screen,0_3_3_1,2021-04-21T23:09:57.945Z,,,,,,,,,,,,,,,,,,,,,,,,,,,true,1,,848.7899999989313,,response,,,,,,,,,1,,1,click #choice-1,,,,,S,I,O,,154671.37999999977,154670.04499999894,153804.633,153805.88500000158,153821.255,154704.03,,,
Trial,flow.Sequence,0_3_3,2021-04-21T23:09:57.945Z,,,,,,,,,,,,,,,,,,,,,,,,,,,,,,5096.81999999893,,completion,,,,,,,,,1,,,,,,,,S,I,O,,154671.67999999947,154670.04499999894,149556.575,149558.1200000015,149573.225,154704.03,,,
Sounds,html.Screen,0_3_4_0,2021-04-21T23:10:02.210Z,,,,,,,,,,,,,,,,,,,,,,,,,,,,,,4248.284000000014,,timeout,,,,,,,,,3,,,,,,,,I,O,S,,158936.65000000328,158935.772,154687.408,154671.8450000044,154704.03,158952.314,,,
Judgement,html.Screen,0_3_4_1,2021-04-21T23:10:03.146Z,,,,,,,,,,,,,,,,,,,,,,,,,,,true,3,,918.7909999983385,,response,,,,,,,,,3,,3,click #choice-3,,,,,I,O,S,,159872.50499999936,159871.10499999835,158935.772,158936.82000000263,158952.314,159885.082,,,
Trial,flow.Sequence,0_3_4,2021-04-21T23:10:03.147Z,,,,,,,,,,,,,,,,,,,,,,,,,,,,,,5167.074999998353,,completion,,,,,,,,,3,,,,,,,,I,O,S,,159872.80000000464,159871.10499999835,154687.408,154671.8000000037,154704.03,159885.082,,,
Sounds,html.Screen,0_3_5_0,2021-04-21T23:10:07.399Z,,,,,,,,,,,,,,,,,,,,,,,,,,,,,,4249.018000000011,,timeout,,,,,,,,,2,,,,,,,,I,S,O,,164125.41500000225,164116.447,159868.428,159872.9850000018,159885.082,164134.1,,,
Judgement,html.Screen,0_3_5_1,2021-04-21T23:10:08.157Z,,,,,,,,,,,,,,,,,,,,,,,,,,,true,2,,747.8849999999802,,response,,,,,,,,,2,,2,click #choice-2,,,,,I,S,O,,164883.29499999963,164881.985,164116.447,164125.78000000212,164134.1,164916.058,,,
Trial,flow.Sequence,0_3_5,2021-04-21T23:10:08.158Z,,,,,,,,,,,,,,,,,,,,,,,,,,,,,,4996.902999999991,,completion,,,,,,,,,2,,,,,,,,I,S,O,,164883.82500000444,164881.985,159868.428,159872.9200000016,159885.082,164916.058,,,
Task,flow.Loop,0_3,2021-04-21T23:10:08.162Z,,,,,,,,,,,,,,,,,,,,,,,,,,,,,,30728.10499999998,,completion,,,1,,,,,,,,,,,,,,,,,,164888.15500000055,164881.985,134113.467,134129.17500000185,134153.88,164916.058,,,
Trap,html.Screen,0_4,2021-04-21T23:10:08.163Z,,,,,,,,,,,,,,,,,,,,,,,,,,,,,,NaN,,skipped,,,,,,,,,,,,,,,,,,,,,164888.83499999793,164881.985,,164888.76999999775,,164916.058,,,
Thanks,html.Screen,0_5,2021-04-21T23:10:12.865Z,,,,,,,,,,,,,,,,,,,,,,,,,,,,,,4674.482000004704,,response,,,,,,,,,,,continue,click button,,,,,,,,,169591.6700000016,169590.5400000047,164899.816,164888.93000000098,164916.058,178526.651,,,
Headphone screening,flow.Sequence,0,2021-04-21T23:10:12.866Z,,,,,,,,,,,,,,,,,,,,,,,,,,,,,,165952.86700000468,,completion,,,,,,,,,,,,,,,,,,,,,169591.935000004,169590.5400000047,3620.975,3625.545000002603,3637.673,178526.651,,,
Instructions,html.Page,1_0,2021-04-21T23:10:52.136Z,,,,,,,,,,,,,,,,,,,,,,,,,,,,,,30335.17399999994,,form submission,,,,,,,,,,,,,,,,,,,,,208862.13500000304,208861.82499999995,178510.015,178518.28000000387,178526.651,208863.262,,,
Holding screen,html.Screen,1_1_0_0,2021-04-21T23:11:02.117Z,,,,,,,,,,,,,,,,,,,,,,,,,,,,,,10028.835000000021,,timeout,,,,,,,,,,,,,,,,,,,,,218843.29000000434,218842.43,208846.606,208862.48999999953,208863.262,218892.097,,,
screen,html.Screen,1_1_0_1_0,2021-04-21T23:11:05.094Z,,,,,,,,,,,,,,,,53,,,,,,,,,,,,,,2925.0380000047735,,response,,,,99,,,,,,,Space,keypress(Space),,,,,,,,When -- ----- -- ------ - ------- --- ----------<br>------------- ------ ------ ---- ---- ------- ----- -- ----<br>-------- ------- -- ---------- --- - --- ----- ----- ----<br>---- --- --- ----- --- ---- ---- ------- ----- ---- -------<br>--- --- -- ----- -- --- ---- -- --- ---- -- ------ ------<br>--- ----- -- ----,221820.5600000001,221817.13500000478,218842.43,218843.54999999778,218892.097,221824.131,,0,When
screen,html.Screen,1_1_0_1_1,2021-04-21T23:11:05.913Z,,,,,,,,,,,,,,,,53,,,,,,,,,,,,,,814.584000000963,,response,,,,99,,,,,,,Space,keypress(Space),,,,,,,,---- it ----- -- ------ - ------- --- ----------<br>------------- ------ ------ ---- ---- ------- ----- -- ----<br>-------- ------- -- ---------- --- - --- ----- ----- ----<br>---- --- --- ----- --- ---- ---- ------- ----- ---- -------<br>--- --- -- ----- -- --- ---- -- --- ---- -- ------ ------<br>--- ----- -- ----,222639.7050000014,222638.71500000096,221807.719,221820.76000000234,221824.131,222657.288,,1,it
screen,html.Screen,1_1_0_1_2,2021-04-21T23:11:06.763Z,,,,,,,,,,,,,,,,53,,,,,,,,,,,,,,831.4620000040741,,response,,,,99,,,,,,,Space,keypress(Space),,,,,,,,---- -- comes -- ------ - ------- --- ----------<br>------------- ------ ------ ---- ---- ------- ----- -- ----<br>-------- ------- -- ---------- --- - --- ----- ----- ----<br>---- --- --- ----- --- ---- ---- ------- ----- ---- -------<br>--- --- -- ----- -- --- ---- -- --- ---- -- ------ ------<br>--- ----- -- ----,223489.78499999794,223488.75000000407,222624.102,222639.86999999906,222657.288,223507.216,,2,comes
screen,html.Screen,1_1_0_1_3,2021-04-21T23:11:07.378Z,,,,,,,,,,,,,,,,53,,,,,,,,,,,,,,596.1040000020002,,response,,,,99,,,,,,,Space,keypress(Space),,,,,,,,---- -- ----- to ------ - ------- --- ----------<br>------------- ------ ------ ---- ---- ------- ----- -- ----<br>-------- ------- -- ---------- --- - --- ----- ----- ----<br>---- --- --- ----- --- ---- ---- ------- ----- ---- -------<br>--- --- -- ----- -- --- ---- -- --- ---- -- ------ ------<br>--- ----- -- ----,224104.31999999855,224103.320000002,223490.273,223489.95000000286,223507.216,224123.789,,3,to
screen,html.Screen,1_1_0_1_4,2021-04-21T23:11:08.189Z,,,,,,,,,,,,,,,,53,,,,,,,,,,,,,,790.4759999994421,,response,,,,99,,,,,,,Space,keypress(Space),,,,,,,,---- -- ----- -- having - ------- --- ----------<br>------------- ------ ------ ---- ---- ------- ----- -- ----<br>-------- ------- -- ---------- --- - --- ----- ----- ----<br>---- --- --- ----- --- ---- ---- ------- ----- ---- -------<br>--- --- -- ----- -- --- ---- -- --- ---- -- ------ ------<br>--- ----- -- ----,224915.2400000021,224914.26499999943,224090.1,224105.52000000462,224123.789,224923.171,,4,having
screen,html.Screen,1_1_0_1_5,2021-04-21T23:11:08.744Z,,,,,,,,,,,,,,,,53,,,,,,,,,,,,,,545.9990000039397,,response,,,,99,,,,,,,Space,keypress(Space),,,,,,,,---- -- ----- -- ------ a ------- --- ----------<br>------------- ------ ------ ---- ---- ------- ----- -- ----<br>-------- ------- -- ---------- --- - --- ----- ----- ----<br>---- --- --- ----- --- ---- ---- ------- ----- ---- -------<br>--- --- -- ----- -- --- ---- -- --- ---- -- ------ ------<br>--- ----- -- ----,225470.01000000455,225469.17000000394,224906.4,224915.41000000143,224923.171,225472.503,,5,a
screen,html.Screen,1_1_0_1_6,2021-04-21T23:11:09.815Z,,,,,,,,,,,,,,,,53,,,,,,,,,,,,,,1067.8969999980472,,response,,,,99,,,,,,,Space,keypress(Space),,,,,,,,---- -- ----- -- ------ - lasting --- ----------<br>------------- ------ ------ ---- ---- ------- ----- -- ----<br>-------- ------- -- ---------- --- - --- ----- ----- ----<br>---- --- --- ----- --- ---- ---- ------- ----- ---- -------<br>--- --- -- ----- -- --- ---- -- --- ---- -- ------ ------<br>--- ----- -- ----,226541.3550000012,226540.39999999804,225456.137,225470.1800000039,225472.503,226555.776,,6,lasting
screen,html.Screen,1_1_0_1_7,2021-04-21T23:11:10.330Z,,,,,,,,,,,,,,,,53,,,,,,,,,,,,,,499.4690000031842,,response,,,,99,,,,,,,Space,keypress(Space),,,,,,,,---- -- ----- -- ------ - ------- and ----------<br>------------- ------ ------ ---- ---- ------- ----- -- ----<br>-------- ------- -- ---------- --- - --- ----- ----- ----<br>---- --- --- ----- --- ---- ---- ------- ----- ---- -------<br>--- --- -- ----- -- --- ---- -- --- ---- -- ------ ------<br>--- ----- -- ----,227056.1250000028,227055.2450000032,226539.001,226541.51500000444,226555.776,227072.136,,7,and
screen,html.Screen,1_1_0_1_8,2021-04-21T23:11:11.075Z,,,,,,,,,,,,,,,,53,,,,,,,,,,,,,,728.0990000024321,,response,,,,99,,,,,,,Space,keypress(Space),,,,,,,,---- -- ----- -- ------ - ------- --- fulfilling<br>------------- ------ ------ ---- ---- ------- ----- -- ----<br>-------- ------- -- ---------- --- - --- ----- ----- ----<br>---- --- --- ----- --- ---- ---- ------- ----- ---- -------<br>--- --- -- ----- -- --- ---- -- --- ---- -- ------ ------<br>--- ----- -- ----,227801.13500000152,227800.23500000243,227055.529,227056.28000000434,227072.136,227804.809,,8,fulfilling
screen,html.Screen,1_1_0_1_9,2021-04-21T23:11:11.848Z,,,,,,,,,,,,,,,,53,,,,,,,,,,,,,,768.7460000026622,,response,,,,99,,,,,,,Space,keypress(Space),,,,,,,,"---- -- ----- -- ------ - ------- --- ----------<br>relationship, ------ ------ ---- ---- ------- ----- -- ----<br>-------- ------- -- ---------- --- - --- ----- ----- ----<br>---- --- --- ----- --- ---- ---- ------- ----- ---- -------<br>--- --- -- ----- -- --- ---- -- --- ---- -- ------ ------<br>--- ----- -- ----",228574.43000000058,228573.55500000267,227788.532,227801.29999999917,227804.809,228588.137,,9,"relationship,"
screen,html.Screen,1_1_0_1_10,2021-04-21T23:11:12.396Z,,,,,,,,,,,,,,,,53,,,,,,,,,,,,,,532.9929999995511,,response,,,,99,,,,,,,Space,keypress(Space),,,,,,,,---- -- ----- -- ------ - ------- --- ----------<br>------------- common ------ ---- ---- ------- ----- -- ----<br>-------- ------- -- ---------- --- - --- ----- ----- ----<br>---- --- --- ----- --- ---- ---- ------- ----- ---- -------<br>--- --- -- ----- -- --- ---- -- --- ---- -- ------ ------<br>--- ----- -- ----,229122.00999999914,229121.12999999954,228571.324,228574.59499999823,228588.137,229137.856,,10,common
screen,html.Screen,1_1_0_1_11,2021-04-21T23:11:12.995Z,,,,,,,,,,,,,,,,53,,,,,,,,,,,,,,582.7240000010643,,response,,,,99,,,,,,,Space,keypress(Space),,,,,,,,---- -- ----- -- ------ - ------- --- ----------<br>------------- ------ wisdom ---- ---- ------- ----- -- ----<br>-------- ------- -- ---------- --- - --- ----- ----- ----<br>---- --- --- ----- --- ---- ---- ------- ----- ---- -------<br>--- --- -- ----- -- --- ---- -- --- ---- -- ------ ------<br>--- ----- -- ----,229721.57000000152,229720.58000000106,229121.169,229122.17500000406,229137.856,229737.716,,11,wisdom
screen,html.Screen,1_1_0_1_12,2021-04-21T23:11:14.014Z,,,,,,,,,,,,,,,,53,,,,,,,,,,,,,,1001.9189999981027,,response,,,,99,,,,,,,Space,keypress(Space),,,,,,,,---- -- ----- -- ------ - ------- --- ----------<br>------------- ------ ------ says ---- ------- ----- -- ----<br>-------- ------- -- ---------- --- - --- ----- ----- ----<br>---- --- --- ----- --- ---- ---- ------- ----- ---- -------<br>--- --- -- ----- -- --- ---- -- --- ---- -- ------ ------<br>--- ----- -- ----,230740.61500000244,230739.6349999981,229721.03,229721.72500000306,229737.716,230753.589,,12,says
screen,html.Screen,1_1_0_1_13,2021-04-21T23:11:14.729Z,,,,,,,,,,,,,,,,53,,,,,,,,,,,,,,701.2959999991872,,response,,,,99,,,,,,,Space,keypress(Space),,,,,,,,---- -- ----- -- ------ - ------- --- ----------<br>------------- ------ ------ ---- that ------- ----- -- ----<br>-------- ------- -- ---------- --- - --- ----- ----- ----<br>---- --- --- ----- --- ---- ---- ------- ----- ---- -------<br>--- --- -- ----- -- --- ---- -- --- ---- -- ------ ------<br>--- ----- -- ----,231455.750000001,231454.8849999992,230737.233,230740.78500000178,230753.589,231470.215,,13,that
screen,html.Screen,1_1_0_1_14,2021-04-21T23:11:15.384Z,,,,,,,,,,,,,,,,53,,,,,,,,,,,,,,639.5100000020757,,response,,,,99,,,,,,,Space,keypress(Space),,,,,,,,---- -- ----- -- ------ - ------- --- ----------<br>------------- ------ ------ ---- ---- feeling ----- -- ----<br>-------- ------- -- ---------- --- - --- ----- ----- ----<br>---- --- --- ----- --- ---- ---- ------- ----- ---- -------<br>--- --- -- ----- -- --- ---- -- --- ---- -- ------ ------<br>--- ----- -- ----,232110.59499999828,232109.72500000207,231453.252,231455.94500000152,231470.215,232119.83,,14,feeling
screen,html.Screen,1_1_0_1_15,2021-04-21T23:11:15.967Z,,,,,,,,,,,,,,,,53,,,,,,,,,,,,,,572.7950000033306,,response,,,,99,,,,,,,Space,keypress(Space),,,,,,,,---- -- ----- -- ------ - ------- --- ----------<br>------------- ------ ------ ---- ---- ------- close -- ----<br>-------- ------- -- ---------- --- - --- ----- ----- ----<br>---- --- --- ----- --- ---- ---- ------- ----- ---- -------<br>--- --- -- ----- -- --- ---- -- --- ---- -- ------ ------<br>--- ----- -- ----,232693.48999999784,232692.62500000332,232103.279,232110.7600000032,232119.83,232702.729,,15,close
screen,html.Screen,1_1_0_1_16,2021-04-21T23:11:16.574Z,,,,,,,,,,,,,,,,53,,,,,,,,,,,,,,597.1210000030696,,response,,,,99,,,,,,,Space,keypress(Space),,,,,,,,---- -- ----- -- ------ - ------- --- ----------<br>------------- ------ ------ ---- ---- ------- ----- to ----<br>-------- ------- -- ---------- --- - --- ----- ----- ----<br>---- --- --- ----- --- ---- ---- ------- ----- ---- -------<br>--- --- -- ----- -- --- ---- -- --- ---- -- ------ ------<br>--- ----- -- ----,233300.6549999991,233299.85000000306,232686.389,232693.66000000446,232702.729,233302.406,,16,to
screen,html.Screen,1_1_0_1_17,2021-04-21T23:11:17.510Z,,,,,,,,,,,,,,,,53,,,,,,,,,,,,,,935.01899999936,,response,,,,99,,,,,,,Space,keypress(Space),,,,,,,,---- -- ----- -- ------ - ------- --- ----------<br>------------- ------ ------ ---- ---- ------- ----- -- your<br>-------- ------- -- ---------- --- - --- ----- ----- ----<br>---- --- --- ----- --- ---- ---- ------- ----- ---- -------<br>--- --- -- ----- -- --- ---- -- --- ---- -- ------ ------<br>--- ----- -- ----,234238.27000000165,234237.42499999935,233285.992,233300.82000000402,233302.406,234252.002,,17,your
screen,html.Screen,1_1_0_1_18,2021-04-21T23:11:18.171Z,,,,,,,,,,,,,,,,53,,,,,,,,,,,,,,646.3530000048049,,response,,,,99,,,,,,,Space,keypress(Space),,,,,,,,---- -- ----- -- ------ - ------- --- ----------<br>------------- ------ ------ ---- ---- ------- ----- -- ----<br>romantic ------- -- ---------- --- - --- ----- ----- ----<br>---- --- --- ----- --- ---- ---- ------- ----- ---- -------<br>--- --- -- ----- -- --- ---- -- --- ---- -- ------ ------<br>--- ----- -- ----,234899.2500000022,234898.3550000048,234235.319,234238.4349999993,234252.002,234901.675,,18,romantic
screen,html.Screen,1_1_0_1_19,2021-04-21T23:11:18.754Z,,,,,,,,,,,,,,,,53,,,,,,,,,,,,,,580.2550000017509,,response,,,,99,,,,,,,Space,keypress(Space),,,,,,,,---- -- ----- -- ------ - ------- --- ----------<br>------------- ------ ------ ---- ---- ------- ----- -- ----<br>-------- partner -- ---------- --- - --- ----- ----- ----<br>---- --- --- ----- --- ---- ---- ------- ----- ---- -------<br>--- --- -- ----- -- --- ---- -- --- ---- -- ------ ------<br>--- ----- -- ----,235482.80499999964,235481.93000000174,234885.404,234899.42500000325,234901.675,235484.784,,19,partner
screen,html.Screen,1_1_0_1_20,2021-04-21T23:11:19.227Z,,,,,,,,,,,,,,,,53,,,,,,,,,,,,,,469.7060000037018,,response,,,,99,,,,,,,Space,keypress(Space),,,,,,,,---- -- ----- -- ------ - ------- --- ----------<br>------------- ------ ------ ---- ---- ------- ----- -- ----<br>-------- ------- is ---------- --- - --- ----- ----- ----<br>---- --- --- ----- --- ---- ---- ------- ----- ---- -------<br>--- --- -- ----- -- --- ---- -- --- ---- -- ------ ------<br>--- ----- -- ----,235955.3950000045,235954.49000000372,235468.423,235482.96500000288,235484.784,235968.138,,20,is
screen,html.Screen,1_1_0_1_21,2021-04-21T23:11:20.304Z,,,,,,,,,,,,,,,,53,,,,,,,,,,,,,,1063.7870000029507,,response,,,,99,,,,,,,Space,keypress(Space),,,,,,,,---- -- ----- -- ------ - ------- --- ----------<br>------------- ------ ------ ---- ---- ------- ----- -- ----<br>-------- ------- -- paramount. --- - --- ----- ----- ----<br>---- --- --- ----- --- ---- ---- ------- ----- ---- -------<br>--- --- -- ----- -- --- ---- -- --- ---- -- ------ ------<br>--- ----- -- ----,237032.72000000288,237031.92500000296,235951.507,235955.56000000215,235968.138,237056.446,,21,paramount.
screen,html.Screen,1_1_0_1_22,2021-04-21T23:11:20.893Z,,,,,,,,,,,,,,,,53,,,,,,,,,,,,,,563.7890000021434,,response,,,,99,,,,,,,Space,keypress(Space),,,,,,,,---- -- ----- -- ------ - ------- --- ----------<br>------------- ------ ------ ---- ---- ------- ----- -- ----<br>-------- ------- -- ---------- But - --- ----- ----- ----<br>---- --- --- ----- --- ---- ---- ------- ----- ---- -------<br>--- --- -- ----- -- --- ---- -- --- ---- -- ------ ------<br>--- ----- -- ----,237621.08000000444,237620.23500000214,237017.785,237032.88500000053,237056.446,237634.112,,22,But
screen,html.Screen,1_1_0_1_23,2021-04-21T23:11:21.389Z,,,,,,,,,,,,,,,,53,,,,,,,,,,,,,,482.9729999980482,,response,,,,99,,,,,,,Space,keypress(Space),,,,,,,,---- -- ----- -- ------ - ------- --- ----------<br>------------- ------ ------ ---- ---- ------- ----- -- ----<br>-------- ------- -- ---------- --- a --- ----- ----- ----<br>---- --- --- ----- --- ---- ---- ------- ----- ---- -------<br>--- --- -- ----- -- --- ---- -- --- ---- -- ------ ------<br>--- ----- -- ----,238117.88499999966,238117.08499999804,237617.382,237621.2450000021,237634.112,238133.897,,23,a
screen,html.Screen,1_1_0_1_24,2021-04-21T23:11:21.895Z,,,,,,,,,,,,,,,,53,,,,,,,,,,,,,,488.4880000023986,,response,,,,99,,,,,,,Space,keypress(Space),,,,,,,,---- -- ----- -- ------ - ------- --- ----------<br>------------- ------ ------ ---- ---- ------- ----- -- ----<br>-------- ------- -- ---------- --- - new ----- ----- ----<br>---- --- --- ----- --- ---- ---- ------- ----- ---- -------<br>--- --- -- ----- -- --- ---- -- --- ---- -- ------ ------<br>--- ----- -- ----,238623.2549999986,238622.3850000024,238117.284,238118.0450000029,238133.897,238633.756,,24,new
screen,html.Screen,1_1_0_1_25,2021-04-21T23:11:22.326Z,,,,,,,,,,,,,,,,53,,,,,,,,,,,,,,419.8889999999665,,response,,,,99,,,,,,,Space,keypress(Space),,,,,,,,---- -- ----- -- ------ - ------- --- ----------<br>------------- ------ ------ ---- ---- ------- ----- -- ----<br>-------- ------- -- ---------- --- - --- study ----- ----<br>---- --- --- ----- --- ---- ---- ------- ----- ---- -------<br>--- --- -- ----- -- --- ---- -- --- ---- -- ------ ------<br>--- ----- -- ----,239054.50500000006,239053.64499999996,238617.078,238623.41500000184,238633.756,239066.871,,25,study
screen,html.Screen,1_1_0_1_26,2021-04-21T23:11:22.989Z,,,,,,,,,,,,,,,,53,,,,,,,,,,,,,,649.329000002559,,response,,,,99,,,,,,,Space,keypress(Space),,,,,,,,---- -- ----- -- ------ - ------- --- ----------<br>------------- ------ ------ ---- ---- ------- ----- -- ----<br>-------- ------- -- ---------- --- - --- ----- finds ----<br>---- --- --- ----- --- ---- ---- ------- ----- ---- -------<br>--- --- -- ----- -- --- ---- -- --- ---- -- ------ ------<br>--- ----- -- ----,239717.08000000217,239716.20000000257,239050.22,239054.6699999977,239066.871,239733.121,,26,finds
screen,html.Screen,1_1_0_1_27,2021-04-21T23:11:23.562Z,,,,,,,,,,,,,,,,53,,,,,,,,,,,,,,556.9540000044217,,response,,,,99,,,,,,,Space,keypress(Space),,,,,,,,---- -- ----- -- ------ - ------- --- ----------<br>------------- ------ ------ ---- ---- ------- ----- -- ----<br>-------- ------- -- ---------- --- - --- ----- ----- that<br>---- --- --- ----- --- ---- ---- ------- ----- ---- -------<br>--- --- -- ----- -- --- ---- -- --- ---- -- ------ ------<br>--- ----- -- ----,240290.95000000234,240290.07500000444,239716.496,239717.23999999813,239733.121,240299.661,,27,that
screen,html.Screen,1_1_0_1_28,2021-04-21T23:11:24.115Z,,,,,,,,,,,,,,,,53,,,,,,,,,,,,,,543.2840000039723,,response,,,,99,,,,,,,Space,keypress(Space),,,,,,,,---- -- ----- -- ------ - ------- --- ----------<br>------------- ------ ------ ---- ---- ------- ----- -- ----<br>-------- ------- -- ---------- --- - --- ----- ----- ----<br>it's --- --- ----- --- ---- ---- ------- ----- ---- -------<br>--- --- -- ----- -- --- ---- -- --- ---- -- ------ ------<br>--- ----- -- ----,240843.80999999848,240842.94500000397,240282.886,240291.1099999983,240299.661,240849.028,,28,it's
screen,html.Screen,1_1_0_1_29,2021-04-21T23:11:24.740Z,,,,,,,,,,,,,,,,53,,,,,,,,,,,,,,618.547000002407,,response,,,,99,,,,,,,Space,keypress(Space),,,,,,,,---- -- ----- -- ------ - ------- --- ----------<br>------------- ------ ------ ---- ---- ------- ----- -- ----<br>-------- ------- -- ---------- --- - --- ----- ----- ----<br>---- not --- ----- --- ---- ---- ------- ----- ---- -------<br>--- --- -- ----- -- --- ---- -- --- ---- -- ------ ------<br>--- ----- -- ----,241468.6750000037,241467.5750000024,240832.748,240843.97000000172,240849.028,241482.192,,29,not
screen,html.Screen,1_1_0_1_30,2021-04-21T23:11:25.470Z,,,,,,,,,,,,,,,,53,,,,,,,,,,,,,,715.7830000027607,,response,,,,99,,,,,,,Space,keypress(Space),,,,,,,,---- -- ----- -- ------ - ------- --- ----------<br>------------- ------ ------ ---- ---- ------- ----- -- ----<br>-------- ------- -- ---------- --- - --- ----- ----- ----<br>---- --- how ----- --- ---- ---- ------- ----- ---- -------<br>--- --- -- ----- -- --- ---- -- --- ---- -- ------ ------<br>--- ----- -- ----,242198.9900000044,242197.97500000277,241465.725,241470.30000000086,241482.192,242215.511,,30,how
screen,html.Screen,1_1_0_1_31,2021-04-21T23:11:25.986Z,,,,,,,,,,,,,,,,53,,,,,,,,,,,,,,498.67400000436464,,response,,,,99,,,,,,,Space,keypress(Space),,,,,,,,---- -- ----- -- ------ - ------- --- ----------<br>------------- ------ ------ ---- ---- ------- ----- -- ----<br>-------- ------- -- ---------- --- - --- ----- ----- ----<br>---- --- --- close --- ---- ---- ------- ----- ---- -------<br>--- --- -- ----- -- --- ---- -- --- ---- -- ------ ------<br>--- ----- -- ----,242714.9849999987,242714.18500000436,242198.824,242199.14499999868,242215.511,242731.856,,31,close
screen,html.Screen,1_1_0_1_32,2021-04-21T23:11:26.463Z,,,,,,,,,,,,,,,,53,,,,,,,,,,,,,,458.3440000045521,,response,,,,99,,,,,,,Space,keypress(Space),,,,,,,,---- -- ----- -- ------ - ------- --- ----------<br>------------- ------ ------ ---- ---- ------- ----- -- ----<br>-------- ------- -- ---------- --- - --- ----- ----- ----<br>---- --- --- ----- you ---- ---- ------- ----- ---- -------<br>--- --- -- ----- -- --- ---- -- --- ---- -- ------ ------<br>--- ----- -- ----,243191.09500000195,243190.20000000455,242715.219,242715.14000000025,242731.856,243197.99,,32,you
screen,html.Screen,1_1_0_1_33,2021-04-21T23:11:26.877Z,,,,,,,,,,,,,,,,53,,,,,,,,,,,,,,406.5100000012899,,response,,,,99,,,,,,,Space,keypress(Space),,,,,,,,---- -- ----- -- ------ - ------- --- ----------<br>------------- ------ ------ ---- ---- ------- ----- -- ----<br>-------- ------- -- ---------- --- - --- ----- ----- ----<br>---- --- --- ----- --- feel ---- ------- ----- ---- -------<br>--- --- -- ----- -- --- ---- -- --- ---- -- ------ ------<br>--- ----- -- ----,243605.37000000477,243604.50000000128,243181.718,243191.230000004,243197.99,243614.57,,33,feel
screen,html.Screen,1_1_0_1_34,2021-04-21T23:11:27.270Z,,,,,,,,,,,,,,,,53,,,,,,,,,,,,,,383.48000000196043,,response,,,,99,,,,,,,Space,keypress(Space),,,,,,,,---- -- ----- -- ------ - ------- --- ----------<br>------------- ------ ------ ---- ---- ------- ----- -- ----<br>-------- ------- -- ---------- --- - --- ----- ----- ----<br>---- --- --- ----- --- ---- that ------- ----- ---- -------<br>--- --- -- ----- -- --- ---- -- --- ---- -- ------ ------<br>--- ----- -- ----,243998.95000000106,243998.05000000197,243597.792,243605.52000000462,243614.57,244014.571,,34,that
screen,html.Screen,1_1_0_1_35,2021-04-21T23:11:27.776Z,,,,,,,,,,,,,,,,53,,,,,,,,,,,,,,489.32900000334485,,response,,,,99,,,,,,,Space,keypress(Space),,,,,,,,---- -- ----- -- ------ - ------- --- ----------<br>------------- ------ ------ ---- ---- ------- ----- -- ----<br>-------- ------- -- ---------- --- - --- ----- ----- ----<br>---- --- --- ----- --- ---- ---- matters ----- ---- -------<br>--- --- -- ----- -- --- ---- -- --- ---- -- ------ ------<br>--- ----- -- ----,244504.82000000193,244503.90000000334,243997.928,243999.1050000026,244014.571,244514.366,,35,matters
screen,html.Screen,1_1_0_1_36,2021-04-21T23:11:28.308Z,,,,,,,,,,,,,,,,53,,,,,,,,,,,,,,521.4940000035858,,response,,,,99,,,,,,,Space,keypress(Space),,,,,,,,"---- -- ----- -- ------ - ------- --- ----------<br>------------- ------ ------ ---- ---- ------- ----- -- ----<br>-------- ------- -- ---------- --- - --- ----- ----- ----<br>---- --- --- ----- --- ---- ---- ------- most, ---- -------<br>--- --- -- ----- -- --- ---- -- --- ---- -- ------ ------<br>--- ----- -- ----",245036.74500000488,245035.8600000036,244497.661,244504.97500000347,244514.366,245047.291,,36,"most,"
screen,html.Screen,1_1_0_1_37,2021-04-21T23:11:28.771Z,,,,,,,,,,,,,,,,53,,,,,,,,,,,,,,450.93900000469876,,response,,,,99,,,,,,,Space,keypress(Space),,,,,,,,---- -- ----- -- ------ - ------- --- ----------<br>------------- ------ ------ ---- ---- ------- ----- -- ----<br>-------- ------- -- ---------- --- - --- ----- ----- ----<br>---- --- --- ----- --- ---- ---- ------- ----- it's -------<br>--- --- -- ----- -- --- ---- -- --- ---- -- ------ ------<br>--- ----- -- ----,245499.02999999904,245498.2300000047,245030.507,245036.90500000084,245047.291,245514.014,,37,it's
screen,html.Screen,1_1_0_1_38,2021-04-21T23:11:29.228Z,,,,,,,,,,,,,,,,53,,,,,,,,,,,,,,441.1459999977087,,response,,,,99,,,,,,,Space,keypress(Space),,,,,,,,---- -- ----- -- ------ - ------- --- ----------<br>------------- ------ ------ ---- ---- ------- ----- -- ----<br>-------- ------- -- ---------- --- - --- ----- ----- ----<br>---- --- --- ----- --- ---- ---- ------- ----- ---- whether<br>--- --- -- ----- -- --- ---- -- --- ---- -- ------ ------<br>--- ----- -- ----,245956.06000000407,245955.1599999977,245497.356,245499.19500000397,245514.014,245963.457,,38,whether
screen,html.Screen,1_1_0_1_39,2021-04-21T23:11:29.699Z,,,,,,,,,,,,,,,,53,,,,,,,,,,,,,,463.4029999995837,,response,,,,99,,,,,,,Space,keypress(Space),,,,,,,,---- -- ----- -- ------ - ------- --- ----------<br>------------- ------ ------ ---- ---- ------- ----- -- ----<br>-------- ------- -- ---------- --- - --- ----- ----- ----<br>---- --- --- ----- --- ---- ---- ------- ----- ---- -------<br>you --- -- ----- -- --- ---- -- --- ---- -- ------ ------<br>--- ----- -- ----,246427.73000000307,246426.85999999958,245947.075,245956.21499999834,245963.457,246429.862,,39,you
screen,html.Screen,1_1_0_1_40,2021-04-21T23:11:30.108Z,,,,,,,,,,,,,,,,53,,,,,,,,,,,,,,405.83800000327756,,response,,,,99,,,,,,,Space,keypress(Space),,,,,,,,---- -- ----- -- ------ - ------- --- ----------<br>------------- ------ ------ ---- ---- ------- ----- -- ----<br>-------- ------- -- ---------- --- - --- ----- ----- ----<br>---- --- --- ----- --- ---- ---- ------- ----- ---- -------<br>--- are -- ----- -- --- ---- -- --- ---- -- ------ ------<br>--- ----- -- ----,246836.57500000118,246835.70000000327,246413.512,246427.88999999902,246429.862,246846.748,,40,are
screen,html.Screen,1_1_0_1_41,2021-04-21T23:11:30.551Z,,,,,,,,,,,,,,,,53,,,,,,,,,,,,,,432.4520000045013,,response,,,,99,,,,,,,Space,keypress(Space),,,,,,,,---- -- ----- -- ------ - ------- --- ----------<br>------------- ------ ------ ---- ---- ------- ----- -- ----<br>-------- ------- -- ---------- --- - --- ----- ----- ----<br>---- --- --- ----- --- ---- ---- ------- ----- ---- -------<br>--- --- as ----- -- --- ---- -- --- ---- -- ------ ------<br>--- ----- -- ----,247279.98500000103,247279.2000000045,246829.96,246836.7350000044,246846.748,247296.509,,41,as
screen,html.Screen,1_1_0_1_42,2021-04-21T23:11:30.994Z,,,,,,,,,,,,,,,,53,,,,,,,,,,,,,,425.7159999977157,,response,,,,99,,,,,,,Space,keypress(Space),,,,,,,,---- -- ----- -- ------ - ------- --- ----------<br>------------- ------ ------ ---- ---- ------- ----- -- ----<br>-------- ------- -- ---------- --- - --- ----- ----- ----<br>---- --- --- ----- --- ---- ---- ------- ----- ---- -------<br>--- --- -- close -- --- ---- -- --- ---- -- ------ ------<br>--- ----- -- ----,247723.01500000322,247722.2249999977,247279.828,247280.13500000088,247296.509,247729.56,,42,close
screen,html.Screen,1_1_0_1_43,2021-04-21T23:11:31.408Z,,,,,,,,,,,,,,,,53,,,,,,,,,,,,,,405.754999999539,,response,,,,99,,,,,,,Space,keypress(Space),,,,,,,,---- -- ----- -- ------ - ------- --- ----------<br>------------- ------ ------ ---- ---- ------- ----- -- ----<br>-------- ------- -- ---------- --- - --- ----- ----- ----<br>---- --- --- ----- --- ---- ---- ------- ----- ---- -------<br>--- --- -- ----- as --- ---- -- --- ---- -- ------ ------<br>--- ----- -- ----,248136.16000000184,248135.31499999954,247712.983,247723.16500000306,247729.56,248146.106,,43,as
screen,html.Screen,1_1_0_1_44,2021-04-21T23:11:31.847Z,,,,,,,,,,,,,,,,53,,,,,,,,,,,,,,428.6790000043402,,response,,,,99,,,,,,,Space,keypress(Space),,,,,,,,---- -- ----- -- ------ - ------- --- ----------<br>------------- ------ ------ ---- ---- ------- ----- -- ----<br>-------- ------- -- ---------- --- - --- ----- ----- ----<br>---- --- --- ----- --- ---- ---- ------- ----- ---- -------<br>--- --- -- ----- -- you ---- -- --- ---- -- ------ ------<br>--- ----- -- ----,248575.65500000055,248574.78500000434,248129.347,248136.31500000338,248146.106,248578.929,,44,you
screen,html.Screen,1_1_0_1_45,2021-04-21T23:11:32.302Z,,,,,,,,,,,,,,,,53,,,,,,,,,,,,,,450.82600000320235,,response,,,,99,,,,,,,Space,keypress(Space),,,,,,,,---- -- ----- -- ------ - ------- --- ----------<br>------------- ------ ------ ---- ---- ------- ----- -- ----<br>-------- ------- -- ---------- --- - --- ----- ----- ----<br>---- --- --- ----- --- ---- ---- ------- ----- ---- -------<br>--- --- -- ----- -- --- want -- --- ---- -- ------ ------<br>--- ----- -- ----,249030.74000000197,249029.7550000032,248562.686,248575.7999999987,248578.929,249045.787,,45,want
screen,html.Screen,1_1_0_1_46,2021-04-21T23:11:32.708Z,,,,,,,,,,,,,,,,53,,,,,,,,,,,,,,389.54800000193063,,response,,,,99,,,,,,,Space,keypress(Space),,,,,,,,---- -- ----- -- ------ - ------- --- ----------<br>------------- ------ ------ ---- ---- ------- ----- -- ----<br>-------- ------- -- ---------- --- - --- ----- ----- ----<br>---- --- --- ----- --- ---- ---- ------- ----- ---- -------<br>--- --- -- ----- -- --- ---- to --- ---- -- ------ ------<br>--- ----- -- ----,249436.27500000002,249435.33500000194,249028.994,249030.8950000035,249045.787,249445.314,,46,to
screen,html.Screen,1_1_0_1_47,2021-04-21T23:11:33.373Z,,,,,,,,,,,,,,,,53,,,,,,,,,,,,,,655.7060000018682,,response,,,,99,,,,,,,Space,keypress(Space),,,,,,,,"---- -- ----- -- ------ - ------- --- ----------<br>------------- ------ ------ ---- ---- ------- ----- -- ----<br>-------- ------- -- ---------- --- - --- ----- ----- ----<br>---- --- --- ----- --- ---- ---- ------- ----- ---- -------<br>--- --- -- ----- -- --- ---- -- be, ---- -- ------ ------<br>--- ----- -- ----",250101.90000000148,250101.02000000188,249428.944,249436.43000000156,249445.314,250111.947,,47,"be,"
screen,html.Screen,1_1_0_1_48,2021-04-21T23:11:33.752Z,,,,,,,,,,,,,,,,53,,,,,,,,,,,,,,367.71799999894574,,response,,,,99,,,,,,,Space,keypress(Space),,,,,,,,---- -- ----- -- ------ - ------- --- ----------<br>------------- ------ ------ ---- ---- ------- ----- -- ----<br>-------- ------- -- ---------- --- - --- ----- ----- ----<br>---- --- --- ----- --- ---- ---- ------- ----- ---- -------<br>--- --- -- ----- -- --- ---- -- --- even -- ------ ------<br>--- ----- -- ----,250480.49500000343,250479.66499999893,250095.32,250102.04499999963,250111.947,250495.162,,48,even
screen,html.Screen,1_1_0_1_49,2021-04-21T23:11:34.239Z,,,,,,,,,,,,,,,,53,,,,,,,,,,,,,,471.7880000018049,,response,,,,99,,,,,,,Space,keypress(Space),,,,,,,,---- -- ----- -- ------ - ------- --- ----------<br>------------- ------ ------ ---- ---- ------- ----- -- ----<br>-------- ------- -- ---------- --- - --- ----- ----- ----<br>---- --- --- ----- --- ---- ---- ------- ----- ---- -------<br>--- --- -- ----- -- --- ---- -- --- ---- if ------ ------<br>--- ----- -- ----,250967.75000000343,250966.95000000182,250478.481,250480.6499999977,250495.162,250978.184,,49,if
screen,html.Screen,1_1_0_1_50,2021-04-21T23:11:34.686Z,,,,,,,,,,,,,,,,53,,,,,,,,,,,,,,435.83600000379374,,response,,,,99,,,,,,,Space,keypress(Space),,,,,,,,---- -- ----- -- ------ - ------- --- ----------<br>------------- ------ ------ ---- ---- ------- ----- -- ----<br>-------- ------- -- ---------- --- - --- ----- ----- ----<br>---- --- --- ----- --- ---- ---- ------- ----- ---- -------<br>--- --- -- ----- -- --- ---- -- --- ---- -- that's ------<br>--- ----- -- ----,251414.86499999883,251414.0200000038,250961.49,250968.00000000076,250978.184,251427.98,,50,that's
screen,html.Screen,1_1_0_1_51,2021-04-21T23:11:35.174Z,,,,,,,,,,,,,,,,53,,,,,,,,,,,,,,474.135000004404,,response,,,,99,,,,,,,Space,keypress(Space),,,,,,,,---- -- ----- -- ------ - ------- --- ----------<br>------------- ------ ------ ---- ---- ------- ----- -- ----<br>-------- ------- -- ---------- --- - --- ----- ----- ----<br>---- --- --- ----- --- ---- ---- ------- ----- ---- -------<br>--- --- -- ----- -- --- ---- -- --- ---- -- ------ really<br>--- ----- -- ----,251903.0100000018,251902.1150000044,251411.411,251415.01499999868,251427.98,251911.163,,51,really
screen,html.Screen,1_1_0_1_52,2021-04-21T23:11:35.692Z,,,,,,,,,,,,,,,,53,,,,,,,,,,,,,,508.5619999997434,,response,,,,99,,,,,,,Space,keypress(Space),,,,,,,,---- -- ----- -- ------ - ------- --- ----------<br>------------- ------ ------ ---- ---- ------- ----- -- ----<br>-------- ------- -- ---------- --- - --- ----- ----- ----<br>---- --- --- ----- --- ---- ---- ------- ----- ---- -------<br>--- --- -- ----- -- --- ---- -- --- ---- -- ------ ------<br>not ----- -- ----,252420.6950000007,252419.72499999974,251894.513,251903.16500000336,251911.163,252427.292,,52,not
screen,html.Screen,1_1_0_1_53,2021-04-21T23:11:36.127Z,,,,,,,,,,,,,,,,53,,,,,,,,,,,,,,427.7530000038969,,response,,,,99,,,,,,,Space,keypress(Space),,,,,,,,---- -- ----- -- ------ - ------- --- ----------<br>------------- ------ ------ ---- ---- ------- ----- -- ----<br>-------- ------- -- ---------- --- - --- ----- ----- ----<br>---- --- --- ----- --- ---- ---- ------- ----- ---- -------<br>--- --- -- ----- -- --- ---- -- --- ---- -- ------ ------<br>--- close -- ----,252855.9200000018,252855.04500000388,252410.813,252420.84500000055,252427.292,252860.353,,53,close
screen,html.Screen,1_1_0_1_54,2021-04-21T23:11:36.511Z,,,,,,,,,,,,,,,,53,,,,,,,,,,,,,,377.7970000046771,,response,,,,99,,,,,,,Space,keypress(Space),,,,,,,,---- -- ----- -- ------ - ------- --- ----------<br>------------- ------ ------ ---- ---- ------- ----- -- ----<br>-------- ------- -- ---------- --- - --- ----- ----- ----<br>---- --- --- ----- --- ---- ---- ------- ----- ---- -------<br>--- --- -- ----- -- --- ---- -- --- ---- -- ------ ------<br>--- ----- at ----,253239.02500000258,253238.15000000468,252844.098,252856.06499999994,252860.353,253243.98,,54,at
screen,html.Screen,1_1_0_1_55,2021-04-21T23:11:36.945Z,,,,,,,,,,,,,,,,53,,,,,,,,,,,,,,429.07499999928405,,response,,,,99,,,,,,,Space,keypress(Space),,,,,,,,---- -- ----- -- ------ - ------- --- ----------<br>------------- ------ ------ ---- ---- ------- ----- -- ----<br>-------- ------- -- ---------- --- - --- ----- ----- ----<br>---- --- --- ----- --- ---- ---- ------- ----- ---- -------<br>--- --- -- ----- -- --- ---- -- --- ---- -- ------ ------<br>--- ----- -- all.,253673.9099999977,253673.0549999993,253227.113,253239.18000000413,253243.98,253676.663,,55,all.
Item 99,flow.Loop,1_1_0_1,2021-04-21T23:11:36.946Z,,,,,,,,,,,,,,,,,,,,,,,,,,,,,,34780.957999999286,,completion,,,,,D,,,,,,,,,,,silence,,,,,253674.2200000008,253673.0549999993,218842.43,218843.4750000015,218892.097,253676.663,,,
Question 1,html.Screen,1_1_0_2,2021-04-21T23:11:45.396Z,,,,,,,,,,,,,,,,,,,,,,,,,,,false,FALSE,,8447.126999997825,,response,,,,99,D,,,,,,TRUE,click #choice-1,,,,silence,,,,,262125.01000000339,262123.78999999783,253660.322,253674.35500000283,253676.663,262139.879,,,
Question 2,html.Screen,1_1_0_3,2021-04-21T23:11:51.098Z,,,,,,,,,,,,,,,,,,,,,,,,,,,false,TRUE,,5685.2460000030405,,response,,,,99,D,,,,,,FALSE,click #choice-2,,,,silence,,,,,267826.3750000042,267825.125000003,262123.176,262125.17500000104,262139.879,267837.255,,,
Item 99,flow.Sequence,1_1_0,2021-04-21T23:11:51.098Z,,,,,,,,,,,,,,,,,,,,,,,,,,,,,,58961.86300000304,,completion,,,,,,,,,,,,,,,,,,,,,267826.6100000037,267825.125000003,208846.606,208862.44499999884,208863.262,267837.255,,,
Holding screen,html.Screen,1_1_1_0,2021-04-21T23:12:01.088Z,,,,,,,,,,,,,,,,,,,,,,,,,,,,,,9995.436999999976,,timeout,,,,,,,,,,,,,,,,,,,,,277816.8300000034,277816.091,267820.657,267826.764999998,267837.255,277832.692,,,
screen,html.Screen,1_1_1_1_0,2021-04-21T23:12:01.903Z,,,,,,,,,,,,,,,,54,,,,,,,,,,,,,,797.6779999989667,,response,,,,100,,,,,,,Space,keypress(Space),,,,,,,,At --- ---- --- ------ ----- ------- ---- -- --- ------- --<br>------- ---------- ------ -- ----- -- ----- -- ---- ------<br>--- ----- --- --- ------ -------- ----- --- ------ ----- --<br>----- ----- ---------- --- --- ------ ------ ---- -- ------<br>------- --- ------ ----- --- ---- ------- -- ---- --- --<br>------- ------,278631.19500000175,278630.36999999895,277816.091,277817.03500000003,277832.692,278663.491,,0,At
screen,html.Screen,1_1_1_1_1,2021-04-21T23:12:02.420Z,,,,,,,,,,,,,,,,54,,,,,,,,,,,,,,483.7390000023297,,response,,,,100,,,,,,,Space,keypress(Space),,,,,,,,-- the ---- --- ------ ----- ------- ---- -- --- ------- --<br>------- ---------- ------ -- ----- -- ----- -- ---- ------<br>--- ----- --- --- ------ -------- ----- --- ------ ----- --<br>----- ----- ---------- --- --- ------ ------ ---- -- ------<br>------- --- ------ ----- --- ---- ------- -- ---- --- --<br>------- ------,279148.1950000016,279147.2300000023,278615.872,278631.3549999977,278663.491,279165.492,,1,the
screen,html.Screen,1_1_1_1_2,2021-04-21T23:12:03.026Z,,,,,,,,,,,,,,,,54,,,,,,,,,,,,,,587.9679999998771,,response,,,,100,,,,,,,Space,keypress(Space),,,,,,,,-- --- time --- ------ ----- ------- ---- -- --- ------- --<br>------- ---------- ------ -- ----- -- ----- -- ---- ------<br>--- ----- --- --- ------ -------- ----- --- ------ ----- --<br>----- ----- ---------- --- --- ------ ------ ---- -- ------<br>------- --- ------ ----- --- ---- ------- -- ---- --- --<br>------- ------,279754.4049999997,279753.4599999999,279132.316,279148.33999999973,279165.492,279765.508,,2,time
screen,html.Screen,1_1_1_1_3,2021-04-21T23:12:03.626Z,,,,,,,,,,,,,,,,54,,,,,,,,,,,,,,588.302000000549,,response,,,,100,,,,,,,Space,keypress(Space),,,,,,,,-- --- ---- the ------ ----- ------- ---- -- --- ------- --<br>------- ---------- ------ -- ----- -- ----- -- ---- ------<br>--- ----- --- --- ------ -------- ----- --- ------ ----- --<br>----- ----- ---------- --- --- ------ ------ ---- -- ------<br>------- --- ------ ----- --- ---- ------- -- ---- --- --<br>------- ------,280354.6350000033,280353.8100000005,279748.674,279754.5600000012,279765.508,280365.232,,3,the
screen,html.Screen,1_1_1_1_4,2021-04-21T23:12:04.290Z,,,,,,,,,,,,,,,,54,,,,,,,,,,,,,,651.9979999976349,,response,,,,100,,,,,,,Space,keypress(Space),,,,,,,,-- --- ---- --- French ----- ------- ---- -- --- ------- --<br>------- ---------- ------ -- ----- -- ----- -- ---- ------<br>--- ----- --- --- ------ -------- ----- --- ------ ----- --<br>----- ----- ---------- --- --- ------ ------ ---- -- ------<br>------- --- ------ ----- --- ---- ------- -- ---- --- --<br>------- ------,281018.1750000047,281017.22999999765,280348.546,280354.7850000032,280365.232,281031.248,,4,French
screen,html.Screen,1_1_1_1_5,2021-04-21T23:12:05.525Z,,,,,,,,,,,,,,,,54,,,,,,,,,,,,,,1221.0120000010938,,response,,,,100,,,,,,,Space,keypress(Space),,,,,,,,-- --- ---- --- ------ crown ------- ---- -- --- ------- --<br>------- ---------- ------ -- ----- -- ----- -- ---- ------<br>--- ----- --- --- ------ -------- ----- --- ------ ----- --<br>----- ----- ---------- --- --- ------ ------ ---- -- ------<br>------- --- ------ ----- --- ---- ------- -- ---- --- --<br>------- ------,282253.1549999985,282252.2600000011,281014.805,281018.32500000455,281031.248,282264.379,,5,crown
screen,html.Screen,1_1_1_1_6,2021-04-21T23:12:06.747Z,,,,,,,,,,,,,,,,54,,,,,,,,,,,,,,1210.450999999186,,response,,,,100,,,,,,,Space,keypress(Space),,,,,,,,-- --- ---- --- ------ ----- secured ---- -- --- ------- --<br>------- ---------- ------ -- ----- -- ----- -- ---- ------<br>--- ----- --- --- ------ -------- ----- --- ------ ----- --<br>----- ----- ---------- --- --- ------ ------ ---- -- ------<br>------- --- ------ ----- --- ---- ------- -- ---- --- --<br>------- ------,283475.7000000027,283474.8299999992,282247.674,282253.31000000006,282264.379,283480.111,,6,secured
screen,html.Screen,1_1_1_1_7,2021-04-21T23:12:07.302Z,,,,,,,,,,,,,,,,54,,,,,,,,,,,,,,549.7340000045951,,response,,,,100,,,,,,,Space,keypress(Space),,,,,,,,-- --- ---- --- ------ ----- ------- much -- --- ------- --<br>------- ---------- ------ -- ----- -- ----- -- ---- ------<br>--- ----- --- --- ------ -------- ----- --- ------ ----- --<br>----- ----- ---------- --- --- ------ ------ ---- -- ------<br>------- --- ------ ----- --- ---- ------- -- ---- --- --<br>------- ------,284030.6700000001,284029.84500000457,283463.743,283475.85000000254,283480.111,284046.919,,7,much
screen,html.Screen,1_1_1_1_8,2021-04-21T23:12:07.681Z,,,,,,,,,,,,,,,,54,,,,,,,,,,,,,,361.8409999984433,,response,,,,100,,,,,,,Space,keypress(Space),,,,,,,,-- --- ---- --- ------ ----- ------- ---- of --- ------- --<br>------- ---------- ------ -- ----- -- ----- -- ---- ------<br>--- ----- --- --- ------ -------- ----- --- ------ ----- --<br>----- ----- ---------- --- --- ------ ------ ---- -- ------<br>------- --- ------ ----- --- ---- ------- -- ---- --- --<br>------- ------,284409.61000000243,284408.75999999844,284030.101,284030.81999999995,284046.919,284413.055,,8,of
screen,html.Screen,1_1_1_1_9,2021-04-21T23:12:08.378Z,,,,,,,,,,,,,,,,54,,,,,,,,,,,,,,692.5050000036135,,response,,,,100,,,,,,,Space,keypress(Space),,,,,,,,-- --- ---- --- ------ ----- ------- ---- -- its ------- --<br>------- ---------- ------ -- ----- -- ----- -- ---- ------<br>--- ----- --- --- ------ -------- ----- --- ------ ----- --<br>----- ----- ---------- --- --- ------ ------ ---- -- ------<br>------- --- ------ ----- --- ---- ------- -- ---- --- --<br>------- ------,285106.4100000003,285105.5600000036,284396.641,284409.765000004,284413.055,285112.772,,9,its
screen,html.Screen,1_1_1_1_10,2021-04-21T23:12:09.598Z,,,,,,,,,,,,,,,,54,,,,,,,,,,,,,,1213.408000003663,,response,,,,100,,,,,,,Space,keypress(Space),,,,,,,,-- --- ---- --- ------ ----- ------- ---- -- --- revenue --<br>------- ---------- ------ -- ----- -- ----- -- ---- ------<br>--- ----- --- --- ------ -------- ----- --- ------ ----- --<br>----- ----- ---------- --- --- ------ ------ ---- -- ------<br>------- --- ------ ----- --- ---- ------- -- ---- --- --<br>------- ------,286327.0100000009,286326.18000000366,285096.313,285106.5600000002,285112.772,286328.828,,10,revenue
screen,html.Screen,1_1_1_1_11,2021-04-21T23:12:10.329Z,,,,,,,,,,,,,,,,54,,,,,,,,,,,,,,727.6719999987981,,response,,,,100,,,,,,,Space,keypress(Space),,,,,,,,-- --- ---- --- ------ ----- ------- ---- -- --- ------- by<br>------- ---------- ------ -- ----- -- ----- -- ---- ------<br>--- ----- --- --- ------ -------- ----- --- ------ ----- --<br>----- ----- ---------- --- --- ------ ------ ---- -- ------<br>------- --- ------ ----- --- ---- ------- -- ---- --- --<br>------- ------,287057.2900000043,287056.4999999988,286312.485,286327.16000000073,286328.828,287061.883,,11,by
screen,html.Screen,1_1_1_1_12,2021-04-21T23:12:11.009Z,,,,,,,,,,,,,,,,54,,,,,,,,,,,,,,675.2070000023814,,response,,,,100,,,,,,,Space,keypress(Space),,,,,,,,-- --- ---- --- ------ ----- ------- ---- -- --- ------- --<br>issuing ---------- ------ -- ----- -- ----- -- ---- ------<br>--- ----- --- --- ------ -------- ----- --- ------ ----- --<br>----- ----- ---------- --- --- ------ ------ ---- -- ------<br>------- --- ------ ----- --- ---- ------- -- ---- --- --<br>------- ------,287737.93500000465,287737.09000000235,287045.522,287057.44000000414,287061.883,287744.972,,12,issuing
screen,html.Screen,1_1_1_1_13,2021-04-21T23:12:11.735Z,,,,,,,,,,,,,,,,54,,,,,,,,,,,,,,717.6980000007898,,response,,,,100,,,,,,,Space,keypress(Space),,,,,,,,-- --- ---- --- ------ ----- ------- ---- -- --- ------- --<br>------- government ------ -- ----- -- ----- -- ---- ------<br>--- ----- --- --- ------ -------- ----- --- ------ ----- --<br>----- ----- ---------- --- --- ------ ------ ---- -- ------<br>------- --- ------ ----- --- ---- ------- -- ---- --- --<br>------- ------,288463.4300000034,288462.6700000008,287728.469,287738.0850000045,287744.972,288478.192,,13,government
screen,html.Screen,1_1_1_1_14,2021-04-21T23:12:12.156Z,,,,,,,,,,,,,,,,54,,,,,,,,,,,,,,405.66800000175135,,response,,,,100,,,,,,,Space,keypress(Space),,,,,,,,-- --- ---- --- ------ ----- ------- ---- -- --- ------- --<br>------- ---------- bonds. -- ----- -- ----- -- ---- ------<br>--- ----- --- --- ------ -------- ----- --- ------ ----- --<br>----- ----- ---------- --- --- ------ ------ ---- -- ------<br>------- --- ------ ----- --- ---- ------- -- ---- --- --<br>------- ------,288884.7949999981,288883.86000000173,288461.51,288463.5899999994,288478.192,288894.689,,14,bonds.
screen,html.Screen,1_1_1_1_15,2021-04-21T23:12:12.645Z,,,,,,,,,,,,,,,,54,,,,,,,,,,,,,,478.33600000076694,,response,,,,100,,,,,,,Space,keypress(Space),,,,,,,,-- --- ---- --- ------ ----- ------- ---- -- --- ------- --<br>------- ---------- ------ In ----- -- ----- -- ---- ------<br>--- ----- --- --- ------ -------- ----- --- ------ ----- --<br>----- ----- ---------- --- --- ------ ------ ---- -- ------<br>------- --- ------ ----- --- ---- ------- -- ---- --- --<br>------- ------,289373.98000000394,289373.0250000008,288878.194,288884.94499999797,288894.689,289377.482,,15,In
screen,html.Screen,1_1_1_1_16,2021-04-21T23:12:13.235Z,,,,,,,,,,,,,,,,54,,,,,,,,,,,,,,585.5679999984568,,response,,,,100,,,,,,,Space,keypress(Space),,,,,,,,"-- --- ---- --- ------ ----- ------- ---- -- --- ------- --<br>------- ---------- ------ -- 1727, -- ----- -- ---- ------<br>--- ----- --- --- ------ -------- ----- --- ------ ----- --<br>----- ----- ---------- --- --- ------ ------ ---- -- ------<br>------- --- ------ ----- --- ---- ------- -- ---- --- --<br>------- ------",289963.93499999976,289963.0499999985,289361.113,289374.1349999982,289377.482,289977.598,,16,"1727,"
screen,html.Screen,1_1_1_1_17,2021-04-21T23:12:14.261Z,,,,,,,,,,,,,,,,54,,,,,,,,,,,,,,1011.0269999981392,,response,,,,100,,,,,,,Space,keypress(Space),,,,,,,,-- --- ---- --- ------ ----- ------- ---- -- --- ------- --<br>------- ---------- ------ -- ----- in ----- -- ---- ------<br>--- ----- --- --- ------ -------- ----- --- ------ ----- --<br>----- ----- ---------- --- --- ------ ------ ---- -- ------<br>------- --- ------ ----- --- ---- ------- -- ---- --- --<br>------- ------,290989.48999999993,290988.62499999814,289960.795,289964.0900000013,289977.598,290993.46,,17,in
screen,html.Screen,1_1_1_1_18,2021-04-21T23:12:14.807Z,,,,,,,,,,,,,,,,54,,,,,,,,,,,,,,541.6300000048359,,response,,,,100,,,,,,,Space,keypress(Space),,,,,,,,-- --- ---- --- ------ ----- ------- ---- -- --- ------- --<br>------- ---------- ------ -- ----- -- order -- ---- ------<br>--- ----- --- --- ------ -------- ----- --- ------ ----- --<br>----- ----- ---------- --- --- ------ ------ ---- -- ------<br>------- --- ------ ----- --- ---- ------- -- ---- --- --<br>------- ------,291535.98000000056,291535.09000000486,290976.836,290989.6399999998,290993.46,291543.597,,18,order
screen,html.Screen,1_1_1_1_19,2021-04-21T23:12:15.338Z,,,,,,,,,,,,,,,,54,,,,,,,,,,,,,,522.1380000037607,,response,,,,100,,,,,,,Space,keypress(Space),,,,,,,,-- --- ---- --- ------ ----- ------- ---- -- --- ------- --<br>------- ---------- ------ -- ----- -- ----- to ---- ------<br>--- ----- --- --- ------ -------- ----- --- ------ ----- --<br>----- ----- ---------- --- --- ------ ------ ---- -- ------<br>------- --- ------ ----- --- ---- ------- -- ---- --- --<br>------- ------,292066.5450000015,292065.73500000377,291526.764,291536.1350000021,291543.597,292076.686,,19,to
screen,html.Screen,1_1_1_1_20,2021-04-21T23:12:15.816Z,,,,,,,,,,,,,,,,54,,,,,,,,,,,,,,466.49400000058813,,response,,,,100,,,,,,,Space,keypress(Space),,,,,,,,-- --- ---- --- ------ ----- ------- ---- -- --- ------- --<br>------- ---------- ------ -- ----- -- ----- -- save ------<br>--- ----- --- --- ------ -------- ----- --- ------ ----- --<br>----- ----- ---------- --- --- ------ ------ ---- -- ------<br>------- --- ------ ----- --- ---- ------- -- ---- --- --<br>------- ------,292544.08500000136,292543.1800000006,292059.925,292066.69500000135,292076.686,292559.778,,20,save
screen,html.Screen,1_1_1_1_21,2021-04-21T23:12:16.522Z,,,,,,,,,,,,,,,,54,,,,,,,,,,,,,,689.7170000036713,,response,,,,100,,,,,,,Space,keypress(Space),,,,,,,,"-- --- ---- --- ------ ----- ------- ---- -- --- ------- --<br>------- ---------- ------ -- ----- -- ----- -- ---- money,<br>--- ----- --- --- ------ -------- ----- --- ------ ----- --<br>----- ----- ---------- --- --- ------ ------ ---- -- ------<br>------- --- ------ ----- --- ---- ------- -- ---- --- --<br>------- ------",293250.3300000026,293249.49500000366,292543.069,292544.2350000012,292559.778,293259.518,,21,"money,"
screen,html.Screen,1_1_1_1_22,2021-04-21T23:12:17.028Z,,,,,,,,,,,,,,,,54,,,,,,,,,,,,,,496.3120000018971,,response,,,,100,,,,,,,Space,keypress(Space),,,,,,,,-- --- ---- --- ------ ----- ------- ---- -- --- ------- --<br>------- ---------- ------ -- ----- -- ----- -- ---- ------<br>the ----- --- --- ------ -------- ----- --- ------ ----- --<br>----- ----- ---------- --- --- ------ ------ ---- -- ------<br>------- --- ------ ----- --- ---- ------- -- ---- --- --<br>------- ------,293756.6250000018,293755.8300000019,293242.813,293250.4800000024,293259.518,293758.866,,22,the
screen,html.Screen,1_1_1_1_23,2021-04-21T23:12:17.465Z,,,,,,,,,,,,,,,,54,,,,,,,,,,,,,,434.1040000037174,,response,,,,100,,,,,,,Space,keypress(Space),,,,,,,,-- --- ---- --- ------ ----- ------- ---- -- --- ------- --<br>------- ---------- ------ -- ----- -- ----- -- ---- ------<br>--- state --- --- ------ -------- ----- --- ------ ----- --<br>----- ----- ---------- --- --- ------ ------ ---- -- ------<br>------- --- ------ ----- --- ---- ------- -- ---- --- --<br>------- ------,294193.8650000011,294192.9700000037,293742.609,293756.78499999776,293758.866,294209.097,,23,state
screen,html.Screen,1_1_1_1_24,2021-04-21T23:12:17.893Z,,,,,,,,,,,,,,,,54,,,,,,,,,,,,,,411.778000000515,,response,,,,100,,,,,,,Space,keypress(Space),,,,,,,,-- --- ---- --- ------ ----- ------- ---- -- --- ------- --<br>------- ---------- ------ -- ----- -- ----- -- ---- ------<br>--- ----- cut --- ------ -------- ----- --- ------ ----- --<br>----- ----- ---------- --- --- ------ ------ ---- -- ------<br>------- --- ------ ----- --- ---- ------- -- ---- --- --<br>------- ------,294621.70000000333,294620.8750000005,294192.293,294194.00999999925,294209.097,294625.167,,24,cut
screen,html.Screen,1_1_1_1_25,2021-04-21T23:12:18.302Z,,,,,,,,,,,,,,,,54,,,,,,,,,,,,,,404.12299999856623,,response,,,,100,,,,,,,Space,keypress(Space),,,,,,,,-- --- ---- --- ------ ----- ------- ---- -- --- ------- --<br>------- ---------- ------ -- ----- -- ----- -- ---- ------<br>--- ----- --- the ------ -------- ----- --- ------ ----- --<br>----- ----- ---------- --- --- ------ ------ ---- -- ------<br>------- --- ------ ----- --- ---- ------- -- ---- --- --<br>------- ------,295030.16500000376,295029.2899999986,294608.82,294621.8500000032,294625.167,295041.956,,25,the
screen,html.Screen,1_1_1_1_26,2021-04-21T23:12:18.663Z,,,,,,,,,,,,,,,,54,,,,,,,,,,,,,,348.2290000038338,,response,,,,100,,,,,,,Space,keypress(Space),,,,,,,,-- --- ---- --- ------ ----- ------- ---- -- --- ------- --<br>------- ---------- ------ -- ----- -- ----- -- ---- ------<br>--- ----- --- --- bonds' -------- ----- --- ------ ----- --<br>----- ----- ---------- --- --- ------ ------ ---- -- ------<br>------- --- ------ ----- --- ---- ------- -- ---- --- --<br>------- ------,295391.04500000394,295390.18500000384,295025.313,295030.3150000036,295041.956,295408.488,,26,bonds'
screen,html.Screen,1_1_1_1_27,2021-04-21T23:12:19.339Z,,,,,,,,,,,,,,,,54,,,,,,,,,,,,,,657.5720000046422,,response,,,,100,,,,,,,Space,keypress(Space),,,,,,,,-- --- ---- --- ------ ----- ------- ---- -- --- ------- --<br>------- ---------- ------ -- ----- -- ----- -- ---- ------<br>--- ----- --- --- ------ interest ----- --- ------ ----- --<br>----- ----- ---------- --- --- ------ ------ ---- -- ------<br>------- --- ------ ----- --- ---- ------- -- ---- --- --<br>------- ------,296066.93500000256,296066.06000000465,295375.227,295391.1999999982,295408.488,296074.85,,27,interest
screen,html.Screen,1_1_1_1_28,2021-04-21T23:12:19.905Z,,,,,,,,,,,,,,,,54,,,,,,,,,,,,,,557.9600000028149,,response,,,,100,,,,,,,Space,keypress(Space),,,,,,,,-- --- ---- --- ------ ----- ------- ---- -- --- ------- --<br>------- ---------- ------ -- ----- -- ----- -- ---- ------<br>--- ----- --- --- ------ -------- rate. --- ------ ----- --<br>----- ----- ---------- --- --- ------ ------ ---- -- ------<br>------- --- ------ ----- --- ---- ------- -- ---- --- --<br>------- ------,296633.6950000041,296632.8100000028,296058.113,296067.0800000007,296074.85,296641.213,,28,rate.
screen,html.Screen,1_1_1_1_29,2021-04-21T23:12:20.413Z,,,,,,,,,,,,,,,,54,,,,,,,,,,,,,,499.6520000012242,,response,,,,100,,,,,,,Space,keypress(Space),,,,,,,,-- --- ---- --- ------ ----- ------- ---- -- --- ------- --<br>------- ---------- ------ -- ----- -- ----- -- ---- ------<br>--- ----- --- --- ------ -------- ----- The ------ ----- --<br>----- ----- ---------- --- --- ------ ------ ---- -- ------<br>------- --- ------ ----- --- ---- ------- -- ---- --- --<br>------- ------,297141.7550000042,297140.8650000012,296624.566,296633.84000000224,296641.213,297157.781,,29,The
screen,html.Screen,1_1_1_1_30,2021-04-21T23:12:21.034Z,,,,,,,,,,,,,,,,54,,,,,,,,,,,,,,603.184000001289,,response,,,,100,,,,,,,Space,keypress(Space),,,,,,,,-- --- ---- --- ------ ----- ------- ---- -- --- ------- --<br>------- ---------- ------ -- ----- -- ----- -- ---- ------<br>--- ----- --- --- ------ -------- ----- --- market ----- --<br>----- ----- ---------- --- --- ------ ------ ---- -- ------<br>------- --- ------ ----- --- ---- ------- -- ---- --- --<br>------- ------,297761.8450000009,297760.9650000013,297141.094,297141.90999999846,297157.781,297774.095,,30,market
screen,html.Screen,1_1_1_1_31,2021-04-21T23:12:21.587Z,,,,,,,,,,,,,,,,54,,,,,,,,,,,,,,540.460000004503,,response,,,,100,,,,,,,Space,keypress(Space),,,,,,,,-- --- ---- --- ------ ----- ------- ---- -- --- ------- --<br>------- ---------- ------ -- ----- -- ----- -- ---- ------<br>--- ----- --- --- ------ -------- ----- --- ------ value --<br>----- ----- ---------- --- --- ------ ------ ---- -- ------<br>------- --- ------ ----- --- ---- ------- -- ---- --- --<br>------- ------,298315.3300000049,298314.5550000045,297757.483,297762.00000000244,297774.095,298323.85,,31,value
screen,html.Screen,1_1_1_1_32,2021-04-21T23:12:22.085Z,,,,,,,,,,,,,,,,54,,,,,,,,,,,,,,488.21999999997206,,response,,,,100,,,,,,,Space,keypress(Space),,,,,,,,-- --- ---- --- ------ ----- ------- ---- -- --- ------- --<br>------- ---------- ------ -- ----- -- ----- -- ---- ------<br>--- ----- --- --- ------ -------- ----- --- ------ ----- of<br>----- ----- ---------- --- --- ------ ------ ---- -- ------<br>------- --- ------ ----- --- ---- ------- -- ---- --- --<br>------- ------,298812.94000000344,298812.06999999995,298307.254,298315.49000000086,298323.85,298823.697,,32,of
screen,html.Screen,1_1_1_1_33,2021-04-21T23:12:22.634Z,,,,,,,,,,,,,,,,54,,,,,,,,,,,,,,537.6030000041355,,response,,,,100,,,,,,,Space,keypress(Space),,,,,,,,-- --- ---- --- ------ ----- ------- ---- -- --- ------- --<br>------- ---------- ------ -- ----- -- ----- -- ---- ------<br>--- ----- --- --- ------ -------- ----- --- ------ ----- --<br>these ----- ---------- --- --- ------ ------ ---- -- ------<br>------- --- ------ ----- --- ---- ------- -- ---- --- --<br>------- ------,299362.17000000033,299361.3000000041,298807.028,298813.0900000033,298823.697,299373.453,,33,these
screen,html.Screen,1_1_1_1_34,2021-04-21T23:12:23.044Z,,,,,,,,,,,,,,,,54,,,,,,,,,,,,,,398.1019999993732,,response,,,,100,,,,,,,Space,keypress(Space),,,,,,,,-- --- ---- --- ------ ----- ------- ---- -- --- ------- --<br>------- ---------- ------ -- ----- -- ----- -- ---- ------<br>--- ----- --- --- ------ -------- ----- --- ------ ----- --<br>----- bonds ---------- --- --- ------ ------ ---- -- ------<br>------- --- ------ ----- --- ---- ------- -- ---- --- --<br>------- ------,299772.41499999946,299771.55499999935,299356.763,299362.3250000019,299373.453,299789.85,,34,bonds
screen,html.Screen,1_1_1_1_35,2021-04-21T23:12:23.631Z,,,,,,,,,,,,,,,,54,,,,,,,,,,,,,,568.7249999984051,,response,,,,100,,,,,,,Space,keypress(Space),,,,,,,,"-- --- ---- --- ------ ----- ------- ---- -- --- ------- --<br>------- ---------- ------ -- ----- -- ----- -- ---- ------<br>--- ----- --- --- ------ -------- ----- --- ------ ----- --<br>----- ----- plummeted, --- --- ------ ------ ---- -- ------<br>------- --- ------ ----- --- ---- ------- -- ---- --- --<br>------- ------",300359.49500000424,300358.5749999984,299756.632,299772.5649999993,299789.85,300373.002,,35,"plummeted,"
screen,html.Screen,1_1_1_1_36,2021-04-21T23:12:24.126Z,,,,,,,,,,,,,,,,54,,,,,,,,,,,,,,480.5429999981425,,response,,,,100,,,,,,,Space,keypress(Space),,,,,,,,-- --- ---- --- ------ ----- ------- ---- -- --- ------- --<br>------- ---------- ------ -- ----- -- ----- -- ---- ------<br>--- ----- --- --- ------ -------- ----- --- ------ ----- --<br>----- ----- ---------- and --- ------ ------ ---- -- ------<br>------- --- ------ ----- --- ---- ------- -- ---- --- --<br>------- ------,300854.3849999987,300853.5449999981,300356.272,300359.6400000024,300373.002,300874.472,,36,and
screen,html.Screen,1_1_1_1_37,2021-04-21T23:12:24.559Z,,,,,,,,,,,,,,,,54,,,,,,,,,,,,,,411.6329999992158,,response,,,,100,,,,,,,Space,keypress(Space),,,,,,,,-- --- ---- --- ------ ----- ------- ---- -- --- ------- --<br>------- ---------- ------ -- ----- -- ----- -- ---- ------<br>--- ----- --- --- ------ -------- ----- --- ------ ----- --<br>----- ----- ---------- --- the ------ ------ ---- -- ------<br>------- --- ------ ----- --- ---- ------- -- ---- --- --<br>------- ------,301286.9500000015,301286.1049999992,300839.243,300854.54000000027,300874.472,301288.898,,37,the
screen,html.Screen,1_1_1_1_38,2021-04-21T23:12:25.032Z,,,,,,,,,,,,,,,,54,,,,,,,,,,,,,,470.8220000018482,,response,,,,100,,,,,,,Space,keypress(Space),,,,,,,,-- --- ---- --- ------ ----- ------- ---- -- --- ------- --<br>------- ---------- ------ -- ----- -- ----- -- ---- ------<br>--- ----- --- --- ------ -------- ----- --- ------ ----- --<br>----- ----- ---------- --- --- market ------ ---- -- ------<br>------- --- ------ ----- --- ---- ------- -- ---- --- --<br>------- ------,301760.59499999974,301759.72000000183,301272.509,301287.10500000307,301288.898,301772.266,,38,market
screen,html.Screen,1_1_1_1_39,2021-04-21T23:12:25.663Z,,,,,,,,,,,,,,,,54,,,,,,,,,,,,,,618.114000004367,,response,,,,100,,,,,,,Space,keypress(Space),,,,,,,,-- --- ---- --- ------ ----- ------- ---- -- --- ------- --<br>------- ---------- ------ -- ----- -- ----- -- ---- ------<br>--- ----- --- --- ------ -------- ----- --- ------ ----- --<br>----- ----- ---------- --- --- ------ became ---- -- ------<br>------- --- ------ ----- --- ---- ------- -- ---- --- --<br>------- ------,302391.2449999989,302390.38000000437,301755.319,301760.7449999996,301772.266,302405.358,,39,became
screen,html.Screen,1_1_1_1_40,2021-04-21T23:12:26.255Z,,,,,,,,,,,,,,,,54,,,,,,,,,,,,,,577.291999998095,,response,,,,100,,,,,,,Space,keypress(Space),,,,,,,,-- --- ---- --- ------ ----- ------- ---- -- --- ------- --<br>------- ---------- ------ -- ----- -- ----- -- ---- ------<br>--- ----- --- --- ------ -------- ----- --- ------ ----- --<br>----- ----- ---------- --- --- ------ ------ wary -- ------<br>------- --- ------ ----- --- ---- ------- -- ---- --- --<br>------- ------,302983.5149999999,302982.6499999981,302388.792,302391.40000000043,302405.358,302988.148,,40,wary
screen,html.Screen,1_1_1_1_41,2021-04-21T23:12:26.900Z,,,,,,,,,,,,,,,,54,,,,,,,,,,,,,,639.1069999994361,,response,,,,100,,,,,,,Space,keypress(Space),,,,,,,,-- --- ---- --- ------ ----- ------- ---- -- --- ------- --<br>------- ---------- ------ -- ----- -- ----- -- ---- ------<br>--- ----- --- --- ------ -------- ----- --- ------ ----- --<br>----- ----- ---------- --- --- ------ ------ ---- of ------<br>------- --- ------ ----- --- ---- ------- -- ---- --- --<br>------- ------,303628.1050000034,303627.2549999994,302971.849,302983.66499999975,302988.148,303638.124,,41,of
screen,html.Screen,1_1_1_1_42,2021-04-21T23:12:27.701Z,,,,,,,,,,,,,,,,54,,,,,,,,,,,,,,790.6160000030068,,response,,,,100,,,,,,,Space,keypress(Space),,,,,,,,-- --- ---- --- ------ ----- ------- ---- -- --- ------- --<br>------- ---------- ------ -- ----- -- ----- -- ---- ------<br>--- ----- --- --- ------ -------- ----- --- ------ ----- --<br>----- ----- ---------- --- --- ------ ------ ---- -- French<br>------- --- ------ ----- --- ---- ------- -- ---- --- --<br>------- ------,304429.6000000031,304428.740000003,303621.44,303628.2599999977,303638.124,304437.87,,42,French
screen,html.Screen,1_1_1_1_43,2021-04-21T23:12:28.397Z,,,,,,,,,,,,,,,,54,,,,,,,,,,,,,,686.22499999922,,response,,,,100,,,,,,,Space,keypress(Space),,,,,,,,-- --- ---- --- ------ ----- ------- ---- -- --- ------- --<br>------- ---------- ------ -- ----- -- ----- -- ---- ------<br>--- ----- --- --- ------ -------- ----- --- ------ ----- --<br>----- ----- ---------- --- --- ------ ------ ---- -- ------<br>credit. --- ------ ----- --- ---- ------- -- ---- --- --<br>------- ------,305124.9650000027,305124.0949999992,304421.2,304429.75500000466,304437.87,305137.541,,43,credit.
screen,html.Screen,1_1_1_1_44,2021-04-21T23:12:28.824Z,,,,,,,,,,,,,,,,54,,,,,,,,,,,,,,413.59900000318885,,response,,,,100,,,,,,,Space,keypress(Space),,,,,,,,-- --- ---- --- ------ ----- ------- ---- -- --- ------- --<br>------- ---------- ------ -- ----- -- ----- -- ---- ------<br>--- ----- --- --- ------ -------- ----- --- ------ ----- --<br>----- ----- ---------- --- --- ------ ------ ---- -- ------<br>------- The ------ ----- --- ---- ------- -- ---- --- --<br>------- ------,305552.0150000011,305551.1400000032,305120.902,305125.11500000255,305137.541,305577.396,,44,The
screen,html.Screen,1_1_1_1_45,2021-04-21T23:12:29.239Z,,,,,,,,,,,,,,,,54,,,,,,,,,,,,,,389.50900000112597,,response,,,,100,,,,,,,Space,keypress(Space),,,,,,,,-- --- ---- --- ------ ----- ------- ---- -- --- ------- --<br>------- ---------- ------ -- ----- -- ----- -- ---- ------<br>--- ----- --- --- ------ -------- ----- --- ------ ----- --<br>----- ----- ---------- --- --- ------ ------ ---- -- ------<br>------- --- French ----- --- ---- ------- -- ---- --- --<br>------- ------,305967.76500000124,305966.90500000113,305537.365,305552.1599999993,305577.396,305970.11,,45,French
screen,html.Screen,1_1_1_1_46,2021-04-21T23:12:29.600Z,,,,,,,,,,,,,,,,54,,,,,,,,,,,,,,357.7650000026915,,response,,,,100,,,,,,,Space,keypress(Space),,,,,,,,-- --- ---- --- ------ ----- ------- ---- -- --- ------- --<br>------- ---------- ------ -- ----- -- ----- -- ---- ------<br>--- ----- --- --- ------ -------- ----- --- ------ ----- --<br>----- ----- ---------- --- --- ------ ------ ---- -- ------<br>------- --- ------ state --- ---- ------- -- ---- --- --<br>------- ------,306328.7400000045,306327.8750000027,305953.721,305967.9150000011,305970.11,306337.019,,46,state
screen,html.Screen,1_1_1_1_47,2021-04-21T23:12:30.258Z,,,,,,,,,,,,,,,,54,,,,,,,,,,,,,,647.8810000031372,,response,,,,100,,,,,,,Space,keypress(Space),,,,,,,,-- --- ---- --- ------ ----- ------- ---- -- --- ------- --<br>------- ---------- ------ -- ----- -- ----- -- ---- ------<br>--- ----- --- --- ------ -------- ----- --- ------ ----- --<br>----- ----- ---------- --- --- ------ ------ ---- -- ------<br>------- --- ------ ----- was ---- ------- -- ---- --- --<br>------- ------,306985.854999999,306984.9000000031,306320.275,306328.8900000043,306337.019,307003.428,,47,was
screen,html.Screen,1_1_1_1_48,2021-04-21T23:12:30.864Z,,,,,,,,,,,,,,,,54,,,,,,,,,,,,,,588.0120000037714,,response,,,,100,,,,,,,Space,keypress(Space),,,,,,,,-- --- ---- --- ------ ----- ------- ---- -- --- ------- --<br>------- ---------- ------ -- ----- -- ----- -- ---- ------<br>--- ----- --- --- ------ -------- ----- --- ------ ----- --<br>----- ----- ---------- --- --- ------ ------ ---- -- ------<br>------- --- ------ ----- --- left ------- -- ---- --- --<br>------- ------,307592.270000001,307591.4400000038,306969.987,306986.0150000022,307003.428,307603.027,,48,left
screen,html.Screen,1_1_1_1_49,2021-04-21T23:12:31.593Z,,,,,,,,,,,,,,,,54,,,,,,,,,,,,,,717.3080000039772,,response,,,,100,,,,,,,Space,keypress(Space),,,,,,,,-- --- ---- --- ------ ----- ------- ---- -- --- ------- --<br>------- ---------- ------ -- ----- -- ----- -- ---- ------<br>--- ----- --- --- ------ -------- ----- --- ------ ----- --<br>----- ----- ---------- --- --- ------ ------ ---- -- ------<br>------- --- ------ ----- --- ---- without -- ---- --- --<br>------- ------,308321.2100000019,308320.335000004,307586.313,307592.42500000255,307603.027,308336.064,,49,without
screen,html.Screen,1_1_1_1_50,2021-04-21T23:12:32.020Z,,,,,,,,,,,,,,,,54,,,,,,,,,,,,,,410.8809999989462,,response,,,,100,,,,,,,Space,keypress(Space),,,,,,,,-- --- ---- --- ------ ----- ------- ---- -- --- ------- --<br>------- ---------- ------ -- ----- -- ----- -- ---- ------<br>--- ----- --- --- ------ -------- ----- --- ------ ----- --<br>----- ----- ---------- --- --- ------ ------ ---- -- ------<br>------- --- ------ ----- --- ---- ------- an ---- --- --<br>------- ------,308747.81000000075,308746.94499999896,308319.295,308322.13500000216,308336.064,308752.206,,50,an
screen,html.Screen,1_1_1_1_51,2021-04-21T23:12:32.436Z,,,,,,,,,,,,,,,,54,,,,,,,,,,,,,,411.15399999864167,,response,,,,100,,,,,,,Space,keypress(Space),,,,,,,,-- --- ---- --- ------ ----- ------- ---- -- --- ------- --<br>------- ---------- ------ -- ----- -- ----- -- ---- ------<br>--- ----- --- --- ------ -------- ----- --- ------ ----- --<br>----- ----- ---------- --- --- ------ ------ ---- -- ------<br>------- --- ------ ----- --- ---- ------- -- easy --- --<br>------- ------,309164.2350000038,309163.35999999865,308735.948,308747.9600000006,308752.206,309168.695,,51,easy
screen,html.Screen,1_1_1_1_52,2021-04-21T23:12:32.872Z,,,,,,,,,,,,,,,,54,,,,,,,,,,,,,,430.67999999795575,,response,,,,100,,,,,,,Space,keypress(Space),,,,,,,,-- --- ---- --- ------ ----- ------- ---- -- --- ------- --<br>------- ---------- ------ -- ----- -- ----- -- ---- ------<br>--- ----- --- --- ------ -------- ----- --- ------ ----- --<br>----- ----- ---------- --- --- ------ ------ ---- -- ------<br>------- --- ------ ----- --- ---- ------- -- ---- way --<br>------- ------,309600.30499999993,309599.37499999796,309152.356,309164.3899999981,309168.695,309626.543,,52,way
screen,html.Screen,1_1_1_1_53,2021-04-21T23:12:33.235Z,,,,,,,,,,,,,,,,54,,,,,,,,,,,,,,336.22200000385055,,response,,,,100,,,,,,,Space,keypress(Space),,,,,,,,-- --- ---- --- ------ ----- ------- ---- -- --- ------- --<br>------- ---------- ------ -- ----- -- ----- -- ---- ------<br>--- ----- --- --- ------ -------- ----- --- ------ ----- --<br>----- ----- ---------- --- --- ------ ------ ---- -- ------<br>------- --- ------ ----- --- ---- ------- -- ---- --- of<br>------- ------,309963.66000000125,309962.76500000386,309585.458,309600.46500000317,309626.543,309968.391,,53,of
screen,html.Screen,1_1_1_1_54,2021-04-21T23:12:33.747Z,,,,,,,,,,,,,,,,54,,,,,,,,,,,,,,506.27900000324007,,response,,,,100,,,,,,,Space,keypress(Space),,,,,,,,-- --- ---- --- ------ ----- ------- ---- -- --- ------- --<br>------- ---------- ------ -- ----- -- ----- -- ---- ------<br>--- ----- --- --- ------ -------- ----- --- ------ ----- --<br>----- ----- ---------- --- --- ------ ------ ---- -- ------<br>------- --- ------ ----- --- ---- ------- -- ---- --- --<br>raising ------,310475.54500000115,310474.67000000324,309951.966,309963.8049999994,309968.391,310485.167,,54,raising
screen,html.Screen,1_1_1_1_55,2021-04-21T23:12:34.439Z,,,,,,,,,,,,,,,,54,,,,,,,,,,,,,,680.8480000025011,,response,,,,100,,,,,,,Space,keypress(Space),,,,,,,,-- --- ---- --- ------ ----- ------- ---- -- --- ------- --<br>------- ---------- ------ -- ----- -- ----- -- ---- ------<br>--- ----- --- --- ------ -------- ----- --- ------ ----- --<br>----- ----- ---------- --- --- ------ ------ ---- -- ------<br>------- --- ------ ----- --- ---- ------- -- ---- --- --<br>------- money.,311166.9000000038,311166.0150000025,310468.391,310475.7000000027,310485.167,311184.863,,55,money.
Item 100,flow.Loop,1_1_1_1,2021-04-21T23:12:34.439Z,,,,,,,,,,,,,,,,,,,,,,,,,,,,,,33333.323000002536,,completion,,,,,D,,,,,,,,,,,silence,,,,,311167.180000004,311166.0150000025,277816.091,277816.98499999766,277832.692,311184.863,,,
Question 1,html.Screen,1_1_1_2,2021-04-21T23:12:38.164Z,,,,,,,,,,,,,,,,,,,,,,,,,,,true,TRUE,,3706.4620000041323,,response,,,,100,D,,,,,,TRUE,click #choice-1,,,,silence,,,,,314892.51499999955,314891.32500000414,311151.439,311167.300000001,311184.863,314899.486,,,
Question 2,html.Screen,1_1_1_3,2021-04-21T23:12:42.683Z,,,,,,,,,,,,,,,,,,,,,,,,,,,true,FALSE,,4510.953999999678,,response,,,,100,D,,,,,,FALSE,click #choice-2,,,,silence,,,,,319411.7600000027,319410.43999999965,314883.116,314892.6750000028,314899.486,319414.191,,,
Item 100,flow.Sequence,1_1_1,2021-04-21T23:12:42.684Z,,,,,,,,,,,,,,,,,,,,,,,,,,,,,,51573.18499999965,,completion,,,,,,,,,,,,,,,,,,,,,319411.9950000022,319410.43999999965,267820.657,267826.72000000457,267837.255,319414.191,,,
End of Practice,html.Page,1_1_2,2021-04-21T23:12:47.570Z,,,,,,,,,,,,,,,,,,,,,,,,,,,,,,4883.784000001324,,form submission,,,,,,,,,,,,,,,,,,,,,324298.2650000049,324297.9750000013,319397.515,319412.10500000307,319414.191,324312.123,,,
Practice,flow.Sequence,1_1,2021-04-21T23:12:47.570Z,,,,,,,,,,,,,,,,,,,,,,,,,,,,,,115434.71300000133,,completion,,,,,,,,,,,,,,,,,,,,,324298.49500000273,324297.9750000013,208846.606,208862.35500000475,208863.262,324312.123,,,
Trap_instruction,html.Page,1_2_0,2021-04-21T23:12:54.784Z,,,,,,,,,,,,,,,,,,,,,,,,,,,,,,7200.032000003965,,form submission,,,,,,,,,,,,,,,,,,,,,331512.4750000032,331512.155000004,324295.335,324298.6400000009,324312.123,331525.469,,,
trap_trial,html.Screen,1_2_1,2021-04-21T23:12:58.266Z,,,,,,,,,,,,,,,,,,,,,,,,,,,true,1,,3467.536000003922,,response,,,,,,,,,,,1,click #choice-1,,,,,,,,,334994.2300000039,334993.0050000039,331509.027,331512.6300000047,331525.469,335007.387,,,
end of trap trial,html.Page,1_2_2,2021-04-21T23:13:01.131Z,,,,,,,,,,,,,,,,,,,,,,,,,,,,,,2851.928000001528,,form submission,,,,,,,,,,,,,,,,,,,,,337859.6499999985,337859.3150000015,334990.849,334994.4350000005,335007.387,337872.658,,,
Trap 1,flow.Sequence,1_2,2021-04-21T23:13:01.132Z,,,,,,,,,,,,,,,,,,,,,,,,,,,,,,13547.192000001494,,completion,,,,,,,,,,,,,,,,,,,,,337859.9000000031,337859.3150000015,324295.335,324298.6000000019,324312.123,337872.658,,,
Standby,html.Page,1_3_0,2021-04-21T23:13:09.125Z,,,,,,,,,,,,,,,,,,,,,,,,,,,,,,7996.67300000001,,timeout,,,,,,,,,,,,,,,,,,,,,345853.75000000204,345852.782,337856.181,337860.06500000076,337872.658,345869.331,,,
Holding screen,html.Screen,1_3_1_0_0,2021-04-21T23:13:16.122Z,,,,,,,,,,,,,,,,,,,,,,,,,,,,,,6996.790999999968,,timeout,,,,,,,,,,,,,,,,,,,,,352850.56500000064,352849.693,345852.782,345854.01500000444,345869.331,352866.122,,,
screen,html.Screen,1_3_1_0_1_0,2021-04-21T23:13:17.472Z,,,,,,,,,,,,,,,,15,,,,,,,,,,,,,,1333.1580000007525,,response,,,,7,D,,,,,,Space,keypress(Space),,,,silence,,,,Greg --------- ---------- - --- ------- -- --- ------------<br>----- -- -------- ------- ---- ------ - -------- ---- -----<br>--- ------- ---- -- --- -------- --- - ----- ------ ---- --<br>-------- --- -------- -------- --- -------- ---- -- ----- -<br>-------- ---- --- ---------- --------- -- ------- ------ -<br>--------- ----- -----,354200.30000000406,354199.2800000007,352849.693,352850.81499999797,352866.122,354215.757,,0,Greg
screen,html.Screen,1_3_1_0_1_1,2021-04-21T23:13:18.416Z,,,,,,,,,,,,,,,,15,,,,,,,,,,,,,,925.7180000040098,,response,,,,7,D,,,,,,Space,keypress(Space),,,,silence,,,,"---- Anderson, ---------- - --- ------- -- --- ------------<br>----- -- -------- ------- ---- ------ - -------- ---- -----<br>--- ------- ---- -- --- -------- --- - ----- ------ ---- --<br>-------- --- -------- -------- --- -------- ---- -- ----- -<br>-------- ---- --- ---------- --------- -- ------- ------ -<br>--------- ----- -----",355142.48500000394,355141.475000004,354198.978,354200.4799999995,354215.757,355148.422,,1,"Anderson,"
screen,html.Screen,1_3_1_0_1_2,2021-04-21T23:13:19.375Z,,,,,,,,,,,,,,,,15,,,,,,,,,,,,,,951.7929999985499,,response,,,,7,D,,,,,,Space,keypress(Space),,,,silence,,,,---- --------- considered - --- ------- -- --- ------------<br>----- -- -------- ------- ---- ------ - -------- ---- -----<br>--- ------- ---- -- --- -------- --- - ----- ------ ---- --<br>-------- --- -------- -------- --- -------- ---- -- ----- -<br>-------- ---- --- ---------- --------- -- ------- ------ -<br>--------- ----- -----,356101.07000000426,356100.21499999857,355132.026,355142.6300000021,355148.422,356114.625,,2,considered
screen,html.Screen,1_3_1_0_1_3,2021-04-21T23:13:19.907Z,,,,,,,,,,,,,,,,15,,,,,,,,,,,,,,518.1250000043074,,response,,,,7,D,,,,,,Space,keypress(Space),,,,silence,,,,---- --------- ---------- a --- ------- -- --- ------------<br>----- -- -------- ------- ---- ------ - -------- ---- -----<br>--- ------- ---- -- --- -------- --- - ----- ------ ---- --<br>-------- --- -------- -------- --- -------- ---- -- ----- -<br>-------- ---- --- ---------- --------- -- ------- ------ -<br>--------- ----- -----,356633.6950000041,356632.7500000043,356098.138,356101.2200000041,356114.625,356647.893,,3,a
screen,html.Screen,1_3_1_0_1_4,2021-04-21T23:13:20.633Z,,,,,,,,,,,,,,,,15,,,,,,,,,,,,,,710.2069999976666,,response,,,,7,D,,,,,,Space,keypress(Space),,,,silence,,,,---- --------- ---------- - key ------- -- --- ------------<br>----- -- -------- ------- ---- ------ - -------- ---- -----<br>--- ------- ---- -- --- -------- --- - ----- ------ ---- --<br>-------- --- -------- -------- --- -------- ---- -- ----- -<br>-------- ---- --- ---------- --------- -- ------- ------ -<br>--------- ----- -----,357359.0699999986,357358.09999999765,356631.255,356633.85500000004,356647.893,357364.064,,4,key
screen,html.Screen,1_3_1_0_1_5,2021-04-21T23:13:21.563Z,,,,,,,,,,,,,,,,15,,,,,,,,,,,,,,923.7409999999218,,response,,,,7,D,,,,,,Space,keypress(Space),,,,silence,,,,---- --------- ---------- - --- witness -- --- ------------<br>----- -- -------- ------- ---- ------ - -------- ---- -----<br>--- ------- ---- -- --- -------- --- - ----- ------ ---- --<br>-------- --- -------- -------- --- -------- ---- -- ----- -<br>-------- ---- --- ---------- --------- -- ------- ------ -<br>--------- ----- -----,358288.7249999985,358287.80499999993,357347.706,357359.3000000037,357364.064,358297.289,,5,witness
screen,html.Screen,1_3_1_0_1_6,2021-04-21T23:13:22.082Z,,,,,,,,,,,,,,,,15,,,,,,,,,,,,,,510.0660000044736,,response,,,,7,D,,,,,,Space,keypress(Space),,,,silence,,,,---- --------- ---------- - --- ------- by --- ------------<br>----- -- -------- ------- ---- ------ - -------- ---- -----<br>--- ------- ---- -- --- -------- --- - ----- ------ ---- --<br>-------- --- -------- -------- --- -------- ---- -- ----- -<br>-------- ---- --- ---------- --------- -- ------- ------ -<br>--------- ----- -----,358808.29000000085,358807.35500000446,358280.485,358288.87499999837,358297.289,358813.535,,6,by
screen,html.Screen,1_3_1_0_1_7,2021-04-21T23:13:22.523Z,,,,,,,,,,,,,,,,15,,,,,,,,,,,,,,435.2250000022468,,response,,,,7,D,,,,,,Space,keypress(Space),,,,silence,,,,---- --------- ---------- - --- ------- -- the ------------<br>----- -- -------- ------- ---- ------ - -------- ---- -----<br>--- ------- ---- -- --- -------- --- - ----- ------ ---- --<br>-------- --- -------- -------- --- -------- ---- -- ----- -<br>-------- ---- --- ---------- --------- -- ------- ------ -<br>--------- ----- -----,359249.7100000037,359248.7600000022,358796.964,358808.4400000007,358813.535,359263.534,,7,the
screen,html.Screen,1_3_1_0_1_8,2021-04-21T23:13:23.910Z,,,,,,,,,,,,,,,,15,,,,,,,,,,,,,,1371.8310000019264,,response,,,,7,D,,,,,,Space,keypress(Space),,,,silence,,,,"---- --------- ---------- - --- ------- -- --- prosecution,<br>----- -- -------- ------- ---- ------ - -------- ---- -----<br>--- ------- ---- -- --- -------- --- - ----- ------ ---- --<br>-------- --- -------- -------- --- -------- ---- -- ----- -<br>-------- ---- --- ---------- --------- -- ------- ------ -<br>--------- ----- -----",360636.2599999993,360635.3650000019,359246.732,359249.86499999795,359263.534,360646.155,,8,"prosecution,"
screen,html.Screen,1_3_1_0_1_9,2021-04-21T23:13:24.566Z,,,,,,,,,,,,,,,,15,,,,,,,,,,,,,,644.795000002312,,response,,,,7,D,,,,,,Space,keypress(Space),,,,silence,,,,---- --------- ---------- - --- ------- -- --- ------------<br>vowed -- -------- ------- ---- ------ - -------- ---- -----<br>--- ------- ---- -- --- -------- --- - ----- ------ ---- --<br>-------- --- -------- -------- --- -------- ---- -- ----- -<br>-------- ---- --- ---------- --------- -- ------- ------ -<br>--------- ----- -----,361291.79500000464,361290.95000000234,360629.56,360636.40999999916,360646.155,361295.591,,9,vowed
screen,html.Screen,1_3_1_0_1_10,2021-04-21T23:13:25.315Z,,,,,,,,,,,,,,,,15,,,,,,,,,,,,,,744.3290000028792,,response,,,,7,D,,,,,,Space,keypress(Space),,,,silence,,,,---- --------- ---------- - --- ------- -- --- ------------<br>----- he -------- ------- ---- ------ - -------- ---- -----<br>--- ------- ---- -- --- -------- --- - ----- ------ ---- --<br>-------- --- -------- -------- --- -------- ---- -- ----- -<br>-------- ---- --- ---------- --------- -- ------- ------ -<br>--------- ----- -----,362040.88500000216,362039.9200000029,361279.3,361291.9450000045,361295.591,362045.232,,10,he
screen,html.Screen,1_3_1_0_1_11,2021-04-21T23:13:25.904Z,,,,,,,,,,,,,,,,15,,,,,,,,,,,,,,583.8330000009737,,response,,,,7,D,,,,,,Space,keypress(Space),,,,silence,,,,---- --------- ---------- - --- ------- -- --- ------------<br>----- -- wouldn't ------- ---- ------ - -------- ---- -----<br>--- ------- ---- -- --- -------- --- - ----- ------ ---- --<br>-------- --- -------- -------- --- -------- ---- -- ----- -<br>-------- ---- --- ---------- --------- -- ------- ------ -<br>--------- ----- -----,362629.9700000018,362629.065000001,362028.571,362041.035000002,362045.232,362645.37,,11,wouldn't
screen,html.Screen,1_3_1_0_1_12,2021-04-21T23:13:26.883Z,,,,,,,,,,,,,,,,15,,,,,,,,,,,,,,963.1350000037928,,response,,,,7,D,,,,,,Space,keypress(Space),,,,silence,,,,---- --------- ---------- - --- ------- -- --- ------------<br>----- -- -------- testify ---- ------ - -------- ---- -----<br>--- ------- ---- -- --- -------- --- - ----- ------ ---- --<br>-------- --- -------- -------- --- -------- ---- -- ----- -<br>-------- ---- --- ---------- --------- -- ------- ------ -<br>--------- ----- -----,363609.454999998,363608.5050000038,362628.627,362630.1250000033,362645.37,363611.244,,12,testify
screen,html.Screen,1_3_1_0_1_13,2021-04-21T23:13:27.604Z,,,,,,,,,,,,,,,,15,,,,,,,,,,,,,,718.4360000025481,,response,,,,7,D,,,,,,Space,keypress(Space),,,,silence,,,,---- --------- ---------- - --- ------- -- --- ------------<br>----- -- -------- ------- when ------ - -------- ---- -----<br>--- ------- ---- -- --- -------- --- - ----- ------ ---- --<br>-------- --- -------- -------- --- -------- ---- -- ----- -<br>-------- ---- --- ---------- --------- -- ------- ------ -<br>--------- ----- -----,364330.6450000018,364329.68000000255,363594.633,363609.6049999978,363611.244,364344.609,,13,when
screen,html.Screen,1_3_1_0_1_14,2021-04-21T23:13:28.398Z,,,,,,,,,,,,,,,,15,,,,,,,,,,,,,,778.4460000036634,,response,,,,7,D,,,,,,Space,keypress(Space),,,,silence,,,,---- --------- ---------- - --- ------- -- --- ------------<br>----- -- -------- ------- ---- served - -------- ---- -----<br>--- ------- ---- -- --- -------- --- - ----- ------ ---- --<br>-------- --- -------- -------- --- -------- ---- -- ----- -<br>-------- ---- --- ---------- --------- -- ------- ------ -<br>--------- ----- -----,365123.93000000156,365123.05500000366,364327.855,364330.7950000017,364344.609,365127.221,,14,served
screen,html.Screen,1_3_1_0_1_15,2021-04-21T23:13:28.914Z,,,,,,,,,,,,,,,,15,,,,,,,,,,,,,,512.3840000039199,,response,,,,7,D,,,,,,Space,keypress(Space),,,,silence,,,,---- --------- ---------- - --- ------- -- --- ------------<br>----- -- -------- ------- ---- ------ a -------- ---- -----<br>--- ------- ---- -- --- -------- --- - ----- ------ ---- --<br>-------- --- -------- -------- --- -------- ---- -- ----- -<br>-------- ---- --- ---------- --------- -- ------- ------ -<br>--------- ----- -----,365640.5100000047,365639.60500000394,365110.783,365124.0800000014,365127.221,365643.653,,15,a
screen,html.Screen,1_3_1_0_1_16,2021-04-21T23:13:30.943Z,,,,,,,,,,,,,,,,15,,,,,,,,,,,,,,2024.8770000026561,,response,,,,7,D,,,,,,Space,keypress(Space),,,,silence,,,,---- --------- ---------- - --- ------- -- --- ------------<br>----- -- -------- ------- ---- ------ - subpoena ---- -----<br>--- ------- ---- -- --- -------- --- - ----- ------ ---- --<br>-------- --- -------- -------- --- -------- ---- -- ----- -<br>-------- ---- --- ---------- --------- -- ------- ------ -<br>--------- ----- -----,367669.2699999985,367668.53000000265,365627.299,365640.6600000046,365643.653,367676.142,,16,subpoena
screen,html.Screen,1_3_1_0_1_17,2021-04-21T23:13:31.653Z,,,,,,,,,,,,,,,,15,,,,,,,,,,,,,,702.3480000027921,,response,,,,7,D,,,,,,Space,keypress(Space),,,,silence,,,,---- --------- ---------- - --- ------- -- --- ------------<br>----- -- -------- ------- ---- ------ - -------- last -----<br>--- ------- ---- -- --- -------- --- - ----- ------ ---- --<br>-------- --- -------- -------- --- -------- ---- -- ----- -<br>-------- ---- --- ---------- --------- -- ------- ------ -<br>--------- ----- -----,368379.359999999,368378.4900000028,367659.673,367669.42500000005,367676.142,368392.832,,17,last
screen,html.Screen,1_3_1_0_1_18,2021-04-21T23:13:32.300Z,,,,,,,,,,,,,,,,15,,,,,,,,,,,,,,632.3030000035069,,response,,,,7,D,,,,,,Space,keypress(Space),,,,silence,,,,---- --------- ---------- - --- ------- -- --- ------------<br>----- -- -------- ------- ---- ------ - -------- ---- week.<br>--- ------- ---- -- --- -------- --- - ----- ------ ---- --<br>-------- --- -------- -------- --- -------- ---- -- ----- -<br>-------- ---- --- ---------- --------- -- ------- ------ -<br>--------- ----- -----,369025.9500000029,369025.1350000035,368376.059,368379.51500000054,368392.832,369042.533,,18,week.
screen,html.Screen,1_3_1_0_1_19,2021-04-21T23:13:33.048Z,,,,,,,,,,,,,,,,15,,,,,,,,,,,,,,730.9769999990822,,response,,,,7,D,,,,,,Space,keypress(Space),,,,silence,,,,---- --------- ---------- - --- ------- -- --- ------------<br>----- -- -------- ------- ---- ------ - -------- ---- -----<br>His ------- ---- -- --- -------- --- - ----- ------ ---- --<br>-------- --- -------- -------- --- -------- ---- -- ----- -<br>-------- ---- --- ---------- --------- -- ------- ------ -<br>--------- ----- -----,369774.3899999987,369773.5099999991,369025.516,369026.1099999989,369042.533,369793.402,,19,His
screen,html.Screen,1_3_1_0_1_20,2021-04-21T23:13:33.767Z,,,,,,,,,,,,,,,,15,,,,,,,,,,,,,,699.1880000016536,,response,,,,7,D,,,,,,Space,keypress(Space),,,,silence,,,,---- --------- ---------- - --- ------- -- --- ------------<br>----- -- -------- ------- ---- ------ - -------- ---- -----<br>--- lawyers ---- -- --- -------- --- - ----- ------ ---- --<br>-------- --- -------- -------- --- -------- ---- -- ----- -<br>-------- ---- --- ---------- --------- -- ------- ------ -<br>--------- ----- -----,370493.45999999787,370492.59000000166,369758.788,369774.5399999985,369793.402,370508.454,,20,lawyers
screen,html.Screen,1_3_1_0_1_21,2021-04-21T23:13:34.449Z,,,,,,,,,,,,,,,,15,,,,,,,,,,,,,,666.0159999980824,,response,,,,7,D,,,,,,Space,keypress(Space),,,,silence,,,,---- --------- ---------- - --- ------- -- --- ------------<br>----- -- -------- ------- ---- ------ - -------- ---- -----<br>--- ------- said -- --- -------- --- - ----- ------ ---- --<br>-------- --- -------- -------- --- -------- ---- -- ----- -<br>-------- ---- --- ---------- --------- -- ------- ------ -<br>--------- ----- -----,371175.3349999999,371174.4699999981,370491.738,370493.6099999977,370508.454,371191.584,,21,said
screen,html.Screen,1_3_1_0_1_22,2021-04-21T23:13:34.924Z,,,,,,,,,,,,,,,,15,,,,,,,,,,,,,,457.6860000017332,,response,,,,7,D,,,,,,Space,keypress(Space),,,,silence,,,,---- --------- ---------- - --- ------- -- --- ------------<br>----- -- -------- ------- ---- ------ - -------- ---- -----<br>--- ------- ---- he --- -------- --- - ----- ------ ---- --<br>-------- --- -------- -------- --- -------- ---- -- ----- -<br>-------- ---- --- ---------- --------- -- ------- ------ -<br>--------- ----- -----,371650.195000002,371649.2700000017,371174.791,371175.48499999975,371191.584,371657.995,,22,he
screen,html.Screen,1_3_1_0_1_23,2021-04-21T23:13:35.333Z,,,,,,,,,,,,,,,,15,,,,,,,,,,,,,,400.1300000032061,,response,,,,7,D,,,,,,Space,keypress(Space),,,,silence,,,,---- --------- ---------- - --- ------- -- --- ------------<br>----- -- -------- ------- ---- ------ - -------- ---- -----<br>--- ------- ---- -- was -------- --- - ----- ------ ---- --<br>-------- --- -------- -------- --- -------- ---- -- ----- -<br>-------- ---- --- ---------- --------- -- ------- ------ -<br>--------- ----- -----,372058.9400000026,372058.1250000032,371641.378,371650.35999999964,371657.995,372074.367,,23,was
screen,html.Screen,1_3_1_0_1_24,2021-04-21T23:13:35.948Z,,,,,,,,,,,,,,,,15,,,,,,,,,,,,,,599.298000002047,,response,,,,7,D,,,,,,Space,keypress(Space),,,,silence,,,,---- --------- ---------- - --- ------- -- --- ------------<br>----- -- -------- ------- ---- ------ - -------- ---- -----<br>--- ------- ---- -- --- prepared --- - ----- ------ ---- --<br>-------- --- -------- -------- --- -------- ---- -- ----- -<br>-------- ---- --- ---------- --------- -- ------- ------ -<br>--------- ----- -----,372674.4650000037,372673.6650000021,372057.718,372059.09500000416,372074.367,372690.841,,24,prepared
screen,html.Screen,1_3_1_0_1_25,2021-04-21T23:13:36.377Z,,,,,,,,,,,,,,,,15,,,,,,,,,,,,,,411.85400000138907,,response,,,,7,D,,,,,,Space,keypress(Space),,,,silence,,,,---- --------- ---------- - --- ------- -- --- ------------<br>----- -- -------- ------- ---- ------ - -------- ---- -----<br>--- ------- ---- -- --- -------- for - ----- ------ ---- --<br>-------- --- -------- -------- --- -------- ---- -- ----- -<br>-------- ---- --- ---------- --------- -- ------- ------ -<br>--------- ----- -----,373103.49000000133,373102.6950000014,372674.228,372674.60500000016,372690.841,373107.039,,25,for
screen,html.Screen,1_3_1_0_1_26,2021-04-21T23:13:36.779Z,,,,,,,,,,,,,,,,15,,,,,,,,,,,,,,397.04600000049686,,response,,,,7,D,,,,,,Space,keypress(Space),,,,silence,,,,---- --------- ---------- - --- ------- -- --- ------------<br>----- -- -------- ------- ---- ------ - -------- ---- -----<br>--- ------- ---- -- --- -------- --- a ----- ------ ---- --<br>-------- --- -------- -------- --- -------- ---- -- ----- -<br>-------- ---- --- ---------- --------- -- ------- ------ -<br>--------- ----- -----,373504.9300000028,373504.0850000005,373090.629,373103.64500000287,373107.039,373506.797,,26,a
screen,html.Screen,1_3_1_0_1_27,2021-04-21T23:13:37.267Z,,,,,,,,,,,,,,,,15,,,,,,,,,,,,,,485.86300000350457,,response,,,,7,D,,,,,,Space,keypress(Space),,,,silence,,,,---- --------- ---------- - --- ------- -- --- ------------<br>----- -- -------- ------- ---- ------ - -------- ---- -----<br>--- ------- ---- -- --- -------- --- - third ------ ---- --<br>-------- --- -------- -------- --- -------- ---- -- ----- -<br>-------- ---- --- ---------- --------- -- ------- ------ -<br>--------- ----- -----,373993.53500000143,373992.6600000035,373490.445,373505.08999999875,373506.797,374007.003,,27,third
screen,html.Screen,1_3_1_0_1_28,2021-04-21T23:13:37.872Z,,,,,,,,,,,,,,,,15,,,,,,,,,,,,,,590.3820000009146,,response,,,,7,D,,,,,,Space,keypress(Space),,,,silence,,,,---- --------- ---------- - --- ------- -- --- ------------<br>----- -- -------- ------- ---- ------ - -------- ---- -----<br>--- ------- ---- -- --- -------- --- - ----- prison ---- --<br>-------- --- -------- -------- --- -------- ---- -- ----- -<br>-------- ---- --- ---------- --------- -- ------- ------ -<br>--------- ----- -----,374598.16500000306,374597.38500000094,373990.222,373993.69500000466,374007.003,374606.722,,28,prison
screen,html.Screen,1_3_1_0_1_29,2021-04-21T23:13:38.416Z,,,,,,,,,,,,,,,,15,,,,,,,,,,,,,,534.1579999990063,,response,,,,7,D,,,,,,Space,keypress(Space),,,,silence,,,,---- --------- ---------- - --- ------- -- --- ------------<br>----- -- -------- ------- ---- ------ - -------- ---- -----<br>--- ------- ---- -- --- -------- --- - ----- ------ stay --<br>-------- --- -------- -------- --- -------- ---- -- ----- -<br>-------- ---- --- ---------- --------- -- ------- ------ -<br>--------- ----- -----,375141.7799999981,375140.879999999,374589.906,374598.324999999,374606.722,375156.394,,29,stay
screen,html.Screen,1_3_1_0_1_30,2021-04-21T23:13:38.951Z,,,,,,,,,,,,,,,,15,,,,,,,,,,,,,,520.0959999980405,,response,,,,7,D,,,,,,Space,keypress(Space),,,,silence,,,,---- --------- ---------- - --- ------- -- --- ------------<br>----- -- -------- ------- ---- ------ - -------- ---- -----<br>--- ------- ---- -- --- -------- --- - ----- ------ ---- to<br>-------- --- -------- -------- --- -------- ---- -- ----- -<br>-------- ---- --- ---------- --------- -- ------- ------ -<br>--------- ----- -----,375677.3749999993,375676.489999998,375139.733,375141.93499999965,375156.394,375689.452,,30,to
screen,html.Screen,1_3_1_0_1_31,2021-04-21T23:13:39.532Z,,,,,,,,,,,,,,,,15,,,,,,,,,,,,,,568.2980000043171,,response,,,,7,D,,,,,,Space,keypress(Space),,,,silence,,,,---- --------- ---------- - --- ------- -- --- ------------<br>----- -- -------- ------- ---- ------ - -------- ---- -----<br>--- ------- ---- -- --- -------- --- - ----- ------ ---- --<br>maintain --- -------- -------- --- -------- ---- -- ----- -<br>-------- ---- --- ---------- --------- -- ------- ------ -<br>--------- ----- -----,376258.6149999988,376257.7500000043,375672.846,375677.52499999915,375689.452,376272.657,,31,maintain
screen,html.Screen,1_3_1_0_1_32,2021-04-21T23:13:40.050Z,,,,,,,,,,,,,,,,15,,,,,,,,,,,,,,502.4629999984172,,response,,,,7,D,,,,,,Space,keypress(Space),,,,silence,,,,---- --------- ---------- - --- ------- -- --- ------------<br>----- -- -------- ------- ---- ------ - -------- ---- -----<br>--- ------- ---- -- --- -------- --- - ----- ------ ---- --<br>-------- his -------- -------- --- -------- ---- -- ----- -<br>-------- ---- --- ---------- --------- -- ------- ------ -<br>--------- ----- -----,376775.85499999986,376775.1199999984,376255.961,376258.76000000426,376272.657,376789.101,,32,his
screen,html.Screen,1_3_1_0_1_33,2021-04-21T23:13:40.541Z,,,,,,,,,,,,,,,,15,,,,,,,,,,,,,,477.10900000156835,,response,,,,7,D,,,,,,Space,keypress(Space),,,,silence,,,,---- --------- ---------- - --- ------- -- --- ------------<br>----- -- -------- ------- ---- ------ - -------- ---- -----<br>--- ------- ---- -- --- -------- --- - ----- ------ ---- --<br>-------- --- silence. -------- --- -------- ---- -- ----- -<br>-------- ---- --- ---------- --------- -- ------- ------ -<br>--------- ----- -----,377266.985000002,377266.2100000016,376772.198,376775.999999998,376789.101,377271.924,,33,silence.
screen,html.Screen,1_3_1_0_1_34,2021-04-21T23:13:42.259Z,,,,,,,,,,,,,,,,15,,,,,,,,,,,,,,1712.2710000045481,,response,,,,7,D,,,,,,Space,keypress(Space),,,,silence,,,,---- --------- ---------- - --- ------- -- --- ------------<br>----- -- -------- ------- ---- ------ - -------- ---- -----<br>--- ------- ---- -- --- -------- --- - ----- ------ ---- --<br>-------- --- -------- Anderson --- -------- ---- -- ----- -<br>-------- ---- --- ---------- --------- -- ------- ------ -<br>--------- ----- -----,378985.0399999996,378984.19500000455,377255.459,377267.14000000356,377271.924,378987.72,,34,Anderson
screen,html.Screen,1_3_1_0_1_35,2021-04-21T23:13:42.880Z,,,,,,,,,,,,,,,,15,,,,,,,,,,,,,,617.4599999986822,,response,,,,7,D,,,,,,Space,keypress(Space),,,,silence,,,,---- --------- ---------- - --- ------- -- --- ------------<br>----- -- -------- ------- ---- ------ - -------- ---- -----<br>--- ------- ---- -- --- -------- --- - ----- ------ ---- --<br>-------- --- -------- -------- was -------- ---- -- ----- -<br>-------- ---- --- ---------- --------- -- ------- ------ -<br>--------- ----- -----,379606.03999999876,379605.17999999865,378971.173,378985.1899999994,378987.72,379621.183,,35,was
screen,html.Screen,1_3_1_0_1_36,2021-04-21T23:13:43.540Z,,,,,,,,,,,,,,,,15,,,,,,,,,,,,,,644.5919999998296,,response,,,,7,D,,,,,,Space,keypress(Space),,,,silence,,,,---- --------- ---------- - --- ------- -- --- ------------<br>----- -- -------- ------- ---- ------ - -------- ---- -----<br>--- ------- ---- -- --- -------- --- - ----- ------ ---- --<br>-------- --- -------- -------- --- released ---- -- ----- -<br>-------- ---- --- ---------- --------- -- ------- ------ -<br>--------- ----- -----,380266.64500000334,380265.77499999985,379604.443,379606.1899999986,379621.183,380270.52,,36,released
screen,html.Screen,1_3_1_0_1_37,2021-04-21T23:13:44.048Z,,,,,,,,,,,,,,,,15,,,,,,,,,,,,,,502.7499999978463,,response,,,,7,D,,,,,,Space,keypress(Space),,,,silence,,,,---- --------- ---------- - --- ------- -- --- ------------<br>----- -- -------- ------- ---- ------ - -------- ---- -----<br>--- ------- ---- -- --- -------- --- - ----- ------ ---- --<br>-------- --- -------- -------- --- -------- July -- ----- -<br>-------- ---- --- ---------- --------- -- ------- ------ -<br>--------- ----- -----,380774.17000000423,380773.26999999786,380254.161,380266.7950000032,380270.52,380787.375,,37,July
screen,html.Screen,1_3_1_0_1_38,2021-04-21T23:13:44.485Z,,,,,,,,,,,,,,,,15,,,,,,,,,,,,,,423.04000000137603,,response,,,,7,D,,,,,,Space,keypress(Space),,,,silence,,,,---- --------- ---------- - --- ------- -- --- ------------<br>----- -- -------- ------- ---- ------ - -------- ---- -----<br>--- ------- ---- -- --- -------- --- - ----- ------ ---- --<br>-------- --- -------- -------- --- -------- ---- 20 ----- -<br>-------- ---- --- ---------- --------- -- ------- ------ -<br>--------- ----- -----,381211.31500000047,381210.4150000014,380770.297,380774.3249999985,380787.375,381220.4,,38,20
screen,html.Screen,1_3_1_0_1_39,2021-04-21T23:13:45.301Z,,,,,,,,,,,,,,,,15,,,,,,,,,,,,,,805.465000003227,,response,,,,7,D,,,,,,Space,keypress(Space),,,,silence,,,,---- --------- ---------- - --- ------- -- --- ------------<br>----- -- -------- ------- ---- ------ - -------- ---- -----<br>--- ------- ---- -- --- -------- --- - ----- ------ ---- --<br>-------- --- -------- -------- --- -------- ---- -- after -<br>-------- ---- --- ---------- --------- -- ------- ------ -<br>--------- ----- -----,382026.74000000115,382025.86500000325,381203.61,381211.4599999986,381220.4,382036.786,,39,after
