sender,sender_type,sender_id,timestamp,meta,,Blues,Classical,Country,Dance,Electronic,Folk,Gospel,Hip-Hop,Jazz,Latin,Musical/Film,New-age,Pop,Provo_ID,R&B,Rap,Reggae,Religious,Rock,Soul,Swing,Traditional,age,artist_name,correct,correctResponse,distraction,duration,education,ended_on,familiarity,gender,headphone_check_performance,item,list,music_frequency,offensiveness,pleasantness,position_correct,preference,response,response_action,snippet_file,song_name,song_rating,sound,stimulus_1,stimulus_2,stimulus_3,text,time_commit,time_end,time_render,time_run,time_show,time_switch,url,word,word_ID
Introduction,html.Screen,0_0,2021-04-26T12:40:27.169Z,"{""labjs_version"":""20.2.2"",""labjs_build"":{""flavor"":""production"",""commit"":""a25486e0c714a0ae2ce03ff94b7bb6896854dcfa""},""location"":""https://run.pavlovia.org/mvasilev/music_c/"",""userAgent"":""Mozilla/5.0 (Macintosh; Intel Mac OS X 11_1_0) AppleWebKit/537.36 (KHTML, like Gecko) Chrome/89.0.4389.114 Safari/537.36"",""platform"":""MacIntel"",""language"":""en-US"",""locale"":""en-GB"",""timeZone"":""Europe/London"",""timezoneOffset"":-60,""screen_width"":1440,""screen_height"":900,""scroll_width"":1440,""scroll_height"":773,""window_innerWidth"":1440,""window_innerHeight"":821,""devicePixelRatio"":1}",,,,,,,,,,,,,,,,,,,,,,,,,,,,,39348.89499996167,,response,,,,,,,,,,,continue,click button,,,,,,,,,49383.299999986775,49369.96499996167,9971.069,9973.245000001043,10021.07,49390.923,{},,
Volume calibration,html.Screen,0_1,2021-04-26T12:40:51.455Z,,,,,,,,,,,,,,,,,,,,,,,,,,,,,,24270.212000002102,,response,,,,,,,,,,,continue,click button,,,,,,,,,73668.25499996776,73661.1350000021,49357.589,49383.84500000393,49390.923,73692.671,,,
Task instructions,html.Screen,0_2,2021-04-26T12:40:57.445Z,,,,,,,,,,,,,,,,,,,,,,,,,,,,,,5962.159000014042,,response,,,,,,,,,,,continue,click button,,,,,,,,,79658.12999999616,79654.83000001404,73676.004,73668.76999998931,73692.671,79676.124,,,
Sounds,html.Screen,0_3_0_0,2021-04-26T12:41:01.702Z,,,,,,,,,,,,,,,,,,,,,,,,,,,,,,4250.552000000011,,timeout,,,,,,,,,3,,,,,,,,I,O,S,,83915.49499996472,83910.009,79659.457,79658.49499998149,79676.124,83926.676,,,
Judgement,html.Screen,0_3_0_1,2021-04-26T12:41:04.181Z,,,,,,,,,,,,,,,,,,,,,,,,,,,true,3,,2464.0139999710664,,response,,,,,,,,,3,,3,click #choice-3,,,,,I,O,S,,86394.11499997368,86390.68999997107,83910.009,83915.80999997677,83926.676,86410.059,,,
Trial,flow.Sequence,0_3_0,2021-04-26T12:41:04.182Z,,,,,,,,,,,,,,,,,,,,,,,,,,,,,,6714.565999971077,,completion,,,,,,,,,3,,,,,,,,I,O,S,,86394.86999996006,86390.68999997107,79659.457,79658.38999999687,79676.124,86410.059,,,
Sounds,html.Screen,0_3_1_0,2021-04-26T12:41:08.432Z,,,,,,,,,,,,,,,,,,,,,,,,,,,,,,4250.085000000006,,timeout,,,,,,,,,1,,,,,,,,S,I,O,,90645.19999996992,90643.477,86393.392,86395.09000000544,86410.059,90660.144,,,
Judgement,html.Screen,0_3_1_1,2021-04-26T12:41:09.749Z,,,,,,,,,,,,,,,,,,,,,,,,,,,true,1,,1298.4209999789891,,response,,,,,,,,,1,,1,click #choice-1,,,,,S,I,O,,91961.98500000173,91958.56499997899,90643.477,90645.42999997502,90660.144,91977.389,,,
Trial,flow.Sequence,0_3_1,2021-04-26T12:41:09.749Z,,,,,,,,,,,,,,,,,,,,,,,,,,,,,,5548.5059999789955,,completion,,,,,,,,,1,,,,,,,,S,I,O,,91962.23999996437,91958.56499997899,86393.392,86395.03000001423,86410.059,91977.389,,,
Sounds,html.Screen,0_3_2_0,2021-04-26T12:41:14.001Z,,,,,,,,,,,,,,,,,,,,,,,,,,,,,,4250.085000000006,,timeout,,,,,,,,,2,,,,,,,,I,S,O,,96213.74500001548,96210.807,91960.722,91962.42499997607,91977.389,96227.474,,,
Judgement,html.Screen,0_3_2_1,2021-04-26T12:41:15.020Z,,,,,,,,,,,,,,,,,,,,,,,,,,,true,2,,1002.9810000117141,,response,,,,,,,,,2,,2,click #choice-2,,,,,I,S,O,,97233.55499998434,97230.45500001172,96210.807,96213.95999996457,96227.474,97260.828,,,
Trial,flow.Sequence,0_3_2,2021-04-26T12:41:15.021Z,,,,,,,,,,,,,,,,,,,,,,,,,,,,,,5253.0660000117205,,completion,,,,,,,,,2,,,,,,,,I,S,O,,97233.8049999671,97230.45500001172,91960.722,91962.36999996472,91977.389,97260.828,,,
Sounds,html.Screen,0_3_3_0,2021-04-26T12:41:19.283Z,,,,,,,,,,,,,,,,,,,,,,,,,,,,,,4250.085000000006,,timeout,,,,,,,,,1,,,,,,,,S,O,I,,101496.09500000952,101494.246,97244.161,97234.01499999454,97260.828,101510.913,,,
Judgement,html.Screen,0_3_3_1,2021-04-26T12:41:20.206Z,,,,,,,,,,,,,,,,,,,,,,,,,,,true,1,,904.3970000112313,,response,,,,,,,,,1,,1,click #choice-1,,,,,S,O,I,,102418.57999999775,102415.31000001123,101494.246,101496.21000001207,101510.913,102444.795,,,
Trial,flow.Sequence,0_3_3,2021-04-26T12:41:20.206Z,,,,,,,,,,,,,,,,,,,,,,,,,,,,,,5154.482000011238,,completion,,,,,,,,,1,,,,,,,,S,O,I,,102418.82500000065,102415.31000001123,97244.161,97233.94999996526,97260.828,102444.795,,,
Sounds,html.Screen,0_3_4_0,2021-04-26T12:41:24.467Z,,,,,,,,,,,,,,,,,,,,,,,,,,,,,,4250.085000000006,,timeout,,,,,,,,,3,,,,,,,,O,I,S,,106680.37000001641,106678.213,102428.128,102418.96999999881,102444.795,106694.88,,,
Judgement,html.Screen,0_3_4_1,2021-04-26T12:41:25.288Z,,,,,,,,,,,,,,,,,,,,,,,,,,,true,3,,802.7949999914272,,response,,,,,,,,,3,,3,click #choice-3,,,,,O,I,S,,107500.68499997724,107497.67499999143,106678.213,106680.47500000102,106694.88,107528.23,,,
Trial,flow.Sequence,0_3_4,2021-04-26T12:41:25.288Z,,,,,,,,,,,,,,,,,,,,,,,,,,,,,,5052.879999991434,,completion,,,,,,,,,3,,,,,,,,O,I,S,,107500.89999998454,107497.67499999143,102428.128,102418.92999998527,102444.795,107528.23,,,
Sounds,html.Screen,0_3_5_0,2021-04-26T12:41:29.550Z,,,,,,,,,,,,,,,,,,,,,,,,,,,,,,4250.085000000006,,timeout,,,,,,,,,2,,,,,,,,O,S,I,,111762.83500000136,111761.648,107511.563,107501.04000000283,107528.23,111778.315,,,
Judgement,html.Screen,0_3_5_1,2021-04-26T12:41:30.107Z,,,,,,,,,,,,,,,,,,,,,,,,,,,true,2,,538.6249999896972,,response,,,,,,,,,2,,2,click #choice-2,,,,,O,S,I,,112319.88500000443,112316.9399999897,111761.648,111762.94499996584,111778.315,112345.496,,,
Trial,flow.Sequence,0_3_5,2021-04-26T12:41:30.107Z,,,,,,,,,,,,,,,,,,,,,,,,,,,,,,4788.709999989704,,completion,,,,,,,,,2,,,,,,,,O,S,I,,112320.0899999938,112316.9399999897,107511.563,107500.99500000942,107528.23,112345.496,,,
Task,flow.Loop,0_3,2021-04-26T12:41:30.114Z,,,,,,,,,,,,,,,,,,,,,,,,,,,,,,32640.815999989703,,completion,,,1,,,,,,,,,,,,,,,,,,112326.53999998001,112316.9399999897,79659.457,79658.28999999212,79676.124,112345.496,,,
Trap,html.Screen,0_4,2021-04-26T12:41:30.116Z,,,,,,,,,,,,,,,,,,,,,,,,,,,,,,NaN,,skipped,,,,,,,,,,,,,,,,,,,,,112328.43499997398,112316.9399999897,,112328.2800000161,,112345.496,,,
Thanks,html.Screen,0_5,2021-04-26T12:41:33.514Z,,,,,,,,,,,,,,,,,,,,,,,,,,,,,,3377.798999974315,,response,,,,,,,,,,,continue,click button,,,,,,,,,115726.88500001095,115723.29499997431,112328.829,112328.56499997433,112345.496,119578.974,,,
Headphone screening,flow.Sequence,0,2021-04-26T12:41:33.514Z,,,,,,,,,,,,,,,,,,,,,,,,,,,,,,105702.2249999743,,completion,,,,,,,,,,,,,,,,,,,,,115727.23999997834,115723.29499997431,9971.069,9973.129999998491,10021.07,119578.974,,,
Instructions,html.Page,1_0,2021-04-26T12:41:49.066Z,,,,,,,,,,,,,,,,,,,,,,,,,,,,,,11698.655999967756,,form submission,,,,,,,,,,,,,,,,,,,,,131278.31999998307,131277.62999996776,119562.307,119583.34499999182,119578.974,131312.542,,,
Holding screen,html.Screen,1_1_0_0,2021-04-26T12:41:59.090Z,,,,,,,,,,,,,,,,,,,,,,,,,,,,,,10051.136000000028,,timeout,,,,,,,,,,,,,,,,,,,,,141302.13500000536,141297.01,131245.874,131278.714999964,131312.542,141363.678,,,
screen,html.Screen,1_1_0_1_0,2021-04-26T12:42:00.858Z,,,,,,,,,,,,,,,,53,,,,,,,,,,,,,,1697.57700000779,,response,,,,99,,,,,,,Space,keypress(Space),,,,,,,,When -- ----- -- ------ - ------- --- ----------<br>------------- ------ ------ ---- ---- ------- ----- -- ----<br>-------- ------- -- ---------- --- - --- ----- ----- ----<br>---- --- --- ----- --- ---- ---- ------- ----- ---- -------<br>--- --- -- ----- -- --- ---- -- --- ---- -- ------ ------<br>--- ----- -- ----,143070.5350000062,143061.2550000078,141297.01,141302.53499996616,141363.678,143080.379,,0,When
screen,html.Screen,1_1_0_1_1,2021-04-26T12:42:01.883Z,,,,,,,,,,,,,,,,53,,,,,,,,,,,,,,1009.4909999670635,,response,,,,99,,,,,,,Space,keypress(Space),,,,,,,,---- it ----- -- ------ - ------- --- ----------<br>------------- ------ ------ ---- ---- ------- ----- -- ----<br>-------- ------- -- ---------- --- - --- ----- ----- ----<br>---- --- --- ----- --- ---- ---- ------- ----- ---- -------<br>--- --- -- ----- -- --- ---- -- --- ---- -- ------ ------<br>--- ----- -- ----,144095.00999999,144089.86999996705,143063.712,143070.71499997983,143080.379,144097.066,,1,it
screen,html.Screen,1_1_0_1_2,2021-04-26T12:42:02.913Z,,,,,,,,,,,,,,,,53,,,,,,,,,,,,,,1022.7789999792585,,response,,,,99,,,,,,,Space,keypress(Space),,,,,,,,---- -- comes -- ------ - ------- --- ----------<br>------------- ------ ------ ---- ---- ------- ----- -- ----<br>-------- ------- -- ---------- --- - --- ----- ----- ----<br>---- --- --- ----- --- ---- ---- ------- ----- ---- -------<br>--- --- -- ----- -- --- ---- -- --- ---- -- ------ ------<br>--- ----- -- ----,145124.96499996632,145119.84499997925,144080.399,144095.23500001524,144097.066,145131.015,,2,comes
screen,html.Screen,1_1_0_1_3,2021-04-26T12:42:03.702Z,,,,,,,,,,,,,,,,53,,,,,,,,,,,,,,705.7800000101561,,response,,,,99,,,,,,,Space,keypress(Space),,,,,,,,---- -- ----- to ------ - ------- --- ----------<br>------------- ------ ------ ---- ---- ------- ----- -- ----<br>-------- ------- -- ---------- --- - --- ----- ----- ----<br>---- --- --- ----- --- ---- ---- ------- ----- ---- -------<br>--- --- -- ----- -- --- ---- -- --- ---- -- ------ ------<br>--- ----- -- ----,145913.85000001173,145836.79500001017,145114.348,145125.16499997582,145131.015,145947.698,,3,to
screen,html.Screen,1_1_0_1_4,2021-04-26T12:42:04.509Z,,,,,,,,,,,,,,,,53,,,,,,,,,,,,,,770.8320000128297,,response,,,,99,,,,,,,Space,keypress(Space),,,,,,,,---- -- ----- -- having - ------- --- ----------<br>------------- ------ ------ ---- ---- ------- ----- -- ----<br>-------- ------- -- ---------- --- - --- ----- ----- ----<br>---- --- --- ----- --- ---- ---- ------- ----- ---- -------<br>--- --- -- ----- -- --- ---- -- --- ---- -- ------ ------<br>--- ----- -- ----,146721.70499997446,146718.53000001283,145914.364,145914.38500001095,145947.698,146731.047,,4,having
screen,html.Screen,1_1_0_1_5,2021-04-26T12:42:05.354Z,,,,,,,,,,,,,,,,53,,,,,,,,,,,,,,830.4980000041251,,response,,,,99,,,,,,,Space,keypress(Space),,,,,,,,---- -- ----- -- ------ a ------- --- ----------<br>------------- ------ ------ ---- ---- ------- ----- -- ----<br>-------- ------- -- ---------- --- - --- ----- ----- ----<br>---- --- --- ----- --- ---- ---- ------- ----- ---- -------<br>--- --- -- ----- -- --- ---- -- --- ---- -- ------ ------<br>--- ----- -- ----,147566.01999996928,147561.54500000412,146714.38,146721.83499997482,146731.047,147581.064,,5,a
screen,html.Screen,1_1_0_1_6,2021-04-26T12:42:06.000Z,,,,,,,,,,,,,,,,53,,,,,,,,,,,,,,625.5909999872092,,response,,,,99,,,,,,,Space,keypress(Space),,,,,,,,---- -- ----- -- ------ - lasting --- ----------<br>------------- ------ ------ ---- ---- ------- ----- -- ----<br>-------- ------- -- ---------- --- - --- ----- ----- ----<br>---- --- --- ----- --- ---- ---- ------- ----- ---- -------<br>--- --- -- ----- -- --- ---- -- --- ---- -- ------ ------<br>--- ----- -- ----,148212.02500001527,148206.65499998722,147564.397,147566.18999998318,147581.064,148214.41,,6,lasting
screen,html.Screen,1_1_0_1_7,2021-04-26T12:42:06.654Z,,,,,,,,,,,,,,,,53,,,,,,,,,,,,,,646.1699999786506,,response,,,,99,,,,,,,Space,keypress(Space),,,,,,,,---- -- ----- -- ------ - ------- and ----------<br>------------- ------ ------ ---- ---- ------- ----- -- ----<br>-------- ------- -- ---------- --- - --- ----- ----- ----<br>---- --- --- ----- --- ---- ---- ------- ----- ---- -------<br>--- --- -- ----- -- --- ---- -- --- ---- -- ------ ------<br>--- ----- -- ----,148866.02000001585,148860.57999997865,148197.743,148212.23000000464,148214.41,148881.09,,7,and
screen,html.Screen,1_1_0_1_8,2021-04-26T12:42:07.328Z,,,,,,,,,,,,,,,,53,,,,,,,,,,,,,,654.4950000050885,,response,,,,99,,,,,,,Space,keypress(Space),,,,,,,,---- -- ----- -- ------ - ------- --- fulfilling<br>------------- ------ ------ ---- ---- ------- ----- -- ----<br>-------- ------- -- ---------- --- - --- ----- ----- ----<br>---- --- --- ----- --- ---- ---- ------- ----- ---- -------<br>--- --- -- ----- -- --- ---- -- --- ---- -- ------ ------<br>--- ----- -- ----,149540.63999996288,149535.58500000509,148864.423,148866.24499998288,148881.09,149547.77,,8,fulfilling
screen,html.Screen,1_1_0_1_9,2021-04-26T12:42:08.311Z,,,,,,,,,,,,,,,,53,,,,,,,,,,,,,,970.724999967526,,response,,,,99,,,,,,,Space,keypress(Space),,,,,,,,"---- -- ----- -- ------ - ------- --- ----------<br>relationship, ------ ------ ---- ---- ------- ----- -- ----<br>-------- ------- -- ---------- --- - --- ----- ----- ----<br>---- --- --- ----- --- ---- ---- ------- ----- ---- -------<br>--- --- -- ----- -- --- ---- -- --- ---- -- ------ ------<br>--- ----- -- ----",150522.82000001287,150518.49499996752,149531.103,149540.86499998812,149547.77,150531.123,,9,"relationship,"
screen,html.Screen,1_1_0_1_10,2021-04-26T12:42:09.213Z,,,,,,,,,,,,,,,,53,,,,,,,,,,,,,,889.2869999624381,,response,,,,99,,,,,,,Space,keypress(Space),,,,,,,,---- -- ----- -- ------ - ------- --- ----------<br>------------- common ------ ---- ---- ------- ----- -- ----<br>-------- ------- -- ---------- --- - --- ----- ----- ----<br>---- --- --- ----- --- ---- ---- ------- ----- ---- -------<br>--- --- -- ----- -- --- ---- -- --- ---- -- ------ ------<br>--- ----- -- ----,151425.55499996524,151420.40999996243,150514.456,150522.96500001103,150531.123,151431.141,,10,common
screen,html.Screen,1_1_0_1_11,2021-04-26T12:42:09.991Z,,,,,,,,,,,,,,,,53,,,,,,,,,,,,,,768.143999980588,,response,,,,99,,,,,,,Space,keypress(Space),,,,,,,,---- -- ----- -- ------ - ------- --- ----------<br>------------- ------ wisdom ---- ---- ------- ----- -- ----<br>-------- ------- -- ---------- --- - --- ----- ----- ----<br>---- --- --- ----- --- ---- ---- ------- ----- ---- -------<br>--- --- -- ----- -- --- ---- -- --- ---- -- ------ ------<br>--- ----- -- ----,152203.67999997688,152199.2849999806,151414.474,151425.76999997254,151431.141,152214.49,,11,wisdom
screen,html.Screen,1_1_0_1_12,2021-04-26T12:42:10.743Z,,,,,,,,,,,,,,,,53,,,,,,,,,,,,,,735.9049999925774,,response,,,,99,,,,,,,Space,keypress(Space),,,,,,,,---- -- ----- -- ------ - ------- --- ----------<br>------------- ------ ------ says ---- ------- ----- -- ----<br>-------- ------- -- ---------- --- - --- ----- ----- ----<br>---- --- --- ----- --- ---- ---- ------- ----- ---- -------<br>--- --- -- ----- -- --- ---- -- --- ---- -- ------ ------<br>--- ----- -- ----,152955.65499999793,152950.39499999257,152197.823,152203.84999999078,152214.49,152964.505,,12,says
screen,html.Screen,1_1_0_1_13,2021-04-26T12:42:11.447Z,,,,,,,,,,,,,,,,53,,,,,,,,,,,,,,680.7899999947986,,response,,,,99,,,,,,,Space,keypress(Space),,,,,,,,---- -- ----- -- ------ - ------- --- ----------<br>------------- ------ ------ ---- that ------- ----- -- ----<br>-------- ------- -- ---------- --- - --- ----- ----- ----<br>---- --- --- ----- --- ---- ---- ------- ----- ---- -------<br>--- --- -- ----- -- --- ---- -- --- ---- -- ------ ------<br>--- ----- -- ----,153659.16499996092,153645.2949999948,152947.838,152955.8599999873,152964.505,153664.519,,13,that
screen,html.Screen,1_1_0_1_14,2021-04-26T12:42:12.626Z,,,,,,,,,,,,,,,,53,,,,,,,,,,,,,,1167.7660000113246,,response,,,,99,,,,,,,Space,keypress(Space),,,,,,,,---- -- ----- -- ------ - ------- --- ----------<br>------------- ------ ------ ---- ---- feeling ----- -- ----<br>-------- ------- -- ---------- --- - --- ----- ----- ----<br>---- --- --- ----- --- ---- ---- ------- ----- ---- -------<br>--- --- -- ----- -- --- ---- -- --- ---- -- ------ ------<br>--- ----- -- ----,154838.34999997634,154832.28500001132,153647.852,153659.4000000041,153664.519,154847.876,,14,feeling
screen,html.Screen,1_1_0_1_15,2021-04-26T12:42:13.395Z,,,,,,,,,,,,,,,,53,,,,,,,,,,,,,,754.3089999670046,,response,,,,99,,,,,,,Space,keypress(Space),,,,,,,,---- -- ----- -- ------ - ------- --- ----------<br>------------- ------ ------ ---- ---- ------- close -- ----<br>-------- ------- -- ---------- --- - --- ----- ----- ----<br>---- --- --- ----- --- ---- ---- ------- ----- ---- -------<br>--- --- -- ----- -- --- ---- -- --- ---- -- ------ ------<br>--- ----- -- ----,155607.3749999632,155602.184999967,154831.209,154838.53000000818,154847.876,155615.075,,15,close
screen,html.Screen,1_1_0_1_16,2021-04-26T12:42:13.864Z,,,,,,,,,,,,,,,,53,,,,,,,,,,,,,,454.1249999689753,,response,,,,99,,,,,,,Space,keypress(Space),,,,,,,,---- -- ----- -- ------ - ------- --- ----------<br>------------- ------ ------ ---- ---- ------- ----- to ----<br>-------- ------- -- ---------- --- - --- ----- ----- ----<br>---- --- --- ----- --- ---- ---- ------- ----- ---- -------<br>--- --- -- ----- -- --- ---- -- --- ---- -- ------ ------<br>--- ----- -- ----,156075.9449999896,156069.199999969,155598.408,155607.6250000042,155615.075,156081.751,,16,to
screen,html.Screen,1_1_0_1_17,2021-04-26T12:42:14.465Z,,,,,,,,,,,,,,,,53,,,,,,,,,,,,,,592.1939999877359,,response,,,,99,,,,,,,Space,keypress(Space),,,,,,,,---- -- ----- -- ------ - ------- --- ----------<br>------------- ------ ------ ---- ---- ------- ----- -- your<br>-------- ------- -- ---------- --- - --- ----- ----- ----<br>---- --- --- ----- --- ---- ---- ------- ----- ---- -------<br>--- --- -- ----- -- --- ---- -- --- ---- -- ------ ------<br>--- ----- -- ----,156677.30499996105,156673.94499998773,156065.084,156076.78000000305,156081.751,156681.763,,17,your
screen,html.Screen,1_1_0_1_18,2021-04-26T12:42:15.405Z,,,,,,,,,,,,,,,,53,,,,,,,,,,,,,,927.1419999718491,,response,,,,99,,,,,,,Space,keypress(Space),,,,,,,,---- -- ----- -- ------ - ------- --- ----------<br>------------- ------ ------ ---- ---- ------- ----- -- ----<br>romantic ------- -- ---------- --- - --- ----- ----- ----<br>---- --- --- ----- --- ---- ---- ------- ----- ---- -------<br>--- --- -- ----- -- --- ---- -- --- ---- -- ------ ------<br>--- ----- -- ----,157617.0399999828,157608.90499997186,156665.096,156677.48000001302,156681.763,157631.782,,18,romantic
screen,html.Screen,1_1_0_1_19,2021-04-26T12:42:16.063Z,,,,,,,,,,,,,,,,53,,,,,,,,,,,,,,638.122999993735,,response,,,,99,,,,,,,Space,keypress(Space),,,,,,,,---- -- ----- -- ------ - ------- --- ----------<br>------------- ------ ------ ---- ---- ------- ----- -- ----<br>-------- partner -- ---------- --- - --- ----- ----- ----<br>---- --- --- ----- --- ---- ---- ------- ----- ---- -------<br>--- --- -- ----- -- --- ---- -- --- ---- -- ------ ------<br>--- ----- -- ----,158275.19000001485,158269.90499999374,157615.115,157617.350000015,157631.782,158281.795,,19,partner
screen,html.Screen,1_1_0_1_20,2021-04-26T12:42:16.682Z,,,,,,,,,,,,,,,,53,,,,,,,,,,,,,,608.0149999641872,,response,,,,99,,,,,,,Space,keypress(Space),,,,,,,,---- -- ----- -- ------ - ------- --- ----------<br>------------- ------ ------ ---- ---- ------- ----- -- ----<br>-------- ------- is ---------- --- - --- ----- ----- ----<br>---- --- --- ----- --- ---- ---- ------- ----- ---- -------<br>--- --- -- ----- -- --- ---- -- --- ---- -- ------ ------<br>--- ----- -- ----,158894.25499999197,158889.8099999642,158265.128,158275.4249999998,158281.795,158915.141,,20,is
screen,html.Screen,1_1_0_1_21,2021-04-26T12:42:17.853Z,,,,,,,,,,,,,,,,53,,,,,,,,,,,,,,1143.7089999721502,,response,,,,99,,,,,,,Space,keypress(Space),,,,,,,,---- -- ----- -- ------ - ------- --- ----------<br>------------- ------ ------ ---- ---- ------- ----- -- ----<br>-------- ------- -- paramount. --- - --- ----- ----- ----<br>---- --- --- ----- --- ---- ---- ------- ----- ---- -------<br>--- --- -- ----- -- --- ---- -- --- ---- -- ------ ------<br>--- ----- -- ----,160064.64499997674,160058.84999997215,158898.474,158894.3899999722,158915.141,160081.831,,21,paramount.
screen,html.Screen,1_1_0_1_22,2021-04-26T12:42:18.328Z,,,,,,,,,,,,,,,,53,,,,,,,,,,,,,,453.03399999416433,,response,,,,99,,,,,,,Space,keypress(Space),,,,,,,,---- -- ----- -- ------ - ------- --- ----------<br>------------- ------ ------ ---- ---- ------- ----- -- ----<br>-------- ------- -- ---------- But - --- ----- ----- ----<br>---- --- --- ----- --- ---- ---- ------- ----- ---- -------<br>--- --- -- ----- -- --- ---- -- --- ---- -- ------ ------<br>--- ----- -- ----,160540.0399999926,160534.86499999417,160065.164,160064.8649999639,160081.831,160548.507,,22,But
screen,html.Screen,1_1_0_1_23,2021-04-26T12:42:18.775Z,,,,,,,,,,,,,,,,53,,,,,,,,,,,,,,433.34299998192,,response,,,,99,,,,,,,Space,keypress(Space),,,,,,,,---- -- ----- -- ------ - ------- --- ----------<br>------------- ------ ------ ---- ---- ------- ----- -- ----<br>-------- ------- -- ---------- --- a --- ----- ----- ----<br>---- --- --- ----- --- ---- ---- ------- ----- ---- -------<br>--- --- -- ----- -- --- ---- -- --- ---- -- ------ ------<br>--- ----- -- ----,160986.8349999888,160981.84999998193,160531.84,160540.24499998195,160548.507,160998.516,,23,a
screen,html.Screen,1_1_0_1_24,2021-04-26T12:42:19.195Z,,,,,,,,,,,,,,,,53,,,,,,,,,,,,,,387.3940000117873,,response,,,,99,,,,,,,Space,keypress(Space),,,,,,,,---- -- ----- -- ------ - ------- --- ----------<br>------------- ------ ------ ---- ---- ------- ----- -- ----<br>-------- ------- -- ---------- --- - new ----- ----- ----<br>---- --- --- ----- --- ---- ---- ------- ----- ---- -------<br>--- --- -- ----- -- --- ---- -- --- ---- -- ------ ------<br>--- ----- -- ----,161407.31499996036,161385.9100000118,160981.849,160987.0499999961,160998.516,161415.191,,24,new
screen,html.Screen,1_1_0_1_25,2021-04-26T12:42:19.661Z,,,,,,,,,,,,,,,,53,,,,,,,,,,,,,,451.4839999974938,,response,,,,99,,,,,,,Space,keypress(Space),,,,,,,,---- -- ----- -- ------ - ------- --- ----------<br>------------- ------ ------ ---- ---- ------- ----- -- ----<br>-------- ------- -- ---------- --- - --- study ----- ----<br>---- --- --- ----- --- ---- ---- ------- ----- ---- -------<br>--- --- -- ----- -- --- ---- -- --- ---- -- ------ ------<br>--- ----- -- ----,161872.53499997314,161866.67499999749,161398.524,161407.46999997646,161415.191,161881.867,,25,study
screen,html.Screen,1_1_0_1_26,2021-04-26T12:42:20.045Z,,,,,,,,,,,,,,,,53,,,,,,,,,,,,,,369.9380000071542,,response,,,,99,,,,,,,Space,keypress(Space),,,,,,,,---- -- ----- -- ------ - ------- --- ----------<br>------------- ------ ------ ---- ---- ------- ----- -- ----<br>-------- ------- -- ---------- --- - --- ----- finds ----<br>---- --- --- ----- --- ---- ---- ------- ----- ---- -------<br>--- --- -- ----- -- --- ---- -- --- ---- -- ------ ------<br>--- ----- -- ----,162256.99999998324,162251.80500000715,161865.2,161872.68500000937,161881.867,162265.208,,26,finds
screen,html.Screen,1_1_0_1_27,2021-04-26T12:42:20.526Z,,,,,,,,,,,,,,,,53,,,,,,,,,,,,,,467.4219999840425,,response,,,,99,,,,,,,Space,keypress(Space),,,,,,,,---- -- ----- -- ------ - ------- --- ----------<br>------------- ------ ------ ---- ---- ------- ----- -- ----<br>-------- ------- -- ---------- --- - --- ----- ----- that<br>---- --- --- ----- --- ---- ---- ------- ----- ---- -------<br>--- --- -- ----- -- --- ---- -- --- ---- -- ------ ------<br>--- ----- -- ----,162737.66499996418,162732.62999998406,162248.541,162257.2199999704,162265.208,162748.551,,27,that
screen,html.Screen,1_1_0_1_28,2021-04-26T12:42:21.935Z,,,,,,,,,,,,,,,,53,,,,,,,,,,,,,,1392.1389999710664,,response,,,,99,,,,,,,Space,keypress(Space),,,,,,,,---- -- ----- -- ------ - ------- --- ----------<br>------------- ------ ------ ---- ---- ------- ----- -- ----<br>-------- ------- -- ---------- --- - --- ----- ----- ----<br>it's --- --- ----- --- ---- ---- ------- ----- ---- -------<br>--- --- -- ----- -- --- ---- -- --- ---- -- ------ ------<br>--- ----- -- ----,164146.52000000933,164140.68999997107,162731.884,162737.83499997808,162748.551,164181.913,,28,it's
screen,html.Screen,1_1_0_1_29,2021-04-26T12:42:22.680Z,,,,,,,,,,,,,,,,53,,,,,,,,,,,,,,703.5770000151242,,response,,,,99,,,,,,,Space,keypress(Space),,,,,,,,---- -- ----- -- ------ - ------- --- ----------<br>------------- ------ ------ ---- ---- ------- ----- -- ----<br>-------- ------- -- ---------- --- - --- ----- ----- ----<br>---- not --- ----- --- ---- ---- ------- ----- ---- -------<br>--- --- -- ----- -- --- ---- -- --- ---- -- ------ ------<br>--- ----- -- ----,164892.24999997532,164885.49000001512,164131.912,164146.67499996722,164181.913,164898.594,,29,not
screen,html.Screen,1_1_0_1_30,2021-04-26T12:42:23.435Z,,,,,,,,,,,,,,,,53,,,,,,,,,,,,,,743.0309999892779,,response,,,,99,,,,,,,Space,keypress(Space),,,,,,,,---- -- ----- -- ------ - ------- --- ----------<br>------------- ------ ------ ---- ---- ------- ----- -- ----<br>-------- ------- -- ---------- --- - --- ----- ----- ----<br>---- --- how ----- --- ---- ---- ------- ----- ---- -------<br>--- --- -- ----- -- --- ---- -- --- ---- -- ------ ------<br>--- ----- -- ----,165647.27999997558,165641.6249999893,164881.927,164892.44999998482,164898.594,165649.128,,30,how
screen,html.Screen,1_1_0_1_31,2021-04-26T12:42:23.917Z,,,,,,,,,,,,,,,,53,,,,,,,,,,,,,,474.3919999646314,,response,,,,99,,,,,,,Space,keypress(Space),,,,,,,,---- -- ----- -- ------ - ------- --- ----------<br>------------- ------ ------ ---- ---- ------- ----- -- ----<br>-------- ------- -- ---------- --- - --- ----- ----- ----<br>---- --- --- close --- ---- ---- ------- ----- ---- -------<br>--- --- -- ----- -- --- ---- -- --- ---- -- ------ ------<br>--- ----- -- ----,166128.69499996305,166123.51999996463,165632.461,165647.50999998068,165649.128,166132.471,,31,close
screen,html.Screen,1_1_0_1_32,2021-04-26T12:42:24.440Z,,,,,,,,,,,,,,,,53,,,,,,,,,,,,,,513.913999970915,,response,,,,99,,,,,,,Space,keypress(Space),,,,,,,,---- -- ----- -- ------ - ------- --- ----------<br>------------- ------ ------ ---- ---- ------- ----- -- ----<br>-------- ------- -- ---------- --- - --- ----- ----- ----<br>---- --- --- ----- you ---- ---- ------- ----- ---- -------<br>--- --- -- ----- -- --- ---- -- --- ---- -- ------ ------<br>--- ----- -- ----,166651.71999996528,166646.3849999709,166115.804,166128.95499996375,166132.471,166665.815,,32,you
screen,html.Screen,1_1_0_1_33,2021-04-26T12:42:24.783Z,,,,,,,,,,,,,,,,53,,,,,,,,,,,,,,323.6750000072061,,response,,,,99,,,,,,,Space,keypress(Space),,,,,,,,---- -- ----- -- ------ - ------- --- ----------<br>------------- ------ ------ ---- ---- ------- ----- -- ----<br>-------- ------- -- ---------- --- - --- ----- ----- ----<br>---- --- --- ----- --- feel ---- ------- ----- ---- -------<br>--- --- -- ----- -- --- ---- -- --- ---- -- ------ ------<br>--- ----- -- ----,166995.04000000888,166989.4900000072,166649.148,166651.91499999491,166665.815,166999.155,,33,feel
screen,html.Screen,1_1_0_1_34,2021-04-26T12:42:25.297Z,,,,,,,,,,,,,,,,53,,,,,,,,,,,,,,504.28999998027575,,response,,,,99,,,,,,,Space,keypress(Space),,,,,,,,---- -- ----- -- ------ - ------- --- ----------<br>------------- ------ ------ ---- ---- ------- ----- -- ----<br>-------- ------- -- ---------- --- - --- ----- ----- ----<br>---- --- --- ----- --- ---- that ------- ----- ---- -------<br>--- --- -- ----- -- --- ---- -- --- ---- -- ------ ------<br>--- ----- -- ----,167508.7249999633,167503.44499998027,166982.488,166995.26499997592,166999.155,167515.832,,34,that
screen,html.Screen,1_1_0_1_35,2021-04-26T12:42:25.750Z,,,,,,,,,,,,,,,,53,,,,,,,,,,,,,,440.59299998212373,,response,,,,99,,,,,,,Space,keypress(Space),,,,,,,,---- -- ----- -- ------ - ------- --- ----------<br>------------- ------ ------ ---- ---- ------- ----- -- ----<br>-------- ------- -- ---------- --- - --- ----- ----- ----<br>---- --- --- ----- --- ---- ---- matters ----- ---- -------<br>--- --- -- ----- -- --- ---- -- --- ---- -- ------ ------<br>--- ----- -- ----,167961.73499996075,167956.42499998212,167499.165,167508.94999998854,167515.832,167965.841,,35,matters
screen,html.Screen,1_1_0_1_36,2021-04-26T12:42:26.330Z,,,,,,,,,,,,,,,,53,,,,,,,,,,,,,,570.5690000006289,,response,,,,99,,,,,,,Space,keypress(Space),,,,,,,,"---- -- ----- -- ------ - ------- --- ----------<br>------------- ------ ------ ---- ---- ------- ----- -- ----<br>-------- ------- -- ---------- --- - --- ----- ----- ----<br>---- --- --- ----- --- ---- ---- ------- most, ---- -------<br>--- --- -- ----- -- --- ---- -- --- ---- -- ------ ------<br>--- ----- -- ----",168541.80000000633,168536.41000000061,167949.174,167962.0049999794,167965.841,168549.186,,36,"most,"
screen,html.Screen,1_1_0_1_37,2021-04-26T12:42:26.808Z,,,,,,,,,,,,,,,,53,,,,,,,,,,,,,,465.17900001001544,,response,,,,99,,,,,,,Space,keypress(Space),,,,,,,,---- -- ----- -- ------ - ------- --- ----------<br>------------- ------ ------ ---- ---- ------- ----- -- ----<br>-------- ------- -- ---------- --- - --- ----- ----- ----<br>---- --- --- ----- --- ---- ---- ------- ----- it's -------<br>--- --- -- ----- -- --- ---- -- --- ---- -- ------ ------<br>--- ----- -- ----,169019.44499998353,169014.36500001,168532.519,168541.97999997996,168549.186,169032.529,,37,it's
screen,html.Screen,1_1_0_1_38,2021-04-26T12:42:27.288Z,,,,,,,,,,,,,,,,53,,,,,,,,,,,,,,461.86599998697056,,response,,,,99,,,,,,,Space,keypress(Space),,,,,,,,---- -- ----- -- ------ - ------- --- ----------<br>------------- ------ ------ ---- ---- ------- ----- -- ----<br>-------- ------- -- ---------- --- - --- ----- ----- ----<br>---- --- --- ----- --- ---- ---- ------- ----- ---- whether<br>--- --- -- ----- -- --- ---- -- --- ---- -- ------ ------<br>--- ----- -- ----,169499.67499997,169494.39499998698,169015.862,169019.62500001537,169032.529,169515.872,,38,whether
screen,html.Screen,1_1_0_1_39,2021-04-26T12:42:27.785Z,,,,,,,,,,,,,,,,53,,,,,,,,,,,,,,475.362999964942,,response,,,,99,,,,,,,Space,keypress(Space),,,,,,,,---- -- ----- -- ------ - ------- --- ----------<br>------------- ------ ------ ---- ---- ------- ----- -- ----<br>-------- ------- -- ---------- --- - --- ----- ----- ----<br>---- --- --- ----- --- ---- ---- ------- ----- ---- -------<br>you --- -- ----- -- --- ---- -- --- ---- -- ------ ------<br>--- ----- -- ----,169996.5899999952,169991.23499996495,169499.205,169499.8950000154,169515.872,169999.215,,39,you
screen,html.Screen,1_1_0_1_40,2021-04-26T12:42:28.185Z,,,,,,,,,,,,,,,,53,,,,,,,,,,,,,,392.1399999706482,,response,,,,99,,,,,,,Space,keypress(Space),,,,,,,,---- -- ----- -- ------ - ------- --- ----------<br>------------- ------ ------ ---- ---- ------- ----- -- ----<br>-------- ------- -- ---------- --- - --- ----- ----- ----<br>---- --- --- ----- --- ---- ---- ------- ----- ---- -------<br>--- are -- ----- -- --- ---- -- --- ---- -- ------ ------<br>--- ----- -- ----,170396.40500000678,170391.35499997064,169982.548,169996.76999996882,169999.215,170399.223,,40,are
screen,html.Screen,1_1_0_1_41,2021-04-26T12:42:28.607Z,,,,,,,,,,,,,,,,53,,,,,,,,,,,,,,415.0869999870192,,response,,,,99,,,,,,,Space,keypress(Space),,,,,,,,---- -- ----- -- ------ - ------- --- ----------<br>------------- ------ ------ ---- ---- ------- ----- -- ----<br>-------- ------- -- ---------- --- - --- ----- ----- ----<br>---- --- --- ----- --- ---- ---- ------- ----- ---- -------<br>--- --- as ----- -- --- ---- -- --- ---- -- ------ ------<br>--- ----- -- ----,170819.32999996934,170814.30999998702,170382.556,170396.91999997012,170399.223,170832.565,,41,as
screen,html.Screen,1_1_0_1_42,2021-04-26T12:42:29.035Z,,,,,,,,,,,,,,,,53,,,,,,,,,,,,,,408.69999996054685,,response,,,,99,,,,,,,Space,keypress(Space),,,,,,,,---- -- ----- -- ------ - ------- --- ----------<br>------------- ------ ------ ---- ---- ------- ----- -- ----<br>-------- ------- -- ---------- --- - --- ----- ----- ----<br>---- --- --- ----- --- ---- ---- ------- ----- ---- -------<br>--- --- -- close -- --- ---- -- --- ---- -- ------ ------<br>--- ----- -- ----,171246.64500000654,171241.26499996055,170815.898,170819.51000000117,170832.565,171249.24,,42,close
screen,html.Screen,1_1_0_1_43,2021-04-26T12:42:29.459Z,,,,,,,,,,,,,,,,53,,,,,,,,,,,,,,413.8849999627564,,response,,,,99,,,,,,,Space,keypress(Space),,,,,,,,---- -- ----- -- ------ - ------- --- ----------<br>------------- ------ ------ ---- ---- ------- ----- -- ----<br>-------- ------- -- ---------- --- - --- ----- ----- ----<br>---- --- --- ----- --- ---- ---- ------- ----- ---- -------<br>--- --- -- ----- as --- ---- -- --- ---- -- ------ ------<br>--- ----- -- ----,171670.36499996902,171663.12499996275,171232.573,171246.82999996003,171249.24,171682.582,,43,as
screen,html.Screen,1_1_0_1_44,2021-04-26T12:42:29.845Z,,,,,,,,,,,,,,,,53,,,,,,,,,,,,,,369.48299999622395,,response,,,,99,,,,,,,Space,keypress(Space),,,,,,,,---- -- ----- -- ------ - ------- --- ----------<br>------------- ------ ------ ---- ---- ------- ----- -- ----<br>-------- ------- -- ---------- --- - --- ----- ----- ----<br>---- --- --- ----- --- ---- ---- ------- ----- ---- -------<br>--- --- -- ----- -- you ---- -- --- ---- -- ------ ------<br>--- ----- -- ----,172057.20499996096,172052.06499999622,171665.915,171670.55999999866,171682.582,172065.923,,44,you
screen,html.Screen,1_1_0_1_45,2021-04-26T12:42:30.309Z,,,,,,,,,,,,,,,,53,,,,,,,,,,,,,,449.30699996085605,,response,,,,99,,,,,,,Space,keypress(Space),,,,,,,,---- -- ----- -- ------ - ------- --- ----------<br>------------- ------ ------ ---- ---- ------- ----- -- ----<br>-------- ------- -- ---------- --- - --- ----- ----- ----<br>---- --- --- ----- --- ---- ---- ------- ----- ---- -------<br>--- --- -- ----- -- --- want -- --- ---- -- ------ ------<br>--- ----- -- ----,172520.6499999622,172515.22999996087,172049.256,172057.41000000853,172065.923,172532.599,,45,want
screen,html.Screen,1_1_0_1_46,2021-04-26T12:42:30.696Z,,,,,,,,,,,,,,,,53,,,,,,,,,,,,,,369.65599996451056,,response,,,,99,,,,,,,Space,keypress(Space),,,,,,,,---- -- ----- -- ------ - ------- --- ----------<br>------------- ------ ------ ---- ---- ------- ----- -- ----<br>-------- ------- -- ---------- --- - --- ----- ----- ----<br>---- --- --- ----- --- ---- ---- ------- ----- ---- -------<br>--- --- -- ----- -- --- ---- to --- ---- -- ------ ------<br>--- ----- -- ----,172907.435000001,172902.2549999645,172515.932,172520.85999998963,172532.599,172915.94,,46,to
screen,html.Screen,1_1_0_1_47,2021-04-26T12:42:31.183Z,,,,,,,,,,,,,,,,53,,,,,,,,,,,,,,474.15000000078,,response,,,,99,,,,,,,Space,keypress(Space),,,,,,,,"---- -- ----- -- ------ - ------- --- ----------<br>------------- ------ ------ ---- ---- ------- ----- -- ----<br>-------- ------- -- ---------- --- - --- ----- ----- ----<br>---- --- --- ----- --- ---- ---- ------- ----- ---- -------<br>--- --- -- ----- -- --- ---- -- be, ---- -- ------ ------<br>--- ----- -- ----",173394.39999999013,173390.09000000078,172899.273,172907.60500001488,172915.94,173399.283,,47,"be,"
screen,html.Screen,1_1_0_1_48,2021-04-26T12:42:32.150Z,,,,,,,,,,,,,,,,53,,,,,,,,,,,,,,956.7419999864069,,response,,,,99,,,,,,,Space,keypress(Space),,,,,,,,---- -- ----- -- ------ - ------- --- ----------<br>------------- ------ ------ ---- ---- ------- ----- -- ----<br>-------- ------- -- ---------- --- - --- ----- ----- ----<br>---- --- --- ----- --- ---- ---- ------- ----- ---- -------<br>--- --- -- ----- -- --- ---- -- --- even -- ------ ------<br>--- ----- -- ----,174362.12999996496,174356.0249999864,173382.616,173394.53499997035,173399.283,174365.969,,48,even
screen,html.Screen,1_1_0_1_49,2021-04-26T12:42:32.751Z,,,,,,,,,,,,,,,,53,,,,,,,,,,,,,,592.090999975364,,response,,,,99,,,,,,,Space,keypress(Space),,,,,,,,---- -- ----- -- ------ - ------- --- ----------<br>------------- ------ ------ ---- ---- ------- ----- -- ----<br>-------- ------- -- ---------- --- - --- ----- ----- ----<br>---- --- --- ----- --- ---- ---- ------- ----- ---- -------<br>--- --- -- ----- -- --- ---- -- --- ---- if ------ ------<br>--- ----- -- ----,174963.2499999716,174958.05999997538,174349.302,174362.31499997666,174365.969,174965.981,,49,if
screen,html.Screen,1_1_0_1_50,2021-04-26T12:42:33.227Z,,,,,,,,,,,,,,,,53,,,,,,,,,,,,,,468.0490000039863,,response,,,,99,,,,,,,Space,keypress(Space),,,,,,,,---- -- ----- -- ------ - ------- --- ----------<br>------------- ------ ------ ---- ---- ------- ----- -- ----<br>-------- ------- -- ---------- --- - --- ----- ----- ----<br>---- --- --- ----- --- ---- ---- ------- ----- ---- -------<br>--- --- -- ----- -- --- ---- -- --- ---- -- that's ------<br>--- ----- -- ----,175439.2499999958,175434.030000004,174949.314,174963.42499996535,174965.981,175449.829,,50,that's
screen,html.Screen,1_1_0_1_51,2021-04-26T12:42:33.878Z,,,,,,,,,,,,,,,,53,,,,,,,,,,,,,,635.1659999828844,,response,,,,99,,,,,,,Space,keypress(Space),,,,,,,,---- -- ----- -- ------ - ------- --- ----------<br>------------- ------ ------ ---- ---- ------- ----- -- ----<br>-------- ------- -- ---------- --- - --- ----- ----- ----<br>---- --- --- ----- --- ---- ---- ------- ----- ---- -------<br>--- --- -- ----- -- --- ---- -- --- ---- -- ------ really<br>--- ----- -- ----,176089.99499998754,176084.99499998288,175433.162,175439.42499998957,175449.829,176099.842,,51,really
screen,html.Screen,1_1_0_1_52,2021-04-26T12:42:34.564Z,,,,,,,,,,,,,,,,53,,,,,,,,,,,,,,670.1030000072788,,response,,,,99,,,,,,,Space,keypress(Space),,,,,,,,---- -- ----- -- ------ - ------- --- ----------<br>------------- ------ ------ ---- ---- ------- ----- -- ----<br>-------- ------- -- ---------- --- - --- ----- ----- ----<br>---- --- --- ----- --- ---- ---- ------- ----- ---- -------<br>--- --- -- ----- -- --- ---- -- --- ---- -- ------ ------<br>not ----- -- ----,176775.35999997053,176769.94500000728,176083.175,176090.17999999924,176099.842,176783.189,,52,not
screen,html.Screen,1_1_0_1_53,2021-04-26T12:42:35.307Z,,,,,,,,,,,,,,,,53,,,,,,,,,,,,,,731.5960000066552,,response,,,,99,,,,,,,Space,keypress(Space),,,,,,,,---- -- ----- -- ------ - ------- --- ----------<br>------------- ------ ------ ---- ---- ------- ----- -- ----<br>-------- ------- -- ---------- --- - --- ----- ----- ----<br>---- --- --- ----- --- ---- ---- ------- ----- ---- -------<br>--- --- -- ----- -- --- ---- -- --- ---- -- ------ ------<br>--- close -- ----,177518.8199999975,177514.78500000667,176766.522,176775.55999998003,176783.189,177533.204,,53,close
screen,html.Screen,1_1_0_1_54,2021-04-26T12:42:36.051Z,,,,,,,,,,,,,,,,53,,,,,,,,,,,,,,723.6509999850823,,response,,,,99,,,,,,,Space,keypress(Space),,,,,,,,---- -- ----- -- ------ - ------- --- ----------<br>------------- ------ ------ ---- ---- ------- ----- -- ----<br>-------- ------- -- ---------- --- - --- ----- ----- ----<br>---- --- --- ----- --- ---- ---- ------- ----- ---- -------<br>--- --- -- ----- -- --- ---- -- --- ---- -- ------ ------<br>--- ----- at ----,178262.37999997102,178256.85499998508,177516.537,177518.93999997992,177533.204,178266.552,,54,at
screen,html.Screen,1_1_0_1_55,2021-04-26T12:42:37.503Z,,,,,,,,,,,,,,,,53,,,,,,,,,,,,,,1443.1979999799805,,response,,,,99,,,,,,,Space,keypress(Space),,,,,,,,---- -- ----- -- ------ - ------- --- ----------<br>------------- ------ ------ ---- ---- ------- ----- -- ----<br>-------- ------- -- ---------- --- - --- ----- ----- ----<br>---- --- --- ----- --- ---- ---- ------- ----- ---- -------<br>--- --- -- ----- -- --- ---- -- --- ---- -- ------ ------<br>--- ----- -- all.,179714.99499998754,179709.74999997998,178249.885,178262.55499996478,178266.552,179733.248,,55,all.
Item 99,flow.Loop,1_1_0_1,2021-04-26T12:42:37.504Z,,,,,,,,,,,,,,,,,,,,,,,,,,,,,,38346.07199997996,,completion,,,,,C,,,,,,,,,,,silence,,,,,179715.4149999842,179709.74999997998,141297.01,141302.3449999746,141363.678,179733.248,,,
Question 1,html.Screen,1_1_0_2,2021-04-26T12:42:42.565Z,,,,,,,,,,,,,,,,,,,,,,,,,,,true,FALSE,,5026.541999981884,,response,,,,99,C,,,,,,FALSE,click #choice-2,,,,silence,,,,,184777.07499999087,184759.78999998188,179716.581,179715.6149999937,179733.248,184800.016,,,
Question 2,html.Screen,1_1_0_3,2021-04-26T12:42:47.368Z,,,,,,,,,,,,,,,,,,,,,,,,,,,true,TRUE,,4777.139000006311,,response,,,,99,C,,,,,,TRUE,click #choice-1,,,,silence,,,,,189579.94500000495,189577.1550000063,184783.349,184777.2699999623,184800.016,189600.574,,,
Item 99,flow.Sequence,1_1_0,2021-04-26T12:42:47.369Z,,,,,,,,,,,,,,,,,,,,,,,,,,,,,,58264.61300000633,,completion,,,,,,,,,,,,,,,,,,,,,189580.27999999467,189577.1550000063,131245.874,131278.67500000866,131312.542,189600.574,,,
Holding screen,html.Screen,1_1_1_0,2021-04-26T12:42:57.388Z,,,,,,,,,,,,,,,,,,,,,,,,,,,,,,10000.727000000014,,timeout,,,,,,,,,,,,,,,,,,,,,199599.70500000054,199584.634,189583.907,189580.49999998184,189600.574,199601.301,,,
screen,html.Screen,1_1_1_1_0,2021-04-26T12:42:58.912Z,,,,,,,,,,,,,,,,54,,,,,,,,,,,,,,1514.4689999748662,,response,,,,100,,,,,,,Space,keypress(Space),,,,,,,,At --- ---- --- ------ ----- ------- ---- -- --- ------- --<br>------- ---------- ------ -- ----- -- ----- -- ---- ------<br>--- ----- --- --- ------ -------- ----- --- ------ ----- --<br>----- ----- ---------- --- --- ------ ------ ---- -- ------<br>------- --- ------ ----- --- ---- ------- -- ---- --- --<br>------- ------,201123.16499999724,201115.76999997487,199584.634,199600.03999999026,199601.301,201134.665,,0,At
screen,html.Screen,1_1_1_1_1,2021-04-26T12:42:59.857Z,,,,,,,,,,,,,,,,54,,,,,,,,,,,,,,928.4899999816262,,response,,,,100,,,,,,,Space,keypress(Space),,,,,,,,-- the ---- --- ------ ----- ------- ---- -- --- ------- --<br>------- ---------- ------ -- ----- -- ----- -- ---- ------<br>--- ----- --- --- ------ -------- ----- --- ------ ----- --<br>----- ----- ---------- --- --- ------ ------ ---- -- ------<br>------- --- ------ ----- --- ---- ------- -- ---- --- --<br>------- ------,202068.1549999863,202063.15499998163,201117.998,201123.35000000894,201134.665,202084.684,,1,the
screen,html.Screen,1_1_1_1_2,2021-04-26T12:43:00.577Z,,,,,,,,,,,,,,,,54,,,,,,,,,,,,,,698.4459999961546,,response,,,,100,,,,,,,Space,keypress(Space),,,,,,,,-- --- time --- ------ ----- ------- ---- -- --- ------- --<br>------- ---------- ------ -- ----- -- ----- -- ---- ------<br>--- ----- --- --- ------ -------- ----- --- ------ ----- --<br>----- ----- ---------- --- --- ------ ------ ---- -- ------<br>------- --- ------ ----- --- ---- ------- -- ---- --- --<br>------- ------,202788.38499996345,202783.12999999616,202068.017,202068.36500001373,202084.684,202801.365,,2,time
screen,html.Screen,1_1_1_1_3,2021-04-26T12:43:01.047Z,,,,,,,,,,,,,,,,54,,,,,,,,,,,,,,451.7049999770243,,response,,,,100,,,,,,,Space,keypress(Space),,,,,,,,-- --- ---- the ------ ----- ------- ---- -- --- ------- --<br>------- ---------- ------ -- ----- -- ----- -- ---- ------<br>--- ----- --- --- ------ -------- ----- --- ------ ----- --<br>----- ----- ---------- --- --- ------ ------ ---- -- ------<br>------- --- ------ ----- --- ---- ------- -- ---- --- --<br>------- ------,203258.04499996593,203253.06999997701,202784.698,202788.55499997735,202801.365,203268.041,,3,the
screen,html.Screen,1_1_1_1_4,2021-04-26T12:43:01.559Z,,,,,,,,,,,,,,,,54,,,,,,,,,,,,,,497.8840000142518,,response,,,,100,,,,,,,Space,keypress(Space),,,,,,,,-- --- ---- --- French ----- ------- ---- -- --- ------- --<br>------- ---------- ------ -- ----- -- ----- -- ---- ------<br>--- ----- --- --- ------ -------- ----- --- ------ ----- --<br>----- ----- ---------- --- --- ------ ------ ---- -- ------<br>------- --- ------ ----- --- ---- ------- -- ---- --- --<br>------- ------,203770.66999999806,203765.92500001425,203251.374,203258.20999999996,203268.041,203784.718,,4,French
screen,html.Screen,1_1_1_1_5,2021-04-26T12:43:02.034Z,,,,,,,,,,,,,,,,54,,,,,,,,,,,,,,455.30700000643265,,response,,,,100,,,,,,,Space,keypress(Space),,,,,,,,-- --- ---- --- ------ crown ------- ---- -- --- ------- --<br>------- ---------- ------ -- ----- -- ----- -- ---- ------<br>--- ----- --- --- ------ -------- ----- --- ------ ----- --<br>----- ----- ---------- --- --- ------ ------ ---- -- ------<br>------- --- ------ ----- --- ---- ------- -- ---- --- --<br>------- ------,204245.50999997882,204240.02500000643,203768.051,203770.81000001635,203784.718,204251.394,,5,crown
screen,html.Screen,1_1_1_1_6,2021-04-26T12:43:02.510Z,,,,,,,,,,,,,,,,54,,,,,,,,,,,,,,464.6360000105051,,response,,,,100,,,,,,,Space,keypress(Space),,,,,,,,-- --- ---- --- ------ ----- secured ---- -- --- ------- --<br>------- ---------- ------ -- ----- -- ----- -- ---- ------<br>--- ----- --- --- ------ -------- ----- --- ------ ----- --<br>----- ----- ---------- --- --- ------ ------ ---- -- ------<br>------- --- ------ ----- --- ---- ------- -- ---- --- --<br>------- ------,204721.62999998545,204716.0300000105,204234.727,204245.729999966,204251.394,204734.737,,6,secured
screen,html.Screen,1_1_1_1_7,2021-04-26T12:43:02.995Z,,,,,,,,,,,,,,,,54,,,,,,,,,,,,,,466.2030000097293,,response,,,,100,,,,,,,Space,keypress(Space),,,,,,,,-- --- ---- --- ------ ----- ------- much -- --- ------- --<br>------- ---------- ------ -- ----- -- ----- -- ---- ------<br>--- ----- --- --- ------ -------- ----- --- ------ ----- --<br>----- ----- ---------- --- --- ------ ------ ---- -- ------<br>------- --- ------ ----- --- ---- ------- -- ---- --- --<br>------- ------,205206.04999997886,205200.94000000972,204718.07,204721.8400000129,204734.737,205218.08,,7,much
screen,html.Screen,1_1_1_1_8,2021-04-26T12:43:03.369Z,,,,,,,,,,,,,,,,54,,,,,,,,,,,,,,356.64500001314445,,response,,,,100,,,,,,,Space,keypress(Space),,,,,,,,-- --- ---- --- ------ ----- ------- ---- of --- ------- --<br>------- ---------- ------ -- ----- -- ----- -- ---- ------<br>--- ----- --- --- ------ -------- ----- --- ------ ----- --<br>----- ----- ---------- --- --- ------ ------ ---- -- ------<br>------- --- ------ ----- --- ---- ------- -- ---- --- --<br>------- ------,205580.77000000048,205574.72500001313,205201.413,205206.24999998836,205218.08,205584.754,,8,of
screen,html.Screen,1_1_1_1_9,2021-04-26T12:43:03.714Z,,,,,,,,,,,,,,,,54,,,,,,,,,,,,,,335.1510000170383,,response,,,,100,,,,,,,Space,keypress(Space),,,,,,,,-- --- ---- --- ------ ----- ------- ---- -- its ------- --<br>------- ---------- ------ -- ----- -- ----- -- ---- ------<br>--- ----- --- --- ------ -------- ----- --- ------ ----- --<br>----- ----- ---------- --- --- ------ ------ ---- -- ------<br>------- --- ------ ----- --- ---- ------- -- ---- --- --<br>------- ------,205925.17499998212,205919.90500001702,205568.087,205581.37500000885,205584.754,205934.761,,9,its
screen,html.Screen,1_1_1_1_10,2021-04-26T12:43:04.163Z,,,,,,,,,,,,,,,,54,,,,,,,,,,,,,,434.0389999965555,,response,,,,100,,,,,,,Space,keypress(Space),,,,,,,,-- --- ---- --- ------ ----- ------- ---- -- --- revenue --<br>------- ---------- ------ -- ----- -- ----- -- ---- ------<br>--- ----- --- --- ------ -------- ----- --- ------ ----- --<br>----- ----- ---------- --- --- ------ ------ ---- -- ------<br>------- --- ------ ----- --- ---- ------- -- ---- --- --<br>------- ------,206374.20500000007,206368.79999999655,205918.094,205925.344999996,205934.761,206384.77,,10,revenue
screen,html.Screen,1_1_1_1_11,2021-04-26T12:43:04.585Z,,,,,,,,,,,,,,,,54,,,,,,,,,,,,,,404.86999997359817,,response,,,,100,,,,,,,Space,keypress(Space),,,,,,,,-- --- ---- --- ------ ----- ------- ---- -- --- ------- by<br>------- ---------- ------ -- ----- -- ----- -- ---- ------<br>--- ----- --- --- ------ -------- ----- --- ------ ----- --<br>----- ----- ---------- --- --- ------ ------ ---- -- ------<br>------- --- ------ ----- --- ---- ------- -- ---- --- --<br>------- ------,206795.86999997264,206789.6399999736,206368.103,206374.42000000738,206384.77,206818.67,,11,by
screen,html.Screen,1_1_1_1_12,2021-04-26T12:43:05.018Z,,,,,,,,,,,,,,,,54,,,,,,,,,,,,,,405.9399999756424,,response,,,,100,,,,,,,Space,keypress(Space),,,,,,,,-- --- ---- --- ------ ----- ------- ---- -- --- ------- --<br>issuing ---------- ------ -- ----- -- ----- -- ---- ------<br>--- ----- --- --- ------ -------- ----- --- ------ ----- --<br>----- ----- ---------- --- --- ------ ------ ---- -- ------<br>------- --- ------ ----- --- ---- ------- -- ---- --- --<br>------- ------,207229.14499999024,207224.60999997566,206802.003,206796.1849999847,206818.67,207235.345,,12,issuing
screen,html.Screen,1_1_1_1_13,2021-04-26T12:43:05.450Z,,,,,,,,,,,,,,,,54,,,,,,,,,,,,,,420.38999997844803,,response,,,,100,,,,,,,Space,keypress(Space),,,,,,,,-- --- ---- --- ------ ----- ------- ---- -- --- ------- --<br>------- government ------ -- ----- -- ----- -- ---- ------<br>--- ----- --- --- ------ -------- ----- --- ------ ----- --<br>----- ----- ---------- --- --- ------ ------ ---- -- ------<br>------- --- ------ ----- --- ---- ------- -- ---- --- --<br>------- ------,207660.8000000124,207655.73499997845,207218.678,207230.195000011,207235.345,207668.687,,13,government
screen,html.Screen,1_1_1_1_14,2021-04-26T12:43:05.928Z,,,,,,,,,,,,,,,,54,,,,,,,,,,,,,,464.9130000010191,,response,,,,100,,,,,,,Space,keypress(Space),,,,,,,,-- --- ---- --- ------ ----- ------- ---- -- --- ------- --<br>------- ---------- bonds. -- ----- -- ----- -- ---- ------<br>--- ----- --- --- ------ -------- ----- --- ------ ----- --<br>----- ----- ---------- --- --- ------ ------ ---- -- ------<br>------- --- ------ ----- --- ---- ------- -- ---- --- --<br>------- ------,208138.8750000042,208133.60000000102,207652.02,207660.96999996807,207668.687,208152.03,,14,bonds.
screen,html.Screen,1_1_1_1_15,2021-04-26T12:43:06.422Z,,,,,,,,,,,,,,,,54,,,,,,,,,,,,,,476.48499998942134,,response,,,,100,,,,,,,Space,keypress(Space),,,,,,,,-- --- ---- --- ------ ----- ------- ---- -- --- ------- --<br>------- ---------- ------ In ----- -- ----- -- ---- ------<br>--- ----- --- --- ------ -------- ----- --- ------ ----- --<br>----- ----- ---------- --- --- ------ ------ ---- -- ------<br>------- --- ------ ----- --- ---- ------- -- ---- --- --<br>------- ------,208632.79499998316,208628.51499998942,208135.363,208139.02000000235,208152.03,208635.373,,15,In
screen,html.Screen,1_1_1_1_16,2021-04-26T12:43:07.561Z,,,,,,,,,,,,,,,,54,,,,,,,,,,,,,,1132.2469999987225,,response,,,,100,,,,,,,Space,keypress(Space),,,,,,,,"-- --- ---- --- ------ ----- ------- ---- -- --- ------- --<br>------- ---------- ------ -- 1727, -- ----- -- ---- ------<br>--- ----- --- --- ------ -------- ----- --- ------ ----- --<br>----- ----- ---------- --- --- ------ ------ ---- -- ------<br>------- --- ------ ----- --- ---- ------- -- ---- --- --<br>------- ------",209772.04999997048,209767.61999999871,208618.706,208632.94499996118,208635.373,209785.396,,16,"1727,"
screen,html.Screen,1_1_1_1_17,2021-04-26T12:43:07.953Z,,,,,,,,,,,,,,,,54,,,,,,,,,,,,,,374.1939999956521,,response,,,,100,,,,,,,Space,keypress(Space),,,,,,,,-- --- ---- --- ------ ----- ------- ---- -- --- ------- --<br>------- ---------- ------ -- ----- in ----- -- ---- ------<br>--- ----- --- --- ------ -------- ----- --- ------ ----- --<br>----- ----- ---------- --- --- ------ ------ ---- -- ------<br>------- --- ------ ----- --- ---- ------- -- ---- --- --<br>------- ------,210164.5450000069,210159.58999999566,209768.729,209772.17499999097,209785.396,210168.737,,17,in
screen,html.Screen,1_1_1_1_18,2021-04-26T12:43:08.483Z,,,,,,,,,,,,,,,,54,,,,,,,,,,,,,,519.8129999625671,,response,,,,100,,,,,,,Space,keypress(Space),,,,,,,,-- --- ---- --- ------ ----- ------- ---- -- --- ------- --<br>------- ---------- ------ -- ----- -- order -- ---- ------<br>--- ----- --- --- ------ -------- ----- --- ------ ----- --<br>----- ----- ---------- --- --- ------ ------ ---- -- ------<br>------- --- ------ ----- --- ---- ------- -- ---- --- --<br>------- ------,210693.82499996573,210688.54999996256,210152.07,210164.72499998054,210168.737,210702.081,,18,order
screen,html.Screen,1_1_1_1_19,2021-04-26T12:43:08.828Z,,,,,,,,,,,,,,,,54,,,,,,,,,,,,,,331.4790000107605,,response,,,,100,,,,,,,Space,keypress(Space),,,,,,,,-- --- ---- --- ------ ----- ------- ---- -- --- ------- --<br>------- ---------- ------ -- ----- -- ----- to ---- ------<br>--- ----- --- --- ------ -------- ----- --- ------ ----- --<br>----- ----- ---------- --- --- ------ ------ ---- -- ------<br>------- --- ------ ----- --- ---- ------- -- ---- --- --<br>------- ------,211038.70999999344,211033.56000001077,210685.414,210694.0000000177,210702.081,211052.088,,19,to
screen,html.Screen,1_1_1_1_20,2021-04-26T12:43:09.216Z,,,,,,,,,,,,,,,,54,,,,,,,,,,,,,,370.41199998604134,,response,,,,100,,,,,,,Space,keypress(Space),,,,,,,,-- --- ---- --- ------ ----- ------- ---- -- --- ------- --<br>------- ---------- ------ -- ----- -- ----- -- save ------<br>--- ----- --- --- ------ -------- ----- --- ------ ----- --<br>----- ----- ---------- --- --- ------ ------ ---- -- ------<br>------- --- ------ ----- --- ---- ------- -- ---- --- --<br>------- ------,211427.2050000145,211422.49999998603,211035.421,211038.9299999806,211052.088,211435.429,,20,save
screen,html.Screen,1_1_1_1_21,2021-04-26T12:43:09.623Z,,,,,,,,,,,,,,,,54,,,,,,,,,,,,,,394.0709999925457,,response,,,,100,,,,,,,Space,keypress(Space),,,,,,,,"-- --- ---- --- ------ ----- ------- ---- -- --- ------- --<br>------- ---------- ------ -- ----- -- ----- -- ---- money,<br>--- ----- --- --- ------ -------- ----- --- ------ ----- --<br>----- ----- ---------- --- --- ------ ------ ---- -- ------<br>------- --- ------ ----- --- ---- ------- -- ---- --- --<br>------- ------",211834.62999999756,211829.49999999255,211418.762,211427.3749999702,211435.429,211852.104,,21,"money,"
screen,html.Screen,1_1_1_1_22,2021-04-26T12:43:10.084Z,,,,,,,,,,,,,,,,54,,,,,,,,,,,,,,437.4009999933769,,response,,,,100,,,,,,,Space,keypress(Space),,,,,,,,-- --- ---- --- ------ ----- ------- ---- -- --- ------- --<br>------- ---------- ------ -- ----- -- ----- -- ---- ------<br>the ----- --- --- ------ -------- ----- --- ------ ----- --<br>----- ----- ---------- --- --- ------ ------ ---- -- ------<br>------- --- ------ ----- --- ---- ------- -- ---- --- --<br>------- ------,212295.26499996427,212289.50499999337,211835.437,211834.80499999132,211852.104,212302.113,,22,the
screen,html.Screen,1_1_1_1_23,2021-04-26T12:43:10.436Z,,,,,,,,,,,,,,,,54,,,,,,,,,,,,,,340.38700001628604,,response,,,,100,,,,,,,Space,keypress(Space),,,,,,,,-- --- ---- --- ------ ----- ------- ---- -- --- ------- --<br>------- ---------- ------ -- ----- -- ----- -- ---- ------<br>--- state --- --- ------ -------- ----- --- ------ ----- --<br>----- ----- ---------- --- --- ------ ------ ---- -- ------<br>------- --- ------ ----- --- ---- ------- -- ---- --- --<br>------- ------,212647.65499997884,212642.5000000163,212285.446,212295.44000001624,212302.113,212652.12,,23,state
screen,html.Screen,1_1_1_1_24,2021-04-26T12:43:10.803Z,,,,,,,,,,,,,,,,54,,,,,,,,,,,,,,357.30999997642357,,response,,,,100,,,,,,,Space,keypress(Space),,,,,,,,-- --- ---- --- ------ ----- ------- ---- -- --- ------- --<br>------- ---------- ------ -- ----- -- ----- -- ---- ------<br>--- ----- cut --- ------ -------- ----- --- ------ ----- --<br>----- ----- ---------- --- --- ------ ------ ---- -- ------<br>------- --- ------ ----- --- ---- ------- -- ---- --- --<br>------- ------,213014.5049999701,213009.42999997642,212635.453,212647.8449999704,212652.12,213018.794,,24,cut
screen,html.Screen,1_1_1_1_25,2021-04-26T12:43:11.181Z,,,,,,,,,,,,,,,,54,,,,,,,,,,,,,,368.6109999867622,,response,,,,100,,,,,,,Space,keypress(Space),,,,,,,,-- --- ---- --- ------ ----- ------- ---- -- --- ------- --<br>------- ---------- ------ -- ----- -- ----- -- ---- ------<br>--- ----- --- the ------ -------- ----- --- ------ ----- --<br>----- ----- ---------- --- --- ------ ------ ---- -- ------<br>------- --- ------ ----- --- ---- ------- -- ---- --- --<br>------- ------,213392.61499996064,213387.40499998676,213002.127,213014.74000001326,213018.794,213402.135,,25,the
screen,html.Screen,1_1_1_1_26,2021-04-26T12:43:11.600Z,,,,,,,,,,,,,,,,54,,,,,,,,,,,,,,404.26999998115934,,response,,,,100,,,,,,,Space,keypress(Space),,,,,,,,-- --- ---- --- ------ ----- ------- ---- -- --- ------- --<br>------- ---------- ------ -- ----- -- ----- -- ---- ------<br>--- ----- --- --- bonds' -------- ----- --- ------ ----- --<br>----- ----- ---------- --- --- ------ ------ ---- -- ------<br>------- --- ------ ----- --- ---- ------- -- ---- --- --<br>------- ------,213811.48999999277,213806.40499998117,213385.468,213392.83500000602,213402.135,213818.81,,26,bonds'
screen,html.Screen,1_1_1_1_27,2021-04-26T12:43:11.951Z,,,,,,,,,,,,,,,,54,,,,,,,,,,,,,,338.5899999673129,,response,,,,100,,,,,,,Space,keypress(Space),,,,,,,,-- --- ---- --- ------ ----- ------- ---- -- --- ------- --<br>------- ---------- ------ -- ----- -- ----- -- ---- ------<br>--- ----- --- --- ------ interest ----- --- ------ ----- --<br>----- ----- ---------- --- --- ------ ------ ---- -- ------<br>------- --- ------ ----- --- ---- ------- -- ---- --- --<br>------- ------,214162.50999999465,214157.3999999673,213802.143,213811.67999998434,213818.81,214168.817,,27,interest
screen,html.Screen,1_1_1_1_28,2021-04-26T12:43:12.331Z,,,,,,,,,,,,,,,,54,,,,,,,,,,,,,,367.5729999647301,,response,,,,100,,,,,,,Space,keypress(Space),,,,,,,,-- --- ---- --- ------ ----- ------- ---- -- --- ------- --<br>------- ---------- ------ -- ----- -- ----- -- ---- ------<br>--- ----- --- --- ------ -------- rate. --- ------ ----- --<br>----- ----- ---------- --- --- ------ ------ ---- -- ------<br>------- --- ------ ----- --- ---- ------- -- ---- --- --<br>------- ------,214542.24499996053,214536.38999996474,214152.15,214162.69999998622,214168.817,214552.158,,28,rate.
screen,html.Screen,1_1_1_1_29,2021-04-26T12:43:12.759Z,,,,,,,,,,,,,,,,54,,,,,,,,,,,,,,413.21699997066753,,response,,,,100,,,,,,,Space,keypress(Space),,,,,,,,-- --- ---- --- ------ ----- ------- ---- -- --- ------- --<br>------- ---------- ------ -- ----- -- ----- -- ---- ------<br>--- ----- --- --- ------ -------- ----- The ------ ----- --<br>----- ----- ---------- --- --- ------ ------ ---- -- ------<br>------- --- ------ ----- --- ---- ------- -- ---- --- --<br>------- ------,214970.57000000495,214965.37499997066,214535.491,214542.45499998797,214552.158,214985.5,,29,The
screen,html.Screen,1_1_1_1_30,2021-04-26T12:43:13.118Z,,,,,,,,,,,,,,,,54,,,,,,,,,,,,,,338.83999999193475,,response,,,,100,,,,,,,Space,keypress(Space),,,,,,,,-- --- ---- --- ------ ----- ------- ---- -- --- ------- --<br>------- ---------- ------ -- ----- -- ----- -- ---- ------<br>--- ----- --- --- ------ -------- ----- --- market ----- --<br>----- ----- ---------- --- --- ------ ------ ---- -- ------<br>------- --- ------ ----- --- ---- ------- -- ---- --- --<br>------- ------,215329.3999999878,215324.33999999193,214968.833,214970.75999999652,214985.5,215335.507,,30,market
screen,html.Screen,1_1_1_1_31,2021-04-26T12:43:13.510Z,,,,,,,,,,,,,,,,54,,,,,,,,,,,,,,379.8079999794427,,response,,,,100,,,,,,,Space,keypress(Space),,,,,,,,-- --- ---- --- ------ ----- ------- ---- -- --- ------- --<br>------- ---------- ------ -- ----- -- ----- -- ---- ------<br>--- ----- --- --- ------ -------- ----- --- ------ value --<br>----- ----- ---------- --- --- ------ ------ ---- -- ------<br>------- --- ------ ----- --- ---- ------- -- ---- --- --<br>------- ------,215720.90499999467,215715.31499997946,215318.84,215329.59500001743,215335.507,215735.515,,31,value
screen,html.Screen,1_1_1_1_32,2021-04-26T12:43:13.859Z,,,,,,,,,,,,,,,,54,,,,,,,,,,,,,,328.7849999690661,,response,,,,100,,,,,,,Space,keypress(Space),,,,,,,,-- --- ---- --- ------ ----- ------- ---- -- --- ------- --<br>------- ---------- ------ -- ----- -- ----- -- ---- ------<br>--- ----- --- --- ------ -------- ----- --- ------ ----- of<br>----- ----- ---------- --- --- ------ ------ ---- -- ------<br>------- --- ------ ----- --- ---- ------- -- ---- --- --<br>------- ------,216069.6299999836,216064.29999996908,215718.848,215721.10500000417,215735.515,216085.522,,32,of
screen,html.Screen,1_1_1_1_33,2021-04-26T12:43:14.232Z,,,,,,,,,,,,,,,,54,,,,,,,,,,,,,,352.75299996405374,,response,,,,100,,,,,,,Space,keypress(Space),,,,,,,,-- --- ---- --- ------ ----- ------- ---- -- --- ------- --<br>------- ---------- ------ -- ----- -- ----- -- ---- ------<br>--- ----- --- --- ------ -------- ----- --- ------ ----- --<br>these ----- ---------- --- --- ------ ------ ---- -- ------<br>------- --- ------ ----- --- ---- ------- -- ---- --- --<br>------- ------,216443.23500001337,216438.27499996405,216068.855,216069.81999997515,216085.522,216452.196,,33,these
screen,html.Screen,1_1_1_1_34,2021-04-26T12:43:14.597Z,,,,,,,,,,,,,,,,54,,,,,,,,,,,,,,351.0439999792725,,response,,,,100,,,,,,,Space,keypress(Space),,,,,,,,-- --- ---- --- ------ ----- ------- ---- -- --- ------- --<br>------- ---------- ------ -- ----- -- ----- -- ---- ------<br>--- ----- --- --- ------ -------- ----- --- ------ ----- --<br>----- bonds ---------- --- --- ------ ------ ---- -- ------<br>------- --- ------ ----- --- ---- ------- -- ---- --- --<br>------- ------,216808.27999999747,216803.23999997927,216435.529,216443.44000000274,216452.196,216819.365,,34,bonds
screen,html.Screen,1_1_1_1_35,2021-04-26T12:43:14.999Z,,,,,,,,,,,,,,,,54,,,,,,,,,,,,,,385.78999997419305,,response,,,,100,,,,,,,Space,keypress(Space),,,,,,,,"-- --- ---- --- ------ ----- ------- ---- -- --- ------- --<br>------- ---------- ------ -- ----- -- ----- -- ---- ------<br>--- ----- --- --- ------ -------- ----- --- ------ ----- --<br>----- ----- plummeted, --- --- ------ ------ ---- -- ------<br>------- --- ------ ----- --- ---- ------- -- ---- --- --<br>------- ------",217210.15499997884,217205.15499997418,216802.698,216808.52999998024,216819.365,217219.373,,35,"plummeted,"
screen,html.Screen,1_1_1_1_36,2021-04-26T12:43:15.490Z,,,,,,,,,,,,,,,,54,,,,,,,,,,,,,,476.8319999856467,,response,,,,100,,,,,,,Space,keypress(Space),,,,,,,,-- --- ---- --- ------ ----- ------- ---- -- --- ------- --<br>------- ---------- ------ -- ----- -- ----- -- ---- ------<br>--- ----- --- --- ------ -------- ----- --- ------ ----- --<br>----- ----- ---------- and --- ------ ------ ---- -- ------<br>------- --- ------ ----- --- ---- ------- -- ---- --- --<br>------- ------,217701.2649999815,217696.20499998564,217202.706,217210.35000000848,217219.373,217719.383,,36,and
screen,html.Screen,1_1_1_1_37,2021-04-26T12:43:15.850Z,,,,,,,,,,,,,,,,54,,,,,,,,,,,,,,335.7969999666384,,response,,,,100,,,,,,,Space,keypress(Space),,,,,,,,-- --- ---- --- ------ ----- ------- ---- -- --- ------- --<br>------- ---------- ------ -- ----- -- ----- -- ---- ------<br>--- ----- --- --- ------ -------- ----- --- ------ ----- --<br>----- ----- ---------- --- the ------ ------ ---- -- ------<br>------- --- ------ ----- --- ---- ------- -- ---- --- --<br>------- ------,218060.62000000384,218055.17999996664,217702.716,217701.48499996867,217719.383,218069.39,,37,the
screen,html.Screen,1_1_1_1_38,2021-04-26T12:43:16.214Z,,,,,,,,,,,,,,,,54,,,,,,,,,,,,,,350.76999997964595,,response,,,,100,,,,,,,Space,keypress(Space),,,,,,,,-- --- ---- --- ------ ----- ------- ---- -- --- ------- --<br>------- ---------- ------ -- ----- -- ----- -- ---- ------<br>--- ----- --- --- ------ -------- ----- --- ------ ----- --<br>----- ----- ---------- --- --- market ------ ---- -- ------<br>------- --- ------ ----- --- ---- ------- -- ---- --- --<br>------- ------,218425.27499998687,218420.15999997966,218052.723,218060.79999997746,218069.39,218436.064,,38,market
screen,html.Screen,1_1_1_1_39,2021-04-26T12:43:16.629Z,,,,,,,,,,,,,,,,54,,,,,,,,,,,,,,399.07599998102523,,response,,,,100,,,,,,,Space,keypress(Space),,,,,,,,-- --- ---- --- ------ ----- ------- ---- -- --- ------- --<br>------- ---------- ------ -- ----- -- ----- -- ---- ------<br>--- ----- --- --- ------ -------- ----- --- ------ ----- --<br>----- ----- ---------- --- --- ------ became ---- -- ------<br>------- --- ------ ----- --- ---- ------- -- ---- --- --<br>------- ------,218840.12000000803,218835.13999998104,218419.397,218425.45999999857,218436.064,218852.739,,39,became
screen,html.Screen,1_1_1_1_40,2021-04-26T12:43:17.009Z,,,,,,,,,,,,,,,,54,,,,,,,,,,,,,,361.2009999869042,,response,,,,100,,,,,,,Space,keypress(Space),,,,,,,,-- --- ---- --- ------ ----- ------- ---- -- --- ------- --<br>------- ---------- ------ -- ----- -- ----- -- ---- ------<br>--- ----- --- --- ------ -------- ----- --- ------ ----- --<br>----- ----- ---------- --- --- ------ ------ wary -- ------<br>------- --- ------ ----- --- ---- ------- -- ---- --- --<br>------- ------,219219.6699999622,219213.9399999869,218836.072,218840.3099999996,218852.739,219236.08,,40,wary
screen,html.Screen,1_1_1_1_41,2021-04-26T12:43:17.360Z,,,,,,,,,,,,,,,,54,,,,,,,,,,,,,,329.8699999601522,,response,,,,100,,,,,,,Space,keypress(Space),,,,,,,,-- --- ---- --- ------ ----- ------- ---- -- --- ------- --<br>------- ---------- ------ -- ----- -- ----- -- ---- ------<br>--- ----- --- --- ------ -------- ----- --- ------ ----- --<br>----- ----- ---------- --- --- ------ ------ ---- of ------<br>------- --- ------ ----- --- ---- ------- -- ---- --- --<br>------- ------,219570.7500000135,219565.94999996014,219219.413,219219.80500000063,219236.08,219586.087,,41,of
screen,html.Screen,1_1_1_1_42,2021-04-26T12:43:17.752Z,,,,,,,,,,,,,,,,54,,,,,,,,,,,,,,371.9729999753763,,response,,,,100,,,,,,,Space,keypress(Space),,,,,,,,-- --- ---- --- ------ ----- ------- ---- -- --- ------- --<br>------- ---------- ------ -- ----- -- ----- -- ---- ------<br>--- ----- --- --- ------ -------- ----- --- ------ ----- --<br>----- ----- ---------- --- --- ------ ------ ---- -- French<br>------- --- ------ ----- --- ---- ------- -- ---- --- --<br>------- ------,219963.22500001406,219958.05999997538,219569.42,219570.92500000726,219586.087,219969.428,,42,French
screen,html.Screen,1_1_1_1_43,2021-04-26T12:43:18.214Z,,,,,,,,,,,,,,,,54,,,,,,,,,,,,,,450.61699997709366,,response,,,,100,,,,,,,Space,keypress(Space),,,,,,,,-- --- ---- --- ------ ----- ------- ---- -- --- ------- --<br>------- ---------- ------ -- ----- -- ----- -- ---- ------<br>--- ----- --- --- ------ -------- ----- --- ------ ----- --<br>----- ----- ---------- --- --- ------ ------ ---- -- ------<br>credit. --- ------ ----- --- ---- ------- -- ---- --- --<br>------- ------,220425.28999998467,220420.0449999771,219952.761,219963.43000000343,219969.428,220436.104,,43,credit.
screen,html.Screen,1_1_1_1_44,2021-04-26T12:43:18.651Z,,,,,,,,,,,,,,,,54,,,,,,,,,,,,,,420.9009999980335,,response,,,,100,,,,,,,Space,keypress(Space),,,,,,,,-- --- ---- --- ------ ----- ------- ---- -- --- ------- --<br>------- ---------- ------ -- ----- -- ----- -- ---- ------<br>--- ----- --- --- ------ -------- ----- --- ------ ----- --<br>----- ----- ---------- --- --- ------ ------ ---- -- ------<br>------- The ------ ----- --- ---- ------- -- ---- --- --<br>------- ------,220862.06000001403,220857.00499999803,220419.437,220425.4700000165,220436.104,220869.446,,44,The
screen,html.Screen,1_1_1_1_45,2021-04-26T12:43:19.047Z,,,,,,,,,,,,,,,,54,,,,,,,,,,,,,,383.538999970071,,response,,,,100,,,,,,,Space,keypress(Space),,,,,,,,-- --- ---- --- ------ ----- ------- ---- -- --- ------- --<br>------- ---------- ------ -- ----- -- ----- -- ---- ------<br>--- ----- --- --- ------ -------- ----- --- ------ ----- --<br>----- ----- ---------- --- --- ------ ------ ---- -- ------<br>------- --- French ----- --- ---- ------- -- ---- --- --<br>------- ------,221258.0200000084,221252.98499997007,220852.779,220862.24499996752,220869.446,221269.454,,45,French
screen,html.Screen,1_1_1_1_46,2021-04-26T12:43:19.418Z,,,,,,,,,,,,,,,,54,,,,,,,,,,,,,,353.5060000078811,,response,,,,100,,,,,,,Space,keypress(Space),,,,,,,,-- --- ---- --- ------ ----- ------- ---- -- --- ------- --<br>------- ---------- ------ -- ----- -- ----- -- ---- ------<br>--- ----- --- --- ------ -------- ----- --- ------ ----- --<br>----- ----- ---------- --- --- ------ ------ ---- -- ------<br>------- --- ------ state --- ---- ------- -- ---- --- --<br>------- ------,221628.83000000147,221622.96000000788,221252.787,221258.20999999996,221269.454,221636.128,,46,state
screen,html.Screen,1_1_1_1_47,2021-04-26T12:43:19.831Z,,,,,,,,,,,,,,,,54,,,,,,,,,,,,,,400.8119999617629,,response,,,,100,,,,,,,Space,keypress(Space),,,,,,,,-- --- ---- --- ------ ----- ------- ---- -- --- ------- --<br>------- ---------- ------ -- ----- -- ----- -- ---- ------<br>--- ----- --- --- ------ -------- ----- --- ------ ----- --<br>----- ----- ---------- --- --- ------ ------ ---- -- ------<br>------- --- ------ ----- was ---- ------- -- ---- --- --<br>------- ------,222042.01500001363,222036.93999996176,221619.461,221629.00499999523,221636.128,222052.803,,47,was
screen,html.Screen,1_1_1_1_48,2021-04-26T12:43:20.207Z,,,,,,,,,,,,,,,,54,,,,,,,,,,,,,,360.12699999130564,,response,,,,100,,,,,,,Space,keypress(Space),,,,,,,,-- --- ---- --- ------ ----- ------- ---- -- --- ------- --<br>------- ---------- ------ -- ----- -- ----- -- ---- ------<br>--- ----- --- --- ------ -------- ----- --- ------ ----- --<br>----- ----- ---------- --- --- ------ ------ ---- -- ------<br>------- --- ------ ----- --- left ------- -- ---- --- --<br>------- ------,222418.01500000292,222412.92999999132,222036.136,222042.1900000074,222052.803,222419.477,,48,left
screen,html.Screen,1_1_1_1_49,2021-04-26T12:43:20.577Z,,,,,,,,,,,,,,,,54,,,,,,,,,,,,,,363.4079999932437,,response,,,,100,,,,,,,Space,keypress(Space),,,,,,,,-- --- ---- --- ------ ----- ------- ---- -- --- ------- --<br>------- ---------- ------ -- ----- -- ----- -- ---- ------<br>--- ----- --- --- ------ -------- ----- --- ------ ----- --<br>----- ----- ---------- --- --- ------ ------ ---- -- ------<br>------- --- ------ ----- --- ---- without -- ---- --- --<br>------- ------,222788.1499999785,222782.88499999326,222402.81,222418.18999999668,222419.477,222802.818,,49,without
screen,html.Screen,1_1_1_1_50,2021-04-26T12:43:21.012Z,,,,,,,,,,,,,,,,54,,,,,,,,,,,,,,415.37699996490846,,response,,,,100,,,,,,,Space,keypress(Space),,,,,,,,-- --- ---- --- ------ ----- ------- ---- -- --- ------- --<br>------- ---------- ------ -- ----- -- ----- -- ---- ------<br>--- ----- --- --- ------ -------- ----- --- ------ ----- --<br>----- ----- ---------- --- --- ------ ------ ---- -- ------<br>------- --- ------ ----- --- ---- ------- an ---- --- --<br>------- ------,223223.404999997,223218.1949999649,222786.151,222788.33499999018,222802.818,223236.16,,50,an
screen,html.Screen,1_1_1_1_51,2021-04-26T12:43:21.363Z,,,,,,,,,,,,,,,,54,,,,,,,,,,,,,,332.6850000015984,,response,,,,100,,,,,,,Space,keypress(Space),,,,,,,,-- --- ---- --- ------ ----- ------- ---- -- --- ------- --<br>------- ---------- ------ -- ----- -- ----- -- ---- ------<br>--- ----- --- --- ------ -------- ----- --- ------ ----- --<br>----- ----- ---------- --- --- ------ ------ ---- -- ------<br>------- --- ------ ----- --- ---- ------- -- easy --- --<br>------- ------,223574.04999999562,223568.8450000016,223219.493,223223.56999997282,223236.16,223586.167,,51,easy
screen,html.Screen,1_1_1_1_52,2021-04-26T12:43:21.775Z,,,,,,,,,,,,,,,,54,,,,,,,,,,,,,,394.64800001718686,,response,,,,100,,,,,,,Space,keypress(Space),,,,,,,,-- --- ---- --- ------ ----- ------- ---- -- --- ------- --<br>------- ---------- ------ -- ----- -- ----- -- ---- ------<br>--- ----- --- --- ------ -------- ----- --- ------ ----- --<br>----- ----- ---------- --- --- ------ ------ ---- -- ------<br>------- --- ------ ----- --- ---- ------- -- ---- way --<br>------- ------,223986.22500000056,223980.81500001717,223569.5,223574.22999996925,223586.167,224002.842,,52,way
screen,html.Screen,1_1_1_1_53,2021-04-26T12:43:22.185Z,,,,,,,,,,,,,,,,54,,,,,,,,,,,,,,387.96299997362075,,response,,,,100,,,,,,,Space,keypress(Space),,,,,,,,-- --- ---- --- ------ ----- ------- ---- -- --- ------- --<br>------- ---------- ------ -- ----- -- ----- -- ---- ------<br>--- ----- --- --- ------ -------- ----- --- ------ ----- --<br>----- ----- ---------- --- --- ------ ------ ---- -- ------<br>------- --- ------ ----- --- ---- ------- -- ---- --- of<br>------- ------,224395.82500001416,224390.80499997362,223986.175,223986.39500001445,224002.842,224402.85,,53,of
screen,html.Screen,1_1_1_1_54,2021-04-26T12:43:22.577Z,,,,,,,,,,,,,,,,54,,,,,,,,,,,,,,379.9049999928975,,response,,,,100,,,,,,,Space,keypress(Space),,,,,,,,-- --- ---- --- ------ ----- ------- ---- -- --- ------- --<br>------- ---------- ------ -- ----- -- ----- -- ---- ------<br>--- ----- --- --- ------ -------- ----- --- ------ ----- --<br>----- ----- ---------- --- --- ------ ------ ---- -- ------<br>------- --- ------ ----- --- ---- ------- -- ---- --- --<br>raising ------,224787.949999969,224782.7549999929,224386.183,224396.1099999724,224402.85,224802.858,,54,raising
screen,html.Screen,1_1_1_1_55,2021-04-26T12:43:23.146Z,,,,,,,,,,,,,,,,54,,,,,,,,,,,,,,548.8569999970496,,response,,,,100,,,,,,,Space,keypress(Space),,,,,,,,-- --- ---- --- ------ ----- ------- ---- -- --- ------- --<br>------- ---------- ------ -- ----- -- ----- -- ---- ------<br>--- ----- --- --- ------ -------- ----- --- ------ ----- --<br>----- ----- ---------- --- --- ------ ------ ---- -- ------<br>------- --- ------ ----- --- ---- ------- -- ---- --- --<br>------- money.,225357.06499998923,225351.71499999706,224786.191,224788.11999998288,224802.858,225369.536,,55,money.
Item 100,flow.Loop,1_1_1_1,2021-04-26T12:43:23.146Z,,,,,,,,,,,,,,,,,,,,,,,,,,,,,,25750.41399999705,,completion,,,,,C,,,,,,,,,,,silence,,,,,225357.36500000348,225351.71499999706,199584.634,199599.8949999921,199601.301,225369.536,,,
Question 1,html.Screen,1_1_1_2,2021-04-26T12:43:26.551Z,,,,,,,,,,,,,,,,,,,,,,,,,,,true,TRUE,,3389.868999960687,,response,,,,100,C,,,,,,TRUE,click #choice-1,,,,silence,,,,,228762.3850000091,228759.40499996068,225352.869,225357.50499996357,225369.536,228786.768,,,
Question 2,html.Screen,1_1_1_3,2021-04-26T12:43:29.144Z,,,,,,,,,,,,,,,,,,,,,,,,,,,true,FALSE,,2565.266999988962,,response,,,,100,C,,,,,,FALSE,click #choice-2,,,,silence,,,,,231354.93999999017,231352.03499998897,228770.101,228762.5349999871,228786.768,231370.153,,,
Item 100,flow.Sequence,1_1_1,2021-04-26T12:43:29.144Z,,,,,,,,,,,,,,,,,,,,,,,,,,,,,,41751.46099998898,,completion,,,,,,,,,,,,,,,,,,,,,231355.1349999616,231352.03499998897,189583.907,189580.40500001516,189600.574,231370.153,,,
End of Practice,html.Page,1_1_2,2021-04-26T12:43:31.967Z,,,,,,,,,,,,,,,,,,,,,,,,,,,,,,2807.8019999628305,,form submission,,,,,,,,,,,,,,,,,,,,,234178.22999996133,234177.95499996282,231353.486,231355.24499998428,231370.153,234186.876,,,
Practice,flow.Sequence,1_1,2021-04-26T12:43:31.968Z,,,,,,,,,,,,,,,,,,,,,,,,,,,,,,102865.41299996283,,completion,,,,,,,,,,,,,,,,,,,,,234178.50500001805,234177.95499996282,131245.874,131278.55499996804,131312.542,234186.876,,,
Trap_instruction,html.Page,1_2_0,2021-04-26T12:43:35.453Z,,,,,,,,,,,,,,,,,,,,,,,,,,,,,,3476.8489999912563,,form submission,,,,,,,,,,,,,,,,,,,,,237663.9650000143,237663.72499999125,234170.209,234178.665000014,234186.876,237703.613,,,
trap_trial,html.Screen,1_2_1,2021-04-26T12:43:39.497Z,,,,,,,,,,,,,,,,,,,,,,,,,,,true,1,,4000.686999983038,,response,,,,,,,,,,,1,click #choice-1,,,,,,,,,241707.62999996077,241704.29999998305,237670.279,237664.0849999967,237703.613,241720.919,,,
end of trap trial,html.Page,1_2_2,2021-04-26T12:43:41.625Z,,,,,,,,,,,,,,,,,,,,,,,,,,,,,,2114.086000000825,,form submission,,,,,,,,,,,,,,,,,,,,,243835.2399999858,243835.00500000082,241704.252,241707.79000001494,241720.919,243854.295,,,
Trap 1,flow.Sequence,1_2,2021-04-26T12:43:41.625Z,,,,,,,,,,,,,,,,,,,,,,,,,,,,,,9648.12900000083,,completion,,,,,,,,,,,,,,,,,,,,,243835.43500001542,243835.00500000082,234170.209,234178.61499998253,234186.876,243854.295,,,
Standby,html.Page,1_3_0,2021-04-26T12:43:49.629Z,,,,,,,,,,,,,,,,,,,,,,,,,,,,,,8000.159999999974,,timeout,,,,,,,,,,,,,,,,,,,,,251839.21999996528,251837.788,243837.628,243835.74999996927,243854.295,251854.455,,,
Holding screen,html.Screen,1_3_1_0_0,2021-04-26T12:43:56.630Z,,,,,,,,,,,,,,,,,,,,,,,,,,,,,,7000.847000000009,,timeout,,,,,,,,,,,,,,,,,,,,,258840.67999996478,258838.635,251837.788,251839.78999999817,251854.455,258855.302,,,
screen,html.Screen,1_3_1_0_1_0,2021-04-26T12:43:57.877Z,,,,,,,,,,,,,,,,48,,,,,,,,,,,,,,1225.3780000136758,,response,,,,10,C,,,,,,Space,keypress(Space),,,,instrumental,,,,As -- --- ------ ------- --------- ----------- --------<br>--------- -------- --- ------- -- ------- ---- -- ------<br>-- --- -------- -------- ---------- ---- ---- ---- ------<br>-- --------- -- ---- -- --- -- --- ------- -- - -----<br>---------- -- -- -- ---- ----- -- ------ -- --- ------<br>-------,260087.67500001704,260080.68000001367,258838.635,258841.30999998888,258855.302,260088.66,,0,As
screen,html.Screen,1_3_1_0_1_1,2021-04-26T12:43:58.326Z,,,,,,,,,,,,,,,,48,,,,,,,,,,,,,,443.0599999699334,,response,,,,10,C,,,,,,Space,keypress(Space),,,,instrumental,,,,-- in --- ------ ------- --------- ----------- --------<br>--------- -------- --- ------- -- ------- ---- -- ------<br>-- --- -------- -------- ---------- ---- ---- ---- ------<br>-- --------- -- ---- -- --- -- --- ------- -- - -----<br>---------- -- -- -- ---- ----- -- ------ -- --- ------<br>-------,260536.64999996545,260531.71999996994,260071.993,260087.91499998188,260088.66,260538.669,,1,in
screen,html.Screen,1_3_1_0_1_2,2021-04-26T12:43:58.711Z,,,,,,,,,,,,,,,,48,,,,,,,,,,,,,,377.7960000166204,,response,,,,10,C,,,,,,Space,keypress(Space),,,,instrumental,,,,-- -- the ------ ------- --------- ----------- --------<br>--------- -------- --- ------- -- ------- ---- -- ------<br>-- --- -------- -------- ---------- ---- ---- ---- ------<br>-- --------- -- ---- -- --- -- --- ------- -- - -----<br>---------- -- -- -- ---- ----- -- ------ -- --- ------<br>-------,260921.5850000037,260916.46500001661,260522.002,260536.85999999288,260538.669,260938.677,,2,the
screen,html.Screen,1_3_1_0_1_3,2021-04-26T12:43:59.175Z,,,,,,,,,,,,,,,,48,,,,,,,,,,,,,,440.72800001423457,,response,,,,10,C,,,,,,Space,keypress(Space),,,,instrumental,,,,-- -- --- United ------- --------- ----------- --------<br>--------- -------- --- ------- -- ------- ---- -- ------<br>-- --- -------- -------- ---------- ---- ---- ---- ------<br>-- --------- -- ---- -- --- -- --- ------- -- - -----<br>---------- -- -- -- ---- ----- -- ------ -- --- ------<br>-------,261385.37500001257,261379.40500001423,260922.01,260921.80999997072,260938.677,261388.686,,3,United
screen,html.Screen,1_3_1_0_1_4,2021-04-26T12:43:59.599Z,,,,,,,,,,,,,,,,48,,,,,,,,,,,,,,414.70400001551025,,response,,,,10,C,,,,,,Space,keypress(Space),,,,instrumental,,,,"-- -- --- ------ States, --------- ----------- --------<br>--------- -------- --- ------- -- ------- ---- -- ------<br>-- --- -------- -------- ---------- ---- ---- ---- ------<br>-- --------- -- ---- -- --- -- --- ------- -- - -----<br>---------- -- -- -- ---- ----- -- ------ -- --- ------<br>-------",261808.95999999484,261803.3900000155,261372.019,261385.57499996386,261388.686,261822.028,,4,"States,"
screen,html.Screen,1_3_1_0_1_5,2021-04-26T12:44:00.101Z,,,,,,,,,,,,,,,,48,,,,,,,,,,,,,,484.3570000035106,,response,,,,10,C,,,,,,Space,keypress(Space),,,,instrumental,,,,-- -- --- ------ ------- Colombian ----------- --------<br>--------- -------- --- ------- -- ------- ---- -- ------<br>-- --- -------- -------- ---------- ---- ---- ---- ------<br>-- --------- -- ---- -- --- -- --- ------- -- - -----<br>---------- -- -- -- ---- ----- -- ------ -- --- ------<br>-------,262311.73999997554,262306.3850000035,261805.361,261809.1649999842,261822.028,262322.038,,5,Colombian
screen,html.Screen,1_3_1_0_1_6,2021-04-26T12:44:00.509Z,,,,,,,,,,,,,,,,48,,,,,,,,,,,,,,391.3419999719481,,response,,,,10,C,,,,,,Space,keypress(Space),,,,instrumental,,,,-- -- --- ------ ------- --------- legislation --------<br>--------- -------- --- ------- -- ------- ---- -- ------<br>-- --- -------- -------- ---------- ---- ---- ---- ------<br>-- --------- -- ---- -- --- -- --- ------- -- - -----<br>---------- -- -- -- ---- ----- -- ------ -- --- ------<br>-------,262719.5599999977,262713.37999997195,262305.371,262312.024999992,262322.038,262722.046,,6,legislation
screen,html.Screen,1_3_1_0_1_7,2021-04-26T12:44:01.080Z,,,,,,,,,,,,,,,,48,,,,,,,,,,,,,,563.2889999641338,,response,,,,10,C,,,,,,Space,keypress(Space),,,,instrumental,,,,-- -- --- ------ ------- --------- ----------- requires<br>--------- -------- --- ------- -- ------- ---- -- ------<br>-- --- -------- -------- ---------- ---- ---- ---- ------<br>-- --------- -- ---- -- --- -- --- ------- -- - -----<br>---------- -- -- -- ---- ----- -- ------ -- --- ------<br>-------,263290.4199999757,263285.3349999641,262705.379,262719.78499996476,262722.046,263305.897,,7,requires
screen,html.Screen,1_3_1_0_1_8,2021-04-26T12:44:01.924Z,,,,,,,,,,,,,,,,48,,,,,,,,,,,,,,822.5280000026105,,response,,,,10,C,,,,,,Space,keypress(Space),,,,instrumental,,,,-- -- --- ------ ------- --------- ----------- --------<br>travelers -------- --- ------- -- ------- ---- -- ------<br>-- --- -------- -------- ---------- ---- ---- ---- ------<br>-- --------- -- ---- -- --- -- --- ------- -- - -----<br>---------- -- -- -- ---- ----- -- ------ -- --- ------<br>-------,264134.1750000138,264128.4250000026,263289.23,263290.6249999651,263305.897,264139.247,,8,travelers
screen,html.Screen,1_3_1_0_1_9,2021-04-26T12:44:02.429Z,,,,,,,,,,,,,,,,48,,,,,,,,,,,,,,495.01299996254966,,response,,,,10,C,,,,,,Space,keypress(Space),,,,instrumental,,,,-- -- --- ------ ------- --------- ----------- --------<br>--------- entering --- ------- -- ------- ---- -- ------<br>-- --- -------- -------- ---------- ---- ---- ---- ------<br>-- --------- -- ---- -- --- -- --- ------- -- - -----<br>---------- -- -- -- ---- ----- -- ------ -- --- ------<br>-------,264639.7049999796,264634.2599999625,264122.58,264134.4749999698,264139.247,264655.924,,9,entering
screen,html.Screen,1_3_1_0_1_10,2021-04-26T12:44:02.820Z,,,,,,,,,,,,,,,,48,,,,,,,,,,,,,,369.33599996578414,,response,,,,10,C,,,,,,Space,keypress(Space),,,,instrumental,,,,-- -- --- ------ ------- --------- ----------- --------<br>--------- -------- the ------- -- ------- ---- -- ------<br>-- --- -------- -------- ---------- ---- ---- ---- ------<br>-- --------- -- ---- -- --- -- --- ------- -- - -----<br>---------- -- -- -- ---- ----- -- ------ -- --- ------<br>-------,265030.68999998504,265025.2599999658,264639.257,264639.9049999891,264655.924,265039.265,,10,the
screen,html.Screen,1_3_1_0_1_11,2021-04-26T12:44:03.501Z,,,,,,,,,,,,,,,,48,,,,,,,,,,,,,,666.895000001532,,response,,,,10,C,,,,,,Space,keypress(Space),,,,instrumental,,,,-- -- --- ------ ------- --------- ----------- --------<br>--------- -------- --- country -- ------- ---- -- ------<br>-- --- -------- -------- ---------- ---- ---- ---- ------<br>-- --------- -- ---- -- --- -- --- ------- -- - -----<br>---------- -- -- -- ---- ----- -- ------ -- --- ------<br>-------,265711.650000012,265706.16000000155,265022.598,265030.9000000125,265039.265,265722.612,,11,country
screen,html.Screen,1_3_1_0_1_12,2021-04-26T12:44:03.750Z,,,,,,,,,,,,,,,,48,,,,,,,,,,,,,,232.6329999609734,,response,,,,10,C,,,,,,Space,keypress(Space),,,,instrumental,,,,-- -- --- ------ ------- --------- ----------- --------<br>--------- -------- --- ------- to ------- ---- -- ------<br>-- --- -------- -------- ---------- ---- ---- ---- ------<br>-- --------- -- ---- -- --- -- --- ------- -- - -----<br>---------- -- -- -- ---- ----- -- ------ -- --- ------<br>-------,265960.7449999894,265955.244999961,265705.945,265711.8550000014,265722.612,265972.617,,12,to
screen,html.Screen,1_3_1_0_1_13,2021-04-26T12:44:04.137Z,,,,,,,,,,,,,,,,48,,,,,,,,,,,,,,369.53799996204907,,response,,,,10,C,,,,,,Space,keypress(Space),,,,instrumental,,,,-- -- --- ------ ------- --------- ----------- --------<br>--------- -------- --- ------- -- declare ---- -- ------<br>-- --- -------- -------- ---------- ---- ---- ---- ------<br>-- --------- -- ---- -- --- -- --- ------- -- - -----<br>---------- -- -- -- ---- ----- -- ------ -- --- ------<br>-------,266347.5599999656,266342.1549999621,265955.95,265960.91999998316,265972.617,266355.958,,13,declare
screen,html.Screen,1_3_1_0_1_14,2021-04-26T12:44:04.531Z,,,,,,,,,,,,,,,,48,,,,,,,,,,,,,,380.23700000497047,,response,,,,10,C,,,,,,Space,keypress(Space),,,,instrumental,,,,-- -- --- ------ ------- --------- ----------- --------<br>--------- -------- --- ------- -- ------- cash -- ------<br>-- --- -------- -------- ---------- ---- ---- ---- ------<br>-- --------- -- ---- -- --- -- --- ------- -- - -----<br>---------- -- -- -- ---- ----- -- ------ -- --- ------<br>-------,266741.5150000015,266736.19500000495,266339.291,266347.76500001317,266355.958,266755.966,,14,cash
screen,html.Screen,1_3_1_0_1_15,2021-04-26T12:44:04.907Z,,,,,,,,,,,,,,,,48,,,,,,,,,,,,,,355.9689999935217,,response,,,,10,C,,,,,,Space,keypress(Space),,,,instrumental,,,,-- -- --- ------ ------- --------- ----------- --------<br>--------- -------- --- ------- -- ------- ---- in ------<br>-- --- -------- -------- ---------- ---- ---- ---- ------<br>-- --------- -- ---- -- --- -- --- ------- -- - -----<br>---------- -- -- -- ---- ----- -- ------ -- --- ------<br>-------,267117.4599999795,267111.93499999354,266739.299,266741.7199999909,266755.966,267122.64,,15,in
screen,html.Screen,1_3_1_0_1_16,2021-04-26T12:44:05.450Z,,,,,,,,,,,,,,,,48,,,,,,,,,,,,,,532.4749999722699,,response,,,,10,C,,,,,,Space,keypress(Space),,,,instrumental,,,,-- -- --- ------ ------- --------- ----------- --------<br>--------- -------- --- ------- -- ------- ---- -- excess<br>-- --- -------- -------- ---------- ---- ---- ---- ------<br>-- --------- -- ---- -- --- -- --- ------- -- - -----<br>---------- -- -- -- ---- ----- -- ------ -- --- ------<br>-------,267660.195000004,267655.1149999723,267105.973,267117.64999997104,267122.64,267672.651,,16,excess
screen,html.Screen,1_3_1_0_1_17,2021-04-26T12:44:06.171Z,,,,,,,,,,,,,,,,48,,,,,,,,,,,,,,703.3740000050166,,response,,,,10,C,,,,,,Space,keypress(Space),,,,instrumental,,,,-- -- --- ------ ------- --------- ----------- --------<br>--------- -------- --- ------- -- ------- ---- -- ------<br>of --- -------- -------- ---------- ---- ---- ---- ------<br>-- --------- -- ---- -- --- -- --- ------- -- - -----<br>---------- -- -- -- ---- ----- -- ------ -- --- ------<br>-------,268381.5600000089,268376.02500000503,267655.984,267660.3650000179,267672.651,268389.332,,17,of
screen,html.Screen,1_3_1_0_1_18,2021-04-26T12:44:06.740Z,,,,,,,,,,,,,,,,48,,,,,,,,,,,,,,555.6129999956465,,response,,,,10,C,,,,,,Space,keypress(Space),,,,instrumental,,,,-- -- --- ------ ------- --------- ----------- --------<br>--------- -------- --- ------- -- ------- ---- -- ------<br>-- ten -------- -------- ---------- ---- ---- ---- ------<br>-- --------- -- ---- -- --- -- --- ------- -- - -----<br>---------- -- -- -- ---- ----- -- ------ -- --- ------<br>-------,268950.5599999684,268944.94499999564,268372.665,268381.7750000162,268389.332,268956.01,,18,ten
screen,html.Screen,1_3_1_0_1_19,2021-04-26T12:44:07.118Z,,,,,,,,,,,,,,,,48,,,,,,,,,,,,,,366.9749999770429,,response,,,,10,C,,,,,,Space,keypress(Space),,,,instrumental,,,,-- -- --- ------ ------- --------- ----------- --------<br>--------- -------- --- ------- -- ------- ---- -- ------<br>-- --- thousand -------- ---------- ---- ---- ---- ------<br>-- --------- -- ---- -- --- -- --- ------- -- - -----<br>---------- -- -- -- ---- ----- -- ------ -- --- ------<br>-------,269328.08499998646,269322.98499997705,268939.343,268950.7250000024,268956.01,269339.351,,19,thousand
screen,html.Screen,1_3_1_0_1_20,2021-04-26T12:44:07.495Z,,,,,,,,,,,,,,,,48,,,,,,,,,,,,,,359.6090000087861,,response,,,,10,C,,,,,,Space,keypress(Space),,,,instrumental,,,,-- -- --- ------ ------- --------- ----------- --------<br>--------- -------- --- ------- -- ------- ---- -- ------<br>-- --- -------- dollars. ---------- ---- ---- ---- ------<br>-- --------- -- ---- -- --- -- --- ------- -- - -----<br>---------- -- -- -- ---- ----- -- ------ -- --- ------<br>-------,269704.8150000046,269698.9600000088,269322.684,269328.2599999802,269339.351,269706.025,,20,dollars.
screen,html.Screen,1_3_1_0_1_21,2021-04-26T12:44:08.211Z,,,,,,,,,,,,,,,,48,,,,,,,,,,,,,,708.8800000123447,,response,,,,10,C,,,,,,Space,keypress(Space),,,,instrumental,,,,-- -- --- ------ ------- --------- ----------- --------<br>--------- -------- --- ------- -- ------- ---- -- ------<br>-- --- -------- -------- Concealing ---- ---- ---- ------<br>-- --------- -- ---- -- --- -- --- ------- -- - -----<br>---------- -- -- -- ---- ----- -- ------ -- --- ------<br>-------,270421.0449999664,270414.90500001237,269689.358,269704.9849999603,269706.025,270422.706,,21,Concealing
screen,html.Screen,1_3_1_0_1_22,2021-04-26T12:44:08.599Z,,,,,,,,,,,,,,,,48,,,,,,,,,,,,,,381.14399996749125,,response,,,,10,C,,,,,,Space,keypress(Space),,,,instrumental,,,,-- -- --- ------ ------- --------- ----------- --------<br>--------- -------- --- ------- -- ------- ---- -- ------<br>-- --- -------- -------- ---------- more ---- ---- ------<br>-- --------- -- ---- -- --- -- --- ------- -- - -----<br>---------- -- -- -- ---- ----- -- ------ -- --- ------<br>-------,270809.2750000069,270803.8499999675,270406.039,270421.2100000004,270422.706,270822.714,,22,more
screen,html.Screen,1_3_1_0_1_23,2021-04-26T12:44:08.965Z,,,,,,,,,,,,,,,,48,,,,,,,,,,,,,,347.1309999676305,,response,,,,10,C,,,,,,Space,keypress(Space),,,,instrumental,,,,-- -- --- ------ ------- --------- ----------- --------<br>--------- -------- --- ------- -- ------- ---- -- ------<br>-- --- -------- -------- ---------- ---- than ---- ------<br>-- --------- -- ---- -- --- -- --- ------- -- - -----<br>---------- -- -- -- ---- ----- -- ------ -- --- ------<br>-------,271175.2499999711,271169.8449999676,270806.047,270809.4399999827,270822.714,271189.388,,23,than
screen,html.Screen,1_3_1_0_1_24,2021-04-26T12:44:09.369Z,,,,,,,,,,,,,,,,48,,,,,,,,,,,,,,385.4520000157063,,response,,,,10,C,,,,,,Space,keypress(Space),,,,instrumental,,,,-- -- --- ------ ------- --------- ----------- --------<br>--------- -------- --- ------- -- ------- ---- -- ------<br>-- --- -------- -------- ---------- ---- ---- that ------<br>-- --------- -- ---- -- --- -- --- ------- -- - -----<br>---------- -- -- -- ---- ----- -- ------ -- --- ------<br>-------,271579.3399999966,271574.8400000157,271172.721,271175.419999985,271189.388,271589.396,,24,that
screen,html.Screen,1_3_1_0_1_25,2021-04-26T12:44:09.740Z,,,,,,,,,,,,,,,,48,,,,,,,,,,,,,,355.44400001101894,,response,,,,10,C,,,,,,Space,keypress(Space),,,,instrumental,,,,-- -- --- ------ ------- --------- ----------- --------<br>--------- -------- --- ------- -- ------- ---- -- ------<br>-- --- -------- -------- ---------- ---- ---- ---- amount<br>-- --------- -- ---- -- --- -- --- ------- -- - -----<br>---------- -- -- -- ---- ----- -- ------ -- --- ------<br>-------,271950.19499998307,271944.840000011,271572.729,271579.4800000149,271589.396,271956.07,,25,amount
screen,html.Screen,1_3_1_0_1_26,2021-04-26T12:44:10.423Z,,,,,,,,,,,,,,,,48,,,,,,,,,,,,,,671.7050000008312,,response,,,,10,C,,,,,,Space,keypress(Space),,,,instrumental,,,,-- -- --- ------ ------- --------- ----------- --------<br>--------- -------- --- ------- -- ------- ---- -- ------<br>-- --- -------- -------- ---------- ---- ---- ---- ------<br>to --------- -- ---- -- --- -- --- ------- -- - -----<br>---------- -- -- -- ---- ----- -- ------ -- --- ------<br>-------,272632.9149999656,272627.77500000084,271939.403,271950.39499999257,271956.07,272639.417,,26,to
screen,html.Screen,1_3_1_0_1_27,2021-04-26T12:44:10.840Z,,,,,,,,,,,,,,,,48,,,,,,,,,,,,,,405.3180000031134,,response,,,,10,C,,,,,,Space,keypress(Space),,,,instrumental,,,,-- -- --- ------ ------- --------- ----------- --------<br>--------- -------- --- ------- -- ------- ---- -- ------<br>-- --- -------- -------- ---------- ---- ---- ---- ------<br>-- transport -- ---- -- --- -- --- ------- -- - -----<br>---------- -- -- -- ---- ----- -- ------ -- --- ------<br>-------,273050.17000000225,273044.73500000313,272622.75,272633.1399999908,272639.417,273056.092,,27,transport
screen,html.Screen,1_3_1_0_1_28,2021-04-26T12:44:11.263Z,,,,,,,,,,,,,,,,48,,,,,,,,,,,,,,411.64799999276875,,response,,,,10,C,,,,,,Space,keypress(Space),,,,instrumental,,,,-- -- --- ------ ------- --------- ----------- --------<br>--------- -------- --- ------- -- ------- ---- -- ------<br>-- --- -------- -------- ---------- ---- ---- ---- ------<br>-- --------- it ---- -- --- -- --- ------- -- - -----<br>---------- -- -- -- ---- ----- -- ------ -- --- ------<br>-------,273473.2549999608,273467.7399999928,273039.425,273050.344999996,273056.092,273489.931,,28,it
screen,html.Screen,1_3_1_0_1_29,2021-04-26T12:44:11.681Z,,,,,,,,,,,,,,,,48,,,,,,,,,,,,,,395.83899999351706,,response,,,,10,C,,,,,,Space,keypress(Space),,,,instrumental,,,,-- -- --- ------ ------- --------- ----------- --------<br>--------- -------- --- ------- -- ------- ---- -- ------<br>-- --- -------- -------- ---------- ---- ---- ---- ------<br>-- --------- -- into -- --- -- --- ------- -- - -----<br>---------- -- -- -- ---- ----- -- ------ -- --- ------<br>-------,273890.86499996483,273885.7699999935,273473.264,273473.4649999882,273489.931,273906.606,,29,into
screen,html.Screen,1_3_1_0_1_30,2021-04-26T12:44:12.111Z,,,,,,,,,,,,,,,,48,,,,,,,,,,,,,,409.97399998421315,,response,,,,10,C,,,,,,Space,keypress(Space),,,,instrumental,,,,-- -- --- ------ ------- --------- ----------- --------<br>--------- -------- --- ------- -- ------- ---- -- ------<br>-- --- -------- -------- ---------- ---- ---- ---- ------<br>-- --------- -- ---- or --- -- --- ------- -- - -----<br>---------- -- -- -- ---- ----- -- ------ -- --- ------<br>-------,274320.9799999604,274316.57999998424,273889.939,273891.0700000124,273906.606,274323.281,,30,or
screen,html.Screen,1_3_1_0_1_31,2021-04-26T12:44:12.526Z,,,,,,,,,,,,,,,,48,,,,,,,,,,,,,,407.53400001715636,,response,,,,10,C,,,,,,Space,keypress(Space),,,,instrumental,,,,-- -- --- ------ ------- --------- ----------- --------<br>--------- -------- --- ------- -- ------- ---- -- ------<br>-- --- -------- -------- ---------- ---- ---- ---- ------<br>-- --------- -- ---- -- out -- --- ------- -- - -----<br>---------- -- -- -- ---- ----- -- ------ -- --- ------<br>-------,274736.3250000053,274730.8150000172,274306.614,274321.4150000131,274323.281,274739.956,,31,out
screen,html.Screen,1_3_1_0_1_32,2021-04-26T12:44:12.839Z,,,,,,,,,,,,,,,,48,,,,,,,,,,,,,,303.73399996221997,,response,,,,10,C,,,,,,Space,keypress(Space),,,,instrumental,,,,-- -- --- ------ ------- --------- ----------- --------<br>--------- -------- --- ------- -- ------- ---- -- ------<br>-- --- -------- -------- ---------- ---- ---- ---- ------<br>-- --------- -- ---- -- --- of --- ------- -- - -----<br>---------- -- -- -- ---- ----- -- ------ -- --- ------<br>-------,275049.29499997525,275043.6899999622,274723.289,274736.494999961,274739.956,275056.629,,32,of
screen,html.Screen,1_3_1_0_1_33,2021-04-26T12:44:13.101Z,,,,,,,,,,,,,,,,48,,,,,,,,,,,,,,248.95099998562364,,response,,,,10,C,,,,,,Space,keypress(Space),,,,instrumental,,,,-- -- --- ------ ------- --------- ----------- --------<br>--------- -------- --- ------- -- ------- ---- -- ------<br>-- --- -------- -------- ---------- ---- ---- ---- ------<br>-- --------- -- ---- -- --- -- the ------- -- - -----<br>---------- -- -- -- ---- ----- -- ------ -- --- ------<br>-------,275310.72499998845,275305.57999998564,275039.962,275049.4999999646,275056.629,275323.301,,33,the
screen,html.Screen,1_3_1_0_1_34,2021-04-26T12:44:13.433Z,,,,,,,,,,,,,,,,48,,,,,,,,,,,,,,314.2039999915287,,response,,,,10,C,,,,,,Space,keypress(Space),,,,instrumental,,,,-- -- --- ------ ------- --------- ----------- --------<br>--------- -------- --- ------- -- ------- ---- -- ------<br>-- --- -------- -------- ---------- ---- ---- ---- ------<br>-- --------- -- ---- -- --- -- --- country -- - -----<br>---------- -- -- -- ---- ----- -- ------ -- --- ------<br>-------,275642.8500000038,275637.5049999915,275306.634,275310.9299999778,275323.301,275656.641,,34,country
screen,html.Screen,1_3_1_0_1_35,2021-04-26T12:44:13.760Z,,,,,,,,,,,,,,,,48,,,,,,,,,,,,,,307.88899999746354,,response,,,,10,C,,,,,,Space,keypress(Space),,,,instrumental,,,,-- -- --- ------ ------- --------- ----------- --------<br>--------- -------- --- ------- -- ------- ---- -- ------<br>-- --- -------- -------- ---------- ---- ---- ---- ------<br>-- --------- -- ---- -- --- -- --- ------- is - -----<br>---------- -- -- -- ---- ----- -- ------ -- --- ------<br>-------,275970.0549999834,275964.52999999747,275639.974,275643.02999997744,275656.641,275973.314,,35,is
screen,html.Screen,1_3_1_0_1_36,2021-04-26T12:44:14.138Z,,,,,,,,,,,,,,,,48,,,,,,,,,,,,,,370.06099999672733,,response,,,,10,C,,,,,,Space,keypress(Space),,,,instrumental,,,,-- -- --- ------ ------- --------- ----------- --------<br>--------- -------- --- ------- -- ------- ---- -- ------<br>-- --- -------- -------- ---------- ---- ---- ---- ------<br>-- --------- -- ---- -- --- -- --- ------- -- a -----<br>---------- -- -- -- ---- ----- -- ------ -- --- ------<br>-------,276347.7950000088,276343.37499999674,275956.647,275970.22999997716,275973.314,276356.655,,36,a
screen,html.Screen,1_3_1_0_1_37,2021-04-26T12:44:14.533Z,,,,,,,,,,,,,,,,48,,,,,,,,,,,,,,380.7449999835808,,response,,,,10,C,,,,,,Space,keypress(Space),,,,instrumental,,,,-- -- --- ------ ------- --------- ----------- --------<br>--------- -------- --- ------- -- ------- ---- -- ------<br>-- --- -------- -------- ---------- ---- ---- ---- ------<br>-- --------- -- ---- -- --- -- --- ------- -- - crime<br>---------- -- -- -- ---- ----- -- ------ -- --- ------<br>-------,276743.0249999743,276737.3999999836,276339.988,276347.929999989,276356.655,276756.663,,37,crime
screen,html.Screen,1_3_1_0_1_38,2021-04-26T12:44:14.994Z,,,,,,,,,,,,,,,,48,,,,,,,,,,,,,,441.8220000008005,,response,,,,10,C,,,,,,Space,keypress(Space),,,,instrumental,,,,-- -- --- ------ ------- --------- ----------- --------<br>--------- -------- --- ------- -- ------- ---- -- ------<br>-- --- -------- -------- ---------- ---- ---- ---- ------<br>-- --------- -- ---- -- --- -- --- ------- -- - -----<br>punishable -- -- -- ---- ----- -- ------ -- --- ------<br>-------,277203.89999996405,277198.4850000008,276739.996,276743.2249999838,276756.663,277206.672,,38,punishable
screen,html.Screen,1_3_1_0_1_39,2021-04-26T12:44:15.328Z,,,,,,,,,,,,,,,,48,,,,,,,,,,,,,,325.78800001670606,,response,,,,10,C,,,,,,Space,keypress(Space),,,,instrumental,,,,-- -- --- ------ ------- --------- ----------- --------<br>--------- -------- --- ------- -- ------- ---- -- ------<br>-- --- -------- -------- ---------- ---- ---- ---- ------<br>-- --------- -- ---- -- --- -- --- ------- -- - -----<br>---------- by -- -- ---- ----- -- ------ -- --- ------<br>-------,277537.8599999822,277532.4600000167,277190.005,277204.06999997795,277206.672,277540.012,,39,by
screen,html.Screen,1_3_1_0_1_40,2021-04-26T12:44:15.831Z,,,,,,,,,,,,,,,,48,,,,,,,,,,,,,,495.2779999707127,,response,,,,10,C,,,,,,Space,keypress(Space),,,,instrumental,,,,-- -- --- ------ ------- --------- ----------- --------<br>--------- -------- --- ------- -- ------- ---- -- ------<br>-- --- -------- -------- ---------- ---- ---- ---- ------<br>-- --------- -- ---- -- --- -- --- ------- -- - -----<br>---------- -- up -- ---- ----- -- ------ -- --- ------<br>-------,278040.89000000386,278035.2899999707,277523.345,277538.0700000096,277540.012,278056.689,,40,up
screen,html.Screen,1_3_1_0_1_41,2021-04-26T12:44:16.121Z,,,,,,,,,,,,,,,,48,,,,,,,,,,,,,,268.74600000609644,,response,,,,10,C,,,,,,Space,keypress(Space),,,,instrumental,,,,-- -- --- ------ ------- --------- ----------- --------<br>--------- -------- --- ------- -- ------- ---- -- ------<br>-- --- -------- -------- ---------- ---- ---- ---- ------<br>-- --------- -- ---- -- --- -- --- ------- -- - -----<br>---------- -- -- to ---- ----- -- ------ -- --- ------<br>-------,278330.8149999939,278325.4350000061,278040.022,278041.06000001775,278056.689,278340.028,,41,to
