sender,sender_type,sender_id,timestamp,meta,,Blues,Classical,Country,Dance,Electronic,Folk,Gospel,Hip-Hop,Jazz,Latin,Musical/Film,New-age,Pop,Provo_ID,R&B,Rap,Reggae,Religious,Rock,Soul,Swing,Traditional,age,artist_name,correct,correctResponse,distraction,duration,ended_on,familiarity,gender,headphone_check_performance,item,list,offensiveness,pleasantness,position_correct,preference,response,response_action,snippet_file,song_name,song_rating,sound,stimulus_1,stimulus_2,stimulus_3,text,time_commit,time_end,time_render,time_run,time_show,time_switch,url,word,word_ID
Introduction,html.Screen,0_0,2021-03-27T19:27:57.881Z,"{""labjs_version"":""20.2.2"",""labjs_build"":{""flavor"":""production"",""commit"":""a25486e0c714a0ae2ce03ff94b7bb6896854dcfa""},""location"":""https://run.pavlovia.org/mvasilev/music_d/"",""userAgent"":""Mozilla/5.0 (Windows NT 10.0; Win64; x64) AppleWebKit/537.36 (KHTML, like Gecko) Chrome/89.0.4389.90 Safari/537.36"",""platform"":""Win32"",""language"":""en-GB"",""locale"":""en-GB"",""timeZone"":""Europe/London"",""timezoneOffset"":0,""screen_width"":1920,""screen_height"":1080,""scroll_width"":1920,""scroll_height"":890,""window_innerWidth"":1920,""window_innerHeight"":938,""devicePixelRatio"":2}",,,,,,,,,,,,,,,,,,,,,,,,,,,,,10180.101000182465,response,,,,,,,,,,continue,click button,,,,,,,,,17507.214999990538,17506.170000182465,7309.261,7313.569999998435,7326.069,17510.085,{},,
Volume calibration,html.Screen,0_1,2021-03-27T19:28:29.543Z,,,,,,,,,,,,,,,,,,,,,,,,,,,,,,31656.080000060574,response,,,,,,,,,,continue,click button,,,,,,,,,49168.09000005014,49166.16500006057,17493.473,17507.39000015892,17510.085,49178.818,,,
Task instructions,html.Screen,0_2,2021-03-27T19:28:36.996Z,,,,,,,,,,,,,,,,,,,,,,,,,,,,,,7441.457000110269,response,,,,,,,,,,continue,click button,,,,,,,,,56621.02000019513,56620.27500011027,49162.055,49168.18500007503,49178.818,56629.21,,,
Sounds,html.Screen,0_3_0_0,2021-03-27T19:28:41.239Z,,,,,,,,,,,,,,,,,,,,,,,,,,,,,,4250.182000000001,timeout,,,,,,,,1,,,,,,,,S,O,I,,60864.465000107884,60862.786,56612.524,56621.19000009261,56629.21,60879.392,,,
Judgement,html.Screen,0_3_0_1,2021-03-27T19:28:44.881Z,,,,,,,,,,,,,,,,,,,,,,,,,,,true,1,,3625.923000191331,response,,,,,,,,1,,1,click #choice-1,,,,,S,O,I,,64506.16500014439,64505.31500019133,60862.786,60864.56500017084,60879.392,64512.962,,,
Trial,flow.Sequence,0_3_0,2021-03-27T19:28:44.882Z,,,,,,,,,,,,,,,,,,,,,,,,,,,,,,7876.105000191332,completion,,,,,,,,1,,,,,,,,S,O,I,,64507.3450000491,64505.31500019133,56612.524,56621.155000058934,56629.21,64512.962,,,
Sounds,html.Screen,0_3_1_0,2021-03-27T19:28:49.122Z,,,,,,,,,,,,,,,,,,,,,,,,,,,,,,4250.338000000003,timeout,,,,,,,,3,,,,,,,,I,O,S,,68747.1900000237,68746.662,64496.335,64507.44500011206,64512.962,68763.3,,,
Judgement,html.Screen,0_3_1_1,2021-03-27T19:28:50.408Z,,,,,,,,,,,,,,,,,,,,,,,,,,,true,3,,1269.9350002136052,response,,,,,,,,3,,3,click #choice-3,,,,,I,O,S,,70033.86000008322,70033.23500021361,68746.662,68747.27000016719,68763.3,70063.425,,,
Trial,flow.Sequence,0_3_1,2021-03-27T19:28:50.409Z,,,,,,,,,,,,,,,,,,,,,,,,,,,,,,5520.273000213609,completion,,,,,,,,3,,,,,,,,I,O,S,,70033.98500010371,70033.23500021361,64496.335,64507.420000154525,64512.962,70063.425,,,
Sounds,html.Screen,0_3_2_0,2021-03-27T19:28:54.672Z,,,,,,,,,,,,,,,,,,,,,,,,,,,,,,4250.278999999995,timeout,,,,,,,,2,,,,,,,,O,S,I,,74297.44500014931,74296.989,70046.758,70034.06500001438,70063.425,74313.704,,,
Judgement,html.Screen,0_3_2_1,2021-03-27T19:28:55.116Z,,,,,,,,,,,,,,,,,,,,,,,,,,,true,2,,426.62600017516525,response,,,,,,,,2,,2,click #choice-2,,,,,O,S,I,,74741.16000020877,74740.33000017516,74296.989,74297.51500021666,74313.704,74747.049,,,
Trial,flow.Sequence,0_3_2,2021-03-27T19:28:55.116Z,,,,,,,,,,,,,,,,,,,,,,,,,,,,,,4676.90500017516,completion,,,,,,,,2,,,,,,,,O,S,I,,74741.27500015311,74740.33000017516,70046.758,70034.04000005685,70063.425,74747.049,,,
Sounds,html.Screen,0_3_3_0,2021-03-27T19:28:59.356Z,,,,,,,,,,,,,,,,,,,,,,,,,,,,,,4250.171000000002,timeout,,,,,,,,1,,,,,,,,S,I,O,,78981.67000012472,78980.638,74730.387,74741.35500006378,74747.049,78997.22,,,
Judgement,html.Screen,0_3_3_1,2021-03-27T19:28:59.770Z,,,,,,,,,,,,,,,,,,,,,,,,,,,true,1,,397.05500008605304,response,,,,,,,,1,,1,click #choice-1,,,,,S,I,O,,79395.04000009038,79394.27500008605,78980.638,78981.83000017889,78997.22,79397.311,,,
Trial,flow.Sequence,0_3_3,2021-03-27T19:28:59.770Z,,,,,,,,,,,,,,,,,,,,,,,,,,,,,,4647.226000086055,completion,,,,,,,,1,,,,,,,,S,I,O,,79395.24000021629,79394.27500008605,74730.387,74741.32500006817,74747.049,79397.311,,,
Sounds,html.Screen,0_3_4_0,2021-03-27T19:29:04.006Z,,,,,,,,,,,,,,,,,,,,,,,,,,,,,,4250.279999999999,timeout,,,,,,,,2,,,,,,,,I,S,O,,83631.45500002429,83630.96,79380.628,79395.3750000801,79397.311,83647.591,,,
Judgement,html.Screen,0_3_4_1,2021-03-27T19:29:04.407Z,,,,,,,,,,,,,,,,,,,,,,,,,,,true,2,,383.82400009223784,response,,,,,,,,2,,2,click #choice-2,,,,,I,S,O,,84032.06500015222,84031.41500009224,83630.96,83631.52500009164,83647.591,84047.539,,,
Trial,flow.Sequence,0_3_4,2021-03-27T19:29:04.407Z,,,,,,,,,,,,,,,,,,,,,,,,,,,,,,4634.104000092237,completion,,,,,,,,2,,,,,,,,I,S,O,,84032.17500005849,84031.41500009224,79380.628,79395.34000004642,79397.311,84047.539,,,
Sounds,html.Screen,0_3_5_0,2021-03-27T19:29:08.656Z,,,,,,,,,,,,,,,,,,,,,,,,,,,,,,4250.3110000000015,timeout,,,,,,,,3,,,,,,,,O,I,S,,88281.70500020497,88281.187,84030.974,84032.25000016391,84047.539,88297.85,,,
Judgement,html.Screen,0_3_5_1,2021-03-27T19:29:09.093Z,,,,,,,,,,,,,,,,,,,,,,,,,,,true,3,,419.825000196317,response,,,,,,,,3,,3,click #choice-3,,,,,O,I,S,,88718.28000014648,88717.67500019632,88281.187,88281.77500003949,88297.85,88731.184,,,
Trial,flow.Sequence,0_3_5,2021-03-27T19:29:09.093Z,,,,,,,,,,,,,,,,,,,,,,,,,,,,,,4670.1360001963185,completion,,,,,,,,3,,,,,,,,O,I,S,,88718.38500001468,88717.67500019632,84030.974,84032.22500020638,84047.539,88731.184,,,
Task,flow.Loop,0_3,2021-03-27T19:29:09.095Z,,,,,,,,,,,,,,,,,,,,,,,,,,,,,,32088.465000196324,completion,,,1,,,,,,,,,,,,,,,,,88720.87000007741,88717.67500019632,56612.524,56621.12500006333,56629.21,88731.184,,,
Trap,html.Screen,0_4,2021-03-27T19:29:09.097Z,,,,,,,,,,,,,,,,,,,,,,,,,,,,,,NaN,skipped,,,,,,,,,,,,,,,,,,,,88722.24500006996,88717.67500019632,,88722.10000013001,,88731.184,,,
Thanks,html.Screen,0_5,2021-03-27T19:29:13.353Z,,,,,,,,,,,,,,,,,,,,,,,,,,,,,,4246.076000072426,response,,,,,,,,,,continue,click button,,,,,,,,,92977.98000019975,92977.26000007242,88714.61,88722.30500006117,88731.184,99448.465,,,
Headphone screening,flow.Sequence,0,2021-03-27T19:29:13.353Z,,,,,,,,,,,,,,,,,,,,,,,,,,,,,,85651.19100007242,completion,,,,,,,,,,,,,,,,,,,,92978.4150000196,92977.26000007242,7309.261,7313.550000078976,7326.069,99448.465,,,
Instructions,html.Page,1_0,2021-03-27T19:29:49.630Z,,,,,,,,,,,,,,,,,,,,,,,,,,,,,,29807.03500020303,form submission,,,,,,,,,,,,,,,,,,,,129255.79000008292,129255.50000020303,99431.859,99452.72500021383,99448.465,129267.044,,,
Holding screen,html.Screen,1_1_0_0,2021-03-27T19:29:56.626Z,,,,,,,,,,,,,,,,,,,,,,,,,,,,,,7000.527000000002,timeout,,,,,,,,,,,,,,,,,,,,136251.2900000438,136250.853,129250.386,129255.90500002727,129267.044,136267.571,,,
screen,html.Screen,1_1_0_1_0,2021-03-27T19:29:59.902Z,,,,,,,,,,,,,,,,53,,,,,,,,,,,,,,3258.4790002186783,response,,,,99,,,,,,Space,keypress(Space),,,,,,,,When -- ----- -- ------ - ------- --- ----------<br>------------- ------ ------ ---- ---- ------- ----- -- ----<br>-------- ------- -- ---------- --- - --- ----- ----- ----<br>---- --- --- ----- --- ---- ---- ------- ----- ---- -------<br>--- --- -- ----- -- --- ---- -- --- ---- -- ------ ------<br>--- ----- -- ----,139527.70000020973,139526.05000021867,136250.853,136251.39500014484,136267.571,139534.432,,0,When
screen,html.Screen,1_1_0_1_1,2021-03-27T19:30:00.871Z,,,,,,,,,,,,,,,,53,,,,,,,,,,,,,,961.3730001878284,response,,,,99,,,,,,Space,keypress(Space),,,,,,,,---- it ----- -- ------ - ------- --- ----------<br>------------- ------ ------ ---- ---- ------- ----- -- ----<br>-------- ------- -- ---------- --- - --- ----- ----- ----<br>---- --- --- ----- --- ---- ---- ------- ----- ---- -------<br>--- --- -- ----- -- --- ---- -- --- ---- -- ------ ------<br>--- ----- -- ----,140496.34000007063,140495.80500018783,139517.63,139527.79000019655,139534.432,140501.057,,1,it
screen,html.Screen,1_1_0_1_2,2021-03-27T19:30:01.526Z,,,,,,,,,,,,,,,,53,,,,,,,,,,,,,,650.4080001190596,response,,,,99,,,,,,Space,keypress(Space),,,,,,,,---- -- comes -- ------ - ------- --- ----------<br>------------- ------ ------ ---- ---- ------- ----- -- ----<br>-------- ------- -- ---------- --- - --- ----- ----- ----<br>---- --- --- ----- --- ---- ---- ------- ----- ---- -------<br>--- --- -- ----- -- --- ---- -- --- ---- -- ------ ------<br>--- ----- -- ----,141152.14000013657,141151.46500011906,140484.464,140496.44500017166,140501.057,141167.848,,2,comes
screen,html.Screen,1_1_0_1_3,2021-03-27T19:30:02.077Z,,,,,,,,,,,,,,,,53,,,,,,,,,,,,,,534.3420000982005,response,,,,99,,,,,,Space,keypress(Space),,,,,,,,---- -- ----- to ------ - ------- --- ----------<br>------------- ------ ------ ---- ---- ------- ----- -- ----<br>-------- ------- -- ---------- --- - --- ----- ----- ----<br>---- --- --- ----- --- ---- ---- ------- ----- ---- -------<br>--- --- -- ----- -- --- ---- -- --- ---- -- ------ ------<br>--- ----- -- ----,141702.6349999942,141702.1900000982,141151.205,141152.23000012338,141167.848,141717.926,,3,to
screen,html.Screen,1_1_0_1_4,2021-03-27T19:30:02.676Z,,,,,,,,,,,,,,,,53,,,,,,,,,,,,,,583.6440001269511,response,,,,99,,,,,,Space,keypress(Space),,,,,,,,---- -- ----- -- having - ------- --- ----------<br>------------- ------ ------ ---- ---- ------- ----- -- ----<br>-------- ------- -- ---------- --- - --- ----- ----- ----<br>---- --- --- ----- --- ---- ---- ------- ----- ---- -------<br>--- --- -- ----- -- --- ---- -- --- ---- -- ------ ------<br>--- ----- -- ----,142302.01500002295,142301.57000012696,141701.217,141702.70500006154,141717.926,142317.977,,4,having
screen,html.Screen,1_1_0_1_5,2021-03-27T19:30:03.253Z,,,,,,,,,,,,,,,,53,,,,,,,,,,,,,,560.1880001183017,response,,,,99,,,,,,Space,keypress(Space),,,,,,,,---- -- ----- -- ------ a ------- --- ----------<br>------------- ------ ------ ---- ---- ------- ----- -- ----<br>-------- ------- -- ---------- --- - --- ----- ----- ----<br>---- --- --- ----- --- ---- ---- ------- ----- ---- -------<br>--- --- -- ----- -- --- ---- -- --- ---- -- ------ ------<br>--- ----- -- ----,142878.69500019588,142878.16500011832,142301.296,142302.0850000903,142317.977,142884.575,,5,a
screen,html.Screen,1_1_0_1_6,2021-03-27T19:30:04.189Z,,,,,,,,,,,,,,,,53,,,,,,,,,,,,,,929.3150001067552,response,,,,99,,,,,,Space,keypress(Space),,,,,,,,---- -- ----- -- ------ - lasting --- ----------<br>------------- ------ ------ ---- ---- ------- ----- -- ----<br>-------- ------- -- ---------- --- - --- ----- ----- ----<br>---- --- --- ----- --- ---- ---- ------- ----- ---- -------<br>--- --- -- ----- -- --- ---- -- --- ---- -- ------ ------<br>--- ----- -- ----,143814.35000011697,143813.89000010677,142867.921,142878.795000026,142884.575,143817.973,,6,lasting
screen,html.Screen,1_1_0_1_7,2021-03-27T19:30:04.773Z,,,,,,,,,,,,,,,,53,,,,,,,,,,,,,,579.9420000959653,response,,,,99,,,,,,Space,keypress(Space),,,,,,,,---- -- ----- -- ------ - ------- and ----------<br>------------- ------ ------ ---- ---- ------- ----- -- ----<br>-------- ------- -- ---------- --- - --- ----- ----- ----<br>---- --- --- ----- --- ---- ---- ------- ----- ---- -------<br>--- --- -- ----- -- --- ---- -- --- ---- -- ------ ------<br>--- ----- -- ----,144398.3700000681,144397.91500009596,143801.37,143814.43000002764,143817.973,144401.328,,7,and
screen,html.Screen,1_1_0_1_8,2021-03-27T19:30:05.461Z,,,,,,,,,,,,,,,,53,,,,,,,,,,,,,,684.9020000153396,response,,,,99,,,,,,Space,keypress(Space),,,,,,,,---- -- ----- -- ------ - ------- --- fulfilling<br>------------- ------ ------ ---- ---- ------- ----- -- ----<br>-------- ------- -- ---------- --- - --- ----- ----- ----<br>---- --- --- ----- --- ---- ---- ------- ----- ---- -------<br>--- --- -- ----- -- --- ---- -- --- ---- -- ------ ------<br>--- ----- -- ----,145086.73500013538,145086.23000001535,144384.74,144398.44500017352,144401.328,145101.466,,8,fulfilling
screen,html.Screen,1_1_0_1_9,2021-03-27T19:30:06.141Z,,,,,,,,,,,,,,,,53,,,,,,,,,,,,,,664.6840000395023,response,,,,99,,,,,,Space,keypress(Space),,,,,,,,"---- -- ----- -- ------ - ------- --- ----------<br>relationship, ------ ------ ---- ---- ------- ----- -- ----<br>-------- ------- -- ---------- --- - --- ----- ----- ----<br>---- --- --- ----- --- ---- ---- ------- ----- ---- -------<br>--- --- -- ----- -- --- ---- -- --- ---- -- ------ ------<br>--- ----- -- ----",145766.6100000497,145766.1500000395,145084.769,145086.84000000358,145101.466,145768.065,,9,"relationship,"
screen,html.Screen,1_1_0_1_10,2021-03-27T19:30:06.797Z,,,,,,,,,,,,,,,,53,,,,,,,,,,,,,,654.09000003658,response,,,,99,,,,,,Space,keypress(Space),,,,,,,,---- -- ----- -- ------ - ------- --- ----------<br>------------- common ------ ---- ---- ------- ----- -- ----<br>-------- ------- -- ---------- --- - --- ----- ----- ----<br>---- --- --- ----- --- ---- ---- ------- ----- ---- -------<br>--- --- -- ----- -- --- ---- -- --- ---- -- ------ ------<br>--- ----- -- ----,146422.65000008047,146422.15500003658,145751.437,145766.68000011705,145768.065,146434.878,,10,common
screen,html.Screen,1_1_0_1_11,2021-03-27T19:30:07.493Z,,,,,,,,,,,,,,,,53,,,,,,,,,,,,,,682.6620000065595,response,,,,99,,,,,,Space,keypress(Space),,,,,,,,---- -- ----- -- ------ - ------- --- ----------<br>------------- ------ wisdom ---- ---- ------- ----- -- ----<br>-------- ------- -- ---------- --- - --- ----- ----- ----<br>---- --- --- ----- --- ---- ---- ------- ----- ---- -------<br>--- --- -- ----- -- --- ---- -- --- ---- -- ------ ------<br>--- ----- -- ----,147118.70500002988,147117.54000000656,146418.156,146422.71500010975,146434.878,147134.928,,11,wisdom
screen,html.Screen,1_1_0_1_12,2021-03-27T19:30:08.100Z,,,,,,,,,,,,,,,,53,,,,,,,,,,,,,,590.62700012821,response,,,,99,,,,,,Space,keypress(Space),,,,,,,,---- -- ----- -- ------ - ------- --- ----------<br>------------- ------ ------ says ---- ------- ----- -- ----<br>-------- ------- -- ---------- --- - --- ----- ----- ----<br>---- --- --- ----- --- ---- ---- ------- ----- ---- -------<br>--- --- -- ----- -- --- ---- -- --- ---- -- ------ ------<br>--- ----- -- ----,147725.97500006668,147725.55500012822,147118.22,147118.83500008844,147134.928,147734.964,,12,says
screen,html.Screen,1_1_0_1_13,2021-03-27T19:30:09.173Z,,,,,,,,,,,,,,,,53,,,,,,,,,,,,,,1063.1210001331347,response,,,,99,,,,,,Space,keypress(Space),,,,,,,,---- -- ----- -- ------ - ------- --- ----------<br>------------- ------ ------ ---- that ------- ----- -- ----<br>-------- ------- -- ---------- --- - --- ----- ----- ----<br>---- --- --- ----- --- ---- ---- ------- ----- ---- -------<br>--- --- -- ----- -- --- ---- -- --- ---- -- ------ ------<br>--- ----- -- ----,148798.5550002195,148798.08500013314,147718.242,147726.04500013404,147734.964,148801.616,,13,that
screen,html.Screen,1_1_0_1_14,2021-03-27T19:30:09.780Z,,,,,,,,,,,,,,,,53,,,,,,,,,,,,,,603.9140001054911,response,,,,99,,,,,,Space,keypress(Space),,,,,,,,---- -- ----- -- ------ - ------- --- ----------<br>------------- ------ ------ ---- ---- feeling ----- -- ----<br>-------- ------- -- ---------- --- - --- ----- ----- ----<br>---- --- --- ----- --- ---- ---- ------- ----- ---- -------<br>--- --- -- ----- -- --- ---- -- --- ---- -- ------ ------<br>--- ----- -- ----,149405.9900001157,149405.5300001055,148784.918,148798.6300000921,148801.616,149418.402,,14,feeling
screen,html.Screen,1_1_0_1_15,2021-03-27T19:30:10.389Z,,,,,,,,,,,,,,,,53,,,,,,,,,,,,,,595.5880001231562,response,,,,99,,,,,,Space,keypress(Space),,,,,,,,---- -- ----- -- ------ - ------- --- ----------<br>------------- ------ ------ ---- ---- ------- close -- ----<br>-------- ------- -- ---------- --- - --- ----- ----- ----<br>---- --- --- ----- --- ---- ---- ------- ----- ---- -------<br>--- --- -- ----- -- --- ---- -- --- ---- -- ------ ------<br>--- ----- -- ----,150014.4900002051,150013.99000012316,149401.704,149406.06000018306,149418.402,150018.441,,15,close
screen,html.Screen,1_1_0_1_16,2021-03-27T19:30:10.796Z,,,,,,,,,,,,,,,,53,,,,,,,,,,,,,,402.97900002787355,response,,,,99,,,,,,Space,keypress(Space),,,,,,,,---- -- ----- -- ------ - ------- --- ----------<br>------------- ------ ------ ---- ---- ------- ----- to ----<br>-------- ------- -- ---------- --- - --- ----- ----- ----<br>---- --- --- ----- --- ---- ---- ------- ----- ---- -------<br>--- --- -- ----- -- --- ---- -- --- ---- -- ------ ------<br>--- ----- -- ----,150421.96000018157,150421.42000002787,150001.681,150014.55500000156,150018.441,150435.001,,16,to
screen,html.Screen,1_1_0_1_17,2021-03-27T19:30:11.325Z,,,,,,,,,,,,,,,,53,,,,,,,,,,,,,,515.5290000310051,response,,,,99,,,,,,Space,keypress(Space),,,,,,,,---- -- ----- -- ------ - ------- --- ----------<br>------------- ------ ------ ---- ---- ------- ----- -- your<br>-------- ------- -- ---------- --- - --- ----- ----- ----<br>---- --- --- ----- --- ---- ---- ------- ----- ---- -------<br>--- --- -- ----- -- --- ---- -- --- ---- -- ------ ------<br>--- ----- -- ----,150950.92000020668,150950.530000031,150418.429,150422.0300000161,150435.001,150969.301,,17,your
screen,html.Screen,1_1_0_1_18,2021-03-27T19:30:11.886Z,,,,,,,,,,,,,,,,53,,,,,,,,,,,,,,541.6240000677935,response,,,,99,,,,,,Space,keypress(Space),,,,,,,,---- -- ----- -- ------ - ------- --- ----------<br>------------- ------ ------ ---- ---- ------- ----- -- ----<br>romantic ------- -- ---------- --- - --- ----- ----- ----<br>---- --- --- ----- --- ---- ---- ------- ----- ---- -------<br>--- --- -- ----- -- --- ---- -- --- ---- -- ------ ------<br>--- ----- -- ----,151511.54500013217,151510.9250000678,150935.124,150950.99500007927,150969.301,151518.546,,18,romantic
screen,html.Screen,1_1_0_1_19,2021-03-27T19:30:12.404Z,,,,,,,,,,,,,,,,53,,,,,,,,,,,,,,510.8840001114586,response,,,,99,,,,,,Space,keypress(Space),,,,,,,,---- -- ----- -- ------ - ------- --- ----------<br>------------- ------ ------ ---- ---- ------- ----- -- ----<br>-------- partner -- ---------- --- - --- ----- ----- ----<br>---- --- --- ----- --- ---- ---- ------- ----- ---- -------<br>--- --- -- ----- -- --- ---- -- --- ---- -- ------ ------<br>--- ----- -- ----,152029.95000011288,152029.43000011146,151501.771,151511.76000013947,151518.546,152035.244,,19,partner
screen,html.Screen,1_1_0_1_20,2021-03-27T19:30:12.868Z,,,,,,,,,,,,,,,,53,,,,,,,,,,,,,,458.61600004596403,response,,,,99,,,,,,Space,keypress(Space),,,,,,,,---- -- ----- -- ------ - ------- --- ----------<br>------------- ------ ------ ---- ---- ------- ----- -- ----<br>-------- ------- is ---------- --- - --- ----- ----- ----<br>---- --- --- ----- --- ---- ---- ------- ----- ---- -------<br>--- --- -- ----- -- --- ---- -- --- ---- -- ------ ------<br>--- ----- -- ----,152494.1500001587,152493.86000004597,152018.523,152030.01500014216,152035.244,152501.937,,20,is
screen,html.Screen,1_1_0_1_21,2021-03-27T19:30:13.724Z,,,,,,,,,,,,,,,,53,,,,,,,,,,,,,,847.5330000155664,response,,,,99,,,,,,Space,keypress(Space),,,,,,,,---- -- ----- -- ------ - ------- --- ----------<br>------------- ------ ------ ---- ---- ------- ----- -- ----<br>-------- ------- -- paramount. --- - --- ----- ----- ----<br>---- --- --- ----- --- ---- ---- ------- ----- ---- -------<br>--- --- -- ----- -- --- ---- -- --- ---- -- ------ ------<br>--- ----- -- ----,153349.97000009753,153349.47000001557,152485.214,152494.2250000313,152501.937,153351.884,,21,paramount.
screen,html.Screen,1_1_0_1_22,2021-03-27T19:30:14.300Z,,,,,,,,,,,,,,,,53,,,,,,,,,,,,,,573.7060001153441,response,,,,99,,,,,,Space,keypress(Space),,,,,,,,---- -- ----- -- ------ - ------- --- ----------<br>------------- ------ ------ ---- ---- ------- ----- -- ----<br>-------- ------- -- ---------- But - --- ----- ----- ----<br>---- --- --- ----- --- ---- ---- ------- ----- ---- -------<br>--- --- -- ----- -- --- ---- -- --- ---- -- ------ ------<br>--- ----- -- ----,153926.0600002017,153925.59000011533,153335.269,153350.04500020295,153351.884,153935.384,,22,But
screen,html.Screen,1_1_0_1_23,2021-03-27T19:30:14.773Z,,,,,,,,,,,,,,,,53,,,,,,,,,,,,,,462.7860001750232,response,,,,99,,,,,,Space,keypress(Space),,,,,,,,---- -- ----- -- ------ - ------- --- ----------<br>------------- ------ ------ ---- ---- ------- ----- -- ----<br>-------- ------- -- ---------- --- a --- ----- ----- ----<br>---- --- --- ----- --- ---- ---- ------- ----- ---- -------<br>--- --- -- ----- -- --- ---- -- --- ---- -- ------ ------<br>--- ----- -- ----,154398.67000002414,154398.170000175,153918.586,153926.1300000362,153935.384,154402.058,,23,a
screen,html.Screen,1_1_0_1_24,2021-03-27T19:30:15.173Z,,,,,,,,,,,,,,,,53,,,,,,,,,,,,,,396.0370002092968,response,,,,99,,,,,,Space,keypress(Space),,,,,,,,---- -- ----- -- ------ - ------- --- ----------<br>------------- ------ ------ ---- ---- ------- ----- -- ----<br>-------- ------- -- ---------- --- - new ----- ----- ----<br>---- --- --- ----- --- ---- ---- ------- ----- ---- -------<br>--- --- -- ----- -- --- ---- -- --- ---- -- ------ ------<br>--- ----- -- ----,154798.48500015214,154798.0950002093,154385.289,154398.7400000915,154402.058,154802.07,,24,new
screen,html.Screen,1_1_0_1_25,2021-03-27T19:30:15.716Z,,,,,,,,,,,,,,,,53,,,,,,,,,,,,,,539.5250001217355,response,,,,99,,,,,,Space,keypress(Space),,,,,,,,---- -- ----- -- ------ - ------- --- ----------<br>------------- ------ ------ ---- ---- ------- ----- -- ----<br>-------- ------- -- ---------- --- - --- study ----- ----<br>---- --- --- ----- --- ---- ---- ------- ----- ---- -------<br>--- --- -- ----- -- --- ---- -- --- ---- -- ------ ------<br>--- ----- -- ----,155341.95000003092,155341.59500012174,154785.438,154798.56000002474,154802.07,155351.953,,25,study
screen,html.Screen,1_1_0_1_26,2021-03-27T19:30:16.341Z,,,,,,,,,,,,,,,,53,,,,,,,,,,,,,,614.8020001758996,response,,,,99,,,,,,Space,keypress(Space),,,,,,,,---- -- ----- -- ------ - ------- --- ----------<br>------------- ------ ------ ---- ---- ------- ----- -- ----<br>-------- ------- -- ---------- --- - --- ----- finds ----<br>---- --- --- ----- --- ---- ---- ------- ----- ---- -------<br>--- --- -- ----- -- --- ---- -- --- ---- -- ------ ------<br>--- ----- -- ----,155967.1700000763,155966.7550001759,155335.354,155342.0350002125,155351.953,155968.731,,26,finds
screen,html.Screen,1_1_0_1_27,2021-03-27T19:30:16.812Z,,,,,,,,,,,,,,,,53,,,,,,,,,,,,,,468.9590000497701,response,,,,99,,,,,,Space,keypress(Space),,,,,,,,---- -- ----- -- ------ - ------- --- ----------<br>------------- ------ ------ ---- ---- ------- ----- -- ----<br>-------- ------- -- ---------- --- - --- ----- ----- that<br>---- --- --- ----- --- ---- ---- ------- ----- ---- -------<br>--- --- -- ----- -- --- ---- -- --- ---- -- ------ ------<br>--- ----- -- ----,156438.13000014052,156437.69000004977,155952.117,155967.24000014365,155968.731,156452.105,,27,that
screen,html.Screen,1_1_0_1_28,2021-03-27T19:30:17.468Z,,,,,,,,,,,,,,,,53,,,,,,,,,,,,,,641.3800000776246,response,,,,99,,,,,,Space,keypress(Space),,,,,,,,---- -- ----- -- ------ - ------- --- ----------<br>------------- ------ ------ ---- ---- ------- ----- -- ----<br>-------- ------- -- ---------- --- - --- ----- ----- ----<br>it's --- --- ----- --- ---- ---- ------- ----- ---- -------<br>--- --- -- ----- -- --- ---- -- --- ---- -- ------ ------<br>--- ----- -- ----,157094.01000011712,157093.48500007764,156435.468,156438.20000020787,156452.105,157102.175,,28,it's
screen,html.Screen,1_1_0_1_29,2021-03-27T19:30:17.908Z,,,,,,,,,,,,,,,,53,,,,,,,,,,,,,,431.6250000920263,response,,,,99,,,,,,Space,keypress(Space),,,,,,,,---- -- ----- -- ------ - ------- --- ----------<br>------------- ------ ------ ---- ---- ------- ----- -- ----<br>-------- ------- -- ---------- --- - --- ----- ----- ----<br>---- not --- ----- --- ---- ---- ------- ----- ---- -------<br>--- --- -- ----- -- --- ---- -- --- ---- -- ------ ------<br>--- ----- -- ----,157534.18000019155,157533.80000009201,157085.507,157094.08499998972,157102.175,157552.705,,29,not
screen,html.Screen,1_1_0_1_30,2021-03-27T19:30:18.717Z,,,,,,,,,,,,,,,,53,,,,,,,,,,,,,,789.5650001392642,response,,,,99,,,,,,Space,keypress(Space),,,,,,,,---- -- ----- -- ------ - ------- --- ----------<br>------------- ------ ------ ---- ---- ------- ----- -- ----<br>-------- ------- -- ---------- --- - --- ----- ----- ----<br>---- --- how ----- --- ---- ---- ------- ----- ---- -------<br>--- --- -- ----- -- --- ---- -- --- ---- -- ------ ------<br>--- ----- -- ----,158342.82000013627,158342.27000013925,157518.886,157534.25500006415,157552.705,158352.263,,30,how
screen,html.Screen,1_1_0_1_31,2021-03-27T19:30:19.151Z,,,,,,,,,,,,,,,,53,,,,,,,,,,,,,,424.0720000604924,response,,,,99,,,,,,Space,keypress(Space),,,,,,,,---- -- ----- -- ------ - ------- --- ----------<br>------------- ------ ------ ---- ---- ------- ----- -- ----<br>-------- ------- -- ---------- --- - --- ----- ----- ----<br>---- --- --- close --- ---- ---- ------- ----- ---- -------<br>--- --- -- ----- -- --- ---- -- --- ---- -- ------ ------<br>--- ----- -- ----,158776.80000010878,158776.3350000605,158335.477,158342.89000020362,158352.263,158785.518,,31,close
screen,html.Screen,1_1_0_1_32,2021-03-27T19:30:19.590Z,,,,,,,,,,,,,,,,53,,,,,,,,,,,,,,429.6320000618289,response,,,,99,,,,,,Space,keypress(Space),,,,,,,,---- -- ----- -- ------ - ------- --- ----------<br>------------- ------ ------ ---- ---- ------- ----- -- ----<br>-------- ------- -- ---------- --- - --- ----- ----- ----<br>---- --- --- ----- you ---- ---- ------- ----- ---- -------<br>--- --- -- ----- -- --- ---- -- --- ---- -- ------ ------<br>--- ----- -- ----,159215.57500003837,159215.15000006184,158768.964,158776.90000017174,158785.518,159219.051,,32,you
screen,html.Screen,1_1_0_1_33,2021-03-27T19:30:20.196Z,,,,,,,,,,,,,,,,53,,,,,,,,,,,,,,602.5540001792542,response,,,,99,,,,,,Space,keypress(Space),,,,,,,,---- -- ----- -- ------ - ------- --- ----------<br>------------- ------ ------ ---- ---- ------- ----- -- ----<br>-------- ------- -- ---------- --- - --- ----- ----- ----<br>---- --- --- ----- --- feel ---- ------- ----- ---- -------<br>--- --- -- ----- -- --- ---- -- --- ---- -- ------ ------<br>--- ----- -- ----,159822.0699999947,159821.60500017926,159202.322,159215.67000006326,159219.051,159835.67,,33,feel
screen,html.Screen,1_1_0_1_34,2021-03-27T19:30:20.613Z,,,,,,,,,,,,,,,,53,,,,,,,,,,,,,,402.70000015190453,response,,,,99,,,,,,Space,keypress(Space),,,,,,,,---- -- ----- -- ------ - ------- --- ----------<br>------------- ------ ------ ---- ---- ------- ----- -- ----<br>-------- ------- -- ---------- --- - --- ----- ----- ----<br>---- --- --- ----- --- ---- that ------- ----- ---- -------<br>--- --- -- ----- -- --- ---- -- --- ---- -- ------ ------<br>--- ----- -- ----,160238.73500013724,160238.37000015192,159819.035,159822.14000006206,159835.67,160252.369,,34,that
screen,html.Screen,1_1_0_1_35,2021-03-27T19:30:21.213Z,,,,,,,,,,,,,,,,53,,,,,,,,,,,,,,586.2060001762002,response,,,,99,,,,,,Space,keypress(Space),,,,,,,,---- -- ----- -- ------ - ------- --- ----------<br>------------- ------ ------ ---- ---- ------- ----- -- ----<br>-------- ------- -- ---------- --- - --- ----- ----- ----<br>---- --- --- ----- --- ---- ---- matters ----- ---- -------<br>--- --- -- ----- -- --- ---- -- --- ---- -- ------ ------<br>--- ----- -- ----,160838.87000009418,160838.5750001762,160235.659,160238.8050002046,160252.369,160852.446,,35,matters
screen,html.Screen,1_1_0_1_36,2021-03-27T19:30:21.805Z,,,,,,,,,,,,,,,,53,,,,,,,,,,,,,,577.669000111986,response,,,,99,,,,,,Space,keypress(Space),,,,,,,,"---- -- ----- -- ------ - ------- --- ----------<br>------------- ------ ------ ---- ---- ------- ----- -- ----<br>-------- ------- -- ---------- --- - --- ----- ----- ----<br>---- --- --- ----- --- ---- ---- ------- most, ---- -------<br>--- --- -- ----- -- --- ---- -- --- ---- -- ------ ------<br>--- ----- -- ----",161430.49000017345,161430.11500011198,160835.757,160838.9450001996,160852.446,161435.776,,36,"most,"
screen,html.Screen,1_1_0_1_37,2021-03-27T19:30:22.324Z,,,,,,,,,,,,,,,,53,,,,,,,,,,,,,,513.6890000706189,response,,,,99,,,,,,Space,keypress(Space),,,,,,,,---- -- ----- -- ------ - ------- --- ----------<br>------------- ------ ------ ---- ---- ------- ----- -- ----<br>-------- ------- -- ---------- --- - --- ----- ----- ----<br>---- --- --- ----- --- ---- ---- ------- ----- it's -------<br>--- --- -- ----- -- --- ---- -- --- ---- -- ------ ------<br>--- ----- -- ----,161949.93500015698,161949.46500007063,161419.101,161430.56000000797,161435.776,161952.436,,37,it's
screen,html.Screen,1_1_0_1_38,2021-03-27T19:30:22.853Z,,,,,,,,,,,,,,,,53,,,,,,,,,,,,,,526.1390000737738,response,,,,99,,,,,,Space,keypress(Space),,,,,,,,---- -- ----- -- ------ - ------- --- ----------<br>------------- ------ ------ ---- ---- ------- ----- -- ----<br>-------- ------- -- ---------- --- - --- ----- ----- ----<br>---- --- --- ----- --- ---- ---- ------- ----- ---- whether<br>--- --- -- ----- -- --- ---- -- --- ---- -- ------ ------<br>--- ----- -- ----,162479.00500008836,162478.57500007376,161935.824,161950.05000010133,161952.436,162485.848,,38,whether
screen,html.Screen,1_1_0_1_39,2021-03-27T19:30:23.341Z,,,,,,,,,,,,,,,,53,,,,,,,,,,,,,,480.4170001700986,response,,,,99,,,,,,Space,keypress(Space),,,,,,,,---- -- ----- -- ------ - ------- --- ----------<br>------------- ------ ------ ---- ---- ------- ----- -- ----<br>-------- ------- -- ---------- --- - --- ----- ----- ----<br>---- --- --- ----- --- ---- ---- ------- ----- ---- -------<br>you --- -- ----- -- --- ---- -- --- ---- -- ------ ------<br>--- ----- -- ----,162966.7250001803,162966.2650001701,162469.174,162479.15500006638,162485.848,162969.153,,39,you
screen,html.Screen,1_1_0_1_40,2021-03-27T19:30:23.844Z,,,,,,,,,,,,,,,,53,,,,,,,,,,,,,,500.477000181505,response,,,,99,,,,,,Space,keypress(Space),,,,,,,,---- -- ----- -- ------ - ------- --- ----------<br>------------- ------ ------ ---- ---- ------- ----- -- ----<br>-------- ------- -- ---------- --- - --- ----- ----- ----<br>---- --- --- ----- --- ---- ---- ------- ----- ---- -------<br>--- are -- ----- -- --- ---- -- --- ---- -- ------ ------<br>--- ----- -- ----,163470.0900001917,163469.6300001815,162952.563,162966.79500001483,162969.153,163485.908,,40,are
screen,html.Screen,1_1_0_1_41,2021-03-27T19:30:24.229Z,,,,,,,,,,,,,,,,53,,,,,,,,,,,,,,368.992000151251,response,,,,99,,,,,,Space,keypress(Space),,,,,,,,---- -- ----- -- ------ - ------- --- ----------<br>------------- ------ ------ ---- ---- ------- ----- -- ----<br>-------- ------- -- ---------- --- - --- ----- ----- ----<br>---- --- --- ----- --- ---- ---- ------- ----- ---- -------<br>--- --- as ----- -- --- ---- -- --- ---- -- ------ ------<br>--- ----- -- ----,163855.31000001356,163854.90000015125,163469.179,163470.16000002623,163485.908,163869.321,,41,as
screen,html.Screen,1_1_0_1_42,2021-03-27T19:30:24.661Z,,,,,,,,,,,,,,,,53,,,,,,,,,,,,,,416.85400001564994,response,,,,99,,,,,,Space,keypress(Space),,,,,,,,---- -- ----- -- ------ - ------- --- ----------<br>------------- ------ ------ ---- ---- ------- ----- -- ----<br>-------- ------- -- ---------- --- - --- ----- ----- ----<br>---- --- --- ----- --- ---- ---- ------- ----- ---- -------<br>--- --- -- close -- --- ---- -- --- ---- -- ------ ------<br>--- ----- -- ----,164286.67000005953,164286.17500001565,163852.553,163855.3800000809,163869.321,164302.71,,42,close
screen,html.Screen,1_1_0_1_43,2021-03-27T19:30:25.084Z,,,,,,,,,,,,,,,,53,,,,,,,,,,,,,,407.07000015021185,response,,,,99,,,,,,Space,keypress(Space),,,,,,,,---- -- ----- -- ------ - ------- --- ----------<br>------------- ------ ------ ---- ---- ------- ----- -- ----<br>-------- ------- -- ---------- --- - --- ----- ----- ----<br>---- --- --- ----- --- ---- ---- ------- ----- ---- -------<br>--- --- -- ----- as --- ---- -- --- ---- -- ------ ------<br>--- ----- -- ----,164710.24500019848,164709.7800001502,164285.87,164286.76000004634,164302.71,164719.366,,43,as
screen,html.Screen,1_1_0_1_44,2021-03-27T19:30:25.588Z,,,,,,,,,,,,,,,,53,,,,,,,,,,,,,,494.61400000043795,response,,,,99,,,,,,Space,keypress(Space),,,,,,,,---- -- ----- -- ------ - ------- --- ----------<br>------------- ------ ------ ---- ---- ------- ----- -- ----<br>-------- ------- -- ---------- --- - --- ----- ----- ----<br>---- --- --- ----- --- ---- ---- ------- ----- ---- -------<br>--- --- -- ----- -- you ---- -- --- ---- -- ------ ------<br>--- ----- -- ----,165214.38000001945,165213.98000000045,164702.636,164710.315000033,164719.366,165219.308,,44,you
screen,html.Screen,1_1_0_1_45,2021-03-27T19:30:26.197Z,,,,,,,,,,,,,,,,53,,,,,,,,,,,,,,602.7670000327926,response,,,,99,,,,,,Space,keypress(Space),,,,,,,,---- -- ----- -- ------ - ------- --- ----------<br>------------- ------ ------ ---- ---- ------- ----- -- ----<br>-------- ------- -- ---------- --- - --- ----- ----- ----<br>---- --- --- ----- --- ---- ---- ------- ----- ---- -------<br>--- --- -- ----- -- --- want -- --- ---- -- ------ ------<br>--- ----- -- ----,165822.61999999173,165822.07500003278,165202.676,165214.4500000868,165219.308,165836.109,,45,want
screen,html.Screen,1_1_0_1_46,2021-03-27T19:30:26.596Z,,,,,,,,,,,,,,,,53,,,,,,,,,,,,,,385.53600015788106,response,,,,99,,,,,,Space,keypress(Space),,,,,,,,---- -- ----- -- ------ - ------- --- ----------<br>------------- ------ ------ ---- ---- ------- ----- -- ----<br>-------- ------- -- ---------- --- - --- ----- ----- ----<br>---- --- --- ----- --- ---- ---- ------- ----- ---- -------<br>--- --- -- ----- -- --- ---- to --- ---- -- ------ ------<br>--- ----- -- ----,166222.1350001637,166221.64500015788,165819.355,165822.685000021,165836.109,166236.127,,46,to
screen,html.Screen,1_1_0_1_47,2021-03-27T19:30:26.988Z,,,,,,,,,,,,,,,,53,,,,,,,,,,,,,,377.6580000522954,response,,,,99,,,,,,Space,keypress(Space),,,,,,,,"---- -- ----- -- ------ - ------- --- ----------<br>------------- ------ ------ ---- ---- ------- ----- -- ----<br>-------- ------- -- ---------- --- - --- ----- ----- ----<br>---- --- --- ----- --- ---- ---- ------- ----- ---- -------<br>--- --- -- ----- -- --- ---- -- be, ---- -- ------ ------<br>--- ----- -- ----",166614.23000018112,166613.7850000523,166219.424,166222.21000003628,166236.127,166619.373,,47,"be,"
screen,html.Screen,1_1_0_1_48,2021-03-27T19:30:27.413Z,,,,,,,,,,,,,,,,53,,,,,,,,,,,,,,418.967000202887,response,,,,99,,,,,,Space,keypress(Space),,,,,,,,---- -- ----- -- ------ - ------- --- ----------<br>------------- ------ ------ ---- ---- ------- ----- -- ----<br>-------- ------- -- ---------- --- - --- ----- ----- ----<br>---- --- --- ----- --- ---- ---- ------- ----- ---- -------<br>--- --- -- ----- -- --- ---- -- --- even -- ------ ------<br>--- ----- -- ----,167038.7650001794,167038.34000020288,166602.788,166614.30500005372,166619.373,167052.854,,48,even
screen,html.Screen,1_1_0_1_49,2021-03-27T19:30:27.860Z,,,,,,,,,,,,,,,,53,,,,,,,,,,,,,,433.08100000425475,response,,,,99,,,,,,Space,keypress(Space),,,,,,,,---- -- ----- -- ------ - ------- --- ----------<br>------------- ------ ------ ---- ---- ------- ----- -- ----<br>-------- ------- -- ---------- --- - --- ----- ----- ----<br>---- --- --- ----- --- ---- ---- ------- ----- ---- -------<br>--- --- -- ----- -- --- ---- -- --- ---- if ------ ------<br>--- ----- -- ----,167486.40000005253,167485.93500000425,167036.12,167038.83500001393,167052.854,167502.896,,49,if
screen,html.Screen,1_1_0_1_50,2021-03-27T19:30:28.284Z,,,,,,,,,,,,,,,,53,,,,,,,,,,,,,,407.1040001490037,response,,,,99,,,,,,Space,keypress(Space),,,,,,,,---- -- ----- -- ------ - ------- --- ----------<br>------------- ------ ------ ---- ---- ------- ----- -- ----<br>-------- ------- -- ---------- --- - --- ----- ----- ----<br>---- --- --- ----- --- ---- ---- ------- ----- ---- -------<br>--- --- -- ----- -- --- ---- -- --- ---- -- that's ------<br>--- ----- -- ----,167910.3850000538,167910.000000149,167486.176,167486.47500015795,167502.896,167919.471,,50,that's
screen,html.Screen,1_1_0_1_51,2021-03-27T19:30:28.772Z,,,,,,,,,,,,,,,,53,,,,,,,,,,,,,,478.2990001560247,response,,,,99,,,,,,Space,keypress(Space),,,,,,,,---- -- ----- -- ------ - ------- --- ----------<br>------------- ------ ------ ---- ---- ------- ----- -- ----<br>-------- ------- -- ---------- --- - --- ----- ----- ----<br>---- --- --- ----- --- ---- ---- ------- ----- ---- -------<br>--- --- -- ----- -- --- ---- -- --- ---- -- ------ really<br>--- ----- -- ----,168398.24000000954,168397.77000015602,167902.868,167910.45500012115,167919.471,168402.856,,51,really
screen,html.Screen,1_1_0_1_52,2021-03-27T19:30:29.221Z,,,,,,,,,,,,,,,,53,,,,,,,,,,,,,,443.62400006563985,response,,,,99,,,,,,Space,keypress(Space),,,,,,,,---- -- ----- -- ------ - ------- --- ----------<br>------------- ------ ------ ---- ---- ------- ----- -- ----<br>-------- ------- -- ---------- --- - --- ----- ----- ----<br>---- --- --- ----- --- ---- ---- ------- ----- ---- -------<br>--- --- -- ----- -- --- ---- -- --- ---- -- ------ ------<br>not ----- -- ----,168846.94000007585,168846.48000006564,168386.215,168398.3100000769,168402.856,168852.869,,52,not
screen,html.Screen,1_1_0_1_53,2021-03-27T19:30:29.596Z,,,,,,,,,,,,,,,,53,,,,,,,,,,,,,,368.76100004365435,response,,,,99,,,,,,Space,keypress(Space),,,,,,,,---- -- ----- -- ------ - ------- --- ----------<br>------------- ------ ------ ---- ---- ------- ----- -- ----<br>-------- ------- -- ---------- --- - --- ----- ----- ----<br>---- --- --- ----- --- ---- ---- ------- ----- ---- -------<br>--- --- -- ----- -- --- ---- -- --- ---- -- ------ ------<br>--- close -- ----,169222.12500008754,169221.63000004366,168836.254,168847.0100001432,168852.869,169236.345,,53,close
screen,html.Screen,1_1_0_1_54,2021-03-27T19:30:30.012Z,,,,,,,,,,,,,,,,53,,,,,,,,,,,,,,401.55500020526233,response,,,,99,,,,,,Space,keypress(Space),,,,,,,,---- -- ----- -- ------ - ------- --- ----------<br>------------- ------ ------ ---- ---- ------- ----- -- ----<br>-------- ------- -- ---------- --- - --- ----- ----- ----<br>---- --- --- ----- --- ---- ---- ------- ----- ---- -------<br>--- --- -- ----- -- --- ---- -- --- ---- -- ------ ------<br>--- ----- at ----,169638.31000006758,169637.90000020526,169219.531,169222.1950001549,169236.345,169653.015,,54,at
screen,html.Screen,1_1_0_1_55,2021-03-27T19:30:30.548Z,,,,,,,,,,,,,,,,53,,,,,,,,,,,,,,520.8600000949809,response,,,,99,,,,,,Space,keypress(Space),,,,,,,,---- -- ----- -- ------ - ------- --- ----------<br>------------- ------ ------ ---- ---- ------- ----- -- ----<br>-------- ------- -- ---------- --- - --- ----- ----- ----<br>---- --- --- ----- --- ---- ---- ------- ----- ---- -------<br>--- --- -- ----- -- --- ---- -- --- ---- -- ------ ------<br>--- ----- -- all.,170174.1800000891,170173.875000095,169636.342,169638.41000013053,169653.015,170186.304,,55,all.
Item 99,flow.Loop,1_1_0_1,2021-03-27T19:30:30.548Z,,,,,,,,,,,,,,,,,,,,,,,,,,,,,,33906.304000095,completion,,,,,D,,,,,,,,,,silence,,,,,170174.31999999098,170173.875000095,136250.853,136251.3700001873,136267.571,170186.304,,,
Question 1,html.Screen,1_1_0_2,2021-03-27T19:30:37.653Z,,,,,,,,,,,,,,,,,,,,,,,,,,,true,FALSE,,7091.951000011992,response,,,,99,D,,,,,FALSE,click #choice-2,,,,silence,,,,,177278.9500001818,177278.255000012,170169.659,170174.37500017695,170186.304,177286.706,,,
Question 2,html.Screen,1_1_0_3,2021-03-27T19:30:42.866Z,,,,,,,,,,,,,,,,,,,,,,,,,,,true,TRUE,,5204.739000050584,response,,,,99,D,,,,,TRUE,click #choice-1,,,,silence,,,,,182492.14500002563,182491.4450000506,177270.19,177279.03500013053,177286.706,182503.73,,,
Item 99,flow.Sequence,1_1_0,2021-03-27T19:30:42.866Z,,,,,,,,,,,,,,,,,,,,,,,,,,,,,,53224.401000050595,completion,,,,,,,,,,,,,,,,,,,,182492.2600002028,182491.4450000506,129250.386,129255.89000014588,129267.044,182503.73,,,
Holding screen,html.Screen,1_1_1_0,2021-03-27T19:30:49.862Z,,,,,,,,,,,,,,,,,,,,,,,,,,,,,,7000.486999999994,timeout,,,,,,,,,,,,,,,,,,,,189487.975000171,189487.487,182487.151,182492.34000011347,182503.73,189504.217,,,
screen,html.Screen,1_1_1_1_0,2021-03-27T19:30:51.989Z,,,,,,,,,,,,,,,,54,,,,,,,,,,,,,,2109.7680001782137,response,,,,100,,,,,,Space,keypress(Space),,,,,,,,At --- ---- --- ------ ----- ------- ---- -- --- ------- --<br>------- ---------- ------ -- ----- -- ----- -- ---- ------<br>--- ----- --- --- ------ -------- ----- --- ------ ----- --<br>----- ----- ---------- --- --- ------ ------ ---- -- ------<br>------- --- ------ ----- --- ---- ------- -- ---- --- --<br>------- ------,191614.57500001416,191613.98500017822,189487.487,189488.12000011094,189504.217,191620.915,,0,At
screen,html.Screen,1_1_1_1_1,2021-03-27T19:30:52.668Z,,,,,,,,,,,,,,,,54,,,,,,,,,,,,,,672.9800001262047,response,,,,100,,,,,,Space,keypress(Space),,,,,,,,-- the ---- --- ------ ----- ------- ---- -- --- ------- --<br>------- ---------- ------ -- ----- -- ----- -- ---- ------<br>--- ----- --- --- ------ -------- ----- --- ------ ----- --<br>----- ----- ---------- --- --- ------ ------ ---- -- ------<br>------- --- ------ ----- --- ---- ------- -- ---- --- --<br>------- ------,192294.38000009395,192293.8950001262,191604.288,191614.67000003904,191620.915,192304.414,,1,the
screen,html.Screen,1_1_1_1_2,2021-03-27T19:30:53.116Z,,,,,,,,,,,,,,,,54,,,,,,,,,,,,,,437.22100010036957,response,,,,100,,,,,,Space,keypress(Space),,,,,,,,-- --- time --- ------ ----- ------- ---- -- --- ------- --<br>------- ---------- ------ -- ----- -- ----- -- ---- ------<br>--- ----- --- --- ------ -------- ----- --- ------ ----- --<br>----- ----- ---------- --- --- ------ ------ ---- -- ------<br>------- --- ------ ----- --- ---- ------- -- ---- --- --<br>------- ------,192742.08500003442,192741.63500010036,192287.709,192294.4650000427,192304.414,192754.469,,2,time
screen,html.Screen,1_1_1_1_3,2021-03-27T19:30:53.420Z,,,,,,,,,,,,,,,,54,,,,,,,,,,,,,,291.3460000776977,response,,,,100,,,,,,Space,keypress(Space),,,,,,,,-- --- ---- the ------ ----- ------- ---- -- --- ------- --<br>------- ---------- ------ -- ----- -- ----- -- ---- ------<br>--- ----- --- --- ------ -------- ----- --- ------ ----- --<br>----- ----- ---------- --- --- ------ ------ ---- -- ------<br>------- --- ------ ----- --- ---- ------- -- ---- --- --<br>------- ------,193046.3400001172,193045.8150000777,192737.746,192742.15500010177,192754.469,193054.458,,3,the
screen,html.Screen,1_1_1_1_4,2021-03-27T19:30:53.828Z,,,,,,,,,,,,,,,,54,,,,,,,,,,,,,,399.1070000907348,response,,,,100,,,,,,Space,keypress(Space),,,,,,,,-- --- ---- --- French ----- ------- ---- -- --- ------- --<br>------- ---------- ------ -- ----- -- ----- -- ---- ------<br>--- ----- --- --- ------ -------- ----- --- ------ ----- --<br>----- ----- ---------- --- --- ------ ------ ---- -- ------<br>------- --- ------ ----- --- ---- ------- -- ---- --- --<br>------- ------,193453.99000006728,193453.56500009075,193037.764,193046.42500006594,193054.458,193487.805,,4,French
screen,html.Screen,1_1_1_1_5,2021-03-27T19:30:54.093Z,,,,,,,,,,,,,,,,54,,,,,,,,,,,,,,230.15500003815396,response,,,,100,,,,,,Space,keypress(Space),,,,,,,,-- --- ---- --- ------ crown ------- ---- -- --- ------- --<br>------- ---------- ------ -- ----- -- ----- -- ---- ------<br>--- ----- --- --- ------ -------- ----- --- ------ ----- --<br>----- ----- ---------- --- --- ------ ------ ---- -- ------<br>------- --- ------ ----- --- ---- ------- -- ---- --- --<br>------- ------,193718.42500008643,193717.96000003815,193471.146,193454.0500000585,193487.805,193721.088,,5,crown
screen,html.Screen,1_1_1_1_6,2021-03-27T19:30:54.516Z,,,,,,,,,,,,,,,,54,,,,,,,,,,,,,,420.79200001014397,response,,,,100,,,,,,Space,keypress(Space),,,,,,,,-- --- ---- --- ------ ----- secured ---- -- --- ------- --<br>------- ---------- ------ -- ----- -- ----- -- ---- ------<br>--- ----- --- --- ------ -------- ----- --- ------ ----- --<br>----- ----- ---------- --- --- ------ ------ ---- -- ------<br>------- --- ------ ----- --- ---- ------- -- ---- --- --<br>------- ------,194142.37500005402,194141.88000001013,193704.498,193718.49500015378,193721.088,194154.549,,6,secured
screen,html.Screen,1_1_1_1_7,2021-03-27T19:30:54.918Z,,,,,,,,,,,,,,,,54,,,,,,,,,,,,,,388.7060001423815,response,,,,100,,,,,,Space,keypress(Space),,,,,,,,-- --- ---- --- ------ ----- ------- much -- --- ------- --<br>------- ---------- ------ -- ----- -- ----- -- ---- ------<br>--- ----- --- --- ------ -------- ----- --- ------ ----- --<br>----- ----- ---------- --- --- ------ ------ ---- -- ------<br>------- --- ------ ----- --- ---- ------- -- ---- --- --<br>------- ------,194543.68500015698,194543.25500014238,194137.784,194142.44500012137,194154.549,194554.556,,7,much
screen,html.Screen,1_1_1_1_8,2021-03-27T19:30:55.268Z,,,,,,,,,,,,,,,,54,,,,,,,,,,,,,,339.2840000333672,response,,,,100,,,,,,Space,keypress(Space),,,,,,,,-- --- ---- --- ------ ----- ------- ---- of --- ------- --<br>------- ---------- ------ -- ----- -- ----- -- ---- ------<br>--- ----- --- --- ------ -------- ----- --- ------ ----- --<br>----- ----- ---------- --- --- ------ ------ ---- -- ------<br>------- --- ------ ----- --- ---- ------- -- ---- --- --<br>------- ------,194894.18000006117,194893.84000003338,194537.856,194543.82500005886,194554.556,194904.594,,8,of
screen,html.Screen,1_1_1_1_9,2021-03-27T19:30:55.644Z,,,,,,,,,,,,,,,,54,,,,,,,,,,,,,,365.2710001548112,response,,,,100,,,,,,Space,keypress(Space),,,,,,,,-- --- ---- --- ------ ----- ------- ---- -- its ------- --<br>------- ---------- ------ -- ----- -- ----- -- ---- ------<br>--- ----- --- --- ------ -------- ----- --- ------ ----- --<br>----- ----- ---------- --- --- ------ ------ ---- -- ------<br>------- --- ------ ----- --- ---- ------- -- ---- --- --<br>------- ------,195270.28500009328,195269.86500015482,194887.916,194894.24000005238,194904.594,195287.95,,9,its
screen,html.Screen,1_1_1_1_10,2021-03-27T19:30:56.005Z,,,,,,,,,,,,,,,,54,,,,,,,,,,,,,,341.54500000103144,response,,,,100,,,,,,Space,keypress(Space),,,,,,,,-- --- ---- --- ------ ----- ------- ---- -- --- revenue --<br>------- ---------- ------ -- ----- -- ----- -- ---- ------<br>--- ----- --- --- ------ -------- ----- --- ------ ----- --<br>----- ----- ---------- --- --- ------ ------ ---- -- ------<br>------- --- ------ ----- --- ---- ------- -- ---- --- --<br>------- ------,195630.78000000678,195629.49500000104,195271.223,195270.78500017524,195287.95,195638.013,,10,revenue
screen,html.Screen,1_1_1_1_11,2021-03-27T19:30:56.438Z,,,,,,,,,,,,,,,,54,,,,,,,,,,,,,,425.0870001449075,response,,,,100,,,,,,Space,keypress(Space),,,,,,,,-- --- ---- --- ------ ----- ------- ---- -- --- ------- by<br>------- ---------- ------ -- ----- -- ----- -- ---- ------<br>--- ----- --- --- ------ -------- ----- --- ------ ----- --<br>----- ----- ---------- --- --- ------ ------ ---- -- ------<br>------- --- ------ ----- --- ---- ------- -- ---- --- --<br>------- ------,196063.52500012144,196063.1000001449,195621.182,195630.91000006534,195638.013,196071.311,,11,by
screen,html.Screen,1_1_1_1_12,2021-03-27T19:30:56.916Z,,,,,,,,,,,,,,,,54,,,,,,,,,,,,,,470.3590001806151,response,,,,100,,,,,,Space,keypress(Space),,,,,,,,-- --- ---- --- ------ ----- ------- ---- -- --- ------- --<br>issuing ---------- ------ -- ----- -- ----- -- ---- ------<br>--- ----- --- --- ------ -------- ----- --- ------ ----- --<br>----- ----- ---------- --- --- ------ ------ ---- -- ------<br>------- --- ------ ----- --- ---- ------- -- ---- --- --<br>------- ------,196542.15000011027,196541.6700001806,196054.547,196063.59000015073,196071.311,196554.604,,12,issuing
screen,html.Screen,1_1_1_1_13,2021-03-27T19:30:57.364Z,,,,,,,,,,,,,,,,54,,,,,,,,,,,,,,434.9110000229557,response,,,,100,,,,,,Space,keypress(Space),,,,,,,,-- --- ---- --- ------ ----- ------- ---- -- --- ------- --<br>------- government ------ -- ----- -- ----- -- ---- ------<br>--- ----- --- --- ------ -------- ----- --- ------ ----- --<br>----- ----- ---------- --- --- ------ ------ ---- -- ------<br>------- --- ------ ----- --- ---- ------- -- ---- --- --<br>------- ------,196990.0450001005,196989.51500002295,196537.912,196542.2250002157,196554.604,197004.712,,13,government
screen,html.Screen,1_1_1_1_14,2021-03-27T19:30:57.732Z,,,,,,,,,,,,,,,,54,,,,,,,,,,,,,,352.8579999928479,response,,,,100,,,,,,Space,keypress(Space),,,,,,,,-- --- ---- --- ------ ----- ------- ---- -- --- ------- --<br>------- ---------- bonds. -- ----- -- ----- -- ---- ------<br>--- ----- --- --- ------ -------- ----- --- ------ ----- --<br>----- ----- ---------- --- --- ------ ------ ---- -- ------<br>------- --- ------ ----- --- ---- ------- -- ---- --- --<br>------- ------,197358.0400000792,197357.56999999285,196987.932,196990.1100001298,197004.712,197371.367,,14,bonds.
screen,html.Screen,1_1_1_1_15,2021-03-27T19:30:58.197Z,,,,,,,,,,,,,,,,54,,,,,,,,,,,,,,450.66300015579327,response,,,,100,,,,,,Space,keypress(Space),,,,,,,,-- --- ---- --- ------ ----- ------- ---- -- --- ------- --<br>------- ---------- ------ In ----- -- ----- -- ---- ------<br>--- ----- --- --- ------ -------- ----- --- ------ ----- --<br>----- ----- ---------- --- --- ------ ------ ---- -- ------<br>------- --- ------ ----- --- ---- ------- -- ---- --- --<br>------- ------,197822.42000009865,197822.0300001558,197354.707,197358.1800002139,197371.367,197838.131,,15,In
screen,html.Screen,1_1_1_1_16,2021-03-27T19:30:59.372Z,,,,,,,,,,,,,,,,54,,,,,,,,,,,,,,1159.5490000295104,response,,,,100,,,,,,Space,keypress(Space),,,,,,,,"-- --- ---- --- ------ ----- ------- ---- -- --- ------- --<br>------- ---------- ------ -- 1727, -- ----- -- ---- ------<br>--- ----- --- --- ------ -------- ----- --- ------ ----- --<br>----- ----- ---------- --- --- ------ ------ ---- -- ------<br>------- --- ------ ----- --- ---- ------- -- ---- --- --<br>------- ------",198998.11500008218,198997.6800000295,197821.354,197822.49500020407,197838.131,199004.815,,16,"1727,"
screen,html.Screen,1_1_1_1_17,2021-03-27T19:31:01.029Z,,,,,,,,,,,,,,,,54,,,,,,,,,,,,,,1649.1300001437194,response,,,,100,,,,,,Space,keypress(Space),,,,,,,,-- --- ---- --- ------ ----- ------- ---- -- --- ------- --<br>------- ---------- ------ -- ----- in ----- -- ---- ------<br>--- ----- --- --- ------ -------- ----- --- ------ ----- --<br>----- ----- ---------- --- --- ------ ------ ---- -- ------<br>------- --- ------ ----- --- ---- ------- -- ---- --- --<br>------- ------,200654.4250000734,200653.94500014372,198988.054,198998.18000011146,199004.815,200688.307,,17,in
screen,html.Screen,1_1_1_1_18,2021-03-27T19:31:01.565Z,,,,,,,,,,,,,,,,54,,,,,,,,,,,,,,501.70800005833735,response,,,,100,,,,,,Space,keypress(Space),,,,,,,,-- --- ---- --- ------ ----- ------- ---- -- --- ------- --<br>------- ---------- ------ -- ----- -- order -- ---- ------<br>--- ----- --- --- ------ -------- ----- --- ------ ----- --<br>----- ----- ---------- --- --- ------ ------ ---- -- ------<br>------- --- ------ ----- --- ---- ------- -- ---- --- --<br>------- ------,201190.50000002608,201190.01500005834,200671.515,200654.5350002125,200688.307,201204.979,,18,order
screen,html.Screen,1_1_1_1_19,2021-03-27T19:31:01.877Z,,,,,,,,,,,,,,,,54,,,,,,,,,,,,,,297.4560001476784,response,,,,100,,,,,,Space,keypress(Space),,,,,,,,-- --- ---- --- ------ ----- ------- ---- -- --- ------- --<br>------- ---------- ------ -- ----- -- ----- to ---- ------<br>--- ----- --- --- ------ -------- ----- --- ------ ----- --<br>----- ----- ---------- --- --- ------ ------ ---- -- ------<br>------- --- ------ ----- --- ---- ------- -- ---- --- --<br>------- ------,201502.85500008613,201502.43500014767,201188.202,201190.56500005536,201204.979,201504.911,,19,to
screen,html.Screen,1_1_1_1_20,2021-03-27T19:31:02.181Z,,,,,,,,,,,,,,,,54,,,,,,,,,,,,,,301.89400017479784,response,,,,100,,,,,,Space,keypress(Space),,,,,,,,-- --- ---- --- ------ ----- ------- ---- -- --- ------- --<br>------- ---------- ------ -- ----- -- ----- -- save ------<br>--- ----- --- --- ------ -------- ----- --- ------ ----- --<br>----- ----- ---------- --- --- ------ ------ ---- -- ------<br>------- --- ------ ----- --- ---- ------- -- ---- --- --<br>------- ------,201807.23000015132,201806.8050001748,201488.322,201502.91500007734,201504.911,201821.675,,20,save
screen,html.Screen,1_1_1_1_21,2021-03-27T19:31:02.533Z,,,,,,,,,,,,,,,,54,,,,,,,,,,,,,,336.4800000701216,response,,,,100,,,,,,Space,keypress(Space),,,,,,,,"-- --- ---- --- ------ ----- ------- ---- -- --- ------- --<br>------- ---------- ------ -- ----- -- ----- -- ---- money,<br>--- ----- --- --- ------ -------- ----- --- ------ ----- --<br>----- ----- ---------- --- --- ------ ------ ---- -- ------<br>------- --- ------ ----- --- ---- ------- -- ---- --- --<br>------- ------",202158.63000019453,202158.1550000701,201805.003,201807.30500002392,201821.675,202171.694,,21,"money,"
screen,html.Screen,1_1_1_1_22,2021-03-27T19:31:03.205Z,,,,,,,,,,,,,,,,54,,,,,,,,,,,,,,659.0260002018476,response,,,,100,,,,,,Space,keypress(Space),,,,,,,,-- --- ---- --- ------ ----- ------- ---- -- --- ------- --<br>------- ---------- ------ -- ----- -- ----- -- ---- ------<br>the ----- --- --- ------ -------- ----- --- ------ ----- --<br>----- ----- ---------- --- --- ------ ------ ---- -- ------<br>------- --- ------ ----- --- ---- ------- -- ---- --- --<br>------- ------,202831.18000021204,202830.72000020184,202154.968,202158.69000018574,202171.694,202838.42,,22,the
screen,html.Screen,1_1_1_1_23,2021-03-27T19:31:03.644Z,,,,,,,,,,,,,,,,54,,,,,,,,,,,,,,431.2150000332913,response,,,,100,,,,,,Space,keypress(Space),,,,,,,,-- --- ---- --- ------ ----- ------- ---- -- --- ------- --<br>------- ---------- ------ -- ----- -- ----- -- ---- ------<br>--- state --- --- ------ -------- ----- --- ------ ----- --<br>----- ----- ---------- --- --- ------ ------ ---- -- ------<br>------- --- ------ ----- --- ---- ------- -- ---- --- --<br>------- ------,203270.12000000104,203269.6350000333,202821.65,202831.2950001564,202838.42,203271.728,,23,state
screen,html.Screen,1_1_1_1_24,2021-03-27T19:31:04.069Z,,,,,,,,,,,,,,,,54,,,,,,,,,,,,,,422.65200000081677,response,,,,100,,,,,,Space,keypress(Space),,,,,,,,-- --- ---- --- ------ ----- ------- ---- -- --- ------- --<br>------- ---------- ------ -- ----- -- ----- -- ---- ------<br>--- ----- cut --- ------ -------- ----- --- ------ ----- --<br>----- ----- ---------- --- --- ------ ------ ---- -- ------<br>------- --- ------ ----- --- ---- ------- -- ---- --- --<br>------- ------,203694.84000001103,203694.38000000082,203255.076,203270.1900000684,203271.728,203705.131,,24,cut
screen,html.Screen,1_1_1_1_25,2021-03-27T19:31:04.437Z,,,,,,,,,,,,,,,,54,,,,,,,,,,,,,,356.80400012159953,response,,,,100,,,,,,Space,keypress(Space),,,,,,,,-- --- ---- --- ------ ----- ------- ---- -- --- ------- --<br>------- ---------- ------ -- ----- -- ----- -- ---- ------<br>--- ----- --- the ------ -------- ----- --- ------ ----- --<br>----- ----- ---------- --- --- ------ ------ ---- -- ------<br>------- --- ------ ----- --- ---- ------- -- ---- --- --<br>------- ------,204062.44500004686,204061.9350001216,203688.345,203694.9050000403,203705.131,204071.797,,25,the
screen,html.Screen,1_1_1_1_26,2021-03-27T19:31:04.805Z,,,,,,,,,,,,,,,,54,,,,,,,,,,,,,,358.35800018373993,response,,,,100,,,,,,Space,keypress(Space),,,,,,,,-- --- ---- --- ------ ----- ------- ---- -- --- ------- --<br>------- ---------- ------ -- ----- -- ----- -- ---- ------<br>--- ----- --- --- bonds' -------- ----- --- ------ ----- --<br>----- ----- ---------- --- --- ------ ------ ---- -- ------<br>------- --- ------ ----- --- ---- ------- -- ---- --- --<br>------- ------,204430.58000016026,204430.15500018373,204055.132,204062.51500011422,204071.797,204438.478,,26,bonds'
screen,html.Screen,1_1_1_1_27,2021-03-27T19:31:05.125Z,,,,,,,,,,,,,,,,54,,,,,,,,,,,,,,311.66700017277617,response,,,,100,,,,,,Space,keypress(Space),,,,,,,,-- --- ---- --- ------ ----- ------- ---- -- --- ------- --<br>------- ---------- ------ -- ----- -- ----- -- ---- ------<br>--- ----- --- --- ------ interest ----- --- ------ ----- --<br>----- ----- ---------- --- --- ------ ------ ---- -- ------<br>------- --- ------ ----- --- ---- ------- -- ---- --- --<br>------- ------,204750.5700001493,204750.14500017278,204421.818,204430.64500018954,204438.478,204755.174,,27,interest
screen,html.Screen,1_1_1_1_28,2021-03-27T19:31:05.589Z,,,,,,,,,,,,,,,,54,,,,,,,,,,,,,,459.03100008389447,response,,,,100,,,,,,Space,keypress(Space),,,,,,,,-- --- ---- --- ------ ----- ------- ---- -- --- ------- --<br>------- ---------- ------ -- ----- -- ----- -- ---- ------<br>--- ----- --- --- ------ -------- rate. --- ------ ----- --<br>----- ----- ---------- --- --- ------ ------ ---- -- ------<br>------- --- ------ ----- --- ---- ------- -- ---- --- --<br>------- ------,205214.5400000736,205214.2050000839,204738.44,204750.6350001786,204755.174,205221.905,,28,rate.
screen,html.Screen,1_1_1_1_29,2021-03-27T19:31:05.934Z,,,,,,,,,,,,,,,,54,,,,,,,,,,,,,,337.3300000515592,response,,,,100,,,,,,Space,keypress(Space),,,,,,,,-- --- ---- --- ------ ----- ------- ---- -- --- ------- --<br>------- ---------- ------ -- ----- -- ----- -- ---- ------<br>--- ----- --- --- ------ -------- ----- The ------ ----- --<br>----- ----- ---------- --- --- ------ ------ ---- -- ------<br>------- --- ------ ----- --- ---- ------- -- ---- --- --<br>------- ------,205559.71500021406,205559.23500005156,205205.177,205214.6050001029,205221.905,205571.887,,29,The
screen,html.Screen,1_1_1_1_30,2021-03-27T19:31:06.277Z,,,,,,,,,,,,,,,,54,,,,,,,,,,,,,,330.183000069228,response,,,,100,,,,,,Space,keypress(Space),,,,,,,,-- --- ---- --- ------ ----- ------- ---- -- --- ------- --<br>------- ---------- ------ -- ----- -- ----- -- ---- ------<br>--- ----- --- --- ------ -------- ----- --- market ----- --<br>----- ----- ---------- --- --- ------ ------ ---- -- ------<br>------- --- ------ ----- --- ---- ------- -- ---- --- --<br>------- ------,205902.51500019804,205902.07000006922,205555.198,205559.8100000061,205571.887,205905.162,,30,market
screen,html.Screen,1_1_1_1_31,2021-03-27T19:31:06.685Z,,,,,,,,,,,,,,,,54,,,,,,,,,,,,,,404.65800008224323,response,,,,100,,,,,,Space,keypress(Space),,,,,,,,-- --- ---- --- ------ ----- ------- ---- -- --- ------- --<br>------- ---------- ------ -- ----- -- ----- -- ---- ------<br>--- ----- --- --- ------ -------- ----- --- ------ value --<br>----- ----- ---------- --- --- ------ ------ ---- -- ------<br>------- --- ------ ----- --- ---- ------- -- ---- --- --<br>------- ------,206310.41000015102,206309.82000008225,205888.585,205902.5799999945,205905.162,206321.947,,31,value
screen,html.Screen,1_1_1_1_32,2021-03-27T19:31:07.061Z,,,,,,,,,,,,,,,,54,,,,,,,,,,,,,,364.408000128984,response,,,,100,,,,,,Space,keypress(Space),,,,,,,,-- --- ---- --- ------ ----- ------- ---- -- --- ------- --<br>------- ---------- ------ -- ----- -- ----- -- ---- ------<br>--- ----- --- --- ------ -------- ----- --- ------ ----- of<br>----- ----- ---------- --- --- ------ ------ ---- -- ------<br>------- --- ------ ----- --- ---- ------- -- ---- --- --<br>------- ------,206686.84500013478,206686.35500012897,206305.24,206310.4750001803,206321.947,206688.581,,32,of
screen,html.Screen,1_1_1_1_33,2021-03-27T19:31:07.461Z,,,,,,,,,,,,,,,,54,,,,,,,,,,,,,,397.39900020719506,response,,,,100,,,,,,Space,keypress(Space),,,,,,,,-- --- ---- --- ------ ----- ------- ---- -- --- ------- --<br>------- ---------- ------ -- ----- -- ----- -- ---- ------<br>--- ----- --- --- ------ -------- ----- --- ------ ----- --<br>these ----- ---------- --- --- ------ ------ ---- -- ------<br>------- --- ------ ----- --- ---- ------- -- ---- --- --<br>------- ------,207086.51000005193,207085.9800002072,206671.873,206686.905000126,206688.581,207088.654,,33,these
screen,html.Screen,1_1_1_1_34,2021-03-27T19:31:07.773Z,,,,,,,,,,,,,,,,54,,,,,,,,,,,,,,309.39600019258796,response,,,,100,,,,,,Space,keypress(Space),,,,,,,,-- --- ---- --- ------ ----- ------- ---- -- --- ------- --<br>------- ---------- ------ -- ----- -- ----- -- ---- ------<br>--- ----- --- --- ------ -------- ----- --- ------ ----- --<br>----- bonds ---------- --- --- ------ ------ ---- -- ------<br>------- --- ------ ----- --- ---- ------- -- ---- --- --<br>------- ------,207398.60000018962,207398.0500001926,207071.906,207086.5750000812,207088.654,207405.345,,34,bonds
screen,html.Screen,1_1_1_1_35,2021-03-27T19:31:08.133Z,,,,,,,,,,,,,,,,54,,,,,,,,,,,,,,352.5800000417221,response,,,,100,,,,,,Space,keypress(Space),,,,,,,,"-- --- ---- --- ------ ----- ------- ---- -- --- ------- --<br>------- ---------- ------ -- ----- -- ----- -- ---- ------<br>--- ----- --- --- ------ -------- ----- --- ------ ----- --<br>----- ----- plummeted, --- --- ------ ------ ---- -- ------<br>------- --- ------ ----- --- ---- ------- -- ---- --- --<br>------- ------",207758.44000000507,207757.92500004172,207388.669,207398.74500012957,207405.345,207772.05,,35,"plummeted,"
screen,html.Screen,1_1_1_1_36,2021-03-27T19:31:08.565Z,,,,,,,,,,,,,,,,54,,,,,,,,,,,,,,418.475000216451,response,,,,100,,,,,,Space,keypress(Space),,,,,,,,-- --- ---- --- ------ ----- ------- ---- -- --- ------- --<br>------- ---------- ------ -- ----- -- ----- -- ---- ------<br>--- ----- --- --- ------ -------- ----- --- ------ ----- --<br>----- ----- ---------- and --- ------ ------ ---- -- ------<br>------- --- ------ ----- --- ---- ------- -- ---- --- --<br>------- ------,208190.98499999382,208190.52500021644,207755.372,207758.50500003435,207772.05,208205.422,,36,and
screen,html.Screen,1_1_1_1_37,2021-03-27T19:31:09.005Z,,,,,,,,,,,,,,,,54,,,,,,,,,,,,,,424.6580000317481,response,,,,100,,,,,,Space,keypress(Space),,,,,,,,-- --- ---- --- ------ ----- ------- ---- -- --- ------- --<br>------- ---------- ------ -- ----- -- ----- -- ---- ------<br>--- ----- --- --- ------ -------- ----- --- ------ ----- --<br>----- ----- ---------- --- the ------ ------ ---- -- ------<br>------- --- ------ ----- --- ---- ------- -- ---- --- --<br>------- ------,208630.57500007562,208630.08000003174,208188.698,208191.05500006117,208205.422,208638.721,,37,the
screen,html.Screen,1_1_1_1_38,2021-03-27T19:31:09.341Z,,,,,,,,,,,,,,,,54,,,,,,,,,,,,,,327.4790001408255,response,,,,100,,,,,,Space,keypress(Space),,,,,,,,-- --- ---- --- ------ ----- ------- ---- -- --- ------- --<br>------- ---------- ------ -- ----- -- ----- -- ---- ------<br>--- ----- --- --- ------ -------- ----- --- ------ ----- --<br>----- ----- ---------- --- --- market ------ ---- -- ------<br>------- --- ------ ----- --- ---- ------- -- ---- --- --<br>------- ------,208966.5850000456,208966.20000014082,208622.025,208630.6400001049,208638.721,208972.109,,38,market
screen,html.Screen,1_1_1_1_39,2021-03-27T19:31:09.701Z,,,,,,,,,,,,,,,,54,,,,,,,,,,,,,,354.0010000236216,response,,,,100,,,,,,Space,keypress(Space),,,,,,,,-- --- ---- --- ------ ----- ------- ---- -- --- ------- --<br>------- ---------- ------ -- ----- -- ----- -- ---- ------<br>--- ----- --- --- ------ -------- ----- --- ------ ----- --<br>----- ----- ---------- --- --- ------ became ---- -- ------<br>------- --- ------ ----- --- ---- ------- -- ---- --- --<br>------- ------,209326.52500015683,209326.11000002362,208955.415,208966.6650001891,208972.109,209338.832,,39,became
screen,html.Screen,1_1_1_1_40,2021-03-27T19:31:10.148Z,,,,,,,,,,,,,,,,54,,,,,,,,,,,,,,434.86800001974916,response,,,,100,,,,,,Space,keypress(Space),,,,,,,,-- --- ---- --- ------ ----- ------- ---- -- --- ------- --<br>------- ---------- ------ -- ----- -- ----- -- ---- ------<br>--- ----- --- --- ------ -------- ----- --- ------ ----- --<br>----- ----- ---------- --- --- ------ ------ wary -- ------<br>------- --- ------ ----- --- ---- ------- -- ---- --- --<br>------- ------,209774.27000016905,209773.70000001974,209322.024,209326.58500014804,209338.832,209788.857,,40,wary
screen,html.Screen,1_1_1_1_41,2021-03-27T19:31:10.613Z,,,,,,,,,,,,,,,,54,,,,,,,,,,,,,,449.4230001651158,response,,,,100,,,,,,Space,keypress(Space),,,,,,,,-- --- ---- --- ------ ----- ------- ---- -- --- ------- --<br>------- ---------- ------ -- ----- -- ----- -- ---- ------<br>--- ----- --- --- ------ -------- ----- --- ------ ----- --<br>----- ----- ---------- --- --- ------ ------ ---- of ------<br>------- --- ------ ----- --- ---- ------- -- ---- --- --<br>------- ------,210238.79000009038,210238.2800001651,209772.05,209774.40500003286,209788.857,210255.475,,41,of
screen,html.Screen,1_1_1_1_42,2021-03-27T19:31:11.012Z,,,,,,,,,,,,,,,,54,,,,,,,,,,,,,,382.29000010862364,response,,,,100,,,,,,Space,keypress(Space),,,,,,,,-- --- ---- --- ------ ----- ------- ---- -- --- ------- --<br>------- ---------- ------ -- ----- -- ----- -- ---- ------<br>--- ----- --- --- ------ -------- ----- --- ------ ----- --<br>----- ----- ---------- --- --- ------ ------ ---- -- French<br>------- --- ------ ----- --- ---- ------- -- ---- --- --<br>------- ------,210638.24000000022,210637.76500010863,210238.867,210238.89000015333,210255.475,210656.682,,42,French
screen,html.Screen,1_1_1_1_43,2021-03-27T19:31:11.436Z,,,,,,,,,,,,,,,,54,,,,,,,,,,,,,,405.05299999567796,response,,,,100,,,,,,Space,keypress(Space),,,,,,,,-- --- ---- --- ------ ----- ------- ---- -- --- ------- --<br>------- ---------- ------ -- ----- -- ----- -- ---- ------<br>--- ----- --- --- ------ -------- ----- --- ------ ----- --<br>----- ----- ---------- --- --- ------ ------ ---- -- ------<br>credit. --- ------ ----- --- ---- ------- -- ---- --- --<br>------- ------,211062.20000004396,211061.73499999568,210622.166,210638.29999999143,210656.682,211072.257,,43,credit.
screen,html.Screen,1_1_1_1_44,2021-03-27T19:31:11.901Z,,,,,,,,,,,,,,,,54,,,,,,,,,,,,,,453.8880000107165,response,,,,100,,,,,,Space,keypress(Space),,,,,,,,-- --- ---- --- ------ ----- ------- ---- -- --- ------- --<br>------- ---------- ------ -- ----- -- ----- -- ---- ------<br>--- ----- --- --- ------ -------- ----- --- ------ ----- --<br>----- ----- ---------- --- --- ------ ------ ---- -- ------<br>------- The ------ ----- --- ---- ------- -- ---- --- --<br>------- ------,211526.54500002973,211526.14500001073,211055.588,211062.26000003517,211072.257,211538.95,,44,The
screen,html.Screen,1_1_1_1_45,2021-03-27T19:31:12.325Z,,,,,,,,,,,,,,,,54,,,,,,,,,,,,,,411.480000200856,response,,,,100,,,,,,Space,keypress(Space),,,,,,,,-- --- ---- --- ------ ----- ------- ---- -- --- ------- --<br>------- ---------- ------ -- ----- -- ----- -- ---- ------<br>--- ----- --- --- ------ -------- ----- --- ------ ----- --<br>----- ----- ---------- --- --- ------ ------ ---- -- ------<br>------- --- French ----- --- ---- ------- -- ---- --- --<br>------- ------,211950.86000021547,211950.43000020087,211522.252,211526.60500002094,211538.95,211955.626,,45,French
screen,html.Screen,1_1_1_1_46,2021-03-27T19:31:12.676Z,,,,,,,,,,,,,,,,54,,,,,,,,,,,,,,345.95900000835536,response,,,,100,,,,,,Space,keypress(Space),,,,,,,,-- --- ---- --- ------ ----- ------- ---- -- --- ------- --<br>------- ---------- ------ -- ----- -- ----- -- ---- ------<br>--- ----- --- --- ------ -------- ----- --- ------ ----- --<br>----- ----- ---------- --- --- ------ ------ ---- -- ------<br>------- --- ------ state --- ---- ------- -- ---- --- --<br>------- ------,212302.06500017084,212301.58500000834,211938.946,211950.92500001192,211955.626,212305.621,,46,state
screen,html.Screen,1_1_1_1_47,2021-03-27T19:31:13.012Z,,,,,,,,,,,,,,,,54,,,,,,,,,,,,,,332.0440000456583,response,,,,100,,,,,,Space,keypress(Space),,,,,,,,-- --- ---- --- ------ ----- ------- ---- -- --- ------- --<br>------- ---------- ------ -- ----- -- ----- -- ---- ------<br>--- ----- --- --- ------ -------- ----- --- ------ ----- --<br>----- ----- ---------- --- --- ------ ------ ---- -- ------<br>------- --- ------ ----- was ---- ------- -- ---- --- --<br>------- ------,212638.11500021257,212637.66500004567,212288.981,212302.12500016205,212305.621,212656.422,,47,was
screen,html.Screen,1_1_1_1_48,2021-03-27T19:31:13.404Z,,,,,,,,,,,,,,,,54,,,,,,,,,,,,,,373.1780000089493,response,,,,100,,,,,,Space,keypress(Space),,,,,,,,-- --- ---- --- ------ ----- ------- ---- -- --- ------- --<br>------- ---------- ------ -- ----- -- ----- -- ---- ------<br>--- ----- --- --- ------ -------- ----- --- ------ ----- --<br>----- ----- ---------- --- --- ------ ------ ---- -- ------<br>------- --- ------ ----- --- left ------- -- ---- --- --<br>------- ------,213030.0400000997,213029.60000000894,212622.262,212638.19000008516,212656.422,213039.064,,48,left
screen,html.Screen,1_1_1_1_49,2021-03-27T19:31:13.733Z,,,,,,,,,,,,,,,,54,,,,,,,,,,,,,,319.0460001465399,response,,,,100,,,,,,Space,keypress(Space),,,,,,,,-- --- ---- --- ------ ----- ------- ---- -- --- ------- --<br>------- ---------- ------ -- ----- -- ----- -- ---- ------<br>--- ----- --- --- ------ -------- ----- --- ------ ----- --<br>----- ----- ---------- --- --- ------ ------ ---- -- ------<br>------- --- ------ ----- --- ---- without -- ---- --- --<br>------- ------,213358.5650001187,213358.11000014655,213022.353,213030.10500012897,213039.064,213372.337,,49,without
screen,html.Screen,1_1_1_1_50,2021-03-27T19:31:14.236Z,,,,,,,,,,,,,,,,54,,,,,,,,,,,,,,489.31300009350525,response,,,,100,,,,,,Space,keypress(Space),,,,,,,,-- --- ---- --- ------ ----- ------- ---- -- --- ------- --<br>------- ---------- ------ -- ----- -- ----- -- ---- ------<br>--- ----- --- --- ------ -------- ----- --- ------ ----- --<br>----- ----- ---------- --- --- ------ ------ ---- -- ------<br>------- --- ------ ----- --- ---- ------- an ---- --- --<br>------- ------,213862.08500014618,213861.6500000935,213355.704,213358.6250001099,213372.337,213872.459,,50,an
screen,html.Screen,1_1_1_1_51,2021-03-27T19:31:14.700Z,,,,,,,,,,,,,,,,54,,,,,,,,,,,,,,452.85100021844846,response,,,,100,,,,,,Space,keypress(Space),,,,,,,,-- --- ---- --- ------ ----- ------- ---- -- --- ------- --<br>------- ---------- ------ -- ----- -- ----- -- ---- ------<br>--- ----- --- --- ------ -------- ----- --- ------ ----- --<br>----- ----- ---------- --- --- ------ ------ ---- -- ------<br>------- --- ------ ----- --- ---- ------- -- easy --- --<br>------- ------,214325.5900000222,214325.31000021845,213855.75,213862.1450001374,213872.459,214339.039,,51,easy
screen,html.Screen,1_1_1_1_52,2021-03-27T19:31:15.069Z,,,,,,,,,,,,,,,,54,,,,,,,,,,,,,,354.91600002429914,response,,,,100,,,,,,Space,keypress(Space),,,,,,,,-- --- ---- --- ------ ----- ------- ---- -- --- ------- --<br>------- ---------- ------ -- ----- -- ----- -- ---- ------<br>--- ----- --- --- ------ -------- ----- --- ------ ----- --<br>----- ----- ---------- --- --- ------ ------ ---- -- ------<br>------- --- ------ ----- --- ---- ------- -- ---- way --<br>------- ------,214694.31500020437,214693.9550000243,214322.413,214325.6700001657,214339.039,214705.829,,52,way
screen,html.Screen,1_1_1_1_53,2021-03-27T19:31:15.430Z,,,,,,,,,,,,,,,,54,,,,,,,,,,,,,,349.34100006512017,response,,,,100,,,,,,Space,keypress(Space),,,,,,,,-- --- ---- --- ------ ----- ------- ---- -- --- ------- --<br>------- ---------- ------ -- ----- -- ----- -- ---- ------<br>--- ----- --- --- ------ -------- ----- --- ------ ----- --<br>----- ----- ---------- --- --- ------ ------ ---- -- ------<br>------- --- ------ ----- --- ---- ------- -- ---- --- of<br>------- ------,215055.70500018075,215055.17000006512,214689.13,214694.3850000389,214705.829,215072.52,,53,of
screen,html.Screen,1_1_1_1_54,2021-03-27T19:31:16.181Z,,,,,,,,,,,,,,,,54,,,,,,,,,,,,,,733.4750000606582,response,,,,100,,,,,,Space,keypress(Space),,,,,,,,-- --- ---- --- ------ ----- ------- ---- -- --- ------- --<br>------- ---------- ------ -- ----- -- ----- -- ---- ------<br>--- ----- --- --- ------ -------- ----- --- ------ ----- --<br>----- ----- ---------- --- --- ------ ------ ---- -- ------<br>------- --- ------ ----- --- ---- ------- -- ---- --- --<br>raising ------,215806.53500021435,215805.99500006065,215055.768,215055.79500016756,215072.52,215822.554,,54,raising
screen,html.Screen,1_1_1_1_55,2021-03-27T19:31:16.613Z,,,,,,,,,,,,,,,,54,,,,,,,,,,,,,,415.26600015489385,response,,,,100,,,,,,Space,keypress(Space),,,,,,,,-- --- ---- --- ------ ----- ------- ---- -- --- ------- --<br>------- ---------- ------ -- ----- -- ----- -- ---- ------<br>--- ----- --- --- ------ -------- ----- --- ------ ----- --<br>----- ----- ---------- --- --- ------ ------ ---- -- ------<br>------- --- ------ ----- --- ---- ------- -- ---- --- --<br>------- money.,216238.2300000172,216237.8200001549,215805.85,215806.64000008255,215822.554,216256.786,,55,money.
Item 100,flow.Loop,1_1_1_1,2021-03-27T19:31:16.613Z,,,,,,,,,,,,,,,,,,,,,,,,,,,,,,26733.603000154893,completion,,,,,D,,,,,,,,,,silence,,,,,216238.3400001563,216237.8200001549,189487.487,189488.07000019588,189504.217,216256.786,,,
Question 1,html.Screen,1_1_1_2,2021-03-27T19:31:21.167Z,,,,,,,,,,,,,,,,,,,,,,,,,,,true,TRUE,,4535.229000013642,response,,,,100,D,,,,,TRUE,click #choice-1,,,,silence,,,,,220792.91000007652,220792.01500001363,216222.56,216238.3850000333,216256.786,220806.216,,,
Question 2,html.Screen,1_1_1_3,2021-03-27T19:31:30.041Z,,,,,,,,,,,,,,,,,,,,,,,,,,,true,FALSE,,8860.114000152826,response,,,,100,D,,,,,FALSE,click #choice-2,,,,silence,,,,,229667.0700001996,229666.3300001528,220789.459,220792.98500018194,220806.216,229673.358,,,
Item 100,flow.Sequence,1_1_1,2021-03-27T19:31:30.041Z,,,,,,,,,,,,,,,,,,,,,,,,,,,,,,47162.6000001528,completion,,,,,,,,,,,,,,,,,,,,229667.19000018202,229666.3300001528,182487.151,182492.31500015594,182503.73,229673.358,,,
End of Practice,html.Page,1_1_2,2021-03-27T19:31:31.656Z,,,,,,,,,,,,,,,,,,,,,,,,,,,,,,1607.7970002079383,form submission,,,,,,,,,,,,,,,,,,,,231281.3900001347,231281.15500020795,229656.734,229667.24000009708,229673.358,231290.126,,,
Practice,flow.Sequence,1_1,2021-03-27T19:31:31.656Z,,,,,,,,,,,,,,,,,,,,,,,,,,,,,,102014.11100020795,completion,,,,,,,,,,,,,,,,,,,,231281.48000012152,231281.15500020795,129250.386,129255.86500018835,129267.044,231290.126,,,
Trap_instruction,html.Page,1_2_0,2021-03-27T19:31:44.201Z,,,,,,,,,,,,,,,,,,,,,,,,,,,,,,12536.109000044118,form submission,,,,,,,,,,,,,,,,,,,,243826.46500016563,243826.2350000441,231273.45,231281.58000018448,231290.126,243840.884,,,
trap_trial,html.Screen,1_2_1,2021-03-27T19:31:49.179Z,,,,,,,,,,,,,,,,,,,,,,,,,,,true,1,,4963.621000123763,response,,,,,,,,,,1,click #choice-1,,,,,,,,,248805.0500000827,248804.50500012375,243824.231,243826.52500015683,243840.884,248824.591,,,
end of trap trial,html.Page,1_2_2,2021-03-27T19:31:51.430Z,,,,,,,,,,,,,,,,,,,,,,,,,,,,,,2230.6190001368814,form submission,,,,,,,,,,,,,,,,,,,,251055.49000017345,251055.21000013687,248807.905,248805.12500018813,248824.591,251058.018,,,
Trap 1,flow.Sequence,1_2,2021-03-27T19:31:51.430Z,,,,,,,,,,,,,,,,,,,,,,,,,,,,,,19765.084000136878,completion,,,,,,,,,,,,,,,,,,,,251055.61000015587,251055.21000013687,231273.45,231281.5450001508,231290.126,251058.018,,,
Holding screen,html.Screen,1_3_0_0,2021-03-27T19:31:58.416Z,,,,,,,,,,,,,,,,,,,,,,,,,,,,,,7000.43299999999,timeout,,,,,,,,,,,,,,,,,,,,258042.15500014834,258041.797,251041.411,251055.70000014268,251058.018,258058.451,,,
screen,html.Screen,1_3_0_1_0,2021-03-27T19:32:00.118Z,,,,,,,,,,,,,,,,11,,,,,,,,,,,,,,1684.7340000284603,response,,,,4,D,,,,,Space,keypress(Space),,,,silence,,,,Known -- ---- --- -- --- -------- ------------ ---------- --<br>- ------- ------ --------- -- ------------ -- --- ---- -----<br>------ ---- ---- ------ ------ ------- --- ----- ---------<br>---- --- -------- -------- --- --- -- ------- --- --- -----<br>-- --- ------ ------- --- --- -------- ---- --------- --<br>---------- -- -------- ----------------,259743.8400001265,259743.18500002846,258041.797,258042.235000059,258058.451,259758.637,,0,Known
screen,html.Screen,1_3_0_1_1,2021-03-27T19:32:00.709Z,,,,,,,,,,,,,,,,11,,,,,,,,,,,,,,575.8730001897784,response,,,,4,D,,,,,Space,keypress(Space),,,,silence,,,,----- as ---- --- -- --- -------- ------------ ---------- --<br>- ------- ------ --------- -- ------------ -- --- ---- -----<br>------ ---- ---- ------ ------ ------- --- ----- ---------<br>---- --- -------- -------- --- --- -- ------- --- --- -----<br>-- --- ------ ------- --- --- -------- ---- --------- --<br>---------- -- -------- ----------------,260335.03000019118,260334.51000018977,259741.794,259743.92000003718,259758.637,260341.99,,1,as
screen,html.Screen,1_3_0_1_2,2021-03-27T19:32:01.381Z,,,,,,,,,,,,,,,,11,,,,,,,,,,,,,,664.4050000330899,response,,,,4,D,,,,,Space,keypress(Space),,,,silence,,,,----- -- Rapa --- -- --- -------- ------------ ---------- --<br>- ------- ------ --------- -- ------------ -- --- ---- -----<br>------ ---- ---- ------ ------ ------- --- ----- ---------<br>---- --- -------- -------- --- --- -- ------- --- --- -----<br>-- --- ------ ------- --- --- -------- ---- --------- --<br>---------- -- -------- ----------------,261006.89000007696,261006.39500003308,260325.231,260335.120000178,260341.99,261008.642,,2,Rapa
screen,html.Screen,1_3_0_1_3,2021-03-27T19:32:01.973Z,,,,,,,,,,,,,,,,11,,,,,,,,,,,,,,589.5730000054464,response,,,,4,D,,,,,Space,keypress(Space),,,,silence,,,,----- -- ---- Nui -- --- -------- ------------ ---------- --<br>- ------- ------ --------- -- ------------ -- --- ---- -----<br>------ ---- ---- ------ ------ ------- --- ----- ---------<br>---- --- -------- -------- --- --- -- ------- --- --- -----<br>-- --- ------ ------- --- --- -------- ---- --------- --<br>---------- -- -------- ----------------,261598.70500001125,261598.21500000544,260992,261006.95000006817,261008.642,261608.748,,3,Nui
screen,html.Screen,1_3_0_1_4,2021-03-27T19:32:02.429Z,,,,,,,,,,,,,,,,11,,,,,,,,,,,,,,445.4370000154304,response,,,,4,D,,,,,Space,keypress(Space),,,,silence,,,,----- -- ---- --- to --- -------- ------------ ---------- --<br>- ------- ------ --------- -- ------------ -- --- ---- -----<br>------ ---- ---- ------ ------ ------- --- ----- ---------<br>---- --- -------- -------- --- --- -- ------- --- --- -----<br>-- --- ------ ------- --- --- -------- ---- --------- --<br>---------- -- -------- ----------------,262054.69500017352,262054.18500001542,261592.048,261598.77000004053,261608.748,262058.716,,4,to
screen,html.Screen,1_3_0_1_5,2021-03-27T19:32:02.773Z,,,,,,,,,,,,,,,,11,,,,,,,,,,,,,,339.10400007109274,response,,,,4,D,,,,,Space,keypress(Space),,,,silence,,,,----- -- ---- --- -- the -------- ------------ ---------- --<br>- ------- ------ --------- -- ------------ -- --- ---- -----<br>------ ---- ---- ------ ------ ------- --- ----- ---------<br>---- --- -------- -------- --- --- -- ------- --- --- -----<br>-- --- ------ ------- --- --- -------- ---- --------- --<br>---------- -- -------- ----------------,262398.3350000344,262397.8200000711,262042.025,262054.75500016473,262058.716,262408.756,,5,the
screen,html.Screen,1_3_0_1_6,2021-03-27T19:32:03.109Z,,,,,,,,,,,,,,,,11,,,,,,,,,,,,,,325.9390001083375,response,,,,4,D,,,,,Space,keypress(Space),,,,silence,,,,----- -- ---- --- -- --- island's ------------ ---------- --<br>- ------- ------ --------- -- ------------ -- --- ---- -----<br>------ ---- ---- ------ ------ ------- --- ----- ---------<br>---- --- -------- -------- --- --- -- ------- --- --- -----<br>-- --- ------ ------- --- --- -------- ---- --------- --<br>---------- -- -------- ----------------,262735.15500011854,262734.69500010833,262392.115,262398.4050001018,262408.756,262742.165,,6,island's
screen,html.Screen,1_3_0_1_7,2021-03-27T19:32:04.526Z,,,,,,,,,,,,,,,,11,,,,,,,,,,,,,,1408.650000059104,response,,,,4,D,,,,,Space,keypress(Space),,,,silence,,,,"----- -- ---- --- -- --- -------- inhabitants, ---------- --<br>- ------- ------ --------- -- ------------ -- --- ---- -----<br>------ ---- ---- ------ ------ ------- --- ----- ---------<br>---- --- -------- -------- --- --- -- ------- --- --- -----<br>-- --- ------ ------- --- --- -------- ---- --------- --<br>---------- -- -------- ----------------",264151.3550002128,264150.8150000591,262725.444,262735.22999999113,262742.165,264158.862,,7,"inhabitants,"
screen,html.Screen,1_3_0_1_8,2021-03-27T19:32:06.389Z,,,,,,,,,,,,,,,,11,,,,,,,,,,,,,,1855.1680001948844,response,,,,4,D,,,,,Space,keypress(Space),,,,silence,,,,----- -- ---- --- -- --- -------- ------------ Rongorongo --<br>- ------- ------ --------- -- ------------ -- --- ---- -----<br>------ ---- ---- ------ ------ ------- --- ----- ---------<br>---- --- -------- -------- --- --- -- ------- --- --- -----<br>-- --- ------ ------- --- --- -------- ---- --------- --<br>---------- -- -------- ----------------,266014.48500016704,266014.0300001949,264142.157,264151.45000000484,264158.862,266025.695,,8,Rongorongo
screen,html.Screen,1_3_0_1_9,2021-03-27T19:32:07.053Z,,,,,,,,,,,,,,,,11,,,,,,,,,,,,,,652.5350001941551,response,,,,4,D,,,,,Space,keypress(Space),,,,silence,,,,----- -- ---- --- -- --- -------- ------------ ---------- is<br>- ------- ------ --------- -- ------------ -- --- ---- -----<br>------ ---- ---- ------ ------ ------- --- ----- ---------<br>---- --- -------- -------- --- --- -- ------- --- --- -----<br>-- --- ------ ------- --- --- -------- ---- --------- --<br>---------- -- -------- ----------------,266678.7250000052,266678.23000019416,266008.884,266014.55500000156,266025.695,266692.378,,9,is
screen,html.Screen,1_3_0_1_10,2021-03-27T19:32:07.485Z,,,,,,,,,,,,,,,,11,,,,,,,,,,,,,,417.4970000819303,response,,,,4,D,,,,,Space,keypress(Space),,,,silence,,,,----- -- ---- --- -- --- -------- ------------ ---------- --<br>a ------- ------ --------- -- ------------ -- --- ---- -----<br>------ ---- ---- ------ ------ ------- --- ----- ---------<br>---- --- -------- -------- --- --- -- ------- --- --- -----<br>-- --- ------ ------- --- --- -------- ---- --------- --<br>---------- -- -------- ----------------,267110.3600000497,267109.87500008196,266675.657,266678.80000011064,266692.378,267125.771,,10,a
screen,html.Screen,1_3_0_1_11,2021-03-27T19:32:07.877Z,,,,,,,,,,,,,,,,11,,,,,,,,,,,,,,376.229000094987,response,,,,4,D,,,,,Space,keypress(Space),,,,silence,,,,----- -- ---- --- -- --- -------- ------------ ---------- --<br>- writing ------ --------- -- ------------ -- --- ---- -----<br>------ ---- ---- ------ ------ ------- --- ----- ---------<br>---- --- -------- -------- --- --- -- ------- --- --- -----<br>-- --- ------ ------- --- --- -------- ---- --------- --<br>---------- -- -------- ----------------,267502.44000018574,267502.000000095,267109.057,267110.43000011705,267125.771,267509.048,,11,writing
screen,html.Screen,1_3_0_1_12,2021-03-27T19:32:08.205Z,,,,,,,,,,,,,,,,11,,,,,,,,,,,,,,321.0920002092025,response,,,,4,D,,,,,Space,keypress(Space),,,,silence,,,,----- -- ---- --- -- --- -------- ------------ ---------- --<br>- ------- system --------- -- ------------ -- --- ---- -----<br>------ ---- ---- ------ ------ ------- --- ----- ---------<br>---- --- -------- -------- --- --- -- ------- --- --- -----<br>-- --- ------ ------- --- --- -------- ---- --------- --<br>---------- -- -------- ----------------,267830.51500003785,267830.1400002092,267492.443,267502.50000017695,267509.048,267842.367,,12,system
screen,html.Screen,1_3_0_1_13,2021-03-27T19:32:08.613Z,,,,,,,,,,,,,,,,11,,,,,,,,,,,,,,395.92800004646415,response,,,,4,D,,,,,Space,keypress(Space),,,,silence,,,,----- -- ---- --- -- --- -------- ------------ ---------- --<br>- ------- ------ comprised -- ------------ -- --- ---- -----<br>------ ---- ---- ------ ------ ------- --- ----- ---------<br>---- --- -------- -------- --- --- -- ------- --- --- -----<br>-- --- ------ ------- --- --- -------- ---- --------- --<br>---------- -- -------- ----------------,268238.7550000567,268238.2950000465,267825.767,267830.58000006713,267842.367,268242.479,,13,comprised
screen,html.Screen,1_3_0_1_14,2021-03-27T19:32:09.013Z,,,,,,,,,,,,,,,,11,,,,,,,,,,,,,,396.19600005290704,response,,,,4,D,,,,,Space,keypress(Space),,,,silence,,,,----- -- ---- --- -- --- -------- ------------ ---------- --<br>- ------- ------ --------- of ------------ -- --- ---- -----<br>------ ---- ---- ------ ------ ------- --- ----- ---------<br>---- --- -------- -------- --- --- -- ------- --- --- -----<br>-- --- ------ ------- --- --- -------- ---- --------- --<br>---------- -- -------- ----------------,268639.03500000015,268638.6750000529,268225.811,268238.820000086,268242.479,268642.454,,14,of
screen,html.Screen,1_3_0_1_15,2021-03-27T19:32:10.045Z,,,,,,,,,,,,,,,,11,,,,,,,,,,,,,,1027.7210000938503,response,,,,4,D,,,,,Space,keypress(Space),,,,silence,,,,----- -- ---- --- -- --- -------- ------------ ---------- --<br>- ------- ------ --------- -- pictographs. -- --- ---- -----<br>------ ---- ---- ------ ------ ------- --- ----- ---------<br>---- --- -------- -------- --- --- -- ------- --- --- -----<br>-- --- ------ ------- --- --- -------- ---- --------- --<br>---------- -- -------- ----------------,269670.5700000748,269670.1750000939,268625.828,268639.1050000675,268642.454,269675.824,,15,pictographs.
screen,html.Screen,1_3_0_1_16,2021-03-27T19:32:10.965Z,,,,,,,,,,,,,,,,11,,,,,,,,,,,,,,914.5260001877323,response,,,,4,D,,,,,Space,keypress(Space),,,,silence,,,,----- -- ---- --- -- --- -------- ------------ ---------- --<br>- ------- ------ --------- -- ------------ It --- ---- -----<br>------ ---- ---- ------ ------ ------- --- ----- ---------<br>---- --- -------- -------- --- --- -- ------- --- --- -----<br>-- --- ------ ------- --- --- -------- ---- --------- --<br>---------- -- -------- ----------------,270590.81000019796,270590.35000018775,269659.199,269670.6350001041,269675.824,270609.327,,16,It
screen,html.Screen,1_3_0_1_17,2021-03-27T19:32:11.485Z,,,,,,,,,,,,,,,,11,,,,,,,,,,,,,,500.9580001771101,response,,,,4,D,,,,,Space,keypress(Space),,,,silence,,,,----- -- ---- --- -- --- -------- ------------ ---------- --<br>- ------- ------ --------- -- ------------ -- has ---- -----<br>------ ---- ---- ------ ------ ------- --- ----- ---------<br>---- --- -------- -------- --- --- -- ------- --- --- -----<br>-- --- ------ ------- --- --- -------- ---- --------- --<br>---------- -- -------- ----------------,271110.7300000731,271110.2850001771,270575.928,270590.8749999944,270609.327,271126.009,,17,has
screen,html.Screen,1_3_0_1_18,2021-03-27T19:32:11.773Z,,,,,,,,,,,,,,,,11,,,,,,,,,,,,,,272.3760001822957,response,,,,4,D,,,,,Space,keypress(Space),,,,silence,,,,----- -- ---- --- -- --- -------- ------------ ---------- --<br>- ------- ------ --------- -- ------------ -- --- been -----<br>------ ---- ---- ------ ------ ------- --- ----- ---------<br>---- --- -------- -------- --- --- -- ------- --- --- -----<br>-- --- ------ ------- --- --- -------- ---- --------- --<br>---------- -- -------- ----------------,271398.82500004023,271398.3850001823,271109.299,271110.7950001024,271126.009,271409.363,,18,been
screen,html.Screen,1_3_0_1_19,2021-03-27T19:32:12.445Z,,,,,,,,,,,,,,,,11,,,,,,,,,,,,,,660.7320000900654,response,,,,4,D,,,,,Space,keypress(Space),,,,silence,,,,----- -- ---- --- -- --- -------- ------------ ---------- --<br>- ------- ------ --------- -- ------------ -- --- ---- found<br>------ ---- ---- ------ ------ ------- --- ----- ---------<br>---- --- -------- -------- --- --- -- ------- --- --- -----<br>-- --- ------ ------- --- --- -------- ---- --------- --<br>---------- -- -------- ----------------,272070.5400002189,272070.0950000901,271392.675,271398.88500003144,271409.363,272076.074,,19,found
screen,html.Screen,1_3_0_1_20,2021-03-27T19:32:12.957Z,,,,,,,,,,,,,,,,11,,,,,,,,,,,,,,506.28600011672825,response,,,,4,D,,,,,Space,keypress(Space),,,,silence,,,,----- -- ---- --- -- --- -------- ------------ ---------- --<br>- ------- ------ --------- -- ------------ -- --- ---- -----<br>carved ---- ---- ------ ------ ------- --- ----- ---------<br>---- --- -------- -------- --- --- -- ------- --- --- -----<br>-- --- ------ ------- --- --- -------- ---- --------- --<br>---------- -- -------- ----------------,272582.80500001274,272582.36000011675,272059.385,272070.6700000446,272076.074,272592.795,,20,carved
screen,html.Screen,1_3_0_1_21,2021-03-27T19:32:13.349Z,,,,,,,,,,,,,,,,11,,,,,,,,,,,,,,381.4300000126823,response,,,,4,D,,,,,Space,keypress(Space),,,,silence,,,,----- -- ---- --- -- --- -------- ------------ ---------- --<br>- ------- ------ --------- -- ------------ -- --- ---- -----<br>------ into ---- ------ ------ ------- --- ----- ---------<br>---- --- -------- -------- --- --- -- ------- --- --- -----<br>-- --- ------ ------- --- --- -------- ---- --------- --<br>---------- -- -------- ----------------,272974.6400001459,272974.22500001267,272576.079,272582.86500000395,272592.795,272993.195,,21,into
screen,html.Screen,1_3_0_1_22,2021-03-27T19:32:13.710Z,,,,,,,,,,,,,,,,11,,,,,,,,,,,,,,341.9250001779874,response,,,,4,D,,,,,Space,keypress(Space),,,,silence,,,,----- -- ---- --- -- --- -------- ------------ ---------- --<br>- ------- ------ --------- -- ------------ -- --- ---- -----<br>------ ---- many ------ ------ ------- --- ----- ---------<br>---- --- -------- -------- --- --- -- ------- --- --- -----<br>-- --- ------ ------- --- --- -------- ---- --------- --<br>---------- -- -------- ----------------,273335.5000000447,273335.120000178,272959.439,272974.77000020444,272993.195,273342.708,,22,many
screen,html.Screen,1_3_0_1_23,2021-03-27T19:32:14.101Z,,,,,,,,,,,,,,,,11,,,,,,,,,,,,,,383.6920000432292,response,,,,4,D,,,,,Space,keypress(Space),,,,silence,,,,----- -- ---- --- -- --- -------- ------------ ---------- --<br>- ------- ------ --------- -- ------------ -- --- ---- -----<br>------ ---- ---- oblong ------ ------- --- ----- ---------<br>---- --- -------- -------- --- --- -- ------- --- --- -----<br>-- --- ------ ------- --- --- -------- ---- --------- --<br>---------- -- -------- ----------------,273726.84000013396,273726.4000000432,273326.108,273335.565000074,273342.708,273742.859,,23,oblong
screen,html.Screen,1_3_0_1_24,2021-03-27T19:32:15.469Z,,,,,,,,,,,,,,,,11,,,,,,,,,,,,,,1351.440999997023,response,,,,4,D,,,,,Space,keypress(Space),,,,silence,,,,----- -- ---- --- -- --- -------- ------------ ---------- --<br>- ------- ------ --------- -- ------------ -- --- ---- -----<br>------ ---- ---- ------ wooden ------- --- ----- ---------<br>---- --- -------- -------- --- --- -- ------- --- --- -----<br>-- --- ------ ------- --- --- -------- ---- --------- --<br>---------- -- -------- ----------------,275094.79000000283,275094.299999997,273726.151,273726.9200000446,273742.859,275109.609,,24,wooden
screen,html.Screen,1_3_0_1_25,2021-03-27T19:32:15.916Z,,,,,,,,,,,,,,,,11,,,,,,,,,,,,,,431.78600018209545,response,,,,4,D,,,,,Space,keypress(Space),,,,silence,,,,----- -- ---- --- -- --- -------- ------------ ---------- --<br>- ------- ------ --------- -- ------------ -- --- ---- -----<br>------ ---- ---- ------ ------ tablets --- ----- ---------<br>---- --- -------- -------- --- --- -- ------- --- --- -----<br>-- --- ------ ------- --- --- -------- ---- --------- --<br>---------- -- -------- ----------------,275541.6750002187,275541.3950001821,275092.844,275094.8600000702,275109.609,275560.415,,25,tablets
screen,html.Screen,1_3_0_1_26,2021-03-27T19:32:16.453Z,,,,,,,,,,,,,,,,11,,,,,,,,,,,,,,517.9050000878633,response,,,,4,D,,,,,Space,keypress(Space),,,,silence,,,,----- -- ---- --- -- --- -------- ------------ ---------- --<br>- ------- ------ --------- -- ------------ -- --- ---- -----<br>------ ---- ---- ------ ------ ------- and ----- ---------<br>---- --- -------- -------- --- --- -- ------- --- --- -----<br>-- --- ------ ------- --- --- -------- ---- --------- --<br>---------- -- -------- ----------------,276078.7450000644,276078.32000008784,275526.2,275541.7600001674,275560.415,276093.011,,26,and
screen,html.Screen,1_3_0_1_27,2021-03-27T19:32:16.933Z,,,,,,,,,,,,,,,,11,,,,,,,,,,,,,,465.0940000619157,response,,,,4,D,,,,,Space,keypress(Space),,,,silence,,,,----- -- ---- --- -- --- -------- ------------ ---------- --<br>- ------- ------ --------- -- ------------ -- --- ---- -----<br>------ ---- ---- ------ ------ ------- --- other ---------<br>---- --- -------- -------- --- --- -- ------- --- --- -----<br>-- --- ------ ------- --- --- -------- ---- --------- --<br>---------- -- -------- ----------------,276558.6750002112,276558.1050000619,276076.282,276078.8050000556,276093.011,276576.595,,27,other
screen,html.Screen,1_3_0_1_28,2021-03-27T19:32:17.525Z,,,,,,,,,,,,,,,,11,,,,,,,,,,,,,,573.5300001602154,response,,,,4,D,,,,,Space,keypress(Space),,,,silence,,,,----- -- ---- --- -- --- -------- ------------ ---------- --<br>- ------- ------ --------- -- ------------ -- --- ---- -----<br>------ ---- ---- ------ ------ ------- --- ----- artifacts<br>---- --- -------- -------- --- --- -- ------- --- --- -----<br>-- --- ------ ------- --- --- -------- ---- --------- --<br>---------- -- -------- ----------------,277150.4950001836,277150.1250001602,276542.924,276558.7550001219,276576.595,277159.74,,28,artifacts
screen,html.Screen,1_3_0_1_29,2021-03-27T19:32:17.973Z,,,,,,,,,,,,,,,,11,,,,,,,,,,,,,,438.45000004791655,response,,,,4,D,,,,,Space,keypress(Space),,,,silence,,,,----- -- ---- --- -- --- -------- ------------ ---------- --<br>- ------- ------ --------- -- ------------ -- --- ---- -----<br>------ ---- ---- ------ ------ ------- --- ----- ---------<br>from --- -------- -------- --- --- -- ------- --- --- -----<br>-- --- ------ ------- --- --- -------- ---- --------- --<br>---------- -- -------- ----------------,277598.6250001006,277598.1900000479,277143.026,277150.56000021286,277159.74,277609.769,,29,from
screen,html.Screen,1_3_0_1_30,2021-03-27T19:32:18.381Z,,,,,,,,,,,,,,,,11,,,,,,,,,,,,,,396.3360001532128,response,,,,4,D,,,,,Space,keypress(Space),,,,silence,,,,----- -- ---- --- -- --- -------- ------------ ---------- --<br>- ------- ------ --------- -- ------------ -- --- ---- -----<br>------ ---- ---- ------ ------ ------- --- ----- ---------<br>---- the -------- -------- --- --- -- ------- --- --- -----<br>-- --- ------ ------- --- --- -------- ---- --------- --<br>---------- -- -------- ----------------,278006.57000020146,278006.1050001532,277593.056,277598.6850000918,277609.769,278009.694,,30,the
screen,html.Screen,1_3_0_1_31,2021-03-27T19:32:18.862Z,,,,,,,,,,,,,,,,11,,,,,,,,,,,,,,476.96100013155956,response,,,,4,D,,,,,Space,keypress(Space),,,,silence,,,,----- -- ---- --- -- --- -------- ------------ ---------- --<br>- ------- ------ --------- -- ------------ -- --- ---- -----<br>------ ---- ---- ------ ------ ------- --- ----- ---------<br>---- --- island's -------- --- --- -- ------- --- --- -----<br>-- --- ------ ------- --- --- -------- ---- --------- --<br>---------- -- -------- ----------------,278487.3099999968,278486.6550001316,277993.091,278006.6349999979,278009.694,278493.147,,31,island's
screen,html.Screen,1_3_0_1_32,2021-03-27T19:32:19.349Z,,,,,,,,,,,,,,,,11,,,,,,,,,,,,,,481.2730001005111,response,,,,4,D,,,,,Space,keypress(Space),,,,silence,,,,----- -- ---- --- -- --- -------- ------------ ---------- --<br>- ------- ------ --------- -- ------------ -- --- ---- -----<br>------ ---- ---- ------ ------ ------- --- ----- ---------<br>---- --- -------- history. --- --- -- ------- --- --- -----<br>-- --- ------ ------- --- --- -------- ---- --------- --<br>---------- -- -------- ----------------,278974.84000003897,278974.4200001005,278476.451,278487.4150000978,278493.147,278976.478,,32,history.
screen,html.Screen,1_3_0_1_33,2021-03-27T19:32:19.726Z,,,,,,,,,,,,,,,,11,,,,,,,,,,,,,,374.3270001691999,response,,,,4,D,,,,,Space,keypress(Space),,,,silence,,,,----- -- ---- --- -- --- -------- ------------ ---------- --<br>- ------- ------ --------- -- ------------ -- --- ---- -----<br>------ ---- ---- ------ ------ ------- --- ----- ---------<br>---- --- -------- -------- The --- -- ------- --- --- -----<br>-- --- ------ ------- --- --- -------- ---- --------- --<br>---------- -- -------- ----------------,279351.295000175,279350.8050001692,278959.813,278974.9100001063,278976.478,279359.876,,33,The
screen,html.Screen,1_3_0_1_34,2021-03-27T19:32:20.174Z,,,,,,,,,,,,,,,,11,,,,,,,,,,,,,,438.9190001843381,response,,,,4,D,,,,,Space,keypress(Space),,,,silence,,,,----- -- ---- --- -- --- -------- ------------ ---------- --<br>- ------- ------ --------- -- ------------ -- --- ---- -----<br>------ ---- ---- ------ ------ ------- --- ----- ---------<br>---- --- -------- -------- --- art -- ------- --- --- -----<br>-- --- ------ ------- --- --- -------- ---- --------- --<br>---------- -- -------- ----------------,279799.31000014767,279798.7950001843,279343.152,279351.3550001662,279359.876,279809.898,,34,art
screen,html.Screen,1_3_0_1_35,2021-03-27T19:32:20.542Z,,,,,,,,,,,,,,,,11,,,,,,,,,,,,,,356.5620002113865,response,,,,4,D,,,,,Space,keypress(Space),,,,silence,,,,----- -- ---- --- -- --- -------- ------------ ---------- --<br>- ------- ------ --------- -- ------------ -- --- ---- -----<br>------ ---- ---- ------ ------ ------- --- ----- ---------<br>---- --- -------- -------- --- --- of ------- --- --- -----<br>-- --- ------ ------- --- --- -------- ---- --------- --<br>---------- -- -------- ----------------,280167.04500000924,280166.4600002114,279793.192,279799.37500017695,279809.898,280176.589,,35,of
screen,html.Screen,1_3_0_1_36,2021-03-27T19:32:20.909Z,,,,,,,,,,,,,,,,11,,,,,,,,,,,,,,357.83600019448204,response,,,,4,D,,,,,Space,keypress(Space),,,,silence,,,,----- -- ---- --- -- --- -------- ------------ ---------- --<br>- ------- ------ --------- -- ------------ -- --- ---- -----<br>------ ---- ---- ------ ------ ------- --- ----- ---------<br>---- --- -------- -------- --- --- -- writing --- --- -----<br>-- --- ------ ------- --- --- -------- ---- --------- --<br>---------- -- -------- ----------------,280534.8750001285,280534.42500019446,280159.895,280167.12500015274,280176.589,280543.232,,36,writing
screen,html.Screen,1_3_0_1_37,2021-03-27T19:32:21.285Z,,,,,,,,,,,,,,,,11,,,,,,,,,,,,,,367.2679999981192,response,,,,4,D,,,,,Space,keypress(Space),,,,silence,,,,----- -- ---- --- -- --- -------- ------------ ---------- --<br>- ------- ------ --------- -- ------------ -- --- ---- -----<br>------ ---- ---- ------ ------ ------- --- ----- ---------<br>---- --- -------- -------- --- --- -- ------- was --- -----<br>-- --- ------ ------- --- --- -------- ---- --------- --<br>---------- -- -------- ----------------,280910.9650000464,280910.49999999814,280526.564,280534.93500011973,280543.232,280926.641,,37,was
screen,html.Screen,1_3_0_1_38,2021-03-27T19:32:21.669Z,,,,,,,,,,,,,,,,11,,,,,,,,,,,,,,367.15400006325217,response,,,,4,D,,,,,Space,keypress(Space),,,,silence,,,,----- -- ---- --- -- --- -------- ------------ ---------- --<br>- ------- ------ --------- -- ------------ -- --- ---- -----<br>------ ---- ---- ------ ------ ------- --- ----- ---------<br>---- --- -------- -------- --- --- -- ------- --- not -----<br>-- --- ------ ------- --- --- -------- ---- --------- --<br>---------- -- -------- ----------------,281294.18000020087,281293.79500006326,280909.841,280911.0900000669,280926.641,281310.016,,38,not
screen,html.Screen,1_3_0_1_39,2021-03-27T19:32:22.070Z,,,,,,,,,,,,,,,,11,,,,,,,,,,,,,,384.51400021166774,response,,,,4,D,,,,,Space,keypress(Space),,,,silence,,,,----- -- ---- --- -- --- -------- ------------ ---------- --<br>- ------- ------ --------- -- ------------ -- --- ---- -----<br>------ ---- ---- ------ ------ ------- --- ----- ---------<br>---- --- -------- -------- --- --- -- ------- --- --- known<br>-- --- ------ ------- --- --- -------- ---- --------- --<br>---------- -- -------- ----------------,281695.0300000608,281694.5300002117,281293.209,281294.2449999973,281310.016,281710.034,,39,known
