sender,sender_type,sender_id,timestamp,meta,,Blues,Classical,Country,Dance,Electronic,Folk,Gospel,Hip-Hop,Jazz,Latin,Musical/Film,New-age,Pop,Provo_ID,R&B,Rap,Reggae,Religious,Rock,Soul,Swing,Traditional,age,artist_name,correct,correctResponse,distraction,duration,education,ended_on,familiarity,gender,headphone_check_performance,item,list,music_frequency,offensiveness,pleasantness,position_correct,preference,response,response_action,snippet_file,song_name,song_rating,sound,stimulus_1,stimulus_2,stimulus_3,text,time_commit,time_end,time_render,time_run,time_show,time_switch,url,word,word_ID
Introduction,html.Screen,0_0,2021-04-12T10:38:09.401Z,"{""labjs_version"":""20.2.2"",""labjs_build"":{""flavor"":""production"",""commit"":""a25486e0c714a0ae2ce03ff94b7bb6896854dcfa""},""location"":""https://run.pavlovia.org/mvasilev/music_a/"",""userAgent"":""Mozilla/5.0 (Windows NT 10.0; Win64; x64) AppleWebKit/537.36 (KHTML, like Gecko) Chrome/89.0.4389.90 Safari/537.36"",""platform"":""Win32"",""language"":""en-US"",""locale"":""en-US"",""timeZone"":""Europe/London"",""timezoneOffset"":-60,""screen_width"":1280,""screen_height"":720,""scroll_width"":1280,""scroll_height"":578,""window_innerWidth"":1280,""window_innerHeight"":578,""devicePixelRatio"":1.5}",,,,,,,,,,,,,,,,,,,,,,,,,,,,,4589.307000132769,,response,,,,,,,,,,,continue,click button,,,,,,,,,25479.46500009857,25473.93500013277,20851.608,20863.110000034794,20884.628,25496.94,{},,
Volume calibration,html.Screen,0_1,2021-04-12T10:38:30.208Z,,,,,,,,,,,,,,,,,,,,,,,,,,,,,,20786.289999942706,,response,,,,,,,,,,,continue,click button,,,,,,,,,46286.90499998629,46283.229999942705,25463.676,25479.934999952093,25496.94,46294.067,,,
Task instructions,html.Screen,0_2,2021-04-12T10:38:37.415Z,,,,,,,,,,,,,,,,,,,,,,,,,,,,,,7198.832999953804,,response,,,,,,,,,,,continue,click button,,,,,,,,,53494.230000069365,53492.89999995381,46277.574,46287.080000154674,46294.067,53504.046,,,
Sounds,html.Screen,0_3_0_0,2021-04-12T10:38:41.660Z,,,,,,,,,,,,,,,,,,,,,,,,,,,,,,4262.718999999997,,timeout,,,,,,,,,1,,,,,,,,S,I,O,,57739.36500004493,57733.461,53487.401,53494.635000126436,53504.046,57766.765,,,
Judgement,html.Screen,0_3_0_1,2021-04-12T10:38:42.624Z,,,,,,,,,,,,,,,,,,,,,,,,,,,true,1,,934.8849999444938,,response,,,,,,,,,1,,1,click #choice-1,,,,,S,I,O,,58702.86500011571,58701.64999994449,57733.461,57739.805000135675,57766.765,58715.848,,,
Trial,flow.Sequence,0_3_0,2021-04-12T10:38:42.624Z,,,,,,,,,,,,,,,,,,,,,,,,,,,,,,5197.603999944491,,completion,,,,,,,,,1,,,,,,,,S,I,O,,58703.25500005856,58701.64999994449,53487.401,53494.56000002101,53504.046,58715.848,,,
Sounds,html.Screen,0_3_1_0,2021-04-12T10:38:46.868Z,,,,,,,,,,,,,,,,,,,,,,,,,,,,,,4245.909,,timeout,,,,,,,,,2,,,,,,,,O,S,I,,62946.56000006944,62945.138,58699.276,58703.47000006586,58715.848,62961.757,,,
Judgement,html.Screen,0_3_1_1,2021-04-12T10:38:47.339Z,,,,,,,,,,,,,,,,,,,,,,,,,,,true,2,,454.9080001425318,,response,,,,,,,,,2,,2,click #choice-2,,,,,O,S,I,,63417.57000004873,63416.66500014253,62945.138,62946.870000101626,62961.757,63428.109,,,
Trial,flow.Sequence,0_3_1,2021-04-12T10:38:47.339Z,,,,,,,,,,,,,,,,,,,,,,,,,,,,,,4700.8170001425315,,completion,,,,,,,,,2,,,,,,,,O,S,I,,63417.88000008091,63416.66500014253,58699.276,58703.410000074655,58715.848,63428.109,,,
Sounds,html.Screen,0_3_2_0,2021-04-12T10:38:51.581Z,,,,,,,,,,,,,,,,,,,,,,,,,,,,,,4245.945000000007,,timeout,,,,,,,,,3,,,,,,,,O,I,S,,67659.72999995574,67657.489,63411.44,63418.09000005014,63428.109,67674.054,,,
Judgement,html.Screen,0_3_2_1,2021-04-12T10:38:52.103Z,,,,,,,,,,,,,,,,,,,,,,,,,,,true,3,,507.2160000591539,,response,,,,,,,,,3,,3,click #choice-3,,,,,O,I,S,,68182.41000012495,68181.27000005916,67657.489,67660.05500010215,67674.054,68190.16,,,
Trial,flow.Sequence,0_3_2,2021-04-12T10:38:52.104Z,,,,,,,,,,,,,,,,,,,,,,,,,,,,,,4753.161000059161,,completion,,,,,,,,,3,,,,,,,,O,I,S,,68182.62500013225,68181.27000005916,63411.44,63418.03500009701,63428.109,68190.16,,,
Sounds,html.Screen,0_3_3_0,2021-04-12T10:38:56.342Z,,,,,,,,,,,,,,,,,,,,,,,,,,,,,,4246.202999999994,,timeout,,,,,,,,,2,,,,,,,,I,S,O,,72420.83499999717,72419.561,68173.544,68182.78000014834,68190.16,72436.363,,,
Judgement,html.Screen,0_3_3_1,2021-04-12T10:38:56.841Z,,,,,,,,,,,,,,,,,,,,,,,,,,,true,2,,482.29699996662384,,response,,,,,,,,,2,,2,click #choice-2,,,,,I,S,O,,72919.76499999873,72918.65999996662,72419.561,72421.12000007182,72436.363,72935.778,,,
Trial,flow.Sequence,0_3_3,2021-04-12T10:38:56.841Z,,,,,,,,,,,,,,,,,,,,,,,,,,,,,,4728.499999966618,,completion,,,,,,,,,2,,,,,,,,I,S,O,,72920.12000014074,72918.65999996662,68173.544,68182.73500003852,68190.16,72935.778,,,
Sounds,html.Screen,0_3_4_0,2021-04-12T10:39:01.088Z,,,,,,,,,,,,,,,,,,,,,,,,,,,,,,4245.917999999991,,timeout,,,,,,,,,3,,,,,,,,I,O,S,,77166.75500012934,77165.173,72919.103,72920.27500015683,72935.778,77181.696,,,
Judgement,html.Screen,0_3_4_1,2021-04-12T10:39:01.498Z,,,,,,,,,,,,,,,,,,,,,,,,,,,true,3,,394.6990000982769,,response,,,,,,,,,3,,3,click #choice-3,,,,,I,O,S,,77577.3549999576,77576.39500009827,77165.173,77167.03500016592,77181.696,77581.359,,,
Trial,flow.Sequence,0_3_4,2021-04-12T10:39:01.499Z,,,,,,,,,,,,,,,,,,,,,,,,,,,,,,4640.617000098267,,completion,,,,,,,,,3,,,,,,,,I,O,S,,77577.7549999766,77576.39500009827,72919.103,72920.23000004701,72935.778,77581.359,,,
Sounds,html.Screen,0_3_5_0,2021-04-12T10:39:05.735Z,,,,,,,,,,,,,,,,,,,,,,,,,,,,,,4246.229000000007,,timeout,,,,,,,,,1,,,,,,,,S,O,I,,81812.46000016108,81810.738,77564.77,77577.91500003077,77581.359,81827.588,,,
Judgement,html.Screen,0_3_5_1,2021-04-12T10:39:06.238Z,,,,,,,,,,,,,,,,,,,,,,,,,,,true,1,,486.69700008768996,,response,,,,,,,,,1,,1,click #choice-1,,,,,S,O,I,,82315.35000004806,82314.2850000877,81810.738,81812.73500015959,81827.588,82326.822,,,
Trial,flow.Sequence,0_3_5,2021-04-12T10:39:06.238Z,,,,,,,,,,,,,,,,,,,,,,,,,,,,,,4732.926000087697,,completion,,,,,,,,,1,,,,,,,,S,O,I,,82315.5750001315,82314.2850000877,77564.77,77577.87000015378,77581.359,82326.822,,,
Task,flow.Loop,0_3,2021-04-12T10:39:06.244Z,,,,,,,,,,,,,,,,,,,,,,,,,,,,,,28810.23900008769,,completion,,,1,,,,,,,,,,,,,,,,,,82321.34000002407,82314.2850000877,53487.401,53494.4700000342,53504.046,82326.822,,,
Trap,html.Screen,0_4,2021-04-12T10:39:06.245Z,,,,,,,,,,,,,,,,,,,,,,,,,,,,,,NaN,,skipped,,,,,,,,,,,,,,,,,,,,,82322.9650000576,82314.2850000877,,82322.82000011764,,82326.822,,,
Thanks,html.Screen,0_5,2021-04-12T10:39:09.116Z,,,,,,,,,,,,,,,,,,,,,,,,,,,,,,2865.897999933615,,response,,,,,,,,,,,continue,click button,,,,,,,,,85193.60500015318,85192.71999993362,82310.256,82323.09500011615,82326.822,88954.025,,,
Headphone screening,flow.Sequence,0,2021-04-12T10:39:09.116Z,,,,,,,,,,,,,,,,,,,,,,,,,,,,,,64308.09199993362,,completion,,,,,,,,,,,,,,,,,,,,,85193.84000007994,85192.71999993362,20851.608,20863.075000001118,20884.628,88954.025,,,
Instructions,html.Page,1_0,2021-04-12T10:39:28.471Z,,,,,,,,,,,,,,,,,,,,,,,,,,,,,,15594.309999941295,,form submission,,,,,,,,,,,,,,,,,,,,,104548.59500005841,104548.33499994129,88920.725,88949.6550001204,88954.025,104555.907,,,
Holding screen,html.Screen,1_1_0_0,2021-04-12T10:39:38.470Z,,,,,,,,,,,,,,,,,,,,,,,,,,,,,,10107.25499999999,,timeout,,,,,,,,,,,,,,,,,,,,,114547.76500002481,114546.639,104539.477,104548.84000006132,104555.907,114663.162,,,
screen,html.Screen,1_1_0_1_0,2021-04-12T10:39:39.842Z,,,,,,,,,,,,,,,,53,,,,,,,,,,,,,,1250.8730001398508,,response,,,,99,,,,,,,Space,keypress(Space),,,,,,,,When -- ----- -- ------ - ------- --- ----------<br>------------- ------ ------ ---- ---- ------- ----- -- ----<br>-------- ------- -- ---------- --- - --- ----- ----- ----<br>---- --- --- ----- --- ---- ---- ------- ----- ---- -------<br>--- --- -- ----- -- --- ---- -- --- ---- -- ------ ------<br>--- ----- -- ----,115919.90000009537,115914.03500013985,114546.639,114548.27000014484,114663.162,115928.593,,0,When
screen,html.Screen,1_1_0_1_1,2021-04-12T10:39:40.175Z,,,,,,,,,,,,,,,,53,,,,,,,,,,,,,,322.7620000730967,,response,,,,99,,,,,,,Space,keypress(Space),,,,,,,,---- it ----- -- ------ - ------- --- ----------<br>------------- ------ ------ ---- ---- ------- ----- -- ----<br>-------- ------- -- ---------- --- - --- ----- ----- ----<br>---- --- --- ----- --- ---- ---- ------- ----- ---- -------<br>--- --- -- ----- -- --- ---- -- --- ---- -- ------ ------<br>--- ----- -- ----,116252.6750001125,116251.35500007309,115912.178,115920.03499995917,115928.593,116261.745,,1,it
screen,html.Screen,1_1_0_1_2,2021-04-12T10:39:40.571Z,,,,,,,,,,,,,,,,53,,,,,,,,,,,,,,386.0150000798749,,response,,,,99,,,,,,,Space,keypress(Space),,,,,,,,---- -- comes -- ------ - ------- --- ----------<br>------------- ------ ------ ---- ---- ------- ----- -- ----<br>-------- ------- -- ---------- --- - --- ----- ----- ----<br>---- --- --- ----- --- ---- ---- ------- ----- ---- -------<br>--- --- -- ----- -- --- ---- -- --- ---- -- ------ ------<br>--- ----- -- ----,116649.02000012808,116647.76000007987,116245.12,116253.0150001403,116261.745,116661.29,,2,comes
screen,html.Screen,1_1_0_1_3,2021-04-12T10:39:40.952Z,,,,,,,,,,,,,,,,53,,,,,,,,,,,,,,367.71000009686395,,response,,,,99,,,,,,,Space,keypress(Space),,,,,,,,---- -- ----- to ------ - ------- --- ----------<br>------------- ------ ------ ---- ---- ------- ----- -- ----<br>-------- ------- -- ---------- --- - --- ----- ----- ----<br>---- --- --- ----- --- ---- ---- ------- ----- ---- -------<br>--- --- -- ----- -- --- ---- -- --- ---- -- ------ ------<br>--- ----- -- ----,117029.9150000792,117029.00000009686,116644.769,116649.31000000797,116661.29,117044.42,,3,to
screen,html.Screen,1_1_0_1_4,2021-04-12T10:39:41.322Z,,,,,,,,,,,,,,,,53,,,,,,,,,,,,,,355.0450000240671,,response,,,,99,,,,,,,Space,keypress(Space),,,,,,,,---- -- ----- -- having - ------- --- ----------<br>------------- ------ ------ ---- ---- ------- ----- -- ----<br>-------- ------- -- ---------- --- - --- ----- ----- ----<br>---- --- --- ----- --- ---- ---- ------- ----- ---- -------<br>--- --- -- ----- -- --- ---- -- --- ---- -- ------ ------<br>--- ----- -- ----,117400.11500008404,117399.46500002407,117027.73,117030.20000015385,117044.42,117410.68,,4,having
screen,html.Screen,1_1_0_1_5,2021-04-12T10:39:41.689Z,,,,,,,,,,,,,,,,53,,,,,,,,,,,,,,354.6049999722163,,response,,,,99,,,,,,,Space,keypress(Space),,,,,,,,---- -- ----- -- ------ a ------- --- ----------<br>------------- ------ ------ ---- ---- ------- ----- -- ----<br>-------- ------- -- ---------- --- - --- ----- ----- ----<br>---- --- --- ----- --- ---- ---- ------- ----- ---- -------<br>--- --- -- ----- -- --- ---- -- --- ---- -- ------ ------<br>--- ----- -- ----,117766.43500011414,117765.28499997221,117394.121,117400.23000002839,117410.68,117776.875,,5,a
screen,html.Screen,1_1_0_1_6,2021-04-12T10:39:42.058Z,,,,,,,,,,,,,,,,53,,,,,,,,,,,,,,358.17500015720725,,response,,,,99,,,,,,,Space,keypress(Space),,,,,,,,---- -- ----- -- ------ - lasting --- ----------<br>------------- ------ ------ ---- ---- ------- ----- -- ----<br>-------- ------- -- ---------- --- - --- ----- ----- ----<br>---- --- --- ----- --- ---- ---- ------- ----- ---- -------<br>--- --- -- ----- -- --- ---- -- --- ---- -- ------ ------<br>--- ----- -- ----,118136.06499996968,118135.0500001572,117760.426,117766.76000002772,117776.875,118143.231,,6,lasting
screen,html.Screen,1_1_0_1_7,2021-04-12T10:39:42.433Z,,,,,,,,,,,,,,,,53,,,,,,,,,,,,,,366.3689999903145,,response,,,,99,,,,,,,Space,keypress(Space),,,,,,,,---- -- ----- -- ------ - ------- and ----------<br>------------- ------ ------ ---- ---- ------- ----- -- ----<br>-------- ------- -- ---------- --- - --- ----- ----- ----<br>---- --- --- ----- --- ---- ---- ------- ----- ---- -------<br>--- --- -- ----- -- --- ---- -- --- ---- -- ------ ------<br>--- ----- -- ----,118510.6800000649,118509.59999999031,118126.714,118136.35000004433,118143.231,118526.394,,7,and
screen,html.Screen,1_1_0_1_8,2021-04-12T10:39:42.843Z,,,,,,,,,,,,,,,,53,,,,,,,,,,,,,,392.9210000646708,,response,,,,99,,,,,,,Space,keypress(Space),,,,,,,,---- -- ----- -- ------ - ------- --- fulfilling<br>------------- ------ ------ ---- ---- ------- ----- -- ----<br>-------- ------- -- ---------- --- - --- ----- ----- ----<br>---- --- --- ----- --- ---- ---- ------- ----- ---- -------<br>--- --- -- ----- -- --- ---- -- --- ---- -- ------ ------<br>--- ----- -- ----,118920.37499998696,118919.31500006467,118509.665,118510.98000002094,118526.394,118925.793,,8,fulfilling
screen,html.Screen,1_1_0_1_9,2021-04-12T10:39:43.324Z,,,,,,,,,,,,,,,,53,,,,,,,,,,,,,,474.74200002249563,,response,,,,99,,,,,,,Space,keypress(Space),,,,,,,,"---- -- ----- -- ------ - ------- --- ----------<br>relationship, ------ ------ ---- ---- ------- ----- -- ----<br>-------- ------- -- ---------- --- - --- ----- ----- ----<br>---- --- --- ----- --- ---- ---- ------- ----- ---- -------<br>--- --- -- ----- -- --- ---- -- --- ---- -- ------ ------<br>--- ----- -- ----",119401.18500008248,119400.5350000225,118909.304,118920.7049999386,118925.793,119408.774,,9,"relationship,"
screen,html.Screen,1_1_0_1_10,2021-04-12T10:39:43.701Z,,,,,,,,,,,,,,,,53,,,,,,,,,,,,,,368.3960001321684,,response,,,,99,,,,,,,Space,keypress(Space),,,,,,,,---- -- ----- -- ------ - ------- --- ----------<br>------------- common ------ ---- ---- ------- ----- -- ----<br>-------- ------- -- ---------- --- - --- ----- ----- ----<br>---- --- --- ----- --- ---- ---- ------- ----- ---- -------<br>--- --- -- ----- -- --- ---- -- --- ---- -- ------ ------<br>--- ----- -- ----,119778.20500009693,119777.17000013217,119392.101,119401.34999994189,119408.774,119791.877,,10,common
screen,html.Screen,1_1_0_1_11,2021-04-12T10:39:44.055Z,,,,,,,,,,,,,,,,53,,,,,,,,,,,,,,339.54299999061914,,response,,,,99,,,,,,,Space,keypress(Space),,,,,,,,---- -- ----- -- ------ - ------- --- ----------<br>------------- ------ wisdom ---- ---- ------- ----- -- ----<br>-------- ------- -- ---------- --- - --- ----- ----- ----<br>---- --- --- ----- --- ---- ---- ------- ----- ---- -------<br>--- --- -- ----- -- --- ---- -- --- ---- -- ------ ------<br>--- ----- -- ----,120132.19500007108,120131.41999999061,119775.143,119778.48500013351,119791.877,120141.37,,11,wisdom
screen,html.Screen,1_1_0_1_12,2021-04-12T10:39:44.410Z,,,,,,,,,,,,,,,,53,,,,,,,,,,,,,,345.7300000275718,,response,,,,99,,,,,,,Space,keypress(Space),,,,,,,,---- -- ----- -- ------ - ------- --- ----------<br>------------- ------ ------ says ---- ------- ----- -- ----<br>-------- ------- -- ---------- --- - --- ----- ----- ----<br>---- --- --- ----- --- ---- ---- ------- ----- ---- -------<br>--- --- -- ----- -- --- ---- -- --- ---- -- ------ ------<br>--- ----- -- ----,120488.12000011094,120487.10000002757,120124.804,120132.40000000224,120141.37,120490.927,,12,says
screen,html.Screen,1_1_0_1_13,2021-04-12T10:39:44.754Z,,,,,,,,,,,,,,,,53,,,,,,,,,,,,,,339.9980001329968,,response,,,,99,,,,,,,Space,keypress(Space),,,,,,,,---- -- ----- -- ------ - ------- --- ----------<br>------------- ------ ------ ---- that ------- ----- -- ----<br>-------- ------- -- ---------- --- - --- ----- ----- ----<br>---- --- --- ----- --- ---- ---- ------- ----- ---- -------<br>--- --- -- ----- -- --- ---- -- --- ---- -- ------ ------<br>--- ----- -- ----,120832.04000000842,120830.925000133,120474.491,120488.40999999084,120490.927,120840.798,,13,that
screen,html.Screen,1_1_0_1_14,2021-04-12T10:39:45.118Z,,,,,,,,,,,,,,,,53,,,,,,,,,,,,,,353.43200002280355,,response,,,,99,,,,,,,Space,keypress(Space),,,,,,,,---- -- ----- -- ------ - ------- --- ----------<br>------------- ------ ------ ---- ---- feeling ----- -- ----<br>-------- ------- -- ---------- --- - --- ----- ----- ----<br>---- --- --- ----- --- ---- ---- ------- ----- ---- -------<br>--- --- -- ----- -- --- ---- -- --- ---- -- ------ ------<br>--- ----- -- ----,121195.2450000681,121194.2300000228,120824.159,120832.38500007428,120840.798,121207.195,,14,feeling
screen,html.Screen,1_1_0_1_15,2021-04-12T10:39:45.439Z,,,,,,,,,,,,,,,,53,,,,,,,,,,,,,,308.6850000790437,,response,,,,99,,,,,,,Space,keypress(Space),,,,,,,,---- -- ----- -- ------ - ------- --- ----------<br>------------- ------ ------ ---- ---- ------- close -- ----<br>-------- ------- -- ---------- --- - --- ----- ----- ----<br>---- --- --- ----- --- ---- ---- ------- ----- ---- -------<br>--- --- -- ----- -- --- ---- -- --- ---- -- ------ ------<br>--- ----- -- ----,121516.80500013754,121515.88000007905,121190.484,121195.52500010468,121207.195,121523.361,,15,close
screen,html.Screen,1_1_0_1_16,2021-04-12T10:39:45.710Z,,,,,,,,,,,,,,,,53,,,,,,,,,,,,,,262.7640001005784,,response,,,,99,,,,,,,Space,keypress(Space),,,,,,,,---- -- ----- -- ------ - ------- --- ----------<br>------------- ------ ------ ---- ---- ------- ----- to ----<br>-------- ------- -- ---------- --- - --- ----- ----- ----<br>---- --- --- ----- --- ---- ---- ------- ----- ---- -------<br>--- --- -- ----- -- --- ---- -- --- ---- -- ------ ------<br>--- ----- -- ----,121787.20499994233,121786.12500010058,121506.824,121517.10500009358,121523.361,121789.789,,16,to
screen,html.Screen,1_1_0_1_17,2021-04-12T10:39:46.040Z,,,,,,,,,,,,,,,,53,,,,,,,,,,,,,,327.3759999450849,,response,,,,99,,,,,,,Space,keypress(Space),,,,,,,,---- -- ----- -- ------ - ------- --- ----------<br>------------- ------ ------ ---- ---- ------- ----- -- your<br>-------- ------- -- ---------- --- - --- ----- ----- ----<br>---- --- --- ----- --- ---- ---- ------- ----- ---- -------<br>--- --- -- ----- -- --- ---- -- --- ---- -- ------ ------<br>--- ----- -- ----,122118.15500003286,122117.16499994509,121773.3,121787.49000001699,121789.789,122122.763,,17,your
screen,html.Screen,1_1_0_1_18,2021-04-12T10:39:46.374Z,,,,,,,,,,,,,,,,53,,,,,,,,,,,,,,328.11200009685126,,response,,,,99,,,,,,,Space,keypress(Space),,,,,,,,---- -- ----- -- ------ - ------- --- ----------<br>------------- ------ ------ ---- ---- ------- ----- -- ----<br>romantic ------- -- ---------- --- - --- ----- ----- ----<br>---- --- --- ----- --- ---- ---- ------- ----- ---- -------<br>--- --- -- ----- -- --- ---- -- --- ---- -- ------ ------<br>--- ----- -- ----,122451.85500010848,122450.87500009686,122106.282,122118.44999995083,122122.763,122455.847,,18,romantic
screen,html.Screen,1_1_0_1_19,2021-04-12T10:39:46.666Z,,,,,,,,,,,,,,,,53,,,,,,,,,,,,,,287.3680000240711,,response,,,,99,,,,,,,Space,keypress(Space),,,,,,,,---- -- ----- -- ------ - ------- --- ----------<br>------------- ------ ------ ---- ---- ------- ----- -- ----<br>-------- partner -- ---------- --- - --- ----- ----- ----<br>---- --- --- ----- --- ---- ---- ------- ----- ---- -------<br>--- --- -- ----- -- --- ---- -- --- ---- -- ------ ------<br>--- ----- -- ----,122744.16500004008,122743.21500002407,122439.341,122452.16999994591,122455.847,122755.747,,19,partner
screen,html.Screen,1_1_0_1_20,2021-04-12T10:39:46.965Z,,,,,,,,,,,,,,,,53,,,,,,,,,,,,,,285.53300000491436,,response,,,,99,,,,,,,Space,keypress(Space),,,,,,,,---- -- ----- -- ------ - ------- --- ----------<br>------------- ------ ------ ---- ---- ------- ----- -- ----<br>-------- ------- is ---------- --- - --- ----- ----- ----<br>---- --- --- ----- --- ---- ---- ------- ----- ---- -------<br>--- --- -- ----- -- --- ---- -- --- ---- -- ------ ------<br>--- ----- -- ----,123042.21000010148,123041.28000000492,122739.021,122744.45000011474,122755.747,123055.471,,20,is
screen,html.Screen,1_1_0_1_21,2021-04-12T10:39:47.490Z,,,,,,,,,,,,,,,,53,,,,,,,,,,,,,,511.06900002890325,,response,,,,99,,,,,,,Space,keypress(Space),,,,,,,,---- -- ----- -- ------ - ------- --- ----------<br>------------- ------ ------ ---- ---- ------- ----- -- ----<br>-------- ------- -- paramount. --- - --- ----- ----- ----<br>---- --- --- ----- --- ---- ---- ------- ----- ---- -------<br>--- --- -- ----- -- --- ---- -- --- ---- -- ------ ------<br>--- ----- -- ----,123567.5250000786,123566.54000002891,123038.733,123042.48500009999,123055.471,123571.417,,21,paramount.
screen,html.Screen,1_1_0_1_22,2021-04-12T10:39:47.868Z,,,,,,,,,,,,,,,,53,,,,,,,,,,,,,,372.8730000140058,,response,,,,99,,,,,,,Space,keypress(Space),,,,,,,,---- -- ----- -- ------ - ------- --- ----------<br>------------- ------ ------ ---- ---- ------- ----- -- ----<br>-------- ------- -- ---------- But - --- ----- ----- ----<br>---- --- --- ----- --- ---- ---- ------- ----- ---- -------<br>--- --- -- ----- -- --- ---- -- --- ---- -- ------ ------<br>--- ----- -- ----,123945.25999994949,123944.290000014,123554.995,123567.80000007711,123571.417,123954.607,,22,But
screen,html.Screen,1_1_0_1_23,2021-04-12T10:39:48.205Z,,,,,,,,,,,,,,,,53,,,,,,,,,,,,,,326.7430000629538,,response,,,,99,,,,,,,Space,keypress(Space),,,,,,,,---- -- ----- -- ------ - ------- --- ----------<br>------------- ------ ------ ---- ---- ------- ----- -- ----<br>-------- ------- -- ---------- --- a --- ----- ----- ----<br>---- --- --- ----- --- ---- ---- ------- ----- ---- -------<br>--- --- -- ----- -- --- ---- -- --- ---- -- ------ ------<br>--- ----- -- ----,124282.40499994718,124281.35000006296,123937.899,123945.55500010028,123954.607,124287.435,,23,a
screen,html.Screen,1_1_0_1_24,2021-04-12T10:39:48.533Z,,,,,,,,,,,,,,,,53,,,,,,,,,,,,,,322.51000014931196,,response,,,,99,,,,,,,Space,keypress(Space),,,,,,,,---- -- ----- -- ------ - ------- --- ----------<br>------------- ------ ------ ---- ---- ------- ----- -- ----<br>-------- ------- -- ---------- --- - new ----- ----- ----<br>---- --- --- ----- --- ---- ---- ------- ----- ---- -------<br>--- --- -- ----- -- --- ---- -- --- ---- -- ------ ------<br>--- ----- -- ----,124610.95000011846,124609.94500014931,124270.799,124282.70000009798,124287.435,124620.591,,24,new
screen,html.Screen,1_1_0_1_25,2021-04-12T10:39:48.883Z,,,,,,,,,,,,,,,,53,,,,,,,,,,,,,,339.0689999349561,,response,,,,99,,,,,,,Space,keypress(Space),,,,,,,,---- -- ----- -- ------ - ------- --- ----------<br>------------- ------ ------ ---- ---- ------- ----- -- ----<br>-------- ------- -- ---------- --- - --- study ----- ----<br>---- --- --- ----- --- ---- ---- ------- ----- ---- -------<br>--- --- -- ----- -- --- ---- -- --- ---- -- ------ ------<br>--- ----- -- ----,124960.73499997146,124959.65999993496,124603.937,124611.23999999836,124620.591,124970.293,,25,study
screen,html.Screen,1_1_0_1_26,2021-04-12T10:39:49.211Z,,,,,,,,,,,,,,,,53,,,,,,,,,,,,,,317.2970000799396,,response,,,,99,,,,,,,Space,keypress(Space),,,,,,,,---- -- ----- -- ------ - ------- --- ----------<br>------------- ------ ------ ---- ---- ------- ----- -- ----<br>-------- ------- -- ---------- --- - --- ----- finds ----<br>---- --- --- ----- --- ---- ---- ------- ----- ---- -------<br>--- --- -- ----- -- --- ---- -- --- ---- -- ------ ------<br>--- ----- -- ----,125288.55499997735,125287.59000007994,124953.62,124960.9449999407,124970.293,125303.36,,26,finds
screen,html.Screen,1_1_0_1_27,2021-04-12T10:39:49.584Z,,,,,,,,,,,,,,,,53,,,,,,,,,,,,,,356.9249999908352,,response,,,,99,,,,,,,Space,keypress(Space),,,,,,,,---- -- ----- -- ------ - ------- --- ----------<br>------------- ------ ------ ---- ---- ------- ----- -- ----<br>-------- ------- -- ---------- --- - --- ----- ----- that<br>---- --- --- ----- --- ---- ---- ------- ----- ---- -------<br>--- --- -- ----- -- --- ---- -- --- ---- -- ------ ------<br>--- ----- -- ----,125661.28000011668,125660.28499999084,125286.68,125288.83500001393,125303.36,125669.544,,27,that
screen,html.Screen,1_1_0_1_28,2021-04-12T10:39:49.951Z,,,,,,,,,,,,,,,,53,,,,,,,,,,,,,,358.1660000530537,,response,,,,99,,,,,,,Space,keypress(Space),,,,,,,,---- -- ----- -- ------ - ------- --- ----------<br>------------- ------ ------ ---- ---- ------- ----- -- ----<br>-------- ------- -- ---------- --- - --- ----- ----- ----<br>it's --- --- ----- --- ---- ---- ------- ----- ---- -------<br>--- --- -- ----- -- --- ---- -- --- ---- -- ------ ------<br>--- ----- -- ----,126028.72000006028,126027.71000005305,125653.01,125661.57500003465,125669.544,126035.727,,28,it's
screen,html.Screen,1_1_0_1_29,2021-04-12T10:39:50.309Z,,,,,,,,,,,,,,,,53,,,,,,,,,,,,,,349.29300016160414,,response,,,,99,,,,,,,Space,keypress(Space),,,,,,,,---- -- ----- -- ------ - ------- --- ----------<br>------------- ------ ------ ---- ---- ------- ----- -- ----<br>-------- ------- -- ---------- --- - --- ----- ----- ----<br>---- not --- ----- --- ---- ---- ------- ----- ---- -------<br>--- --- -- ----- -- --- ---- -- --- ---- -- ------ ------<br>--- ----- -- ----,126386.47000002675,126385.0200001616,126019.31,126029.02500005439,126035.727,126402.257,,29,not
screen,html.Screen,1_1_0_1_30,2021-04-12T10:39:50.665Z,,,,,,,,,,,,,,,,53,,,,,,,,,,,,,,336.6130000010453,,response,,,,99,,,,,,,Space,keypress(Space),,,,,,,,---- -- ----- -- ------ - ------- --- ----------<br>------------- ------ ------ ---- ---- ------- ----- -- ----<br>-------- ------- -- ---------- --- - --- ----- ----- ----<br>---- --- how ----- --- ---- ---- ------- ----- ---- -------<br>--- --- -- ----- -- --- ---- -- --- ---- -- ------ ------<br>--- ----- -- ----,126742.80000012368,126738.87000000104,126385.602,126386.76499994472,126402.257,126751.842,,30,how
screen,html.Screen,1_1_0_1_31,2021-04-12T10:39:50.950Z,,,,,,,,,,,,,,,,53,,,,,,,,,,,,,,274.7330000253278,,response,,,,99,,,,,,,Space,keypress(Space),,,,,,,,---- -- ----- -- ------ - ------- --- ----------<br>------------- ------ ------ ---- ---- ------- ----- -- ----<br>-------- ------- -- ---------- --- - --- ----- ----- ----<br>---- --- --- close --- ---- ---- ------- ----- ---- -------<br>--- --- -- ----- -- --- ---- -- --- ---- -- ------ ------<br>--- ----- -- ----,127027.9350001365,127026.57500002533,126735.142,126743.09000000358,126751.842,127034.826,,31,close
screen,html.Screen,1_1_0_1_32,2021-04-12T10:39:51.235Z,,,,,,,,,,,,,,,,53,,,,,,,,,,,,,,277.1240000029793,,response,,,,99,,,,,,,Space,keypress(Space),,,,,,,,---- -- ----- -- ------ - ------- --- ----------<br>------------- ------ ------ ---- ---- ------- ----- -- ----<br>-------- ------- -- ---------- --- - --- ----- ----- ----<br>---- --- --- ----- you ---- ---- ------- ----- ---- -------<br>--- --- -- ----- -- --- ---- -- --- ---- -- ------ ------<br>--- ----- -- ----,127312.91999993846,127311.95000000298,127018.308,127028.19500002079,127034.826,127317.898,,32,you
screen,html.Screen,1_1_0_1_33,2021-04-12T10:39:51.707Z,,,,,,,,,,,,,,,,53,,,,,,,,,,,,,,464.9120000042458,,response,,,,99,,,,,,,Space,keypress(Space),,,,,,,,---- -- ----- -- ------ - ------- --- ----------<br>------------- ------ ------ ---- ---- ------- ----- -- ----<br>-------- ------- -- ---------- --- - --- ----- ----- ----<br>---- --- --- ----- --- feel ---- ------- ----- ---- -------<br>--- --- -- ----- -- --- ---- -- --- ---- -- ------ ------<br>--- ----- -- ----,127784.28000002168,127782.81000000425,127301.335,127313.18000005558,127317.898,127800.897,,33,feel
screen,html.Screen,1_1_0_1_34,2021-04-12T10:39:52.025Z,,,,,,,,,,,,,,,,53,,,,,,,,,,,,,,300.38300006079953,,response,,,,99,,,,,,,Space,keypress(Space),,,,,,,,---- -- ----- -- ------ - ------- --- ----------<br>------------- ------ ------ ---- ---- ------- ----- -- ----<br>-------- ------- -- ---------- --- - --- ----- ----- ----<br>---- --- --- ----- --- ---- that ------- ----- ---- -------<br>--- --- -- ----- -- --- ---- -- --- ---- -- ------ ------<br>--- ----- -- ----,128102.2950001061,128101.2800000608,127784.283,127784.78500014171,127800.897,128117.383,,34,that
screen,html.Screen,1_1_0_1_35,2021-04-12T10:39:52.359Z,,,,,,,,,,,,,,,,53,,,,,,,,,,,,,,317.8720001349284,,response,,,,99,,,,,,,Space,keypress(Space),,,,,,,,---- -- ----- -- ------ - ------- --- ----------<br>------------- ------ ------ ---- ---- ------- ----- -- ----<br>-------- ------- -- ---------- --- - --- ----- ----- ----<br>---- --- --- ----- --- ---- ---- matters ----- ---- -------<br>--- --- -- ----- -- --- ---- -- --- ---- -- ------ ------<br>--- ----- -- ----,128436.299999943,128435.25500013493,128100.708,128102.56000002846,128117.383,128450.396,,35,matters
screen,html.Screen,1_1_0_1_36,2021-04-12T10:39:52.908Z,,,,,,,,,,,,,,,,53,,,,,,,,,,,,,,534.6189999838389,,response,,,,99,,,,,,,Space,keypress(Space),,,,,,,,"---- -- ----- -- ------ - ------- --- ----------<br>------------- ------ ------ ---- ---- ------- ----- -- ----<br>-------- ------- -- ---------- --- - --- ----- ----- ----<br>---- --- --- ----- --- ---- ---- ------- most, ---- -------<br>--- --- -- ----- -- --- ---- -- --- ---- -- ------ ------<br>--- ----- -- ----",128985.65000016242,128985.01499998383,128433.733,128436.55500002205,128450.396,128999.764,,36,"most,"
screen,html.Screen,1_1_0_1_37,2021-04-12T10:39:53.229Z,,,,,,,,,,,,,,,,53,,,,,,,,,,,,,,305.716000097309,,response,,,,99,,,,,,,Space,keypress(Space),,,,,,,,---- -- ----- -- ------ - ------- --- ----------<br>------------- ------ ------ ---- ---- ------- ----- -- ----<br>-------- ------- -- ---------- --- - --- ----- ----- ----<br>---- --- --- ----- --- ---- ---- ------- ----- it's -------<br>--- --- -- ----- -- --- ---- -- --- ---- -- ------ ------<br>--- ----- -- ----,129306.4350001514,129305.4800000973,128983.228,128985.80000014044,128999.764,129316.008,,37,it's
screen,html.Screen,1_1_0_1_38,2021-04-12T10:39:53.566Z,,,,,,,,,,,,,,,,53,,,,,,,,,,,,,,326.72700000126497,,response,,,,99,,,,,,,Space,keypress(Space),,,,,,,,---- -- ----- -- ------ - ------- --- ----------<br>------------- ------ ------ ---- ---- ------- ----- -- ----<br>-------- ------- -- ---------- --- - --- ----- ----- ----<br>---- --- --- ----- --- ---- ---- ------- ----- ---- whether<br>--- --- -- ----- -- --- ---- -- --- ---- -- ------ ------<br>--- ----- -- ----,129643.6700001359,129642.73500000127,129299.483,129306.58000009134,129316.008,129649.07,,38,whether
screen,html.Screen,1_1_0_1_39,2021-04-12T10:39:53.881Z,,,,,,,,,,,,,,,,53,,,,,,,,,,,,,,308.5850000347127,,response,,,,99,,,,,,,Space,keypress(Space),,,,,,,,---- -- ----- -- ------ - ------- --- ----------<br>------------- ------ ------ ---- ---- ------- ----- -- ----<br>-------- ------- -- ---------- --- - --- ----- ----- ----<br>---- --- --- ----- --- ---- ---- ------- ----- ---- -------<br>you --- -- ----- -- --- ---- -- --- ---- -- ------ ------<br>--- ----- -- ----,129958.57500005513,129957.65500003472,129632.336,129646.32500009611,129649.07,129965.405,,39,you
screen,html.Screen,1_1_0_1_40,2021-04-12T10:39:54.179Z,,,,,,,,,,,,,,,,53,,,,,,,,,,,,,,290.68000000089523,,response,,,,99,,,,,,,Space,keypress(Space),,,,,,,,---- -- ----- -- ------ - ------- --- ----------<br>------------- ------ ------ ---- ---- ------- ----- -- ----<br>-------- ------- -- ---------- --- - --- ----- ----- ----<br>---- --- --- ----- --- ---- ---- ------- ----- ---- -------<br>--- are -- ----- -- --- ---- -- --- ---- -- ------ ------<br>--- ----- -- ----,130257.14000011794,130256.0850000009,129948.912,129958.84500001557,129965.405,130265.2,,40,are
screen,html.Screen,1_1_0_1_41,2021-04-12T10:39:54.473Z,,,,,,,,,,,,,,,,53,,,,,,,,,,,,,,284.5200000099867,,response,,,,99,,,,,,,Space,keypress(Space),,,,,,,,---- -- ----- -- ------ - ------- --- ----------<br>------------- ------ ------ ---- ---- ------- ----- -- ----<br>-------- ------- -- ---------- --- - --- ----- ----- ----<br>---- --- --- ----- --- ---- ---- ------- ----- ---- -------<br>--- --- as ----- -- --- ---- -- --- ---- -- ------ ------<br>--- ----- -- ----,130550.7000000216,130549.72000000998,130248.651,130257.40500004031,130265.2,130564.901,,41,as
screen,html.Screen,1_1_0_1_42,2021-04-12T10:39:54.769Z,,,,,,,,,,,,,,,,53,,,,,,,,,,,,,,279.8440001258423,,response,,,,99,,,,,,,Space,keypress(Space),,,,,,,,---- -- ----- -- ------ - ------- --- ----------<br>------------- ------ ------ ---- ---- ------- ----- -- ----<br>-------- ------- -- ---------- --- - --- ----- ----- ----<br>---- --- --- ----- --- ---- ---- ------- ----- ---- -------<br>--- --- -- close -- --- ---- -- --- ---- -- ------ ------<br>--- ----- -- ----,130846.2849999778,130844.74500012584,130548.346,130550.97500002012,130564.901,130869.559,,42,close
screen,html.Screen,1_1_0_1_43,2021-04-12T10:39:55.084Z,,,,,,,,,,,,,,,,53,,,,,,,,,,,,,,291.10100005230925,,response,,,,99,,,,,,,Space,keypress(Space),,,,,,,,---- -- ----- -- ------ - ------- --- ----------<br>------------- ------ ------ ---- ---- ------- ----- -- ----<br>-------- ------- -- ---------- --- - --- ----- ----- ----<br>---- --- --- ----- --- ---- ---- ------- ----- ---- -------<br>--- --- -- ----- as --- ---- -- --- ---- -- ------ ------<br>--- ----- -- ----,131161.86500014737,131160.6600000523,130831.477,130846.54500009492,130869.559,131164.341,,43,as
screen,html.Screen,1_1_0_1_44,2021-04-12T10:39:55.453Z,,,,,,,,,,,,,,,,53,,,,,,,,,,,,,,365.1140000690066,,response,,,,99,,,,,,,Space,keypress(Space),,,,,,,,---- -- ----- -- ------ - ------- --- ----------<br>------------- ------ ------ ---- ---- ------- ----- -- ----<br>-------- ------- -- ---------- --- - --- ----- ----- ----<br>---- --- --- ----- --- ---- ---- ------- ----- ---- -------<br>--- --- -- ----- -- you ---- -- --- ---- -- ------ ------<br>--- ----- -- ----,131530.41000012308,131529.455000069,131147.75,131162.1650001034,131164.341,131547.424,,44,you
screen,html.Screen,1_1_0_1_45,2021-04-12T10:39:55.803Z,,,,,,,,,,,,,,,,53,,,,,,,,,,,,,,332.3709999570856,,response,,,,99,,,,,,,Space,keypress(Space),,,,,,,,---- -- ----- -- ------ - ------- --- ----------<br>------------- ------ ------ ---- ---- ------- ----- -- ----<br>-------- ------- -- ---------- --- - --- ----- ----- ----<br>---- --- --- ----- --- ---- ---- ------- ----- ---- -------<br>--- --- -- ----- -- --- want -- --- ---- -- ------ ------<br>--- ----- -- ----,131880.97500009462,131879.79499995708,131530.756,131530.6649999693,131547.424,131897.049,,45,want
screen,html.Screen,1_1_0_1_46,2021-04-12T10:39:56.083Z,,,,,,,,,,,,,,,,53,,,,,,,,,,,,,,261.9960000949213,,response,,,,99,,,,,,,Space,keypress(Space),,,,,,,,---- -- ----- -- ------ - ------- --- ----------<br>------------- ------ ------ ---- ---- ------- ----- -- ----<br>-------- ------- -- ---------- --- - --- ----- ----- ----<br>---- --- --- ----- --- ---- ---- ------- ----- ---- -------<br>--- --- -- ----- -- --- ---- to --- ---- -- ------ ------<br>--- ----- -- ----,132160.2150001563,132159.04500009492,131880.429,131881.2550001312,131897.049,132163.401,,46,to
screen,html.Screen,1_1_0_1_47,2021-04-12T10:39:56.663Z,,,,,,,,,,,,,,,,53,,,,,,,,,,,,,,575.9490001635277,,response,,,,99,,,,,,,Space,keypress(Space),,,,,,,,"---- -- ----- -- ------ - ------- --- ----------<br>------------- ------ ------ ---- ---- ------- ----- -- ----<br>-------- ------- -- ---------- --- - --- ----- ----- ----<br>---- --- --- ----- --- ---- ---- ------- ----- ---- -------<br>--- --- -- ----- -- --- ---- -- be, ---- -- ------ ------<br>--- ----- -- ----",132740.364999976,132739.35000016354,132146.761,132160.5400000699,132163.401,132746.119,,47,"be,"
screen,html.Screen,1_1_0_1_48,2021-04-12T10:39:56.973Z,,,,,,,,,,,,,,,,53,,,,,,,,,,,,,,303.92100011830917,,response,,,,99,,,,,,,Space,keypress(Space),,,,,,,,---- -- ----- -- ------ - ------- --- ----------<br>------------- ------ ------ ---- ---- ------- ----- -- ----<br>-------- ------- -- ---------- --- - --- ----- ----- ----<br>---- --- --- ----- --- ---- ---- ------- ----- ---- -------<br>--- --- -- ----- -- --- ---- -- --- even -- ------ ------<br>--- ----- -- ----,133051.07500008307,133050.04000011832,132729.696,132740.62000005506,132746.119,133062.721,,48,even
screen,html.Screen,1_1_0_1_49,2021-04-12T10:39:57.286Z,,,,,,,,,,,,,,,,53,,,,,,,,,,,,,,299.5290000055975,,response,,,,99,,,,,,,Space,keypress(Space),,,,,,,,---- -- ----- -- ------ - ------- --- ----------<br>------------- ------ ------ ---- ---- ------- ----- -- ----<br>-------- ------- -- ---------- --- - --- ----- ----- ----<br>---- --- --- ----- --- ---- ---- ------- ----- ---- -------<br>--- --- -- ----- -- --- ---- -- --- ---- if ------ ------<br>--- ----- -- ----,133363.20500005968,133362.2500000056,133045.992,133051.34000000544,133062.721,133378.968,,49,if
screen,html.Screen,1_1_0_1_50,2021-04-12T10:39:57.670Z,,,,,,,,,,,,,,,,53,,,,,,,,,,,,,,368.172000108636,,response,,,,99,,,,,,,Space,keypress(Space),,,,,,,,---- -- ----- -- ------ - ------- --- ----------<br>------------- ------ ------ ---- ---- ------- ----- -- ----<br>-------- ------- -- ---------- --- - --- ----- ----- ----<br>---- --- --- ----- --- ---- ---- ------- ----- ---- -------<br>--- --- -- ----- -- --- ---- -- --- ---- -- that's ------<br>--- ----- -- ----,133748.17000003532,133747.14000010863,133362.426,133363.47500002012,133378.968,133762.063,,50,that's
screen,html.Screen,1_1_0_1_51,2021-04-12T10:39:58.017Z,,,,,,,,,,,,,,,,53,,,,,,,,,,,,,,331.7769999868178,,response,,,,99,,,,,,,Space,keypress(Space),,,,,,,,---- -- ----- -- ------ - ------- --- ----------<br>------------- ------ ------ ---- ---- ------- ----- -- ----<br>-------- ------- -- ---------- --- - --- ----- ----- ----<br>---- --- --- ----- --- ---- ---- ------- ----- ---- -------<br>--- --- -- ----- -- --- ---- -- --- ---- -- ------ really<br>--- ----- -- ----,134094.79000000283,134093.8399999868,133745.404,133748.5549999401,133762.063,134111.724,,51,really
screen,html.Screen,1_1_0_1_52,2021-04-12T10:39:58.373Z,,,,,,,,,,,,,,,,53,,,,,,,,,,,,,,338.0110000310815,,response,,,,99,,,,,,,Space,keypress(Space),,,,,,,,---- -- ----- -- ------ - ------- --- ----------<br>------------- ------ ------ ---- ---- ------- ----- -- ----<br>-------- ------- -- ---------- --- - --- ----- ----- ----<br>---- --- --- ----- --- ---- ---- ------- ----- ---- -------<br>--- --- -- ----- -- --- ---- -- --- ---- -- ------ ------<br>not ----- -- ----,134450.75500011444,134449.73500003107,134095.097,134095.04500008188,134111.724,134461.287,,52,not
screen,html.Screen,1_1_0_1_53,2021-04-12T10:39:58.703Z,,,,,,,,,,,,,,,,53,,,,,,,,,,,,,,318.6030001216568,,response,,,,99,,,,,,,Space,keypress(Space),,,,,,,,---- -- ----- -- ------ - ------- --- ----------<br>------------- ------ ------ ---- ---- ------- ----- -- ----<br>-------- ------- -- ---------- --- - --- ----- ----- ----<br>---- --- --- ----- --- ---- ---- ------- ----- ---- -------<br>--- --- -- ----- -- --- ---- -- --- ---- -- ------ ------<br>--- close -- ----,134781.05999995023,134779.89000012167,134444.668,134451.00999996066,134461.287,134794.377,,53,close
screen,html.Screen,1_1_0_1_54,2021-04-12T10:39:59.040Z,,,,,,,,,,,,,,,,53,,,,,,,,,,,,,,321.9530001062376,,response,,,,99,,,,,,,Space,keypress(Space),,,,,,,,---- -- ----- -- ------ - ------- --- ----------<br>------------- ------ ------ ---- ---- ------- ----- -- ----<br>-------- ------- -- ---------- --- - --- ----- ----- ----<br>---- --- --- ----- --- ---- ---- ------- ----- ---- -------<br>--- --- -- ----- -- --- ---- -- --- ---- -- ------ ------<br>--- ----- at ----,135117.28500016034,135116.33000010625,134777.725,134781.32000006735,134794.377,135127.346,,54,at
screen,html.Screen,1_1_0_1_55,2021-04-12T10:39:59.480Z,,,,,,,,,,,,,,,,53,,,,,,,,,,,,,,429.4589999419695,,response,,,,99,,,,,,,Space,keypress(Space),,,,,,,,---- -- ----- -- ------ - ------- --- ----------<br>------------- ------ ------ ---- ---- ------- ----- -- ----<br>-------- ------- -- ---------- --- - --- ----- ----- ----<br>---- --- --- ----- --- ---- ---- ------- ----- ---- -------<br>--- --- -- ----- -- --- ---- -- --- ---- -- ------ ------<br>--- ----- -- all.,135557.75000015274,135556.80499994196,135110.786,135117.53499996848,135127.346,135590.376,,55,all.
Item 99,flow.Loop,1_1_0_1,2021-04-12T10:39:59.481Z,,,,,,,,,,,,,,,,,,,,,,,,,,,,,,20893.642999941963,,completion,,,,,A,,,,,,,,,,,silence,,,,,135558.31500003114,135556.80499994196,114546.639,114548.1350000482,114663.162,135590.376,,,
Question 1,html.Screen,1_1_0_2,2021-04-12T10:40:03.146Z,,,,,,,,,,,,,,,,,,,,,,,,,,,true,FALSE,,3632.193999983545,,response,,,,99,A,,,,,,FALSE,click #choice-2,,,,silence,,,,,139223.51999999955,139222.56999998353,135543.653,135558.5700001102,135590.376,139240.186,,,
Question 2,html.Screen,1_1_0_3,2021-04-12T10:40:05.934Z,,,,,,,,,,,,,,,,,,,,,,,,,,,true,TRUE,,2770.5890000897925,,response,,,,99,A,,,,,,TRUE,click #choice-1,,,,silence,,,,,142011.62500004284,142010.77500008978,139206.774,139223.69999997318,139240.186,142020.727,,,
Item 99,flow.Sequence,1_1_0,2021-04-12T10:40:05.934Z,,,,,,,,,,,,,,,,,,,,,,,,,,,,,,37454.86800008977,,completion,,,,,,,,,,,,,,,,,,,,,142011.83500001207,142010.77500008978,104539.477,104548.79999998957,104555.907,142020.727,,,
Holding screen,html.Screen,1_1_1_0,2021-04-12T10:40:15.935Z,,,,,,,,,,,,,,,,,,,,,,,,,,,,,,10007.503999999986,,timeout,,,,,,,,,,,,,,,,,,,,,152012.6600000076,152011.538,142004.17,142011.9849999901,142020.727,152028.231,,,
screen,html.Screen,1_1_1_1_0,2021-04-12T10:40:17.038Z,,,,,,,,,,,,,,,,54,,,,,,,,,,,,,,1087.1440000521543,,response,,,,100,,,,,,,Space,keypress(Space),,,,,,,,At --- ---- --- ------ ----- ------- ---- -- --- ------- --<br>------- ---------- ------ -- ----- -- ----- -- ---- ------<br>--- ----- --- --- ------ -------- ----- --- ------ ----- --<br>----- ----- ---------- --- --- ------ ------ ---- -- ------<br>------- --- ------ ----- --- ---- ------- -- ---- --- --<br>------- ------,153116.43499997444,153115.37500005215,152011.538,152012.98999995925,152028.231,153127.056,,0,At
screen,html.Screen,1_1_1_1_1,2021-04-12T10:40:17.375Z,,,,,,,,,,,,,,,,54,,,,,,,,,,,,,,324.71400015972904,,response,,,,100,,,,,,,Space,keypress(Space),,,,,,,,-- the ---- --- ------ ----- ------- ---- -- --- ------- --<br>------- ---------- ------ -- ----- -- ----- -- ---- ------<br>--- ----- --- --- ------ -------- ----- --- ------ ----- --<br>----- ----- ---------- --- --- ------ ------ ---- -- ------<br>------- --- ------ ----- --- ---- ------- -- ---- --- --<br>------- ------,153452.6649999898,153451.77000015974,153110.577,153116.70499993488,153127.056,153459.929,,1,the
screen,html.Screen,1_1_1_1_2,2021-04-12T10:40:17.764Z,,,,,,,,,,,,,,,,54,,,,,,,,,,,,,,381.35600008955225,,response,,,,100,,,,,,,Space,keypress(Space),,,,,,,,-- --- time --- ------ ----- ------- ---- -- --- ------- --<br>------- ---------- ------ -- ----- -- ----- -- ---- ------<br>--- ----- --- --- ------ -------- ----- --- ------ ----- --<br>----- ----- ---------- --- --- ------ ------ ---- -- ------<br>------- --- ------ ----- --- ---- ------- -- ---- --- --<br>------- ------,153842.36999996938,153841.28500008956,153443.54,153452.91500003077,153459.929,153859.834,,2,time
screen,html.Screen,1_1_1_1_3,2021-04-12T10:40:18.096Z,,,,,,,,,,,,,,,,54,,,,,,,,,,,,,,313.12100007457775,,response,,,,100,,,,,,,Space,keypress(Space),,,,,,,,-- --- ---- the ------ ----- ------- ---- -- --- ------- --<br>------- ---------- ------ -- ----- -- ----- -- ---- ------<br>--- ----- --- --- ------ -------- ----- --- ------ ----- --<br>----- ----- ---------- --- --- ------ ------ ---- -- ------<br>------- --- ------ ----- --- ---- ------- -- ---- --- --<br>------- ------,154174.18500012718,154172.95500007458,153843.153,153842.74500003085,153859.834,154208.306,,3,the
screen,html.Screen,1_1_1_1_4,2021-04-12T10:40:18.462Z,,,,,,,,,,,,,,,,54,,,,,,,,,,,,,,330.55399997145287,,response,,,,100,,,,,,,Space,keypress(Space),,,,,,,,-- --- ---- --- French ----- ------- ---- -- --- ------- --<br>------- ---------- ------ -- ----- -- ----- -- ---- ------<br>--- ----- --- --- ------ -------- ----- --- ------ ----- --<br>----- ----- ---------- --- --- ------ ------ ---- -- ------<br>------- --- ------ ----- --- ---- ------- -- ---- --- --<br>------- ------,154539.8250001017,154538.85999997146,154159.522,154174.49500015937,154208.306,154542.293,,4,French
screen,html.Screen,1_1_1_1_5,2021-04-12T10:40:18.768Z,,,,,,,,,,,,,,,,54,,,,,,,,,,,,,,302.3870000965544,,response,,,,100,,,,,,,Space,keypress(Space),,,,,,,,-- --- ---- --- ------ crown ------- ---- -- --- ------- --<br>------- ---------- ------ -- ----- -- ----- -- ---- ------<br>--- ----- --- --- ------ -------- ----- --- ------ ----- --<br>----- ----- ---------- --- --- ------ ------ ---- -- ------<br>------- --- ------ ----- --- ---- ------- -- ---- --- --<br>------- ------,154845.54500016384,154844.68000009656,154525.867,154540.084999986,154542.293,154858.898,,5,crown
screen,html.Screen,1_1_1_1_6,2021-04-12T10:40:19.253Z,,,,,,,,,,,,,,,,54,,,,,,,,,,,,,,471.33199996320764,,response,,,,100,,,,,,,Space,keypress(Space),,,,,,,,-- --- ---- --- ------ ----- secured ---- -- --- ------- --<br>------- ---------- ------ -- ----- -- ----- -- ---- ------<br>--- ----- --- --- ------ -------- ----- --- ------ ----- --<br>----- ----- ---------- --- --- ------ ------ ---- -- ------<br>------- --- ------ ----- --- ---- ------- -- ---- --- --<br>------- ------,155331.31000003777,155330.2299999632,154842.167,154845.7899999339,154858.898,155341.626,,6,secured
screen,html.Screen,1_1_1_1_7,2021-04-12T10:40:19.544Z,,,,,,,,,,,,,,,,54,,,,,,,,,,,,,,279.3440000472474,,response,,,,100,,,,,,,Space,keypress(Space),,,,,,,,-- --- ---- --- ------ ----- ------- much -- --- ------- --<br>------- ---------- ------ -- ----- -- ----- -- ---- ------<br>--- ----- --- --- ------ -------- ----- --- ------ ----- --<br>----- ----- ---------- --- --- ------ ------ ---- -- ------<br>------- --- ------ ----- --- ---- ------- -- ---- --- --<br>------- ------,155621.92500010133,155620.97000004724,155325.108,155331.62500010803,155341.626,155624.664,,7,much
screen,html.Screen,1_1_1_1_8,2021-04-12T10:40:19.889Z,,,,,,,,,,,,,,,,54,,,,,,,,,,,,,,341.3960000061197,,response,,,,100,,,,,,,Space,keypress(Space),,,,,,,,-- --- ---- --- ------ ----- ------- ---- of --- ------- --<br>------- ---------- ------ -- ----- -- ----- -- ---- ------<br>--- ----- --- --- ------ -------- ----- --- ------ ----- --<br>----- ----- ---------- --- --- ------ ------ ---- -- ------<br>------- --- ------ ----- --- ---- ------- -- ---- --- --<br>------- ------,155967.04000001773,155966.0600000061,155608.121,155622.1900000237,155624.664,155974.391,,8,of
screen,html.Screen,1_1_1_1_9,2021-04-12T10:40:20.199Z,,,,,,,,,,,,,,,,54,,,,,,,,,,,,,,301.94400006049545,,response,,,,100,,,,,,,Space,keypress(Space),,,,,,,,-- --- ---- --- ------ ----- ------- ---- -- its ------- --<br>------- ---------- ------ -- ----- -- ----- -- ---- ------<br>--- ----- --- --- ------ -------- ----- --- ------ ----- --<br>----- ----- ---------- --- --- ------ ------ ---- -- ------<br>------- --- ------ ----- --- ---- ------- -- ---- --- --<br>------- ------,156277.23000012338,156276.3350000605,155957.838,155967.35000004992,155974.391,156290.814,,9,its
screen,html.Screen,1_1_1_1_10,2021-04-12T10:40:20.556Z,,,,,,,,,,,,,,,,54,,,,,,,,,,,,,,341.98099998314865,,response,,,,100,,,,,,,Space,keypress(Space),,,,,,,,-- --- ---- --- ------ ----- ------- ---- -- --- revenue --<br>------- ---------- ------ -- ----- -- ----- -- ---- ------<br>--- ----- --- --- ------ -------- ----- --- ------ ----- --<br>----- ----- ---------- --- --- ------ ------ ---- -- ------<br>------- --- ------ ----- --- ---- ------- -- ---- --- --<br>------- ------,156633.81000002846,156632.79499998316,156274.158,156277.4849999696,156290.814,156640.368,,10,revenue
screen,html.Screen,1_1_1_1_11,2021-04-12T10:40:20.885Z,,,,,,,,,,,,,,,,54,,,,,,,,,,,,,,321.5770001046185,,response,,,,100,,,,,,,Space,keypress(Space),,,,,,,,-- --- ---- --- ------ ----- ------- ---- -- --- ------- by<br>------- ---------- ------ -- ----- -- ----- -- ---- ------<br>--- ----- --- --- ------ -------- ----- --- ------ ----- --<br>----- ----- ---------- --- --- ------ ------ ---- -- ------<br>------- --- ------ ----- --- ---- ------- -- ---- --- --<br>------- ------,156963.0200001411,156961.9450001046,156623.978,156634.07000014558,156640.368,156973.579,,11,by
screen,html.Screen,1_1_1_1_12,2021-04-12T10:40:21.242Z,,,,,,,,,,,,,,,,54,,,,,,,,,,,,,,345.19600005066604,,response,,,,100,,,,,,,Space,keypress(Space),,,,,,,,-- --- ---- --- ------ ----- ------- ---- -- --- ------- --<br>issuing ---------- ------ -- ----- -- ----- -- ---- ------<br>--- ----- --- --- ------ -------- ----- --- ------ ----- --<br>----- ----- ---------- --- --- ------ ------ ---- -- ------<br>------- --- ------ ----- --- ---- ------- -- ---- --- --<br>------- ------,157319.85000008717,157318.77500005066,156956.836,156963.29999994487,156973.579,157323.069,,12,issuing
screen,html.Screen,1_1_1_1_13,2021-04-12T10:40:21.593Z,,,,,,,,,,,,,,,,54,,,,,,,,,,,,,,346.89100008658716,,response,,,,100,,,,,,,Space,keypress(Space),,,,,,,,-- --- ---- --- ------ ----- ------- ---- -- --- ------- --<br>------- government ------ -- ----- -- ----- -- ---- ------<br>--- ----- --- --- ------ -------- ----- --- ------ ----- --<br>----- ----- ---------- --- --- ------ ------ ---- -- ------<br>------- --- ------ ----- --- ---- ------- -- ---- --- --<br>------- ------,157670.94500013627,157669.96000008658,157306.587,157320.13000012375,157323.069,157696.784,,13,government
screen,html.Screen,1_1_1_1_14,2021-04-12T10:40:21.896Z,,,,,,,,,,,,,,,,54,,,,,,,,,,,,,,276.02100014311145,,response,,,,100,,,,,,,Space,keypress(Space),,,,,,,,-- --- ---- --- ------ ----- ------- ---- -- --- ------- --<br>------- ---------- bonds. -- ----- -- ----- -- ---- ------<br>--- ----- --- --- ------ -------- ----- --- ------ ----- --<br>----- ----- ---------- --- --- ------ ------ ---- -- ------<br>------- --- ------ ----- --- ---- ------- -- ---- --- --<br>------- ------,157973.6949999351,157972.80500014313,157656.24,157671.1999999825,157696.784,157989.228,,14,bonds.
screen,html.Screen,1_1_1_1_15,2021-04-12T10:40:22.323Z,,,,,,,,,,,,,,,,54,,,,,,,,,,,,,,411.2369999551447,,response,,,,100,,,,,,,Space,keypress(Space),,,,,,,,-- --- ---- --- ------ ----- ------- ---- -- --- ------- --<br>------- ---------- ------ In ----- -- ----- -- ---- ------<br>--- ----- --- --- ------ -------- ----- --- ------ ----- --<br>----- ----- ---------- --- --- ------ ------ ---- -- ------<br>------- --- ------ ----- --- ---- ------- -- ---- --- --<br>------- ------,158401.50000015274,158400.46499995515,157972.576,157975.18500010483,157989.228,158405.343,,15,In
screen,html.Screen,1_1_1_1_16,2021-04-12T10:40:22.644Z,,,,,,,,,,,,,,,,54,,,,,,,,,,,,,,315.86200006713625,,response,,,,100,,,,,,,Space,keypress(Space),,,,,,,,"-- --- ---- --- ------ ----- ------- ---- -- --- ------- --<br>------- ---------- ------ -- 1727, -- ----- -- ---- ------<br>--- ----- --- --- ------ -------- ----- --- ------ ----- --<br>----- ----- ---------- --- --- ------ ------ ---- -- ------<br>------- --- ------ ----- --- ---- ------- -- ---- --- --<br>------- ------",158722.19999996014,158721.20500006713,158388.812,158401.80500014685,158405.343,158738.526,,16,"1727,"
screen,html.Screen,1_1_1_1_17,2021-04-12T10:40:22.943Z,,,,,,,,,,,,,,,,54,,,,,,,,,,,,,,281.4740000186139,,response,,,,100,,,,,,,Space,keypress(Space),,,,,,,,-- --- ---- --- ------ ----- ------- ---- -- --- ------- --<br>------- ---------- ------ -- ----- in ----- -- ---- ------<br>--- ----- --- --- ------ -------- ----- --- ------ ----- --<br>----- ----- ---------- --- --- ------ ------ ---- -- ------<br>------- --- ------ ----- --- ---- ------- -- ---- --- --<br>------- ------,159021.03499998339,159020.00000001863,158721.858,158722.47999999672,158738.526,159038.288,,17,in
screen,html.Screen,1_1_1_1_18,2021-04-12T10:40:23.310Z,,,,,,,,,,,,,,,,54,,,,,,,,,,,,,,349.40700004127575,,response,,,,100,,,,,,,Space,keypress(Space),,,,,,,,-- --- ---- --- ------ ----- ------- ---- -- --- ------- --<br>------- ---------- ------ -- ----- -- order -- ---- ------<br>--- ----- --- --- ------ -------- ----- --- ------ ----- --<br>----- ----- ---------- --- --- ------ ------ ---- -- ------<br>------- --- ------ ----- --- ---- ------- -- ---- --- --<br>------- ------,159388.40500009246,159387.69500004128,159021.634,159021.33000013418,159038.288,159404.467,,18,order
screen,html.Screen,1_1_1_1_19,2021-04-12T10:40:23.635Z,,,,,,,,,,,,,,,,54,,,,,,,,,,,,,,307.15299995819805,,response,,,,100,,,,,,,Space,keypress(Space),,,,,,,,-- --- ---- --- ------ ----- ------- ---- -- --- ------- --<br>------- ---------- ------ -- ----- -- ----- to ---- ------<br>--- ----- --- --- ------ -------- ----- --- ------ ----- --<br>----- ----- ---------- --- --- ------ ------ ---- -- ------<br>------- --- ------ ----- --- ---- ------- -- ---- --- --<br>------- ------,159712.61500008404,159711.6199999582,159387.872,159388.57499998994,159404.467,159720.924,,19,to
screen,html.Screen,1_1_1_1_20,2021-04-12T10:40:23.907Z,,,,,,,,,,,,,,,,54,,,,,,,,,,,,,,263.271000026376,,response,,,,100,,,,,,,Space,keypress(Space),,,,,,,,-- --- ---- --- ------ ----- ------- ---- -- --- ------- --<br>------- ---------- ------ -- ----- -- ----- -- save ------<br>--- ----- --- --- ------ -------- ----- --- ------ ----- --<br>----- ----- ---------- --- --- ------ ------ ---- -- ------<br>------- --- ------ ----- --- ---- ------- -- ---- --- --<br>------- ------,159985.37000012584,159984.19500002638,159704.254,159712.8800000064,159720.924,160019.151,,20,save
screen,html.Screen,1_1_1_1_21,2021-04-12T10:40:24.206Z,,,,,,,,,,,,,,,,54,,,,,,,,,,,,,,264.2989999880665,,response,,,,100,,,,,,,Space,keypress(Space),,,,,,,,"-- --- ---- --- ------ ----- ------- ---- -- --- ------- --<br>------- ---------- ------ -- ----- -- ----- -- ---- money,<br>--- ----- --- --- ------ -------- ----- --- ------ ----- --<br>----- ----- ---------- --- --- ------ ------ ---- -- ------<br>------- --- ------ ----- --- ---- ------- -- ---- --- --<br>------- ------",160284.5199999865,160283.44999998808,159970.675,159985.66000000574,160019.151,160286.968,,21,"money,"
screen,html.Screen,1_1_1_1_22,2021-04-12T10:40:24.557Z,,,,,,,,,,,,,,,,54,,,,,,,,,,,,,,347.4419999405509,,response,,,,100,,,,,,,Space,keypress(Space),,,,,,,,-- --- ---- --- ------ ----- ------- ---- -- --- ------- --<br>------- ---------- ------ -- ----- -- ----- -- ---- ------<br>the ----- --- --- ------ -------- ----- --- ------ ----- --<br>----- ----- ---------- --- --- ------ ------ ---- -- ------<br>------- --- ------ ----- --- ---- ------- -- ---- --- --<br>------- ------,160635.45499998145,160634.40999994054,160270.423,160284.82499998063,160286.968,160653.42,,22,the
screen,html.Screen,1_1_1_1_23,2021-04-12T10:40:24.880Z,,,,,,,,,,,,,,,,54,,,,,,,,,,,,,,303.57999993665726,,response,,,,100,,,,,,,Space,keypress(Space),,,,,,,,-- --- ---- --- ------ ----- ------- ---- -- --- ------- --<br>------- ---------- ------ -- ----- -- ----- -- ---- ------<br>--- state --- --- ------ -------- ----- --- ------ ----- --<br>----- ----- ---------- --- --- ------ ------ ---- -- ------<br>------- --- ------ ----- --- ---- ------- -- ---- --- --<br>------- ------,160958.14500004053,160956.99999993667,160620.08,160635.7249999419,160653.42,160969.769,,23,state
screen,html.Screen,1_1_1_1_24,2021-04-12T10:40:25.203Z,,,,,,,,,,,,,,,,54,,,,,,,,,,,,,,310.29100001914776,,response,,,,100,,,,,,,Space,keypress(Space),,,,,,,,-- --- ---- --- ------ ----- ------- ---- -- --- ------- --<br>------- ---------- ------ -- ----- -- ----- -- ---- ------<br>--- ----- cut --- ------ -------- ----- --- ------ ----- --<br>----- ----- ---------- --- --- ------ ------ ---- -- ------<br>------- --- ------ ----- --- ---- ------- -- ---- --- --<br>------- ------,161281.23000008054,161280.06000001915,160953.102,160958.4699999541,160969.769,161285.972,,24,cut
screen,html.Screen,1_1_1_1_25,2021-04-12T10:40:25.545Z,,,,,,,,,,,,,,,,54,,,,,,,,,,,,,,336.13800011301646,,response,,,,100,,,,,,,Space,keypress(Space),,,,,,,,-- --- ---- --- ------ ----- ------- ---- -- --- ------- --<br>------- ---------- ------ -- ----- -- ----- -- ---- ------<br>--- ----- --- the ------ -------- ----- --- ------ ----- --<br>----- ----- ---------- --- --- ------ ------ ---- -- ------<br>------- --- ------ ----- --- ---- ------- -- ---- --- --<br>------- ------,161623.06000012904,161622.11000011303,161269.452,161281.53000003658,161285.972,161635.715,,25,the
screen,html.Screen,1_1_1_1_26,2021-04-12T10:40:25.857Z,,,,,,,,,,,,,,,,54,,,,,,,,,,,,,,297.84500003405265,,response,,,,100,,,,,,,Space,keypress(Space),,,,,,,,-- --- ---- --- ------ ----- ------- ---- -- --- ------- --<br>------- ---------- ------ -- ----- -- ----- -- ---- ------<br>--- ----- --- --- bonds' -------- ----- --- ------ ----- --<br>----- ----- ---------- --- --- ------ ------ ---- -- ------<br>------- --- ------ ----- --- ---- ------- -- ---- --- --<br>------- ------,161934.5350000076,161933.56000003405,161619.132,161623.3099999372,161635.715,161968.781,,26,bonds'
screen,html.Screen,1_1_1_1_27,2021-04-12T10:40:26.154Z,,,,,,,,,,,,,,,,54,,,,,,,,,,,,,,261.85400015997584,,response,,,,100,,,,,,,Space,keypress(Space),,,,,,,,-- --- ---- --- ------ ----- ------- ---- -- --- ------- --<br>------- ---------- ------ -- ----- -- ----- -- ---- ------<br>--- ----- --- --- ------ interest ----- --- ------ ----- --<br>----- ----- ---------- --- --- ------ ------ ---- -- ------<br>------- --- ------ ----- --- ---- ------- -- ---- --- --<br>------- ------,162231.63500009105,162230.63500015996,161952.181,161934.79500012472,161968.781,162235.116,,27,interest
screen,html.Screen,1_1_1_1_28,2021-04-12T10:40:26.457Z,,,,,,,,,,,,,,,,54,,,,,,,,,,,,,,298.8040000744222,,response,,,,100,,,,,,,Space,keypress(Space),,,,,,,,-- --- ---- --- ------ ----- ------- ---- -- --- ------- --<br>------- ---------- ------ -- ----- -- ----- -- ---- ------<br>--- ----- --- --- ------ -------- rate. --- ------ ----- --<br>----- ----- ---------- --- --- ------ ------ ---- -- ------<br>------- --- ------ ----- --- ---- ------- -- ---- --- --<br>------- ------,162535.12000013143,162533.92000007443,162218.628,162231.9500001613,162235.116,162551.677,,28,rate.
screen,html.Screen,1_1_1_1_29,2021-04-12T10:40:26.937Z,,,,,,,,,,,,,,,,54,,,,,,,,,,,,,,462.1079999591748,,response,,,,100,,,,,,,Space,keypress(Space),,,,,,,,-- --- ---- --- ------ ----- ------- ---- -- --- ------- --<br>------- ---------- ------ -- ----- -- ----- -- ---- ------<br>--- ----- --- --- ------ -------- ----- The ------ ----- --<br>----- ----- ---------- --- --- ------ ------ ---- -- ------<br>------- --- ------ ----- --- ---- ------- -- ---- --- --<br>------- ------,163014.82000015676,163013.78499995917,162534.924,162535.44000000693,162551.677,163017.758,,29,The
screen,html.Screen,1_1_1_1_30,2021-04-12T10:40:27.356Z,,,,,,,,,,,,,,,,54,,,,,,,,,,,,,,415.0970000209345,,response,,,,100,,,,,,,Space,keypress(Space),,,,,,,,-- --- ---- --- ------ ----- ------- ---- -- --- ------- --<br>------- ---------- ------ -- ----- -- ----- -- ---- ------<br>--- ----- --- --- ------ -------- ----- --- market ----- --<br>----- ----- ---------- --- --- ------ ------ ---- -- ------<br>------- --- ------ ----- --- ---- ------- -- ---- --- --<br>------- ------,163433.9400001336,163432.85500002094,163001.222,163015.11500007473,163017.758,163450.85,,30,market
screen,html.Screen,1_1_1_1_31,2021-04-12T10:40:27.632Z,,,,,,,,,,,,,,,,54,,,,,,,,,,,,,,257.8000001605542,,response,,,,100,,,,,,,Space,keypress(Space),,,,,,,,-- --- ---- --- ------ ----- ------- ---- -- --- ------- --<br>------- ---------- ------ -- ----- -- ----- -- ---- ------<br>--- ----- --- --- ------ -------- ----- --- ------ value --<br>----- ----- ---------- --- --- ------ ------ ---- -- ------<br>------- --- ------ ----- --- ---- ------- -- ---- --- --<br>------- ------,163709.75499995984,163708.65000016056,163434.127,163434.2450001277,163450.85,163716.946,,31,value
screen,html.Screen,1_1_1_1_32,2021-04-12T10:40:28.051Z,,,,,,,,,,,,,,,,54,,,,,,,,,,,,,,410.588999977801,,response,,,,100,,,,,,,Space,keypress(Space),,,,,,,,-- --- ---- --- ------ ----- ------- ---- -- --- ------- --<br>------- ---------- ------ -- ----- -- ----- -- ---- ------<br>--- ----- --- --- ------ -------- ----- --- ------ ----- of<br>----- ----- ---------- --- --- ------ ------ ---- -- ------<br>------- --- ------ ----- --- ---- ------- -- ---- --- --<br>------- ------,164128.54499998502,164127.5349999778,163700.45,163710.0400000345,163716.946,164133.286,,32,of
screen,html.Screen,1_1_1_1_33,2021-04-12T10:40:28.386Z,,,,,,,,,,,,,,,,54,,,,,,,,,,,,,,329.7590000986529,,response,,,,100,,,,,,,Space,keypress(Space),,,,,,,,-- --- ---- --- ------ ----- ------- ---- -- --- ------- --<br>------- ---------- ------ -- ----- -- ----- -- ---- ------<br>--- ----- --- --- ------ -------- ----- --- ------ ----- --<br>these ----- ---------- --- --- ------ ------ ---- -- ------<br>------- --- ------ ----- --- ---- ------- -- ---- --- --<br>------- ------,164464.06000014395,164463.04500009865,164116.803,164128.795000026,164133.286,164466.312,,33,these
screen,html.Screen,1_1_1_1_34,2021-04-12T10:40:28.677Z,,,,,,,,,,,,,,,,54,,,,,,,,,,,,,,287.6180001226312,,response,,,,100,,,,,,,Space,keypress(Space),,,,,,,,-- --- ---- --- ------ ----- ------- ---- -- --- ------- --<br>------- ---------- ------ -- ----- -- ----- -- ---- ------<br>--- ----- --- --- ------ -------- ----- --- ------ ----- --<br>----- bonds ---------- --- --- ------ ------ ---- -- ------<br>------- --- ------ ----- --- ---- ------- -- ---- --- --<br>------- ------,164754.97500016354,164753.93000012264,164449.805,164464.3550000619,164466.312,164766.184,,34,bonds
screen,html.Screen,1_1_1_1_35,2021-04-12T10:40:29.015Z,,,,,,,,,,,,,,,,54,,,,,,,,,,,,,,326.1460001304513,,response,,,,100,,,,,,,Space,keypress(Space),,,,,,,,"-- --- ---- --- ------ ----- ------- ---- -- --- ------- --<br>------- ---------- ------ -- ----- -- ----- -- ---- ------<br>--- ----- --- --- ------ -------- ----- --- ------ ----- --<br>----- ----- plummeted, --- --- ------ ------ ---- -- ------<br>------- --- ------ ----- --- ---- ------- -- ---- --- --<br>------- ------",165093.305000104,165092.33000013046,164749.492,164755.26000000536,164766.184,165099.07,,35,"plummeted,"
screen,html.Screen,1_1_1_1_36,2021-04-12T10:40:29.380Z,,,,,,,,,,,,,,,,54,,,,,,,,,,,,,,358.20000012993114,,response,,,,100,,,,,,,Space,keypress(Space),,,,,,,,-- --- ---- --- ------ ----- ------- ---- -- --- ------- --<br>------- ---------- ------ -- ----- -- ----- -- ---- ------<br>--- ----- --- --- ------ -------- ----- --- ------ ----- --<br>----- ----- ---------- and --- ------ ------ ---- -- ------<br>------- --- ------ ----- --- ---- ------- -- ---- --- --<br>------- ------,165458.24000006542,165457.27000012994,165082.601,165093.5949999839,165099.07,165465.591,,36,and
screen,html.Screen,1_1_1_1_37,2021-04-12T10:40:29.698Z,,,,,,,,,,,,,,,,54,,,,,,,,,,,,,,309.2840001192235,,response,,,,100,,,,,,,Space,keypress(Space),,,,,,,,-- --- ---- --- ------ ----- ------- ---- -- --- ------- --<br>------- ---------- ------ -- ----- -- ----- -- ---- ------<br>--- ----- --- --- ------ -------- ----- --- ------ ----- --<br>----- ----- ---------- --- the ------ ------ ---- -- ------<br>------- --- ------ ----- --- ---- ------- -- ---- --- --<br>------- ------,165775.92499996535,165774.8750001192,165448.891,165458.520000102,165465.591,165781.793,,37,the
screen,html.Screen,1_1_1_1_38,2021-04-12T10:40:30.135Z,,,,,,,,,,,,,,,,54,,,,,,,,,,,,,,429.65200002264464,,response,,,,100,,,,,,,Space,keypress(Space),,,,,,,,-- --- ---- --- ------ ----- ------- ---- -- --- ------- --<br>------- ---------- ------ -- ----- -- ----- -- ---- ------<br>--- ----- --- --- ------ -------- ----- --- ------ ----- --<br>----- ----- ---------- --- --- market ------ ---- -- ------<br>------- --- ------ ----- --- ---- ------- -- ---- --- --<br>------- ------,166212.56999997422,166211.44500002265,165765.241,165776.17500000633,165781.793,166214.68,,38,market
screen,html.Screen,1_1_1_1_39,2021-04-12T10:40:30.406Z,,,,,,,,,,,,,,,,54,,,,,,,,,,,,,,268.2450001348625,,response,,,,100,,,,,,,Space,keypress(Space),,,,,,,,-- --- ---- --- ------ ----- ------- ---- -- --- ------- --<br>------- ---------- ------ -- ----- -- ----- -- ---- ------<br>--- ----- --- --- ------ -------- ----- --- ------ ----- --<br>----- ----- ---------- --- --- ------ became ---- -- ------<br>------- --- ------ ----- --- ---- ------- -- ---- --- --<br>------- ------,166483.75000013039,166482.92500013486,166198.181,166212.8500000108,166214.68,166497.849,,39,became
screen,html.Screen,1_1_1_1_40,2021-04-12T10:40:30.689Z,,,,,,,,,,,,,,,,54,,,,,,,,,,,,,,268.5310001610196,,response,,,,100,,,,,,,Space,keypress(Space),,,,,,,,-- --- ---- --- ------ ----- ------- ---- -- --- ------- --<br>------- ---------- ------ -- ----- -- ----- -- ---- ------<br>--- ----- --- --- ------ -------- ----- --- ------ ----- --<br>----- ----- ---------- --- --- ------ ------ wary -- ------<br>------- --- ------ ----- --- ---- ------- -- ---- --- --<br>------- ------,166767.40000001155,166766.380000161,166481.242,166483.90500014648,166497.849,166780.892,,40,wary
screen,html.Screen,1_1_1_1_41,2021-04-12T10:40:31.013Z,,,,,,,,,,,,,,,,54,,,,,,,,,,,,,,309.33299993444234,,response,,,,100,,,,,,,Space,keypress(Space),,,,,,,,-- --- ---- --- ------ ----- ------- ---- -- --- ------- --<br>------- ---------- ------ -- ----- -- ----- -- ---- ------<br>--- ----- --- --- ------ -------- ----- --- ------ ----- --<br>----- ----- ---------- --- --- ------ ------ ---- of ------<br>------- --- ------ ----- --- ---- ------- -- ---- --- --<br>------- ------,167091.3550001569,167090.22499993443,166764.373,166767.7150000818,166780.892,167097.209,,41,of
screen,html.Screen,1_1_1_1_42,2021-04-12T10:40:31.406Z,,,,,,,,,,,,,,,,54,,,,,,,,,,,,,,386.1410001113836,,response,,,,100,,,,,,,Space,keypress(Space),,,,,,,,-- --- ---- --- ------ ----- ------- ---- -- --- ------- --<br>------- ---------- ------ -- ----- -- ----- -- ---- ------<br>--- ----- --- --- ------ -------- ----- --- ------ ----- --<br>----- ----- ---------- --- --- ------ ------ ---- -- French<br>------- --- ------ ----- --- ---- ------- -- ---- --- --<br>------- ------,167484.4850001391,167483.3500001114,167080.696,167091.63499996066,167097.209,167497.01,,42,French
screen,html.Screen,1_1_1_1_43,2021-04-12T10:40:31.699Z,,,,,,,,,,,,,,,,54,,,,,,,,,,,,,,279.4150000473019,,response,,,,100,,,,,,,Space,keypress(Space),,,,,,,,-- --- ---- --- ------ ----- ------- ---- -- --- ------- --<br>------- ---------- ------ -- ----- -- ----- -- ---- ------<br>--- ----- --- --- ------ -------- ----- --- ------ ----- --<br>----- ----- ---------- --- --- ------ ------ ---- -- ------<br>credit. --- ------ ----- --- ---- ------- -- ---- --- --<br>------- ------,167777.40500005893,167776.4250000473,167480.293,167484.79000013322,167497.01,167779.871,,43,credit.
screen,html.Screen,1_1_1_1_44,2021-04-12T10:40:32.071Z,,,,,,,,,,,,,,,,54,,,,,,,,,,,,,,368.3339999758464,,response,,,,100,,,,,,,Space,keypress(Space),,,,,,,,-- --- ---- --- ------ ----- ------- ---- -- --- ------- --<br>------- ---------- ------ -- ----- -- ----- -- ---- ------<br>--- ----- --- --- ------ -------- ----- --- ------ ----- --<br>----- ----- ---------- --- --- ------ ------ ---- -- ------<br>------- The ------ ----- --- ---- ------- -- ---- --- --<br>------- ------,168149.059999967,168148.20499997586,167763.257,167777.6999999769,167779.871,168162.995,,44,The
screen,html.Screen,1_1_1_1_45,2021-04-12T10:40:32.397Z,,,,,,,,,,,,,,,,54,,,,,,,,,,,,,,310.9250000185566,,response,,,,100,,,,,,,Space,keypress(Space),,,,,,,,-- --- ---- --- ------ ----- ------- ---- -- --- ------- --<br>------- ---------- ------ -- ----- -- ----- -- ---- ------<br>--- ----- --- --- ------ -------- ----- --- ------ ----- --<br>----- ----- ---------- --- --- ------ ------ ---- -- ------<br>------- --- French ----- --- ---- ------- -- ---- --- --<br>------- ------,168474.88000011072,168473.92000001855,168146.264,168149.3250001222,168162.995,168479.183,,45,French
screen,html.Screen,1_1_1_1_46,2021-04-12T10:40:32.695Z,,,,,,,,,,,,,,,,54,,,,,,,,,,,,,,292.7969999613415,,response,,,,100,,,,,,,Space,keypress(Space),,,,,,,,-- --- ---- --- ------ ----- ------- ---- -- --- ------- --<br>------- ---------- ------ -- ----- -- ----- -- ---- ------<br>--- ----- --- --- ------ -------- ----- --- ------ ----- --<br>----- ----- ---------- --- --- ------ ------ ---- -- ------<br>------- --- ------ state --- ---- ------- -- ---- --- --<br>------- ------,168773.03500007838,168771.97999996133,168462.76,168475.1300001517,168479.183,168779.465,,46,state
screen,html.Screen,1_1_1_1_47,2021-04-12T10:40:33.000Z,,,,,,,,,,,,,,,,54,,,,,,,,,,,,,,297.780000051338,,response,,,,100,,,,,,,Space,keypress(Space),,,,,,,,-- --- ---- --- ------ ----- ------- ---- -- --- ------- --<br>------- ---------- ------ -- ----- -- ----- -- ---- ------<br>--- ----- --- --- ------ -------- ----- --- ------ ----- --<br>----- ----- ---------- --- --- ------ ------ ---- -- ------<br>------- --- ------ ----- was ---- ------- -- ---- --- --<br>------- ------,169078.38500011712,169077.24500005133,168762.412,168773.32000015303,168779.465,169095.547,,47,was
screen,html.Screen,1_1_1_1_48,2021-04-12T10:40:33.283Z,,,,,,,,,,,,,,,,54,,,,,,,,,,,,,,265.1030001624313,,response,,,,100,,,,,,,Space,keypress(Space),,,,,,,,-- --- ---- --- ------ ----- ------- ---- -- --- ------- --<br>------- ---------- ------ -- ----- -- ----- -- ---- ------<br>--- ----- --- --- ------ -------- ----- --- ------ ----- --<br>----- ----- ---------- --- --- ------ ------ ---- -- ------<br>------- --- ------ ----- --- left ------- -- ---- --- --<br>------- ------,169361.3150001038,169360.65000016242,169078.803,169078.73499998823,169095.547,169395.101,,48,left
screen,html.Screen,1_1_1_1_49,2021-04-12T10:40:33.571Z,,,,,,,,,,,,,,,,54,,,,,,,,,,,,,,252.86900004910422,,response,,,,100,,,,,,,Space,keypress(Space),,,,,,,,-- --- ---- --- ------ ----- ------- ---- -- --- ------- --<br>------- ---------- ------ -- ----- -- ----- -- ---- ------<br>--- ----- --- --- ------ -------- ----- --- ------ ----- --<br>----- ----- ---------- --- --- ------ ------ ---- -- ------<br>------- --- ------ ----- --- ---- without -- ---- --- --<br>------- ------,169648.95000006072,169647.9700000491,169378.472,169361.44000012428,169395.101,169661.612,,49,without
screen,html.Screen,1_1_1_1_50,2021-04-12T10:40:33.858Z,,,,,,,,,,,,,,,,54,,,,,,,,,,,,,,273.0429999900225,,response,,,,100,,,,,,,Space,keypress(Space),,,,,,,,-- --- ---- --- ------ ----- ------- ---- -- --- ------- --<br>------- ---------- ------ -- ----- -- ----- -- ---- ------<br>--- ----- --- --- ------ -------- ----- --- ------ ----- --<br>----- ----- ---------- --- --- ------ ------ ---- -- ------<br>------- --- ------ ----- --- ---- ------- an ---- --- --<br>------- ------,169935.8600000851,169934.65499999002,169644.993,169649.22500005923,169661.612,169944.493,,50,an
screen,html.Screen,1_1_1_1_51,2021-04-12T10:40:34.188Z,,,,,,,,,,,,,,,,54,,,,,,,,,,,,,,320.89700007325155,,response,,,,100,,,,,,,Space,keypress(Space),,,,,,,,-- --- ---- --- ------ ----- ------- ---- -- --- ------- --<br>------- ---------- ------ -- ----- -- ----- -- ---- ------<br>--- ----- --- --- ------ -------- ----- --- ------ ----- --<br>----- ----- ---------- --- --- ------ ------ ---- -- ------<br>------- --- ------ ----- --- ---- ------- -- easy --- --<br>------- ------,170266.49000006728,170265.39000007324,169928.041,169936.1799999606,169944.493,170277.71,,51,easy
screen,html.Screen,1_1_1_1_52,2021-04-12T10:40:34.471Z,,,,,,,,,,,,,,,,54,,,,,,,,,,,,,,269.93500004240195,,response,,,,100,,,,,,,Space,keypress(Space),,,,,,,,-- --- ---- --- ------ ----- ------- ---- -- --- ------- --<br>------- ---------- ------ -- ----- -- ----- -- ---- ------<br>--- ----- --- --- ------ -------- ----- --- ------ ----- --<br>----- ----- ---------- --- --- ------ ------ ---- -- ------<br>------- --- ------ ----- --- ---- ------- -- ---- way --<br>------- ------,170548.57000010088,170547.6450000424,170261.021,170266.77999994718,170277.71,170560.751,,52,way
screen,html.Screen,1_1_1_1_53,2021-04-12T10:40:34.744Z,,,,,,,,,,,,,,,,54,,,,,,,,,,,,,,259.9389999640989,,response,,,,100,,,,,,,Space,keypress(Space),,,,,,,,-- --- ---- --- ------ ----- ------- ---- -- --- ------- --<br>------- ---------- ------ -- ----- -- ----- -- ---- ------<br>--- ----- --- --- ------ -------- ----- --- ------ ----- --<br>----- ----- ---------- --- --- ------ ------ ---- -- ------<br>------- --- ------ ----- --- ---- ------- -- ---- --- of<br>------- ------,170821.6300001368,170820.6899999641,170544.154,170548.8549999427,170560.751,170826.995,,53,of
screen,html.Screen,1_1_1_1_54,2021-04-12T10:40:35.046Z,,,,,,,,,,,,,,,,54,,,,,,,,,,,,,,295.5300000134157,,response,,,,100,,,,,,,Space,keypress(Space),,,,,,,,-- --- ---- --- ------ ----- ------- ---- -- --- ------- --<br>------- ---------- ------ -- ----- -- ----- -- ---- ------<br>--- ----- --- --- ------ -------- ----- --- ------ ----- --<br>----- ----- ---------- --- --- ------ ------ ---- -- ------<br>------- --- ------ ----- --- ---- ------- -- ---- --- --<br>raising ------,171123.75000002794,171122.5250000134,170810.484,170821.87999994494,170826.995,171126.771,,54,raising
screen,html.Screen,1_1_1_1_55,2021-04-12T10:40:35.282Z,,,,,,,,,,,,,,,,54,,,,,,,,,,,,,,232.60900003806455,,response,,,,100,,,,,,,Space,keypress(Space),,,,,,,,-- --- ---- --- ------ ----- ------- ---- -- --- ------- --<br>------- ---------- ------ -- ----- -- ----- -- ---- ------<br>--- ----- --- --- ------ -------- ----- --- ------ ----- --<br>----- ----- ---------- --- --- ------ ------ ---- -- ------<br>------- --- ------ ----- --- ---- ------- -- ---- --- --<br>------- money.,171360.34999997355,171359.38000003807,171110.216,171124.04999998398,171126.771,171376.527,,55,money.
Item 100,flow.Loop,1_1_1_1,2021-04-12T10:40:35.283Z,,,,,,,,,,,,,,,,,,,,,,,,,,,,,,19331.149000038073,,completion,,,,,A,,,,,,,,,,,silence,,,,,171360.81500002183,171359.38000003807,152011.538,152012.91000004858,152028.231,171376.527,,,
Question 1,html.Screen,1_1_1_2,2021-04-12T10:40:37.202Z,,,,,,,,,,,,,,,,,,,,,,,,,,,true,TRUE,,1902.0180001247209,,response,,,,100,A,,,,,,TRUE,click #choice-1,,,,silence,,,,,173279.63500004262,173278.54500012472,171359.992,171361.01500014775,171376.527,173291.42,,,
Question 2,html.Screen,1_1_1_3,2021-04-12T10:40:38.496Z,,,,,,,,,,,,,,,,,,,,,,,,,,,false,FALSE,,1281.4149999990186,,response,,,,100,A,,,,,,TRUE,click #choice-1,,,,silence,,,,,174573.97500006482,174572.83499999903,173274.838,173279.7749999445,173291.42,174590.238,,,
Item 100,flow.Sequence,1_1_1,2021-04-12T10:40:38.496Z,,,,,,,,,,,,,,,,,,,,,,,,,,,,,,32552.107999999018,,completion,,,,,,,,,,,,,,,,,,,,,174574.22000006773,174572.83499999903,142004.17,142011.94500015117,142020.727,174590.238,,,
End of Practice,html.Page,1_1_2,2021-04-12T10:40:41.883Z,,,,,,,,,,,,,,,,,,,,,,,,,,,,,,3370.3970001413254,,form submission,,,,,,,,,,,,,,,,,,,,,177960.94000013545,177960.63500014134,174573.594,174574.32000013068,174590.238,177970.478,,,
Practice,flow.Sequence,1_1,2021-04-12T10:40:41.883Z,,,,,,,,,,,,,,,,,,,,,,,,,,,,,,73404.72800014133,,completion,,,,,,,,,,,,,,,,,,,,,177961.13499999046,177960.63500014134,104539.477,104548.7500000745,104555.907,177970.478,,,
Trap_instruction,html.Page,1_2_0,2021-04-12T10:40:44.321Z,,,,,,,,,,,,,,,,,,,,,,,,,,,,,,2428.2220000197412,,form submission,,,,,,,,,,,,,,,,,,,,,180398.9049999509,180398.70000001974,177953.761,177961.2700000871,177970.478,180401.273,,,
trap_trial,html.Screen,1_2_1,2021-04-12T10:40:52.002Z,,,,,,,,,,,,,,,,,,,,,,,,,,,true,1,,7678.05200005701,,response,,,,,,,,,,,1,click #choice-1,,,,,,,,,188080.2150000818,188079.325000057,180384.815,180399.0299999714,180401.273,188094.136,,,
end of trap trial,html.Page,1_2_2,2021-04-12T10:40:53.259Z,,,,,,,,,,,,,,,,,,,,,,,,,,,,,,1243.15399993764,,form submission,,,,,,,,,,,,,,,,,,,,,189337.51500002109,189337.28999993764,188077.578,188080.35499998368,188094.136,189342.894,,,
Trap 1,flow.Sequence,1_2,2021-04-12T10:40:53.260Z,,,,,,,,,,,,,,,,,,,,,,,,,,,,,,11366.811999937636,,completion,,,,,,,,,,,,,,,,,,,,,189337.70000003278,189337.28999993764,177953.761,177961.23000001535,177970.478,189342.894,,,
Standby,html.Page,1_3_0,2021-04-12T10:41:01.242Z,,,,,,,,,,,,,,,,,,,,,,,,,,,,,,7992.527999999991,,timeout,,,,,,,,,,,,,,,,,,,,,197320.05500001833,197318.879,189326.347,189337.82500005327,189342.894,197335.422,,,
Holding screen,html.Screen,1_3_1_0_0,2021-04-12T10:41:08.235Z,,,,,,,,,,,,,,,,,,,,,,,,,,,,,,6993.641000000003,,timeout,,,,,,,,,,,,,,,,,,,,,204313.5000001639,204312.36,197318.879,197320.44000015594,197335.422,204329.063,,,
screen,html.Screen,1_3_1_0_1_0,2021-04-12T10:41:09.134Z,,,,,,,,,,,,,,,,51,,,,,,,,,,,,,,881.9620000841969,,response,,,,13,A,,,,,,Space,keypress(Space),,,,silence,,,,American -------- --- --- ---- --- --- ------ -- --------<br>---- --------- --- ------- ------------ ---------- ---------<br>--- ---------- ------- ---------- ------- -- -------- ----<br>---- --- ------ ----- ------ -- ---- --- ----- -- - -------<br>-------- -- --- --- -- ----- ----------- ----- -----------<br>---- --- ---------- --- ---- --- -- ----------,205211.79500012659,205211.0250000842,204312.36,204313.86999995448,204329.063,205244.809,,0,American
screen,html.Screen,1_3_1_0_1_1,2021-04-12T10:41:09.475Z,,,,,,,,,,,,,,,,51,,,,,,,,,,,,,,306.7709999702638,,response,,,,13,A,,,,,,Space,keypress(Space),,,,silence,,,,-------- industry --- --- ---- --- --- ------ -- --------<br>---- --------- --- ------- ------------ ---------- ---------<br>--- ---------- ------- ---------- ------- -- -------- ----<br>---- --- ------ ----- ------ -- ---- --- ----- -- - -------<br>-------- -- --- --- -- ----- ----------- ----- -----------<br>---- --- ---------- --- ---- --- -- ----------,205552.58499993943,205551.57999997027,205227.957,205211.9750001002,205244.809,205561.118,,1,industry
screen,html.Screen,1_3_1_0_1_2,2021-04-12T10:41:09.811Z,,,,,,,,,,,,,,,,51,,,,,,,,,,,,,,326.6470001086418,,response,,,,13,A,,,,,,Space,keypress(Space),,,,silence,,,,-------- -------- may --- ---- --- --- ------ -- --------<br>---- --------- --- ------- ------------ ---------- ---------<br>--- ---------- ------- ---------- ------- -- -------- ----<br>---- --- ------ ----- ------ -- ---- --- ----- -- - -------<br>-------- -- --- --- -- ----- ----------- ----- -----------<br>---- --- ---------- --- ---- --- -- ----------,205888.74500012025,205887.76500010863,205544.534,205552.84500005655,205561.118,205894.064,,2,may
screen,html.Screen,1_3_1_0_1_3,2021-04-12T10:41:10.116Z,,,,,,,,,,,,,,,,51,,,,,,,,,,,,,,299.0259999569971,,response,,,,13,A,,,,,,Space,keypress(Space),,,,silence,,,,-------- -------- --- not ---- --- --- ------ -- --------<br>---- --------- --- ------- ------------ ---------- ---------<br>--- ---------- ------- ---------- ------- -- -------- ----<br>---- --- ------ ----- ------ -- ---- --- ----- -- - -------<br>-------- -- --- --- -- ----- ----------- ----- -----------<br>---- --- ---------- --- ---- --- -- ----------,206194.2600000184,206193.089999957,205877.518,205888.99999996647,205894.064,206210.618,,3,not
screen,html.Screen,1_3_1_0_1_4,2021-04-12T10:41:10.470Z,,,,,,,,,,,,,,,,51,,,,,,,,,,,,,,336.33200010543806,,response,,,,13,A,,,,,,Space,keypress(Space),,,,silence,,,,-------- -------- --- --- know --- --- ------ -- --------<br>---- --------- --- ------- ------------ ---------- ---------<br>--- ---------- ------- ---------- ------- -- -------- ----<br>---- --- ------ ----- ------ -- ---- --- ----- -- - -------<br>-------- -- --- --- -- ----- ----------- ----- -----------<br>---- --- ---------- --- ---- --- -- ----------,206547.99500014633,206546.95000010543,206193.895,206194.51500009745,206210.618,206560.288,,4,know
screen,html.Screen,1_3_1_0_1_5,2021-04-12T10:41:10.775Z,,,,,,,,,,,,,,,,51,,,,,,,,,,,,,,291.7320001075859,,response,,,,13,A,,,,,,Space,keypress(Space),,,,silence,,,,"-------- -------- --- --- ---- it, --- ------ -- --------<br>---- --------- --- ------- ------------ ---------- ---------<br>--- ---------- ------- ---------- ------- -- -------- ----<br>---- --- ------ ----- ------ -- ---- --- ----- -- - -------<br>-------- -- --- --- -- ----- ----------- ----- -----------<br>---- --- ---------- --- ---- --- -- ----------",206853.08500006795,206852.0200001076,206543.63,206548.24999999255,206560.288,206859.782,,5,"it,"
screen,html.Screen,1_3_1_0_1_6,2021-04-12T10:41:11.150Z,,,,,,,,,,,,,,,,51,,,,,,,,,,,,,,367.18799995968584,,response,,,,13,A,,,,,,Space,keypress(Space),,,,silence,,,,-------- -------- --- --- ---- --- but ------ -- --------<br>---- --------- --- ------- ------------ ---------- ---------<br>--- ---------- ------- ---------- ------- -- -------- ----<br>---- --- ------ ----- ------ -- ---- --- ----- -- - -------<br>-------- -- --- --- -- ----- ----------- ----- -----------<br>---- --- ---------- --- ---- --- -- ----------,207228.0150000006,207226.9699999597,206843.331,206853.3550000284,206859.782,207242.946,,6,but
screen,html.Screen,1_3_1_0_1_7,2021-04-12T10:41:11.411Z,,,,,,,,,,,,,,,,51,,,,,,,,,,,,,,245.00900001870468,,response,,,,13,A,,,,,,Space,keypress(Space),,,,silence,,,,-------- -------- --- --- ---- --- --- debate -- --------<br>---- --------- --- ------- ------------ ---------- ---------<br>--- ---------- ------- ---------- ------- -- -------- ----<br>---- --- ------ ----- ------ -- ---- --- ----- -- - -------<br>-------- -- --- --- -- ----- ----------- ----- -----------<br>---- --- ---------- --- ---- --- -- ----------,207489.0000000596,207487.9550000187,207226.294,207228.29500003718,207242.946,207492.504,,7,debate
screen,html.Screen,1_3_1_0_1_8,2021-04-12T10:41:11.708Z,,,,,,,,,,,,,,,,51,,,,,,,,,,,,,,292.8010001431394,,response,,,,13,A,,,,,,Space,keypress(Space),,,,silence,,,,-------- -------- --- --- ---- --- --- ------ in --------<br>---- --------- --- ------- ------------ ---------- ---------<br>--- ---------- ------- ---------- ------- -- -------- ----<br>---- --- ------ ----- ------ -- ---- --- ----- -- - -------<br>-------- -- --- --- -- ----- ----------- ----- -----------<br>---- --- ---------- --- ---- --- -- ----------,207786.40500013717,207785.30500014313,207476.091,207489.28500013426,207492.504,207792.255,,8,in
screen,html.Screen,1_3_1_0_1_9,2021-04-12T10:41:11.978Z,,,,,,,,,,,,,,,,51,,,,,,,,,,,,,,262.62499995238613,,response,,,,13,A,,,,,,Space,keypress(Space),,,,silence,,,,-------- -------- --- --- ---- --- --- ------ -- Congress<br>---- --------- --- ------- ------------ ---------- ---------<br>--- ---------- ------- ---------- ------- -- -------- ----<br>---- --- ------ ----- ------ -- ---- --- ----- -- - -------<br>-------- -- --- --- -- ----- ----------- ----- -----------<br>---- --- ---------- --- ---- --- -- ----------,208055.74500001967,208054.8799999524,207775.667,207786.689999979,207792.255,208058.709,,9,Congress
screen,html.Screen,1_3_1_0_1_10,2021-04-12T10:41:12.322Z,,,,,,,,,,,,,,,,51,,,,,,,,,,,,,,340.4660001441662,,response,,,,13,A,,,,,,Space,keypress(Space),,,,silence,,,,-------- -------- --- --- ---- --- --- ------ -- --------<br>over --------- --- ------- ------------ ---------- ---------<br>--- ---------- ------- ---------- ------- -- -------- ----<br>---- --- ------ ----- ------ -- ---- --- ----- -- - -------<br>-------- -- --- --- -- ----- ----------- ----- -----------<br>---- --- ---------- --- ---- --- -- ----------,208400.20000003278,208399.17500014417,208042.139,208056.0149999801,208058.709,208408.38,,10,over
screen,html.Screen,1_3_1_0_1_11,2021-04-12T10:41:12.620Z,,,,,,,,,,,,,,,,51,,,,,,,,,,,,,,288.2150001031114,,response,,,,13,A,,,,,,Space,keypress(Space),,,,silence,,,,-------- -------- --- --- ---- --- --- ------ -- --------<br>---- reforming --- ------- ------------ ---------- ---------<br>--- ---------- ------- ---------- ------- -- -------- ----<br>---- --- ------ ----- ------ -- ---- --- ----- -- - -------<br>-------- -- --- --- -- ----- ----------- ----- -----------<br>---- --- ---------- --- ---- --- -- ----------,208697.70499994047,208696.59500010312,208391.821,208400.51000006497,208408.38,208708.21,,11,reforming
screen,html.Screen,1_3_1_0_1_12,2021-04-12T10:41:12.937Z,,,,,,,,,,,,,,,,51,,,,,,,,,,,,,,305.6600001407496,,response,,,,13,A,,,,,,Space,keypress(Space),,,,silence,,,,-------- -------- --- --- ---- --- --- ------ -- --------<br>---- --------- the ------- ------------ ---------- ---------<br>--- ---------- ------- ---------- ------- -- -------- ----<br>---- --- ------ ----- ------ -- ---- --- ----- -- - -------<br>-------- -- --- --- -- ----- ----------- ----- -----------<br>---- --- ---------- --- ---- --- -- ----------,209014.88000014797,209013.87000014074,208691.55,208697.95499998145,208708.21,209024.484,,12,the
screen,html.Screen,1_3_1_0_1_13,2021-04-12T10:41:13.344Z,,,,,,,,,,,,,,,,51,,,,,,,,,,,,,,396.49599993712036,,response,,,,13,A,,,,,,Space,keypress(Space),,,,silence,,,,-------- -------- --- --- ---- --- --- ------ -- --------<br>---- --------- --- federal ------------ ---------- ---------<br>--- ---------- ------- ---------- ------- -- -------- ----<br>---- --- ------ ----- ------ -- ---- --- ----- -- - -------<br>-------- -- --- --- -- ----- ----------- ----- -----------<br>---- --- ---------- --- ---- --- -- ----------,209422.0000000205,209420.97999993712,209007.974,209015.12500015087,209024.484,209424.047,,13,federal
screen,html.Screen,1_3_1_0_1_14,2021-04-12T10:41:13.657Z,,,,,,,,,,,,,,,,51,,,,,,,,,,,,,,309.94300009522703,,response,,,,13,A,,,,,,Space,keypress(Space),,,,silence,,,,-------- -------- --- --- ---- --- --- ------ -- --------<br>---- --------- --- ------- government's ---------- ---------<br>--- ---------- ------- ---------- ------- -- -------- ----<br>---- --- ------ ----- ------ -- ---- --- ----- -- - -------<br>-------- -- --- --- -- ----- ----------- ----- -----------<br>---- --- ---------- --- ---- --- -- ----------,209735.01499998383,209733.99000009522,209407.61,209422.25500009954,209424.047,209740.43,,14,government's
screen,html.Screen,1_3_1_0_1_15,2021-04-12T10:41:14.056Z,,,,,,,,,,,,,,,,51,,,,,,,,,,,,,,392.95000001386506,,response,,,,13,A,,,,,,Space,keypress(Space),,,,silence,,,,-------- -------- --- --- ---- --- --- ------ -- --------<br>---- --------- --- ------- ------------ regulatory ---------<br>--- ---------- ------- ---------- ------- -- -------- ----<br>---- --- ------ ----- ------ -- ---- --- ----- -- - -------<br>-------- -- --- --- -- ----- ----------- ----- -----------<br>---- --- ---------- --- ---- --- -- ----------,210134.4200000167,210133.38000001386,209723.914,209735.30500009656,209740.43,210140.067,,15,regulatory
screen,html.Screen,1_3_1_0_1_16,2021-04-12T10:41:14.410Z,,,,,,,,,,,,,,,,51,,,,,,,,,,,,,,347.4130001270969,,response,,,,13,A,,,,,,Space,keypress(Space),,,,silence,,,,-------- -------- --- --- ---- --- --- ------ -- --------<br>---- --------- --- ------- ------------ ---------- apparatus<br>--- ---------- ------- ---------- ------- -- -------- ----<br>---- --- ------ ----- ------ -- ---- --- ----- -- - -------<br>-------- -- --- --- -- ----- ----------- ----- -----------<br>---- --- ---------- --- ---- --- -- ----------,210488.21999994107,210487.4800001271,210123.551,210134.6800001338,210140.067,210519.872,,16,apparatus
screen,html.Screen,1_3_1_0_1_17,2021-04-12T10:41:14.824Z,,,,,,,,,,,,,,,,51,,,,,,,,,,,,,,381.2379999770492,,response,,,,13,A,,,,,,Space,keypress(Space),,,,silence,,,,-------- -------- --- --- ---- --- --- ------ -- --------<br>---- --------- --- ------- ------------ ---------- ---------<br>may ---------- ------- ---------- ------- -- -------- ----<br>---- --- ------ ----- ------ -- ---- --- ----- -- - -------<br>-------- -- --- --- -- ----- ----------- ----- -----------<br>---- --- ---------- --- ---- --- -- ----------,210902.06500003114,210901.10999997705,210473.208,210488.34999999963,210519.872,210906.006,,17,may
screen,html.Screen,1_3_1_0_1_18,2021-04-12T10:41:15.173Z,,,,,,,,,,,,,,,,51,,,,,,,,,,,,,,343.96900004247436,,response,,,,13,A,,,,,,Space,keypress(Space),,,,silence,,,,-------- -------- --- --- ---- --- --- ------ -- --------<br>---- --------- --- ------- ------------ ---------- ---------<br>--- profoundly ------- ---------- ------- -- -------- ----<br>---- --- ------ ----- ------ -- ---- --- ----- -- - -------<br>-------- -- --- --- -- ----- ----------- ----- -----------<br>---- --- ---------- --- ---- --- -- ----------,211251.200000057,211249.97500004247,210889.473,210902.3200001102,210906.006,211255.617,,18,profoundly
screen,html.Screen,1_3_1_0_1_19,2021-04-12T10:41:15.564Z,,,,,,,,,,,,,,,,51,,,,,,,,,,,,,,384.9129999751167,,response,,,,13,A,,,,,,Space,keypress(Space),,,,silence,,,,-------- -------- --- --- ---- --- --- ------ -- --------<br>---- --------- --- ------- ------------ ---------- ---------<br>--- ---------- improve ---------- ------- -- -------- ----<br>---- --- ------ ----- ------ -- ---- --- ----- -- - -------<br>-------- -- --- --- -- ----- ----------- ----- -----------<br>---- --- ---------- --- ---- --- -- ----------,211641.68500015512,211640.52999997512,211239.156,211251.48500013165,211255.617,211655.495,,19,improve
screen,html.Screen,1_3_1_0_1_20,2021-04-12T10:41:15.887Z,,,,,,,,,,,,,,,,51,,,,,,,,,,,,,,308.55500006780494,,response,,,,13,A,,,,,,Space,keypress(Space),,,,silence,,,,-------- -------- --- --- ---- --- --- ------ -- --------<br>---- --------- --- ------- ------------ ---------- ---------<br>--- ---------- ------- companies' ------- -- -------- ----<br>---- --- ------ ----- ------ -- ---- --- ----- -- - -------<br>-------- -- --- --- -- ----- ----------- ----- -----------<br>---- --- ---------- --- ---- --- -- ----------,211964.9849999696,211964.0500000678,211638.825,211641.99499995448,211655.495,211971.644,,20,companies'
screen,html.Screen,1_3_1_0_1_21,2021-04-12T10:41:16.218Z,,,,,,,,,,,,,,,,51,,,,,,,,,,,,,,323.7859999400971,,response,,,,13,A,,,,,,Space,keypress(Space),,,,silence,,,,-------- -------- --- --- ---- --- --- ------ -- --------<br>---- --------- --- ------- ------------ ---------- ---------<br>--- ---------- ------- ---------- ability -- -------- ----<br>---- --- ------ ----- ------ -- ---- --- ----- -- - -------<br>-------- -- --- --- -- ----- ----------- ----- -----------<br>---- --- ---------- --- ---- --- -- ----------,212296.22000013478,212295.4299999401,211955.199,211965.24000004865,211971.644,212304.799,,21,ability
screen,html.Screen,1_3_1_0_1_22,2021-04-12T10:41:16.535Z,,,,,,,,,,,,,,,,51,,,,,,,,,,,,,,307.3360000612447,,response,,,,13,A,,,,,,Space,keypress(Space),,,,silence,,,,-------- -------- --- --- ---- --- --- ------ -- --------<br>---- --------- --- ------- ------------ ---------- ---------<br>--- ---------- ------- ---------- ------- to -------- ----<br>---- --- ------ ----- ------ -- ---- --- ----- -- - -------<br>-------- -- --- --- -- ----- ----------- ----- -----------<br>---- --- ---------- --- ---- --- -- ----------,212613.06000011973,212612.13500006124,212288.164,212296.32500000298,212304.799,212621.134,,22,to
screen,html.Screen,1_3_1_0_1_23,2021-04-12T10:41:16.838Z,,,,,,,,,,,,,,,,51,,,,,,,,,,,,,,293.866000037262,,response,,,,13,A,,,,,,Space,keypress(Space),,,,silence,,,,-------- -------- --- --- ---- --- --- ------ -- --------<br>---- --------- --- ------- ------------ ---------- ---------<br>--- ---------- ------- ---------- ------- -- survive. ----<br>---- --- ------ ----- ------ -- ---- --- ----- -- - -------<br>-------- -- --- --- -- ----- ----------- ----- -----------<br>---- --- ---------- --- ---- --- -- ----------,212915.9950001631,212915.00000003725,212604.578,212613.31499996595,212621.134,212920.745,,23,survive.
screen,html.Screen,1_3_1_0_1_24,2021-04-12T10:41:17.266Z,,,,,,,,,,,,,,,,51,,,,,,,,,,,,,,422.1350001274841,,response,,,,13,A,,,,,,Space,keypress(Space),,,,silence,,,,-------- -------- --- --- ---- --- --- ------ -- --------<br>---- --------- --- ------- ------------ ---------- ---------<br>--- ---------- ------- ---------- ------- -- -------- This<br>---- --- ------ ----- ------ -- ---- --- ----- -- - -------<br>-------- -- --- --- -- ----- ----------- ----- -----------<br>---- --- ---------- --- ---- --- -- ----------,213343.80499995314,213342.88000012748,212904.235,212916.28000000492,212920.745,213353.912,,24,This
screen,html.Screen,1_3_1_0_1_25,2021-04-12T10:41:17.584Z,,,,,,,,,,,,,,,,51,,,,,,,,,,,,,,307.18800014304,,response,,,,13,A,,,,,,Space,keypress(Space),,,,silence,,,,-------- -------- --- --- ---- --- --- ------ -- --------<br>---- --------- --- ------- ------------ ---------- ---------<br>--- ---------- ------- ---------- ------- -- -------- ----<br>week --- ------ ----- ------ -- ---- --- ----- -- - -------<br>-------- -- --- --- -- ----- ----------- ----- -----------<br>---- --- ---------- --- ---- --- -- ----------,213662.24500001408,213661.10000014305,213337.186,213344.0549999941,213353.912,213670.03,,25,week
screen,html.Screen,1_3_1_0_1_26,2021-04-12T10:41:17.814Z,,,,,,,,,,,,,,,,51,,,,,,,,,,,,,,219.88000014357385,,response,,,,13,A,,,,,,Space,keypress(Space),,,,silence,,,,-------- -------- --- --- ---- --- --- ------ -- --------<br>---- --------- --- ------- ------------ ---------- ---------<br>--- ---------- ------- ---------- ------- -- -------- ----<br>---- the ------ ----- ------ -- ---- --- ----- -- - -------<br>-------- -- --- --- -- ----- ----------- ----- -----------<br>---- --- ---------- --- ---- --- -- ----------,213891.65999996476,213889.91000014357,213653.602,213662.53000008874,213670.03,213903.17,,26,the
screen,html.Screen,1_3_1_0_1_27,2021-04-12T10:41:18.266Z,,,,,,,,,,,,,,,,51,,,,,,,,,,,,,,439.8600001054874,,response,,,,13,A,,,,,,Space,keypress(Space),,,,silence,,,,-------- -------- --- --- ---- --- --- ------ -- --------<br>---- --------- --- ------- ------------ ---------- ---------<br>--- ---------- ------- ---------- ------- -- -------- ----<br>---- --- Senate ----- ------ -- ---- --- ----- -- - -------<br>-------- -- --- --- -- ----- ----------- ----- -----------<br>---- --- ---------- --- ---- --- -- ----------,214344.0549999941,214343.0300001055,213886.451,213892.02999998815,213903.17,214352.808,,27,Senate
screen,html.Screen,1_3_1_0_1_28,2021-04-12T10:41:18.508Z,,,,,,,,,,,,,,,,51,,,,,,,,,,,,,,232.48700011355686,,response,,,,13,A,,,,,,Space,keypress(Space),,,,silence,,,,-------- -------- --- --- ---- --- --- ------ -- --------<br>---- --------- --- ------- ------------ ---------- ---------<br>--- ---------- ------- ---------- ------- -- -------- ----<br>---- --- ------ seems ------ -- ---- --- ----- -- - -------<br>-------- -- --- --- -- ----- ----------- ----- -----------<br>---- --- ---------- --- ---- --- -- ----------,214586.20000001974,214585.29500011355,214336.247,214344.29999999702,214352.808,214602.73,,28,seems
screen,html.Screen,1_3_1_0_1_29,2021-04-12T10:41:19.003Z,,,,,,,,,,,,,,,,51,,,,,,,,,,,,,,477.3850000188395,,response,,,,13,A,,,,,,Space,keypress(Space),,,,silence,,,,-------- -------- --- --- ---- --- --- ------ -- --------<br>---- --------- --- ------- ------------ ---------- ---------<br>--- ---------- ------- ---------- ------- -- -------- ----<br>---- --- ------ ----- poised -- ---- --- ----- -- - -------<br>-------- -- --- --- -- ----- ----------- ----- -----------<br>---- --- ---------- --- ---- --- -- ----------,215081.26500016078,215080.11500001885,214585.996,214586.4550000988,214602.73,215085.391,,29,poised
screen,html.Screen,1_3_1_0_1_30,2021-04-12T10:41:19.233Z,,,,,,,,,,,,,,,,51,,,,,,,,,,,,,,224.0240000251797,,response,,,,13,A,,,,,,Space,keypress(Space),,,,silence,,,,-------- -------- --- --- ---- --- --- ------ -- --------<br>---- --------- --- ------- ------------ ---------- ---------<br>--- ---------- ------- ---------- ------- -- -------- ----<br>---- --- ------ ----- ------ to ---- --- ----- -- - -------<br>-------- -- --- --- -- ----- ----------- ----- -----------<br>---- --- ---------- --- ---- --- -- ----------,215310.61500008218,215309.41500002518,215068.946,215081.57499996014,215085.391,215318.554,,30,to
screen,html.Screen,1_3_1_0_1_31,2021-04-12T10:41:19.540Z,,,,,,,,,,,,,,,,51,,,,,,,,,,,,,,298.6610000929795,,response,,,,13,A,,,,,,Space,keypress(Space),,,,silence,,,,-------- -------- --- --- ---- --- --- ------ -- --------<br>---- --------- --- ------- ------------ ---------- ---------<br>--- ---------- ------- ---------- ------- -- -------- ----<br>---- --- ------ ----- ------ -- join --- ----- -- - -------<br>-------- -- --- --- -- ----- ----------- ----- -----------<br>---- --- ---------- --- ---- --- -- ----------,215618.20499994792,215617.21500009298,215302.007,215310.92500011437,215318.554,215634.965,,31,join
screen,html.Screen,1_3_1_0_1_32,2021-04-12T10:41:19.858Z,,,,,,,,,,,,,,,,51,,,,,,,,,,,,,,299.6050000412797,,response,,,,13,A,,,,,,Space,keypress(Space),,,,silence,,,,-------- -------- --- --- ---- --- --- ------ -- --------<br>---- --------- --- ------- ------------ ---------- ---------<br>--- ---------- ------- ---------- ------- -- -------- ----<br>---- --- ------ ----- ------ -- ---- the ----- -- - -------<br>-------- -- --- --- -- ----- ----------- ----- -----------<br>---- --- ---------- --- ---- --- -- ----------,215935.54500001483,215934.57000004128,215618.368,215618.46000002697,215634.965,215951.354,,32,the
screen,html.Screen,1_3_1_0_1_33,2021-04-12T10:41:20.226Z,,,,,,,,,,,,,,,,51,,,,,,,,,,,,,,351.23599997750716,,response,,,,13,A,,,,,,Space,keypress(Space),,,,silence,,,,-------- -------- --- --- ---- --- --- ------ -- --------<br>---- --------- --- ------- ------------ ---------- ---------<br>--- ---------- ------- ---------- ------- -- -------- ----<br>---- --- ------ ----- ------ -- ---- --- House -- - -------<br>-------- -- --- --- -- ----- ----------- ----- -----------<br>---- --- ---------- --- ---- --- -- ----------,216303.56499995105,216302.5899999775,215934.797,215935.77000009827,215951.354,216317.784,,33,House
screen,html.Screen,1_3_1_0_1_34,2021-04-12T10:41:20.614Z,,,,,,,,,,,,,,,,51,,,,,,,,,,,,,,372.71099998799036,,response,,,,13,A,,,,,,Space,keypress(Space),,,,silence,,,,-------- -------- --- --- ---- --- --- ------ -- --------<br>---- --------- --- ------- ------------ ---------- ---------<br>--- ---------- ------- ---------- ------- -- -------- ----<br>---- --- ------ ----- ------ -- ---- --- ----- in - -------<br>-------- -- --- --- -- ----- ----------- ----- -----------<br>---- --- ---------- --- ---- --- -- ----------,216691.52999995276,216690.494999988,216301.07,216303.86500013992,216317.784,216700.704,,34,in
screen,html.Screen,1_3_1_0_1_35,2021-04-12T10:41:20.902Z,,,,,,,,,,,,,,,,51,,,,,,,,,,,,,,278.62600000193925,,response,,,,13,A,,,,,,Space,keypress(Space),,,,silence,,,,-------- -------- --- --- ---- --- --- ------ -- --------<br>---- --------- --- ------- ------------ ---------- ---------<br>--- ---------- ------- ---------- ------- -- -------- ----<br>---- --- ------ ----- ------ -- ---- --- ----- -- a -------<br>-------- -- --- --- -- ----- ----------- ----- -----------<br>---- --- ---------- --- ---- --- -- ----------,216980.3049999755,216979.33000000194,216684.029,216691.8200000655,216700.704,216983.638,,35,a
screen,html.Screen,1_3_1_0_1_36,2021-04-12T10:41:21.316Z,,,,,,,,,,,,,,,,51,,,,,,,,,,,,,,408.75699997346965,,response,,,,13,A,,,,,,Space,keypress(Space),,,,silence,,,,-------- -------- --- --- ---- --- --- ------ -- --------<br>---- --------- --- ------- ------------ ---------- ---------<br>--- ---------- ------- ---------- ------- -- -------- ----<br>---- --- ------ ----- ------ -- ---- --- ----- -- - massive<br>-------- -- --- --- -- ----- ----------- ----- -----------<br>---- --- ---------- --- ---- --- -- ----------,217393.5450001154,217392.39499997348,216967.112,216980.5499999784,216983.638,217399.9,,36,massive
screen,html.Screen,1_3_1_0_1_37,2021-04-12T10:41:21.657Z,,,,,,,,,,,,,,,,51,,,,,,,,,,,,,,333.5950000513403,,response,,,,13,A,,,,,,Space,keypress(Space),,,,silence,,,,-------- -------- --- --- ---- --- --- ------ -- --------<br>---- --------- --- ------- ------------ ---------- ---------<br>--- ---------- ------- ---------- ------- -- -------- ----<br>---- --- ------ ----- ------ -- ---- --- ----- -- - -------<br>overhaul -- --- --- -- ----- ----------- ----- -----------<br>---- --- ---------- --- ---- --- -- ----------,217734.57500012591,217733.49500005133,217383.378,217394.04499996454,217399.9,217749.707,,37,overhaul
