sender,sender_type,sender_id,timestamp,meta,,Blues,Classical,Country,Dance,Electronic,Folk,Gospel,Hip-Hop,Jazz,Latin,Musical/Film,New-age,Pop,Provo_ID,R&B,Rap,Reggae,Religious,Rock,Soul,Swing,Traditional,age,artist_name,correct,correctResponse,distraction,duration,education,ended_on,familiarity,gender,headphone_check_performance,item,list,music_frequency,offensiveness,pleasantness,position_correct,preference,response,response_action,snippet_file,song_name,song_rating,sound,stimulus_1,stimulus_2,stimulus_3,text,time_commit,time_end,time_render,time_run,time_show,time_switch,url,word,word_ID
Introduction,html.Screen,0_0,2021-04-15T07:54:59.316Z,"{""labjs_version"":""20.2.2"",""labjs_build"":{""flavor"":""production"",""commit"":""a25486e0c714a0ae2ce03ff94b7bb6896854dcfa""},""location"":""https://run.pavlovia.org/mvasilev/music_a/"",""userAgent"":""Mozilla/5.0 (Windows NT 10.0; Win64; x64) AppleWebKit/537.36 (KHTML, like Gecko) Chrome/89.0.4389.114 Safari/537.36 Edg/89.0.774.75"",""platform"":""Win32"",""language"":""en-GB"",""locale"":""en-GB"",""timeZone"":""Europe/London"",""timezoneOffset"":-60,""screen_width"":1280,""screen_height"":720,""scroll_width"":1280,""scroll_height"":562,""window_innerWidth"":1280,""window_innerHeight"":610,""devicePixelRatio"":1.5}",,,,,,,,,,,,,,,,,,,,,,,,,,,,,8894.00199988675,,response,,,,,,,,,,,continue,click button,,,,,,,,,15617.194999940693,15614.649999886751,6703.798,6709.219999611378,6720.648,15630.033,{},,
Volume calibration,html.Screen,0_1,2021-04-15T07:55:31.844Z,,,,,,,,,,,,,,,,,,,,,,,,,,,,,,32512.486999761135,,response,,,,,,,,,,,continue,click button,,,,,,,,,48145.68499987945,48142.519999761134,15613.404,15617.649999912828,15630.033,48169.91,,,
Task instructions,html.Screen,0_2,2021-04-15T07:56:14.574Z,,,,,,,,,,,,,,,,,,,,,,,,,,,,,,42703.46999977171,,response,,,,,,,,,,,continue,click button,,,,,,,,,90875.10499963537,90873.37999977171,48153.354,48145.87999973446,48169.91,90884.736,,,
Sounds,html.Screen,0_3_0_0,2021-04-15T07:56:18.837Z,,,,,,,,,,,,,,,,,,,,,,,,,,,,,,4279.932000000001,,timeout,,,,,,,,,1,,,,,,,,S,I,O,,95137.36000005156,95114.723,90868.174,90875.51499996334,90884.736,95164.668,,,
Judgement,html.Screen,0_3_0_1,2021-04-15T07:56:20.807Z,,,,,,,,,,,,,,,,,,,,,,,,,,,true,1,,1935.231999797339,,response,,,,,,,,,1,,1,click #choice-1,,,,,S,I,O,,97107.62999998406,97099.89999979734,95114.723,95138.93499970436,95164.668,97129.782,,,
Trial,flow.Sequence,0_3_0,2021-04-15T07:56:20.811Z,,,,,,,,,,,,,,,,,,,,,,,,,,,,,,6215.16399979734,,completion,,,,,,,,,1,,,,,,,,S,I,O,,97111.72499973327,97099.89999979734,90868.174,90875.4300000146,90884.736,97129.782,,,
Sounds,html.Screen,0_3_1_0,2021-04-15T07:56:25.059Z,,,,,,,,,,,,,,,,,,,,,,,,,,,,,,4246.390999999989,,timeout,,,,,,,,,1,,,,,,,,S,O,I,,101360.04499997944,101359.407,97113.293,97113.34499996156,97129.782,101376.173,,,
Judgement,html.Screen,0_3_1_1,2021-04-15T07:56:25.779Z,,,,,,,,,,,,,,,,,,,,,,,,,,,true,1,,702.2419998799014,,response,,,,,,,,,1,,1,click #choice-1,,,,,S,O,I,,102079.89999977872,102078.4149998799,101359.407,101360.12999992818,101376.173,102109.055,,,
Trial,flow.Sequence,0_3_1,2021-04-15T07:56:25.780Z,,,,,,,,,,,,,,,,,,,,,,,,,,,,,,4948.63299987989,,completion,,,,,,,,,1,,,,,,,,S,O,I,,102080.24499984458,102078.4149998799,97113.293,97112.7649997361,97129.782,102109.055,,,
Sounds,html.Screen,0_3_2_0,2021-04-15T07:56:30.040Z,,,,,,,,,,,,,,,,,,,,,,,,,,,,,,4246.357000000004,,timeout,,,,,,,,,2,,,,,,,,O,S,I,,106340.28499992564,106339.015,102092.384,102080.46499965712,102109.055,106355.412,,,
Judgement,html.Screen,0_3_2_1,2021-04-15T07:56:30.840Z,,,,,,,,,,,,,,,,,,,,,,,,,,,true,2,,783.3129999679659,,response,,,,,,,,,2,,2,click #choice-2,,,,,O,S,I,,107140.3299998492,107138.72499996796,106339.015,106340.55999992415,106355.412,107154.742,,,
Trial,flow.Sequence,0_3_2,2021-04-15T07:56:30.840Z,,,,,,,,,,,,,,,,,,,,,,,,,,,,,,5029.6699999679695,,completion,,,,,,,,,2,,,,,,,,O,S,I,,107140.73999971151,107138.72499996796,102092.384,102080.39500005543,102109.055,107154.742,,,
Sounds,html.Screen,0_3_3_0,2021-04-15T07:56:35.085Z,,,,,,,,,,,,,,,,,,,,,,,,,,,,,,4246.766000000003,,timeout,,,,,,,,,2,,,,,,,,I,S,O,,111385.35499991849,111384.551,107138.31,107141.00999990478,107154.742,111401.508,,,
Judgement,html.Screen,0_3_3_1,2021-04-15T07:56:35.518Z,,,,,,,,,,,,,,,,,,,,,,,,,,,true,2,,416.0219996510132,,response,,,,,,,,,2,,2,click #choice-2,,,,,I,S,O,,111819.12999972701,111817.52999965101,111384.551,111385.44499967247,111401.508,111834.325,,,
Trial,flow.Sequence,0_3_3,2021-04-15T07:56:35.519Z,,,,,,,,,,,,,,,,,,,,,,,,,,,,,,4662.787999651016,,completion,,,,,,,,,2,,,,,,,,I,S,O,,111819.45499964058,111817.52999965101,107138.31,107140.92499995604,107154.742,111834.325,,,
Sounds,html.Screen,0_3_4_0,2021-04-15T07:56:39.768Z,,,,,,,,,,,,,,,,,,,,,,,,,,,,,,4246.525000000009,,timeout,,,,,,,,,3,,,,,,,,O,I,S,,116068.29499965534,116064.319,111817.745,111819.6600000374,111834.325,116080.85,,,
Judgement,html.Screen,0_3_4_1,2021-04-15T07:56:40.244Z,,,,,,,,,,,,,,,,,,,,,,,,,,,true,3,,459.4349996462406,,response,,,,,,,,,3,,3,click #choice-3,,,,,O,I,S,,116544.9999999255,116540.28499964625,116064.319,116069.35499981046,116080.85,116563.846,,,
Trial,flow.Sequence,0_3_4,2021-04-15T07:56:40.246Z,,,,,,,,,,,,,,,,,,,,,,,,,,,,,,4705.959999646249,,completion,,,,,,,,,3,,,,,,,,O,I,S,,116546.69999983162,116540.28499964625,111817.745,111819.6000000462,111834.325,116563.846,,,
Sounds,html.Screen,0_3_5_0,2021-04-15T07:56:44.494Z,,,,,,,,,,,,,,,,,,,,,,,,,,,,,,4246.6630000000005,,timeout,,,,,,,,,3,,,,,,,,I,O,S,,120795.08999967948,120793.655,116547.201,116548.32999967039,116563.846,120810.509,,,
Judgement,html.Screen,0_3_5_1,2021-04-15T07:56:44.976Z,,,,,,,,,,,,,,,,,,,,,,,,,,,true,3,,464.17600006943394,,response,,,,,,,,,3,,3,click #choice-3,,,,,I,O,S,,121276.19499992579,121274.68500006944,120793.655,120795.33499991521,120810.509,121299.373,,,
Trial,flow.Sequence,0_3_5,2021-04-15T07:56:44.976Z,,,,,,,,,,,,,,,,,,,,,,,,,,,,,,4710.839000069434,,completion,,,,,,,,,3,,,,,,,,I,O,S,,121276.56499994919,121274.68500006944,116547.201,116547.68499964848,116563.846,121299.373,,,
Task,flow.Loop,0_3,2021-04-15T07:56:44.981Z,,,,,,,,,,,,,,,,,,,,,,,,,,,,,,30389.949000069435,,completion,,,1,,,,,,,,,,,,,,,,,,121281.4050000161,121274.68500006944,90868.174,90875.33499998972,90884.736,121299.373,,,
Trap,html.Screen,0_4,2021-04-15T07:56:44.981Z,,,,,,,,,,,,,,,,,,,,,,,,,,,,,,NaN,,skipped,,,,,,,,,,,,,,,,,,,,,121282.14500006288,121274.68500006944,,121282.06999972463,,121299.373,,,
Thanks,html.Screen,0_5,2021-04-15T07:56:50.070Z,,,,,,,,,,,,,,,,,,,,,,,,,,,,,,5070.2119999785355,,response,,,,,,,,,,,continue,click button,,,,,,,,,126370.97000004724,126369.58499997854,121260.123,121282.32999984175,121299.373,132267.392,,,
Headphone screening,flow.Sequence,0,2021-04-15T07:56:50.071Z,,,,,,,,,,,,,,,,,,,,,,,,,,,,,,119648.93699997854,,completion,,,,,,,,,,,,,,,,,,,,,126371.33999960497,126369.58499997854,6703.798,6709.189999848604,6720.648,132267.392,,,
Instructions,html.Page,1_0,2021-04-15T07:57:38.020Z,,,,,,,,,,,,,,,,,,,,,,,,,,,,,,42053.37299983669,,form submission,,,,,,,,,,,,,,,,,,,,,174321.0199996829,174320.76499983668,132250.896,132259.93999978527,132267.392,174332.897,,,
Holding screen,html.Screen,1_1_0_0,2021-04-15T07:57:48.011Z,,,,,,,,,,,,,,,,,,,,,,,,,,,,,,10108.508000000002,,timeout,,,,,,,,,,,,,,,,,,,,,184312.21499992535,184308.598,174316.386,174321.2549998425,174332.897,184441.405,,,
screen,html.Screen,1_1_0_1_0,2021-04-15T07:57:49.214Z,,,,,,,,,,,,,,,,53,,,,,,,,,,,,,,1053.5299998496484,,response,,,,99,,,,,,,Space,keypress(Space),,,,,,,,When -- ----- -- ------ - ------- --- ----------<br>------------- ------ ------ ---- ---- ------- ----- -- ----<br>-------- ------- -- ---------- --- - --- ----- ----- ----<br>---- --- --- ----- --- ---- ---- ------- ----- ---- -------<br>--- --- -- ----- -- --- ---- -- --- ---- -- ------ ------<br>--- ----- -- ----,185515.44500002638,185494.93499984965,184308.598,184313.69500001892,184441.405,185523.808,,0,When
screen,html.Screen,1_1_0_1_1,2021-04-15T07:57:49.724Z,,,,,,,,,,,,,,,,53,,,,,,,,,,,,,,497.5369997827511,,response,,,,99,,,,,,,Space,keypress(Space),,,,,,,,---- it ----- -- ------ - ------- --- ----------<br>------------- ------ ------ ---- ---- ------- ----- -- ----<br>-------- ------- -- ---------- --- - --- ----- ----- ----<br>---- --- --- ----- --- ---- ---- ------- ----- ---- -------<br>--- --- -- ----- -- --- ---- -- --- ---- -- ------ ------<br>--- ----- -- ----,186024.59000004455,186021.34499978274,185507.038,185516.72999979928,185523.808,186039.983,,1,it
screen,html.Screen,1_1_0_1_2,2021-04-15T07:57:50.328Z,,,,,,,,,,,,,,,,53,,,,,,,,,,,,,,586.1319998754188,,response,,,,99,,,,,,,Space,keypress(Space),,,,,,,,---- -- comes -- ------ - ------- --- ----------<br>------------- ------ ------ ---- ---- ------- ----- -- ----<br>-------- ------- -- ---------- --- - --- ----- ----- ----<br>---- --- --- ----- --- ---- ---- ------- ----- ---- -------<br>--- --- -- ----- -- --- ---- -- --- ---- -- ------ ------<br>--- ----- -- ----,186629.3899999,186626.11499987543,186023.369,186025.59999981895,186039.983,186639.653,,2,comes
screen,html.Screen,1_1_0_1_3,2021-04-15T07:57:50.821Z,,,,,,,,,,,,,,,,53,,,,,,,,,,,,,,478.8119998322218,,response,,,,99,,,,,,,Space,keypress(Space),,,,,,,,---- -- ----- to ------ - ------- --- ----------<br>------------- ------ ------ ---- ---- ------- ----- -- ----<br>-------- ------- -- ---------- --- - --- ----- ----- ----<br>---- --- --- ----- --- ---- ---- ------- ----- ---- -------<br>--- --- -- ----- -- --- ---- -- --- ---- -- ------ ------<br>--- ----- -- ----,187121.61999987438,187118.4649998322,186623.173,186630.37999998778,186639.653,187139.243,,3,to
screen,html.Screen,1_1_0_1_4,2021-04-15T07:57:51.373Z,,,,,,,,,,,,,,,,53,,,,,,,,,,,,,,533.5169999867503,,response,,,,99,,,,,,,Space,keypress(Space),,,,,,,,---- -- ----- -- having - ------- --- ----------<br>------------- ------ ------ ---- ---- ------- ----- -- ----<br>-------- ------- -- ---------- --- - --- ----- ----- ----<br>---- --- --- ----- --- ---- ---- ------- ----- ---- -------<br>--- --- -- ----- -- --- ---- -- --- ---- -- ------ ------<br>--- ----- -- ----,187673.9799999632,187672.75999998674,187122.541,187122.6549996063,187139.243,187688.925,,4,having
screen,html.Screen,1_1_0_1_5,2021-04-15T07:57:51.808Z,,,,,,,,,,,,,,,,53,,,,,,,,,,,,,,418.7099997893092,,response,,,,99,,,,,,,Space,keypress(Space),,,,,,,,---- -- ----- -- ------ a ------- --- ----------<br>------------- ------ ------ ---- ---- ------- ----- -- ----<br>-------- ------- -- ---------- --- - --- ----- ----- ----<br>---- --- --- ----- --- ---- ---- ------- ----- ---- -------<br>--- --- -- ----- -- --- ---- -- --- ---- -- ------ ------<br>--- ----- -- ----,188108.77499962226,188107.6349997893,187672.229,187675.46999966726,187688.925,188121.955,,5,a
screen,html.Screen,1_1_0_1_6,2021-04-15T07:57:52.343Z,,,,,,,,,,,,,,,,53,,,,,,,,,,,,,,521.1599998679885,,response,,,,99,,,,,,,Space,keypress(Space),,,,,,,,---- -- ----- -- ------ - lasting --- ----------<br>------------- ------ ------ ---- ---- ------- ----- -- ----<br>-------- ------- -- ---------- --- - --- ----- ----- ----<br>---- --- --- ----- --- ---- ---- ------- ----- ---- -------<br>--- --- -- ----- -- --- ---- -- --- ---- -- ------ ------<br>--- ----- -- ----,188644.27999965847,188643.11499986798,188105.192,188108.98999962956,188121.955,188654.751,,6,lasting
screen,html.Screen,1_1_0_1_7,2021-04-15T07:57:52.897Z,,,,,,,,,,,,,,,,53,,,,,,,,,,,,,,542.058999644767,,response,,,,99,,,,,,,Space,keypress(Space),,,,,,,,---- -- ----- -- ------ - ------- and ----------<br>------------- ------ ------ ---- ---- ------- ----- -- ----<br>-------- ------- -- ---------- --- - --- ----- ----- ----<br>---- --- --- ----- --- ---- ---- ------- ----- ---- -------<br>--- --- -- ----- -- --- ---- -- --- ---- -- ------ ------<br>--- ----- -- ----,189197.87499960512,189196.80999964476,188638.019,188644.5199996233,188654.751,189203.886,,7,and
screen,html.Screen,1_1_0_1_8,2021-04-15T07:57:53.527Z,,,,,,,,,,,,,,,,53,,,,,,,,,,,,,,622.8339997790172,,response,,,,99,,,,,,,Space,keypress(Space),,,,,,,,---- -- ----- -- ------ - ------- --- fulfilling<br>------------- ------ ------ ---- ---- ------- ----- -- ----<br>-------- ------- -- ---------- --- - --- ----- ----- ----<br>---- --- --- ----- --- ---- ---- ------- ----- ---- -------<br>--- --- -- ----- -- --- ---- -- --- ---- -- ------ ------<br>--- ----- -- ----,189827.8149999678,189826.71999977902,189187.342,189198.1449997984,189203.886,189836.882,,8,fulfilling
screen,html.Screen,1_1_0_1_9,2021-04-15T07:57:54.211Z,,,,,,,,,,,,,,,,53,,,,,,,,,,,,,,673.5729997486051,,response,,,,99,,,,,,,Space,keypress(Space),,,,,,,,"---- -- ----- -- ------ - ------- --- ----------<br>relationship, ------ ------ ---- ---- ------- ----- -- ----<br>-------- ------- -- ---------- --- - --- ----- ----- ----<br>---- --- --- ----- --- ---- ---- ------- ----- ---- -------<br>--- --- -- ----- -- --- ---- -- --- ---- -- ------ ------<br>--- ----- -- ----",190511.56999962404,190510.45499974862,189820.073,189828.03499978036,189836.882,190519.608,,9,"relationship,"
screen,html.Screen,1_1_0_1_10,2021-04-15T07:57:54.804Z,,,,,,,,,,,,,,,,53,,,,,,,,,,,,,,583.7770000239834,,response,,,,99,,,,,,,Space,keypress(Space),,,,,,,,---- -- ----- -- ------ - ------- --- ----------<br>------------- common ------ ---- ---- ------- ----- -- ----<br>-------- ------- -- ---------- --- - --- ----- ----- ----<br>---- --- --- ----- --- ---- ---- ------- ----- ---- -------<br>--- --- -- ----- -- --- ---- -- --- ---- -- ------ ------<br>--- ----- -- ----,191104.55499961972,191103.385000024,190502.84,190511.78999990225,190519.608,191119.424,,10,common
screen,html.Screen,1_1_0_1_11,2021-04-15T07:57:55.270Z,,,,,,,,,,,,,,,,53,,,,,,,,,,,,,,450.0560000637779,,response,,,,99,,,,,,,Space,keypress(Space),,,,,,,,---- -- ----- -- ------ - ------- --- ----------<br>------------- ------ wisdom ---- ---- ------- ----- -- ----<br>-------- ------- -- ---------- --- - --- ----- ----- ----<br>---- --- --- ----- --- ---- ---- ------- ----- ---- -------<br>--- --- -- ----- -- --- ---- -- --- ---- -- ------ ------<br>--- ----- -- ----,191570.63499977812,191569.48000006378,191102.633,191104.77499989793,191119.424,191585.547,,11,wisdom
screen,html.Screen,1_1_0_1_12,2021-04-15T07:57:55.947Z,,,,,,,,,,,,,,,,53,,,,,,,,,,,,,,661.7529999299732,,response,,,,99,,,,,,,Space,keypress(Space),,,,,,,,---- -- ----- -- ------ - ------- --- ----------<br>------------- ------ ------ says ---- ------- ----- -- ----<br>-------- ------- -- ---------- --- - --- ----- ----- ----<br>---- --- --- ----- --- ---- ---- ------- ----- ---- -------<br>--- --- -- ----- -- --- ---- -- --- ---- -- ------ ------<br>--- ----- -- ----,192248.26999986544,192247.29999992996,191568.785,191570.87499974295,191585.547,192251.455,,12,says
screen,html.Screen,1_1_0_1_13,2021-04-15T07:57:56.483Z,,,,,,,,,,,,,,,,53,,,,,,,,,,,,,,530.9999996294209,,response,,,,99,,,,,,,Space,keypress(Space),,,,,,,,---- -- ----- -- ------ - ------- --- ----------<br>------------- ------ ------ ---- that ------- ----- -- ----<br>-------- ------- -- ---------- --- - --- ----- ----- ----<br>---- --- --- ----- --- ---- ---- ------- ----- ---- -------<br>--- --- -- ----- -- --- ---- -- --- ---- -- ------ ------<br>--- ----- -- ----,192783.60500000417,192782.4549996294,192234.883,192248.50500002503,192251.455,192801.396,,13,that
screen,html.Screen,1_1_0_1_14,2021-04-15T07:57:57.230Z,,,,,,,,,,,,,,,,53,,,,,,,,,,,,,,728.613999871246,,response,,,,99,,,,,,,Space,keypress(Space),,,,,,,,---- -- ----- -- ------ - ------- --- ----------<br>------------- ------ ------ ---- ---- feeling ----- -- ----<br>-------- ------- -- ---------- --- - --- ----- ----- ----<br>---- --- --- ----- --- ---- ---- ------- ----- ---- -------<br>--- --- -- ----- -- --- ---- -- --- ---- -- ------ ------<br>--- ----- -- ----,193531.08499990776,193530.00999987125,192784.565,192783.85500004515,192801.396,193533.715,,14,feeling
screen,html.Screen,1_1_0_1_15,2021-04-15T07:57:57.791Z,,,,,,,,,,,,,,,,53,,,,,,,,,,,,,,557.4400000309979,,response,,,,99,,,,,,,Space,keypress(Space),,,,,,,,---- -- ----- -- ------ - ------- --- ----------<br>------------- ------ ------ ---- ---- ------- close -- ----<br>-------- ------- -- ---------- --- - --- ----- ----- ----<br>---- --- --- ----- --- ---- ---- ------- ----- ---- -------<br>--- --- -- ----- -- --- ---- -- --- ---- -- ------ ------<br>--- ----- -- ----,194092.1299997717,194091.155000031,193517.097,193531.33499994874,193533.715,194100.242,,15,close
screen,html.Screen,1_1_0_1_16,2021-04-15T07:57:58.290Z,,,,,,,,,,,,,,,,53,,,,,,,,,,,,,,490.1179997982399,,response,,,,99,,,,,,,Space,keypress(Space),,,,,,,,---- -- ----- -- ------ - ------- --- ----------<br>------------- ------ ------ ---- ---- ------- ----- to ----<br>-------- ------- -- ---------- --- - --- ----- ----- ----<br>---- --- --- ----- --- ---- ---- ------- ----- ---- -------<br>--- --- -- ----- -- --- ---- -- --- ---- -- ------ ------<br>--- ----- -- ----,194591.39499999583,194590.35999979824,194083.333,194092.2449999489,194100.242,194599.612,,16,to
screen,html.Screen,1_1_0_1_17,2021-04-15T07:57:58.809Z,,,,,,,,,,,,,,,,53,,,,,,,,,,,,,,509.3729998243216,,response,,,,99,,,,,,,Space,keypress(Space),,,,,,,,---- -- ----- -- ------ - ------- --- ----------<br>------------- ------ ------ ---- ---- ------- ----- -- your<br>-------- ------- -- ---------- --- - --- ----- ----- ----<br>---- --- --- ----- --- ---- ---- ------- ----- ---- -------<br>--- --- -- ----- -- --- ---- -- --- ---- -- ------ ------<br>--- ----- -- ----,195109.83499977738,195108.98499982432,194582.859,194591.61499980837,194599.612,195115.816,,17,your
screen,html.Screen,1_1_0_1_18,2021-04-15T07:57:59.342Z,,,,,,,,,,,,,,,,53,,,,,,,,,,,,,,526.2289996367181,,response,,,,99,,,,,,,Space,keypress(Space),,,,,,,,---- -- ----- -- ------ - ------- --- ----------<br>------------- ------ ------ ---- ---- ------- ----- -- ----<br>romantic ------- -- ---------- --- - --- ----- ----- ----<br>---- --- --- ----- --- ---- ---- ------- ----- ---- -------<br>--- --- -- ----- -- --- ---- -- --- ---- -- ------ ------<br>--- ----- -- ----,195643.2149996981,195642.0449996367,195099.084,195109.9600000307,195115.816,195648.641,,18,romantic
screen,html.Screen,1_1_0_1_19,2021-04-15T07:57:59.791Z,,,,,,,,,,,,,,,,53,,,,,,,,,,,,,,442.3639998201397,,response,,,,99,,,,,,,Space,keypress(Space),,,,,,,,---- -- ----- -- ------ - ------- --- ----------<br>------------- ------ ------ ---- ---- ------- ----- -- ----<br>-------- partner -- ---------- --- - --- ----- ----- ----<br>---- --- --- ----- --- ---- ---- ------- ----- ---- -------<br>--- --- -- ----- -- --- ---- -- --- ---- -- ------ ------<br>--- ----- -- ----,196092.0750000514,196091.00499982014,195632.257,195643.33499968052,195648.641,196098.296,,19,partner
screen,html.Screen,1_1_0_1_20,2021-04-15T07:58:00.309Z,,,,,,,,,,,,,,,,53,,,,,,,,,,,,,,510.61899975695997,,response,,,,99,,,,,,,Space,keypress(Space),,,,,,,,---- -- ----- -- ------ - ------- --- ----------<br>------------- ------ ------ ---- ---- ------- ----- -- ----<br>-------- ------- is ---------- --- - --- ----- ----- ----<br>---- --- --- ----- --- ---- ---- ------- ----- ---- -------<br>--- --- -- ----- -- --- ---- -- --- ---- -- ------ ------<br>--- ----- -- ----,196609.97999971732,196608.91499975696,196081.909,196092.31500001624,196098.296,196614.54,,20,is
screen,html.Screen,1_1_0_1_21,2021-04-15T07:58:00.802Z,,,,,,,,,,,,,,,,53,,,,,,,,,,,,,,487.6299998527684,,response,,,,99,,,,,,,Space,keypress(Space),,,,,,,,---- -- ----- -- ------ - ------- --- ----------<br>------------- ------ ------ ---- ---- ------- ----- -- ----<br>-------- ------- -- paramount. --- - --- ----- ----- ----<br>---- --- --- ----- --- ---- ---- ------- ----- ---- -------<br>--- --- -- ----- -- --- ---- -- --- ---- -- ------ ------<br>--- ----- -- ----,197103.23999961838,197102.16999985278,196597.845,196610.18999991938,196614.54,197114.516,,21,paramount.
screen,html.Screen,1_1_0_1_22,2021-04-15T07:58:01.302Z,,,,,,,,,,,,,,,,53,,,,,,,,,,,,,,487.55899982788833,,response,,,,99,,,,,,,Space,keypress(Space),,,,,,,,---- -- ----- -- ------ - ------- --- ----------<br>------------- ------ ------ ---- ---- ------- ----- -- ----<br>-------- ------- -- ---------- But - --- ----- ----- ----<br>---- --- --- ----- --- ---- ---- ------- ----- ---- -------<br>--- --- -- ----- -- --- ---- -- --- ---- -- ------ ------<br>--- ----- -- ----,197603.27499965206,197602.0749998279,197097.526,197103.45499962568,197114.516,197614.057,,22,But
screen,html.Screen,1_1_0_1_23,2021-04-15T07:58:01.740Z,,,,,,,,,,,,,,,,53,,,,,,,,,,,,,,425.9979997575574,,response,,,,99,,,,,,,Space,keypress(Space),,,,,,,,---- -- ----- -- ------ - ------- --- ----------<br>------------- ------ ------ ---- ---- ------- ----- -- ----<br>-------- ------- -- ---------- --- a --- ----- ----- ----<br>---- --- --- ----- --- ---- ---- ------- ----- ---- -------<br>--- --- -- ----- -- --- ---- -- --- ---- -- ------ ------<br>--- ----- -- ----,198041.2349998951,198040.05499975756,197597.002,197603.4999997355,197614.057,198046.728,,23,a
screen,html.Screen,1_1_0_1_24,2021-04-15T07:58:02.258Z,,,,,,,,,,,,,,,,53,,,,,,,,,,,,,,511.56699987885077,,response,,,,99,,,,,,,Space,keypress(Space),,,,,,,,---- -- ----- -- ------ - ------- --- ----------<br>------------- ------ ------ ---- ---- ------- ----- -- ----<br>-------- ------- -- ---------- --- - new ----- ----- ----<br>---- --- --- ----- --- ---- ---- ------- ----- ---- -------<br>--- --- -- ----- -- --- ---- -- --- ---- -- ------ ------<br>--- ----- -- ----,198559.299999848,198558.29499987885,198030.008,198041.4700000547,198046.728,198562.932,,24,new
screen,html.Screen,1_1_0_1_25,2021-04-15T07:58:02.704Z,,,,,,,,,,,,,,,,53,,,,,,,,,,,,,,440.5930000655644,,response,,,,99,,,,,,,Space,keypress(Space),,,,,,,,---- -- ----- -- ------ - ------- --- ----------<br>------------- ------ ------ ---- ---- ------- ----- -- ----<br>-------- ------- -- ---------- --- - --- study ----- ----<br>---- --- --- ----- --- ---- ---- ------- ----- ---- -------<br>--- --- -- ----- -- --- ---- -- --- ---- -- ------ ------<br>--- ----- -- ----,199004.53499983996,199003.52500006557,198546.232,198559.5299997367,198562.932,199012.588,,25,study
screen,html.Screen,1_1_0_1_26,2021-04-15T07:58:03.147Z,,,,,,,,,,,,,,,,53,,,,,,,,,,,,,,434.35199970332906,,response,,,,99,,,,,,,Space,keypress(Space),,,,,,,,---- -- ----- -- ------ - ------- --- ----------<br>------------- ------ ------ ---- ---- ------- ----- -- ----<br>-------- ------- -- ---------- --- - --- ----- finds ----<br>---- --- --- ----- --- ---- ---- ------- ----- ---- -------<br>--- --- -- ----- -- --- ---- -- --- ---- -- ------ ------<br>--- ----- -- ----,199447.99999985844,199446.93999970332,198996.129,199004.7599999234,199012.588,199462.459,,26,finds
screen,html.Screen,1_1_0_1_27,2021-04-15T07:58:03.547Z,,,,,,,,,,,,,,,,53,,,,,,,,,,,,,,384.4159998137329,,response,,,,99,,,,,,,Space,keypress(Space),,,,,,,,---- -- ----- -- ------ - ------- --- ----------<br>------------- ------ ------ ---- ---- ------- ----- -- ----<br>-------- ------- -- ---------- --- - --- ----- ----- that<br>---- --- --- ----- --- ---- ---- ------- ----- ---- -------<br>--- --- -- ----- -- --- ---- -- --- ---- -- ------ ------<br>--- ----- -- ----,199847.98999968916,199846.87499981374,199445.845,199448.21499986574,199462.459,199862.328,,27,that
screen,html.Screen,1_1_0_1_28,2021-04-15T07:58:04.089Z,,,,,,,,,,,,,,,,53,,,,,,,,,,,,,,526.2369996809575,,response,,,,99,,,,,,,Space,keypress(Space),,,,,,,,---- -- ----- -- ------ - ------- --- ----------<br>------------- ------ ------ ---- ---- ------- ----- -- ----<br>-------- ------- -- ---------- --- - --- ----- ----- ----<br>it's --- --- ----- --- ---- ---- ------- ----- ---- -------<br>--- --- -- ----- -- --- ---- -- --- ---- -- ------ ------<br>--- ----- -- ----,200389.64499998838,200388.56499968097,199845.582,199848.229999654,199862.328,200394.733,,28,it's
screen,html.Screen,1_1_0_1_29,2021-04-15T07:58:04.461Z,,,,,,,,,,,,,,,,53,,,,,,,,,,,,,,365.5919996900484,,response,,,,99,,,,,,,Space,keypress(Space),,,,,,,,---- -- ----- -- ------ - ------- --- ----------<br>------------- ------ ------ ---- ---- ------- ----- -- ----<br>-------- ------- -- ---------- --- - --- ----- ----- ----<br>---- not --- ----- --- ---- ---- ------- ----- ---- -------<br>--- --- -- ----- -- --- ---- -- --- ---- -- ------ ------<br>--- ----- -- ----,200761.66999991983,200760.32499969006,200378.174,200389.89500002936,200394.733,200778.071,,29,not
screen,html.Screen,1_1_0_1_30,2021-04-15T07:58:04.841Z,,,,,,,,,,,,,,,,53,,,,,,,,,,,,,,362.63899994874373,,response,,,,99,,,,,,,Space,keypress(Space),,,,,,,,---- -- ----- -- ------ - ------- --- ----------<br>------------- ------ ------ ---- ---- ------- ----- -- ----<br>-------- ------- -- ---------- --- - --- ----- ----- ----<br>---- --- how ----- --- ---- ---- ------- ----- ---- -------<br>--- --- -- ----- -- --- ---- -- --- ---- -- ------ ------<br>--- ----- -- ----,201141.7549997568,201140.70999994874,200761.108,200763.76499980688,200778.071,201144.117,,30,how
screen,html.Screen,1_1_0_1_31,2021-04-15T07:58:05.237Z,,,,,,,,,,,,,,,,53,,,,,,,,,,,,,,392.6279996992962,,response,,,,99,,,,,,,Space,keypress(Space),,,,,,,,---- -- ----- -- ------ - ------- --- ----------<br>------------- ------ ------ ---- ---- ------- ----- -- ----<br>-------- ------- -- ---------- --- - --- ----- ----- ----<br>---- --- --- close --- ---- ---- ------- ----- ---- -------<br>--- --- -- ----- -- --- ---- -- --- ---- -- ------ ------<br>--- ----- -- ----,201537.58500004187,201536.7449996993,201127.556,201142.02499995008,201144.117,201543.944,,31,close
screen,html.Screen,1_1_0_1_32,2021-04-15T07:58:05.574Z,,,,,,,,,,,,,,,,53,,,,,,,,,,,,,,329.78099983758875,,response,,,,99,,,,,,,Space,keypress(Space),,,,,,,,---- -- ----- -- ------ - ------- --- ----------<br>------------- ------ ------ ---- ---- ------- ----- -- ----<br>-------- ------- -- ---------- --- - --- ----- ----- ----<br>---- --- --- ----- you ---- ---- ------- ----- ---- -------<br>--- --- -- ----- -- --- ---- -- --- ---- -- ------ ------<br>--- ----- -- ----,201874.82000002638,201873.72499983758,201527.406,201537.6699999906,201543.944,201899.434,,32,you
screen,html.Screen,1_1_0_1_33,2021-04-15T07:58:05.987Z,,,,,,,,,,,,,,,,53,,,,,,,,,,,,,,387.5410000536358,,response,,,,99,,,,,,,Space,keypress(Space),,,,,,,,---- -- ----- -- ------ - ------- --- ----------<br>------------- ------ ------ ---- ---- ------- ----- -- ----<br>-------- ------- -- ---------- --- - --- ----- ----- ----<br>---- --- --- ----- --- feel ---- ------- ----- ---- -------<br>--- --- -- ----- -- --- ---- -- --- ---- -- ------ ------<br>--- ----- -- ----,202288.07999985293,202286.97500005364,201860.413,201875.04999991506,201899.434,202293.188,,33,feel
screen,html.Screen,1_1_0_1_34,2021-04-15T07:58:06.351Z,,,,,,,,,,,,,,,,53,,,,,,,,,,,,,,357.961999815976,,response,,,,99,,,,,,,Space,keypress(Space),,,,,,,,---- -- ----- -- ------ - ------- --- ----------<br>------------- ------ ------ ---- ---- ------- ----- -- ----<br>-------- ------- -- ---------- --- - --- ----- ----- ----<br>---- --- --- ----- --- ---- that ------- ----- ---- -------<br>--- --- -- ----- -- --- ---- -- --- ---- -- ------ ------<br>--- ----- -- ----,202652.1299998276,202651.14999981597,202276.451,202288.31500001252,202293.188,202659.539,,34,that
screen,html.Screen,1_1_0_1_35,2021-04-15T07:58:06.781Z,,,,,,,,,,,,,,,,53,,,,,,,,,,,,,,421.54599972150754,,response,,,,99,,,,,,,Space,keypress(Space),,,,,,,,---- -- ----- -- ------ - ------- --- ----------<br>------------- ------ ------ ---- ---- ------- ----- -- ----<br>-------- ------- -- ---------- --- - --- ----- ----- ----<br>---- --- --- ----- --- ---- ---- matters ----- ---- -------<br>--- --- -- ----- -- --- ---- -- --- ---- -- ------ ------<br>--- ----- -- ----,203082.1749996394,203081.0849997215,202642.872,202652.36999979243,202659.539,203092.911,,35,matters
screen,html.Screen,1_1_0_1_36,2021-04-15T07:58:07.172Z,,,,,,,,,,,,,,,,53,,,,,,,,,,,,,,378.5390000700427,,response,,,,99,,,,,,,Space,keypress(Space),,,,,,,,"---- -- ----- -- ------ - ------- --- ----------<br>------------- ------ ------ ---- ---- ------- ----- -- ----<br>-------- ------- -- ---------- --- - --- ----- ----- ----<br>---- --- --- ----- --- ---- ---- ------- most, ---- -------<br>--- --- -- ----- -- --- ---- -- --- ---- -- ------ ------<br>--- ----- -- ----",203472.59499970824,203471.45000007004,203075.871,203082.40499999374,203092.911,203475.521,,36,"most,"
screen,html.Screen,1_1_0_1_37,2021-04-15T07:58:07.634Z,,,,,,,,,,,,,,,,53,,,,,,,,,,,,,,456.90900004439754,,response,,,,99,,,,,,,Space,keypress(Space),,,,,,,,---- -- ----- -- ------ - ------- --- ----------<br>------------- ------ ------ ---- ---- ------- ----- -- ----<br>-------- ------- -- ---------- --- - --- ----- ----- ----<br>---- --- --- ----- --- ---- ---- ------- ----- it's -------<br>--- --- -- ----- -- --- ---- -- --- ---- -- ------ ------<br>--- ----- -- ----,203934.79499965906,203932.4300000444,203459.032,203472.7999996394,203475.521,203941.827,,37,it's
screen,html.Screen,1_1_0_1_38,2021-04-15T07:58:08.026Z,,,,,,,,,,,,,,,,53,,,,,,,,,,,,,,383.7579997513094,,response,,,,99,,,,,,,Space,keypress(Space),,,,,,,,---- -- ----- -- ------ - ------- --- ----------<br>------------- ------ ------ ---- ---- ------- ----- -- ----<br>-------- ------- -- ---------- --- - --- ----- ----- ----<br>---- --- --- ----- --- ---- ---- ------- ----- ---- whether<br>--- --- -- ----- -- --- ---- -- --- ---- -- ------ ------<br>--- ----- -- ----,204326.5999997966,204325.5849997513,203925.156,203935.07499992847,203941.827,204341.669,,38,whether
screen,html.Screen,1_1_0_1_39,2021-04-15T07:58:08.409Z,,,,,,,,,,,,,,,,53,,,,,,,,,,,,,,367.5209998486098,,response,,,,99,,,,,,,Space,keypress(Space),,,,,,,,---- -- ----- -- ------ - ------- --- ----------<br>------------- ------ ------ ---- ---- ------- ----- -- ----<br>-------- ------- -- ---------- --- - --- ----- ----- ----<br>---- --- --- ----- --- ---- ---- ------- ----- ---- -------<br>you --- -- ----- -- --- ---- -- --- ---- -- ------ ------<br>--- ----- -- ----,204710.21499997005,204709.1899998486,204325.02,204326.83999976143,204341.669,204724.766,,39,you
screen,html.Screen,1_1_0_1_40,2021-04-15T07:58:08.791Z,,,,,,,,,,,,,,,,53,,,,,,,,,,,,,,366.69399979227455,,response,,,,99,,,,,,,Space,keypress(Space),,,,,,,,---- -- ----- -- ------ - ------- --- ----------<br>------------- ------ ------ ---- ---- ------- ----- -- ----<br>-------- ------- -- ---------- --- - --- ----- ----- ----<br>---- --- --- ----- --- ---- ---- ------- ----- ---- -------<br>--- are -- ----- -- --- ---- -- --- ---- -- ------ ------<br>--- ----- -- ----,205092.4399998039,205091.45999979228,204707.833,204710.42999997735,204724.766,205107.637,,40,are
screen,html.Screen,1_1_0_1_41,2021-04-15T07:58:09.148Z,,,,,,,,,,,,,,,,53,,,,,,,,,,,,,,339.9779999536695,,response,,,,99,,,,,,,Space,keypress(Space),,,,,,,,---- -- ----- -- ------ - ------- --- ----------<br>------------- ------ ------ ---- ---- ------- ----- -- ----<br>-------- ------- -- ---------- --- - --- ----- ----- ----<br>---- --- --- ----- --- ---- ---- ------- ----- ---- -------<br>--- --- as ----- -- --- ---- -- --- ---- -- ------ ------<br>--- ----- -- ----,205448.91999987885,205447.61499995366,205091.067,205092.65999961644,205107.637,205457.415,,41,as
screen,html.Screen,1_1_0_1_42,2021-04-15T07:58:09.582Z,,,,,,,,,,,,,,,,53,,,,,,,,,,,,,,424.8650000198104,,response,,,,99,,,,,,,Space,keypress(Space),,,,,,,,---- -- ----- -- ------ - ------- --- ----------<br>------------- ------ ------ ---- ---- ------- ----- -- ----<br>-------- ------- -- ---------- --- - --- ----- ----- ----<br>---- --- --- ----- --- ---- ---- ------- ----- ---- -------<br>--- --- -- close -- --- ---- -- --- ---- -- ------ ------<br>--- ----- -- ----,205883.28999979421,205882.28000001982,205440.912,205449.13499988616,205457.415,205890.317,,42,close
screen,html.Screen,1_1_0_1_43,2021-04-15T07:58:10.155Z,,,,,,,,,,,,,,,,53,,,,,,,,,,,,,,564.6979999558826,,response,,,,99,,,,,,,Space,keypress(Space),,,,,,,,---- -- ----- -- ------ - ------- --- ----------<br>------------- ------ ------ ---- ---- ------- ----- -- ----<br>-------- ------- -- ---------- --- - --- ----- ----- ----<br>---- --- --- ----- --- ---- ---- ------- ----- ---- -------<br>--- --- -- ----- as --- ---- -- --- ---- -- ------ ------<br>--- ----- -- ----,206455.91999962926,206455.0149999559,205873.602,205883.54999991134,205890.317,206473.469,,43,as
screen,html.Screen,1_1_0_1_44,2021-04-15T07:58:10.498Z,,,,,,,,,,,,,,,,53,,,,,,,,,,,,,,324.75600003500585,,response,,,,99,,,,,,,Space,keypress(Space),,,,,,,,---- -- ----- -- ------ - ------- --- ----------<br>------------- ------ ------ ---- ---- ------- ----- -- ----<br>-------- ------- -- ---------- --- - --- ----- ----- ----<br>---- --- --- ----- --- ---- ---- ------- ----- ---- -------<br>--- --- -- ----- -- you ---- -- --- ---- -- ------ ------<br>--- ----- -- ----,206799.29499980062,206798.22500003502,206456.398,206456.15499978885,206473.469,206806.16,,44,you
screen,html.Screen,1_1_0_1_45,2021-04-15T07:58:10.906Z,,,,,,,,,,,,,,,,53,,,,,,,,,,,,,,400.05499978005537,,response,,,,99,,,,,,,Space,keypress(Space),,,,,,,,---- -- ----- -- ------ - ------- --- ----------<br>------------- ------ ------ ---- ---- ------- ----- -- ----<br>-------- ------- -- ---------- --- - --- ----- ----- ----<br>---- --- --- ----- --- ---- ---- ------- ----- ---- -------<br>--- --- -- ----- -- --- want -- --- ---- -- ------ ------<br>--- ----- -- ----,207207.27499993518,207206.21499978006,206789.645,206799.51999988407,206806.16,207222.662,,45,want
screen,html.Screen,1_1_0_1_46,2021-04-15T07:58:11.245Z,,,,,,,,,,,,,,,,53,,,,,,,,,,,,,,322.5479996618815,,response,,,,99,,,,,,,Space,keypress(Space),,,,,,,,---- -- ----- -- ------ - ------- --- ----------<br>------------- ------ ------ ---- ---- ------- ----- -- ----<br>-------- ------- -- ---------- --- - --- ----- ----- ----<br>---- --- --- ----- --- ---- ---- ------- ----- ---- -------<br>--- --- -- ----- -- --- ---- to --- ---- -- ------ ------<br>--- ----- -- ----,207546.2249997072,207545.2099996619,207205.986,207207.4750000611,207222.662,207555.589,,46,to
screen,html.Screen,1_1_0_1_47,2021-04-15T07:58:11.655Z,,,,,,,,,,,,,,,,53,,,,,,,,,,,,,,399.6609996498155,,response,,,,99,,,,,,,Space,keypress(Space),,,,,,,,"---- -- ----- -- ------ - ------- --- ----------<br>------------- ------ ------ ---- ---- ------- ----- -- ----<br>-------- ------- -- ---------- --- - --- ----- ----- ----<br>---- --- --- ----- --- ---- ---- ------- ----- ---- -------<br>--- --- -- ----- -- --- ---- -- be, ---- -- ------ ------<br>--- ----- -- ----",207956.34000003338,207955.24999964982,207538.865,207546.43499990925,207555.589,207971.935,,47,"be,"
screen,html.Screen,1_1_0_1_48,2021-04-15T07:58:12.104Z,,,,,,,,,,,,,,,,53,,,,,,,,,,,,,,431.9249999621534,,response,,,,99,,,,,,,Space,keypress(Space),,,,,,,,---- -- ----- -- ------ - ------- --- ----------<br>------------- ------ ------ ---- ---- ------- ----- -- ----<br>-------- ------- -- ---------- --- - --- ----- ----- ----<br>---- --- --- ----- --- ---- ---- ------- ----- ---- -------<br>--- --- -- ----- -- --- ---- -- --- even -- ------ ------<br>--- ----- -- ----,208405.005000066,208403.85999996215,207955.447,207956.5799999982,207971.935,208421.593,,48,even
screen,html.Screen,1_1_0_1_49,2021-04-15T07:58:12.478Z,,,,,,,,,,,,,,,,53,,,,,,,,,,,,,,356.73199984652456,,response,,,,99,,,,,,,Space,keypress(Space),,,,,,,,---- -- ----- -- ------ - ------- --- ----------<br>------------- ------ ------ ---- ---- ------- ----- -- ----<br>-------- ------- -- ---------- --- - --- ----- ----- ----<br>---- --- --- ----- --- ---- ---- ------- ----- ---- -------<br>--- --- -- ----- -- --- ---- -- --- ---- if ------ ------<br>--- ----- -- ----,208779.36499984935,208778.32499984652,208404.948,208405.2499998361,208421.593,208787.898,,49,if
screen,html.Screen,1_1_0_1_50,2021-04-15T07:58:12.826Z,,,,,,,,,,,,,,,,53,,,,,,,,,,,,,,338.0519997832016,,response,,,,99,,,,,,,Space,keypress(Space),,,,,,,,---- -- ----- -- ------ - ------- --- ----------<br>------------- ------ ------ ---- ---- ------- ----- -- ----<br>-------- ------- -- ---------- --- - --- ----- ----- ----<br>---- --- --- ----- --- ---- ---- ------- ----- ---- -------<br>--- --- -- ----- -- --- ---- -- --- ---- -- that's ------<br>--- ----- -- ----,209127.06999992952,209125.9499997832,208771.235,208779.56499997526,208787.898,209137.703,,50,that's
screen,html.Screen,1_1_0_1_51,2021-04-15T07:58:13.227Z,,,,,,,,,,,,,,,,53,,,,,,,,,,,,,,389.31699992131325,,response,,,,99,,,,,,,Space,keypress(Space),,,,,,,,---- -- ----- -- ------ - ------- --- ----------<br>------------- ------ ------ ---- ---- ------- ----- -- ----<br>-------- ------- -- ---------- --- - --- ----- ----- ----<br>---- --- --- ----- --- ---- ---- ------- ----- ---- -------<br>--- --- -- ----- -- --- ---- -- --- ---- -- ------ really<br>--- ----- -- ----,209527.97999978065,209527.01999992132,209120.925,209127.35500000417,209137.703,209537.318,,51,really
screen,html.Screen,1_1_0_1_52,2021-04-15T07:58:13.608Z,,,,,,,,,,,,,,,,53,,,,,,,,,,,,,,370.7219996601052,,response,,,,99,,,,,,,Space,keypress(Space),,,,,,,,---- -- ----- -- ------ - ------- --- ----------<br>------------- ------ ------ ---- ---- ------- ----- -- ----<br>-------- ------- -- ---------- --- - --- ----- ----- ----<br>---- --- --- ----- --- ---- ---- ------- ----- ---- -------<br>--- --- -- ----- -- --- ---- -- --- ---- -- ------ ------<br>not ----- -- ----,209909.10499962047,209908.0399996601,209520.928,209528.08999968693,209537.318,209920.652,,52,not
screen,html.Screen,1_1_0_1_53,2021-04-15T07:58:13.978Z,,,,,,,,,,,,,,,,53,,,,,,,,,,,,,,357.4029996532481,,response,,,,99,,,,,,,Space,keypress(Space),,,,,,,,---- -- ----- -- ------ - ------- --- ----------<br>------------- ------ ------ ---- ---- ------- ----- -- ----<br>-------- ------- -- ---------- --- - --- ----- ----- ----<br>---- --- --- ----- --- ---- ---- ------- ----- ---- -------<br>--- --- -- ----- -- --- ---- -- --- ---- -- ------ ------<br>--- close -- ----,210279.11000000313,210278.05499965325,209903.61,209909.30499974638,209920.652,210286.692,,53,close
screen,html.Screen,1_1_0_1_54,2021-04-15T07:58:14.401Z,,,,,,,,,,,,,,,,53,,,,,,,,,,,,,,414.32800003679586,,response,,,,99,,,,,,,Space,keypress(Space),,,,,,,,---- -- ----- -- ------ - ------- --- ----------<br>------------- ------ ------ ---- ---- ------- ----- -- ----<br>-------- ------- -- ---------- --- - --- ----- ----- ----<br>---- --- --- ----- --- ---- ---- ------- ----- ---- -------<br>--- --- -- ----- -- --- ---- -- --- ---- -- ------ ------<br>--- ----- at ----,210702.19499990344,210701.0200000368,210270.275,210279.30499985814,210286.692,210736.34,,54,at
screen,html.Screen,1_1_0_1_55,2021-04-15T07:58:14.831Z,,,,,,,,,,,,,,,,53,,,,,,,,,,,,,,394.73499992475263,,response,,,,99,,,,,,,Space,keypress(Space),,,,,,,,---- -- ----- -- ------ - ------- --- ----------<br>------------- ------ ------ ---- ---- ------- ----- -- ----<br>-------- ------- -- ---------- --- - --- ----- ----- ----<br>---- --- --- ----- --- ---- ---- ------- ----- ---- -------<br>--- --- -- ----- -- --- ---- -- --- ---- -- ------ ------<br>--- ----- -- all.,211132.0949997753,211131.07499992475,210719.933,210702.39500002936,210736.34,211135.952,,55,all.
Item 99,flow.Loop,1_1_0_1,2021-04-15T07:58:14.832Z,,,,,,,,,,,,,,,,,,,,,,,,,,,,,,26689.66999992475,,completion,,,,,A,,,,,,,,,,,silence,,,,,211132.53999967128,211131.07499992475,184308.598,184313.24499985203,184441.405,211135.952,,,
Question 1,html.Screen,1_1_0_2,2021-04-15T07:58:18.474Z,,,,,,,,,,,,,,,,,,,,,,,,,,,true,FALSE,,3637.8779998454847,,response,,,,99,A,,,,,,FALSE,click #choice-2,,,,silence,,,,,214775.16999980435,214773.82999984547,211119.552,211132.7249999158,211135.952,214800.031,,,
Question 2,html.Screen,1_1_0_3,2021-04-15T07:58:24.205Z,,,,,,,,,,,,,,,,,,,,,,,,,,,true,TRUE,,5704.148999697965,,response,,,,99,A,,,,,,TRUE,click #choice-1,,,,silence,,,,,220505.6149996817,220504.17999969795,214783.021,214775.40499996394,214800.031,220528.146,,,
Item 99,flow.Sequence,1_1_0,2021-04-15T07:58:24.205Z,,,,,,,,,,,,,,,,,,,,,,,,,,,,,,46171.282999697956,,completion,,,,,,,,,,,,,,,,,,,,,220505.89999975637,220504.17999969795,174316.386,174321.22499961406,174332.897,220528.146,,,
Holding screen,html.Screen,1_1_1_0,2021-04-15T07:58:34.204Z,,,,,,,,,,,,,,,,,,,,,,,,,,,,,,9992.030999999988,,timeout,,,,,,,,,,,,,,,,,,,,,230504.62999986485,230503.436,220511.557,220506.05499977246,220528.146,230520.177,,,
screen,html.Screen,1_1_1_1_0,2021-04-15T07:58:34.922Z,,,,,,,,,,,,,,,,54,,,,,,,,,,,,,,701.5829996365646,,response,,,,100,,,,,,,Space,keypress(Space),,,,,,,,At --- ---- --- ------ ----- ------- ---- -- --- ------- --<br>------- ---------- ------ -- ----- -- ----- -- ---- ------<br>--- ----- --- --- ------ -------- ----- --- ------ ----- --<br>----- ----- ---------- --- --- ------ ------ ---- -- ------<br>------- --- ------ ----- --- ---- ------- -- ---- --- --<br>------- ------,231222.85000002012,231221.75999963656,230503.436,230504.88499971107,230520.177,231236.145,,0,At
screen,html.Screen,1_1_1_1_1,2021-04-15T07:58:35.309Z,,,,,,,,,,,,,,,,54,,,,,,,,,,,,,,372.77500002787565,,response,,,,100,,,,,,,Space,keypress(Space),,,,,,,,-- the ---- --- ------ ----- ------- ---- -- --- ------- --<br>------- ---------- ------ -- ----- -- ----- -- ---- ------<br>--- ----- --- --- ------ -------- ----- --- ------ ----- --<br>----- ----- ---------- --- --- ------ ------ ---- -- ------<br>------- --- ------ ----- --- ---- ------- -- ---- --- --<br>------- ------,231609.84000004828,231608.92000002787,231219.513,231223.14999997616,231236.145,231619.112,,1,the
screen,html.Screen,1_1_1_1_2,2021-04-15T07:58:35.741Z,,,,,,,,,,,,,,,,54,,,,,,,,,,,,,,421.96799987900886,,response,,,,100,,,,,,,Space,keypress(Space),,,,,,,,-- --- time --- ------ ----- ------- ---- -- --- ------- --<br>------- ---------- ------ -- ----- -- ----- -- ---- ------<br>--- ----- --- --- ------ -------- ----- --- ------ ----- --<br>----- ----- ---------- --- --- ------ ------ ---- -- ------<br>------- --- ------ ----- --- ---- ------- -- ---- --- --<br>------- ------,232042.08499984816,232041.079999879,231602.419,231610.04999978468,231619.112,232052.462,,2,time
screen,html.Screen,1_1_1_1_3,2021-04-15T07:58:36.109Z,,,,,,,,,,,,,,,,54,,,,,,,,,,,,,,356.6729998489027,,response,,,,100,,,,,,,Space,keypress(Space),,,,,,,,-- --- ---- the ------ ----- ------- ---- -- --- ------- --<br>------- ---------- ------ -- ----- -- ----- -- ---- ------<br>--- ----- --- --- ------ -------- ----- --- ------ ----- --<br>----- ----- ---------- --- --- ------ ------ ---- -- ------<br>------- --- ------ ----- --- ---- ------- -- ---- --- --<br>------- ------,232410.26999987662,232409.1349998489,232035.635,232042.27999970317,232052.462,232418.502,,3,the
screen,html.Screen,1_1_1_1_4,2021-04-15T07:58:36.554Z,,,,,,,,,,,,,,,,54,,,,,,,,,,,,,,434.9180000576598,,response,,,,100,,,,,,,Space,keypress(Space),,,,,,,,-- --- ---- --- French ----- ------- ---- -- --- ------- --<br>------- ---------- ------ -- ----- -- ----- -- ---- ------<br>--- ----- --- --- ------ -------- ----- --- ------ ----- --<br>----- ----- ---------- --- --- ------ ------ ---- -- ------<br>------- --- ------ ----- --- ---- ------- -- ---- --- --<br>------- ------,232854.40999967977,232853.42000005767,232401.868,232410.48499988392,232418.502,232868.038,,4,French
screen,html.Screen,1_1_1_1_5,2021-04-15T07:58:37.106Z,,,,,,,,,,,,,,,,54,,,,,,,,,,,,,,537.4769997584517,,response,,,,100,,,,,,,Space,keypress(Space),,,,,,,,-- --- ---- --- ------ crown ------- ---- -- --- ------- --<br>------- ---------- ------ -- ----- -- ----- -- ---- ------<br>--- ----- --- --- ------ -------- ----- --- ------ ----- --<br>----- ----- ---------- --- --- ------ ------ ---- -- ------<br>------- --- ------ ----- --- ---- ------- -- ---- --- --<br>------- ------,233406.54999995604,233405.51499975845,232851.317,232854.49999989942,232868.038,233417.96,,5,crown
screen,html.Screen,1_1_1_1_6,2021-04-15T07:58:37.878Z,,,,,,,,,,,,,,,,54,,,,,,,,,,,,,,759.4250000463508,,response,,,,100,,,,,,,Space,keypress(Space),,,,,,,,-- --- ---- --- ------ ----- secured ---- -- --- ------- --<br>------- ---------- ------ -- ----- -- ----- -- ---- ------<br>--- ----- --- --- ------ -------- ----- --- ------ ----- --<br>----- ----- ---------- --- --- ------ ------ ---- -- ------<br>------- --- ------ ----- --- ---- ------- -- ---- --- --<br>------- ------,234178.5099999979,234177.38500004634,233401.1,233406.78499964997,233417.96,234183.615,,6,secured
screen,html.Screen,1_1_1_1_7,2021-04-15T07:58:38.678Z,,,,,,,,,,,,,,,,54,,,,,,,,,,,,,,794.324999662349,,response,,,,100,,,,,,,Space,keypress(Space),,,,,,,,-- --- ---- --- ------ ----- ------- much -- --- ------- --<br>------- ---------- ------ -- ----- -- ----- -- ---- ------<br>--- ----- --- --- ------ -------- ----- --- ------ ----- --<br>----- ----- ---------- --- --- ------ ------ ---- -- ------<br>------- --- ------ ----- --- ---- ------- -- ---- --- --<br>------- ------,234978.98499993607,234977.93999966234,234167.205,234178.74499969184,234183.615,234982.975,,7,much
screen,html.Screen,1_1_1_1_8,2021-04-15T07:58:39.163Z,,,,,,,,,,,,,,,,54,,,,,,,,,,,,,,479.7649998716952,,response,,,,100,,,,,,,Space,keypress(Space),,,,,,,,-- --- ---- --- ------ ----- ------- ---- of --- ------- --<br>------- ---------- ------ -- ----- -- ----- -- ---- ------<br>--- ----- --- --- ------ -------- ----- --- ------ ----- --<br>----- ----- ---------- --- --- ------ ------ ---- -- ------<br>------- --- ------ ----- --- ---- ------- -- ---- --- --<br>------- ------,235463.754999917,235462.7399998717,234966.328,234979.185000062,234982.975,235465.91,,8,of
screen,html.Screen,1_1_1_1_9,2021-04-15T07:58:39.543Z,,,,,,,,,,,,,,,,54,,,,,,,,,,,,,,376.42999997377046,,response,,,,100,,,,,,,Space,keypress(Space),,,,,,,,-- --- ---- --- ------ ----- ------- ---- -- its ------- --<br>------- ---------- ------ -- ----- -- ----- -- ---- ------<br>--- ----- --- --- ------ -------- ----- --- ------ ----- --<br>----- ----- ---------- --- --- ------ ------ ---- -- ------<br>------- --- ------ ----- --- ---- ------- -- ---- --- --<br>------- ------,235843.38499978185,235842.33999997377,235449.305,235463.98000000045,235465.91,235848.906,,9,its
screen,html.Screen,1_1_1_1_10,2021-04-15T07:58:40.149Z,,,,,,,,,,,,,,,,54,,,,,,,,,,,,,,600.1339998612821,,response,,,,100,,,,,,,Space,keypress(Space),,,,,,,,-- --- ---- --- ------ ----- ------- ---- -- --- revenue --<br>------- ---------- ------ -- ----- -- ----- -- ---- ------<br>--- ----- --- --- ------ -------- ----- --- ------ ----- --<br>----- ----- ---------- --- --- ------ ------ ---- -- ------<br>------- --- ------ ----- --- ---- ------- -- ---- --- --<br>------- ------,236450.06999978796,236449.03999986127,235832.331,235843.57999963686,235848.906,236465.331,,10,revenue
screen,html.Screen,1_1_1_1_11,2021-04-15T07:58:40.627Z,,,,,,,,,,,,,,,,54,,,,,,,,,,,,,,461.38899987214245,,response,,,,100,,,,,,,Space,keypress(Space),,,,,,,,-- --- ---- --- ------ ----- ------- ---- -- --- ------- by<br>------- ---------- ------ -- ----- -- ----- -- ---- ------<br>--- ----- --- --- ------ -------- ----- --- ------ ----- --<br>----- ----- ---------- --- --- ------ ------ ---- -- ------<br>------- --- ------ ----- --- ---- ------- -- ---- --- --<br>------- ------,236927.72999964654,236926.71999987215,236448.593,236450.27999999002,236465.331,236931.443,,11,by
screen,html.Screen,1_1_1_1_12,2021-04-15T07:58:41.033Z,,,,,,,,,,,,,,,,54,,,,,,,,,,,,,,401.6769996173389,,response,,,,100,,,,,,,Space,keypress(Space),,,,,,,,-- --- ---- --- ------ ----- ------- ---- -- --- ------- --<br>issuing ---------- ------ -- ----- -- ----- -- ---- ------<br>--- ----- --- --- ------ -------- ----- --- ------ ----- --<br>----- ----- ---------- --- --- ------ ------ ---- -- ------<br>------- --- ------ ----- --- ---- ------- -- ---- --- --<br>------- ------,237333.8549998589,237333.11999961734,236914.714,236927.97499988228,236931.443,237347.716,,12,issuing
screen,html.Screen,1_1_1_1_13,2021-04-15T07:58:41.595Z,,,,,,,,,,,,,,,,54,,,,,,,,,,,,,,547.4489996452176,,response,,,,100,,,,,,,Space,keypress(Space),,,,,,,,-- --- ---- --- ------ ----- ------- ---- -- --- ------- --<br>------- government ------ -- ----- -- ----- -- ---- ------<br>--- ----- --- --- ------ -------- ----- --- ------ ----- --<br>----- ----- ---------- --- --- ------ ------ ---- -- ------<br>------- --- ------ ----- --- ---- ------- -- ---- --- --<br>------- ------,237896.21499972418,237895.1649996452,237331.056,237333.95999995992,237347.716,237914.185,,13,government
screen,html.Screen,1_1_1_1_14,2021-04-15T07:58:42.081Z,,,,,,,,,,,,,,,,54,,,,,,,,,,,,,,466.88499965384835,,response,,,,100,,,,,,,Space,keypress(Space),,,,,,,,-- --- ---- --- ------ ----- ------- ---- -- --- ------- --<br>------- ---------- bonds. -- ----- -- ----- -- ---- ------<br>--- ----- --- --- ------ -------- ----- --- ------ ----- --<br>----- ----- ---------- --- --- ------ ------ ---- -- ------<br>------- --- ------ ----- --- ---- ------- -- ---- --- --<br>------- ------,238382.22499983385,238381.06999965385,237897.501,237897.45000004768,237914.185,238397.185,,14,bonds.
screen,html.Screen,1_1_1_1_15,2021-04-15T07:58:43.384Z,,,,,,,,,,,,,,,,54,,,,,,,,,,,,,,1286.6800000281655,,response,,,,100,,,,,,,Space,keypress(Space),,,,,,,,-- --- ---- --- ------ ----- ------- ---- -- --- ------- --<br>------- ---------- ------ In ----- -- ----- -- ---- ------<br>--- ----- --- --- ------ -------- ----- --- ------ ----- --<br>----- ----- ---------- --- --- ------ ------ ---- -- ------<br>------- --- ------ ----- --- ---- ------- -- ---- --- --<br>------- ------,239684.83999976888,239683.86500002816,238380.655,238382.45499972254,238397.185,239695.779,,15,In
screen,html.Screen,1_1_1_1_16,2021-04-15T07:58:44.192Z,,,,,,,,,,,,,,,,54,,,,,,,,,,,,,,795.3109996757412,,response,,,,100,,,,,,,Space,keypress(Space),,,,,,,,"-- --- ---- --- ------ ----- ------- ---- -- --- ------- --<br>------- ---------- ------ -- 1727, -- ----- -- ---- ------<br>--- ----- --- --- ------ -------- ----- --- ------ ----- --<br>----- ----- ---------- --- --- ------ ------ ---- -- ------<br>------- --- ------ ----- --- ---- ------- -- ---- --- --<br>------- ------",240492.31999972835,240491.08999967575,239679.115,239685.06499985233,239695.779,240495.098,,16,"1727,"
screen,html.Screen,1_1_1_1_17,2021-04-15T07:58:45.001Z,,,,,,,,,,,,,,,,54,,,,,,,,,,,,,,805.5519996408839,,response,,,,100,,,,,,,Space,keypress(Space),,,,,,,,-- --- ---- --- ------ ----- ------- ---- -- --- ------- --<br>------- ---------- ------ -- ----- in ----- -- ---- ------<br>--- ----- --- --- ------ -------- ----- --- ------ ----- --<br>----- ----- ---------- --- --- ------ ------ ---- -- ------<br>------- --- ------ ----- --- ---- ------- -- ---- --- --<br>------- ------,241301.62499984726,241300.64999964088,240478.377,240492.57500004023,240495.098,241311.38,,17,in
screen,html.Screen,1_1_1_1_18,2021-04-15T07:58:46.278Z,,,,,,,,,,,,,,,,54,,,,,,,,,,,,,,1266.4749998067273,,response,,,,100,,,,,,,Space,keypress(Space),,,,,,,,-- --- ---- --- ------ ----- ------- ---- -- --- ------- --<br>------- ---------- ------ -- ----- -- order -- ---- ------<br>--- ----- --- --- ------ -------- ----- --- ------ ----- --<br>----- ----- ---------- --- --- ------ ------ ---- -- ------<br>------- --- ------ ----- --- ---- ------- -- ---- --- --<br>------- ------,242578.96999968216,242577.85499980673,241294.698,241301.83500004932,241311.38,242593.748,,18,order
screen,html.Screen,1_1_1_1_19,2021-04-15T07:58:46.729Z,,,,,,,,,,,,,,,,54,,,,,,,,,,,,,,435.2170000631886,,response,,,,100,,,,,,,Space,keypress(Space),,,,,,,,-- --- ---- --- ------ ----- ------- ---- -- --- ------- --<br>------- ---------- ------ -- ----- -- ----- to ---- ------<br>--- ----- --- --- ------ -------- ----- --- ------ ----- --<br>----- ----- ---------- --- --- ------ ------ ---- -- ------<br>------- --- ------ ----- --- ---- ------- -- ---- --- --<br>------- ------,243029.9249999225,243028.96500006318,242576.859,242579.16999980807,242593.748,243043.189,,19,to
screen,html.Screen,1_1_1_1_20,2021-04-15T07:58:47.335Z,,,,,,,,,,,,,,,,54,,,,,,,,,,,,,,591.171000025468,,response,,,,100,,,,,,,Space,keypress(Space),,,,,,,,-- --- ---- --- ------ ----- ------- ---- -- --- ------- --<br>------- ---------- ------ -- ----- -- ----- -- save ------<br>--- ----- --- --- ------ -------- ----- --- ------ ----- --<br>----- ----- ---------- --- --- ------ ------ ---- -- ------<br>------- --- ------ ----- --- ---- ------- -- ---- --- --<br>------- ------,243635.5499997735,243634.36000002548,243026.314,243030.12500004843,243043.189,243642.646,,20,save
screen,html.Screen,1_1_1_1_21,2021-04-15T07:58:48.159Z,,,,,,,,,,,,,,,,54,,,,,,,,,,,,,,816.1539996729116,,response,,,,100,,,,,,,Space,keypress(Space),,,,,,,,"-- --- ---- --- ------ ----- ------- ---- -- --- ------- --<br>------- ---------- ------ -- ----- -- ----- -- ---- money,<br>--- ----- --- --- ------ -------- ----- --- ------ ----- --<br>----- ----- ---------- --- --- ------ ------ ---- -- ------<br>------- --- ------ ----- --- ---- ------- -- ---- --- --<br>------- ------",244459.94499977678,244458.79999967292,243625.85,243635.7799996622,243642.646,244475.432,,21,"money,"
screen,html.Screen,1_1_1_1_22,2021-04-15T07:58:49.798Z,,,,,,,,,,,,,,,,54,,,,,,,,,,,,,,1622.2929997667961,,response,,,,100,,,,,,,Space,keypress(Space),,,,,,,,-- --- ---- --- ------ ----- ------- ---- -- --- ------- --<br>------- ---------- ------ -- ----- -- ----- -- ---- ------<br>the ----- --- --- ------ -------- ----- --- ------ ----- --<br>----- ----- ---------- --- --- ------ ------ ---- -- ------<br>------- --- ------ ----- --- ---- ------- -- ---- --- --<br>------- ------,246098.78499992192,246097.7249997668,244458.624,244460.17499966547,244475.432,246107.255,,22,the
screen,html.Screen,1_1_1_1_23,2021-04-15T07:58:51.013Z,,,,,,,,,,,,,,,,54,,,,,,,,,,,,,,1205.9649998944951,,response,,,,100,,,,,,,Space,keypress(Space),,,,,,,,-- --- ---- --- ------ ----- ------- ---- -- --- ------- --<br>------- ---------- ------ -- ----- -- ----- -- ---- ------<br>--- state --- --- ------ -------- ----- --- ------ ----- --<br>----- ----- ---------- --- --- ------ ------ ---- -- ------<br>------- --- ------ ----- --- ---- ------- -- ---- --- --<br>------- ------,247314.2899996601,247313.2199998945,246090.558,246098.98500004783,246107.255,247322.883,,23,state
screen,html.Screen,1_1_1_1_24,2021-04-15T07:58:51.919Z,,,,,,,,,,,,,,,,54,,,,,,,,,,,,,,893.7319998083694,,response,,,,100,,,,,,,Space,keypress(Space),,,,,,,,-- --- ---- --- ------ ----- ------- ---- -- --- ------- --<br>------- ---------- ------ -- ----- -- ----- -- ---- ------<br>--- ----- cut --- ------ -------- ----- --- ------ ----- --<br>----- ----- ---------- --- --- ------ ------ ---- -- ------<br>------- --- ------ ----- --- ---- ------- -- ---- --- --<br>------- ------,248219.65499967337,248216.61499980837,247306.4,247314.5099999383,247322.883,248238.944,,24,cut
screen,html.Screen,1_1_1_1_25,2021-04-15T07:58:52.361Z,,,,,,,,,,,,,,,,54,,,,,,,,,,,,,,420.22099961168715,,response,,,,100,,,,,,,Space,keypress(Space),,,,,,,,-- --- ---- --- ------ ----- ------- ---- -- --- ------- --<br>------- ---------- ------ -- ----- -- ----- -- ---- ------<br>--- ----- --- the ------ -------- ----- --- ------ ----- --<br>----- ----- ---------- --- --- ------ ------ ---- -- ------<br>------- --- ------ ----- --- ---- ------- -- ---- --- --<br>------- ------,248662.09500003606,248659.16499961168,248222.045,248220.544999931,248238.944,248671.947,,25,the
screen,html.Screen,1_1_1_1_26,2021-04-15T07:58:52.721Z,,,,,,,,,,,,,,,,54,,,,,,,,,,,,,,346.36299972300185,,response,,,,100,,,,,,,Space,keypress(Space),,,,,,,,-- --- ---- --- ------ ----- ------- ---- -- --- ------- --<br>------- ---------- ------ -- ----- -- ----- -- ---- ------<br>--- ----- --- --- bonds' -------- ----- --- ------ ----- --<br>----- ----- ---------- --- --- ------ ------ ---- -- ------<br>------- --- ------ ----- --- ---- ------- -- ---- --- --<br>------- ------,249021.58499974757,249018.309999723,248655.273,248662.98999963328,248671.947,249038.203,,26,bonds'
screen,html.Screen,1_1_1_1_27,2021-04-15T07:58:53.355Z,,,,,,,,,,,,,,,,54,,,,,,,,,,,,,,614.902000033966,,response,,,,100,,,,,,,Space,keypress(Space),,,,,,,,-- --- ---- --- ------ ----- ------- ---- -- --- ------- --<br>------- ---------- ------ -- ----- -- ----- -- ---- ------<br>--- ----- --- --- ------ interest ----- --- ------ ----- --<br>----- ----- ---------- --- --- ------ ------ ---- -- ------<br>------- --- ------ ----- --- ---- ------- -- ---- --- --<br>------- ------,249655.98999988288,249653.10500003397,249021.906,249022.75499980897,249038.203,249687.9,,27,interest
screen,html.Screen,1_1_1_1_28,2021-04-15T07:58:53.759Z,,,,,,,,,,,,,,,,54,,,,,,,,,,,,,,368.8600000649749,,response,,,,100,,,,,,,Space,keypress(Space),,,,,,,,-- --- ---- --- ------ ----- ------- ---- -- --- ------- --<br>------- ---------- ------ -- ----- -- ----- -- ---- ------<br>--- ----- --- --- ------ -------- rate. --- ------ ----- --<br>----- ----- ---------- --- --- ------ ------ ---- -- ------<br>------- --- ------ ----- --- ---- ------- -- ---- --- --<br>------- ------,250059.72500005737,250056.76000006497,249654.609,249656.91499970853,249687.9,250070.817,,28,rate.
screen,html.Screen,1_1_1_1_29,2021-04-15T07:58:54.233Z,,,,,,,,,,,,,,,,54,,,,,,,,,,,,,,460.48299991505337,,response,,,,100,,,,,,,Space,keypress(Space),,,,,,,,-- --- ---- --- ------ ----- ------- ---- -- --- ------- --<br>------- ---------- ------ -- ----- -- ----- -- ---- ------<br>--- ----- --- --- ------ -------- ----- The ------ ----- --<br>----- ----- ---------- --- --- ------ ------ ---- -- ------<br>------- --- ------ ----- --- ---- ------- -- ---- --- --<br>------- ------,250534.2149999924,250531.29999991506,250054.295,250060.65499968827,250070.817,250570.27,,29,The
screen,html.Screen,1_1_1_1_30,2021-04-15T07:58:54.690Z,,,,,,,,,,,,,,,,54,,,,,,,,,,,,,,417.3749997536943,,response,,,,100,,,,,,,Space,keypress(Space),,,,,,,,-- --- ---- --- ------ ----- ------- ---- -- --- ------- --<br>------- ---------- ------ -- ----- -- ----- -- ---- ------<br>--- ----- --- --- ------ -------- ----- --- market ----- --<br>----- ----- ---------- --- --- ------ ------ ---- -- ------<br>------- --- ------ ----- --- ---- ------- -- ---- --- --<br>------- ------,250990.85499998182,250987.64499975368,250553.603,250535.26999987662,250570.27,251003.415,,30,market
screen,html.Screen,1_1_1_1_31,2021-04-15T07:58:55.087Z,,,,,,,,,,,,,,,,54,,,,,,,,,,,,,,381.1000000415661,,response,,,,100,,,,,,,Space,keypress(Space),,,,,,,,-- --- ---- --- ------ ----- ------- ---- -- --- ------- --<br>------- ---------- ------ -- ----- -- ----- -- ---- ------<br>--- ----- --- --- ------ -------- ----- --- ------ value --<br>----- ----- ---------- --- --- ------ ------ ---- -- ------<br>------- --- ------ ----- --- ---- ------- -- ---- --- --<br>------- ------,251387.45999988168,251384.51500004157,250986.671,250991.81499984115,251003.415,251402.983,,31,value
screen,html.Screen,1_1_1_1_32,2021-04-15T07:58:55.875Z,,,,,,,,,,,,,,,,54,,,,,,,,,,,,,,769.271999633871,,response,,,,100,,,,,,,Space,keypress(Space),,,,,,,,-- --- ---- --- ------ ----- ------- ---- -- --- ------- --<br>------- ---------- ------ -- ----- -- ----- -- ---- ------<br>--- ----- --- --- ------ -------- ----- --- ------ ----- of<br>----- ----- ---------- --- --- ------ ------ ---- -- ------<br>------- --- ------ ----- --- ---- ------- -- ---- --- --<br>------- ------,252175.3650000319,252172.25499963388,251386.456,251388.38499970734,251402.983,252185.73,,32,of
screen,html.Screen,1_1_1_1_33,2021-04-15T07:58:57.382Z,,,,,,,,,,,,,,,,54,,,,,,,,,,,,,,1495.6799997281923,,response,,,,100,,,,,,,Space,keypress(Space),,,,,,,,-- --- ---- --- ------ ----- ------- ---- -- --- ------- --<br>------- ---------- ------ -- ----- -- ----- -- ---- ------<br>--- ----- --- --- ------ -------- ----- --- ------ ----- --<br>these ----- ---------- --- --- ------ ------ ---- -- ------<br>------- --- ------ ----- --- ---- ------- -- ---- --- --<br>------- ------,253682.55000002682,253681.4099997282,252169.146,252176.25000001863,252185.73,253712.353,,33,these
screen,html.Screen,1_1_1_1_34,2021-04-15T07:58:57.768Z,,,,,,,,,,,,,,,,54,,,,,,,,,,,,,,355.58699997898657,,response,,,,100,,,,,,,Space,keypress(Space),,,,,,,,-- --- ---- --- ------ ----- ------- ---- -- --- ------- --<br>------- ---------- ------ -- ----- -- ----- -- ---- ------<br>--- ----- --- --- ------ -------- ----- --- ------ ----- --<br>----- bonds ---------- --- --- ------ ------ ---- -- ------<br>------- --- ------ ----- --- ---- ------- -- ---- --- --<br>------- ------,254068.9949998632,254067.939999979,253667.968,253682.76999983937,253712.353,254084.057,,34,bonds
screen,html.Screen,1_1_1_1_35,2021-04-15T07:58:58.364Z,,,,,,,,,,,,,,,,54,,,,,,,,,,,,,,579.6079998836212,,response,,,,100,,,,,,,Space,keypress(Space),,,,,,,,"-- --- ---- --- ------ ----- ------- ---- -- --- ------- --<br>------- ---------- ------ -- ----- -- ----- -- ---- ------<br>--- ----- --- --- ------ -------- ----- --- ------ ----- --<br>----- ----- plummeted, --- --- ------ ------ ---- -- ------<br>------- --- ------ ----- --- ---- ------- -- ---- --- --<br>------- ------",254664.79999991134,254663.66499988362,254067.551,254069.19999979436,254084.057,254666.805,,35,"plummeted,"
screen,html.Screen,1_1_1_1_36,2021-04-15T07:58:58.929Z,,,,,,,,,,,,,,,,54,,,,,,,,,,,,,,561.5800000239979,,response,,,,100,,,,,,,Space,keypress(Space),,,,,,,,-- --- ---- --- ------ ----- ------- ---- -- --- ------- --<br>------- ---------- ------ -- ----- -- ----- -- ---- ------<br>--- ----- --- --- ------ -------- ----- --- ------ ----- --<br>----- ----- ---------- and --- ------ ------ ---- -- ------<br>------- --- ------ ----- --- ---- ------- -- ---- --- --<br>------- ------,255229.4749999419,255228.385000024,254650.284,254665.01499991864,254666.805,255232.99,,36,and
screen,html.Screen,1_1_1_1_37,2021-04-15T07:58:59.279Z,,,,,,,,,,,,,,,,54,,,,,,,,,,,,,,345.8549998945091,,response,,,,100,,,,,,,Space,keypress(Space),,,,,,,,-- --- ---- --- ------ ----- ------- ---- -- --- ------- --<br>------- ---------- ------ -- ----- -- ----- -- ---- ------<br>--- ----- --- --- ------ -------- ----- --- ------ ----- --<br>----- ----- ---------- --- the ------ ------ ---- -- ------<br>------- --- ------ ----- --- ---- ------- -- ---- --- --<br>------- ------,255579.919999931,255578.8449998945,255216.606,255229.7299997881,255232.99,255582.726,,37,the
screen,html.Screen,1_1_1_1_38,2021-04-15T07:58:59.589Z,,,,,,,,,,,,,,,,54,,,,,,,,,,,,,,306.04399961212766,,response,,,,100,,,,,,,Space,keypress(Space),,,,,,,,-- --- ---- --- ------ ----- ------- ---- -- --- ------- --<br>------- ---------- ------ -- ----- -- ----- -- ---- ------<br>--- ----- --- --- ------ -------- ----- --- ------ ----- --<br>----- ----- ---------- --- --- market ------ ---- -- ------<br>------- --- ------ ----- --- ---- ------- -- ---- --- --<br>------- ------,255889.90499963984,255888.76999961212,255565.998,255580.12499986216,255582.726,255899.213,,38,market
screen,html.Screen,1_1_1_1_39,2021-04-15T07:59:00.214Z,,,,,,,,,,,,,,,,54,,,,,,,,,,,,,,614.7119996282272,,response,,,,100,,,,,,,Space,keypress(Space),,,,,,,,-- --- ---- --- ------ ----- ------- ---- -- --- ------- --<br>------- ---------- ------ -- ----- -- ----- -- ---- ------<br>--- ----- --- --- ------ -------- ----- --- ------ ----- --<br>----- ----- ---------- --- --- ------ became ---- -- ------<br>------- --- ------ ----- --- ---- ------- -- ---- --- --<br>------- ------,256514.84499964863,256513.92499962822,255882.671,255890.12499991804,255899.213,256532.012,,39,became
screen,html.Screen,1_1_1_1_40,2021-04-15T07:59:00.610Z,,,,,,,,,,,,,,,,54,,,,,,,,,,,,,,377.63300000701565,,response,,,,100,,,,,,,Space,keypress(Space),,,,,,,,-- --- ---- --- ------ ----- ------- ---- -- --- ------- --<br>------- ---------- ------ -- ----- -- ----- -- ---- ------<br>--- ----- --- --- ------ -------- ----- --- ------ ----- --<br>----- ----- ---------- --- --- ------ ------ wary -- ------<br>------- --- ------ ----- --- ---- ------- -- ---- --- --<br>------- ------,256910.3799997829,256909.645000007,256515.255,256515.04499977455,256532.012,256914.897,,40,wary
screen,html.Screen,1_1_1_1_41,2021-04-15T07:59:00.912Z,,,,,,,,,,,,,,,,54,,,,,,,,,,,,,,296.5379999465076,,response,,,,100,,,,,,,Space,keypress(Space),,,,,,,,-- --- ---- --- ------ ----- ------- ---- -- --- ------- --<br>------- ---------- ------ -- ----- -- ----- -- ---- ------<br>--- ----- --- --- ------ -------- ----- --- ------ ----- --<br>----- ----- ---------- --- --- ------ ------ ---- of ------<br>------- --- ------ ----- --- ---- ------- -- ---- --- --<br>------- ------,257212.5049997121,257211.4349999465,256898.312,256910.5149996467,256914.897,257214.677,,41,of
screen,html.Screen,1_1_1_1_42,2021-04-15T07:59:01.263Z,,,,,,,,,,,,,,,,54,,,,,,,,,,,,,,348.46800002190867,,response,,,,100,,,,,,,Space,keypress(Space),,,,,,,,-- --- ---- --- ------ ----- ------- ---- -- --- ------- --<br>------- ---------- ------ -- ----- -- ----- -- ---- ------<br>--- ----- --- --- ------ -------- ----- --- ------ ----- --<br>----- ----- ---------- --- --- ------ ------ ---- -- French<br>------- --- ------ ----- --- ---- ------- -- ---- --- --<br>------- ------,257564.27499977872,257563.1450000219,257198.084,257212.70499983802,257214.677,257581.251,,42,French
screen,html.Screen,1_1_1_1_43,2021-04-15T07:59:01.919Z,,,,,,,,,,,,,,,,54,,,,,,,,,,,,,,637.5189996866393,,response,,,,100,,,,,,,Space,keypress(Space),,,,,,,,-- --- ---- --- ------ ----- ------- ---- -- --- ------- --<br>------- ---------- ------ -- ----- -- ----- -- ---- ------<br>--- ----- --- --- ------ -------- ----- --- ------ ----- --<br>----- ----- ---------- --- --- ------ ------ ---- -- ------<br>credit. --- ------ ----- --- ---- ------- -- ---- --- --<br>------- ------,258219.9149997905,258218.76999968663,257564.472,257564.49999986216,257581.251,258230.783,,43,credit.
screen,html.Screen,1_1_1_1_44,2021-04-15T07:59:02.410Z,,,,,,,,,,,,,,,,54,,,,,,,,,,,,,,478.5419997124118,,response,,,,100,,,,,,,Space,keypress(Space),,,,,,,,-- --- ---- --- ------ ----- ------- ---- -- --- ------- --<br>------- ---------- ------ -- ----- -- ----- -- ---- ------<br>--- ----- --- --- ------ -------- ----- --- ------ ----- --<br>----- ----- ---------- --- --- ------ ------ ---- -- ------<br>------- The ------ ----- --- ---- ------- -- ---- --- --<br>------- ------,258710.39499994367,258709.3249997124,258213.896,258220.1350000687,258230.783,258713.448,,44,The
screen,html.Screen,1_1_1_1_45,2021-04-15T07:59:02.988Z,,,,,,,,,,,,,,,,54,,,,,,,,,,,,,,573.8169999335369,,response,,,,100,,,,,,,Space,keypress(Space),,,,,,,,-- --- ---- --- ------ ----- ------- ---- -- --- ------- --<br>------- ---------- ------ -- ----- -- ----- -- ---- ------<br>--- ----- --- --- ------ -------- ----- --- ------ ----- --<br>----- ----- ---------- --- --- ------ ------ ---- -- ------<br>------- --- French ----- --- ---- ------- -- ---- --- --<br>------- ------,259288.33999997005,259287.26499993354,258696.862,258710.60999995098,258713.448,259296.361,,45,French
screen,html.Screen,1_1_1_1_46,2021-04-15T07:59:03.386Z,,,,,,,,,,,,,,,,54,,,,,,,,,,,,,,389.40400006019627,,response,,,,100,,,,,,,Space,keypress(Space),,,,,,,,-- --- ---- --- ------ ----- ------- ---- -- --- ------- --<br>------- ---------- ------ -- ----- -- ----- -- ---- ------<br>--- ----- --- --- ------ -------- ----- --- ------ ----- --<br>----- ----- ---------- --- --- ------ ------ ---- -- ------<br>------- --- ------ state --- ---- ------- -- ---- --- --<br>------- ------,259686.99499964714,259685.7650000602,259279.94,259288.5399996303,259296.361,259696.185,,46,state
screen,html.Screen,1_1_1_1_47,2021-04-15T07:59:03.729Z,,,,,,,,,,,,,,,,54,,,,,,,,,,,,,,332.04999962687725,,response,,,,100,,,,,,,Space,keypress(Space),,,,,,,,-- --- ---- --- ------ ----- ------- ---- -- --- ------- --<br>------- ---------- ------ -- ----- -- ----- -- ---- ------<br>--- ----- --- --- ------ -------- ----- --- ------ ----- --<br>----- ----- ---------- --- --- ------ ------ ---- -- ------<br>------- --- ------ ----- was ---- ------- -- ---- --- --<br>------- ------,260029.31999973953,260028.23499962687,259679.347,259687.21499992535,259696.185,260045.807,,47,was
screen,html.Screen,1_1_1_1_48,2021-04-15T07:59:04.129Z,,,,,,,,,,,,,,,,54,,,,,,,,,,,,,,382.9379996918433,,response,,,,100,,,,,,,Space,keypress(Space),,,,,,,,-- --- ---- --- ------ ----- ------- ---- -- --- ------- --<br>------- ---------- ------ -- ----- -- ----- -- ---- ------<br>--- ----- --- --- ------ -------- ----- --- ------ ----- --<br>----- ----- ---------- --- --- ------ ------ ---- -- ------<br>------- --- ------ ----- --- left ------- -- ---- --- --<br>------- ------,260429.78999996558,260428.74499969184,260029.011,260029.54499982297,260045.807,260445.464,,48,left
screen,html.Screen,1_1_1_1_49,2021-04-15T07:59:04.524Z,,,,,,,,,,,,,,,,54,,,,,,,,,,,,,,377.9359996446001,,response,,,,100,,,,,,,Space,keypress(Space),,,,,,,,-- --- ---- --- ------ ----- ------- ---- -- --- ------- --<br>------- ---------- ------ -- ----- -- ----- -- ---- ------<br>--- ----- --- --- ------ -------- ----- --- ------ ----- --<br>----- ----- ---------- --- --- ------ ------ ---- -- ------<br>------- --- ------ ----- --- ---- without -- ---- --- --<br>------- ------,260824.52999986708,260823.3999996446,260429.056,260430.01999985427,260445.464,260828.379,,49,without
screen,html.Screen,1_1_1_1_50,2021-04-15T07:59:04.819Z,,,,,,,,,,,,,,,,54,,,,,,,,,,,,,,290.511000041588,,response,,,,100,,,,,,,Space,keypress(Space),,,,,,,,-- --- ---- --- ------ ----- ------- ---- -- --- ------- --<br>------- ---------- ------ -- ----- -- ----- -- ---- ------<br>--- ----- --- --- ------ -------- ----- --- ------ ----- --<br>----- ----- ---------- --- --- ------ ------ ---- -- ------<br>------- --- ------ ----- --- ---- ------- an ---- --- --<br>------- ------,261120.0199997984,261118.89000004157,260811.818,260824.76999983191,260828.379,261128.104,,50,an
screen,html.Screen,1_1_1_1_51,2021-04-15T07:59:05.190Z,,,,,,,,,,,,,,,,54,,,,,,,,,,,,,,361.61599995411234,,response,,,,100,,,,,,,Space,keypress(Space),,,,,,,,-- --- ---- --- ------ ----- ------- ---- -- --- ------- --<br>------- ---------- ------ -- ----- -- ----- -- ---- ------<br>--- ----- --- --- ------ -------- ----- --- ------ ----- --<br>----- ----- ---------- --- --- ------ ------ ---- -- ------<br>------- --- ------ ----- --- ---- ------- -- easy --- --<br>------- ------,261490.66499993205,261489.7199999541,261111.516,261120.26999983937,261128.104,261494.424,,51,easy
screen,html.Screen,1_1_1_1_52,2021-04-15T07:59:05.496Z,,,,,,,,,,,,,,,,54,,,,,,,,,,,,,,301.67099964863155,,response,,,,100,,,,,,,Space,keypress(Space),,,,,,,,-- --- ---- --- ------ ----- ------- ---- -- --- ------- --<br>------- ---------- ------ -- ----- -- ----- -- ---- ------<br>--- ----- --- --- ------ -------- ----- --- ------ ----- --<br>----- ----- ---------- --- --- ------ ------ ---- -- ------<br>------- --- ------ ----- --- ---- ------- -- ---- way --<br>------- ------,261797.19999991357,261796.09499964863,261477.807,261490.84999971092,261494.424,261811.085,,52,way
screen,html.Screen,1_1_1_1_53,2021-04-15T07:59:05.960Z,,,,,,,,,,,,,,,,54,,,,,,,,,,,,,,448.1999996872328,,response,,,,100,,,,,,,Space,keypress(Space),,,,,,,,-- --- ---- --- ------ ----- ------- ---- -- --- ------- --<br>------- ---------- ------ -- ----- -- ----- -- ---- ------<br>--- ----- --- --- ------ -------- ----- --- ------ ----- --<br>----- ----- ---------- --- --- ------ ------ ---- -- ------<br>------- --- ------ ----- --- ---- ------- -- ---- --- of<br>------- ------,262260.32999996096,262259.2849996872,261794.331,261797.4399998784,261811.085,262277.405,,53,of
screen,html.Screen,1_1_1_1_54,2021-04-15T07:59:06.463Z,,,,,,,,,,,,,,,,54,,,,,,,,,,,,,,485.2599998128135,,response,,,,100,,,,,,,Space,keypress(Space),,,,,,,,-- --- ---- --- ------ ----- ------- ---- -- --- ------- --<br>------- ---------- ------ -- ----- -- ----- -- ---- ------<br>--- ----- --- --- ------ -------- ----- --- ------ ----- --<br>----- ----- ---------- --- --- ------ ------ ---- -- ------<br>------- --- ------ ----- --- ---- ------- -- ---- --- --<br>raising ------,262763.67999985814,262762.66499981284,262260.814,262260.55999984965,262277.405,262777.024,,54,raising
screen,html.Screen,1_1_1_1_55,2021-04-15T07:59:06.928Z,,,,,,,,,,,,,,,,54,,,,,,,,,,,,,,451.1609998981003,,response,,,,100,,,,,,,Space,keypress(Space),,,,,,,,-- --- ---- --- ------ ----- ------- ---- -- --- ------- --<br>------- ---------- ------ -- ----- -- ----- -- ---- ------<br>--- ----- --- --- ------ -------- ----- --- ------ ----- --<br>----- ----- ---------- --- --- ------ ------ ---- -- ------<br>------- --- ------ ----- --- ---- ------- -- ---- --- --<br>------- money.,263229.16999971494,263228.1849998981,262760.199,262763.9049999416,262777.024,263243.194,,55,money.
Item 100,flow.Loop,1_1_1_1,2021-04-15T07:59:06.929Z,,,,,,,,,,,,,,,,,,,,,,,,,,,,,,32708.00799989808,,completion,,,,,A,,,,,,,,,,,silence,,,,,263229.469999671,263228.1849998981,230503.436,230504.82499971986,230520.177,263243.194,,,
Question 1,html.Screen,1_1_1_2,2021-04-15T07:59:09.587Z,,,,,,,,,,,,,,,,,,,,,,,,,,,true,TRUE,,2643.401000047219,,response,,,,100,A,,,,,,TRUE,click #choice-1,,,,silence,,,,,265888.0099998787,265886.59500004724,263226.505,263229.59999972954,263243.194,265890.901,,,
Question 2,html.Screen,1_1_1_3,2021-04-15T07:59:11.811Z,,,,,,,,,,,,,,,,,,,,,,,,,,,true,FALSE,,2219.293999724614,,response,,,,100,A,,,,,,FALSE,click #choice-2,,,,silence,,,,,268111.5850000642,268110.1949997246,265874.251,265888.2399997674,265890.901,268122.677,,,
Item 100,flow.Sequence,1_1_1,2021-04-15T07:59:11.811Z,,,,,,,,,,,,,,,,,,,,,,,,,,,,,,47582.04899972462,,completion,,,,,,,,,,,,,,,,,,,,,268111.92000005394,268110.1949997246,220511.557,220506.01499993354,220528.146,268122.677,,,
End of Practice,html.Page,1_1_2,2021-04-15T07:59:19.565Z,,,,,,,,,,,,,,,,,,,,,,,,,,,,,,7741.847999633406,,form submission,,,,,,,,,,,,,,,,,,,,,275866.1949997768,275864.52499963343,268106.056,268112.0449998416,268122.677,275882.808,,,
Practice,flow.Sequence,1_1,2021-04-15T07:59:19.567Z,,,,,,,,,,,,,,,,,,,,,,,,,,,,,,101531.62799963343,,completion,,,,,,,,,,,,,,,,,,,,,275867.67499987036,275864.52499963343,174316.386,174321.1599998176,174332.897,275882.808,,,
Trap_instruction,html.Page,1_2_0,2021-04-15T07:59:25.415Z,,,,,,,,,,,,,,,,,,,,,,,,,,,,,,5832.531999645929,,form submission,,,,,,,,,,,,,,,,,,,,,281715.65499994904,281715.33999964595,275849.436,275868.66999976337,275882.808,281727.783,,,
trap_trial,html.Screen,1_2_1,2021-04-15T07:59:29.197Z,,,,,,,,,,,,,,,,,,,,,,,,,,,true,1,,3769.046999610786,,response,,,,,,,,,,,1,click #choice-1,,,,,,,,,285498.1799996458,285496.8299996108,281711.685,281715.80999996513,281727.783,285508.23,,,
end of trap trial,html.Page,1_2_2,2021-04-15T07:59:31.747Z,,,,,,,,,,,,,,,,,,,,,,,,,,,,,,2539.68500000285,,form submission,,,,,,,,,,,,,,,,,,,,,288048.2999999076,288047.91500000283,285491.588,285498.399999924,285508.23,288056.164,,,
Trap 1,flow.Sequence,1_2,2021-04-15T07:59:31.748Z,,,,,,,,,,,,,,,,,,,,,,,,,,,,,,12165.107000002812,,completion,,,,,,,,,,,,,,,,,,,,,288048.58499998227,288047.91500000283,275849.436,275868.3449998498,275882.808,288056.164,,,
Standby,html.Page,1_3_0,2021-04-15T07:59:39.735Z,,,,,,,,,,,,,,,,,,,,,,,,,,,,,,8010.021999999997,,timeout,,,,,,,,,,,,,,,,,,,,,296036.4949996583,296032.985,288039.526,288048.77500003204,288056.164,296066.186,,,
Holding screen,html.Screen,1_3_1_0_0,2021-04-15T07:59:46.744Z,,,,,,,,,,,,,,,,,,,,,,,,,,,,,,6994.25,,timeout,,,,,,,,,,,,,,,,,,,,,303044.89499982446,303043.745,296032.985,296038.12499996275,296066.186,303060.436,,,
screen,html.Screen,1_3_1_0_1_0,2021-04-15T07:59:47.631Z,,,,,,,,,,,,,,,,51,,,,,,,,,,,,,,866.6740000478458,,response,,,,13,A,,,,,,Space,keypress(Space),,,,silence,,,,American -------- --- --- ---- --- --- ------ -- --------<br>---- --------- --- ------- ------------ ---------- ---------<br>--- ---------- ------- ---------- ------- -- -------- ----<br>---- --- ------ ----- ------ -- ---- --- ----- -- - -------<br>-------- -- --- --- -- ----- ----------- ----- -----------<br>---- --- ---------- --- ---- --- -- ----------,303932.0399998687,303927.11000004783,303043.745,303045.2349996194,303060.436,303943.217,,0,American
screen,html.Screen,1_3_1_0_1_1,2021-04-15T07:59:48.370Z,,,,,,,,,,,,,,,,51,,,,,,,,,,,,,,724.9779999183374,,response,,,,13,A,,,,,,Space,keypress(Space),,,,silence,,,,-------- industry --- --- ---- --- --- ------ -- --------<br>---- --------- --- ------- ------------ ---------- ---------<br>--- ---------- ------- ---------- ------- -- -------- ----<br>---- --- ------ ----- ------ -- ---- --- ----- -- - -------<br>-------- -- --- --- -- ----- ----------- ----- -----------<br>---- --- ---------- --- ---- --- -- ----------,304671.074999962,304668.19499991834,303926.297,303933.3249996416,303943.217,304675.905,,1,industry
screen,html.Screen,1_3_1_0_1_2,2021-04-15T07:59:49.022Z,,,,,,,,,,,,,,,,51,,,,,,,,,,,,,,644.3349997971673,,response,,,,13,A,,,,,,Space,keypress(Space),,,,silence,,,,-------- -------- may --- ---- --- --- ------ -- --------<br>---- --------- --- ------- ------------ ---------- ---------<br>--- ---------- ------- ---------- ------- -- -------- ----<br>---- --- ------ ----- ------ -- ---- --- ----- -- - -------<br>-------- -- --- --- -- ----- ----------- ----- -----------<br>---- --- ---------- --- ---- --- -- ----------,305323.1849996373,305320.2399997972,304659.168,304671.9849999063,304675.905,305342.022,,2,may
screen,html.Screen,1_3_1_0_1_3,2021-04-15T07:59:49.422Z,,,,,,,,,,,,,,,,51,,,,,,,,,,,,,,377.82799999404233,,response,,,,13,A,,,,,,Space,keypress(Space),,,,silence,,,,-------- -------- --- not ---- --- --- ------ -- --------<br>---- --------- --- ------- ------------ ---------- ---------<br>--- ---------- ------- ---------- ------- -- -------- ----<br>---- --- ------ ----- ------ -- ---- --- ----- -- - -------<br>-------- -- --- --- -- ----- ----------- ----- -----------<br>---- --- ---------- --- ---- --- -- ----------,305722.87499997765,305719.84999999404,305325.337,305324.0849999711,305342.022,305741.665,,3,not
screen,html.Screen,1_3_1_0_1_4,2021-04-15T07:59:49.819Z,,,,,,,,,,,,,,,,51,,,,,,,,,,,,,,375.6950000329525,,response,,,,13,A,,,,,,Space,keypress(Space),,,,silence,,,,-------- -------- --- --- know --- --- ------ -- --------<br>---- --------- --- ------- ------------ ---------- ---------<br>--- ---------- ------- ---------- ------- -- -------- ----<br>---- --- ------ ----- ------ -- ---- --- ----- -- - -------<br>-------- -- --- --- -- ----- ----------- ----- -----------<br>---- --- ---------- --- ---- --- -- ----------,306120.22499972954,306117.36000003293,305725.417,305723.7749998458,305741.665,306124.683,,4,know
screen,html.Screen,1_3_1_0_1_5,2021-04-15T07:59:50.357Z,,,,,,,,,,,,,,,,51,,,,,,,,,,,,,,530.7269996574032,,response,,,,13,A,,,,,,Space,keypress(Space),,,,silence,,,,"-------- -------- --- --- ---- it, --- ------ -- --------<br>---- --------- --- ------- ------------ ---------- ---------<br>--- ---------- ------- ---------- ------- -- -------- ----<br>---- --- ------ ----- ------ -- ---- --- ----- -- - -------<br>-------- -- --- --- -- ----- ----------- ----- -----------<br>---- --- ---------- --- ---- --- -- ----------",306658.41999975964,306655.4099996574,306108.363,306121.1349996738,306124.683,306674.279,,5,"it,"
screen,html.Screen,1_3_1_0_1_6,2021-04-15T07:59:50.818Z,,,,,,,,,,,,,,,,51,,,,,,,,,,,,,,441.46099980466533,,response,,,,13,A,,,,,,Space,keypress(Space),,,,silence,,,,-------- -------- --- --- ---- --- but ------ -- --------<br>---- --------- --- ------- ------------ ---------- ---------<br>--- ---------- ------- ---------- ------- -- -------- ----<br>---- --- ------ ----- ------ -- ---- --- ----- -- - -------<br>-------- -- --- --- -- ----- ----------- ----- -----------<br>---- --- ---------- --- ---- --- -- ----------,307119.0649997443,307115.73999980465,306657.537,306659.28500005975,306674.279,307123.964,,6,but
screen,html.Screen,1_3_1_0_1_7,2021-04-15T07:59:51.425Z,,,,,,,,,,,,,,,,51,,,,,,,,,,,,,,599.18599997618,,response,,,,13,A,,,,,,Space,keypress(Space),,,,silence,,,,-------- -------- --- --- ---- --- --- debate -- --------<br>---- --------- --- ------- ------------ ---------- ---------<br>--- ---------- ------- ---------- ------- -- -------- ----<br>---- --- ------ ----- ------ -- ---- --- ----- -- - -------<br>-------- -- --- --- -- ----- ----------- ----- -----------<br>---- --- ---------- --- ---- --- -- ----------,307726.28499986604,307723.14999997616,307107.222,307119.9849997647,307123.964,307740.085,,7,debate
screen,html.Screen,1_3_1_0_1_8,2021-04-15T07:59:51.849Z,,,,,,,,,,,,,,,,51,,,,,,,,,,,,,,407.04999974457314,,response,,,,13,A,,,,,,Space,keypress(Space),,,,silence,,,,-------- -------- --- --- ---- --- --- ------ in --------<br>---- --------- --- ------- ------------ ---------- ---------<br>--- ---------- ------- ---------- ------- -- -------- ----<br>---- --- ------ ----- ------ -- ---- --- ----- -- - -------<br>-------- -- --- --- -- ----- ----------- ----- -----------<br>---- --- ---------- --- ---- --- -- ----------,308150.2799997106,308147.1349997446,307723.368,307727.2699996829,307740.085,308156.408,,8,in
screen,html.Screen,1_3_1_0_1_9,2021-04-15T07:59:52.479Z,,,,,,,,,,,,,,,,51,,,,,,,,,,,,,,622.101999625389,,response,,,,13,A,,,,,,Space,keypress(Space),,,,silence,,,,-------- -------- --- --- ---- --- --- ------ -- Congress<br>---- --------- --- ------- ------------ ---------- ---------<br>--- ---------- ------- ---------- ------- -- -------- ----<br>---- --- ------ ----- ------ -- ---- --- ----- -- - -------<br>-------- -- --- --- -- ----- ----------- ----- -----------<br>---- --- ---------- --- ---- --- -- ----------,308779.67499988154,308778.5099996254,308139.935,308151.16499969736,308156.408,308789.071,,9,Congress
screen,html.Screen,1_3_1_0_1_10,2021-04-15T07:59:52.922Z,,,,,,,,,,,,,,,,51,,,,,,,,,,,,,,432.9339998723008,,response,,,,13,A,,,,,,Space,keypress(Space),,,,silence,,,,-------- -------- --- --- ---- --- --- ------ -- --------<br>over --------- --- ------- ------------ ---------- ---------<br>--- ---------- ------- ---------- ------- -- -------- ----<br>---- --- ------ ----- ------ -- ---- --- ----- -- - -------<br>-------- -- --- --- -- ----- ----------- ----- -----------<br>---- --- ---------- --- ---- --- -- ----------,309223.1749999337,309222.0049998723,308772.51,308779.8949996941,308789.071,309238.971,,10,over
screen,html.Screen,1_3_1_0_1_11,2021-04-15T07:59:53.528Z,,,,,,,,,,,,,,,,51,,,,,,,,,,,,,,589.3839998886688,,response,,,,13,A,,,,,,Space,keypress(Space),,,,silence,,,,-------- -------- --- --- ---- --- --- ------ -- --------<br>---- reforming --- ------- ------------ ---------- ---------<br>--- ---------- ------- ---------- ------- -- -------- ----<br>---- --- ------ ----- ------ -- ---- --- ----- -- - -------<br>-------- -- --- --- -- ----- ----------- ----- -----------<br>---- --- ---------- --- ---- --- -- ----------,309829.1799998842,309828.3549998887,309221.971,309223.40000001714,309238.971,309838.157,,11,reforming
screen,html.Screen,1_3_1_0_1_12,2021-04-15T07:59:53.942Z,,,,,,,,,,,,,,,,51,,,,,,,,,,,,,,404.2229997195536,,response,,,,13,A,,,,,,Space,keypress(Space),,,,silence,,,,-------- -------- --- --- ---- --- --- ------ -- --------<br>---- --------- the ------- ------------ ---------- ---------<br>--- ---------- ------- ---------- ------- -- -------- ----<br>---- --- ------ ----- ------ -- ---- --- ----- -- - -------<br>-------- -- --- --- -- ----- ----------- ----- -----------<br>---- --- ---------- --- ---- --- -- ----------,310243.46999963745,310242.37999971956,309821.483,309829.3550000526,309838.157,310254.519,,12,the
screen,html.Screen,1_3_1_0_1_13,2021-04-15T07:59:54.464Z,,,,,,,,,,,,,,,,51,,,,,,,,,,,,,,509.7209999313345,,response,,,,13,A,,,,,,Space,keypress(Space),,,,silence,,,,-------- -------- --- --- ---- --- --- ------ -- --------<br>---- --------- --- federal ------------ ---------- ---------<br>--- ---------- ------- ---------- ------- -- -------- ----<br>---- --- ------ ----- ------ -- ---- --- ----- -- - -------<br>-------- -- --- --- -- ----- ----------- ----- -----------<br>---- --- ---------- --- ---- --- -- ----------,310765.42000006884,310764.2399999313,310237.758,310243.68999991566,310254.519,310770.743,,13,federal
screen,html.Screen,1_3_1_0_1_14,2021-04-15T07:59:54.903Z,,,,,,,,,,,,,,,,51,,,,,,,,,,,,,,432.6419996514451,,response,,,,13,A,,,,,,Space,keypress(Space),,,,silence,,,,-------- -------- --- --- ---- --- --- ------ -- --------<br>---- --------- --- ------- government's ---------- ---------<br>--- ---------- ------- ---------- ------- -- -------- ----<br>---- --- ------ ----- ------ -- ---- --- ----- -- - -------<br>-------- -- --- --- -- ----- ----------- ----- -----------<br>---- --- ---------- --- ---- --- -- ----------,311204.5299997553,311203.38499965146,310753.984,310765.6199997291,310770.743,311220.914,,14,government's
screen,html.Screen,1_3_1_0_1_15,2021-04-15T07:59:55.441Z,,,,,,,,,,,,,,,,51,,,,,,,,,,,,,,520.5959996142192,,response,,,,13,A,,,,,,Space,keypress(Space),,,,silence,,,,-------- -------- --- --- ---- --- --- ------ -- --------<br>---- --------- --- ------- ------------ regulatory ---------<br>--- ---------- ------- ---------- ------- -- -------- ----<br>---- --- ------ ----- ------ -- ---- --- ----- -- - -------<br>-------- -- --- --- -- ----- ----------- ----- -----------<br>---- --- ---------- --- ---- --- -- ----------,311742.54999961704,311741.5099996142,311203.948,311204.7500000335,311220.914,311753.56,,15,regulatory
screen,html.Screen,1_3_1_0_1_16,2021-04-15T07:59:56.041Z,,,,,,,,,,,,,,,,51,,,,,,,,,,,,,,587.3200000324869,,response,,,,13,A,,,,,,Space,keypress(Space),,,,silence,,,,-------- -------- --- --- ---- --- --- ------ -- --------<br>---- --------- --- ------- ------------ ---------- apparatus<br>--- ---------- ------- ---------- ------- -- -------- ----<br>---- --- ------ ----- ------ -- ---- --- ----- -- - -------<br>-------- -- --- --- -- ----- ----------- ----- -----------<br>---- --- ---------- --- ---- --- -- ----------,312342.0699997805,312340.8800000325,311736.8,311742.7449999377,311753.56,312353.166,,16,apparatus
screen,html.Screen,1_3_1_0_1_17,2021-04-15T07:59:56.744Z,,,,,,,,,,,,,,,,51,,,,,,,,,,,,,,690.8339997615549,,response,,,,13,A,,,,,,Space,keypress(Space),,,,silence,,,,-------- -------- --- --- ---- --- --- ------ -- --------<br>---- --------- --- ------- ------------ ---------- ---------<br>may ---------- ------- ---------- ------- -- -------- ----<br>---- --- ------ ----- ------ -- ---- --- ----- -- - -------<br>-------- -- --- --- -- ----- ----------- ----- -----------<br>---- --- ---------- --- ---- --- -- ----------,313045.0199996121,313043.9999997616,312336.329,312342.27499971166,312353.166,313052.094,,17,may
screen,html.Screen,1_3_1_0_1_18,2021-04-15T07:59:57.527Z,,,,,,,,,,,,,,,,51,,,,,,,,,,,,,,774.3810000089579,,response,,,,13,A,,,,,,Space,keypress(Space),,,,silence,,,,-------- -------- --- --- ---- --- --- ------ -- --------<br>---- --------- --- ------- ------------ ---------- ---------<br>--- profoundly ------- ---------- ------- -- -------- ----<br>---- --- ------ ----- ------ -- ---- --- ----- -- - -------<br>-------- -- --- --- -- ----- ----------- ----- -----------<br>---- --- ---------- --- ---- --- -- ----------,313827.67000002787,313826.47500000894,313035.581,313045.2399998903,313052.094,313834.873,,18,profoundly
screen,html.Screen,1_3_1_0_1_19,2021-04-15T07:59:58.352Z,,,,,,,,,,,,,,,,51,,,,,,,,,,,,,,817.4769996401155,,response,,,,13,A,,,,,,Space,keypress(Space),,,,silence,,,,-------- -------- --- --- ---- --- --- ------ -- --------<br>---- --------- --- ------- ------------ ---------- ---------<br>--- ---------- improve ---------- ------- -- -------- ----<br>---- --- ------ ----- ------ -- ---- --- ----- -- - -------<br>-------- -- --- --- -- ----- ----------- ----- -----------<br>---- --- ---------- --- ---- --- -- ----------,314653.26000005007,314652.34999964014,313818.323,313827.8699996881,313834.873,314667.879,,19,improve
screen,html.Screen,1_3_1_0_1_20,2021-04-15T07:59:59.016Z,,,,,,,,,,,,,,,,51,,,,,,,,,,,,,,648.1509998707916,,response,,,,13,A,,,,,,Space,keypress(Space),,,,silence,,,,-------- -------- --- --- ---- --- --- ------ -- --------<br>---- --------- --- ------- ------------ ---------- ---------<br>--- ---------- ------- companies' ------- -- -------- ----<br>---- --- ------ ----- ------ -- ---- --- ----- -- - -------<br>-------- -- --- --- -- ----- ----------- ----- -----------<br>---- --- ---------- --- ---- --- -- ----------,315317.0449999161,315316.0299998708,314651.056,314653.4799998626,314667.879,315334.107,,20,companies'
screen,html.Screen,1_3_1_0_1_21,2021-04-15T07:59:59.465Z,,,,,,,,,,,,,,,,51,,,,,,,,,,,,,,431.10299986676546,,response,,,,13,A,,,,,,Space,keypress(Space),,,,silence,,,,-------- -------- --- --- ---- --- --- ------ -- --------<br>---- --------- --- ------- ------------ ---------- ---------<br>--- ---------- ------- ---------- ability -- -------- ----<br>---- --- ------ ----- ------ -- ---- --- ----- -- - -------<br>-------- -- --- --- -- ----- ----------- ----- -----------<br>---- --- ---------- --- ---- --- -- ----------,315766.2999997847,315765.2099998668,315316.834,315317.245000042,315334.107,315783.392,,21,ability
screen,html.Screen,1_3_1_0_1_22,2021-04-15T07:59:59.827Z,,,,,,,,,,,,,,,,51,,,,,,,,,,,,,,343.76299987826496,,response,,,,13,A,,,,,,Space,keypress(Space),,,,silence,,,,-------- -------- --- --- ---- --- --- ------ -- --------<br>---- --------- --- ------- ------------ ---------- ---------<br>--- ---------- ------- ---------- ------- to -------- ----<br>---- --- ------ ----- ------ -- ---- --- ----- -- - -------<br>-------- -- --- --- -- ----- ----------- ----- -----------<br>---- --- ---------- --- ---- --- -- ----------,316128.2549998723,316127.15499987826,315766.589,315766.4949996397,315783.392,316132.866,,22,to
screen,html.Screen,1_3_1_0_1_23,2021-04-15T08:00:00.299Z,,,,,,,,,,,,,,,,51,,,,,,,,,,,,,,465.908999845793,,response,,,,13,A,,,,,,Space,keypress(Space),,,,silence,,,,-------- -------- --- --- ---- --- --- ------ -- --------<br>---- --------- --- ------- ------------ ---------- ---------<br>--- ---------- ------- ---------- ------- -- survive. ----<br>---- --- ------ ----- ------ -- ---- --- ----- -- - -------<br>-------- -- --- --- -- ----- ----------- ----- -----------<br>---- --- ---------- --- ---- --- -- ----------,316599.7099997476,316598.7749998458,316116.206,316128.47499968484,316132.866,316615.928,,23,survive.
screen,html.Screen,1_3_1_0_1_24,2021-04-15T08:00:01.063Z,,,,,,,,,,,,,,,,51,,,,,,,,,,,,,,747.2919997082208,,response,,,,13,A,,,,,,Space,keypress(Space),,,,silence,,,,-------- -------- --- --- ---- --- --- ------ -- --------<br>---- --------- --- ------- ------------ ---------- ---------<br>--- ---------- ------- ---------- ------- -- -------- This<br>---- --- ------ ----- ------ -- ---- --- ----- -- - -------<br>-------- -- --- --- -- ----- ----------- ----- -----------<br>---- --- ---------- --- ---- --- -- ----------,317364.3299997784,317363.21999970824,316599.299,316599.89999979734,316615.928,317381.876,,24,This
screen,html.Screen,1_3_1_0_1_25,2021-04-15T08:00:01.614Z,,,,,,,,,,,,,,,,51,,,,,,,,,,,,,,531.678999977361,,response,,,,13,A,,,,,,Space,keypress(Space),,,,silence,,,,-------- -------- --- --- ---- --- --- ------ -- --------<br>---- --------- --- ------- ------------ ---------- ---------<br>--- ---------- ------- ---------- ------- -- -------- ----<br>week --- ------ ----- ------ -- ---- --- ----- -- - -------<br>-------- -- --- --- -- ----- ----------- ----- -----------<br>---- --- ---------- --- ---- --- -- ----------,317914.63000001386,317913.55499997735,317365.298,317364.5500000566,317381.876,317931.959,,25,week
screen,html.Screen,1_3_1_0_1_26,2021-04-15T08:00:01.945Z,,,,,,,,,,,,,,,,51,,,,,,,,,,,,,,313.12600006052526,,response,,,,13,A,,,,,,Space,keypress(Space),,,,silence,,,,-------- -------- --- --- ---- --- --- ------ -- --------<br>---- --------- --- ------- ------------ ---------- ---------<br>--- ---------- ------- ---------- ------- -- -------- ----<br>---- the ------ ----- ------ -- ---- --- ----- -- - -------<br>-------- -- --- --- -- ----- ----------- ----- -----------<br>---- --- ---------- --- ---- --- -- ----------,318246.15999963135,318245.0850000605,317914.82,317914.88000005484,317931.959,318269.192,,26,the
screen,html.Screen,1_3_1_0_1_27,2021-04-15T08:00:02.384Z,,,,,,,,,,,,,,,,51,,,,,,,,,,,,,,414.3129996152711,,response,,,,13,A,,,,,,Space,keypress(Space),,,,silence,,,,-------- -------- --- --- ---- --- --- ------ -- --------<br>---- --------- --- ------- ------------ ---------- ---------<br>--- ---------- ------- ---------- ------- -- -------- ----<br>---- --- Senate ----- ------ -- ---- --- ----- -- - -------<br>-------- -- --- --- -- ----- ----------- ----- -----------<br>---- --- ---------- --- ---- --- -- ----------,318684.65999979526,318683.50499961525,318231.376,318246.37499963865,318269.192,318697.749,,27,Senate
screen,html.Screen,1_3_1_0_1_28,2021-04-15T08:00:02.846Z,,,,,,,,,,,,,,,,51,,,,,,,,,,,,,,448.5309999862802,,response,,,,13,A,,,,,,Space,keypress(Space),,,,silence,,,,-------- -------- --- --- ---- --- --- ------ -- --------<br>---- --------- --- ------- ------------ ---------- ---------<br>--- ---------- ------- ---------- ------- -- -------- ----<br>---- --- ------ seems ------ -- ---- --- ----- -- - -------<br>-------- -- --- --- -- ----- ----------- ----- -----------<br>---- --- ---------- --- ---- --- -- ----------,319147.3349998705,319146.2799999863,318681.036,318684.8599999212,318697.749,319164.021,,28,seems
screen,html.Screen,1_3_1_0_1_29,2021-04-15T08:00:03.417Z,,,,,,,,,,,,,,,,51,,,,,,,,,,,,,,552.6539997995715,,response,,,,13,A,,,,,,Space,keypress(Space),,,,silence,,,,-------- -------- --- --- ---- --- --- ------ -- --------<br>---- --------- --- ------- ------------ ---------- ---------<br>--- ---------- ------- ---------- ------- -- -------- ----<br>---- --- ------ ----- poised -- ---- --- ----- -- - -------<br>-------- -- --- --- -- ----- ----------- ----- -----------<br>---- --- ---------- --- ---- --- -- ----------,319717.7949999459,319716.6749997996,319147.17,319147.57499983534,319164.021,319730.353,,29,poised
screen,html.Screen,1_3_1_0_1_30,2021-04-15T08:00:03.815Z,,,,,,,,,,,,,,,,51,,,,,,,,,,,,,,385.1070000008913,,response,,,,13,A,,,,,,Space,keypress(Space),,,,silence,,,,-------- -------- --- --- ---- --- --- ------ -- --------<br>---- --------- --- ------- ------------ ---------- ---------<br>--- ---------- ------- ---------- ------- -- -------- ----<br>---- --- ------ ----- ------ to ---- --- ----- -- - -------<br>-------- -- --- --- -- ----- ----------- ----- -----------<br>---- --- ---------- --- ---- --- -- ----------,320116.4349997416,320115.4600000009,319713.287,319718.0099999532,319730.353,320130.037,,30,to
screen,html.Screen,1_3_1_0_1_31,2021-04-15T08:00:04.275Z,,,,,,,,,,,,,,,,51,,,,,,,,,,,,,,445.3980000060983,,response,,,,13,A,,,,,,Space,keypress(Space),,,,silence,,,,-------- -------- --- --- ---- --- --- ------ -- --------<br>---- --------- --- ------- ------------ ---------- ---------<br>--- ---------- ------- ---------- ------- -- -------- ----<br>---- --- ------ ----- ------ -- join --- ----- -- - -------<br>-------- -- --- --- -- ----- ----------- ----- -----------<br>---- --- ---------- --- ---- --- -- ----------,320576.2049998157,320575.4350000061,320112.975,320116.6349998675,320130.037,320579.2,,31,join
screen,html.Screen,1_3_1_0_1_32,2021-04-15T08:00:04.654Z,,,,,,,,,,,,,,,,51,,,,,,,,,,,,,,374.3499997436884,,response,,,,13,A,,,,,,Space,keypress(Space),,,,silence,,,,-------- -------- --- --- ---- --- --- ------ -- --------<br>---- --------- --- ------- ------------ ---------- ---------<br>--- ---------- ------- ---------- ------- -- -------- ----<br>---- --- ------ ----- ------ -- ---- the ----- -- - -------<br>-------- -- --- --- -- ----- ----------- ----- -----------<br>---- --- ---------- --- ---- --- -- ----------,320954.7799997963,320953.5499997437,320562.714,320576.31999999285,320579.2,320962.334,,32,the
screen,html.Screen,1_3_1_0_1_33,2021-04-15T08:00:05.151Z,,,,,,,,,,,,,,,,51,,,,,,,,,,,,,,488.56099978351267,,response,,,,13,A,,,,,,Space,keypress(Space),,,,silence,,,,-------- -------- --- --- ---- --- --- ------ -- --------<br>---- --------- --- ------- ------------ ---------- ---------<br>--- ---------- ------- ---------- ------- -- -------- ----<br>---- --- ------ ----- ------ -- ---- --- House -- - -------<br>-------- -- --- --- -- ----- ----------- ----- -----------<br>---- --- ---------- --- ---- --- -- ----------,321452.0499999635,321450.8949997835,320945.648,320954.99999960884,320962.334,321462.306,,33,House
screen,html.Screen,1_3_1_0_1_34,2021-04-15T08:00:05.574Z,,,,,,,,,,,,,,,,51,,,,,,,,,,,,,,411.86399973358493,,response,,,,13,A,,,,,,Space,keypress(Space),,,,silence,,,,-------- -------- --- --- ---- --- --- ------ -- --------<br>---- --------- --- ------- ------------ ---------- ---------<br>--- ---------- ------- ---------- ------- -- -------- ----<br>---- --- ------ ----- ------ -- ---- --- ----- in - -------<br>-------- -- --- --- -- ----- ----------- ----- -----------<br>---- --- ---------- --- ---- --- -- ----------,321875.2549998462,321874.16999973357,321445.198,321452.27500004694,321462.306,321878.191,,34,in
screen,html.Screen,1_3_1_0_1_35,2021-04-15T08:00:05.932Z,,,,,,,,,,,,,,,,51,,,,,,,,,,,,,,354.21899970585946,,response,,,,13,A,,,,,,Space,keypress(Space),,,,silence,,,,-------- -------- --- --- ---- --- --- ------ -- --------<br>---- --------- --- ------- ------------ ---------- ---------<br>--- ---------- ------- ---------- ------- -- -------- ----<br>---- --- ------ ----- ------ -- ---- --- ----- -- a -------<br>-------- -- --- --- -- ----- ----------- ----- -----------<br>---- --- ---------- --- ---- --- -- ----------,322233.4799999371,322232.40999970585,321861.616,321875.4849997349,321878.191,322244.73,,35,a
screen,html.Screen,1_3_1_0_1_36,2021-04-15T08:00:06.445Z,,,,,,,,,,,,,,,,51,,,,,,,,,,,,,,500.295000069309,,response,,,,13,A,,,,,,Space,keypress(Space),,,,silence,,,,-------- -------- --- --- ---- --- --- ------ -- --------<br>---- --------- --- ------- ------------ ---------- ---------<br>--- ---------- ------- ---------- ------- -- -------- ----<br>---- --- ------ ----- ------ -- ---- --- ----- -- - massive<br>-------- -- --- --- -- ----- ----------- ----- -----------<br>---- --- ---------- --- ---- --- -- ----------,322746.06999987736,322745.0250000693,322228.228,322233.70500002056,322244.73,322761.254,,36,massive
screen,html.Screen,1_3_1_0_1_37,2021-04-15T08:00:07.107Z,,,,,,,,,,,,,,,,51,,,,,,,,,,,,,,645.7960000379826,,response,,,,13,A,,,,,,Space,keypress(Space),,,,silence,,,,-------- -------- --- --- ---- --- --- ------ -- --------<br>---- --------- --- ------- ------------ ---------- ---------<br>--- ---------- ------- ---------- ------- -- -------- ----<br>---- --- ------ ----- ------ -- ---- --- ----- -- - -------<br>overhaul -- --- --- -- ----- ----------- ----- -----------<br>---- --- ---------- --- ---- --- -- ----------,323408.2749998197,323407.050000038,322744.152,322746.2949999608,322761.254,323410.25,,37,overhaul
