sender,sender_type,sender_id,timestamp,meta,,Blues,Classical,Country,Dance,Electronic,Folk,Gospel,Hip-Hop,Jazz,Latin,Musical/Film,New-age,Pop,Provo_ID,R&B,Rap,Reggae,Religious,Rock,Soul,Swing,Traditional,age,artist_name,correct,correctResponse,distraction,duration,education,ended_on,familiarity,gender,headphone_check_performance,item,list,music_frequency,offensiveness,pleasantness,position_correct,preference,response,response_action,snippet_file,song_name,song_rating,sound,stimulus_1,stimulus_2,stimulus_3,text,time_commit,time_end,time_render,time_run,time_show,time_switch,url,word,word_ID
Introduction,html.Screen,0_0,2021-04-19T01:36:26.123Z,"{""labjs_version"":""20.2.2"",""labjs_build"":{""flavor"":""production"",""commit"":""a25486e0c714a0ae2ce03ff94b7bb6896854dcfa""},""location"":""https://run.pavlovia.org/mvasilev/music_f/"",""userAgent"":""Mozilla/5.0 (X11; CrOS x86_64 13597.84.0) AppleWebKit/537.36 (KHTML, like Gecko) Chrome/88.0.4324.153 Safari/537.36"",""platform"":""Linux x86_64"",""language"":""en-GB"",""locale"":""en-GB"",""timeZone"":""Europe/London"",""timezoneOffset"":-60,""screen_width"":1517,""screen_height"":853,""scroll_width"":1517,""scroll_height"":653,""window_innerWidth"":1517,""window_innerHeight"":702,""devicePixelRatio"":0.8999999761581421}",,,,,,,,,,,,,,,,,,,,,,,,,,,,,64558.74400010014,,response,,,,,,,,,,,continue,click button,,,,,,,,,89163.0549998954,89119.02000010014,24460.31,24469.675000058487,24560.276,89188.486,{},,
Volume calibration,html.Screen,0_1,2021-04-19T01:36:50.677Z,,,,,,,,,,,,,,,,,,,,,,,,,,,,,,24506.928999965574,,response,,,,,,,,,,,continue,click button,,,,,,,,,113717.15499996208,113695.41499996558,89121.84,89165.16499989666,89188.486,113713.556,,,
Task instructions,html.Screen,0_2,2021-04-19T01:37:03.038Z,,,,,,,,,,,,,,,,,,,,,,,,,,,,,,12351.663999989498,,response,,,,,,,,,,,continue,click button,,,,,,,,,126078.97499995306,126065.2199999895,113696.895,113717.549999943,113713.556,126092.703,,,
Sounds,html.Screen,0_3_0_0,2021-04-19T01:37:07.294Z,,,,,,,,,,,,,,,,,,,,,,,,,,,,,,4248.551000000007,,timeout,,,,,,,,,3,,,,,,,,O,I,S,,130334.19000008143,130324.593,126059.381,126079.96000000276,126092.703,130341.254,,,
Judgement,html.Screen,0_3_0_1,2021-04-19T01:37:09.187Z,,,,,,,,,,,,,,,,,,,,,,,,,,,true,3,,1869.8159999611817,,response,,,,,,,,,3,,3,click #choice-3,,,,,O,I,S,,132227.44000004604,132211.06999996118,130324.593,130334.6400000155,130341.254,132240.629,,,
Trial,flow.Sequence,0_3_0,2021-04-19T01:37:09.188Z,,,,,,,,,,,,,,,,,,,,,,,,,,,,,,6118.366999961188,,completion,,,,,,,,,3,,,,,,,,O,I,S,,132228.31499995664,132211.06999996118,126059.381,126079.78000002913,126092.703,132240.629,,,
Sounds,html.Screen,0_3_1_0,2021-04-19T01:37:13.434Z,,,,,,,,,,,,,,,,,,,,,,,,,,,,,,4248.567999999999,,timeout,,,,,,,,,2,,,,,,,,I,S,O,,136474.70499994233,136472.537,132223.968,132228.7550000474,132240.629,136489.197,,,
Judgement,html.Screen,0_3_1_1,2021-04-19T01:37:14.769Z,,,,,,,,,,,,,,,,,,,,,,,,,,,false,2,,1304.892999981239,,response,,,,,,,,,2,,1,click #choice-1,,,,,I,S,O,,137809.94999990799,137794.08999998122,136472.537,136475.44499998912,136489.197,137822.071,,,
Trial,flow.Sequence,0_3_1,2021-04-19T01:37:14.770Z,,,,,,,,,,,,,,,,,,,,,,,,,,,,,,5553.460999981238,,completion,,,,,,,,,2,,,,,,,,I,S,O,,137810.44999998994,137794.08999998122,132223.968,132228.64499990828,132240.629,137822.071,,,
Sounds,html.Screen,0_3_2_0,2021-04-19T01:37:19.016Z,,,,,,,,,,,,,,,,,,,,,,,,,,,,,,4248.565999999992,,timeout,,,,,,,,,2,,,,,,,,O,S,I,,142056.40999996103,142053.976,137805.41,137810.86500012316,137822.071,142070.637,,,
Judgement,html.Screen,0_3_2_1,2021-04-19T01:37:19.918Z,,,,,,,,,,,,,,,,,,,,,,,,,,,true,2,,869.6830000524642,,response,,,,,,,,,2,,2,click #choice-2,,,,,O,S,I,,142958.85000005364,142940.32000005245,142053.976,142057.34500009567,142070.637,142953.663,,,
Trial,flow.Sequence,0_3_2,2021-04-19T01:37:19.919Z,,,,,,,,,,,,,,,,,,,,,,,,,,,,,,5118.249000052456,,completion,,,,,,,,,2,,,,,,,,O,S,I,,142959.30500002578,142940.32000005245,137805.41,137810.74999994598,137822.071,142953.663,,,
Sounds,html.Screen,0_3_3_0,2021-04-19T01:37:24.148Z,,,,,,,,,,,,,,,,,,,,,,,,,,,,,,4248.556000000011,,timeout,,,,,,,,,1,,,,,,,,S,I,O,,147188.80999996327,147185.558,142937.002,142959.67500004917,142953.663,147202.219,,,
Judgement,html.Screen,0_3_3_1,2021-04-19T01:37:26.298Z,,,,,,,,,,,,,,,,,,,,,,,,,,,true,1,,2117.6910000783682,,response,,,,,,,,,1,,1,click #choice-1,,,,,S,I,O,,149338.9399999287,149319.91000007838,147185.558,147190.11999992654,147202.219,149351.521,,,
Trial,flow.Sequence,0_3_3,2021-04-19T01:37:26.299Z,,,,,,,,,,,,,,,,,,,,,,,,,,,,,,6366.24700007838,,completion,,,,,,,,,1,,,,,,,,S,I,O,,149339.42499989644,149319.91000007838,142937.002,142959.53499991447,142953.663,149351.521,,,
Sounds,html.Screen,0_3_4_0,2021-04-19T01:37:30.546Z,,,,,,,,,,,,,,,,,,,,,,,,,,,,,,4248.550999999978,,timeout,,,,,,,,,1,,,,,,,,S,O,I,,153586.2100000959,153583.411,149334.86,149339.81000003405,149351.521,153600.072,,,
Judgement,html.Screen,0_3_4_1,2021-04-19T01:37:30.783Z,,,,,,,,,,,,,,,,,,,,,,,,,,,true,1,,205.97299997572554,,response,,,,,,,,,1,,1,click #choice-1,,,,,S,O,I,,153823.43000010587,153806.0449999757,153583.411,153587.22000010312,153600.072,153816.671,,,
Trial,flow.Sequence,0_3_4,2021-04-19T01:37:30.783Z,,,,,,,,,,,,,,,,,,,,,,,,,,,,,,4454.523999975703,,completion,,,,,,,,,1,,,,,,,,S,O,I,,153823.9150000736,153806.0449999757,149334.86,149339.72000004724,149351.521,153816.671,,,
Sounds,html.Screen,0_3_5_0,2021-04-19T01:37:35.014Z,,,,,,,,,,,,,,,,,,,,,,,,,,,,,,4248.551000000007,,timeout,,,,,,,,,3,,,,,,,,I,O,S,,158054.5999999158,158048.561,153800.01,153824.28000005893,153816.671,158065.222,,,
Judgement,html.Screen,0_3_5_1,2021-04-19T01:37:36.007Z,,,,,,,,,,,,,,,,,,,,,,,,,,,true,3,,964.8980000103475,,response,,,,,,,,,3,,3,click #choice-3,,,,,I,O,S,,159047.34500008635,159030.12000001036,158048.561,158054.91499998607,158065.222,159064.908,,,
Trial,flow.Sequence,0_3_5,2021-04-19T01:37:36.007Z,,,,,,,,,,,,,,,,,,,,,,,,,,,,,,5213.449000010354,,completion,,,,,,,,,3,,,,,,,,I,O,S,,159047.80500009656,159030.12000001036,153800.01,153824.1449999623,153816.671,159064.908,,,
Task,flow.Loop,0_3,2021-04-19T01:37:36.021Z,,,,,,,,,,,,,,,,,,,,,,,,,,,,,,32937.41700001036,,completion,,,0.8333333333333334,,,,,,,,,,,,,,,,,,159061.40000000596,159030.12000001036,126059.381,126079.63500008918,126092.703,159064.908,,,
Trap,html.Screen,0_4,2021-04-19T01:37:36.026Z,,,,,,,,,,,,,,,,,,,,,,,,,,,,,,NaN,,skipped,,,,,,,,,,,,,,,,,,,,,159066.94500008598,159030.12000001036,,159066.39500008896,,159064.908,,,
Thanks,html.Screen,0_5,2021-04-19T01:37:43.081Z,,,,,,,,,,,,,,,,,,,,,,,,,,,,,,7035.187000118021,,response,,,,,,,,,,,continue,click button,,,,,,,,,166122.02499993145,166100.09500011802,159031.586,159067.2599999234,159064.908,169444.736,,,
Headphone screening,flow.Sequence,0,2021-04-19T01:37:43.082Z,,,,,,,,,,,,,,,,,,,,,,,,,,,,,,141539.819000118,,completion,,,,,,,,,,,,,,,,,,,,,166122.44500010274,166100.09500011802,24460.31,24469.539999961853,24560.276,169444.736,,,
Instructions,html.Page,1_0,2021-04-19T01:38:04.550Z,,,,,,,,,,,,,,,,,,,,,,,,,,,,,,18144.688999896433,,form submission,,,,,,,,,,,,,,,,,,,,,187590.13499994762,187589.42499989644,169428.071,169437.27999995463,169444.736,187605.267,,,
Holding screen,html.Screen,1_1_0_0,2021-04-19T01:38:14.547Z,,,,,,,,,,,,,,,,,,,,,,,,,,,,,,10046.611999999994,,timeout,,,,,,,,,,,,,,,,,,,,,197587.80999993905,197585.235,187571.948,187591.0300000105,187605.267,197651.879,,,
screen,html.Screen,1_1_0_1_0,2021-04-19T01:38:15.434Z,,,,,,,,,,,,,,,,53,,,,,,,,,,,,,,813.5259999080736,,response,,,,99,,,,,,,Space,keypress(Space),,,,,,,,When -- ----- -- ------ - ------- --- ----------<br>------------- ------ ------ ---- ---- ------- ----- -- ----<br>-------- ------- -- ---------- --- - --- ----- ----- ----<br>---- --- --- ----- --- ---- ---- ------- ----- ---- -------<br>--- --- -- ----- -- --- ---- -- --- ---- -- ------ ------<br>--- ----- -- ----,198474.91999994963,198465.40499990806,197585.235,197589.5249999594,197651.879,198484.928,,0,When
screen,html.Screen,1_1_0_1_1,2021-04-19T01:38:15.919Z,,,,,,,,,,,,,,,,53,,,,,,,,,,,,,,468.8969999750261,,response,,,,99,,,,,,,Space,keypress(Space),,,,,,,,---- it ----- -- ------ - ------- --- ----------<br>------------- ------ ------ ---- ---- ------- ----- -- ----<br>-------- ------- -- ---------- --- - --- ----- ----- ----<br>---- --- --- ----- --- ---- ---- ------- ----- ---- -------<br>--- --- -- ----- -- --- ---- -- --- ---- -- ------ ------<br>--- ----- -- ----,198959.9800000433,198953.82499997504,198468.267,198475.37499992177,198484.928,198968.095,,1,it
screen,html.Screen,1_1_0_1_2,2021-04-19T01:38:16.457Z,,,,,,,,,,,,,,,,53,,,,,,,,,,,,,,521.5049999716866,,response,,,,99,,,,,,,Space,keypress(Space),,,,,,,,---- -- comes -- ------ - ------- --- ----------<br>------------- ------ ------ ---- ---- ------- ----- -- ----<br>-------- ------- -- ---------- --- - --- ----- ----- ----<br>---- --- --- ----- --- ---- ---- ------- ----- ---- -------<br>--- --- -- ----- -- --- ---- -- --- ---- -- ------ ------<br>--- ----- -- ----,199497.36499995925,199489.5999999717,198951.434,198960.7800000813,198968.095,199517.9,,2,comes
screen,html.Screen,1_1_0_1_3,2021-04-19T01:38:16.926Z,,,,,,,,,,,,,,,,53,,,,,,,,,,,,,,443.0950000885932,,response,,,,99,,,,,,,Space,keypress(Space),,,,,,,,---- -- ----- to ------ - ------- --- ----------<br>------------- ------ ------ ---- ---- ------- ----- -- ----<br>-------- ------- -- ---------- --- - --- ----- ----- ----<br>---- --- --- ----- --- ---- ---- ------- ----- ---- -------<br>--- --- -- ----- -- --- ---- -- --- ---- -- ------ ------<br>--- ----- -- ----,199967.01000002213,199960.9950000886,199501.239,199498.9249999635,199517.9,199984.41,,3,to
screen,html.Screen,1_1_0_1_4,2021-04-19T01:38:17.318Z,,,,,,,,,,,,,,,,53,,,,,,,,,,,,,,367.82500011488446,,response,,,,99,,,,,,,Space,keypress(Space),,,,,,,,---- -- ----- -- having - ------- --- ----------<br>------------- ------ ------ ---- ---- ------- ----- -- ----<br>-------- ------- -- ---------- --- - --- ----- ----- ----<br>---- --- --- ----- --- ---- ---- ------- ----- ---- -------<br>--- --- -- ----- -- --- ---- -- --- ---- -- ------ ------<br>--- ----- -- ----,200358.15500002354,200352.2350001149,199967.749,199968.4900001157,199984.41,200367.616,,4,having
screen,html.Screen,1_1_0_1_5,2021-04-19T01:38:17.757Z,,,,,,,,,,,,,,,,53,,,,,,,,,,,,,,422.8840001192002,,response,,,,99,,,,,,,Space,keypress(Space),,,,,,,,---- -- ----- -- ------ a ------- --- ----------<br>------------- ------ ------ ---- ---- ------- ----- -- ----<br>-------- ------- -- ---------- --- - --- ----- ----- ----<br>---- --- --- ----- --- ---- ---- ------- ----- ---- -------<br>--- --- -- ----- -- --- ---- -- --- ---- -- ------ ------<br>--- ----- -- ----,200797.37500008196,200790.5000001192,200350.955,200358.77000004984,200367.616,200800.815,,5,a
screen,html.Screen,1_1_0_1_6,2021-04-19T01:38:18.168Z,,,,,,,,,,,,,,,,53,,,,,,,,,,,,,,401.14499997667735,,response,,,,99,,,,,,,Space,keypress(Space),,,,,,,,---- -- ----- -- ------ - lasting --- ----------<br>------------- ------ ------ ---- ---- ------- ----- -- ----<br>-------- ------- -- ---------- --- - --- ----- ----- ----<br>---- --- --- ----- --- ---- ---- ------- ----- ---- -------<br>--- --- -- ----- -- --- ---- -- --- ---- -- ------ ------<br>--- ----- -- ----,201208.48000003025,201201.95999997668,200784.154,200798.10000001453,200800.815,201217.331,,6,lasting
screen,html.Screen,1_1_0_1_7,2021-04-19T01:38:18.651Z,,,,,,,,,,,,,,,,53,,,,,,,,,,,,,,467.94400005438365,,response,,,,99,,,,,,,Space,keypress(Space),,,,,,,,---- -- ----- -- ------ - ------- and ----------<br>------------- ------ ------ ---- ---- ------- ----- -- ----<br>-------- ------- -- ---------- --- - --- ----- ----- ----<br>---- --- --- ----- --- ---- ---- ------- ----- ---- -------<br>--- --- -- ----- -- --- ---- -- --- ---- -- ------ ------<br>--- ----- -- ----,201691.90500001423,201685.2750000544,201200.67,201209.27500003017,201217.331,201700.508,,7,and
screen,html.Screen,1_1_0_1_8,2021-04-19T01:38:19.042Z,,,,,,,,,,,,,,,,53,,,,,,,,,,,,,,376.45199997667805,,response,,,,99,,,,,,,Space,keypress(Space),,,,,,,,---- -- ----- -- ------ - ------- --- fulfilling<br>------------- ------ ------ ---- ---- ------- ----- -- ----<br>-------- ------- -- ---------- --- - --- ----- ----- ----<br>---- --- --- ----- --- ---- ---- ------- ----- ---- -------<br>--- --- -- ----- -- --- ---- -- --- ---- -- ------ ------<br>--- ----- -- ----,202082.54499989562,202076.95999997668,201683.847,201692.34999991022,201700.508,202100.37,,8,fulfilling
screen,html.Screen,1_1_0_1_9,2021-04-19T01:38:19.588Z,,,,,,,,,,,,,,,,53,,,,,,,,,,,,,,526.2449999573873,,response,,,,99,,,,,,,Space,keypress(Space),,,,,,,,"---- -- ----- -- ------ - ------- --- ----------<br>relationship, ------ ------ ---- ---- ------- ----- -- ----<br>-------- ------- -- ---------- --- - --- ----- ----- ----<br>---- --- --- ----- --- ---- ---- ------- ----- ---- -------<br>--- --- -- ----- -- --- ---- -- --- ---- -- ------ ------<br>--- ----- -- ----",202628.78499994986,202626.61499995738,202083.709,202083.70000007562,202100.37,202633.531,,9,"relationship,"
screen,html.Screen,1_1_0_1_10,2021-04-19T01:38:20.063Z,,,,,,,,,,,,,,,,53,,,,,,,,,,,,,,464.47900007429416,,response,,,,99,,,,,,,Space,keypress(Space),,,,,,,,---- -- ----- -- ------ - ------- --- ----------<br>------------- common ------ ---- ---- ------- ----- -- ----<br>-------- ------- -- ---------- --- - --- ----- ----- ----<br>---- --- --- ----- --- ---- ---- ------- ----- ---- -------<br>--- --- -- ----- -- --- ---- -- --- ---- -- ------ ------<br>--- ----- -- ----,203103.3199999947,203098.01000007428,202616.87,202629.07500006258,202633.531,203116.692,,10,common
screen,html.Screen,1_1_0_1_11,2021-04-19T01:38:20.478Z,,,,,,,,,,,,,,,,53,,,,,,,,,,,,,,396.68300009684754,,response,,,,99,,,,,,,Space,keypress(Space),,,,,,,,---- -- ----- -- ------ - ------- --- ----------<br>------------- ------ wisdom ---- ---- ------- ----- -- ----<br>-------- ------- -- ---------- --- - --- ----- ----- ----<br>---- --- --- ----- --- ---- ---- ------- ----- ---- -------<br>--- --- -- ----- -- --- ---- -- --- ---- -- ------ ------<br>--- ----- -- ----,203518.82499991916,203513.37500009686,203100.031,203104.08499999903,203116.692,203533.212,,11,wisdom
screen,html.Screen,1_1_0_1_12,2021-04-19T01:38:20.936Z,,,,,,,,,,,,,,,,53,,,,,,,,,,,,,,440.3480000713025,,response,,,,99,,,,,,,Space,keypress(Space),,,,,,,,---- -- ----- -- ------ - ------- --- ----------<br>------------- ------ ------ says ---- ------- ----- -- ----<br>-------- ------- -- ---------- --- - --- ----- ----- ----<br>---- --- --- ----- --- ---- ---- ------- ----- ---- -------<br>--- --- -- ----- -- --- ---- -- --- ---- -- ------ ------<br>--- ----- -- ----,203976.36500000954,203973.5600000713,203516.551,203519.8949999176,203533.212,203983.058,,12,says
screen,html.Screen,1_1_0_1_13,2021-04-19T01:38:21.399Z,,,,,,,,,,,,,,,,53,,,,,,,,,,,,,,449.94199996089446,,response,,,,99,,,,,,,Space,keypress(Space),,,,,,,,---- -- ----- -- ------ - ------- --- ----------<br>------------- ------ ------ ---- that ------- ----- -- ----<br>-------- ------- -- ---------- --- - --- ----- ----- ----<br>---- --- --- ----- --- ---- ---- ------- ----- ---- -------<br>--- --- -- ----- -- --- ---- -- --- ---- -- ------ ------<br>--- ----- -- ----,204439.35499992222,204432.99999996088,203966.397,203976.8350000959,203983.058,204449.575,,13,that
screen,html.Screen,1_1_0_1_14,2021-04-19T01:38:21.856Z,,,,,,,,,,,,,,,,53,,,,,,,,,,,,,,439.46000000013737,,response,,,,99,,,,,,,Space,keypress(Space),,,,,,,,---- -- ----- -- ------ - ------- --- ----------<br>------------- ------ ------ ---- ---- feeling ----- -- ----<br>-------- ------- -- ---------- --- - --- ----- ----- ----<br>---- --- --- ----- --- ---- ---- ------- ----- ---- -------<br>--- --- -- ----- -- --- ---- -- --- ---- -- ------ ------<br>--- ----- -- ----,204896.11999993213,204889.03500000015,204432.914,204440.78000006266,204449.575,204916.081,,14,feeling
screen,html.Screen,1_1_0_1_15,2021-04-19T01:38:22.347Z,,,,,,,,,,,,,,,,53,,,,,,,,,,,,,,465.40900005795993,,response,,,,99,,,,,,,Space,keypress(Space),,,,,,,,---- -- ----- -- ------ - ------- --- ----------<br>------------- ------ ------ ---- ---- ------- close -- ----<br>-------- ------- -- ---------- --- - --- ----- ----- ----<br>---- --- --- ----- --- ---- ---- ------- ----- ---- -------<br>--- --- -- ----- -- --- ---- -- --- ---- -- ------ ------<br>--- ----- -- ----,205387.88500009105,205381.49000005797,204899.42,204897.45500008576,204916.081,205399.263,,15,close
screen,html.Screen,1_1_0_1_16,2021-04-19T01:38:22.806Z,,,,,,,,,,,,,,,,53,,,,,,,,,,,,,,440.8169999944803,,response,,,,99,,,,,,,Space,keypress(Space),,,,,,,,---- -- ----- -- ------ - ------- --- ----------<br>------------- ------ ------ ---- ---- ------- ----- to ----<br>-------- ------- -- ---------- --- - --- ----- ----- ----<br>---- --- --- ----- --- ---- ---- ------- ----- ---- -------<br>--- --- -- ----- -- --- ---- -- --- ---- -- ------ ------<br>--- ----- -- ----,205846.48000006564,205840.0799999945,205382.602,205389.08999995328,205399.263,205865.756,,16,to
screen,html.Screen,1_1_0_1_17,2021-04-19T01:38:23.578Z,,,,,,,,,,,,,,,,53,,,,,,,,,,,,,,747.4440000216127,,response,,,,99,,,,,,,Space,keypress(Space),,,,,,,,---- -- ----- -- ------ - ------- --- ----------<br>------------- ------ ------ ---- ---- ------- ----- -- your<br>-------- ------- -- ---------- --- - --- ----- ----- ----<br>---- --- --- ----- --- ---- ---- ------- ----- ---- -------<br>--- --- -- ----- -- --- ---- -- --- ---- -- ------ ------<br>--- ----- -- ----,206618.56000008993,206613.2000000216,205849.095,205848.05999998935,205865.756,206632.177,,17,your
screen,html.Screen,1_1_0_1_18,2021-04-19T01:38:23.965Z,,,,,,,,,,,,,,,,53,,,,,,,,,,,,,,366.8979999415169,,response,,,,99,,,,,,,Space,keypress(Space),,,,,,,,---- -- ----- -- ------ - ------- --- ----------<br>------------- ------ ------ ---- ---- ------- ----- -- ----<br>romantic ------- -- ---------- --- - --- ----- ----- ----<br>---- --- --- ----- --- ---- ---- ------- ----- ---- -------<br>--- --- -- ----- -- --- ---- -- --- ---- -- ------ ------<br>--- ----- -- ----,207005.1200001035,206999.0749999415,206615.516,206618.89000004157,206632.177,207015.379,,18,romantic
screen,html.Screen,1_1_0_1_19,2021-04-19T01:38:24.478Z,,,,,,,,,,,,,,,,53,,,,,,,,,,,,,,499.80100010402384,,response,,,,99,,,,,,,Space,keypress(Space),,,,,,,,---- -- ----- -- ------ - ------- --- ----------<br>------------- ------ ------ ---- ---- ------- ----- -- ----<br>-------- partner -- ---------- --- - --- ----- ----- ----<br>---- --- --- ----- --- ---- ---- ------- ----- ---- -------<br>--- --- -- ----- -- --- ---- -- --- ---- -- ------ ------<br>--- ----- -- ----,207518.84000003338,207515.180000104,206998.718,207005.51000004634,207015.379,207531.871,,19,partner
screen,html.Screen,1_1_0_1_20,2021-04-19T01:38:24.842Z,,,,,,,,,,,,,,,,53,,,,,,,,,,,,,,348.1790000361216,,response,,,,99,,,,,,,Space,keypress(Space),,,,,,,,---- -- ----- -- ------ - ------- --- ----------<br>------------- ------ ------ ---- ---- ------- ----- -- ----<br>-------- ------- is ---------- --- - --- ----- ----- ----<br>---- --- --- ----- --- ---- ---- ------- ----- ---- -------<br>--- --- -- ----- -- --- ---- -- --- ---- -- ------ ------<br>--- ----- -- ----,207882.66999996267,207880.05000003614,207515.21,207519.37499991618,207531.871,207898.413,,20,is
screen,html.Screen,1_1_0_1_21,2021-04-19T01:38:25.345Z,,,,,,,,,,,,,,,,53,,,,,,,,,,,,,,482.19700010929955,,response,,,,99,,,,,,,Space,keypress(Space),,,,,,,,---- -- ----- -- ------ - ------- --- ----------<br>------------- ------ ------ ---- ---- ------- ----- -- ----<br>-------- ------- -- paramount. --- - --- ----- ----- ----<br>---- --- --- ----- --- ---- ---- ------- ----- ---- -------<br>--- --- -- ----- -- --- ---- -- --- ---- -- ------ ------<br>--- ----- -- ----,208385.77999989502,208380.6100001093,207881.752,207882.9749999568,207898.413,208398.251,,21,paramount.
screen,html.Screen,1_1_0_1_22,2021-04-19T01:38:25.858Z,,,,,,,,,,,,,,,,53,,,,,,,,,,,,,,492.1239999590325,,response,,,,99,,,,,,,Space,keypress(Space),,,,,,,,---- -- ----- -- ------ - ------- --- ----------<br>------------- ------ ------ ---- ---- ------- ----- -- ----<br>-------- ------- -- ---------- But - --- ----- ----- ----<br>---- --- --- ----- --- ---- ---- ------- ----- ---- -------<br>--- --- -- ----- -- --- ---- -- --- ---- -- ------ ------<br>--- ----- -- ----,208898.259999929,208890.37499995902,208381.59,208386.6650001146,208398.251,208914.733,,22,But
screen,html.Screen,1_1_0_1_23,2021-04-19T01:38:26.341Z,,,,,,,,,,,,,,,,53,,,,,,,,,,,,,,459.52199991513044,,response,,,,99,,,,,,,Space,keypress(Space),,,,,,,,---- -- ----- -- ------ - ------- --- ----------<br>------------- ------ ------ ---- ---- ------- ----- -- ----<br>-------- ------- -- ---------- --- a --- ----- ----- ----<br>---- --- --- ----- --- ---- ---- ------- ----- ---- -------<br>--- --- -- ----- -- --- ---- -- --- ---- -- ------ ------<br>--- ----- -- ----,209381.83999992907,209374.25499991514,208898.072,208899.1400001105,208914.733,209397.898,,23,a
screen,html.Screen,1_1_0_1_24,2021-04-19T01:38:26.768Z,,,,,,,,,,,,,,,,53,,,,,,,,,,,,,,404.3269999921904,,response,,,,99,,,,,,,Space,keypress(Space),,,,,,,,---- -- ----- -- ------ - ------- --- ----------<br>------------- ------ ------ ---- ---- ------- ----- -- ----<br>-------- ------- -- ---------- --- - new ----- ----- ----<br>---- --- --- ----- --- ---- ---- ------- ----- ---- -------<br>--- --- -- ----- -- --- ---- -- --- ---- -- ------ ------<br>--- ----- -- ----,209808.69499989785,209802.22499999218,209381.237,209382.18499999493,209397.898,209814.437,,24,new
screen,html.Screen,1_1_0_1_25,2021-04-19T01:38:27.187Z,,,,,,,,,,,,,,,,53,,,,,,,,,,,,,,406.42300000126124,,response,,,,99,,,,,,,Space,keypress(Space),,,,,,,,---- -- ----- -- ------ - ------- --- ----------<br>------------- ------ ------ ---- ---- ------- ----- -- ----<br>-------- ------- -- ---------- --- - --- study ----- ----<br>---- --- --- ----- --- ---- ---- ------- ----- ---- -------<br>--- --- -- ----- -- --- ---- -- --- ---- -- ------ ------<br>--- ----- -- ----,210227.5549999904,210220.86000000127,209797.776,209809.0450000018,209814.437,210230.948,,25,study
screen,html.Screen,1_1_0_1_26,2021-04-19T01:38:27.670Z,,,,,,,,,,,,,,,,53,,,,,,,,,,,,,,474.9469999045541,,response,,,,99,,,,,,,Space,keypress(Space),,,,,,,,---- -- ----- -- ------ - ------- --- ----------<br>------------- ------ ------ ---- ---- ------- ----- -- ----<br>-------- ------- -- ---------- --- - --- ----- finds ----<br>---- --- --- ----- --- ---- ---- ------- ----- ---- -------<br>--- --- -- ----- -- --- ---- -- --- ---- -- ------ ------<br>--- ----- -- ----,210710.83500003442,210705.89499990456,210214.287,210228.15999994054,210230.948,210714.134,,26,finds
screen,html.Screen,1_1_0_1_27,2021-04-19T01:38:28.112Z,,,,,,,,,,,,,,,,53,,,,,,,,,,,,,,431.9960000082792,,response,,,,99,,,,,,,Space,keypress(Space),,,,,,,,---- -- ----- -- ------ - ------- --- ----------<br>------------- ------ ------ ---- ---- ------- ----- -- ----<br>-------- ------- -- ---------- --- - --- ----- ----- that<br>---- --- --- ----- --- ---- ---- ------- ----- ---- -------<br>--- --- -- ----- -- --- ---- -- --- ---- -- ------ ------<br>--- ----- -- ----,211152.2999999579,211146.13000000827,210697.473,210711.63000003435,210714.134,211163.969,,27,that
screen,html.Screen,1_1_0_1_28,2021-04-19T01:38:28.573Z,,,,,,,,,,,,,,,,53,,,,,,,,,,,,,,440.91099999894504,,response,,,,99,,,,,,,Space,keypress(Space),,,,,,,,---- -- ----- -- ------ - ------- --- ----------<br>------------- ------ ------ ---- ---- ------- ----- -- ----<br>-------- ------- -- ---------- --- - --- ----- ----- ----<br>it's --- --- ----- --- ---- ---- ------- ----- ---- -------<br>--- --- -- ----- -- --- ---- -- --- ---- -- ------ ------<br>--- ----- -- ----,211613.95499994978,211604.87999999896,211147.308,211152.9800000135,211163.969,211630.487,,28,it's
screen,html.Screen,1_1_0_1_29,2021-04-19T01:38:29.031Z,,,,,,,,,,,,,,,,53,,,,,,,,,,,,,,433.89300011258456,,response,,,,99,,,,,,,Space,keypress(Space),,,,,,,,---- -- ----- -- ------ - ------- --- ----------<br>------------- ------ ------ ---- ---- ------- ----- -- ----<br>-------- ------- -- ---------- --- - --- ----- ----- ----<br>---- not --- ----- --- ---- ---- ------- ----- ---- -------<br>--- --- -- ----- -- --- ---- -- --- ---- -- ------ ------<br>--- ----- -- ----,212071.71999989077,212064.38000011258,211613.826,211614.37500012107,211630.487,212080.33,,29,not
screen,html.Screen,1_1_0_1_30,2021-04-19T01:38:29.471Z,,,,,,,,,,,,,,,,53,,,,,,,,,,,,,,420.39499993258505,,response,,,,99,,,,,,,Space,keypress(Space),,,,,,,,---- -- ----- -- ------ - ------- --- ----------<br>------------- ------ ------ ---- ---- ------- ----- -- ----<br>-------- ------- -- ---------- --- - --- ----- ----- ----<br>---- --- how ----- --- ---- ---- ------- ----- ---- -------<br>--- --- -- ----- -- --- ---- -- --- ---- -- ------ ------<br>--- ----- -- ----,212511.78999990225,212500.72499993257,212063.669,212072.29500007816,212080.33,212513.516,,30,how
screen,html.Screen,1_1_0_1_31,2021-04-19T01:38:29.904Z,,,,,,,,,,,,,,,,53,,,,,,,,,,,,,,423.8539999414352,,response,,,,99,,,,,,,Space,keypress(Space),,,,,,,,---- -- ----- -- ------ - ------- --- ----------<br>------------- ------ ------ ---- ---- ------- ----- -- ----<br>-------- ------- -- ---------- --- - --- ----- ----- ----<br>---- --- --- close --- ---- ---- ------- ----- ---- -------<br>--- --- -- ----- -- --- ---- -- --- ---- -- ------ ------<br>--- ----- -- ----,212944.14500007406,212937.36999994144,212496.855,212512.08000001498,212513.516,212963.373,,31,close
screen,html.Screen,1_1_0_1_32,2021-04-19T01:38:30.361Z,,,,,,,,,,,,,,,,53,,,,,,,,,,,,,,433.3820001107233,,response,,,,99,,,,,,,Space,keypress(Space),,,,,,,,---- -- ----- -- ------ - ------- --- ----------<br>------------- ------ ------ ---- ---- ------- ----- -- ----<br>-------- ------- -- ---------- --- - --- ----- ----- ----<br>---- --- --- ----- you ---- ---- ------- ----- ---- -------<br>--- --- -- ----- -- --- ---- -- --- ---- -- ------ ------<br>--- ----- -- ----,213401.40499989502,213396.75500011072,212946.712,212947.30000011623,212963.373,213413.219,,32,you
screen,html.Screen,1_1_0_1_33,2021-04-19T01:38:30.761Z,,,,,,,,,,,,,,,,53,,,,,,,,,,,,,,381.56599991818075,,response,,,,99,,,,,,,Space,keypress(Space),,,,,,,,---- -- ----- -- ------ - ------- --- ----------<br>------------- ------ ------ ---- ---- ------- ----- -- ----<br>-------- ------- -- ---------- --- - --- ----- ----- ----<br>---- --- --- ----- --- feel ---- ------- ----- ---- -------<br>--- --- -- ----- -- --- ---- -- --- ---- -- ------ ------<br>--- ----- -- ----,213801.39999999665,213794.7849999182,213396.558,213402.28000003844,213413.219,213813.082,,33,feel
screen,html.Screen,1_1_0_1_34,2021-04-19T01:38:31.174Z,,,,,,,,,,,,,,,,53,,,,,,,,,,,,,,394.19799997325754,,response,,,,99,,,,,,,Space,keypress(Space),,,,,,,,---- -- ----- -- ------ - ------- --- ----------<br>------------- ------ ------ ---- ---- ------- ----- -- ----<br>-------- ------- -- ---------- --- - --- ----- ----- ----<br>---- --- --- ----- --- ---- that ------- ----- ---- -------<br>--- --- -- ----- -- --- ---- -- --- ---- -- ------ ------<br>--- ----- -- ----,214214.11999990232,214207.27999997325,213796.421,213802.38000000827,213813.082,214229.6,,34,that
screen,html.Screen,1_1_0_1_35,2021-04-19T01:38:31.604Z,,,,,,,,,,,,,,,,53,,,,,,,,,,,,,,411.0249999999942,,response,,,,99,,,,,,,Space,keypress(Space),,,,,,,,---- -- ----- -- ------ - ------- --- ----------<br>------------- ------ ------ ---- ---- ------- ----- -- ----<br>-------- ------- -- ---------- --- - --- ----- ----- ----<br>---- --- --- ----- --- ---- ---- matters ----- ---- -------<br>--- --- -- ----- -- --- ---- -- --- ---- -- ------ ------<br>--- ----- -- ----,214644.2499998957,214640.625,214212.939,214214.50000000186,214229.6,214662.799,,35,matters
screen,html.Screen,1_1_0_1_36,2021-04-19T01:38:32.093Z,,,,,,,,,,,,,,,,53,,,,,,,,,,,,,,465.97600010654423,,response,,,,99,,,,,,,Space,keypress(Space),,,,,,,,"---- -- ----- -- ------ - ------- --- ----------<br>------------- ------ ------ ---- ---- ------- ----- -- ----<br>-------- ------- -- ---------- --- - --- ----- ----- ----<br>---- --- --- ----- --- ---- ---- ------- most, ---- -------<br>--- --- -- ----- -- --- ---- -- --- ---- -- ------ ------<br>--- ----- -- ----",215133.96500004455,215128.77500010654,214646.138,214644.86000011675,214662.799,215145.958,,36,"most,"
screen,html.Screen,1_1_0_1_37,2021-04-19T01:38:32.588Z,,,,,,,,,,,,,,,,53,,,,,,,,,,,,,,479.9469999061839,,response,,,,99,,,,,,,Space,keypress(Space),,,,,,,,---- -- ----- -- ------ - ------- --- ----------<br>------------- ------ ------ ---- ---- ------- ----- -- ----<br>-------- ------- -- ---------- --- - --- ----- ----- ----<br>---- --- --- ----- --- ---- ---- ------- ----- it's -------<br>--- --- -- ----- -- --- ---- -- --- ---- -- ------ ------<br>--- ----- -- ----,215628.9949999191,215625.9049999062,215129.297,215134.53499996103,215145.958,215645.796,,37,it's
screen,html.Screen,1_1_0_1_38,2021-04-19T01:38:33.007Z,,,,,,,,,,,,,,,,53,,,,,,,,,,,,,,392.78399993487983,,response,,,,99,,,,,,,Space,keypress(Space),,,,,,,,---- -- ----- -- ------ - ------- --- ----------<br>------------- ------ ------ ---- ---- ------- ----- -- ----<br>-------- ------- -- ---------- --- - --- ----- ----- ----<br>---- --- --- ----- --- ---- ---- ------- ----- ---- whether<br>--- --- -- ----- -- --- ---- -- --- ---- -- ------ ------<br>--- ----- -- ----,216047.15500003658,216038.57999993488,215629.135,215629.3200000655,215645.796,216062.333,,38,whether
screen,html.Screen,1_1_0_1_39,2021-04-19T01:38:33.455Z,,,,,,,,,,,,,,,,53,,,,,,,,,,,,,,423.12200007456704,,response,,,,99,,,,,,,Space,keypress(Space),,,,,,,,---- -- ----- -- ------ - ------- --- ----------<br>------------- ------ ------ ---- ---- ------- ----- -- ----<br>-------- ------- -- ---------- --- - --- ----- ----- ----<br>---- --- --- ----- --- ---- ---- ------- ----- ---- -------<br>you --- -- ----- -- --- ---- -- --- ---- -- ------ ------<br>--- ----- -- ----,216495.39999989793,216485.45500007458,216045.672,216048.4450000804,216062.333,216512.18,,39,you
screen,html.Screen,1_1_0_1_40,2021-04-19T01:38:33.864Z,,,,,,,,,,,,,,,,53,,,,,,,,,,,,,,388.679999936081,,response,,,,99,,,,,,,Space,keypress(Space),,,,,,,,---- -- ----- -- ------ - ------- --- ----------<br>------------- ------ ------ ---- ---- ------- ----- -- ----<br>-------- ------- -- ---------- --- - --- ----- ----- ----<br>---- --- --- ----- --- ---- ---- ------- ----- ---- -------<br>--- are -- ----- -- --- ---- -- --- ---- -- ------ ------<br>--- ----- -- ----,216904.30500009097,216900.85999993607,216495.519,216496.87499995343,216512.18,216912.034,,40,are
screen,html.Screen,1_1_0_1_41,2021-04-19T01:38:34.333Z,,,,,,,,,,,,,,,,53,,,,,,,,,,,,,,456.3160001206852,,response,,,,99,,,,,,,Space,keypress(Space),,,,,,,,---- -- ----- -- ------ - ------- --- ----------<br>------------- ------ ------ ---- ---- ------- ----- -- ----<br>-------- ------- -- ---------- --- - --- ----- ----- ----<br>---- --- --- ----- --- ---- ---- ------- ----- ---- -------<br>--- --- as ----- -- --- ---- -- --- ---- -- ------ ------<br>--- ----- -- ----,217373.9750001114,217368.3500001207,216895.373,216904.63000000454,216912.034,217378.539,,41,as
screen,html.Screen,1_1_0_1_42,2021-04-19T01:38:34.836Z,,,,,,,,,,,,,,,,53,,,,,,,,,,,,,,492.9760000061942,,response,,,,99,,,,,,,Space,keypress(Space),,,,,,,,---- -- ----- -- ------ - ------- --- ----------<br>------------- ------ ------ ---- ---- ------- ----- -- ----<br>-------- ------- -- ---------- --- - --- ----- ----- ----<br>---- --- --- ----- --- ---- ---- ------- ----- ---- -------<br>--- --- -- close -- --- ---- -- --- ---- -- ------ ------<br>--- ----- -- ----,217876.28500000574,217871.51500000618,217361.878,217374.51500003226,217378.539,217895.039,,42,close
screen,html.Screen,1_1_0_1_43,2021-04-19T01:38:35.227Z,,,,,,,,,,,,,,,,53,,,,,,,,,,,,,,368.2360000339104,,response,,,,99,,,,,,,Space,keypress(Space),,,,,,,,---- -- ----- -- ------ - ------- --- ----------<br>------------- ------ ------ ---- ---- ------- ----- -- ----<br>-------- ------- -- ---------- --- - --- ----- ----- ----<br>---- --- --- ----- --- ---- ---- ------- ----- ---- -------<br>--- --- -- ----- as --- ---- -- --- ---- -- ------ ------<br>--- ----- -- ----,218267.6649999339,218263.2750000339,217878.378,217876.79999996908,217895.039,218278.234,,43,as
screen,html.Screen,1_1_0_1_44,2021-04-19T01:38:35.669Z,,,,,,,,,,,,,,,,53,,,,,,,,,,,,,,426.72600000276,,response,,,,99,,,,,,,Space,keypress(Space),,,,,,,,---- -- ----- -- ------ - ------- --- ----------<br>------------- ------ ------ ---- ---- ------- ----- -- ----<br>-------- ------- -- ---------- --- - --- ----- ----- ----<br>---- --- --- ----- --- ---- ---- ------- ----- ---- -------<br>--- --- -- ----- -- you ---- -- --- ---- -- ------ ------<br>--- ----- -- ----,218709.56499991007,218704.96000000276,218261.573,218268.2400001213,218278.234,218728.084,,44,you
screen,html.Screen,1_1_0_1_45,2021-04-19T01:38:36.176Z,,,,,,,,,,,,,,,,53,,,,,,,,,,,,,,479.8309999190096,,response,,,,99,,,,,,,Space,keypress(Space),,,,,,,,---- -- ----- -- ------ - ------- --- ----------<br>------------- ------ ------ ---- ---- ------- ----- -- ----<br>-------- ------- -- ---------- --- - --- ----- ----- ----<br>---- --- --- ----- --- ---- ---- ------- ----- ---- -------<br>--- --- -- ----- -- --- want -- --- ---- -- ------ ------<br>--- ----- -- ----,219216.28000005148,219207.914999919,218711.423,218710.27499996126,218728.084,219227.917,,45,want
screen,html.Screen,1_1_0_1_46,2021-04-19T01:38:36.577Z,,,,,,,,,,,,,,,,53,,,,,,,,,,,,,,383.8880001096113,,response,,,,99,,,,,,,Space,keypress(Space),,,,,,,,---- -- ----- -- ------ - ------- --- ----------<br>------------- ------ ------ ---- ---- ------- ----- -- ----<br>-------- ------- -- ---------- --- - --- ----- ----- ----<br>---- --- --- ----- --- ---- ---- ------- ----- ---- -------<br>--- --- -- ----- -- --- ---- to --- ---- -- ------ ------<br>--- ----- -- ----,219617.26500000805,219611.8050001096,219211.256,219216.53999993578,219227.917,219627.794,,46,to
screen,html.Screen,1_1_0_1_47,2021-04-19T01:38:36.992Z,,,,,,,,,,,,,,,,53,,,,,,,,,,,,,,400.240999966627,,response,,,,99,,,,,,,Space,keypress(Space),,,,,,,,"---- -- ----- -- ------ - ------- --- ----------<br>------------- ------ ------ ---- ---- ------- ----- -- ----<br>-------- ------- -- ---------- --- - --- ----- ----- ----<br>---- --- --- ----- --- ---- ---- ------- ----- ---- -------<br>--- --- -- ----- -- --- ---- -- be, ---- -- ------ ------<br>--- ----- -- ----",220032.64000010677,220028.03499996662,219611.133,219618.29499993473,219627.794,220044.309,,47,"be,"
screen,html.Screen,1_1_0_1_48,2021-04-19T01:38:37.360Z,,,,,,,,,,,,,,,,53,,,,,,,,,,,,,,351.5810000434285,,response,,,,99,,,,,,,Space,keypress(Space),,,,,,,,---- -- ----- -- ------ - ------- --- ----------<br>------------- ------ ------ ---- ---- ------- ----- -- ----<br>-------- ------- -- ---------- --- - --- ----- ----- ----<br>---- --- --- ----- --- ---- ---- ------- ----- ---- -------<br>--- --- -- ----- -- --- ---- -- --- even -- ------ ------<br>--- ----- -- ----,220400.55499994196,220395.89000004344,220027.648,220033.650000114,220044.309,220410.846,,48,even
screen,html.Screen,1_1_0_1_49,2021-04-19T01:38:37.878Z,,,,,,,,,,,,,,,,53,,,,,,,,,,,,,,502.2990001150465,,response,,,,99,,,,,,,Space,keypress(Space),,,,,,,,---- -- ----- -- ------ - ------- --- ----------<br>------------- ------ ------ ---- ---- ------- ----- -- ----<br>-------- ------- -- ---------- --- - --- ----- ----- ----<br>---- --- --- ----- --- ---- ---- ------- ----- ---- -------<br>--- --- -- ----- -- --- ---- -- --- ---- if ------ ------<br>--- ----- -- ----,220918.1399999652,220913.14500011504,220394.185,220400.8750000503,220410.846,220927.356,,49,if
screen,html.Screen,1_1_0_1_50,2021-04-19T01:38:38.308Z,,,,,,,,,,,,,,,,53,,,,,,,,,,,,,,415.61899991953396,,response,,,,99,,,,,,,Space,keypress(Space),,,,,,,,---- -- ----- -- ------ - ------- --- ----------<br>------------- ------ ------ ---- ---- ------- ----- -- ----<br>-------- ------- -- ---------- --- - --- ----- ----- ----<br>---- --- --- ----- --- ---- ---- ------- ----- ---- -------<br>--- --- -- ----- -- --- ---- -- --- ---- -- that's ------<br>--- ----- -- ----,221348.46500004642,221342.97499991953,220910.695,220918.92000008374,220927.356,221360.529,,50,that's
screen,html.Screen,1_1_0_1_51,2021-04-19T01:38:38.710Z,,,,,,,,,,,,,,,,53,,,,,,,,,,,,,,384.47100011174916,,response,,,,99,,,,,,,Space,keypress(Space),,,,,,,,---- -- ----- -- ------ - ------- --- ----------<br>------------- ------ ------ ---- ---- ------- ----- -- ----<br>-------- ------- -- ---------- --- - --- ----- ----- ----<br>---- --- --- ----- --- ---- ---- ------- ----- ---- -------<br>--- --- -- ----- -- --- ---- -- --- ---- -- ------ really<br>--- ----- -- ----,221750.6299999077,221745.00000011176,221343.868,221349.3000001181,221360.529,221760.408,,51,really
screen,html.Screen,1_1_0_1_52,2021-04-19T01:38:39.139Z,,,,,,,,,,,,,,,,53,,,,,,,,,,,,,,412.20200000872137,,response,,,,99,,,,,,,Space,keypress(Space),,,,,,,,---- -- ----- -- ------ - ------- --- ----------<br>------------- ------ ------ ---- ---- ------- ----- -- ----<br>-------- ------- -- ---------- --- - --- ----- ----- ----<br>---- --- --- ----- --- ---- ---- ------- ----- ---- -------<br>--- --- -- ----- -- --- ---- -- --- ---- -- ------ ------<br>not ----- -- ----,222179.14999998175,222172.61000000872,221743.747,221751.42999994569,221760.408,222193.584,,52,not
screen,html.Screen,1_1_0_1_53,2021-04-19T01:38:39.593Z,,,,,,,,,,,,,,,,53,,,,,,,,,,,,,,437.97100008724374,,response,,,,99,,,,,,,Space,keypress(Space),,,,,,,,---- -- ----- -- ------ - ------- --- ----------<br>------------- ------ ------ ---- ---- ------- ----- -- ----<br>-------- ------- -- ---------- --- - --- ----- ----- ----<br>---- --- --- ----- --- ---- ---- ------- ----- ---- -------<br>--- --- -- ----- -- --- ---- -- --- ---- -- ------ ------<br>--- close -- ----,222633.56500002556,222631.55500008725,222176.923,222180.35500007682,222193.584,222643.435,,53,close
screen,html.Screen,1_1_0_1_54,2021-04-19T01:38:40.036Z,,,,,,,,,,,,,,,,53,,,,,,,,,,,,,,428.69499998592073,,response,,,,99,,,,,,,Space,keypress(Space),,,,,,,,---- -- ----- -- ------ - ------- --- ----------<br>------------- ------ ------ ---- ---- ------- ----- -- ----<br>-------- ------- -- ---------- --- - --- ----- ----- ----<br>---- --- --- ----- --- ---- ---- ------- ----- ---- -------<br>--- --- -- ----- -- --- ---- -- --- ---- -- ------ ------<br>--- ----- at ----,223076.84500003234,223072.12999998592,222626.774,222633.8500001002,222643.435,223093.29,,54,at
screen,html.Screen,1_1_0_1_55,2021-04-19T01:38:40.444Z,,,,,,,,,,,,,,,,53,,,,,,,,,,,,,,384.10999997428735,,response,,,,99,,,,,,,Space,keypress(Space),,,,,,,,---- -- ----- -- ------ - ------- --- ----------<br>------------- ------ ------ ---- ---- ------- ----- -- ----<br>-------- ------- -- ---------- --- - --- ----- ----- ----<br>---- --- --- ----- --- ---- ---- ------- ----- ---- -------<br>--- --- -- ----- -- --- ---- -- --- ---- -- ------ ------<br>--- ----- -- all.,223484.52499997802,223477.3999999743,223076.629,223077.9399999883,223093.29,223509.804,,55,all.
Item 99,flow.Loop,1_1_0_1,2021-04-19T01:38:40.446Z,,,,,,,,,,,,,,,,,,,,,,,,,,,,,,25825.52099997431,,completion,,,,,F,,,,,,,,,,,silence,,,,,223486.17499996908,223477.3999999743,197585.235,197588.85499997996,197651.879,223509.804,,,
Question 1,html.Screen,1_1_0_2,2021-04-19T01:38:45.224Z,,,,,,,,,,,,,,,,,,,,,,,,,,,true,FALSE,,4724.911000027787,,response,,,,99,F,,,,,,FALSE,click #choice-2,,,,silence,,,,,228264.9149999488,228234.7150000278,223476.482,223487.0349999983,223509.804,228324.857,,,
Question 2,html.Screen,1_1_0_3,2021-04-19T01:38:49.550Z,,,,,,,,,,,,,,,,,,,,,,,,,,,true,TRUE,,4241.908000112366,,response,,,,99,F,,,,,,TRUE,click #choice-1,,,,silence,,,,,232590.95999994315,232566.76500011235,228241.551,228266.14500000142,228324.857,232623.406,,,
Item 99,flow.Sequence,1_1_0,2021-04-19T01:38:49.551Z,,,,,,,,,,,,,,,,,,,,,,,,,,,,,,44961.49800011236,,completion,,,,,,,,,,,,,,,,,,,,,232591.38000011444,232566.76500011235,187571.948,187590.93499998562,187605.267,232623.406,,,
Holding screen,html.Screen,1_1_1_0,2021-04-19T01:38:59.570Z,,,,,,,,,,,,,,,,,,,,,,,,,,,,,,9996.618000000017,,timeout,,,,,,,,,,,,,,,,,,,,,242610.38500000723,242603.363,232573.419,232591.73500002362,232623.406,242620.024,,,
screen,html.Screen,1_1_1_1_0,2021-04-19T01:39:00.281Z,,,,,,,,,,,,,,,,54,,,,,,,,,,,,,,691.8060000205587,,response,,,,100,,,,,,,Space,keypress(Space),,,,,,,,At --- ---- --- ------ ----- ------- ---- -- --- ------- --<br>------- ---------- ------ -- ----- -- ----- -- ---- ------<br>--- ----- --- --- ------ -------- ----- --- ------ ----- --<br>----- ----- ---------- --- --- ------ ------ ---- -- ------<br>------- --- ------ ----- --- ---- ------- -- ---- --- --<br>------- ------,243321.10000005923,243311.83000002056,242603.363,242610.86999997497,242620.024,243319.781,,0,At
screen,html.Screen,1_1_1_1_1,2021-04-19T01:39:00.630Z,,,,,,,,,,,,,,,,54,,,,,,,,,,,,,,345.03900006363983,,response,,,,100,,,,,,,Space,keypress(Space),,,,,,,,-- the ---- --- ------ ----- ------- ---- -- --- ------- --<br>------- ---------- ------ -- ----- -- ----- -- ---- ------<br>--- ----- --- --- ------ -------- ----- --- ------ ----- --<br>----- ----- ---------- --- --- ------ ------ ---- -- ------<br>------- --- ------ ----- --- ---- ------- -- ---- --- --<br>------- ------,243670.30999995768,243664.82000006363,243303.12,243322.08000007086,243319.781,243686.331,,1,the
screen,html.Screen,1_1_1_1_2,2021-04-19T01:39:01.109Z,,,,,,,,,,,,,,,,54,,,,,,,,,,,,,,456.7639999485109,,response,,,,100,,,,,,,Space,keypress(Space),,,,,,,,-- --- time --- ------ ----- ------- ---- -- --- ------- --<br>------- ---------- ------ -- ----- -- ----- -- ---- ------<br>--- ----- --- --- ------ -------- ----- --- ------ ----- --<br>----- ----- ---------- --- --- ------ ------ ---- -- ------<br>------- --- ------ ----- --- ---- ------- -- ---- --- --<br>------- ------,244149.22500005923,244143.09499994852,243669.67,243672.38999996334,243686.331,244169.509,,2,time
screen,html.Screen,1_1_1_1_3,2021-04-19T01:39:01.508Z,,,,,,,,,,,,,,,,54,,,,,,,,,,,,,,372.04600000343635,,response,,,,100,,,,,,,Space,keypress(Space),,,,,,,,-- --- ---- the ------ ----- ------- ---- -- --- ------- --<br>------- ---------- ------ -- ----- -- ----- -- ---- ------<br>--- ----- --- --- ------ -------- ----- --- ------ ----- --<br>----- ----- ---------- --- --- ------ ------ ---- -- ------<br>------- --- ------ ----- --- ---- ------- -- ---- --- --<br>------- ------,244548.83500002325,244541.55500000343,244152.848,244150.51999990828,244169.509,244552.703,,3,the
screen,html.Screen,1_1_1_1_4,2021-04-19T01:39:01.981Z,,,,,,,,,,,,,,,,54,,,,,,,,,,,,,,463.4619999208662,,response,,,,100,,,,,,,Space,keypress(Space),,,,,,,,-- --- ---- --- French ----- ------- ---- -- --- ------- --<br>------- ---------- ------ -- ----- -- ----- -- ---- ------<br>--- ----- --- --- ------ -------- ----- --- ------ ----- --<br>----- ----- ---------- --- --- ------ ------ ---- -- ------<br>------- --- ------ ----- --- ---- ------- -- ---- --- --<br>------- ------,245021.31500001997,245016.16499992087,244536.042,244550.0849999953,244552.703,245035.878,,4,French
screen,html.Screen,1_1_1_1_5,2021-04-19T01:39:02.415Z,,,,,,,,,,,,,,,,54,,,,,,,,,,,,,,414.6169999973208,,response,,,,100,,,,,,,Space,keypress(Space),,,,,,,,-- --- ---- --- ------ crown ------- ---- -- --- ------- --<br>------- ---------- ------ -- ----- -- ----- -- ---- ------<br>--- ----- --- --- ------ -------- ----- --- ------ ----- --<br>----- ----- ---------- --- --- ------ ------ ---- -- ------<br>------- --- ------ ----- --- ---- ------- -- ---- --- --<br>------- ------,245455.4600000847,245450.49499999732,245019.217,245022.1100000199,245035.878,245469.059,,5,crown
screen,html.Screen,1_1_1_1_6,2021-04-19T01:39:02.880Z,,,,,,,,,,,,,,,,54,,,,,,,,,,,,,,443.78100012091454,,response,,,,100,,,,,,,Space,keypress(Space),,,,,,,,-- --- ---- --- ------ ----- secured ---- -- --- ------- --<br>------- ---------- ------ -- ----- -- ----- -- ---- ------<br>--- ----- --- --- ------ -------- ----- --- ------ ----- --<br>----- ----- ---------- --- --- ------ ------ ---- -- ------<br>------- --- ------ ----- --- ---- ------- -- ---- --- --<br>------- ------,245920.92499998398,245912.84000012092,245452.398,245456.88499999233,245469.059,245935.578,,6,secured
screen,html.Screen,1_1_1_1_7,2021-04-19T01:39:03.290Z,,,,,,,,,,,,,,,,54,,,,,,,,,,,,,,388.2370000106457,,response,,,,100,,,,,,,Space,keypress(Space),,,,,,,,-- --- ---- --- ------ ----- ------- much -- --- ------- --<br>------- ---------- ------ -- ----- -- ----- -- ---- ------<br>--- ----- --- --- ------ -------- ----- --- ------ ----- --<br>----- ----- ---------- --- --- ------ ------ ---- -- ------<br>------- --- ------ ----- --- ---- ------- -- ---- --- --<br>------- ------,246330.94000001438,246323.81500001065,245918.917,245922.1850000322,245935.578,246335.433,,7,much
screen,html.Screen,1_1_1_1_8,2021-04-19T01:39:03.723Z,,,,,,,,,,,,,,,,54,,,,,,,,,,,,,,421.01699998622644,,response,,,,100,,,,,,,Space,keypress(Space),,,,,,,,-- --- ---- --- ------ ----- ------- ---- of --- ------- --<br>------- ---------- ------ -- ----- -- ----- -- ---- ------<br>--- ----- --- --- ------ -------- ----- --- ------ ----- --<br>----- ----- ---------- --- --- ------ ------ ---- -- ------<br>------- --- ------ ----- --- ---- ------- -- ---- --- --<br>------- ------,246763.6849998962,246756.44999998622,246318.772,246331.29000011832,246335.433,246768.631,,8,of
screen,html.Screen,1_1_1_1_9,2021-04-19T01:39:04.084Z,,,,,,,,,,,,,,,,54,,,,,,,,,,,,,,350.6989998994977,,response,,,,100,,,,,,,Space,keypress(Space),,,,,,,,-- --- ---- --- ------ ----- ------- ---- -- its ------- --<br>------- ---------- ------ -- ----- -- ----- -- ---- ------<br>--- ----- --- --- ------ -------- ----- --- ------ ----- --<br>----- ----- ---------- --- --- ------ ------ ---- -- ------<br>------- --- ------ ----- --- ---- ------- -- ---- --- --<br>------- ------,247125.01000007614,247119.3299998995,246751.97,246764.34500003234,246768.631,247135.171,,9,its
screen,html.Screen,1_1_1_1_10,2021-04-19T01:39:04.559Z,,,,,,,,,,,,,,,,54,,,,,,,,,,,,,,459.1140001156309,,response,,,,100,,,,,,,Space,keypress(Space),,,,,,,,-- --- ---- --- ------ ----- ------- ---- -- --- revenue --<br>------- ---------- ------ -- ----- -- ----- -- ---- ------<br>--- ----- --- --- ------ -------- ----- --- ------ ----- --<br>----- ----- ---------- --- --- ------ ------ ---- -- ------<br>------- --- ------ ----- --- ---- ------- -- ---- --- --<br>------- ------,247599.8500001151,247594.28500011563,247118.51,247125.93999993987,247135.171,247618.329,,10,revenue
screen,html.Screen,1_1_1_1_11,2021-04-19T01:39:05.049Z,,,,,,,,,,,,,,,,54,,,,,,,,,,,,,,464.0560000742844,,response,,,,100,,,,,,,Space,keypress(Space),,,,,,,,-- --- ---- --- ------ ----- ------- ---- -- --- ------- by<br>------- ---------- ------ -- ----- -- ----- -- ---- ------<br>--- ----- --- --- ------ -------- ----- --- ------ ----- --<br>----- ----- ---------- --- --- ------ ------ ---- -- ------<br>------- --- ------ ----- --- ---- ------- -- ---- --- --<br>------- ------,248089.81000003405,248082.38500007428,247601.668,247600.89000011794,247618.329,248101.502,,11,by
screen,html.Screen,1_1_1_1_12,2021-04-19T01:39:05.499Z,,,,,,,,,,,,,,,,54,,,,,,,,,,,,,,430.0630000702513,,response,,,,100,,,,,,,Space,keypress(Space),,,,,,,,-- --- ---- --- ------ ----- ------- ---- -- --- ------- --<br>issuing ---------- ------ -- ----- -- ----- -- ---- ------<br>--- ----- --- --- ------ -------- ----- --- ------ ----- --<br>----- ----- ---------- --- --- ------ ------ ---- -- ------<br>------- --- ------ ----- --- ---- ------- -- ---- --- --<br>------- ------,248539.7149999626,248531.56500007026,248084.841,248091.13999991678,248101.502,248551.354,,12,issuing
screen,html.Screen,1_1_1_1_13,2021-04-19T01:39:05.934Z,,,,,,,,,,,,,,,,54,,,,,,,,,,,,,,415.89099994889693,,response,,,,100,,,,,,,Space,keypress(Space),,,,,,,,-- --- ---- --- ------ ----- ------- ---- -- --- ------- --<br>------- government ------ -- ----- -- ----- -- ---- ------<br>--- ----- --- --- ------ -------- ----- --- ------ ----- --<br>----- ----- ---------- --- --- ------ ------ ---- -- ------<br>------- --- ------ ----- --- ---- ------- -- ---- --- --<br>------- ------,248974.79499992914,248967.2449999489,248534.693,248540.77999992296,248551.354,248984.544,,13,government
screen,html.Screen,1_1_1_1_14,2021-04-19T01:39:06.414Z,,,,,,,,,,,,,,,,54,,,,,,,,,,,,,,462.8960000181105,,response,,,,100,,,,,,,Space,keypress(Space),,,,,,,,-- --- ---- --- ------ ----- ------- ---- -- --- ------- --<br>------- ---------- bonds. -- ----- -- ----- -- ---- ------<br>--- ----- --- --- ------ -------- ----- --- ------ ----- --<br>----- ----- ---------- --- --- ------ ------ ---- -- ------<br>------- --- ------ ----- --- ---- ------- -- ---- --- --<br>------- ------,249454.06999997795,249447.4400000181,248967.883,248976.07000009157,248984.544,249467.709,,14,bonds.
screen,html.Screen,1_1_1_1_15,2021-04-19T01:39:06.945Z,,,,,,,,,,,,,,,,54,,,,,,,,,,,,,,510.31100003866595,,response,,,,100,,,,,,,Space,keypress(Space),,,,,,,,-- --- ---- --- ------ ----- ------- ---- -- --- ------- --<br>------- ---------- ------ In ----- -- ----- -- ---- ------<br>--- ----- --- --- ------ -------- ----- --- ------ ----- --<br>----- ----- ---------- --- --- ------ ------ ---- -- ------<br>------- --- ------ ----- --- ---- ------- -- ---- --- --<br>------- ------,249985.4200000409,249978.02000003867,249451.048,249455.33000002615,249467.709,250000.859,,15,In
screen,html.Screen,1_1_1_1_16,2021-04-19T01:39:07.434Z,,,,,,,,,,,,,,,,54,,,,,,,,,,,,,,469.7010000452283,,response,,,,100,,,,,,,Space,keypress(Space),,,,,,,,"-- --- ---- --- ------ ----- ------- ---- -- --- ------- --<br>------- ---------- ------ -- 1727, -- ----- -- ---- ------<br>--- ----- --- --- ------ -------- ----- --- ------ ----- --<br>----- ----- ---------- --- --- ------ ------ ---- -- ------<br>------- --- ------ ----- --- ---- ------- -- ---- --- --<br>------- ------",250474.1150001064,250470.56000004523,249984.198,249986.4950000774,250000.859,250484.034,,16,"1727,"
screen,html.Screen,1_1_1_1_17,2021-04-19T01:39:08.247Z,,,,,,,,,,,,,,,,54,,,,,,,,,,,,,,799.005999892921,,response,,,,100,,,,,,,Space,keypress(Space),,,,,,,,-- --- ---- --- ------ ----- ------- ---- -- --- ------- --<br>------- ---------- ------ -- ----- in ----- -- ---- ------<br>--- ----- --- --- ------ -------- ----- --- ------ ----- --<br>----- ----- ---------- --- --- ------ ------ ---- -- ------<br>------- --- ------ ----- --- ---- ------- -- ---- --- --<br>------- ------,251287.49500005506,251283.03999989294,250467.373,250474.91499991156,250484.034,251300.415,,17,in
screen,html.Screen,1_1_1_1_18,2021-04-19T01:39:08.747Z,,,,,,,,,,,,,,,,54,,,,,,,,,,,,,,479.7350000059523,,response,,,,100,,,,,,,Space,keypress(Space),,,,,,,,-- --- ---- --- ------ ----- ------- ---- -- --- ------- --<br>------- ---------- ------ -- ----- -- order -- ---- ------<br>--- ----- --- --- ------ -------- ----- --- ------ ----- --<br>----- ----- ---------- --- --- ------ ------ ---- -- ------<br>------- --- ------ ----- --- ---- ------- -- ---- --- --<br>------- ------,251787.24500001408,251780.15000000596,251283.754,251288.15499995835,251300.415,251800.265,,18,order
screen,html.Screen,1_1_1_1_19,2021-04-19T01:39:09.174Z,,,,,,,,,,,,,,,,54,,,,,,,,,,,,,,407.2100000610808,,response,,,,100,,,,,,,Space,keypress(Space),,,,,,,,-- --- ---- --- ------ ----- ------- ---- -- --- ------- --<br>------- ---------- ------ -- ----- -- ----- to ---- ------<br>--- ----- --- --- ------ -------- ----- --- ------ ----- --<br>----- ----- ---------- --- --- ------ ------ ---- -- ------<br>------- --- ------ ----- --- ---- ------- -- ---- --- --<br>------- ------,252214.3550000619,252207.4750000611,251783.604,251788.69500011206,251800.265,252233.437,,19,to
screen,html.Screen,1_1_1_1_20,2021-04-19T01:39:09.619Z,,,,,,,,,,,,,,,,54,,,,,,,,,,,,,,420.7929999855405,,response,,,,100,,,,,,,Space,keypress(Space),,,,,,,,-- --- ---- --- ------ ----- ------- ---- -- --- ------- --<br>------- ---------- ------ -- ----- -- ----- -- save ------<br>--- ----- --- --- ------ -------- ----- --- ------ ----- --<br>----- ----- ---------- --- --- ------ ------ ---- -- ------<br>------- --- ------ ----- --- ---- ------- -- ---- --- --<br>------- ------,252659.07500009052,252654.22999998555,252216.776,252215.70500009693,252233.437,252666.626,,20,save
screen,html.Screen,1_1_1_1_21,2021-04-19T01:39:10.352Z,,,,,,,,,,,,,,,,54,,,,,,,,,,,,,,720.1339999066549,,response,,,,100,,,,,,,Space,keypress(Space),,,,,,,,"-- --- ---- --- ------ ----- ------- ---- -- --- ------- --<br>------- ---------- ------ -- ----- -- ----- -- ---- money,<br>--- ----- --- --- ------ -------- ----- --- ------ ----- --<br>----- ----- ---------- --- --- ------ ------ ---- -- ------<br>------- --- ------ ----- --- ---- ------- -- ---- --- --<br>------- ------",253392.3899999354,253386.75999990664,252649.965,252660.0599999074,252666.626,253399.715,,21,"money,"
screen,html.Screen,1_1_1_1_22,2021-04-19T01:39:10.808Z,,,,,,,,,,,,,,,,54,,,,,,,,,,,,,,442.3099999035185,,response,,,,100,,,,,,,Space,keypress(Space),,,,,,,,-- --- ---- --- ------ ----- ------- ---- -- --- ------- --<br>------- ---------- ------ -- ----- -- ----- -- ---- ------<br>the ----- --- --- ------ -------- ----- --- ------ ----- --<br>----- ----- ---------- --- --- ------ ------ ---- -- ------<br>------- --- ------ ----- --- ---- ------- -- ---- --- --<br>------- ------,253848.88499998488,253842.02499990351,253383.054,253393.07500002906,253399.715,253866.234,,22,the
screen,html.Screen,1_1_1_1_23,2021-04-19T01:39:11.318Z,,,,,,,,,,,,,,,,54,,,,,,,,,,,,,,484.646000041801,,response,,,,100,,,,,,,Space,keypress(Space),,,,,,,,-- --- ---- --- ------ ----- ------- ---- -- --- ------- --<br>------- ---------- ------ -- ----- -- ----- -- ---- ------<br>--- state --- --- ------ -------- ----- --- ------ ----- --<br>----- ----- ---------- --- --- ------ ------ ---- -- ------<br>------- --- ------ ----- --- ---- ------- -- ---- --- --<br>------- ------,254358.380000107,254350.8800000418,253849.573,253849.53500004485,253866.234,254366.064,,23,state
screen,html.Screen,1_1_1_1_24,2021-04-19T01:39:11.758Z,,,,,,,,,,,,,,,,54,,,,,,,,,,,,,,429.4460000835825,,response,,,,100,,,,,,,Space,keypress(Space),,,,,,,,-- --- ---- --- ------ ----- ------- ---- -- --- ------- --<br>------- ---------- ------ -- ----- -- ----- -- ---- ------<br>--- ----- cut --- ------ -------- ----- --- ------ ----- --<br>----- ----- ---------- --- --- ------ ------ ---- -- ------<br>------- --- ------ ----- --- ---- ------- -- ---- --- --<br>------- ------,254798.8450000994,254795.5100000836,254349.403,254359.5000000205,254366.064,254815.9,,24,cut
screen,html.Screen,1_1_1_1_25,2021-04-19T01:39:12.199Z,,,,,,,,,,,,,,,,54,,,,,,,,,,,,,,420.1149999149202,,response,,,,100,,,,,,,Space,keypress(Space),,,,,,,,-- --- ---- --- ------ ----- ------- ---- -- --- ------- --<br>------- ---------- ------ -- ----- -- ----- -- ---- ------<br>--- ----- --- the ------ -------- ----- --- ------ ----- --<br>----- ----- ---------- --- --- ------ ------ ---- -- ------<br>------- --- ------ ----- --- ---- ------- -- ---- --- --<br>------- ------,255239.8000000976,255236.0149999149,254799.239,254799.36999990605,254815.9,255249.1,,25,the
screen,html.Screen,1_1_1_1_26,2021-04-19T01:39:12.676Z,,,,,,,,,,,,,,,,54,,,,,,,,,,,,,,462.4350000094564,,response,,,,100,,,,,,,Space,keypress(Space),,,,,,,,-- --- ---- --- ------ ----- ------- ---- -- --- ------- --<br>------- ---------- ------ -- ----- -- ----- -- ---- ------<br>--- ----- --- --- bonds' -------- ----- --- ------ ----- --<br>----- ----- ---------- --- --- ------ ------ ---- -- ------<br>------- --- ------ ----- --- ---- ------- -- ---- --- --<br>------- ------,255716.47999994457,255711.53500000946,255232.439,255240.42499996722,255249.1,255732.272,,26,bonds'
screen,html.Screen,1_1_1_1_27,2021-04-19T01:39:13.126Z,,,,,,,,,,,,,,,,54,,,,,,,,,,,,,,425.187999900314,,response,,,,100,,,,,,,Space,keypress(Space),,,,,,,,-- --- ---- --- ------ ----- ------- ---- -- --- ------- --<br>------- ---------- ------ -- ----- -- ----- -- ---- ------<br>--- ----- --- --- ------ interest ----- --- ------ ----- --<br>----- ----- ---------- --- --- ------ ------ ---- -- ------<br>------- --- ------ ----- --- ---- ------- -- ---- --- --<br>------- ------,256166.6500000283,256157.4599999003,255715.611,255717.06499997526,255732.272,256182.116,,27,interest
screen,html.Screen,1_1_1_1_28,2021-04-19T01:39:13.628Z,,,,,,,,,,,,,,,,54,,,,,,,,,,,,,,481.809000000736,,response,,,,100,,,,,,,Space,keypress(Space),,,,,,,,-- --- ---- --- ------ ----- ------- ---- -- --- ------- --<br>------- ---------- ------ -- ----- -- ----- -- ---- ------<br>--- ----- --- --- ------ -------- rate. --- ------ ----- --<br>----- ----- ---------- --- --- ------ ------ ---- -- ------<br>------- --- ------ ----- --- ---- ------- -- ---- --- --<br>------- ------,256668.61999989487,256663.92500000075,256165.455,256168.6500001233,256182.116,256681.932,,28,rate.
screen,html.Screen,1_1_1_1_29,2021-04-19T01:39:14.222Z,,,,,,,,,,,,,,,,54,,,,,,,,,,,,,,575.0780000593804,,response,,,,100,,,,,,,Space,keypress(Space),,,,,,,,-- --- ---- --- ------ ----- ------- ---- -- --- ------- --<br>------- ---------- ------ -- ----- -- ----- -- ---- ------<br>--- ----- --- --- ------ -------- ----- The ------ ----- --<br>----- ----- ---------- --- --- ------ ------ ---- -- ------<br>------- --- ------ ----- --- ---- ------- -- ---- --- --<br>------- ------,257262.79500010423,257257.01000005938,256665.271,256669.3700000178,256681.932,257281.729,,29,The
screen,html.Screen,1_1_1_1_30,2021-04-19T01:39:14.707Z,,,,,,,,,,,,,,,,54,,,,,,,,,,,,,,460.22099993779557,,response,,,,100,,,,,,,Space,keypress(Space),,,,,,,,-- --- ---- --- ------ ----- ------- ---- -- --- ------- --<br>------- ---------- ------ -- ----- -- ----- -- ---- ------<br>--- ----- --- --- ------ -------- ----- --- market ----- --<br>----- ----- ---------- --- --- ------ ------ ---- -- ------<br>------- --- ------ ----- --- ---- ------- -- ---- --- --<br>------- ------,257747.9900000617,257741.9499999378,257265.068,257264.1050000675,257281.729,257764.9,,30,market
screen,html.Screen,1_1_1_1_31,2021-04-19T01:39:15.192Z,,,,,,,,,,,,,,,,54,,,,,,,,,,,,,,461.2999999173044,,response,,,,100,,,,,,,Space,keypress(Space),,,,,,,,-- --- ---- --- ------ ----- ------- ---- -- --- ------- --<br>------- ---------- ------ -- ----- -- ----- -- ---- ------<br>--- ----- --- --- ------ -------- ----- --- ------ value --<br>----- ----- ---------- --- --- ------ ------ ---- -- ------<br>------- --- ------ ----- --- ---- ------- -- ---- --- --<br>------- ------,258232.24500007927,258226.1999999173,257748.239,257749.22499991953,257764.9,258248.081,,31,value
screen,html.Screen,1_1_1_1_32,2021-04-19T01:39:15.616Z,,,,,,,,,,,,,,,,54,,,,,,,,,,,,,,404.40399996959604,,response,,,,100,,,,,,,Space,keypress(Space),,,,,,,,-- --- ---- --- ------ ----- ------- ---- -- --- ------- --<br>------- ---------- ------ -- ----- -- ----- -- ---- ------<br>--- ----- --- --- ------ -------- ----- --- ------ ----- of<br>----- ----- ---------- --- --- ------ ------ ---- -- ------<br>------- --- ------ ----- --- ---- ------- -- ---- --- --<br>------- ------,258656.56500007026,258652.4849999696,258231.42,258233.4100001026,258248.081,258664.611,,32,of
screen,html.Screen,1_1_1_1_33,2021-04-19T01:39:16.009Z,,,,,,,,,,,,,,,,54,,,,,,,,,,,,,,377.2489999975369,,response,,,,100,,,,,,,Space,keypress(Space),,,,,,,,-- --- ---- --- ------ ----- ------- ---- -- --- ------- --<br>------- ---------- ------ -- ----- -- ----- -- ---- ------<br>--- ----- --- --- ------ -------- ----- --- ------ ----- --<br>these ----- ---------- --- --- ------ ------ ---- -- ------<br>------- --- ------ ----- --- ---- ------- -- ---- --- --<br>------- ------,259049.67499990016,259041.85999999754,258647.95,258657.16499998234,258664.611,259064.481,,33,these
screen,html.Screen,1_1_1_1_34,2021-04-19T01:39:16.461Z,,,,,,,,,,,,,,,,54,,,,,,,,,,,,,,430.22899999903166,,response,,,,100,,,,,,,Space,keypress(Space),,,,,,,,-- --- ---- --- ------ ----- ------- ---- -- --- ------- --<br>------- ---------- ------ -- ----- -- ----- -- ---- ------<br>--- ----- --- --- ------ -------- ----- --- ------ ----- --<br>----- bonds ---------- --- --- ------ ------ ---- -- ------<br>------- --- ------ ----- --- ---- ------- -- ---- --- --<br>------- ------,259501.37499999255,259494.70999999903,259047.82,259050.16000010073,259064.481,259514.328,,34,bonds
screen,html.Screen,1_1_1_1_35,2021-04-19T01:39:16.915Z,,,,,,,,,,,,,,,,54,,,,,,,,,,,,,,435.7019999490294,,response,,,,100,,,,,,,Space,keypress(Space),,,,,,,,"-- --- ---- --- ------ ----- ------- ---- -- --- ------- --<br>------- ---------- ------ -- ----- -- ----- -- ---- ------<br>--- ----- --- --- ------ -------- ----- --- ------ ----- --<br>----- ----- plummeted, --- --- ------ ------ ---- -- ------<br>------- --- ------ ----- --- ---- ------- -- ---- --- --<br>------- ------",259955.45000000857,259950.02999994904,259497.667,259502.5349999778,259514.328,259964.172,,35,"plummeted,"
screen,html.Screen,1_1_1_1_36,2021-04-19T01:39:17.418Z,,,,,,,,,,,,,,,,54,,,,,,,,,,,,,,488.5779999385413,,response,,,,100,,,,,,,Space,keypress(Space),,,,,,,,-- --- ---- --- ------ ----- ------- ---- -- --- ------- --<br>------- ---------- ------ -- ----- -- ----- -- ---- ------<br>--- ----- --- --- ------ -------- ----- --- ------ ----- --<br>----- ----- ---------- and --- ------ ------ ---- -- ------<br>------- --- ------ ----- --- ---- ------- -- ---- --- --<br>------- ------,260458.83499993943,260452.74999993853,259947.511,259956.16500009783,259964.172,260464.005,,36,and
screen,html.Screen,1_1_1_1_37,2021-04-19T01:39:17.931Z,,,,,,,,,,,,,,,,54,,,,,,,,,,,,,,500.5100001160754,,response,,,,100,,,,,,,Space,keypress(Space),,,,,,,,-- --- ---- --- ------ ----- ------- ---- -- --- ------- --<br>------- ---------- ------ -- ----- -- ----- -- ---- ------<br>--- ----- --- --- ------ -------- ----- --- ------ ----- --<br>----- ----- ---------- --- the ------ ------ ---- -- ------<br>------- --- ------ ----- --- ---- ------- -- ---- --- --<br>------- ------,260971.87500004657,260964.51500011608,260447.344,260459.77999991737,260464.005,260980.497,,37,the
screen,html.Screen,1_1_1_1_38,2021-04-19T01:39:18.445Z,,,,,,,,,,,,,,,,54,,,,,,,,,,,,,,497.7430000840395,,response,,,,100,,,,,,,Space,keypress(Space),,,,,,,,-- --- ---- --- ------ ----- ------- ---- -- --- ------- --<br>------- ---------- ------ -- ----- -- ----- -- ---- ------<br>--- ----- --- --- ------ -------- ----- --- ------ ----- --<br>----- ----- ---------- --- --- market ------ ---- -- ------<br>------- --- ------ ----- --- ---- ------- -- ---- --- --<br>------- ------,261486.00000003353,261478.24000008404,260963.836,260972.945000045,260980.497,261496.991,,38,market
screen,html.Screen,1_1_1_1_39,2021-04-19T01:39:18.907Z,,,,,,,,,,,,,,,,54,,,,,,,,,,,,,,443.5039999879955,,response,,,,100,,,,,,,Space,keypress(Space),,,,,,,,-- --- ---- --- ------ ----- ------- ---- -- --- ------- --<br>------- ---------- ------ -- ----- -- ----- -- ---- ------<br>--- ----- --- --- ------ -------- ----- --- ------ ----- --<br>----- ----- ---------- --- --- ------ became ---- -- ------<br>------- --- ------ ----- --- ---- ------- -- ---- --- --<br>------- ------,261947.84500007518,261940.494999988,261480.33,261488.03499992937,261496.991,261963.485,,39,became
screen,html.Screen,1_1_1_1_40,2021-04-19T01:39:19.281Z,,,,,,,,,,,,,,,,54,,,,,,,,,,,,,,353.7900000376394,,response,,,,100,,,,,,,Space,keypress(Space),,,,,,,,-- --- ---- --- ------ ----- ------- ---- -- --- ------- --<br>------- ---------- ------ -- ----- -- ----- -- ---- ------<br>--- ----- --- --- ------ -------- ----- --- ------ ----- --<br>----- ----- ---------- --- --- ------ ------ wary -- ------<br>------- --- ------ ----- --- ---- ------- -- ---- --- --<br>------- ------,262321.77500007674,262317.2750000376,261946.824,261948.1500000693,261963.485,262330.025,,40,wary
screen,html.Screen,1_1_1_1_41,2021-04-19T01:39:19.799Z,,,,,,,,,,,,,,,,54,,,,,,,,,,,,,,502.3200000025099,,response,,,,100,,,,,,,Space,keypress(Space),,,,,,,,-- --- ---- --- ------ ----- ------- ---- -- --- ------- --<br>------- ---------- ------ -- ----- -- ----- -- ---- ------<br>--- ----- --- --- ------ -------- ----- --- ------ ----- --<br>----- ----- ---------- --- --- ------ ------ ---- of ------<br>------- --- ------ ----- --- ---- ------- -- ---- --- --<br>------- ------,262839.2799999565,262832.34500000253,262313.364,262322.3649999127,262330.025,262846.517,,41,of
screen,html.Screen,1_1_1_1_42,2021-04-19T01:39:20.576Z,,,,,,,,,,,,,,,,54,,,,,,,,,,,,,,756.9080000957474,,response,,,,100,,,,,,,Space,keypress(Space),,,,,,,,-- --- ---- --- ------ ----- ------- ---- -- --- ------- --<br>------- ---------- ------ -- ----- -- ----- -- ---- ------<br>--- ----- --- --- ------ -------- ----- --- ------ ----- --<br>----- ----- ---------- --- --- ------ ------ ---- -- French<br>------- --- ------ ----- --- ---- ------- -- ---- --- --<br>------- ------,263616.91000009887,263603.42500009574,262829.856,262840.45500005595,262846.517,263629.585,,42,French
screen,html.Screen,1_1_1_1_43,2021-04-19T01:39:21.116Z,,,,,,,,,,,,,,,,54,,,,,,,,,,,,,,517.9300000769435,,response,,,,100,,,,,,,Space,keypress(Space),,,,,,,,-- --- ---- --- ------ ----- ------- ---- -- --- ------- --<br>------- ---------- ------ -- ----- -- ----- -- ---- ------<br>--- ----- --- --- ------ -------- ----- --- ------ ----- --<br>----- ----- ---------- --- --- ------ ------ ---- -- ------<br>credit. --- ------ ----- --- ---- ------- -- ---- --- --<br>------- ------,264156.2200000044,264147.51500007696,263612.924,263617.16999998316,263629.585,264162.744,,43,credit.
screen,html.Screen,1_1_1_1_44,2021-04-19T01:39:21.548Z,,,,,,,,,,,,,,,,54,,,,,,,,,,,,,,419.5460000493913,,response,,,,100,,,,,,,Space,keypress(Space),,,,,,,,-- --- ---- --- ------ ----- ------- ---- -- --- ------- --<br>------- ---------- ------ -- ----- -- ----- -- ---- ------<br>--- ----- --- --- ------ -------- ----- --- ------ ----- --<br>----- ----- ---------- --- --- ------ ------ ---- -- ------<br>------- The ------ ----- --- ---- ------- -- ---- --- --<br>------- ------,264588.51499995217,264582.2900000494,264146.083,264157.3250000365,264162.744,264595.929,,44,The
screen,html.Screen,1_1_1_1_45,2021-04-19T01:39:21.955Z,,,,,,,,,,,,,,,,54,,,,,,,,,,,,,,391.40099991625175,,response,,,,100,,,,,,,Space,keypress(Space),,,,,,,,-- --- ---- --- ------ ----- ------- ---- -- --- ------- --<br>------- ---------- ------ -- ----- -- ----- -- ---- ------<br>--- ----- --- --- ------ -------- ----- --- ------ ----- --<br>----- ----- ---------- --- --- ------ ------ ---- -- ------<br>------- --- French ----- --- ---- ------- -- ---- --- --<br>------- ------,264995.1200000942,264987.32999991626,264579.268,264589.41000001505,264595.929,265012.454,,45,French
screen,html.Screen,1_1_1_1_46,2021-04-19T01:39:22.377Z,,,,,,,,,,,,,,,,54,,,,,,,,,,,,,,400.0259999408154,,response,,,,100,,,,,,,Space,keypress(Space),,,,,,,,-- --- ---- --- ------ ----- ------- ---- -- --- ------- --<br>------- ---------- ------ -- ----- -- ----- -- ---- ------<br>--- ----- --- --- ------ -------- ----- --- ------ ----- --<br>----- ----- ---------- --- --- ------ ------ ---- -- ------<br>------- --- ------ state --- ---- ------- -- ---- --- --<br>------- ------,265417.91999991983,265412.47999994084,264995.793,264996.46999989636,265012.454,265428.989,,46,state
screen,html.Screen,1_1_1_1_47,2021-04-19T01:39:22.755Z,,,,,,,,,,,,,,,,54,,,,,,,,,,,,,,360.81599994940916,,response,,,,100,,,,,,,Space,keypress(Space),,,,,,,,-- --- ---- --- ------ ----- ------- ---- -- --- ------- --<br>------- ---------- ------ -- ----- -- ----- -- ---- ------<br>--- ----- --- --- ------ -------- ----- --- ------ ----- --<br>----- ----- ---------- --- --- ------ ------ ---- -- ------<br>------- --- ------ ----- was ---- ------- -- ---- --- --<br>------- ------,265795.51500012167,265789.8049999494,265412.328,265418.8349999022,265428.989,265812.194,,47,was
screen,html.Screen,1_1_1_1_48,2021-04-19T01:39:23.262Z,,,,,,,,,,,,,,,,54,,,,,,,,,,,,,,484.0959999692859,,response,,,,100,,,,,,,Space,keypress(Space),,,,,,,,-- --- ---- --- ------ ----- ------- ---- -- --- ------- --<br>------- ---------- ------ -- ----- -- ----- -- ---- ------<br>--- ----- --- --- ------ -------- ----- --- ------ ----- --<br>----- ----- ---------- --- --- ------ ------ ---- -- ------<br>------- --- ------ ----- --- left ------- -- ---- --- --<br>------- ------,266302.8400000185,266296.2899999693,265795.533,265796.6599999927,265812.194,266312.026,,48,left
screen,html.Screen,1_1_1_1_49,2021-04-19T01:39:23.754Z,,,,,,,,,,,,,,,,54,,,,,,,,,,,,,,476.48899990558857,,response,,,,100,,,,,,,Space,keypress(Space),,,,,,,,-- --- ---- --- ------ ----- ------- ---- -- --- ------- --<br>------- ---------- ------ -- ----- -- ----- -- ---- ------<br>--- ----- --- --- ------ -------- ----- --- ------ ----- --<br>----- ----- ---------- --- --- ------ ------ ---- -- ------<br>------- --- ------ ----- --- ---- without -- ---- --- --<br>------- ------,266794.17999996804,266788.5149999056,266295.365,266303.2349999994,266312.026,266811.861,,49,without
screen,html.Screen,1_1_1_1_50,2021-04-19T01:39:24.148Z,,,,,,,,,,,,,,,,54,,,,,,,,,,,,,,370.54400008689845,,response,,,,100,,,,,,,Space,keypress(Space),,,,,,,,-- --- ---- --- ------ ----- ------- ---- -- --- ------- --<br>------- ---------- ------ -- ----- -- ----- -- ---- ------<br>--- ----- --- --- ------ -------- ----- --- ------ ----- --<br>----- ----- ---------- --- --- ------ ------ ---- -- ------<br>------- --- ------ ----- --- ---- ------- an ---- --- --<br>------- ------,267188.77999996766,267182.4050000869,266795.2,266794.91499997675,266811.861,267195.056,,50,an
screen,html.Screen,1_1_1_1_51,2021-04-19T01:39:24.526Z,,,,,,,,,,,,,,,,54,,,,,,,,,,,,,,363.6789999696193,,response,,,,100,,,,,,,Space,keypress(Space),,,,,,,,-- --- ---- --- ------ ----- ------- ---- -- --- ------- --<br>------- ---------- ------ -- ----- -- ----- -- ---- ------<br>--- ----- --- --- ------ -------- ----- --- ------ ----- --<br>----- ----- ---------- --- --- ------ ------ ---- -- ------<br>------- --- ------ ----- --- ---- ------- -- easy --- --<br>------- ------,267566.6350000538,267558.7349999696,267178.395,267189.37000003643,267195.056,267578.256,,51,easy
screen,html.Screen,1_1_1_1_52,2021-04-19T01:39:24.928Z,,,,,,,,,,,,,,,,54,,,,,,,,,,,,,,383.5389998937608,,response,,,,100,,,,,,,Space,keypress(Space),,,,,,,,-- --- ---- --- ------ ----- ------- ---- -- --- ------- --<br>------- ---------- ------ -- ----- -- ----- -- ---- ------<br>--- ----- --- --- ------ -------- ----- --- ------ ----- --<br>----- ----- ---------- --- --- ------ ------ ---- -- ------<br>------- --- ------ ----- --- ---- ------- -- ---- way --<br>------- ------,267968.4900001157,267961.79499989375,267561.595,267567.86999991164,267578.256,267978.128,,52,way
screen,html.Screen,1_1_1_1_53,2021-04-19T01:39:25.710Z,,,,,,,,,,,,,,,,54,,,,,,,,,,,,,,766.522000007797,,response,,,,100,,,,,,,Space,keypress(Space),,,,,,,,-- --- ---- --- ------ ----- ------- ---- -- --- ------- --<br>------- ---------- ------ -- ----- -- ----- -- ---- ------<br>--- ----- --- --- ------ -------- ----- --- ------ ----- --<br>----- ----- ---------- --- --- ------ ------ ---- -- ------<br>------- --- ------ ----- --- ---- ------- -- ---- --- of<br>------- ------,268750.25500007905,268744.6500000078,267961.467,267969.8300000746,267978.128,268761.191,,53,of
screen,html.Screen,1_1_1_1_54,2021-04-19T01:39:26.181Z,,,,,,,,,,,,,,,,54,,,,,,,,,,,,,,455.1540000807727,,response,,,,100,,,,,,,Space,keypress(Space),,,,,,,,-- --- ---- --- ------ ----- ------- ---- -- --- ------- --<br>------- ---------- ------ -- ----- -- ----- -- ---- ------<br>--- ----- --- --- ------ -------- ----- --- ------ ----- --<br>----- ----- ---------- --- --- ------ ------ ---- -- ------<br>------- --- ------ ----- --- ---- ------- -- ---- --- --<br>raising ------,269221.98499995284,269216.34500008076,268744.53,268751.20500009507,268761.191,269227.697,,54,raising
screen,html.Screen,1_1_1_1_55,2021-04-19T01:39:26.548Z,,,,,,,,,,,,,,,,54,,,,,,,,,,,,,,353.4829999792273,,response,,,,100,,,,,,,Space,keypress(Space),,,,,,,,-- --- ---- --- ------ ----- ------- ---- -- --- ------- --<br>------- ---------- ------ -- ----- -- ----- -- ---- ------<br>--- ----- --- --- ------ -------- ----- --- ------ ----- --<br>----- ----- ---------- --- --- ------ ------ ---- -- ------<br>------- --- ------ ----- --- ---- ------- -- ---- --- --<br>------- money.,269588.38000008836,269581.1799999792,269211.036,269222.37999993376,269227.697,269610.908,,55,money.
Item 100,flow.Loop,1_1_1_1,2021-04-19T01:39:26.550Z,,,,,,,,,,,,,,,,,,,,,,,,,,,,,,26961.155999979208,,completion,,,,,F,,,,,,,,,,,silence,,,,,269591.005000053,269581.1799999792,242603.363,242610.7600000687,242620.024,269610.908,,,
Question 1,html.Screen,1_1_1_2,2021-04-19T01:39:30.483Z,,,,,,,,,,,,,,,,,,,,,,,,,,,true,TRUE,,3895.1770000008983,,response,,,,100,F,,,,,,TRUE,click #choice-1,,,,silence,,,,,273523.76000001095,273506.0850000009,269594.247,269592.2950000968,269610.908,273542.92,,,
Question 2,html.Screen,1_1_1_3,2021-04-19T01:39:32.827Z,,,,,,,,,,,,,,,,,,,,,,,,,,,true,FALSE,,2304.020000075863,,response,,,,100,F,,,,,,FALSE,click #choice-2,,,,silence,,,,,275867.8749999963,275846.94000007585,273509.598,273524.1199999582,273542.92,275892.122,,,
Item 100,flow.Sequence,1_1_1,2021-04-19T01:39:32.828Z,,,,,,,,,,,,,,,,,,,,,,,,,,,,,,43223.53400007586,,completion,,,,,,,,,,,,,,,,,,,,,275868.29499993473,275846.94000007585,232573.419,232591.65000007488,232623.406,275892.122,,,
End of Practice,html.Page,1_1_2,2021-04-19T01:39:38.236Z,,,,,,,,,,,,,,,,,,,,,,,,,,,,,,5384.098000116181,,form submission,,,,,,,,,,,,,,,,,,,,,281276.8000001088,281276.22000011615,275842.146,275868.49500006065,275892.122,281273.647,,,
Practice,flow.Sequence,1_1,2021-04-19T01:39:38.237Z,,,,,,,,,,,,,,,,,,,,,,,,,,,,,,93670.95300011616,,completion,,,,,,,,,,,,,,,,,,,,,281277.22000004724,281276.22000011615,187571.948,187590.83000011742,187605.267,281273.647,,,
Trap_instruction,html.Page,1_2_0,2021-04-19T01:39:42.032Z,,,,,,,,,,,,,,,,,,,,,,,,,,,,,,3798.1129999625264,,form submission,,,,,,,,,,,,,,,,,,,,,285072.24999996834,285071.7599999625,281256.986,281277.4900000077,281273.647,285172.332,,,
trap_trial,html.Screen,1_2_1,2021-04-19T01:39:46.420Z,,,,,,,,,,,,,,,,,,,,,,,,,,,true,1,,4264.863000005891,,response,,,,,,,,,,,1,click #choice-1,,,,,,,,,289460.7800000813,289437.1950000059,285055.678,285072.8849999141,285172.332,289487.541,,,
end of trap trial,html.Page,1_2_2,2021-04-19T01:39:48.616Z,,,,,,,,,,,,,,,,,,,,,,,,,,,,,,2168.894000011671,,form submission,,,,,,,,,,,,,,,,,,,,,291656.9749999326,291656.4350000117,289437.548,289461.0699999612,289487.541,291653.476,,,
Trap 1,flow.Sequence,1_2,2021-04-19T01:39:48.617Z,,,,,,,,,,,,,,,,,,,,,,,,,,,,,,10382.7880000117,,completion,,,,,,,,,,,,,,,,,,,,,291657.39500010386,291656.4350000117,281256.986,281277.40500005893,281273.647,291653.476,,,
Standby,html.Page,1_3_0,2021-04-19T01:39:56.595Z,,,,,,,,,,,,,,,,,,,,,,,,,,,,,,8013.934999999998,,timeout,,,,,,,,,,,,,,,,,,,,,299635.3150000796,299634.089,291636.815,291657.7399999369,291653.476,299667.411,,,
Holding screen,html.Screen,1_3_1_0_0,2021-04-19T01:40:03.620Z,,,,,,,,,,,,,,,,,,,,,,,,,,,,,,7014.324999999953,,timeout,,,,,,,,,,,,,,,,,,,,,306660.0800000597,306648.414,299634.089,299635.91499999166,299667.411,306681.736,,,
screen,html.Screen,1_3_1_0_1_0,2021-04-19T01:40:04.529Z,,,,,,,,,,,,,,,,2,,,,,,,,,,,,,,882.0890000775107,,response,,,,1,F,,,,,,Space,keypress(Space),,,,instrumental,,,,Two ---- ------ --- ------- ---------- ------- ----------<br>--- --------- --- ----------- ------- ----- ------- ---<br>--------- ---- -- --- ---- -- --------- -- ---- -------<br>-- --------- ------ --- ----- ------ ---- --- --------- --<br>------ - ---- -- --- ----------- ------- ---- ----- -----<br>--- -------- - ------ ---- -- ----- ---- --- --- -----------<br>-- -------,307569.2749998998,307563.8250000775,306648.414,306660.67999997176,306681.736,307581.417,,0,Two
screen,html.Screen,1_3_1_0_1_1,2021-04-19T01:40:05.144Z,,,,,,,,,,,,,,,,2,,,,,,,,,,,,,,598.0430000139168,,response,,,,1,F,,,,,,Space,keypress(Space),,,,instrumental,,,,--- days ------ --- ------- ---------- ------- ----------<br>--- --------- --- ----------- ------- ----- ------- ---<br>--------- ---- -- --- ---- -- --------- -- ---- -------<br>-- --------- ------ --- ----- ------ ---- --- --------- --<br>------ - ---- -- --- ----------- ------- ---- ----- -----<br>--- -------- - ------ ---- -- ----- ---- --- --- -----------<br>-- -------,308184.1649999842,308179.46000001393,307564.756,307569.7699999437,307581.417,308197.881,,1,days
screen,html.Screen,1_3_1_0_1_2,2021-04-19T01:40:05.621Z,,,,,,,,,,,,,,,,2,,,,,,,,,,,,,,459.5040000277222,,response,,,,1,F,,,,,,Space,keypress(Space),,,,instrumental,,,,"--- ---- later, --- ------- ---------- ------- ----------<br>--- --------- --- ----------- ------- ----- ------- ---<br>--------- ---- -- --- ---- -- --------- -- ---- -------<br>-- --------- ------ --- ----- ------ ---- --- --------- --<br>------ - ---- -- --- ----------- ------- ---- ----- -----<br>--- -------- - ------ ---- -- ----- ---- --- --- -----------<br>-- -------",308661.5250001196,308657.3850000277,308181.22,308185.1800000295,308197.881,308664.386,,2,"later,"
screen,html.Screen,1_3_1_0_1_3,2021-04-19T01:40:06.122Z,,,,,,,,,,,,,,,,2,,,,,,,,,,,,,,491.66899991215905,,response,,,,1,F,,,,,,Space,keypress(Space),,,,instrumental,,,,--- ---- ------ the ------- ---------- ------- ----------<br>--- --------- --- ----------- ------- ----- ------- ---<br>--------- ---- -- --- ---- -- --------- -- ---- -------<br>-- --------- ------ --- ----- ------ ---- --- --------- --<br>------ - ---- -- --- ----------- ------- ---- ----- -----<br>--- -------- - ------ ---- -- ----- ---- --- --- -----------<br>-- -------,309162.3599999584,309156.05499991216,308647.725,308662.10000007413,308664.386,309164.23,,3,the
screen,html.Screen,1_3_1_0_1_4,2021-04-19T01:40:06.561Z,,,,,,,,,,,,,,,,2,,,,,,,,,,,,,,431.1349999574013,,response,,,,1,F,,,,,,Space,keypress(Space),,,,instrumental,,,,--- ---- ------ --- British ---------- ------- ----------<br>--- --------- --- ----------- ------- ----- ------- ---<br>--------- ---- -- --- ---- -- --------- -- ---- -------<br>-- --------- ------ --- ----- ------ ---- --- --------- --<br>------ - ---- -- --- ----------- ------- ---- ----- -----<br>--- -------- - ------ ---- -- ----- ---- --- --- -----------<br>-- -------,309601.08499997295,309595.3649999574,309147.569,309162.81999996863,309164.23,309614.061,,4,British
screen,html.Screen,1_3_1_0_1_5,2021-04-19T01:40:07.148Z,,,,,,,,,,,,,,,,2,,,,,,,,,,,,,,569.6290000926238,,response,,,,1,F,,,,,,Space,keypress(Space),,,,instrumental,,,,--- ---- ------ --- ------- astronomer ------- ----------<br>--- --------- --- ----------- ------- ----- ------- ---<br>--------- ---- -- --- ---- -- --------- -- ---- -------<br>-- --------- ------ --- ----- ------ ---- --- --------- --<br>------ - ---- -- --- ----------- ------- ---- ----- -----<br>--- -------- - ------ ---- -- ----- ---- --- --- -----------<br>-- -------,310188.52500012144,310183.6900000926,309597.4,309601.340000052,309614.061,310197.214,,5,astronomer
screen,html.Screen,1_3_1_0_1_6,2021-04-19T01:40:07.622Z,,,,,,,,,,,,,,,,2,,,,,,,,,,,,,,463.5160001196782,,response,,,,1,F,,,,,,Space,keypress(Space),,,,instrumental,,,,--- ---- ------ --- ------- ---------- Richard ----------<br>--- --------- --- ----------- ------- ----- ------- ---<br>--------- ---- -- --- ---- -- --------- -- ---- -------<br>-- --------- ------ --- ----- ------ ---- --- --------- --<br>------ - ---- -- --- ----------- ------- ---- ----- -----<br>--- -------- - ------ ---- -- ----- ---- --- --- -----------<br>-- -------,310662.90000011213,310660.73000011966,310180.553,310189.100000076,310197.214,310680.367,,6,Richard
screen,html.Screen,1_3_1_0_1_7,2021-04-19T01:40:08.120Z,,,,,,,,,,,,,,,,2,,,,,,,,,,,,,,475.9530000673258,,response,,,,1,F,,,,,,Space,keypress(Space),,,,instrumental,,,,--- ---- ------ --- ------- ---------- ------- Carrington<br>--- --------- --- ----------- ------- ----- ------- ---<br>--------- ---- -- --- ---- -- --------- -- ---- -------<br>-- --------- ------ --- ----- ------ ---- --- --------- --<br>------ - ---- -- --- ----------- ------- ---- ----- -----<br>--- -------- - ------ ---- -- ----- ---- --- --- -----------<br>-- -------,311160.09999997914,311156.32000006735,310663.706,310663.1650000345,310680.367,311163.557,,7,Carrington
screen,html.Screen,1_3_1_0_1_8,2021-04-19T01:40:08.575Z,,,,,,,,,,,,,,,,2,,,,,,,,,,,,,,447.6930000745342,,response,,,,1,F,,,,,,Space,keypress(Space),,,,instrumental,,,,--- ---- ------ --- ------- ---------- ------- ----------<br>was --------- --- ----------- ------- ----- ------- ---<br>--------- ---- -- --- ---- -- --------- -- ---- -------<br>-- --------- ------ --- ----- ------ ---- --- --------- --<br>------ - ---- -- --- ----------- ------- ---- ----- -----<br>--- -------- - ------ ---- -- ----- ---- --- --- -----------<br>-- -------,311615.6900001224,311611.2500000745,311146.896,311160.7200000435,311163.557,311630.06,,8,was
screen,html.Screen,1_3_1_0_1_9,2021-04-19T01:40:09.217Z,,,,,,,,,,,,,,,,2,,,,,,,,,,,,,,623.4199999557459,,response,,,,1,F,,,,,,Space,keypress(Space),,,,instrumental,,,,--- ---- ------ --- ------- ---------- ------- ----------<br>--- observing --- ----------- ------- ----- ------- ---<br>--------- ---- -- --- ---- -- --------- -- ---- -------<br>-- --------- ------ --- ----- ------ ---- --- --------- --<br>------ - ---- -- --- ----------- ------- ---- ----- -----<br>--- -------- - ------ ---- -- ----- ---- --- --- -----------<br>-- -------,312257.90500012226,312253.47999995574,311613.399,311615.9650001209,311630.06,312263.18,,9,observing
screen,html.Screen,1_3_1_0_1_10,2021-04-19T01:40:09.689Z,,,,,,,,,,,,,,,,2,,,,,,,,,,,,,,460.9149999541114,,response,,,,1,F,,,,,,Space,keypress(Space),,,,instrumental,,,,--- ---- ------ --- ------- ---------- ------- ----------<br>--- --------- the ----------- ------- ----- ------- ---<br>--------- ---- -- --- ---- -- --------- -- ---- -------<br>-- --------- ------ --- ----- ------ ---- --- --------- --<br>------ - ---- -- --- ----------- ------- ---- ----- -----<br>--- -------- - ------ ---- -- ----- ---- --- --- -----------<br>-- -------,312729.2899999302,312724.0949999541,312246.519,312258.51999991573,312263.18,312746.339,,10,the
screen,html.Screen,1_3_1_0_1_11,2021-04-19T01:40:10.171Z,,,,,,,,,,,,,,,,2,,,,,,,,,,,,,,458.8559999295394,,response,,,,1,F,,,,,,Space,keypress(Space),,,,instrumental,,,,--- ---- ------ --- ------- ---------- ------- ----------<br>--- --------- --- interesting ------- ----- ------- ---<br>--------- ---- -- --- ---- -- --------- -- ---- -------<br>-- --------- ------ --- ----- ------ ---- --- --------- --<br>------ - ---- -- --- ----------- ------- ---- ----- -----<br>--- -------- - ------ ---- -- ----- ---- --- --- -----------<br>-- -------,313211.8349999655,313205.1949999295,312729.678,312731.24999995343,312746.339,313229.526,,11,interesting
screen,html.Screen,1_3_1_0_1_12,2021-04-19T01:40:10.666Z,,,,,,,,,,,,,,,,2,,,,,,,,,,,,,,470.90399996802444,,response,,,,1,F,,,,,,Space,keypress(Space),,,,instrumental,,,,--- ---- ------ --- ------- ---------- ------- ----------<br>--- --------- --- ----------- sunspot ----- ------- ---<br>--------- ---- -- --- ---- -- --------- -- ---- -------<br>-- --------- ------ --- ----- ------ ---- --- --------- --<br>------ - ---- -- --- ----------- ------- ---- ----- -----<br>--- -------- - ------ ---- -- ----- ---- --- --- -----------<br>-- -------,313706.10999991186,313700.42999996804,313212.865,313213.4300000034,313229.526,313712.691,,12,sunspot
screen,html.Screen,1_3_1_0_1_13,2021-04-19T01:40:11.167Z,,,,,,,,,,,,,,,,2,,,,,,,,,,,,,,489.7990000542486,,response,,,,1,F,,,,,,Space,keypress(Space),,,,instrumental,,,,--- ---- ------ --- ------- ---------- ------- ----------<br>--- --------- --- ----------- ------- group ------- ---<br>--------- ---- -- --- ---- -- --------- -- ---- -------<br>-- --------- ------ --- ----- ------ ---- --- --------- --<br>------ - ---- -- --- ----------- ------- ---- ----- -----<br>--- -------- - ------ ---- -- ----- ---- --- --- -----------<br>-- -------,314207.66500011086,314202.49000005424,313696.03,313706.56000007875,313712.691,314212.517,,13,group
screen,html.Screen,1_3_1_0_1_14,2021-04-19T01:40:11.615Z,,,,,,,,,,,,,,,,2,,,,,,,,,,,,,,438.80299994628876,,response,,,,1,F,,,,,,Space,keypress(Space),,,,instrumental,,,,--- ---- ------ --- ------- ---------- ------- ----------<br>--- --------- --- ----------- ------- ----- through ---<br>--------- ---- -- --- ---- -- --------- -- ---- -------<br>-- --------- ------ --- ----- ------ ---- --- --------- --<br>------ - ---- -- --- ----------- ------- ---- ----- -----<br>--- -------- - ------ ---- -- ----- ---- --- --- -----------<br>-- -------,314655.255000107,314651.3199999463,314195.856,314208.14000000246,314212.517,314662.374,,14,through
screen,html.Screen,1_3_1_0_1_15,2021-04-19T01:40:12.139Z,,,,,,,,,,,,,,,,2,,,,,,,,,,,,,,510.00600012001814,,response,,,,1,F,,,,,,Space,keypress(Space),,,,instrumental,,,,--- ---- ------ --- ------- ---------- ------- ----------<br>--- --------- --- ----------- ------- ----- ------- his<br>--------- ---- -- --- ---- -- --------- -- ---- -------<br>-- --------- ------ --- ----- ------ ---- --- --------- --<br>------ - ---- -- --- ----------- ------- ---- ----- -----<br>--- -------- - ------ ---- -- ----- ---- --- --- -----------<br>-- -------,315179.8700001091,315172.38000012,314645.713,314655.7849999517,314662.374,315195.525,,15,his
screen,html.Screen,1_3_1_0_1_16,2021-04-19T01:40:12.582Z,,,,,,,,,,,,,,,,2,,,,,,,,,,,,,,424.155000003404,,response,,,,1,F,,,,,,Space,keypress(Space),,,,instrumental,,,,--- ---- ------ --- ------- ---------- ------- ----------<br>--- --------- --- ----------- ------- ----- ------- ---<br>telescope ---- -- --- ---- -- --------- -- ---- -------<br>-- --------- ------ --- ----- ------ ---- --- --------- --<br>------ - ---- -- --- ----------- ------- ---- ----- -----<br>--- -------- - ------ ---- -- ----- ---- --- --- -----------<br>-- -------,315622.67499999143,315619.6800000034,315178.864,315181.05500005186,315195.525,315628.709,,16,telescope
screen,html.Screen,1_3_1_0_1_17,2021-04-19T01:40:13.012Z,,,,,,,,,,,,,,,,2,,,,,,,,,,,,,,417.5260000161943,,response,,,,1,F,,,,,,Space,keypress(Space),,,,instrumental,,,,--- ---- ------ --- ------- ---------- ------- ----------<br>--- --------- --- ----------- ------- ----- ------- ---<br>--------- when -- --- ---- -- --------- -- ---- -------<br>-- --------- ------ --- ----- ------ ---- --- --------- --<br>------ - ---- -- --- ----------- ------- ---- ----- -----<br>--- -------- - ------ ---- -- ----- ---- --- --- -----------<br>-- -------,316052.2400001064,316046.23500001617,315612.048,315622.9749999475,315628.709,316061.89,,17,when
screen,html.Screen,1_3_1_0_1_18,2021-04-19T01:40:13.464Z,,,,,,,,,,,,,,,,2,,,,,,,,,,,,,,435.99999999871943,,response,,,,1,F,,,,,,Space,keypress(Space),,,,instrumental,,,,--- ---- ------ --- ------- ---------- ------- ----------<br>--- --------- --- ----------- ------- ----- ------- ---<br>--------- ---- he --- ---- -- --------- -- ---- -------<br>-- --------- ------ --- ----- ------ ---- --- --------- --<br>------ - ---- -- --- ----------- ------- ---- ----- -----<br>--- -------- - ------ ---- -- ----- ---- --- --- -----------<br>-- -------,316504.86500002444,316497.88999999873,316045.229,316052.6199999731,316061.89,316511.736,,18,he
screen,html.Screen,1_3_1_0_1_19,2021-04-19T01:40:13.887Z,,,,,,,,,,,,,,,,2,,,,,,,,,,,,,,411.4789999588975,,response,,,,1,F,,,,,,Space,keypress(Space),,,,instrumental,,,,--- ---- ------ --- ------- ---------- ------- ----------<br>--- --------- --- ----------- ------- ----- ------- ---<br>--------- ---- -- saw ---- -- --------- -- ---- -------<br>-- --------- ------ --- ----- ------ ---- --- --------- --<br>------ - ---- -- --- ----------- ------- ---- ----- -----<br>--- -------- - ------ ---- -- ----- ---- --- --- -----------<br>-- -------,316927.4850001093,316923.2149999589,316495.075,316506.0050000902,316511.736,316944.934,,19,saw
screen,html.Screen,1_3_1_0_1_20,2021-04-19T01:40:14.361Z,,,,,,,,,,,,,,,,2,,,,,,,,,,,,,,449.96599995566066,,response,,,,1,F,,,,,,Space,keypress(Space),,,,instrumental,,,,--- ---- ------ --- ------- ---------- ------- ----------<br>--- --------- --- ----------- ------- ----- ------- ---<br>--------- ---- -- --- what -- --------- -- ---- -------<br>-- --------- ------ --- ----- ------ ---- --- --------- --<br>------ - ---- -- --- ----------- ------- ---- ----- -----<br>--- -------- - ------ ---- -- ----- ---- --- --- -----------<br>-- -------,317401.91000001505,317394.89999995567,316928.273,316927.91999992914,316944.934,317411.441,,20,what
screen,html.Screen,1_3_1_0_1_21,2021-04-19T01:40:14.782Z,,,,,,,,,,,,,,,,2,,,,,,,,,,,,,,403.23900006862823,,response,,,,1,F,,,,,,Space,keypress(Space),,,,instrumental,,,,--- ---- ------ --- ------- ---------- ------- ----------<br>--- --------- --- ----------- ------- ----- ------- ---<br>--------- ---- -- --- ---- he --------- -- ---- -------<br>-- --------- ------ --- ----- ------ ---- --- --------- --<br>------ - ---- -- --- ----------- ------- ---- ----- -----<br>--- -------- - ------ ---- -- ----- ---- --- --- -----------<br>-- -------,317823.05000000633,317814.6800000686,317394.78,317403.1750001013,317411.441,317827.957,,21,he
screen,html.Screen,1_3_1_0_1_22,2021-04-19T01:40:15.241Z,,,,,,,,,,,,,,,,2,,,,,,,,,,,,,,445.6530000329367,,response,,,,1,F,,,,,,Space,keypress(Space),,,,instrumental,,,,--- ---- ------ --- ------- ---------- ------- ----------<br>--- --------- --- ----------- ------- ----- ------- ---<br>--------- ---- -- --- ---- -- described -- ---- -------<br>-- --------- ------ --- ----- ------ ---- --- --------- --<br>------ - ---- -- --- ----------- ------- ---- ----- -----<br>--- -------- - ------ ---- -- ----- ---- --- --- -----------<br>-- -------,318281.08999994583,318273.61000003293,317811.296,317823.4200000297,317827.957,318294.466,,22,described
screen,html.Screen,1_3_1_0_1_23,2021-04-19T01:40:15.705Z,,,,,,,,,,,,,,,,2,,,,,,,,,,,,,,444.5890000127256,,response,,,,1,F,,,,,,Space,keypress(Space),,,,instrumental,,,,--- ---- ------ --- ------- ---------- ------- ----------<br>--- --------- --- ----------- ------- ----- ------- ---<br>--------- ---- -- --- ---- -- --------- as ---- -------<br>-- --------- ------ --- ----- ------ ---- --- --------- --<br>------ - ---- -- --- ----------- ------- ---- ----- -----<br>--- -------- - ------ ---- -- ----- ---- --- --- -----------<br>-- -------,318745.1299999375,318739.05500001274,318277.805,318281.39499993995,318294.466,318760.989,,23,as
screen,html.Screen,1_3_1_0_1_24,2021-04-19T01:40:16.120Z,,,,,,,,,,,,,,,,2,,,,,,,,,,,,,,393.5260000601993,,response,,,,1,F,,,,,,Space,keypress(Space),,,,instrumental,,,,"--- ---- ------ --- ------- ---------- ------- ----------<br>--- --------- --- ----------- ------- ----- ------- ---<br>--------- ---- -- --- ---- -- --------- -- ""two -------<br>-- --------- ------ --- ----- ------ ---- --- --------- --<br>------ - ---- -- --- ----------- ------- ---- ----- -----<br>--- -------- - ------ ---- -- ----- ---- --- --- -----------<br>-- -------",319160.5499999132,319154.5150000602,318744.328,318746.1399999447,318760.989,319177.498,,24,"""two"
screen,html.Screen,1_3_1_0_1_25,2021-04-19T01:40:16.625Z,,,,,,,,,,,,,,,,2,,,,,,,,,,,,,,481.9770001095021,,response,,,,1,F,,,,,,Space,keypress(Space),,,,instrumental,,,,--- ---- ------ --- ------- ---------- ------- ----------<br>--- --------- --- ----------- ------- ----- ------- ---<br>--------- ---- -- --- ---- -- --------- -- ---- patches<br>-- --------- ------ --- ----- ------ ---- --- --------- --<br>------ - ---- -- --- ----------- ------- ---- ----- -----<br>--- -------- - ------ ---- -- ----- ---- --- --- -----------<br>-- -------,319665.71999993175,319659.4750001095,319160.837,319162.13999991305,319177.498,319677.341,,25,patches
screen,html.Screen,1_3_1_0_1_26,2021-04-19T01:40:17.150Z,,,,,,,,,,,,,,,,2,,,,,,,,,,,,,,506.8839999753982,,response,,,,1,F,,,,,,Space,keypress(Space),,,,instrumental,,,,--- ---- ------ --- ------- ---------- ------- ----------<br>--- --------- --- ----------- ------- ----- ------- ---<br>--------- ---- -- --- ---- -- --------- -- ---- -------<br>of --------- ------ --- ----- ------ ---- --- --------- --<br>------ - ---- -- --- ----------- ------- ---- ----- -----<br>--- -------- - ------ ---- -- ----- ---- --- --- -----------<br>-- -------,320190.88999996893,320184.2249999754,319660.68,319666.8050000444,319677.341,320193.826,,26,of
screen,html.Screen,1_3_1_0_1_27,2021-04-19T01:40:17.648Z,,,,,,,,,,,,,,,,2,,,,,,,,,,,,,,492.3889999942621,,response,,,,1,F,,,,,,Space,keypress(Space),,,,instrumental,,,,--- ---- ------ --- ------- ---------- ------- ----------<br>--- --------- --- ----------- ------- ----- ------- ---<br>--------- ---- -- --- ---- -- --------- -- ---- -------<br>-- intensely ------ --- ----- ------ ---- --- --------- --<br>------ - ---- -- --- ----------- ------- ---- ----- -----<br>--- -------- - ------ ---- -- ----- ---- --- --- -----------<br>-- -------,320688.8550000731,320686.21499999426,320177.165,320191.2599999923,320193.826,320693.657,,27,intensely
screen,html.Screen,1_3_1_0_1_28,2021-04-19T01:40:18.012Z,,,,,,,,,,,,,,,,2,,,,,,,,,,,,,,353.5030000746483,,response,,,,1,F,,,,,,Space,keypress(Space),,,,instrumental,,,,--- ---- ------ --- ------- ---------- ------- ----------<br>--- --------- --- ----------- ------- ----- ------- ---<br>--------- ---- -- --- ---- -- --------- -- ---- -------<br>-- --------- bright --- ----- ------ ---- --- --------- --<br>------ - ---- -- --- ----------- ------- ---- ----- -----<br>--- -------- - ------ ---- -- ----- ---- --- --- -----------<br>-- -------,321052.3000000976,321047.16000007465,320676.996,320689.42499998957,320693.657,321060.216,,28,bright
screen,html.Screen,1_3_1_0_1_29,2021-04-19T01:40:18.566Z,,,,,,,,,,,,,,,,2,,,,,,,,,,,,,,538.8290000390261,,response,,,,1,F,,,,,,Space,keypress(Space),,,,instrumental,,,,--- ---- ------ --- ------- ---------- ------- ----------<br>--- --------- --- ----------- ------- ----- ------- ---<br>--------- ---- -- --- ---- -- --------- -- ---- -------<br>-- --------- ------ and ----- ------ ---- --- --------- --<br>------ - ---- -- --- ----------- ------- ---- ----- -----<br>--- -------- - ------ ---- -- ----- ---- --- --- -----------<br>-- -------,321606.36000009254,321599.04500003904,321043.555,321053.34000010043,321060.216,321610.015,,29,and
screen,html.Screen,1_3_1_0_1_30,2021-04-19T01:40:18.982Z,,,,,,,,,,,,,,,,2,,,,,,,,,,,,,,405.2049999429146,,response,,,,1,F,,,,,,Space,keypress(Space),,,,instrumental,,,,--- ---- ------ --- ------- ---------- ------- ----------<br>--- --------- --- ----------- ------- ----- ------- ---<br>--------- ---- -- --- ---- -- --------- -- ---- -------<br>-- --------- ------ --- white ------ ---- --- --------- --<br>------ - ---- -- --- ----------- ------- ---- ----- -----<br>--- -------- - ------ ---- -- ----- ---- --- --- -----------<br>-- -------,322022.2450001165,322015.2199999429,321593.354,321607.4649998918,321610.015,322026.538,,30,white
screen,html.Screen,1_3_1_0_1_31,2021-04-19T01:40:19.524Z,,,,,,,,,,,,,,,,2,,,,,,,,,,,,,,534.9670001069899,,response,,,,1,F,,,,,,Space,keypress(Space),,,,instrumental,,,,"--- ---- ------ --- ------- ---------- ------- ----------<br>--- --------- --- ----------- ------- ----- ------- ---<br>--------- ---- -- --- ---- -- --------- -- ---- -------<br>-- --------- ------ --- ----- light"" ---- --- --------- --<br>------ - ---- -- --- ----------- ------- ---- ----- -----<br>--- -------- - ------ ---- -- ----- ---- --- --- -----------<br>-- -------",322564.2850000877,322561.505000107,322009.877,322023.5250000842,322026.538,322576.35,,31,"light"""
screen,html.Screen,1_3_1_0_1_32,2021-04-19T01:40:20.199Z,,,,,,,,,,,,,,,,2,,,,,,,,,,,,,,655.174999951967,,response,,,,1,F,,,,,,Space,keypress(Space),,,,instrumental,,,,--- ---- ------ --- ------- ---------- ------- ----------<br>--- --------- --- ----------- ------- ----- ------- ---<br>--------- ---- -- --- ---- -- --------- -- ---- -------<br>-- --------- ------ --- ----- ------ over --- --------- --<br>------ - ---- -- --- ----------- ------- ---- ----- -----<br>--- -------- - ------ ---- -- ----- ---- --- --- -----------<br>-- -------,323239.80499990284,323231.52499995194,322559.689,322564.77999989875,322576.35,323242.797,,32,over
screen,html.Screen,1_3_1_0_1_33,2021-04-19T01:40:20.610Z,,,,,,,,,,,,,,,,2,,,,,,,,,,,,,,402.8180000449065,,response,,,,1,F,,,,,,Space,keypress(Space),,,,instrumental,,,,--- ---- ------ --- ------- ---------- ------- ----------<br>--- --------- --- ----------- ------- ----- ------- ---<br>--------- ---- -- --- ---- -- --------- -- ---- -------<br>-- --------- ------ --- ----- ------ ---- the --------- --<br>------ - ---- -- --- ----------- ------- ---- ----- -----<br>--- -------- - ------ ---- -- ----- ---- --- --- -----------<br>-- -------,323650.55499994196,323645.6150000449,323226.136,323240.0750000961,323242.797,323659.331,,33,the
screen,html.Screen,1_3_1_0_1_34,2021-04-19T01:40:21.020Z,,,,,,,,,,,,,,,,2,,,,,,,,,,,,,,394.4439999202732,,response,,,,1,F,,,,,,Space,keypress(Space),,,,instrumental,,,,--- ---- ------ --- ------- ---------- ------- ----------<br>--- --------- --- ----------- ------- ----- ------- ---<br>--------- ---- -- --- ---- -- --------- -- ---- -------<br>-- --------- ------ --- ----- ------ ---- --- sunspots. --<br>------ - ---- -- --- ----------- ------- ---- ----- -----<br>--- -------- - ------ ---- -- ----- ---- --- --- -----------<br>-- -------,324060.19000010565,324053.7749999203,323642.67,323651.3050000649,323659.331,324075.864,,34,sunspots.
screen,html.Screen,1_3_1_0_1_35,2021-04-19T01:40:21.523Z,,,,,,,,,,,,,,,,2,,,,,,,,,,,,,,481.4859999009059,,response,,,,1,F,,,,,,Space,keypress(Space),,,,instrumental,,,,--- ---- ------ --- ------- ---------- ------- ----------<br>--- --------- --- ----------- ------- ----- ------- ---<br>--------- ---- -- --- ---- -- --------- -- ---- -------<br>-- --------- ------ --- ----- ------ ---- --- --------- He<br>------ - ---- -- --- ----------- ------- ---- ----- -----<br>--- -------- - ------ ---- -- ----- ---- --- --- -----------<br>-- -------,324563.68999998085,324557.3499999009,324059.203,324061.83500005864,324075.864,324575.692,,35,He
screen,html.Screen,1_3_1_0_1_36,2021-04-19T01:40:21.965Z,,,,,,,,,,,,,,,,2,,,,,,,,,,,,,,423.162999896158,,response,,,,1,F,,,,,,Space,keypress(Space),,,,instrumental,,,,--- ---- ------ --- ------- ---------- ------- ----------<br>--- --------- --- ----------- ------- ----- ------- ---<br>--------- ---- -- --- ---- -- --------- -- ---- -------<br>-- --------- ------ --- ----- ------ ---- --- --------- --<br>jotted - ---- -- --- ----------- ------- ---- ----- -----<br>--- -------- - ------ ---- -- ----- ---- --- --- -----------<br>-- -------,325005.63500006683,324998.85499989614,324559.031,324564.03000000864,324575.692,325025.528,,36,jotted
