sender,sender_type,sender_id,timestamp,meta,,Blues,Classical,Country,Dance,Electronic,Folk,Gospel,Hip-Hop,Jazz,Latin,Musical/Film,New-age,Pop,Provo_ID,R&B,Rap,Reggae,Religious,Rock,Soul,Swing,Traditional,age,artist_name,correct,correctResponse,distraction,duration,education,ended_on,familiarity,gender,headphone_check_performance,item,list,music_frequency,offensiveness,pleasantness,position_correct,preference,response,response_action,snippet_file,song_name,song_rating,sound,stimulus_1,stimulus_2,stimulus_3,text,time_commit,time_end,time_render,time_run,time_show,time_switch,url,word,word_ID
Introduction,html.Screen,0_0,2021-04-17T16:10:56.841Z,"{""labjs_version"":""20.2.2"",""labjs_build"":{""flavor"":""production"",""commit"":""a25486e0c714a0ae2ce03ff94b7bb6896854dcfa""},""location"":""https://run.pavlovia.org/mvasilev/music_e/"",""userAgent"":""Mozilla/5.0 (Windows NT 10.0; Win64; x64) AppleWebKit/537.36 (KHTML, like Gecko) Chrome/89.0.4389.128 Safari/537.36"",""platform"":""Win32"",""language"":""en-GB"",""locale"":""en-GB"",""timeZone"":""Europe/London"",""timezoneOffset"":-60,""screen_width"":1280,""screen_height"":720,""scroll_width"":1280,""scroll_height"":562,""window_innerWidth"":1280,""window_innerHeight"":610,""devicePixelRatio"":1.5}",,,,,,,,,,,,,,,,,,,,,,,,,,,,,5778.676999993651,,response,,,,,,,,,,,continue,click button,,,,,,,,,40202.60000001872,40196.67999999365,34368.027,34376.17499998305,34418.003,40217.338,{},,
Volume calibration,html.Screen,0_1,2021-04-17T16:11:28.786Z,,,,,,,,,,,,,,,,,,,,,,,,,,,,,,31924.676999990348,,response,,,,,,,,,,,continue,click button,,,,,,,,,72147.28999999352,72142.01499999035,40183.972,40203.504999983124,40217.338,72146.45,,,
Task instructions,html.Screen,0_2,2021-04-17T16:11:57.370Z,,,,,,,,,,,,,,,,,,,,,,,,,,,,,,28582.750000001586,,response,,,,,,,,,,,continue,click button,,,,,,,,,100730.91500002192,100729.20000000158,72129.921,72147.71500002826,72146.45,100742.741,,,
Sounds,html.Screen,0_3_0_0,2021-04-17T16:12:01.620Z,,,,,,,,,,,,,,,,,,,,,,,,,,,,,,4249.490000000005,,timeout,,,,,,,,,3,,,,,,,,I,O,S,,104980.63000000548,104975.722,100726.4,100731.31499998271,100742.741,104992.231,,,
Judgement,html.Screen,0_3_0_1,2021-04-17T16:12:04.156Z,,,,,,,,,,,,,,,,,,,,,,,,,,,true,3,,2524.1889999999257,,response,,,,,,,,,3,,3,click #choice-3,,,,,I,O,S,,107517.38000003388,107516.41999999993,104975.722,104980.92000000179,104992.231,107525.255,,,
Trial,flow.Sequence,0_3_0,2021-04-17T16:12:04.157Z,,,,,,,,,,,,,,,,,,,,,,,,,,,,,,6773.678999999931,,completion,,,,,,,,,3,,,,,,,,I,O,S,,107517.760000017,107516.41999999993,100726.4,100731.22000001604,100742.741,107525.255,,,
Sounds,html.Screen,0_3_1_0,2021-04-17T16:12:08.398Z,,,,,,,,,,,,,,,,,,,,,,,,,,,,,,4249.792999999991,,timeout,,,,,,,,,3,,,,,,,,O,I,S,,111759.53500001924,111758.126,107508.601,107517.92499999283,107525.255,111775.048,,,
Judgement,html.Screen,0_3_1_1,2021-04-17T16:12:09.082Z,,,,,,,,,,,,,,,,,,,,,,,,,,,true,3,,665.8770000026125,,response,,,,,,,,,3,,3,click #choice-3,,,,,O,I,S,,112443.12499999069,112440.92500000261,111758.126,111759.81499999762,111775.048,112457.895,,,
Trial,flow.Sequence,0_3_1,2021-04-17T16:12:09.082Z,,,,,,,,,,,,,,,,,,,,,,,,,,,,,,4915.670000002603,,completion,,,,,,,,,3,,,,,,,,O,I,S,,112443.57000000309,112440.92500000261,107508.601,107517.87999999942,107525.255,112457.895,,,
Sounds,html.Screen,0_3_2_0,2021-04-17T16:12:13.331Z,,,,,,,,,,,,,,,,,,,,,,,,,,,,,,4249.471999999994,,timeout,,,,,,,,,1,,,,,,,,S,I,O,,116692.15000001714,116690.7,112441.314,112443.815000006,112457.895,116707.367,,,
Judgement,html.Screen,0_3_2_1,2021-04-17T16:12:14.278Z,,,,,,,,,,,,,,,,,,,,,,,,,,,true,1,,930.5180000328401,,response,,,,,,,,,1,,1,click #choice-1,,,,,S,I,O,,117639.51000000816,117637.88500003284,116690.7,116692.41499999771,116707.367,117640.543,,,
Trial,flow.Sequence,0_3_2,2021-04-17T16:12:14.279Z,,,,,,,,,,,,,,,,,,,,,,,,,,,,,,5179.990000032834,,completion,,,,,,,,,1,,,,,,,,S,I,O,,117639.84999997774,117637.88500003284,112441.314,112443.74499999685,112457.895,117640.543,,,
Sounds,html.Screen,0_3_3_0,2021-04-17T16:12:18.513Z,,,,,,,,,,,,,,,,,,,,,,,,,,,,,,4249.478999999992,,timeout,,,,,,,,,2,,,,,,,,O,S,I,,121874.24999999348,121873.421,117624.233,117640.07999998285,117640.543,121890.022,,,
Judgement,html.Screen,0_3_3_1,2021-04-17T16:12:19.232Z,,,,,,,,,,,,,,,,,,,,,,,,,,,true,2,,702.728000010713,,response,,,,,,,,,2,,2,click #choice-2,,,,,O,S,I,,122593.7050000066,122592.75000001071,121873.421,121874.45000000298,121890.022,122606.627,,,
Trial,flow.Sequence,0_3_3,2021-04-17T16:12:19.233Z,,,,,,,,,,,,,,,,,,,,,,,,,,,,,,4952.207000010705,,completion,,,,,,,,,2,,,,,,,,O,S,I,,122593.9200000139,122592.75000001071,117624.233,117640.00499999383,117640.543,122606.627,,,
Sounds,html.Screen,0_3_4_0,2021-04-17T16:12:23.480Z,,,,,,,,,,,,,,,,,,,,,,,,,,,,,,4249.576000000001,,timeout,,,,,,,,,1,,,,,,,,S,O,I,,126840.97999997903,126839.674,122589.927,122594.06500001205,122606.627,126856.203,,,
Judgement,html.Screen,0_3_4_1,2021-04-17T16:12:24.209Z,,,,,,,,,,,,,,,,,,,,,,,,,,,true,1,,712.8820000246487,,response,,,,,,,,,1,,1,click #choice-1,,,,,S,O,I,,127570.46499999706,127569.08500002464,126839.674,126841.24999999767,126856.203,127572.639,,,
Trial,flow.Sequence,0_3_4,2021-04-17T16:12:24.209Z,,,,,,,,,,,,,,,,,,,,,,,,,,,,,,4962.45800002465,,completion,,,,,,,,,1,,,,,,,,S,O,I,,127570.79999998678,127569.08500002464,122589.927,122594.02499999851,122606.627,127572.639,,,
Sounds,html.Screen,0_3_5_0,2021-04-17T16:12:28.446Z,,,,,,,,,,,,,,,,,,,,,,,,,,,,,,4249.475000000006,,timeout,,,,,,,,,2,,,,,,,,I,S,O,,131807.32500000158,131805.619,127556.051,127571.02500001201,127572.639,131822.114,,,
Judgement,html.Screen,0_3_5_1,2021-04-17T16:12:29.035Z,,,,,,,,,,,,,,,,,,,,,,,,,,,true,2,,572.5309999930323,,response,,,,,,,,,2,,2,click #choice-2,,,,,I,S,O,,132396.17500000168,132394.64499999303,131805.619,131807.63500003377,131822.114,132405.362,,,
Trial,flow.Sequence,0_3_5,2021-04-17T16:12:29.035Z,,,,,,,,,,,,,,,,,,,,,,,,,,,,,,4822.005999993038,,completion,,,,,,,,,2,,,,,,,,I,S,O,,132396.52000000933,132394.64499999303,127556.051,127570.950000023,127572.639,132405.362,,,
Task,flow.Loop,0_3,2021-04-17T16:12:29.042Z,,,,,,,,,,,,,,,,,,,,,,,,,,,,,,31651.90399999304,,completion,,,1,,,,,,,,,,,,,,,,,,132403.255000012,132394.64499999303,100726.4,100731.13500000909,100742.741,132405.362,,,
Trap,html.Screen,0_4,2021-04-17T16:12:29.046Z,,,,,,,,,,,,,,,,,,,,,,,,,,,,,,NaN,,skipped,,,,,,,,,,,,,,,,,,,,,132407.36000001198,132394.64499999303,,132407.07499999553,,132405.362,,,
Thanks,html.Screen,0_5,2021-04-17T16:12:33.490Z,,,,,,,,,,,,,,,,,,,,,,,,,,,,,,4444.1029999775055,,response,,,,,,,,,,,continue,click button,,,,,,,,,136851.1399999843,136849.4649999775,132388.646,132407.5699999812,132405.362,143370.548,,,
Headphone screening,flow.Sequence,0,2021-04-17T16:12:33.490Z,,,,,,,,,,,,,,,,,,,,,,,,,,,,,,102431.4619999775,,completion,,,,,,,,,,,,,,,,,,,,,136851.47500003222,136849.4649999775,34368.027,34376.12500000978,34418.003,143370.548,,,
Instructions,html.Page,1_0,2021-04-17T16:13:03.387Z,,,,,,,,,,,,,,,,,,,,,,,,,,,,,,23376.681999979017,,form submission,,,,,,,,,,,,,,,,,,,,,166747.84500000533,166747.22999997903,143354.436,143385.33499999903,143370.548,166750.847,,,
Holding screen,html.Screen,1_1_0_0,2021-04-17T16:13:13.373Z,,,,,,,,,,,,,,,,,,,,,,,,,,,,,,9998.690000000002,,timeout,,,,,,,,,,,,,,,,,,,,,176734.47000002488,176733.168,166734.327,166748.17500001518,166750.847,176749.537,,,
screen,html.Screen,1_1_0_1_0,2021-04-17T16:13:15.968Z,,,,,,,,,,,,,,,,53,,,,,,,,,,,,,,2575.7980000013486,,response,,,,99,,,,,,,Space,keypress(Space),,,,,,,,When -- ----- -- ------ - ------- --- ----------<br>------------- ------ ------ ---- ---- ------- ----- -- ----<br>-------- ------- -- ---------- --- - --- ----- ----- ----<br>---- --- --- ----- --- ---- ---- ------- ----- ---- -------<br>--- --- -- ----- -- --- ---- -- --- ---- -- ------ ------<br>--- ----- -- ----,179328.99000000907,179325.33500000136,176733.168,176734.81500003254,176749.537,179332.535,,0,When
screen,html.Screen,1_1_0_1_1,2021-04-17T16:13:16.661Z,,,,,,,,,,,,,,,,53,,,,,,,,,,,,,,688.9800000294636,,response,,,,99,,,,,,,Space,keypress(Space),,,,,,,,---- it ----- -- ------ - ------- --- ----------<br>------------- ------ ------ ---- ---- ------- ----- -- ----<br>-------- ------- -- ---------- --- - --- ----- ----- ----<br>---- --- --- ----- --- ---- ---- ------- ----- ---- -------<br>--- --- -- ----- -- --- ---- -- --- ---- -- ------ ------<br>--- ----- -- ----,180022.34500000486,180021.51500002947,179315.897,179329.22000001417,179332.535,180032.777,,1,it
screen,html.Screen,1_1_0_1_2,2021-04-17T16:13:17.071Z,,,,,,,,,,,,,,,,53,,,,,,,,,,,,,,398.6180000214372,,response,,,,99,,,,,,,Space,keypress(Space),,,,,,,,---- -- comes -- ------ - ------- --- ----------<br>------------- ------ ------ ---- ---- ------- ----- -- ----<br>-------- ------- -- ---------- --- - --- ----- ----- ----<br>---- --- --- ----- --- ---- ---- ------- ----- ---- -------<br>--- --- -- ----- -- --- ---- -- --- ---- -- ------ ------<br>--- ----- -- ----,180432.444999984,180431.39500002144,180015.828,180022.51999999862,180032.777,180449.124,,2,comes
screen,html.Screen,1_1_0_1_3,2021-04-17T16:13:17.694Z,,,,,,,,,,,,,,,,53,,,,,,,,,,,,,,604.7710000191,,response,,,,99,,,,,,,Space,keypress(Space),,,,,,,,---- -- ----- to ------ - ------- --- ----------<br>------------- ------ ------ ---- ---- ------- ----- -- ----<br>-------- ------- -- ---------- --- - --- ----- ----- ----<br>---- --- --- ----- --- ---- ---- ------- ----- ---- -------<br>--- --- -- ----- -- --- ---- -- --- ---- -- ------ ------<br>--- ----- -- ----,181054.94499998167,181053.8950000191,180432.734,180432.76500003412,180449.124,181065.721,,3,to
screen,html.Screen,1_1_0_1_4,2021-04-17T16:13:18.263Z,,,,,,,,,,,,,,,,53,,,,,,,,,,,,,,557.4140000016487,,response,,,,99,,,,,,,Space,keypress(Space),,,,,,,,---- -- ----- -- having - ------- --- ----------<br>------------- ------ ------ ---- ---- ------- ----- -- ----<br>-------- ------- -- ---------- --- - --- ----- ----- ----<br>---- --- --- ----- --- ---- ---- ------- ----- ---- -------<br>--- --- -- ----- -- --- ---- -- --- ---- -- ------ ------<br>--- ----- -- ----,181624.14500000887,181623.13500000164,181048.979,181055.14499999117,181065.721,181632.707,,4,having
screen,html.Screen,1_1_0_1_5,2021-04-17T16:13:18.647Z,,,,,,,,,,,,,,,,53,,,,,,,,,,,,,,374.18799999862676,,response,,,,99,,,,,,,Space,keypress(Space),,,,,,,,---- -- ----- -- ------ a ------- --- ----------<br>------------- ------ ------ ---- ---- ------- ----- -- ----<br>-------- ------- -- ---------- --- - --- ----- ----- ----<br>---- --- --- ----- --- ---- ---- ------- ----- ---- -------<br>--- --- -- ----- -- --- ---- -- --- ---- -- ------ ------<br>--- ----- -- ----,182007.6949999784,182006.89499999862,181615.892,181624.33500000043,181632.707,182015.555,,5,a
screen,html.Screen,1_1_0_1_6,2021-04-17T16:13:19.052Z,,,,,,,,,,,,,,,,53,,,,,,,,,,,,,,396.6949999939534,,response,,,,99,,,,,,,Space,keypress(Space),,,,,,,,---- -- ----- -- ------ - lasting --- ----------<br>------------- ------ ------ ---- ---- ------- ----- -- ----<br>-------- ------- -- ---------- --- - --- ----- ----- ----<br>---- --- --- ----- --- ---- ---- ------- ----- ---- -------<br>--- --- -- ----- -- --- ---- -- --- ---- -- ------ ------<br>--- ----- -- ----,182413.04499999387,182412.24999999395,181999.059,182007.98500003293,182015.555,182415.542,,6,lasting
screen,html.Screen,1_1_0_1_7,2021-04-17T16:13:19.402Z,,,,,,,,,,,,,,,,53,,,,,,,,,,,,,,346.3030000300205,,response,,,,99,,,,,,,Space,keypress(Space),,,,,,,,---- -- ----- -- ------ - ------- and ----------<br>------------- ------ ------ ---- ---- ------- ----- -- ----<br>-------- ------- -- ---------- --- - --- ----- ----- ----<br>---- --- --- ----- --- ---- ---- ------- ----- ---- -------<br>--- --- -- ----- -- --- ---- -- --- ---- -- ------ ------<br>--- ----- -- ----,182762.8300000215,182761.84500003,182398.841,182413.23000000557,182415.542,182765.47,,7,and
screen,html.Screen,1_1_0_1_8,2021-04-17T16:13:19.939Z,,,,,,,,,,,,,,,,53,,,,,,,,,,,,,,533.8649999887857,,response,,,,99,,,,,,,Space,keypress(Space),,,,,,,,---- -- ----- -- ------ - ------- --- fulfilling<br>------------- ------ ------ ---- ---- ------- ----- -- ----<br>-------- ------- -- ---------- --- - --- ----- ----- ----<br>---- --- --- ----- --- ---- ---- ------- ----- ---- -------<br>--- --- -- ----- -- --- ---- -- --- ---- -- ------ ------<br>--- ----- -- ----,183300.1149999909,183299.3349999888,182748.889,182763.02000001306,182765.47,183315.494,,8,fulfilling
screen,html.Screen,1_1_0_1_9,2021-04-17T16:13:20.378Z,,,,,,,,,,,,,,,,53,,,,,,,,,,,,,,422.6510000102571,,response,,,,99,,,,,,,Space,keypress(Space),,,,,,,,"---- -- ----- -- ------ - ------- --- ----------<br>relationship, ------ ------ ---- ---- ------- ----- -- ----<br>-------- ------- -- ---------- --- - --- ----- ----- ----<br>---- --- --- ----- --- ---- ---- ------- ----- ---- -------<br>--- --- -- ----- -- --- ---- -- --- ---- -- ------ ------<br>--- ----- -- ----",183739.104999986,183738.14500001026,183298.968,183300.3000000026,183315.494,183748.953,,9,"relationship,"
screen,html.Screen,1_1_0_1_10,2021-04-17T16:13:20.777Z,,,,,,,,,,,,,,,,53,,,,,,,,,,,,,,388.73200002333033,,response,,,,99,,,,,,,Space,keypress(Space),,,,,,,,---- -- ----- -- ------ - ------- --- ----------<br>------------- common ------ ---- ---- ------- ----- -- ----<br>-------- ------- -- ---------- --- - --- ----- ----- ----<br>---- --- --- ----- --- ---- ---- ------- ----- ---- -------<br>--- --- -- ----- -- --- ---- -- --- ---- -- ------ ------<br>--- ----- -- ----,184138.48000002326,184137.68500002334,183731.949,183739.31000003358,183748.953,184148.603,,10,common
screen,html.Screen,1_1_0_1_11,2021-04-17T16:13:21.320Z,,,,,,,,,,,,,,,,53,,,,,,,,,,,,,,531.192000003648,,response,,,,99,,,,,,,Space,keypress(Space),,,,,,,,---- -- ----- -- ------ - ------- --- ----------<br>------------- ------ wisdom ---- ---- ------- ----- -- ----<br>-------- ------- -- ---------- --- - --- ----- ----- ----<br>---- --- --- ----- --- ---- ---- ------- ----- ---- -------<br>--- --- -- ----- -- --- ---- -- --- ---- -- ------ ------<br>--- ----- -- ----,184680.59499998344,184679.79500000365,184132.244,184138.60499998555,184148.603,184702.009,,11,wisdom
screen,html.Screen,1_1_0_1_12,2021-04-17T16:13:21.872Z,,,,,,,,,,,,,,,,53,,,,,,,,,,,,,,529.5659999834315,,response,,,,99,,,,,,,Space,keypress(Space),,,,,,,,---- -- ----- -- ------ - ------- --- ----------<br>------------- ------ ------ says ---- ------- ----- -- ----<br>-------- ------- -- ---------- --- - --- ----- ----- ----<br>---- --- --- ----- --- ---- ---- ------- ----- ---- -------<br>--- --- -- ----- -- --- ---- -- --- ---- -- ------ ------<br>--- ----- -- ----,185232.64499998186,185231.57499998342,184665.347,184680.80500001088,184702.009,185248.865,,12,says
screen,html.Screen,1_1_0_1_13,2021-04-17T16:13:22.322Z,,,,,,,,,,,,,,,,53,,,,,,,,,,,,,,433.73999997996725,,response,,,,99,,,,,,,Space,keypress(Space),,,,,,,,---- -- ----- -- ------ - ------- --- ----------<br>------------- ------ ------ ---- that ------- ----- -- ----<br>-------- ------- -- ---------- --- - --- ----- ----- ----<br>---- --- --- ----- --- ---- ---- ------- ----- ---- -------<br>--- --- -- ----- -- --- ---- -- --- ---- -- ------ ------<br>--- ----- -- ----,185683.46999998903,185682.60499997996,185231.808,185232.85000002943,185248.865,185698.596,,13,that
screen,html.Screen,1_1_0_1_14,2021-04-17T16:13:22.763Z,,,,,,,,,,,,,,,,53,,,,,,,,,,,,,,424.8439999957627,,response,,,,99,,,,,,,Space,keypress(Space),,,,,,,,---- -- ----- -- ------ - ------- --- ----------<br>------------- ------ ------ ---- ---- feeling ----- -- ----<br>-------- ------- -- ---------- --- - --- ----- ----- ----<br>---- --- --- ----- --- ---- ---- ------- ----- ---- -------<br>--- --- -- ----- -- --- ---- -- --- ---- -- ------ ------<br>--- ----- -- ----,186124.24999999348,186123.43999999575,185682.152,185683.69500001427,185698.596,186131.822,,14,feeling
screen,html.Screen,1_1_0_1_15,2021-04-17T16:13:23.163Z,,,,,,,,,,,,,,,,53,,,,,,,,,,,,,,390.8179999810527,,response,,,,99,,,,,,,Space,keypress(Space),,,,,,,,---- -- ----- -- ------ - ------- --- ----------<br>------------- ------ ------ ---- ---- ------- close -- ----<br>-------- ------- -- ---------- --- - --- ----- ----- ----<br>---- --- --- ----- --- ---- ---- ------- ----- ---- -------<br>--- --- -- ----- -- --- ---- -- --- ---- -- ------ ------<br>--- ----- -- ----,186523.7850000267,186522.63999998104,186115.217,186124.43500000518,186131.822,186531.64,,15,close
screen,html.Screen,1_1_0_1_16,2021-04-17T16:13:23.533Z,,,,,,,,,,,,,,,,53,,,,,,,,,,,,,,361.48000002244953,,response,,,,99,,,,,,,Space,keypress(Space),,,,,,,,---- -- ----- -- ------ - ------- --- ----------<br>------------- ------ ------ ---- ---- ------- ----- to ----<br>-------- ------- -- ---------- --- - --- ----- ----- ----<br>---- --- --- ----- --- ---- ---- ------- ----- ---- -------<br>--- --- -- ----- -- --- ---- -- --- ---- -- ------ ------<br>--- ----- -- ----,186894.19999998063,186893.12000002246,186515.337,186523.97999999812,186531.64,186898.219,,16,to
screen,html.Screen,1_1_0_1_17,2021-04-17T16:13:23.927Z,,,,,,,,,,,,,,,,53,,,,,,,,,,,,,,389.25600001917337,,response,,,,99,,,,,,,Space,keypress(Space),,,,,,,,---- -- ----- -- ------ - ------- --- ----------<br>------------- ------ ------ ---- ---- ------- ----- -- your<br>-------- ------- -- ---------- --- - --- ----- ----- ----<br>---- --- --- ----- --- ---- ---- ------- ----- ---- -------<br>--- --- -- ----- -- --- ---- -- --- ---- -- ------ ------<br>--- ----- -- ----,187288.39000000153,187287.47500001919,186881.649,186894.4650000194,186898.219,187298.438,,17,your
screen,html.Screen,1_1_0_1_18,2021-04-17T16:13:24.353Z,,,,,,,,,,,,,,,,53,,,,,,,,,,,,,,414.7820000342035,,response,,,,99,,,,,,,Space,keypress(Space),,,,,,,,---- -- ----- -- ------ - ------- --- ----------<br>------------- ------ ------ ---- ---- ------- ----- -- ----<br>romantic ------- -- ---------- --- - --- ----- ----- ----<br>---- --- --- ----- --- ---- ---- ------- ----- ---- -------<br>--- --- -- ----- -- --- ---- -- --- ---- -- ------ ------<br>--- ----- -- ----,187714.09999998286,187713.2200000342,187281.596,187288.62000000663,187298.438,187748.324,,18,romantic
screen,html.Screen,1_1_0_1_19,2021-04-17T16:13:24.733Z,,,,,,,,,,,,,,,,53,,,,,,,,,,,,,,344.64100001801853,,response,,,,99,,,,,,,Space,keypress(Space),,,,,,,,---- -- ----- -- ------ - ------- --- ----------<br>------------- ------ ------ ---- ---- ------- ----- -- ----<br>-------- partner -- ---------- --- - --- ----- ----- ----<br>---- --- --- ----- --- ---- ---- ------- ----- ---- -------<br>--- --- -- ----- -- --- ---- -- --- ---- -- ------ ------<br>--- ----- -- ----,188093.92499999376,188092.965000018,187731.727,187714.32000002824,187748.324,188098.06,,19,partner
screen,html.Screen,1_1_0_1_20,2021-04-17T16:13:25.088Z,,,,,,,,,,,,,,,,53,,,,,,,,,,,,,,350.16000002023065,,response,,,,99,,,,,,,Space,keypress(Space),,,,,,,,---- -- ----- -- ------ - ------- --- ----------<br>------------- ------ ------ ---- ---- ------- ----- -- ----<br>-------- ------- is ---------- --- - --- ----- ----- ----<br>---- --- --- ----- --- ---- ---- ------- ----- ---- -------<br>--- --- -- ----- -- --- ---- -- --- ---- -- ------ ------<br>--- ----- -- ----,188449.1150000249,188448.22000002023,188081.509,188094.150000019,188098.06,188466.23,,20,is
screen,html.Screen,1_1_0_1_21,2021-04-17T16:13:25.487Z,,,,,,,,,,,,,,,,53,,,,,,,,,,,,,,380.65999998615007,,response,,,,99,,,,,,,Space,keypress(Space),,,,,,,,---- -- ----- -- ------ - ------- --- ----------<br>------------- ------ ------ ---- ---- ------- ----- -- ----<br>-------- ------- -- paramount. --- - --- ----- ----- ----<br>---- --- --- ----- --- ---- ---- ------- ----- ---- -------<br>--- --- -- ----- -- --- ---- -- --- ---- -- ------ ------<br>--- ----- -- ----,188847.7450000355,188846.88999998616,188448.162,188449.4999999879,188466.23,188864.846,,21,paramount.
screen,html.Screen,1_1_0_1_22,2021-04-17T16:13:26.119Z,,,,,,,,,,,,,,,,53,,,,,,,,,,,,,,614.5390000132902,,response,,,,99,,,,,,,Space,keypress(Space),,,,,,,,---- -- ----- -- ------ - ------- --- ----------<br>------------- ------ ------ ---- ---- ------- ----- -- ----<br>-------- ------- -- ---------- But - --- ----- ----- ----<br>---- --- --- ----- --- ---- ---- ------- ----- ---- -------<br>--- --- -- ----- -- --- ---- -- --- ---- -- ------ ------<br>--- ----- -- ----,189480.2250000066,189479.38500001328,188848.051,188847.97000000253,188864.846,189498.054,,22,But
screen,html.Screen,1_1_0_1_23,2021-04-17T16:13:26.584Z,,,,,,,,,,,,,,,,53,,,,,,,,,,,,,,446.45100002130494,,response,,,,99,,,,,,,Space,keypress(Space),,,,,,,,---- -- ----- -- ------ - ------- --- ----------<br>------------- ------ ------ ---- ---- ------- ----- -- ----<br>-------- ------- -- ---------- --- a --- ----- ----- ----<br>---- --- --- ----- --- ---- ---- ------- ----- ---- -------<br>--- --- -- ----- -- --- ---- -- --- ---- -- ------ ------<br>--- ----- -- ----,189945.44999999925,189944.5050000213,189481.653,189481.780000031,189498.054,189947.866,,23,a
screen,html.Screen,1_1_0_1_24,2021-04-17T16:13:26.934Z,,,,,,,,,,,,,,,,53,,,,,,,,,,,,,,345.8739999936952,,response,,,,99,,,,,,,Space,keypress(Space),,,,,,,,---- -- ----- -- ------ - ------- --- ----------<br>------------- ------ ------ ---- ---- ------- ----- -- ----<br>-------- ------- -- ---------- --- - new ----- ----- ----<br>---- --- --- ----- --- ---- ---- ------- ----- ---- -------<br>--- --- -- ----- -- --- ---- -- --- ---- -- ------ ------<br>--- ----- -- ----,190294.84500002582,190293.7399999937,189931.613,189945.68000000436,189947.866,190297.842,,24,new
screen,html.Screen,1_1_0_1_25,2021-04-17T16:13:27.298Z,,,,,,,,,,,,,,,,53,,,,,,,,,,,,,,360.72800002869917,,response,,,,99,,,,,,,Space,keypress(Space),,,,,,,,---- -- ----- -- ------ - ------- --- ----------<br>------------- ------ ------ ---- ---- ------- ----- -- ----<br>-------- ------- -- ---------- --- - --- study ----- ----<br>---- --- --- ----- --- ---- ---- ------- ----- ---- -------<br>--- --- -- ----- -- --- ---- -- --- ---- -- ------ ------<br>--- ----- -- ----,190659.4749999931,190658.5700000287,190281.288,190295.0299999793,190297.842,190664.396,,25,study
screen,html.Screen,1_1_0_1_26,2021-04-17T16:13:27.834Z,,,,,,,,,,,,,,,,53,,,,,,,,,,,,,,530.2690000172588,,response,,,,99,,,,,,,Space,keypress(Space),,,,,,,,---- -- ----- -- ------ - ------- --- ----------<br>------------- ------ ------ ---- ---- ------- ----- -- ----<br>-------- ------- -- ---------- --- - --- ----- finds ----<br>---- --- --- ----- --- ---- ---- ------- ----- ---- -------<br>--- --- -- ----- -- --- ---- -- --- ---- -- ------ ------<br>--- ----- -- ----,191195.4900000128,191194.66500001727,190647.789,190659.71500001615,190664.396,191197.667,,26,finds
screen,html.Screen,1_1_0_1_27,2021-04-17T16:13:28.154Z,,,,,,,,,,,,,,,,53,,,,,,,,,,,,,,316.2880000312871,,response,,,,99,,,,,,,Space,keypress(Space),,,,,,,,---- -- ----- -- ------ - ------- --- ----------<br>------------- ------ ------ ---- ---- ------- ----- -- ----<br>-------- ------- -- ---------- --- - --- ----- ----- that<br>---- --- --- ----- --- ---- ---- ------- ----- ---- -------<br>--- --- -- ----- -- --- ---- -- --- ---- -- ------ ------<br>--- ----- -- ----,191514.94500000263,191513.95500003127,191181.077,191195.68000000436,191197.667,191531.152,,27,that
screen,html.Screen,1_1_0_1_28,2021-04-17T16:13:28.609Z,,,,,,,,,,,,,,,,53,,,,,,,,,,,,,,437.84799998276867,,response,,,,99,,,,,,,Space,keypress(Space),,,,,,,,---- -- ----- -- ------ - ------- --- ----------<br>------------- ------ ------ ---- ---- ------- ----- -- ----<br>-------- ------- -- ---------- --- - --- ----- ----- ----<br>it's --- --- ----- --- ---- ---- ------- ----- ---- -------<br>--- --- -- ----- -- --- ---- -- --- ---- -- ------ ------<br>--- ----- -- ----,191970.00500001013,191968.99999998277,191514.404,191515.1649999898,191531.152,191980.934,,28,it's
screen,html.Screen,1_1_0_1_29,2021-04-17T16:13:29.727Z,,,,,,,,,,,,,,,,53,,,,,,,,,,,,,,1105.7710000233492,,response,,,,99,,,,,,,Space,keypress(Space),,,,,,,,---- -- ----- -- ------ - ------- --- ----------<br>------------- ------ ------ ---- ---- ------- ----- -- ----<br>-------- ------- -- ---------- --- - --- ----- ----- ----<br>---- not --- ----- --- ---- ---- ------- ----- ---- -------<br>--- --- -- ----- -- --- ---- -- --- ---- -- ------ ------<br>--- ----- -- ----,193087.79499999946,193086.70500002336,191964.67,191970.1950000017,191980.934,193097.491,,29,not
screen,html.Screen,1_1_0_1_30,2021-04-17T16:13:30.180Z,,,,,,,,,,,,,,,,53,,,,,,,,,,,,,,440.44900000924827,,response,,,,99,,,,,,,Space,keypress(Space),,,,,,,,---- -- ----- -- ------ - ------- --- ----------<br>------------- ------ ------ ---- ---- ------- ----- -- ----<br>-------- ------- -- ---------- --- - --- ----- ----- ----<br>---- --- how ----- --- ---- ---- ------- ----- ---- -------<br>--- --- -- ----- -- --- ---- -- --- ---- -- ------ ------<br>--- ----- -- ----,193540.6049999874,193537.94000000926,193080.805,193088.0350000225,193097.491,193547.386,,30,how
screen,html.Screen,1_1_0_1_31,2021-04-17T16:13:30.543Z,,,,,,,,,,,,,,,,53,,,,,,,,,,,,,,355.31400003511226,,response,,,,99,,,,,,,Space,keypress(Space),,,,,,,,---- -- ----- -- ------ - ------- --- ----------<br>------------- ------ ------ ---- ---- ------- ----- -- ----<br>-------- ------- -- ---------- --- - --- ----- ----- ----<br>---- --- --- close --- ---- ---- ------- ----- ---- -------<br>--- --- -- ----- -- --- ---- -- --- ---- -- ------ ------<br>--- ----- -- ----,193904.18499999214,193902.7000000351,193530.72,193540.81500001485,193547.386,193914.071,,31,close
screen,html.Screen,1_1_0_1_32,2021-04-17T16:13:30.845Z,,,,,,,,,,,,,,,,53,,,,,,,,,,,,,,291.0440000188537,,response,,,,99,,,,,,,Space,keypress(Space),,,,,,,,---- -- ----- -- ------ - ------- --- ----------<br>------------- ------ ------ ---- ---- ------- ----- -- ----<br>-------- ------- -- ---------- --- - --- ----- ----- ----<br>---- --- --- ----- you ---- ---- ------- ----- ---- -------<br>--- --- -- ----- -- --- ---- -- --- ---- -- ------ ------<br>--- ----- -- ----,194205.91000001878,194205.11500001885,193897.609,193904.46500002872,193914.071,194214.029,,32,you
screen,html.Screen,1_1_0_1_33,2021-04-17T16:13:31.169Z,,,,,,,,,,,,,,,,53,,,,,,,,,,,,,,315.3560000016296,,response,,,,99,,,,,,,Space,keypress(Space),,,,,,,,---- -- ----- -- ------ - ------- --- ----------<br>------------- ------ ------ ---- ---- ------- ----- -- ----<br>-------- ------- -- ---------- --- - --- ----- ----- ----<br>---- --- --- ----- --- feel ---- ------- ----- ---- -------<br>--- --- -- ----- -- --- ---- -- --- ---- -- ------ ------<br>--- ----- -- ----,194530.19499999937,194529.38500000164,194197.381,194206.0899999924,194214.029,194564.188,,33,feel
screen,html.Screen,1_1_0_1_34,2021-04-17T16:13:31.549Z,,,,,,,,,,,,,,,,53,,,,,,,,,,,,,,344.5919999979378,,response,,,,99,,,,,,,Space,keypress(Space),,,,,,,,---- -- ----- -- ------ - ------- --- ----------<br>------------- ------ ------ ---- ---- ------- ----- -- ----<br>-------- ------- -- ---------- --- - --- ----- ----- ----<br>---- --- --- ----- --- ---- that ------- ----- ---- -------<br>--- --- -- ----- -- --- ---- -- --- ---- -- ------ ------<br>--- ----- -- ----,194909.60499999346,194908.77999999793,194547.407,194530.39500000887,194564.188,194913.834,,34,that
screen,html.Screen,1_1_0_1_35,2021-04-17T16:13:31.922Z,,,,,,,,,,,,,,,,53,,,,,,,,,,,,,,368.73599998120335,,response,,,,99,,,,,,,Space,keypress(Space),,,,,,,,---- -- ----- -- ------ - ------- --- ----------<br>------------- ------ ------ ---- ---- ------- ----- -- ----<br>-------- ------- -- ---------- --- - --- ----- ----- ----<br>---- --- --- ----- --- ---- ---- matters ----- ---- -------<br>--- --- -- ----- -- --- ---- -- --- ---- -- ------ ------<br>--- ----- -- ----,195283.41999999247,195282.5699999812,194897.3,194909.79000000516,194913.834,195297.389,,35,matters
screen,html.Screen,1_1_0_1_36,2021-04-17T16:13:32.222Z,,,,,,,,,,,,,,,,53,,,,,,,,,,,,,,284.68100000402774,,response,,,,99,,,,,,,Space,keypress(Space),,,,,,,,"---- -- ----- -- ------ - ------- --- ----------<br>------------- ------ ------ ---- ---- ------- ----- -- ----<br>-------- ------- -- ---------- --- - --- ----- ----- ----<br>---- --- --- ----- --- ---- ---- ------- most, ---- -------<br>--- --- -- ----- -- --- ---- -- --- ---- -- ------ ------<br>--- ----- -- ----",195583.1350000226,195582.07000000402,195280.669,195283.63999997964,195297.389,195597.367,,36,"most,"
screen,html.Screen,1_1_0_1_37,2021-04-17T16:13:32.764Z,,,,,,,,,,,,,,,,53,,,,,,,,,,,,,,526.0629999778175,,response,,,,99,,,,,,,Space,keypress(Space),,,,,,,,---- -- ----- -- ------ - ------- --- ----------<br>------------- ------ ------ ---- ---- ------- ----- -- ----<br>-------- ------- -- ---------- --- - --- ----- ----- ----<br>---- --- --- ----- --- ---- ---- ------- ----- it's -------<br>--- --- -- ----- -- --- ---- -- --- ---- -- ------ ------<br>--- ----- -- ----,196124.73500001943,196123.42999997782,195580.823,195583.30499997828,195597.367,196130.387,,37,it's
screen,html.Screen,1_1_0_1_38,2021-04-17T16:13:33.452Z,,,,,,,,,,,,,,,,53,,,,,,,,,,,,,,681.4529999803053,,response,,,,99,,,,,,,Space,keypress(Space),,,,,,,,---- -- ----- -- ------ - ------- --- ----------<br>------------- ------ ------ ---- ---- ------- ----- -- ----<br>-------- ------- -- ---------- --- - --- ----- ----- ----<br>---- --- --- ----- --- ---- ---- ------- ----- ---- whether<br>--- --- -- ----- -- --- ---- -- --- ---- -- ------ ------<br>--- ----- -- ----,196812.64499999816,196811.8399999803,196113.686,196125.0299999956,196130.387,196847.042,,38,whether
screen,html.Screen,1_1_0_1_39,2021-04-17T16:13:33.882Z,,,,,,,,,,,,,,,,53,,,,,,,,,,,,,,394.80300001139403,,response,,,,99,,,,,,,Space,keypress(Space),,,,,,,,---- -- ----- -- ------ - ------- --- ----------<br>------------- ------ ------ ---- ---- ------- ----- -- ----<br>-------- ------- -- ---------- --- - --- ----- ----- ----<br>---- --- --- ----- --- ---- ---- ------- ----- ---- -------<br>you --- -- ----- -- --- ---- -- --- ---- -- ------ ------<br>--- ----- -- ----,197242.8850000142,197241.84500001138,196837.057,196812.84500000766,196847.042,197246.861,,39,you
screen,html.Screen,1_1_0_1_40,2021-04-17T16:13:34.247Z,,,,,,,,,,,,,,,,53,,,,,,,,,,,,,,360.33900002765586,,response,,,,99,,,,,,,Space,keypress(Space),,,,,,,,---- -- ----- -- ------ - ------- --- ----------<br>------------- ------ ------ ---- ---- ------- ----- -- ----<br>-------- ------- -- ---------- --- - --- ----- ----- ----<br>---- --- --- ----- --- ---- ---- ------- ----- ---- -------<br>--- are -- ----- -- --- ---- -- --- ---- -- ------ ------<br>--- ----- -- ----,197608.00499998732,197607.20000002766,197230.521,197243.0850000237,197246.861,197613.587,,40,are
screen,html.Screen,1_1_0_1_41,2021-04-17T16:13:34.511Z,,,,,,,,,,,,,,,,53,,,,,,,,,,,,,,257.327999977686,,response,,,,99,,,,,,,Space,keypress(Space),,,,,,,,---- -- ----- -- ------ - ------- --- ----------<br>------------- ------ ------ ---- ---- ------- ----- -- ----<br>-------- ------- -- ---------- --- - --- ----- ----- ----<br>---- --- --- ----- --- ---- ---- ------- ----- ---- -------<br>--- --- as ----- -- --- ---- -- --- ---- -- ------ ------<br>--- ----- -- ----,197871.75500002922,197870.9149999777,197596.882,197608.18500001915,197613.587,197880.391,,41,as
screen,html.Screen,1_1_0_1_42,2021-04-17T16:13:34.951Z,,,,,,,,,,,,,,,,53,,,,,,,,,,,,,,430.3639999840525,,response,,,,99,,,,,,,Space,keypress(Space),,,,,,,,---- -- ----- -- ------ - ------- --- ----------<br>------------- ------ ------ ---- ---- ------- ----- -- ----<br>-------- ------- -- ---------- --- - --- ----- ----- ----<br>---- --- --- ----- --- ---- ---- ------- ----- ---- -------<br>--- --- -- close -- --- ---- -- --- ---- -- ------ ------<br>--- ----- -- ----,198311.69000000227,198310.75499998406,197863.593,197871.99499999406,197880.391,198313.43,,42,close
screen,html.Screen,1_1_0_1_43,2021-04-17T16:13:35.295Z,,,,,,,,,,,,,,,,53,,,,,,,,,,,,,,342.1500000205706,,response,,,,99,,,,,,,Space,keypress(Space),,,,,,,,---- -- ----- -- ------ - ------- --- ----------<br>------------- ------ ------ ---- ---- ------- ----- -- ----<br>-------- ------- -- ---------- --- - --- ----- ----- ----<br>---- --- --- ----- --- ---- ---- ------- ----- ---- -------<br>--- --- -- ----- as --- ---- -- --- ---- -- ------ ------<br>--- ----- -- ----,198656.40999999596,198655.58000002056,198297.182,198311.87500001397,198313.43,198663.339,,43,as
screen,html.Screen,1_1_0_1_44,2021-04-17T16:13:35.609Z,,,,,,,,,,,,,,,,53,,,,,,,,,,,,,,305.8059999809193,,response,,,,99,,,,,,,Space,keypress(Space),,,,,,,,---- -- ----- -- ------ - ------- --- ----------<br>------------- ------ ------ ---- ---- ------- ----- -- ----<br>-------- ------- -- ---------- --- - --- ----- ----- ----<br>---- --- --- ----- --- ---- ---- ------- ----- ---- -------<br>--- --- -- ----- -- you ---- -- --- ---- -- ------ ------<br>--- ----- -- ----,198970.26000003098,198969.14499998093,198646.771,198656.6200000234,198663.339,198980.32,,44,you
screen,html.Screen,1_1_0_1_45,2021-04-17T16:13:35.988Z,,,,,,,,,,,,,,,,53,,,,,,,,,,,,,,367.9050000233692,,response,,,,99,,,,,,,Space,keypress(Space),,,,,,,,---- -- ----- -- ------ - ------- --- ----------<br>------------- ------ ------ ---- ---- ------- ----- -- ----<br>-------- ------- -- ---------- --- - --- ----- ----- ----<br>---- --- --- ----- --- ---- ---- ------- ----- ---- -------<br>--- --- -- ----- -- --- want -- --- ---- -- ------ ------<br>--- ----- -- ----,199349.13500002585,199348.22500002338,198963.361,198970.46500002034,198980.32,199363.673,,45,want
screen,html.Screen,1_1_0_1_46,2021-04-17T16:13:36.334Z,,,,,,,,,,,,,,,,53,,,,,,,,,,,,,,329.75699998479104,,response,,,,99,,,,,,,Space,keypress(Space),,,,,,,,---- -- ----- -- ------ - ------- --- ----------<br>------------- ------ ------ ---- ---- ------- ----- -- ----<br>-------- ------- -- ---------- --- - --- ----- ----- ----<br>---- --- --- ----- --- ---- ---- ------- ----- ---- -------<br>--- --- -- ----- -- --- ---- to --- ---- -- ------ ------<br>--- ----- -- ----,199694.58499999018,199693.4299999848,199346.781,199349.34499999508,199363.673,199696.593,,46,to
screen,html.Screen,1_1_0_1_47,2021-04-17T16:13:36.714Z,,,,,,,,,,,,,,,,53,,,,,,,,,,,,,,377.0819999923697,,response,,,,99,,,,,,,Space,keypress(Space),,,,,,,,"---- -- ----- -- ------ - ------- --- ----------<br>------------- ------ ------ ---- ---- ------- ----- -- ----<br>-------- ------- -- ---------- --- - --- ----- ----- ----<br>---- --- --- ----- --- ---- ---- ------- ----- ---- -------<br>--- --- -- ----- -- --- ---- -- be, ---- -- ------ ------<br>--- ----- -- ----",200074.5299999835,200073.67499999236,199680.293,199694.77499998175,199696.593,200079.901,,47,"be,"
screen,html.Screen,1_1_0_1_48,2021-04-17T16:13:37.132Z,,,,,,,,,,,,,,,,53,,,,,,,,,,,,,,412.8640000317828,,response,,,,99,,,,,,,Space,keypress(Space),,,,,,,,---- -- ----- -- ------ - ------- --- ----------<br>------------- ------ ------ ---- ---- ------- ----- -- ----<br>-------- ------- -- ---------- --- - --- ----- ----- ----<br>---- --- --- ----- --- ---- ---- ------- ----- ---- -------<br>--- --- -- ----- -- --- ---- -- --- even -- ------ ------<br>--- ----- -- ----,200493.4699999867,200492.7650000318,200063.461,200074.729999993,200079.901,200496.443,,48,even
screen,html.Screen,1_1_0_1_49,2021-04-17T16:13:37.432Z,,,,,,,,,,,,,,,,53,,,,,,,,,,,,,,296.2770000267483,,response,,,,99,,,,,,,Space,keypress(Space),,,,,,,,---- -- ----- -- ------ - ------- --- ----------<br>------------- ------ ------ ---- ---- ------- ----- -- ----<br>-------- ------- -- ---------- --- - --- ----- ----- ----<br>---- --- --- ----- --- ---- ---- ------- ----- ---- -------<br>--- --- -- ----- -- --- ---- -- --- ---- if ------ ------<br>--- ----- -- ----,200793.47500001313,200792.72000002675,200479.837,200493.60500002513,200496.443,200796.452,,49,if
screen,html.Screen,1_1_0_1_50,2021-04-17T16:13:37.924Z,,,,,,,,,,,,,,,,53,,,,,,,,,,,,,,487.24800002906704,,response,,,,99,,,,,,,Space,keypress(Space),,,,,,,,---- -- ----- -- ------ - ------- --- ----------<br>------------- ------ ------ ---- ---- ------- ----- -- ----<br>-------- ------- -- ---------- --- - --- ----- ----- ----<br>---- --- --- ----- --- ---- ---- ------- ----- ---- -------<br>--- --- -- ----- -- --- ---- -- --- ---- -- that's ------<br>--- ----- -- ----,201284.570000018,201283.70000002906,200779.828,200793.69000002043,200796.452,201296.597,,50,that's
screen,html.Screen,1_1_0_1_51,2021-04-17T16:13:38.284Z,,,,,,,,,,,,,,,,53,,,,,,,,,,,,,,347.00300001032883,,response,,,,99,,,,,,,Space,keypress(Space),,,,,,,,---- -- ----- -- ------ - ------- --- ----------<br>------------- ------ ------ ---- ---- ------- ----- -- ----<br>-------- ------- -- ---------- --- - --- ----- ----- ----<br>---- --- --- ----- --- ---- ---- ------- ----- ---- -------<br>--- --- -- ----- -- --- ---- -- --- ---- -- ------ really<br>--- ----- -- ----,201644.5749999839,201643.60000001034,201279.747,201284.73000001395,201296.597,201646.339,,51,really
screen,html.Screen,1_1_0_1_52,2021-04-17T16:13:38.638Z,,,,,,,,,,,,,,,,53,,,,,,,,,,,,,,351.9609999774548,,response,,,,99,,,,,,,Space,keypress(Space),,,,,,,,---- -- ----- -- ------ - ------- --- ----------<br>------------- ------ ------ ---- ---- ------- ----- -- ----<br>-------- ------- -- ---------- --- - --- ----- ----- ----<br>---- --- --- ----- --- ---- ---- ------- ----- ---- -------<br>--- --- -- ----- -- --- ---- -- --- ---- -- ------ ------<br>not ----- -- ----,201999.05500002205,201998.29999997746,201629.823,201644.78500001132,201646.339,202012.993,,52,not
screen,html.Screen,1_1_0_1_53,2021-04-17T16:13:39.017Z,,,,,,,,,,,,,,,,53,,,,,,,,,,,,,,364.04200001226855,,response,,,,99,,,,,,,Space,keypress(Space),,,,,,,,---- -- ----- -- ------ - ------- --- ----------<br>------------- ------ ------ ---- ---- ------- ----- -- ----<br>-------- ------- -- ---------- --- - --- ----- ----- ----<br>---- --- --- ----- --- ---- ---- ------- ----- ---- -------<br>--- --- -- ----- -- --- ---- -- --- ---- -- ------ ------<br>--- close -- ----,202377.83000001218,202377.03500001226,201996.518,201999.24000003375,202012.993,202379.567,,53,close
screen,html.Screen,1_1_0_1_54,2021-04-17T16:13:39.442Z,,,,,,,,,,,,,,,,53,,,,,,,,,,,,,,422.4180000273336,,response,,,,99,,,,,,,Space,keypress(Space),,,,,,,,---- -- ----- -- ------ - ------- --- ----------<br>------------- ------ ------ ---- ---- ------- ----- -- ----<br>-------- ------- -- ---------- --- - --- ----- ----- ----<br>---- --- --- ----- --- ---- ---- ------- ----- ---- -------<br>--- --- -- ----- -- --- ---- -- --- ---- -- ------ ------<br>--- ----- at ----,202803.15500003053,202801.98500002734,202362.835,202378.00500000594,202379.567,202813.179,,54,at
screen,html.Screen,1_1_0_1_55,2021-04-17T16:13:39.887Z,,,,,,,,,,,,,,,,53,,,,,,,,,,,,,,434.4210000024177,,response,,,,99,,,,,,,Space,keypress(Space),,,,,,,,---- -- ----- -- ------ - ------- --- ----------<br>------------- ------ ------ ---- ---- ------- ----- -- ----<br>-------- ------- -- ---------- --- - --- ----- ----- ----<br>---- --- --- ----- --- ---- ---- ------- ----- ---- -------<br>--- --- -- ----- -- --- ---- -- --- ---- -- ------ ------<br>--- ----- -- all.,203248.49000002723,203247.60000000242,202796.403,202803.3600000199,202813.179,203262.793,,55,all.
Item 99,flow.Loop,1_1_0_1,2021-04-17T16:13:39.888Z,,,,,,,,,,,,,,,,,,,,,,,,,,,,,,26498.06300000241,,completion,,,,,E,,,,,,,,,,,silence,,,,,203248.84499999462,203247.60000000242,176733.168,176734.7450000234,176749.537,203262.793,,,
Question 1,html.Screen,1_1_0_2,2021-04-17T16:13:47.697Z,,,,,,,,,,,,,,,,,,,,,,,,,,,true,FALSE,,7793.632000017038,,response,,,,99,E,,,,,,FALSE,click #choice-2,,,,silence,,,,,211057.8150000074,211056.42500001704,203246.137,203248.99500003085,203262.793,211061.744,,,
Question 2,html.Screen,1_1_0_3,2021-04-17T16:13:52.236Z,,,,,,,,,,,,,,,,,,,,,,,,,,,true,TRUE,,4533.800999989209,,response,,,,99,E,,,,,,TRUE,click #choice-1,,,,silence,,,,,215596.86500002863,215595.54499998922,211045.346,211058.0000000191,211061.744,215611.136,,,
Item 99,flow.Sequence,1_1_0,2021-04-17T16:13:52.236Z,,,,,,,,,,,,,,,,,,,,,,,,,,,,,,48844.69799998921,,completion,,,,,,,,,,,,,,,,,,,,,215597.17000002274,215595.54499998922,166734.327,166748.13000002177,166750.847,215611.136,,,
Holding screen,html.Screen,1_1_1_0,2021-04-17T16:14:02.233Z,,,,,,,,,,,,,,,,,,,,,,,,,,,,,,9998.924999999988,,timeout,,,,,,,,,,,,,,,,,,,,,225594.48500000872,225593.256,215594.589,215597.3450000165,215611.136,225610.061,,,
screen,html.Screen,1_1_1_1_0,2021-04-17T16:14:03.672Z,,,,,,,,,,,,,,,,54,,,,,,,,,,,,,,1421.9940000178758,,response,,,,100,,,,,,,Space,keypress(Space),,,,,,,,At --- ---- --- ------ ----- ------- ---- -- --- ------- --<br>------- ---------- ------ -- ----- -- ----- -- ---- ------<br>--- ----- --- --- ------ -------- ----- --- ------ ----- --<br>----- ----- ---------- --- --- ------ ------ ---- -- ------<br>------- --- ------ ----- --- ---- ------- -- ---- --- --<br>------- ------,227033.01000001375,227032.05500001786,225593.256,225594.89499998745,225610.061,227043.073,,0,At
screen,html.Screen,1_1_1_1_1,2021-04-17T16:14:04.053Z,,,,,,,,,,,,,,,,54,,,,,,,,,,,,,,369.7770000224409,,response,,,,100,,,,,,,Space,keypress(Space),,,,,,,,-- the ---- --- ------ ----- ------- ---- -- --- ------- --<br>------- ---------- ------ -- ----- -- ----- -- ---- ------<br>--- ----- --- --- ------ -------- ----- --- ------ ----- --<br>----- ----- ---------- --- --- ------ ------ ---- -- ------<br>------- --- ------ ----- --- ---- ------- -- ---- --- --<br>------- ------,227413.5949999909,227412.85000002244,227026.665,227033.27000001445,227043.073,227426.309,,1,the
screen,html.Screen,1_1_1_1_2,2021-04-17T16:14:04.284Z,,,,,,,,,,,,,,,,54,,,,,,,,,,,,,,218.43599999777507,,response,,,,100,,,,,,,Space,keypress(Space),,,,,,,,-- --- time --- ------ ----- ------- ---- -- --- ------- --<br>------- ---------- ------ -- ----- -- ----- -- ---- ------<br>--- ----- --- --- ------ -------- ----- --- ------ ----- --<br>----- ----- ---------- --- --- ------ ------ ---- -- ------<br>------- --- ------ ----- --- ---- ------- -- ---- --- --<br>------- ------,227645.41500003543,227644.74499999778,227409.771,227413.7650000048,227426.309,227659.974,,2,time
screen,html.Screen,1_1_1_1_3,2021-04-17T16:14:04.625Z,,,,,,,,,,,,,,,,54,,,,,,,,,,,,,,324.635999984981,,response,,,,100,,,,,,,Space,keypress(Space),,,,,,,,-- --- ---- the ------ ----- ------- ---- -- --- ------- --<br>------- ---------- ------ -- ----- -- ----- -- ---- ------<br>--- ----- --- --- ------ -------- ----- --- ------ ----- --<br>----- ----- ---------- --- --- ------ ------ ---- -- ------<br>------- --- ------ ----- --- ---- ------- -- ---- --- --<br>------- ------,227985.65500002587,227984.60999998497,227643.317,227645.55000001565,227659.974,227992.979,,3,the
screen,html.Screen,1_1_1_1_4,2021-04-17T16:14:04.933Z,,,,,,,,,,,,,,,,54,,,,,,,,,,,,,,300.29100002377527,,response,,,,100,,,,,,,Space,keypress(Space),,,,,,,,-- --- ---- --- French ----- ------- ---- -- --- ------- --<br>------- ---------- ------ -- ----- -- ----- -- ---- ------<br>--- ----- --- --- ------ -------- ----- --- ------ ----- --<br>----- ----- ---------- --- --- ------ ------ ---- -- ------<br>------- --- ------ ----- --- ---- ------- -- ---- --- --<br>------- ------,228294.12999999477,228293.27000002377,227976.364,227985.86000001524,227992.979,228309.613,,4,French
screen,html.Screen,1_1_1_1_5,2021-04-17T16:14:05.226Z,,,,,,,,,,,,,,,,54,,,,,,,,,,,,,,276.59199999959674,,response,,,,100,,,,,,,Space,keypress(Space),,,,,,,,-- --- ---- --- ------ crown ------- ---- -- --- ------- --<br>------- ---------- ------ -- ----- -- ----- -- ---- ------<br>--- ----- --- --- ------ -------- ----- --- ------ ----- --<br>----- ----- ---------- --- --- ------ ------ ---- -- ------<br>------- --- ------ ----- --- ---- ------- -- ---- --- --<br>------- ------,228586.98000002187,228586.2049999996,228293.207,228294.35999999987,228309.613,228592.793,,5,crown
screen,html.Screen,1_1_1_1_6,2021-04-17T16:14:05.601Z,,,,,,,,,,,,,,,,54,,,,,,,,,,,,,,368.4269999974058,,response,,,,100,,,,,,,Space,keypress(Space),,,,,,,,-- --- ---- --- ------ ----- secured ---- -- --- ------- --<br>------- ---------- ------ -- ----- -- ----- -- ---- ------<br>--- ----- --- --- ------ -------- ----- --- ------ ----- --<br>----- ----- ---------- --- --- ------ ------ ---- -- ------<br>------- --- ------ ----- --- ---- ------- -- ---- --- --<br>------- ------,228962.01499999734,228961.2199999974,228576.551,228587.16500003356,228592.793,228976.581,,6,secured
screen,html.Screen,1_1_1_1_7,2021-04-17T16:14:05.955Z,,,,,,,,,,,,,,,,54,,,,,,,,,,,,,,338.85399999679066,,response,,,,100,,,,,,,Space,keypress(Space),,,,,,,,-- --- ---- --- ------ ----- ------- much -- --- ------- --<br>------- ---------- ------ -- ----- -- ----- -- ---- ------<br>--- ----- --- --- ------ -------- ----- --- ------ ----- --<br>----- ----- ---------- --- --- ------ ------ ---- -- ------<br>------- --- ------ ----- --- ---- ------- -- ---- --- --<br>------- ------,229316.39500003075,229315.4349999968,228959.68,228962.19500002917,228976.581,229326.154,,7,much
screen,html.Screen,1_1_1_1_8,2021-04-17T16:14:06.330Z,,,,,,,,,,,,,,,,54,,,,,,,,,,,,,,363.6860000063607,,response,,,,100,,,,,,,Space,keypress(Space),,,,,,,,-- --- ---- --- ------ ----- ------- ---- of --- ------- --<br>------- ---------- ------ -- ----- -- ----- -- ---- ------<br>--- ----- --- --- ------ -------- ----- --- ------ ----- --<br>----- ----- ---------- --- --- ------ ------ ---- -- ------<br>------- --- ------ ----- --- ---- ------- -- ---- --- --<br>------- ------,229690.76000002678,229689.84000000637,229309.764,229316.57999998424,229326.154,229692.702,,8,of
screen,html.Screen,1_1_1_1_9,2021-04-17T16:14:06.830Z,,,,,,,,,,,,,,,,54,,,,,,,,,,,,,,497.6730000055977,,response,,,,100,,,,,,,Space,keypress(Space),,,,,,,,-- --- ---- --- ------ ----- ------- ---- -- its ------- --<br>------- ---------- ------ -- ----- -- ----- -- ---- ------<br>--- ----- --- --- ------ -------- ----- --- ------ ----- --<br>----- ----- ---------- --- --- ------ ------ ---- -- ------<br>------- --- ------ ----- --- ---- ------- -- ---- --- --<br>------- ------,230191.4499999839,230190.3750000056,229676.305,229690.92999998247,229692.702,230217.169,,9,its
screen,html.Screen,1_1_1_1_10,2021-04-17T16:14:07.049Z,,,,,,,,,,,,,,,,54,,,,,,,,,,,,,,191.4310000243131,,response,,,,100,,,,,,,Space,keypress(Space),,,,,,,,-- --- ---- --- ------ ----- ------- ---- -- --- revenue --<br>------- ---------- ------ -- ----- -- ----- -- ---- ------<br>--- ----- --- --- ------ -------- ----- --- ------ ----- --<br>----- ----- ---------- --- --- ------ ------ ---- -- ------<br>------- --- ------ ----- --- ---- ------- -- ---- --- --<br>------- ------,230409.56000000006,230408.6000000243,230176.238,230191.63000001572,230217.169,230426.328,,10,revenue
screen,html.Screen,1_1_1_1_11,2021-04-17T16:14:07.681Z,,,,,,,,,,,,,,,,54,,,,,,,,,,,,,,614.7669999932114,,response,,,,100,,,,,,,Space,keypress(Space),,,,,,,,-- --- ---- --- ------ ----- ------- ---- -- --- ------- by<br>------- ---------- ------ -- ----- -- ----- -- ---- ------<br>--- ----- --- --- ------ -------- ----- --- ------ ----- --<br>----- ----- ---------- --- --- ------ ------ ---- -- ------<br>------- --- ------ ----- --- ---- ------- -- ---- --- --<br>------- ------,231042.23000002094,231041.09499999322,230409.514,230409.74500001175,230426.328,231059.412,,11,by
screen,html.Screen,1_1_1_1_12,2021-04-17T16:14:08.188Z,,,,,,,,,,,,,,,,54,,,,,,,,,,,,,,488.55300003429875,,response,,,,100,,,,,,,Space,keypress(Space),,,,,,,,-- --- ---- --- ------ ----- ------- ---- -- --- ------- --<br>issuing ---------- ------ -- ----- -- ----- -- ---- ------<br>--- ----- --- --- ------ -------- ----- --- ------ ----- --<br>----- ----- ---------- --- --- ------ ------ ---- -- ------<br>------- --- ------ ----- --- ---- ------- -- ---- --- --<br>------- ------,231548.8900000346,231547.9650000343,231042.486,231042.46000002604,231059.412,231559.549,,12,issuing
screen,html.Screen,1_1_1_1_13,2021-04-17T16:14:08.963Z,,,,,,,,,,,,,,,,54,,,,,,,,,,,,,,764.0259999876143,,response,,,,100,,,,,,,Space,keypress(Space),,,,,,,,-- --- ---- --- ------ ----- ------- ---- -- --- ------- --<br>------- government ------ -- ----- -- ----- -- ---- ------<br>--- ----- --- --- ------ -------- ----- --- ------ ----- --<br>----- ----- ---------- --- --- ------ ------ ---- -- ------<br>------- --- ------ ----- --- ---- ------- -- ---- --- --<br>------- ------,232324.41499998095,232323.5749999876,231542.458,231549.06500002835,231559.549,232354.058,,13,government
screen,html.Screen,1_1_1_1_14,2021-04-17T16:14:10.289Z,,,,,,,,,,,,,,,,54,,,,,,,,,,,,,,1294.8620000069204,,response,,,,100,,,,,,,Space,keypress(Space),,,,,,,,-- --- ---- --- ------ ----- ------- ---- -- --- ------- --<br>------- ---------- bonds. -- ----- -- ----- -- ---- ------<br>--- ----- --- --- ------ -------- ----- --- ------ ----- --<br>----- ----- ---------- --- --- ------ ------ ---- -- ------<br>------- --- ------ ----- --- ---- ------- -- ---- --- --<br>------- ------,233650.09499998996,233648.9200000069,232309.365,232324.58499999484,232354.058,233659.239,,14,bonds.
screen,html.Screen,1_1_1_1_15,2021-04-17T16:14:11.115Z,,,,,,,,,,,,,,,,54,,,,,,,,,,,,,,815.7810000125901,,response,,,,100,,,,,,,Space,keypress(Space),,,,,,,,-- --- ---- --- ------ ----- ------- ---- -- --- ------- --<br>------- ---------- ------ In ----- -- ----- -- ---- ------<br>--- ----- --- --- ------ -------- ----- --- ------ ----- --<br>----- ----- ---------- --- --- ------ ------ ---- -- ------<br>------- --- ------ ----- --- ---- ------- -- ---- --- --<br>------- ------,234476.0949999909,234475.0200000126,233642.44,233650.26500000386,233659.239,234492.255,,15,In
screen,html.Screen,1_1_1_1_16,2021-04-17T16:14:13.227Z,,,,,,,,,,,,,,,,54,,,,,,,,,,,,,,2094.689999988186,,response,,,,100,,,,,,,Space,keypress(Space),,,,,,,,"-- --- ---- --- ------ ----- ------- ---- -- --- ------- --<br>------- ---------- ------ -- 1727, -- ----- -- ---- ------<br>--- ----- --- --- ------ -------- ----- --- ------ ----- --<br>----- ----- ---------- --- --- ------ ------ ---- -- ------<br>------- --- ------ ----- --- ---- ------- -- ---- --- --<br>------- ------",236587.98000001116,236586.9449999882,234475.603,234476.26999998465,234492.255,236591.783,,16,"1727,"
screen,html.Screen,1_1_1_1_17,2021-04-17T16:14:14.888Z,,,,,,,,,,,,,,,,54,,,,,,,,,,,,,,1655.6370000288007,,response,,,,100,,,,,,,Space,keypress(Space),,,,,,,,-- --- ---- --- ------ ----- ------- ---- -- --- ------- --<br>------- ---------- ------ -- ----- in ----- -- ---- ------<br>--- ----- --- --- ------ -------- ----- --- ------ ----- --<br>----- ----- ---------- --- --- ------ ------ ---- -- ------<br>------- --- ------ ----- --- ---- ------- -- ---- --- --<br>------- ------,238248.65500000305,238247.4200000288,236575.262,236588.22999999393,236591.783,238258.503,,17,in
screen,html.Screen,1_1_1_1_18,2021-04-17T16:14:15.232Z,,,,,,,,,,,,,,,,54,,,,,,,,,,,,,,332.99200000058045,,response,,,,100,,,,,,,Space,keypress(Space),,,,,,,,-- --- ---- --- ------ ----- ------- ---- -- --- ------- --<br>------- ---------- ------ -- ----- -- order -- ---- ------<br>--- ----- --- --- ------ -------- ----- --- ------ ----- --<br>----- ----- ---------- --- --- ------ ------ ---- -- ------<br>------- --- ------ ----- --- ---- ------- -- ---- --- --<br>------- ------,238592.56999997888,238591.49500000058,238241.529,238248.8350000349,238258.503,238608.651,,18,order
screen,html.Screen,1_1_1_1_19,2021-04-17T16:14:15.687Z,,,,,,,,,,,,,,,,54,,,,,,,,,,,,,,438.03899998829,,response,,,,100,,,,,,,Space,keypress(Space),,,,,,,,-- --- ---- --- ------ ----- ------- ---- -- --- ------- --<br>------- ---------- ------ -- ----- -- ----- to ---- ------<br>--- ----- --- --- ------ -------- ----- --- ------ ----- --<br>----- ----- ---------- --- --- ------ ------ ---- -- ------<br>------- --- ------ ----- --- ---- ------- -- ---- --- --<br>------- ------,239047.5350000197,239046.6899999883,238591.576,238592.8600000334,238608.651,239058.129,,19,to
screen,html.Screen,1_1_1_1_20,2021-04-17T16:14:16.401Z,,,,,,,,,,,,,,,,54,,,,,,,,,,,,,,703.365999984293,,response,,,,100,,,,,,,Space,keypress(Space),,,,,,,,-- --- ---- --- ------ ----- ------- ---- -- --- ------- --<br>------- ---------- ------ -- ----- -- ----- -- save ------<br>--- ----- --- --- ------ -------- ----- --- ------ ----- --<br>----- ----- ---------- --- --- ------ ------ ---- -- ------<br>------- --- ------ ----- --- ---- ------- -- ---- --- --<br>------- ------,239761.96500001242,239761.49499998428,239041.855,239047.7200000314,239058.129,239774.712,,20,save
screen,html.Screen,1_1_1_1_21,2021-04-17T16:14:17.061Z,,,,,,,,,,,,,,,,54,,,,,,,,,,,,,,646.4180000315537,,response,,,,100,,,,,,,Space,keypress(Space),,,,,,,,"-- --- ---- --- ------ ----- ------- ---- -- --- ------- --<br>------- ---------- ------ -- ----- -- ----- -- ---- money,<br>--- ----- --- --- ------ -------- ----- --- ------ ----- --<br>----- ----- ---------- --- --- ------ ------ ---- -- ------<br>------- --- ------ ----- --- ---- ------- -- ---- --- --<br>------- ------",240421.7700000154,240421.13000003155,239758.058,239762.0449999813,239774.712,240424.582,,21,"money,"
screen,html.Screen,1_1_1_1_22,2021-04-17T16:14:17.435Z,,,,,,,,,,,,,,,,54,,,,,,,,,,,,,,371.12800003489247,,response,,,,100,,,,,,,Space,keypress(Space),,,,,,,,-- --- ---- --- ------ ----- ------- ---- -- --- ------- --<br>------- ---------- ------ -- ----- -- ----- -- ---- ------<br>the ----- --- --- ------ -------- ----- --- ------ ----- --<br>----- ----- ---------- --- --- ------ ------ ---- -- ------<br>------- --- ------ ----- --- ---- ------- -- ---- --- --<br>------- ------,240796.19000002276,240795.7100000349,240407.909,240421.93000001134,240424.582,240807.857,,22,the
screen,html.Screen,1_1_1_1_23,2021-04-17T16:14:17.800Z,,,,,,,,,,,,,,,,54,,,,,,,,,,,,,,352.68799999155453,,response,,,,100,,,,,,,Space,keypress(Space),,,,,,,,-- --- ---- --- ------ ----- ------- ---- -- --- ------- --<br>------- ---------- ------ -- ----- -- ----- -- ---- ------<br>--- state --- --- ------ -------- ----- --- ------ ----- --<br>----- ----- ---------- --- --- ------ ------ ---- -- ------<br>------- --- ------ ----- --- ---- ------- -- ---- --- --<br>------- ------,241161.1649999977,241160.54499999154,240791.233,240796.29999998724,240807.857,241174.527,,23,state
screen,html.Screen,1_1_1_1_24,2021-04-17T16:14:18.226Z,,,,,,,,,,,,,,,,54,,,,,,,,,,,,,,411.2080000296701,,response,,,,100,,,,,,,Space,keypress(Space),,,,,,,,-- --- ---- --- ------ ----- ------- ---- -- --- ------- --<br>------- ---------- ------ -- ----- -- ----- -- ---- ------<br>--- ----- cut --- ------ -------- ----- --- ------ ----- --<br>----- ----- ---------- --- --- ------ ------ ---- -- ------<br>------- --- ------ ----- --- ---- ------- -- ---- --- --<br>------- ------,241586.89500001492,241585.73500002967,241157.843,241161.305000016,241174.527,241591.086,,24,cut
screen,html.Screen,1_1_1_1_25,2021-04-17T16:14:18.611Z,,,,,,,,,,,,,,,,54,,,,,,,,,,,,,,380.55400000337977,,response,,,,100,,,,,,,Space,keypress(Space),,,,,,,,-- --- ---- --- ------ ----- ------- ---- -- --- ------- --<br>------- ---------- ------ -- ----- -- ----- -- ---- ------<br>--- ----- --- the ------ -------- ----- --- ------ ----- --<br>----- ----- ---------- --- --- ------ ------ ---- -- ------<br>------- --- ------ ----- --- ---- ------- -- ---- --- --<br>------- ------,241972.20000001835,241971.6400000034,241574.456,241587.10000000428,241591.086,241974.359,,25,the
screen,html.Screen,1_1_1_1_26,2021-04-17T16:14:19.069Z,,,,,,,,,,,,,,,,54,,,,,,,,,,,,,,455.5160000307369,,response,,,,100,,,,,,,Space,keypress(Space),,,,,,,,-- --- ---- --- ------ ----- ------- ---- -- --- ------- --<br>------- ---------- ------ -- ----- -- ----- -- ---- ------<br>--- ----- --- --- bonds' -------- ----- --- ------ ----- --<br>----- ----- ---------- --- --- ------ ------ ---- -- ------<br>------- --- ------ ----- --- ---- ------- -- ---- --- --<br>------- ------,242430.41500000982,242429.87500003073,241957.82,241972.30999998283,241974.359,242441.068,,26,bonds'
screen,html.Screen,1_1_1_1_27,2021-04-17T16:14:19.409Z,,,,,,,,,,,,,,,,54,,,,,,,,,,,,,,328.4270000150136,,response,,,,100,,,,,,,Space,keypress(Space),,,,,,,,-- --- ---- --- ------ ----- ------- ---- -- --- ------- --<br>------- ---------- ------ -- ----- -- ----- -- ---- ------<br>--- ----- --- --- ------ interest ----- --- ------ ----- --<br>----- ----- ---------- --- --- ------ ------ ---- -- ------<br>------- --- ------ ----- --- ---- ------- -- ---- --- --<br>------- ------,242770.30000003288,242769.495000015,242424.359,242430.5700000259,242441.068,242774.27,,27,interest
screen,html.Screen,1_1_1_1_28,2021-04-17T16:14:20.114Z,,,,,,,,,,,,,,,,54,,,,,,,,,,,,,,699.7400000053749,,response,,,,100,,,,,,,Space,keypress(Space),,,,,,,,-- --- ---- --- ------ ----- ------- ---- -- --- ------- --<br>------- ---------- ------ -- ----- -- ----- -- ---- ------<br>--- ----- --- --- ------ -------- rate. --- ------ ----- --<br>----- ----- ---------- --- --- ------ ------ ---- -- ------<br>------- --- ------ ----- --- ---- ------- -- ---- --- --<br>------- ------,243475.0200000126,243474.01000000536,242757.655,242770.4050000175,242774.27,243491.18,,28,rate.
screen,html.Screen,1_1_1_1_29,2021-04-17T16:14:21.455Z,,,,,,,,,,,,,,,,54,,,,,,,,,,,,,,1324.2750000326778,,response,,,,100,,,,,,,Space,keypress(Space),,,,,,,,-- --- ---- --- ------ ----- ------- ---- -- --- ------- --<br>------- ---------- ------ -- ----- -- ----- -- ---- ------<br>--- ----- --- --- ------ -------- ----- The ------ ----- --<br>----- ----- ---------- --- --- ------ ------ ---- -- ------<br>------- --- ------ ----- --- ---- ------- -- ---- --- --<br>------- ------,244816.2500000326,244815.45500003267,243474.234,243475.21499998402,243491.18,244824.026,,29,The
screen,html.Screen,1_1_1_1_30,2021-04-17T16:14:22.753Z,,,,,,,,,,,,,,,,54,,,,,,,,,,,,,,1288.8990000230842,,response,,,,100,,,,,,,Space,keypress(Space),,,,,,,,-- --- ---- --- ------ ----- ------- ---- -- --- ------- --<br>------- ---------- ------ -- ----- -- ----- -- ---- ------<br>--- ----- --- --- ------ -------- ----- --- market ----- --<br>----- ----- ---------- --- --- ------ ------ ---- -- ------<br>------- --- ------ ----- --- ---- ------- -- ---- --- --<br>------- ------,246113.73500002082,246112.9250000231,244807.396,244816.41999998828,244824.026,246123.987,,30,market
screen,html.Screen,1_1_1_1_31,2021-04-17T16:14:23.112Z,,,,,,,,,,,,,,,,54,,,,,,,,,,,,,,347.8729999905627,,response,,,,100,,,,,,,Space,keypress(Space),,,,,,,,-- --- ---- --- ------ ----- ------- ---- -- --- ------- --<br>------- ---------- ------ -- ----- -- ----- -- ---- ------<br>--- ----- --- --- ------ -------- ----- --- ------ value --<br>----- ----- ---------- --- --- ------ ------ ---- -- ------<br>------- --- ------ ----- --- ---- ------- -- ---- --- --<br>------- ------,246472.69000002416,246471.85999999056,246107.16,246113.89500001678,246123.987,246506.121,,31,value
screen,html.Screen,1_1_1_1_32,2021-04-17T16:14:23.436Z,,,,,,,,,,,,,,,,54,,,,,,,,,,,,,,290.29399998977897,,response,,,,100,,,,,,,Space,keypress(Space),,,,,,,,-- --- ---- --- ------ ----- ------- ---- -- --- ------- --<br>------- ---------- ------ -- ----- -- ----- -- ---- ------<br>--- ----- --- --- ------ -------- ----- --- ------ ----- of<br>----- ----- ---------- --- --- ------ ------ ---- -- ------<br>------- --- ------ ----- --- ---- ------- -- ---- --- --<br>------- ------,246797.3350000102,246796.4149999898,246457.348,246472.8849999956,246506.121,246807.132,,32,of
screen,html.Screen,1_1_1_1_33,2021-04-17T16:14:23.755Z,,,,,,,,,,,,,,,,54,,,,,,,,,,,,,,307.9480000177573,,response,,,,100,,,,,,,Space,keypress(Space),,,,,,,,-- --- ---- --- ------ ----- ------- ---- -- --- ------- --<br>------- ---------- ------ -- ----- -- ----- -- ---- ------<br>--- ----- --- --- ------ -------- ----- --- ------ ----- --<br>these ----- ---------- --- --- ------ ------ ---- -- ------<br>------- --- ------ ----- --- ---- ------- -- ---- --- --<br>------- ------,247115.8450000221,247115.08000001777,246790.726,246797.51000000397,246807.132,247124.174,,33,these
screen,html.Screen,1_1_1_1_34,2021-04-17T16:14:24.019Z,,,,,,,,,,,,,,,,54,,,,,,,,,,,,,,254.65100002160762,,response,,,,100,,,,,,,Space,keypress(Space),,,,,,,,-- --- ---- --- ------ ----- ------- ---- -- --- ------- --<br>------- ---------- ------ -- ----- -- ----- -- ---- ------<br>--- ----- --- --- ------ -------- ----- --- ------ ----- --<br>----- bonds ---------- --- --- ------ ------ ---- -- ------<br>------- --- ------ ----- --- ---- ------- -- ---- --- --<br>------- ------,247379.9299999955,247378.8250000216,247107.282,247116.0450000316,247124.174,247390.596,,34,bonds
screen,html.Screen,1_1_1_1_35,2021-04-17T16:14:24.347Z,,,,,,,,,,,,,,,,54,,,,,,,,,,,,,,316.00900001396076,,response,,,,100,,,,,,,Space,keypress(Space),,,,,,,,"-- --- ---- --- ------ ----- ------- ---- -- --- ------- --<br>------- ---------- ------ -- ----- -- ----- -- ---- ------<br>--- ----- --- --- ------ -------- ----- --- ------ ----- --<br>----- ----- plummeted, --- --- ------ ------ ---- -- ------<br>------- --- ------ ----- --- ---- ------- -- ---- --- --<br>------- ------",247707.73999998346,247706.60500001395,247373.757,247380.11000002734,247390.596,247723.797,,35,"plummeted,"
screen,html.Screen,1_1_1_1_36,2021-04-17T16:14:24.741Z,,,,,,,,,,,,,,,,54,,,,,,,,,,,,,,377.0829999835987,,response,,,,100,,,,,,,Space,keypress(Space),,,,,,,,-- --- ---- --- ------ ----- ------- ---- -- --- ------- --<br>------- ---------- ------ -- ----- -- ----- -- ---- ------<br>--- ----- --- --- ------ -------- ----- --- ------ ----- --<br>----- ----- ---------- and --- ------ ------ ---- -- ------<br>------- --- ------ ----- --- ---- ------- -- ---- --- --<br>------- ------,248102.09000000032,248100.8799999836,247707.076,247707.9200000153,247723.797,248106.952,,36,and
screen,html.Screen,1_1_1_1_37,2021-04-17T16:14:25.061Z,,,,,,,,,,,,,,,,54,,,,,,,,,,,,,,314.4479999920004,,response,,,,100,,,,,,,Space,keypress(Space),,,,,,,,-- --- ---- --- ------ ----- ------- ---- -- --- ------- --<br>------- ---------- ------ -- ----- -- ----- -- ---- ------<br>--- ----- --- --- ------ -------- ----- --- ------ ----- --<br>----- ----- ---------- --- the ------ ------ ---- -- ------<br>------- --- ------ ----- --- ---- ------- -- ---- --- --<br>------- ------,248422.15499997837,248421.399999992,248090.378,248102.2600000142,248106.952,248455.479,,37,the
screen,html.Screen,1_1_1_1_38,2021-04-17T16:14:25.359Z,,,,,,,,,,,,,,,,54,,,,,,,,,,,,,,263.23600002453895,,response,,,,100,,,,,,,Space,keypress(Space),,,,,,,,-- --- ---- --- ------ ----- ------- ---- -- --- ------- --<br>------- ---------- ------ -- ----- -- ----- -- ---- ------<br>--- ----- --- --- ------ -------- ----- --- ------ ----- --<br>----- ----- ---------- --- --- market ------ ---- -- ------<br>------- --- ------ ----- --- ---- ------- -- ---- --- --<br>------- ------,248719.8700000299,248718.71500002453,248407.131,248422.3350000102,248455.479,248723.515,,38,market
screen,html.Screen,1_1_1_1_39,2021-04-17T16:14:25.651Z,,,,,,,,,,,,,,,,54,,,,,,,,,,,,,,287.9150000131922,,response,,,,100,,,,,,,Space,keypress(Space),,,,,,,,-- --- ---- --- ------ ----- ------- ---- -- --- ------- --<br>------- ---------- ------ -- ----- -- ----- -- ---- ------<br>--- ----- --- --- ------ -------- ----- --- ------ ----- --<br>----- ----- ---------- --- --- ------ became ---- -- ------<br>------- --- ------ ----- --- ---- ------- -- ---- --- --<br>------- ------,249012.28000002448,249011.4300000132,248707.164,248720.0549999834,248723.515,249023.956,,39,became
screen,html.Screen,1_1_1_1_40,2021-04-17T16:14:25.946Z,,,,,,,,,,,,,,,,54,,,,,,,,,,,,,,281.8239999951329,,response,,,,100,,,,,,,Space,keypress(Space),,,,,,,,-- --- ---- --- ------ ----- ------- ---- -- --- ------- --<br>------- ---------- ------ -- ----- -- ----- -- ---- ------<br>--- ----- --- --- ------ -------- ----- --- ------ ----- --<br>----- ----- ---------- --- --- ------ ------ wary -- ------<br>------- --- ------ ----- --- ---- ------- -- ---- --- --<br>------- ------,249306.71500001336,249305.77999999514,249007.067,249012.48500001384,249023.956,249323.56,,40,wary
screen,html.Screen,1_1_1_1_41,2021-04-17T16:14:26.292Z,,,,,,,,,,,,,,,,54,,,,,,,,,,,,,,328.10000003228197,,response,,,,100,,,,,,,Space,keypress(Space),,,,,,,,-- --- ---- --- ------ ----- ------- ---- -- --- ------- --<br>------- ---------- ------ -- ----- -- ----- -- ---- ------<br>--- ----- --- --- ------ -------- ----- --- ------ ----- --<br>----- ----- ---------- --- --- ------ ------ ---- of ------<br>------- --- ------ ----- --- ---- ------- -- ---- --- --<br>------- ------,249652.8999999864,249651.66000003228,249306.861,249307.15000000782,249323.56,249656.724,,41,of
screen,html.Screen,1_1_1_1_42,2021-04-17T16:14:26.564Z,,,,,,,,,,,,,,,,54,,,,,,,,,,,,,,267.7510000070906,,response,,,,100,,,,,,,Space,keypress(Space),,,,,,,,-- --- ---- --- ------ ----- ------- ---- -- --- ------- --<br>------- ---------- ------ -- ----- -- ----- -- ---- ------<br>--- ----- --- --- ------ -------- ----- --- ------ ----- --<br>----- ----- ---------- --- --- ------ ------ ---- -- French<br>------- --- ------ ----- --- ---- ------- -- ---- --- --<br>------- ------,249925.22999999346,249924.47500000708,249640.541,249653.06500002043,249656.724,249940.413,,42,French
screen,html.Screen,1_1_1_1_43,2021-04-17T16:14:27.039Z,,,,,,,,,,,,,,,,54,,,,,,,,,,,,,,459.1370000310126,,response,,,,100,,,,,,,Space,keypress(Space),,,,,,,,-- --- ---- --- ------ ----- ------- ---- -- --- ------- --<br>------- ---------- ------ -- ----- -- ----- -- ---- ------<br>--- ----- --- --- ------ -------- ----- --- ------ ----- --<br>----- ----- ---------- --- --- ------ ------ ---- -- ------<br>credit. --- ------ ----- --- ---- ------- -- ---- --- --<br>------- ------,250400.29999997932,250399.550000031,249923.701,249925.41999998502,249940.413,250406.743,,43,credit.
screen,html.Screen,1_1_1_1_44,2021-04-17T16:14:27.269Z,,,,,,,,,,,,,,,,54,,,,,,,,,,,,,,222.227000019775,,response,,,,100,,,,,,,Space,keypress(Space),,,,,,,,-- --- ---- --- ------ ----- ------- ---- -- --- ------- --<br>------- ---------- ------ -- ----- -- ----- -- ---- ------<br>--- ----- --- --- ------ -------- ----- --- ------ ----- --<br>----- ----- ---------- --- --- ------ ------ ---- -- ------<br>------- The ------ ----- --- ---- ------- -- ---- --- --<br>------- ------,250630.00499998452,250628.97000001976,250390.397,250400.43999999762,250406.743,250640.313,,44,The
screen,html.Screen,1_1_1_1_45,2021-04-17T16:14:27.622Z,,,,,,,,,,,,,,,,54,,,,,,,,,,,,,,342.3770000334771,,response,,,,100,,,,,,,Space,keypress(Space),,,,,,,,-- --- ---- --- ------ ----- ------- ---- -- --- ------- --<br>------- ---------- ------ -- ----- -- ----- -- ---- ------<br>--- ----- --- --- ------ -------- ----- --- ------ ----- --<br>----- ----- ---------- --- --- ------ ------ ---- -- ------<br>------- --- French ----- --- ---- ------- -- ---- --- --<br>------- ------,250983.5300000268,250982.69000003347,250623.285,250630.1950000343,250640.313,250989.988,,45,French
screen,html.Screen,1_1_1_1_46,2021-04-17T16:14:27.911Z,,,,,,,,,,,,,,,,54,,,,,,,,,,,,,,281.66200000967365,,response,,,,100,,,,,,,Space,keypress(Space),,,,,,,,-- --- ---- --- ------ ----- ------- ---- -- --- ------- --<br>------- ---------- ------ -- ----- -- ----- -- ---- ------<br>--- ----- --- --- ------ -------- ----- --- ------ ----- --<br>----- ----- ---------- --- --- ------ ------ ---- -- ------<br>------- --- ------ state --- ---- ------- -- ---- --- --<br>------- ------,251272.50000002095,251271.6500000097,250973.251,250983.6699999869,250989.988,251290.155,,46,state
screen,html.Screen,1_1_1_1_47,2021-04-17T16:14:28.201Z,,,,,,,,,,,,,,,,54,,,,,,,,,,,,,,271.2049999924202,,response,,,,100,,,,,,,Space,keypress(Space),,,,,,,,-- --- ---- --- ------ ----- ------- ---- -- --- ------- --<br>------- ---------- ------ -- ----- -- ----- -- ---- ------<br>--- ----- --- --- ------ -------- ----- --- ------ ----- --<br>----- ----- ---------- --- --- ------ ------ ---- -- ------<br>------- --- ------ ----- was ---- ------- -- ---- --- --<br>------- ------,251562.4400000088,251561.35999999242,251273.228,251272.67999999458,251290.155,251573.237,,47,was
screen,html.Screen,1_1_1_1_48,2021-04-17T16:14:28.515Z,,,,,,,,,,,,,,,,54,,,,,,,,,,,,,,302.1679999988701,,response,,,,100,,,,,,,Space,keypress(Space),,,,,,,,-- --- ---- --- ------ ----- ------- ---- -- --- ------- --<br>------- ---------- ------ -- ----- -- ----- -- ---- ------<br>--- ----- --- --- ------ -------- ----- --- ------ ----- --<br>----- ----- ---------- --- --- ------ ------ ---- -- ------<br>------- --- ------ ----- --- left ------- -- ---- --- --<br>------- ------,251876.36500003282,251875.40499999886,251556.551,251562.6100000227,251573.237,251890.072,,48,left
screen,html.Screen,1_1_1_1_49,2021-04-17T16:14:28.840Z,,,,,,,,,,,,,,,,54,,,,,,,,,,,,,,310.55799997755094,,response,,,,100,,,,,,,Space,keypress(Space),,,,,,,,-- --- ---- --- ------ ----- ------- ---- -- --- ------- --<br>------- ---------- ------ -- ----- -- ----- -- ---- ------<br>--- ----- --- --- ------ -------- ----- --- ------ ----- --<br>----- ----- ---------- --- --- ------ ------ ---- -- ------<br>------- --- ------ ----- --- ---- without -- ---- --- --<br>------- ------,252201.4799999888,252200.62999997754,251873.348,251876.5349999885,251890.072,252206.466,,49,without
screen,html.Screen,1_1_1_1_50,2021-04-17T16:14:29.134Z,,,,,,,,,,,,,,,,54,,,,,,,,,,,,,,287.9090000093274,,response,,,,100,,,,,,,Space,keypress(Space),,,,,,,,-- --- ---- --- ------ ----- ------- ---- -- --- ------- --<br>------- ---------- ------ -- ----- -- ----- -- ---- ------<br>--- ----- --- --- ------ -------- ----- --- ------ ----- --<br>----- ----- ---------- --- --- ------ ------ ---- -- ------<br>------- --- ------ ----- --- ---- ------- an ---- --- --<br>------- ------,252495.3899999964,252494.3750000093,252190.156,252201.6350000049,252206.466,252506.696,,50,an
screen,html.Screen,1_1_1_1_51,2021-04-17T16:14:29.427Z,,,,,,,,,,,,,,,,54,,,,,,,,,,,,,,281.1440000045113,,response,,,,100,,,,,,,Space,keypress(Space),,,,,,,,-- --- ---- --- ------ ----- ------- ---- -- --- ------- --<br>------- ---------- ------ -- ----- -- ----- -- ---- ------<br>--- ----- --- --- ------ -------- ----- --- ------ ----- --<br>----- ----- ---------- --- --- ------ ------ ---- -- ------<br>------- --- ------ ----- --- ---- ------- -- easy --- --<br>------- ------,252788.61500002677,252787.8400000045,252489.761,252495.64500001725,252506.696,252814.3,,51,easy
screen,html.Screen,1_1_1_1_52,2021-04-17T16:14:29.778Z,,,,,,,,,,,,,,,,54,,,,,,,,,,,,,,323.5600000171107,,response,,,,100,,,,,,,Space,keypress(Space),,,,,,,,-- --- ---- --- ------ ----- ------- ---- -- --- ------- --<br>------- ---------- ------ -- ----- -- ----- -- ---- ------<br>--- ----- --- --- ------ -------- ----- --- ------ ----- --<br>----- ----- ---------- --- --- ------ ------ ---- -- ------<br>------- --- ------ ----- --- ---- ------- -- ---- way --<br>------- ------,253138.7349999859,253137.8600000171,252773.395,252788.78499998245,252814.3,253171.446,,52,way
screen,html.Screen,1_1_1_1_53,2021-04-17T16:14:30.107Z,,,,,,,,,,,,,,,,54,,,,,,,,,,,,,,295.2989999833517,,response,,,,100,,,,,,,Space,keypress(Space),,,,,,,,-- --- ---- --- ------ ----- ------- ---- -- --- ------- --<br>------- ---------- ------ -- ----- -- ----- -- ---- ------<br>--- ----- --- --- ------ -------- ----- --- ------ ----- --<br>----- ----- ---------- --- --- ------ ------ ---- -- ------<br>------- --- ------ ----- --- ---- ------- -- ---- --- of<br>------- ------,253467.6450000261,253466.74499998335,253123.233,253138.94500001334,253171.446,253472.96,,53,of
screen,html.Screen,1_1_1_1_54,2021-04-17T16:14:30.548Z,,,,,,,,,,,,,,,,54,,,,,,,,,,,,,,434.6499999947555,,response,,,,100,,,,,,,Space,keypress(Space),,,,,,,,-- --- ---- --- ------ ----- ------- ---- -- --- ------- --<br>------- ---------- ------ -- ----- -- ----- -- ---- ------<br>--- ----- --- --- ------ -------- ----- --- ------ ----- --<br>----- ----- ---------- --- --- ------ ------ ---- -- ------<br>------- --- ------ ----- --- ---- ------- -- ---- --- --<br>raising ------,253908.67500001332,253907.60999999475,253456.51,253467.80500002205,253472.96,253923.324,,54,raising
screen,html.Screen,1_1_1_1_55,2021-04-17T16:14:31.099Z,,,,,,,,,,,,,,,,54,,,,,,,,,,,,,,536.1010000082024,,response,,,,100,,,,,,,Space,keypress(Space),,,,,,,,-- --- ---- --- ------ ----- ------- ---- -- --- ------- --<br>------- ---------- ------ -- ----- -- ----- -- ---- ------<br>--- ----- --- --- ------ -------- ----- --- ------ ----- --<br>----- ----- ---------- --- --- ------ ------ ---- -- ------<br>------- --- ------ ----- --- ---- ------- -- ---- --- --<br>------- money.,254460.29499999713,254459.4250000082,253906.362,253908.86000002502,253923.324,254472.782,,55,money.
Item 100,flow.Loop,1_1_1_1,2021-04-17T16:14:31.099Z,,,,,,,,,,,,,,,,,,,,,,,,,,,,,,28849.36400000821,,completion,,,,,E,,,,,,,,,,,silence,,,,,254460.59500001138,254459.4250000082,225593.256,225594.84500001417,225610.061,254472.782,,,
Question 1,html.Screen,1_1_1_2,2021-04-17T16:14:34.592Z,,,,,,,,,,,,,,,,,,,,,,,,,,,true,TRUE,,3479.262999983621,,response,,,,100,E,,,,,,TRUE,click #choice-1,,,,silence,,,,,257953.32999998936,257952.04499998363,254456.188,254460.7299999916,254472.782,257955.724,,,
Question 2,html.Screen,1_1_1_3,2021-04-17T16:14:39.742Z,,,,,,,,,,,,,,,,,,,,,,,,,,,true,FALSE,,5145.436000020185,,response,,,,100,E,,,,,,FALSE,click #choice-2,,,,silence,,,,,263102.69999998854,263101.1600000202,257939.245,257953.56500003254,257955.724,263104.983,,,
Item 100,flow.Sequence,1_1_1,2021-04-17T16:14:39.742Z,,,,,,,,,,,,,,,,,,,,,,,,,,,,,,47490.024000020174,,completion,,,,,,,,,,,,,,,,,,,,,263102.9800000251,263101.1600000202,215594.589,215597.29499998502,215611.136,263104.983,,,
End of Practice,html.Page,1_1_2,2021-04-17T16:14:43.531Z,,,,,,,,,,,,,,,,,,,,,,,,,,,,,,3786.952000021469,,form submission,,,,,,,,,,,,,,,,,,,,,266892.44500000495,266891.9350000215,263088.411,263103.1100000255,263104.983,266904.822,,,
Practice,flow.Sequence,1_1,2021-04-17T16:14:43.532Z,,,,,,,,,,,,,,,,,,,,,,,,,,,,,,100141.08800002147,,completion,,,,,,,,,,,,,,,,,,,,,266892.72499998333,266891.9350000215,166734.327,166748.06000001263,166750.847,266904.822,,,
Trap_instruction,html.Page,1_2_0,2021-04-17T16:14:45.596Z,,,,,,,,,,,,,,,,,,,,,,,,,,,,,,2051.423000008508,,form submission,,,,,,,,,,,,,,,,,,,,,268956.829999981,268956.2450000085,266888.296,266892.89000001736,266904.822,269004.254,,,
trap_trial,html.Screen,1_2_1,2021-04-17T16:14:50.656Z,,,,,,,,,,,,,,,,,,,,,,,,,,,true,1,,5010.531000006653,,response,,,,,,,,,,,1,click #choice-1,,,,,,,,,274016.69000001857,274014.78500000667,268954.5,268957.02000003075,269004.254,274020.476,,,
end of trap trial,html.Page,1_2_2,2021-04-17T16:14:53.382Z,,,,,,,,,,,,,,,,,,,,,,,,,,,,,,2722.04900000873,,form submission,,,,,,,,,,,,,,,,,,,,,276743.0100000347,276742.52500000875,274003.878,274016.9449999812,274020.476,276753.288,,,
Trap 1,flow.Sequence,1_2,2021-04-17T16:14:53.382Z,,,,,,,,,,,,,,,,,,,,,,,,,,,,,,9837.703000008769,,completion,,,,,,,,,,,,,,,,,,,,,276743.23500000173,276742.52500000875,266888.296,266892.84500002395,266904.822,276753.288,,,
Standby,html.Page,1_3_0,2021-04-17T16:15:01.376Z,,,,,,,,,,,,,,,,,,,,,,,,,,,,,,7999.005999999994,,timeout,,,,,,,,,,,,,,,,,,,,,284736.9750000071,284735.573,276736.589,276743.37500002,276753.288,284752.294,,,
Holding screen,html.Screen,1_3_1_0_0,2021-04-17T16:15:08.375Z,,,,,,,,,,,,,,,,,,,,,,,,,,,,,,6999.168000000005,,timeout,,,,,,,,,,,,,,,,,,,,,291735.7850000262,291734.675,284735.573,284737.2750000213,284752.294,291751.462,,,
screen,html.Screen,1_3_1_0_1_0,2021-04-17T16:15:10.639Z,,,,,,,,,,,,,,,,11,,,,,,,,,,,,,,2247.74799997994,,response,,,,4,E,,,,,,Space,keypress(Space),,,,lyrical,,,,Known -- ---- --- -- --- -------- ------------ ---------- --<br>- ------- ------ --------- -- ------------ -- --- ---- -----<br>------ ---- ---- ------ ------ ------- --- ----- ---------<br>---- --- -------- -------- --- --- -- ------- --- --- -----<br>-- --- ------ ------- --- --- -------- ---- --------- --<br>---------- -- -------- ----------------,294000.48500002595,293999.20999997994,291734.675,291736.08499998227,291751.462,294001.004,,0,Known
screen,html.Screen,1_3_1_0_1_1,2021-04-17T16:15:11.025Z,,,,,,,,,,,,,,,,11,,,,,,,,,,,,,,383.2410000229138,,response,,,,4,E,,,,,,Space,keypress(Space),,,,lyrical,,,,----- as ---- --- -- --- -------- ------------ ---------- --<br>- ------- ------ --------- -- ------------ -- --- ---- -----<br>------ ---- ---- ------ ------ ------- --- ----- ---------<br>---- --- -------- -------- --- --- -- ------- --- --- -----<br>-- --- ------ ------- --- --- -------- ---- --------- --<br>---------- -- -------- ----------------,294385.95000002533,294384.24500002293,293984.309,294000.74500002665,294001.004,294401.006,,1,as
screen,html.Screen,1_3_1_0_1_2,2021-04-17T16:15:11.384Z,,,,,,,,,,,,,,,,11,,,,,,,,,,,,,,343.0340000196011,,response,,,,4,E,,,,,,Space,keypress(Space),,,,lyrical,,,,----- -- Rapa --- -- --- -------- ------------ ---------- --<br>- ------- ------ --------- -- ------------ -- --- ---- -----<br>------ ---- ---- ------ ------ ------- --- ----- ---------<br>---- --- -------- -------- --- --- -- ------- --- --- -----<br>-- --- ------ ------- --- --- -------- ---- --------- --<br>---------- -- -------- ----------------,294744.8399999994,294744.0400000196,294384.333,294386.1550000147,294401.006,294750.889,,2,Rapa
screen,html.Screen,1_3_1_0_1_3,2021-04-17T16:15:11.906Z,,,,,,,,,,,,,,,,11,,,,,,,,,,,,,,515.3960000196821,,response,,,,4,E,,,,,,Space,keypress(Space),,,,lyrical,,,,----- -- ---- Nui -- --- -------- ------------ ---------- --<br>- ------- ------ --------- -- ------------ -- --- ---- -----<br>------ ---- ---- ------ ------ ------- --- ----- ---------<br>---- --- -------- -------- --- --- -- ------- --- --- -----<br>-- --- ------ ------- --- --- -------- ---- --------- --<br>---------- -- -------- ----------------,295267.26500003133,295266.2850000197,294734.279,294745.0200000312,294750.889,295284.232,,3,Nui
screen,html.Screen,1_3_1_0_1_4,2021-04-17T16:15:13.583Z,,,,,,,,,,,,,,,,11,,,,,,,,,,,,,,1658.723000034981,,response,,,,4,E,,,,,,Space,keypress(Space),,,,lyrical,,,,----- -- ---- --- to --- -------- ------------ ---------- --<br>- ------- ------ --------- -- ------------ -- --- ---- -----<br>------ ---- ---- ------ ------ ------- --- ----- ---------<br>---- --- -------- -------- --- --- -- ------- --- --- -----<br>-- --- ------ ------- --- --- -------- ---- --------- --<br>---------- -- -------- ----------------,296943.90000001295,296942.955000035,295267.468,295267.44500000495,295284.232,296950.697,,4,to
screen,html.Screen,1_3_1_0_1_5,2021-04-17T16:15:13.954Z,,,,,,,,,,,,,,,,11,,,,,,,,,,,,,,363.3130000309902,,response,,,,4,E,,,,,,Space,keypress(Space),,,,lyrical,,,,----- -- ---- --- -- the -------- ------------ ---------- --<br>- ------- ------ --------- -- ------------ -- --- ---- -----<br>------ ---- ---- ------ ------ ------- --- ----- ---------<br>---- --- -------- -------- --- --- -- ------- --- --- -----<br>-- --- ------ ------- --- --- -------- ---- --------- --<br>---------- -- -------- ----------------,297314.9550000089,297314.010000031,296935.038,296944.0750000067,296950.697,297317.239,,5,the
screen,html.Screen,1_3_1_0_1_6,2021-04-17T16:15:14.292Z,,,,,,,,,,,,,,,,11,,,,,,,,,,,,,,335.3610000303597,,response,,,,4,E,,,,,,Space,keypress(Space),,,,lyrical,,,,----- -- ---- --- -- --- island's ------------ ---------- --<br>- ------- ------ --------- -- ------------ -- --- ---- -----<br>------ ---- ---- ------ ------ ------- --- ----- ---------<br>---- --- -------- -------- --- --- -- ------- --- --- -----<br>-- --- ------ ------- --- --- -------- ---- --------- --<br>---------- -- -------- ----------------,297653.4649999812,297652.60000003036,297300.641,297315.1450000005,297317.239,297667.28,,6,island's
screen,html.Screen,1_3_1_0_1_7,2021-04-17T16:15:14.651Z,,,,,,,,,,,,,,,,11,,,,,,,,,,,,,,343.74999999417923,,response,,,,4,E,,,,,,Space,keypress(Space),,,,lyrical,,,,"----- -- ---- --- -- --- -------- inhabitants, ---------- --<br>- ------- ------ --------- -- ------------ -- --- ---- -----<br>------ ---- ---- ------ ------ ------- --- ----- ---------<br>---- --- -------- -------- --- --- -- ------- --- --- -----<br>-- --- ------ ------- --- --- -------- ---- --------- --<br>---------- -- -------- ----------------",298011.8900000234,298011.0299999942,297650.562,297653.6499999929,297667.28,298017.142,,7,"inhabitants,"
screen,html.Screen,1_3_1_0_1_8,2021-04-17T16:15:15.300Z,,,,,,,,,,,,,,,,11,,,,,,,,,,,,,,643.3280000025406,,response,,,,4,E,,,,,,Space,keypress(Space),,,,lyrical,,,,----- -- ---- --- -- --- -------- ------------ Rongorongo --<br>- ------- ------ --------- -- ------------ -- --- ---- -----<br>------ ---- ---- ------ ------ ------- --- ----- ---------<br>---- --- -------- -------- --- --- -- ------- --- --- -----<br>-- --- ------ ------- --- --- -------- ---- --------- --<br>---------- -- -------- ----------------,298661.51000000536,298660.47000000253,298000.508,298012.0950000128,298017.142,298667.089,,8,Rongorongo
screen,html.Screen,1_3_1_0_1_9,2021-04-17T16:15:15.960Z,,,,,,,,,,,,,,,,11,,,,,,,,,,,,,,652.7910000245902,,response,,,,4,E,,,,,,Space,keypress(Space),,,,lyrical,,,,----- -- ---- --- -- --- -------- ------------ ---------- is<br>- ------- ------ --------- -- ------------ -- --- ---- -----<br>------ ---- ---- ------ ------ ------- --- ----- ---------<br>---- --- -------- -------- --- --- -- ------- --- --- -----<br>-- --- ------ ------- --- --- -------- ---- --------- --<br>---------- -- -------- ----------------,299320.68000000436,299319.88000002457,298650.62,298661.75999998813,298667.089,299333.736,,9,is
screen,html.Screen,1_3_1_0_1_10,2021-04-17T16:15:16.365Z,,,,,,,,,,,,,,,,11,,,,,,,,,,,,,,391.04399998957524,,response,,,,4,E,,,,,,Space,keypress(Space),,,,lyrical,,,,----- -- ---- --- -- --- -------- ------------ ---------- --<br>a ------- ------ --------- -- ------------ -- --- ---- -----<br>------ ---- ---- ------ ------ ------- --- ----- ---------<br>---- --- -------- -------- --- --- -- ------- --- --- -----<br>-- --- ------ ------- --- --- -------- ---- --------- --<br>---------- -- -------- ----------------,299725.6650000345,299724.77999998955,299317.027,299320.8449999802,299333.736,299733.703,,10,a
screen,html.Screen,1_3_1_0_1_11,2021-04-17T16:15:16.736Z,,,,,,,,,,,,,,,,11,,,,,,,,,,,,,,362.0220000210684,,response,,,,4,E,,,,,,Space,keypress(Space),,,,lyrical,,,,----- -- ---- --- -- --- -------- ------------ ---------- --<br>- writing ------ --------- -- ------------ -- --- ---- -----<br>------ ---- ---- ------ ------ ------- --- ----- ---------<br>---- --- -------- -------- --- --- -- ------- --- --- -----<br>-- --- ------ ------- --- --- -------- ---- --------- --<br>---------- -- -------- ----------------,300096.64499998325,300095.72500002105,299717.023,299725.8649999858,299733.703,300100.164,,11,writing
screen,html.Screen,1_3_1_0_1_12,2021-04-17T16:15:17.106Z,,,,,,,,,,,,,,,,11,,,,,,,,,,,,,,366.29099998704623,,response,,,,4,E,,,,,,Space,keypress(Space),,,,lyrical,,,,----- -- ---- --- -- --- -------- ------------ ---------- --<br>- ------- system --------- -- ------------ -- --- ---- -----<br>------ ---- ---- ------ ------ ------- --- ----- ---------<br>---- --- -------- -------- --- --- -- ------- --- --- -----<br>-- --- ------ ------- --- --- -------- ---- --------- --<br>---------- -- -------- ----------------,300467.57500001695,300466.45499998704,300083.714,300096.835000033,300100.164,300483.728,,12,system
screen,html.Screen,1_3_1_0_1_13,2021-04-17T16:15:17.623Z,,,,,,,,,,,,,,,,11,,,,,,,,,,,,,,498.5170000210637,,response,,,,4,E,,,,,,Space,keypress(Space),,,,lyrical,,,,----- -- ---- --- -- --- -------- ------------ ---------- --<br>- ------- ------ comprised -- ------------ -- --- ---- -----<br>------ ---- ---- ------ ------ ------- --- ----- ---------<br>---- --- -------- -------- --- --- -- ------- --- --- -----<br>-- --- ------ ------- --- --- -------- ---- --------- --<br>---------- -- -------- ----------------,300983.7600000319,300982.24500002107,300466.85,300467.7699999884,300483.728,301000.275,,13,comprised
screen,html.Screen,1_3_1_0_1_14,2021-04-17T16:15:18.042Z,,,,,,,,,,,,,,,,11,,,,,,,,,,,,,,401.8899999776622,,response,,,,4,E,,,,,,Space,keypress(Space),,,,lyrical,,,,----- -- ---- --- -- --- -------- ------------ ---------- --<br>- ------- ------ --------- of ------------ -- --- ---- -----<br>------ ---- ---- ------ ------ ------- --- ----- ---------<br>---- --- -------- -------- --- --- -- ------- --- --- -----<br>-- --- ------ ------- --- --- -------- ---- --------- --<br>---------- -- -------- ----------------,301403.15500000725,301402.1649999777,300983.526,300984.0050000348,301000.275,301416.712,,14,of
screen,html.Screen,1_3_1_0_1_15,2021-04-17T16:15:19.515Z,,,,,,,,,,,,,,,,11,,,,,,,,,,,,,,1458.5330000029062,,response,,,,4,E,,,,,,Space,keypress(Space),,,,lyrical,,,,----- -- ---- --- -- --- -------- ------------ ---------- --<br>- ------- ------ --------- -- pictographs. -- --- ---- -----<br>------ ---- ---- ------ ------ ------- --- ----- ---------<br>---- --- -------- -------- --- --- -- ------- --- --- -----<br>-- --- ------ ------- --- --- -------- ---- --------- --<br>---------- -- -------- ----------------,302876.3700000127,302875.2450000029,301400.072,301403.3599999966,301416.712,302883.244,,15,pictographs.
screen,html.Screen,1_3_1_0_1_16,2021-04-17T16:15:20.047Z,,,,,,,,,,,,,,,,11,,,,,,,,,,,,,,523.5110000036075,,response,,,,4,E,,,,,,Space,keypress(Space),,,,lyrical,,,,----- -- ---- --- -- --- -------- ------------ ---------- --<br>- ------- ------ --------- -- ------------ It --- ---- -----<br>------ ---- ---- ------ ------ ------- --- ----- ---------<br>---- --- -------- -------- --- --- -- ------- --- --- -----<br>-- --- ------ ------- --- --- -------- ---- --------- --<br>---------- -- -------- ----------------,303407.91499998886,303406.7550000036,302866.686,302876.5499999863,302883.244,303416.648,,16,It
screen,html.Screen,1_3_1_0_1_17,2021-04-17T16:15:20.527Z,,,,,,,,,,,,,,,,11,,,,,,,,,,,,,,470.0919999871985,,response,,,,4,E,,,,,,Space,keypress(Space),,,,lyrical,,,,----- -- ---- --- -- --- -------- ------------ ---------- --<br>- ------- ------ --------- -- ------------ -- has ---- -----<br>------ ---- ---- ------ ------ ------- --- ----- ---------<br>---- --- -------- -------- --- --- -- ------- --- --- -----<br>-- --- ------ ------- --- --- -------- ---- --------- --<br>---------- -- -------- ----------------,303887.7850000281,303886.7399999872,303400.122,303408.1049999804,303416.648,303900.007,,17,has
screen,html.Screen,1_3_1_0_1_18,2021-04-17T16:15:20.877Z,,,,,,,,,,,,,,,,11,,,,,,,,,,,,,,337.0930000275839,,response,,,,4,E,,,,,,Space,keypress(Space),,,,lyrical,,,,----- -- ---- --- -- --- -------- ------------ ---------- --<br>- ------- ------ --------- -- ------------ -- --- been -----<br>------ ---- ---- ------ ------ ------- --- ----- ---------<br>---- --- -------- -------- --- --- -- ------- --- --- -----<br>-- --- ------ ------- --- --- -------- ---- --------- --<br>---------- -- -------- ----------------,304238.1049999967,304237.10000002757,303883.435,303887.9699999816,303900.007,304249.746,,18,been
screen,html.Screen,1_3_1_0_1_19,2021-04-17T16:15:21.341Z,,,,,,,,,,,,,,,,11,,,,,,,,,,,,,,451.9590000140597,,response,,,,4,E,,,,,,Space,keypress(Space),,,,lyrical,,,,----- -- ---- --- -- --- -------- ------------ ---------- --<br>- ------- ------ --------- -- ------------ -- --- ---- found<br>------ ---- ---- ------ ------ ------- --- ----- ---------<br>---- --- -------- -------- --- --- -- ------- --- --- -----<br>-- --- ------ ------- --- --- -------- ---- --------- --<br>---------- -- -------- ----------------,304702.6349999942,304701.70500001404,304233.351,304238.28500002855,304249.746,304716.352,,19,found
screen,html.Screen,1_3_1_0_1_20,2021-04-17T16:15:21.632Z,,,,,,,,,,,,,,,,11,,,,,,,,,,,,,,275.5429999846383,,response,,,,4,E,,,,,,Space,keypress(Space),,,,lyrical,,,,----- -- ---- --- -- --- -------- ------------ ---------- --<br>- ------- ------ --------- -- ------------ -- --- ---- -----<br>carved ---- ---- ------ ------ ------- --- ----- ---------<br>---- --- -------- -------- --- --- -- ------- --- --- -----<br>-- --- ------ ------- --- --- -------- ---- --------- --<br>---------- -- -------- ----------------,304993.12499997905,304991.89499998465,304699.922,304702.7900000103,304716.352,304999.634,,20,carved
screen,html.Screen,1_3_1_0_1_21,2021-04-17T16:15:22.223Z,,,,,,,,,,,,,,,,11,,,,,,,,,,,,,,583.9110000013025,,response,,,,4,E,,,,,,Space,keypress(Space),,,,lyrical,,,,----- -- ---- --- -- --- -------- ------------ ---------- --<br>- ------- ------ --------- -- ------------ -- --- ---- -----<br>------ into ---- ------ ------ ------- --- ----- ---------<br>---- --- -------- -------- --- --- -- ------- --- --- -----<br>-- --- ------ ------- --- --- -------- ---- --------- --<br>---------- -- -------- ----------------,305584.5749999862,305583.5450000013,304983.147,304993.2900000131,304999.634,305599.489,,21,into
screen,html.Screen,1_3_1_0_1_22,2021-04-17T16:15:22.607Z,,,,,,,,,,,,,,,,11,,,,,,,,,,,,,,368.0759999990114,,response,,,,4,E,,,,,,Space,keypress(Space),,,,lyrical,,,,----- -- ---- --- -- --- -------- ------------ ---------- --<br>- ------- ------ --------- -- ------------ -- --- ---- -----<br>------ ---- many ------ ------ ------- --- ----- ---------<br>---- --- -------- -------- --- --- -- ------- --- --- -----<br>-- --- ------ ------- --- --- -------- ---- --------- --<br>---------- -- -------- ----------------,305968.43499998795,305967.564999999,305582.893,305584.7450000001,305599.489,305983.083,,22,many
screen,html.Screen,1_3_1_0_1_23,2021-04-17T16:15:23.033Z,,,,,,,,,,,,,,,,11,,,,,,,,,,,,,,409.8620000287192,,response,,,,4,E,,,,,,Space,keypress(Space),,,,lyrical,,,,----- -- ---- --- -- --- -------- ------------ ---------- --<br>- ------- ------ --------- -- ------------ -- --- ---- -----<br>------ ---- ---- oblong ------ ------- --- ----- ---------<br>---- --- -------- -------- --- --- -- ------- --- --- -----<br>-- --- ------ ------- --- --- -------- ---- --------- --<br>---------- -- -------- ----------------,306393.8199999975,306392.9450000287,305966.218,305968.600000022,305983.083,306399.48,,23,oblong
screen,html.Screen,1_3_1_0_1_24,2021-04-17T16:15:23.396Z,,,,,,,,,,,,,,,,11,,,,,,,,,,,,,,356.74500001920387,,response,,,,4,E,,,,,,Space,keypress(Space),,,,lyrical,,,,----- -- ---- --- -- --- -------- ------------ ---------- --<br>- ------- ------ --------- -- ------------ -- --- ---- -----<br>------ ---- ---- ------ wooden ------- --- ----- ---------<br>---- --- -------- -------- --- --- -- ------- --- --- -----<br>-- --- ------ ------- --- --- -------- ---- --------- --<br>---------- -- -------- ----------------,306757.16999999713,306756.2250000192,306382.742,306393.96499999566,306399.48,306766.023,,24,wooden
screen,html.Screen,1_3_1_0_1_25,2021-04-17T16:15:23.980Z,,,,,,,,,,,,,,,,11,,,,,,,,,,,,,,574.1420000014477,,response,,,,4,E,,,,,,Space,keypress(Space),,,,lyrical,,,,----- -- ---- --- -- --- -------- ------------ ---------- --<br>- ------- ------ --------- -- ------------ -- --- ---- -----<br>------ ---- ---- ------ ------ tablets --- ----- ---------<br>---- --- -------- -------- --- --- -- ------- --- --- -----<br>-- --- ------ ------- --- --- -------- ---- --------- --<br>---------- -- -------- ----------------,307341.27000003355,307340.16500000143,306749.43,306757.3599999887,306766.023,307349.35,,25,tablets
screen,html.Screen,1_3_1_0_1_26,2021-04-17T16:15:24.287Z,,,,,,,,,,,,,,,,11,,,,,,,,,,,,,,298.0699999938952,,response,,,,4,E,,,,,,Space,keypress(Space),,,,lyrical,,,,----- -- ---- --- -- --- -------- ------------ ---------- --<br>- ------- ------ --------- -- ------------ -- --- ---- -----<br>------ ---- ---- ------ ------ ------- and ----- ---------<br>---- --- -------- -------- --- --- -- ------- --- --- -----<br>-- --- ------ ------- --- --- -------- ---- --------- --<br>---------- -- -------- ----------------,307648.28500000294,307647.4199999939,307332.586,307341.4600000251,307349.35,307678.757,,26,and
screen,html.Screen,1_3_1_0_1_27,2021-04-17T16:15:24.936Z,,,,,,,,,,,,,,,,11,,,,,,,,,,,,,,616.8130000166129,,response,,,,4,E,,,,,,Space,keypress(Space),,,,lyrical,,,,----- -- ---- --- -- --- -------- ------------ ---------- --<br>- ------- ------ --------- -- ------------ -- --- ---- -----<br>------ ---- ---- ------ ------ ------- --- other ---------<br>---- --- -------- -------- --- --- -- ------- --- --- -----<br>-- --- ------ ------- --- --- -------- ---- --------- --<br>---------- -- -------- ----------------,308296.6800000286,308295.5700000166,307632.654,307648.4599999967,307678.757,308299.161,,27,other
screen,html.Screen,1_3_1_0_1_28,2021-04-17T16:15:25.785Z,,,,,,,,,,,,,,,,11,,,,,,,,,,,,,,846.4989999801037,,response,,,,4,E,,,,,,Space,keypress(Space),,,,lyrical,,,,----- -- ---- --- -- --- -------- ------------ ---------- --<br>- ------- ------ --------- -- ------------ -- --- ---- -----<br>------ ---- ---- ------ ------ ------- --- ----- artifacts<br>---- --- -------- -------- --- --- -- ------- --- --- -----<br>-- --- ------ ------- --- --- -------- ---- --------- --<br>---------- -- -------- ----------------,309146.5099999914,309145.6599999801,308282.807,308296.85500002233,308299.161,309149.055,,28,artifacts
screen,html.Screen,1_3_1_0_1_29,2021-04-17T16:15:26.347Z,,,,,,,,,,,,,,,,11,,,,,,,,,,,,,,557.7650000212598,,response,,,,4,E,,,,,,Space,keypress(Space),,,,lyrical,,,,----- -- ---- --- -- --- -------- ------------ ---------- --<br>- ------- ------ --------- -- ------------ -- --- ---- -----<br>------ ---- ---- ------ ------ ------- --- ----- ---------<br>from --- -------- -------- --- --- -- ------- --- --- -----<br>-- --- ------ ------- --- --- -------- ---- --------- --<br>---------- -- -------- ----------------,309707.76999997906,309706.82000002125,309132.581,309146.6650000075,309149.055,309715.637,,29,from
screen,html.Screen,1_3_1_0_1_30,2021-04-17T16:15:26.863Z,,,,,,,,,,,,,,,,11,,,,,,,,,,,,,,507.68800002813805,,response,,,,4,E,,,,,,Space,keypress(Space),,,,lyrical,,,,----- -- ---- --- -- --- -------- ------------ ---------- --<br>- ------- ------ --------- -- ------------ -- --- ---- -----<br>------ ---- ---- ------ ------ ------- --- ----- ---------<br>---- the -------- -------- --- --- -- ------- --- --- -----<br>-- --- ------ ------- --- --- -------- ---- --------- --<br>---------- -- -------- ----------------,310224.5100000291,310223.3250000281,309699.151,309707.93000003323,309715.637,310232.493,,30,the
screen,html.Screen,1_3_1_0_1_31,2021-04-17T16:15:27.607Z,,,,,,,,,,,,,,,,11,,,,,,,,,,,,,,734.6920000158716,,response,,,,4,E,,,,,,Space,keypress(Space),,,,lyrical,,,,----- -- ---- --- -- --- -------- ------------ ---------- --<br>- ------- ------ --------- -- ------------ -- --- ---- -----<br>------ ---- ---- ------ ------ ------- --- ----- ---------<br>---- --- island's -------- --- --- -- ------- --- --- -----<br>-- --- ------ ------- --- --- -------- ---- --------- --<br>---------- -- -------- ----------------,310968.1350000319,310967.1850000159,310215.621,310224.7000000207,310232.493,310982.448,,31,island's
screen,html.Screen,1_3_1_0_1_32,2021-04-17T16:15:29.252Z,,,,,,,,,,,,,,,,11,,,,,,,,,,,,,,1629.3620000312803,,response,,,,4,E,,,,,,Space,keypress(Space),,,,lyrical,,,,----- -- ---- --- -- --- -------- ------------ ---------- --<br>- ------- ------ --------- -- ------------ -- --- ---- -----<br>------ ---- ---- ------ ------ ------- --- ----- ---------<br>---- --- -------- history. --- --- -- ------- --- --- -----<br>-- --- ------ ------- --- --- -------- ---- --------- --<br>---------- -- -------- ----------------,312612.76500002714,312611.81000003126,310965.461,310968.3049999876,310982.448,312615.228,,32,history.
screen,html.Screen,1_3_1_0_1_33,2021-04-17T16:15:29.723Z,,,,,,,,,,,,,,,,11,,,,,,,,,,,,,,467.4870000259252,,response,,,,4,E,,,,,,Space,keypress(Space),,,,lyrical,,,,----- -- ---- --- -- --- -------- ------------ ---------- --<br>- ------- ------ --------- -- ------------ -- --- ---- -----<br>------ ---- ---- ------ ------ ------- --- ----- ---------<br>---- --- -------- -------- The --- -- ------- --- --- -----<br>-- --- ------ ------- --- --- -------- ---- --------- --<br>---------- -- -------- ----------------,313083.7450000108,313082.7150000259,312598.535,312612.9400000209,312615.228,313098.791,,33,The
screen,html.Screen,1_3_1_0_1_34,2021-04-17T16:15:30.243Z,,,,,,,,,,,,,,,,11,,,,,,,,,,,,,,504.63900001737056,,response,,,,4,E,,,,,,Space,keypress(Space),,,,lyrical,,,,----- -- ---- --- -- --- -------- ------------ ---------- --<br>- ------- ------ --------- -- ------------ -- --- ---- -----<br>------ ---- ---- ------ ------ ------- --- ----- ---------<br>---- --- -------- -------- --- art -- ------- --- --- -----<br>-- --- ------ ------- --- --- -------- ---- --------- --<br>---------- -- -------- ----------------,313604.3250000221,313603.4300000174,313081.824,313083.90999998664,313098.791,313615.284,,34,art
screen,html.Screen,1_3_1_0_1_35,2021-04-17T16:15:30.645Z,,,,,,,,,,,,,,,,11,,,,,,,,,,,,,,389.44599998602644,,response,,,,4,E,,,,,,Space,keypress(Space),,,,lyrical,,,,----- -- ---- --- -- --- -------- ------------ ---------- --<br>- ------- ------ --------- -- ------------ -- --- ---- -----<br>------ ---- ---- ------ ------ ------- --- ----- ---------<br>---- --- -------- -------- --- --- of ------- --- --- -----<br>-- --- ------ ------- --- --- -------- ---- --------- --<br>---------- -- -------- ----------------,314006.08999998076,314004.729999986,313598.873,313604.51500001363,313615.284,314015.136,,35,of
screen,html.Screen,1_3_1_0_1_36,2021-04-17T16:15:30.949Z,,,,,,,,,,,,,,,,11,,,,,,,,,,,,,,293.83899999264395,,response,,,,4,E,,,,,,Space,keypress(Space),,,,lyrical,,,,----- -- ---- --- -- --- -------- ------------ ---------- --<br>- ------- ------ --------- -- ------------ -- --- ---- -----<br>------ ---- ---- ------ ------ ------- --- ----- ---------<br>---- --- -------- -------- --- --- -- writing --- --- -----<br>-- --- ------ ------- --- --- -------- ---- --------- --<br>---------- -- -------- ----------------,314309.9299999885,314308.97499999264,313998.752,314006.2800000305,314015.136,314315.085,,36,writing
screen,html.Screen,1_3_1_0_1_37,2021-04-17T16:15:31.290Z,,,,,,,,,,,,,,,,11,,,,,,,,,,,,,,334.5400000200025,,response,,,,4,E,,,,,,Space,keypress(Space),,,,lyrical,,,,----- -- ---- --- -- --- -------- ------------ ---------- --<br>- ------- ------ --------- -- ------------ -- --- ---- -----<br>------ ---- ---- ------ ------ ------- --- ----- ---------<br>---- --- -------- -------- --- --- -- ------- was --- -----<br>-- --- ------ ------- --- --- -------- ---- --------- --<br>---------- -- -------- ----------------,314650.7650000276,314649.62500002,314298.629,314310.11000002036,314315.085,314665.398,,37,was
screen,html.Screen,1_3_1_0_1_38,2021-04-17T16:15:31.588Z,,,,,,,,,,,,,,,,11,,,,,,,,,,,,,,282.67700002208585,,response,,,,4,E,,,,,,Space,keypress(Space),,,,lyrical,,,,----- -- ---- --- -- --- -------- ------------ ---------- --<br>- ------- ------ --------- -- ------------ -- --- ---- -----<br>------ ---- ---- ------ ------ ------- --- ----- ---------<br>---- --- -------- -------- --- --- -- ------- --- not -----<br>-- --- ------ ------- --- --- -------- ---- --------- --<br>---------- -- -------- ----------------,314949.0700000315,314948.0750000221,314648.348,314651.0700000217,314665.398,314965.148,,38,not
