sender,sender_type,sender_id,timestamp,meta,,Blues,Classical,Country,Dance,Electronic,Folk,Gospel,Hip-Hop,Jazz,Latin,Musical/Film,New-age,Pop,Provo_ID,R&B,Rap,Reggae,Religious,Rock,Soul,Swing,Traditional,age,artist_name,correct,correctResponse,distraction,duration,education,ended_on,familiarity,gender,headphone_check_performance,item,list,music_frequency,offensiveness,pleasantness,position_correct,preference,response,response_action,snippet_file,song_name,song_rating,sound,stimulus_1,stimulus_2,stimulus_3,text,time_commit,time_end,time_render,time_run,time_show,time_switch,url,word,word_ID
Introduction,html.Screen,0_0,2021-04-13T14:28:33.209Z,"{""labjs_version"":""20.2.2"",""labjs_build"":{""flavor"":""production"",""commit"":""a25486e0c714a0ae2ce03ff94b7bb6896854dcfa""},""location"":""https://run.pavlovia.org/mvasilev/music_c/"",""userAgent"":""Mozilla/5.0 (Windows NT 10.0; Win64; x64) AppleWebKit/537.36 (KHTML, like Gecko) Chrome/89.0.4389.114 Safari/537.36"",""platform"":""Win32"",""language"":""en-GB"",""locale"":""en-GB"",""timeZone"":""Europe/London"",""timezoneOffset"":-60,""screen_width"":1280,""screen_height"":720,""scroll_width"":1280,""scroll_height"":578,""window_innerWidth"":1280,""window_innerHeight"":578,""devicePixelRatio"":1.5}",,,,,,,,,,,,,,,,,,,,,,,,,,,,,324914.05100003816,,response,,,,,,,,,,,continue,click button,,,,,,,,,334704.18999996036,334702.33500003815,9755.385,9769.199999980628,9788.284,334723.325,{},,
Volume calibration,html.Screen,0_1,2021-04-13T14:29:09.905Z,,,,,,,,,,,,,,,,,,,,,,,,,,,,,,36668.594999965455,,response,,,,,,,,,,,continue,click button,,,,,,,,,371399.7799999779,371391.91999996547,334690.023,334704.59500001743,334723.325,371419.878,,,
Task instructions,html.Screen,0_2,2021-04-13T14:29:31.650Z,,,,,,,,,,,,,,,,,,,,,,,,,,,,,,21722.247000013012,,response,,,,,,,,,,,continue,click button,,,,,,,,,393144.3100000033,393142.12500001304,371386.656,371400.1700000372,371419.878,393151.047,,,
Sounds,html.Screen,0_3_0_0,2021-04-13T14:29:35.896Z,,,,,,,,,,,,,,,,,,,,,,,,,,,,,,4249.625,,timeout,,,,,,,,,3,,,,,,,,O,I,S,,397389.8549999576,397384.116,393134.56,393144.970000023,393151.047,397400.672,,,
Judgement,html.Screen,0_3_0_1,2021-04-13T14:29:39.636Z,,,,,,,,,,,,,,,,,,,,,,,,,,,false,3,,3727.128000016557,,response,,,,,,,,,3,,1,click #choice-1,,,,,O,I,S,,401129.87499998417,401127.8000000166,397384.116,397390.2150000213,397400.672,401133.635,,,
Trial,flow.Sequence,0_3_0,2021-04-13T14:29:39.636Z,,,,,,,,,,,,,,,,,,,,,,,,,,,,,,7976.753000016557,,completion,,,,,,,,,3,,,,,,,,O,I,S,,401130.6549999863,401127.8000000166,393134.56,393144.82499996666,393151.047,401133.635,,,
Sounds,html.Screen,0_3_1_0,2021-04-13T14:29:43.874Z,,,,,,,,,,,,,,,,,,,,,,,,,,,,,,4249.83600000001,,timeout,,,,,,,,,1,,,,,,,,S,I,O,,405368.284999975,405366.674,401117.146,401131.04500004556,401133.635,405383.471,,,
Judgement,html.Screen,0_3_1_1,2021-04-13T14:29:44.685Z,,,,,,,,,,,,,,,,,,,,,,,,,,,true,1,,794.2640000338433,,response,,,,,,,,,1,,1,click #choice-1,,,,,S,I,O,,406179.50500000734,406177.73500003386,405366.674,405368.7449999852,405383.471,406183.139,,,
Trial,flow.Sequence,0_3_1,2021-04-13T14:29:44.686Z,,,,,,,,,,,,,,,,,,,,,,,,,,,,,,5044.100000033854,,completion,,,,,,,,,1,,,,,,,,S,I,O,,406179.9700000556,406177.73500003386,401117.146,401130.9350000229,401133.635,406183.139,,,
Sounds,html.Screen,0_3_2_0,2021-04-13T14:29:48.923Z,,,,,,,,,,,,,,,,,,,,,,,,,,,,,,4249.618999999948,,timeout,,,,,,,,,1,,,,,,,,S,O,I,,410417.4049999565,410416.213,406166.515,406180.30500004534,406183.139,410432.758,,,
Judgement,html.Screen,0_3_2_1,2021-04-13T14:29:49.721Z,,,,,,,,,,,,,,,,,,,,,,,,,,,true,1,,780.6870000012568,,response,,,,,,,,,1,,1,click #choice-1,,,,,S,O,I,,411215.14500002377,411213.44500000123,410416.213,410417.7249999484,410432.758,411215.975,,,
Trial,flow.Sequence,0_3_2,2021-04-13T14:29:49.721Z,,,,,,,,,,,,,,,,,,,,,,,,,,,,,,5030.306000001205,,completion,,,,,,,,,1,,,,,,,,S,O,I,,411215.6449999893,411213.44500000123,406166.515,406180.21000002045,406183.139,411215.975,,,
Sounds,html.Screen,0_3_3_0,2021-04-13T14:29:53.956Z,,,,,,,,,,,,,,,,,,,,,,,,,,,,,,4249.71100000001,,timeout,,,,,,,,,3,,,,,,,,I,O,S,,415450.73499996215,415448.924,411199.516,411216.3350000046,411215.975,415465.686,,,
Judgement,html.Screen,0_3_3_1,2021-04-13T14:29:54.966Z,,,,,,,,,,,,,,,,,,,,,,,,,,,true,3,,992.5439999892842,,response,,,,,,,,,3,,3,click #choice-3,,,,,I,O,S,,416459.990000003,416458.2299999893,415448.924,415451.1600000551,415465.686,416465.541,,,
Trial,flow.Sequence,0_3_3,2021-04-13T14:29:54.966Z,,,,,,,,,,,,,,,,,,,,,,,,,,,,,,5242.254999989294,,completion,,,,,,,,,3,,,,,,,,I,O,S,,416460.45999997295,416458.2299999893,411199.516,411215.979999979,411215.975,416465.541,,,
Sounds,html.Screen,0_3_4_0,2021-04-13T14:29:59.205Z,,,,,,,,,,,,,,,,,,,,,,,,,,,,,,4249.704999999958,,timeout,,,,,,,,,2,,,,,,,,I,S,O,,420699.5099999476,420698.38,416448.999,416460.7750000432,416465.541,420715.246,,,
Judgement,html.Screen,0_3_4_1,2021-04-13T14:30:00.054Z,,,,,,,,,,,,,,,,,,,,,,,,,,,true,2,,831.6040000424837,,response,,,,,,,,,2,,2,click #choice-2,,,,,I,S,O,,421547.8700000094,421546.85000004247,420698.38,420699.7800000245,420715.246,421566.226,,,
Trial,flow.Sequence,0_3_4,2021-04-13T14:30:00.054Z,,,,,,,,,,,,,,,,,,,,,,,,,,,,,,5081.309000042442,,completion,,,,,,,,,2,,,,,,,,I,S,O,,421548.150000046,421546.85000004247,416448.999,416460.6850000564,416465.541,421566.226,,,
Sounds,html.Screen,0_3_5_0,2021-04-13T14:30:04.305Z,,,,,,,,,,,,,,,,,,,,,,,,,,,,,,4248.432999999961,,timeout,,,,,,,,,2,,,,,,,,O,S,I,,425799.13000005763,425797.9,421531.715,421548.3650000533,421566.226,425814.659,,,
Judgement,html.Screen,0_3_5_1,2021-04-13T14:30:04.951Z,,,,,,,,,,,,,,,,,,,,,,,,,,,true,2,,629.4709999598563,,response,,,,,,,,,2,,2,click #choice-2,,,,,O,S,I,,426445.71500003804,426444.12999995984,425797.9,425799.52500003856,425814.659,426464.505,,,
Trial,flow.Sequence,0_3_5,2021-04-13T14:30:04.952Z,,,,,,,,,,,,,,,,,,,,,,,,,,,,,,4877.903999959817,,completion,,,,,,,,,2,,,,,,,,O,S,I,,426446.1049999809,426444.12999995984,421531.715,421548.3050000621,421566.226,426464.505,,,
Task,flow.Loop,0_3,2021-04-13T14:30:04.962Z,,,,,,,,,,,,,,,,,,,,,,,,,,,,,,33293.08299995982,,completion,,,0.8333333333333334,,,,,,,,,,,,,,,,,,426456.7250000546,426444.12999995984,393134.56,393144.6800000267,393151.047,426464.505,,,
Trap,html.Screen,0_4,2021-04-13T14:30:04.965Z,,,,,,,,,,,,,,,,,,,,,,,,,,,,,,NaN,,skipped,,,,,,,,,,,,,,,,,,,,,426459.67999997083,426444.12999995984,,426459.27999995183,,426464.505,,,
Thanks,html.Screen,0_5,2021-04-13T14:30:10.283Z,,,,,,,,,,,,,,,,,,,,,,,,,,,,,,5312.24499996088,,response,,,,,,,,,,,continue,click button,,,,,,,,,431777.7500000084,431776.7499999609,426431.24,426459.9300000118,426464.505,433797.037,,,
Headphone screening,flow.Sequence,0,2021-04-13T14:30:10.284Z,,,,,,,,,,,,,,,,,,,,,,,,,,,,,,421988.4659999609,,completion,,,,,,,,,,,,,,,,,,,,,431778.0400000047,431776.7499999609,9755.385,9769.169999985024,9788.284,433797.037,,,
Instructions,html.Page,1_0,2021-04-13T14:30:48.400Z,,,,,,,,,,,,,,,,,,,,,,,,,,,,,,36096.69300001068,,form submission,,,,,,,,,,,,,,,,,,,,,469895.03999997396,469893.7300000107,433747.076,433787.54000004847,433797.037,469910.231,,,
Holding screen,html.Screen,1_1_0_0,2021-04-13T14:30:58.399Z,,,,,,,,,,,,,,,,,,,,,,,,,,,,,,10032.373999999953,,timeout,,,,,,,,,,,,,,,,,,,,,479893.9699999755,479892.798,469877.124,469897.3649999825,469910.231,479942.605,,,
screen,html.Screen,1_1_0_1_0,2021-04-13T14:31:00.094Z,,,,,,,,,,,,,,,,53,,,,,,,,,,,,,,1641.1749999863096,,response,,,,99,,,,,,,Space,keypress(Space),,,,,,,,When -- ----- -- ------ - ------- --- ----------<br>------------- ------ ------ ---- ---- ------- ----- -- ----<br>-------- ------- -- ---------- --- - --- ----- ----- ----<br>---- --- --- ----- --- ---- ---- ------- ----- ---- -------<br>--- --- -- ----- -- --- ---- -- --- ---- -- ------ ------<br>--- ----- -- ----,481588.2800000254,481583.7799999863,479892.798,479894.420000026,479942.605,481592.42,,0,When
screen,html.Screen,1_1_0_1_1,2021-04-13T14:31:00.575Z,,,,,,,,,,,,,,,,53,,,,,,,,,,,,,,475.84500000899425,,response,,,,99,,,,,,,Space,keypress(Space),,,,,,,,---- it ----- -- ------ - ------- --- ----------<br>------------- ------ ------ ---- ---- ------- ----- -- ----<br>-------- ------- -- ---------- --- - --- ----- ----- ----<br>---- --- --- ----- --- ---- ---- ------- ----- ---- -------<br>--- --- -- ----- -- --- ---- -- --- ---- -- ------ ------<br>--- ----- -- ----,482069.41999995615,482068.265000009,481577.427,481588.54999998584,481592.42,482075.706,,1,it
screen,html.Screen,1_1_0_1_2,2021-04-13T14:31:00.991Z,,,,,,,,,,,,,,,,53,,,,,,,,,,,,,,408.4590000307653,,response,,,,99,,,,,,,Space,keypress(Space),,,,,,,,---- -- comes -- ------ - ------- --- ----------<br>------------- ------ ------ ---- ---- ------- ----- -- ----<br>-------- ------- -- ---------- --- - --- ----- ----- ----<br>---- --- --- ----- --- ---- ---- ------- ----- ---- -------<br>--- --- -- ----- -- --- ---- -- --- ---- -- ------ ------<br>--- ----- -- ----,482485.43999996036,482484.1650000308,482059.203,482069.7050000308,482075.706,482492.562,,2,comes
screen,html.Screen,1_1_0_1_3,2021-04-13T14:31:01.438Z,,,,,,,,,,,,,,,,53,,,,,,,,,,,,,,438.7030000211089,,response,,,,99,,,,,,,Space,keypress(Space),,,,,,,,---- -- ----- to ------ - ------- --- ----------<br>------------- ------ ------ ---- ---- ------- ----- -- ----<br>-------- ------- -- ---------- --- - --- ----- ----- ----<br>---- --- --- ----- --- ---- ---- ------- ----- ---- -------<br>--- --- -- ----- -- --- ---- -- --- ---- -- ------ ------<br>--- ----- -- ----,482932.27999994997,482931.2650000211,482475.853,482485.7400000328,482492.562,482942.538,,3,to
screen,html.Screen,1_1_0_1_4,2021-04-13T14:31:01.840Z,,,,,,,,,,,,,,,,53,,,,,,,,,,,,,,391.1270000419463,,response,,,,99,,,,,,,Space,keypress(Space),,,,,,,,---- -- ----- -- having - ------- --- ----------<br>------------- ------ ------ ---- ---- ------- ----- -- ----<br>-------- ------- -- ---------- --- - --- ----- ----- ----<br>---- --- --- ----- --- ---- ---- ------- ----- ---- -------<br>--- --- -- ----- -- --- ---- -- --- ---- -- ------ ------<br>--- ----- -- ----,483334.8550000228,483333.66500004195,482925.792,482932.5700000627,482942.538,483342.406,,4,having
screen,html.Screen,1_1_0_1_5,2021-04-13T14:31:02.240Z,,,,,,,,,,,,,,,,53,,,,,,,,,,,,,,391.6540000461391,,response,,,,99,,,,,,,Space,keypress(Space),,,,,,,,---- -- ----- -- ------ a ------- --- ----------<br>------------- ------ ------ ---- ---- ------- ----- -- ----<br>-------- ------- -- ---------- --- - --- ----- ----- ----<br>---- --- --- ----- --- ---- ---- ------- ----- ---- -------<br>--- --- -- ----- -- --- ---- -- --- ---- -- ------ ------<br>--- ----- -- ----,483735.1100000087,483734.06000004616,483325.75,483335.1500000572,483342.406,483742.227,,5,a
screen,html.Screen,1_1_0_1_6,2021-04-13T14:31:02.663Z,,,,,,,,,,,,,,,,53,,,,,,,,,,,,,,414.7280000130995,,response,,,,99,,,,,,,Space,keypress(Space),,,,,,,,---- -- ----- -- ------ - lasting --- ----------<br>------------- ------ ------ ---- ---- ------- ----- -- ----<br>-------- ------- -- ---------- --- - --- ----- ----- ----<br>---- --- --- ----- --- ---- ---- ------- ----- ---- -------<br>--- --- -- ----- -- --- ---- -- --- ---- -- ------ ------<br>--- ----- -- ----,484158.19500002544,484156.9550000131,483725.723,483735.37999996915,483742.227,484175.698,,6,lasting
screen,html.Screen,1_1_0_1_7,2021-04-13T14:31:03.081Z,,,,,,,,,,,,,,,,53,,,,,,,,,,,,,,398.8870000530733,,response,,,,99,,,,,,,Space,keypress(Space),,,,,,,,---- -- ----- -- ------ - ------- and ----------<br>------------- ------ ------ ---- ---- ------- ----- -- ----<br>-------- ------- -- ---------- --- - --- ----- ----- ----<br>---- --- --- ----- --- ---- ---- ------- ----- ---- -------<br>--- --- -- ----- -- --- ---- -- --- ---- -- ------ ------<br>--- ----- -- ----,484575.60500002,484574.58500005305,484159.008,484158.51500001736,484175.698,484592.259,,7,and
screen,html.Screen,1_1_0_1_8,2021-04-13T14:31:03.557Z,,,,,,,,,,,,,,,,53,,,,,,,,,,,,,,458.0610000384622,,response,,,,99,,,,,,,Space,keypress(Space),,,,,,,,---- -- ----- -- ------ - ------- --- fulfilling<br>------------- ------ ------ ---- ---- ------- ----- -- ----<br>-------- ------- -- ---------- --- - --- ----- ----- ----<br>---- --- --- ----- --- ---- ---- ------- ----- ---- -------<br>--- --- -- ----- -- --- ---- -- --- ---- -- ------ ------<br>--- ----- -- ----,485051.54000001494,485050.3200000385,484575.688,484576.1250000214,484592.259,485058.768,,8,fulfilling
screen,html.Screen,1_1_0_1_9,2021-04-13T14:31:03.922Z,,,,,,,,,,,,,,,,53,,,,,,,,,,,,,,356.69200004747836,,response,,,,99,,,,,,,Space,keypress(Space),,,,,,,,"---- -- ----- -- ------ - ------- --- ----------<br>relationship, ------ ------ ---- ---- ------- ----- -- ----<br>-------- ------- -- ---------- --- - --- ----- ----- ----<br>---- --- --- ----- --- ---- ---- ------- ----- ---- -------<br>--- --- -- ----- -- --- ---- -- --- ---- -- ------ ------<br>--- ----- -- ----",485416.63999995217,485415.46000004746,485042.318,485051.839999971,485058.768,485425.609,,9,"relationship,"
screen,html.Screen,1_1_0_1_10,2021-04-13T14:31:04.437Z,,,,,,,,,,,,,,,,53,,,,,,,,,,,,,,504.9110000526416,,response,,,,99,,,,,,,Space,keypress(Space),,,,,,,,---- -- ----- -- ------ - ------- --- ----------<br>------------- common ------ ---- ---- ------- ----- -- ----<br>-------- ------- -- ---------- --- - --- ----- ----- ----<br>---- --- --- ----- --- ---- ---- ------- ----- ---- -------<br>--- --- -- ----- -- --- ---- -- --- ---- -- ------ ------<br>--- ----- -- ----,485931.62499996834,485930.52000005264,485408.887,485416.94999998435,485425.609,485941.992,,10,common
screen,html.Screen,1_1_0_1_11,2021-04-13T14:31:04.951Z,,,,,,,,,,,,,,,,53,,,,,,,,,,,,,,502.14299999788636,,response,,,,99,,,,,,,Space,keypress(Space),,,,,,,,---- -- ----- -- ------ - ------- --- ----------<br>------------- ------ wisdom ---- ---- ------- ----- -- ----<br>-------- ------- -- ---------- --- - --- ----- ----- ----<br>---- --- --- ----- --- ---- ---- ------- ----- ---- -------<br>--- --- -- ----- -- --- ---- -- --- ---- -- ------ ------<br>--- ----- -- ----,486445.2449999517,486444.1349999979,485925.53,485931.8750000093,485941.992,486458.789,,11,wisdom
screen,html.Screen,1_1_0_1_12,2021-04-13T14:31:05.497Z,,,,,,,,,,,,,,,,53,,,,,,,,,,,,,,531.4509999555303,,response,,,,99,,,,,,,Space,keypress(Space),,,,,,,,---- -- ----- -- ------ - ------- --- ----------<br>------------- ------ ------ says ---- ------- ----- -- ----<br>-------- ------- -- ---------- --- - --- ----- ----- ----<br>---- --- --- ----- --- ---- ---- ------- ----- ---- -------<br>--- --- -- ----- -- --- ---- -- --- ---- -- ------ ------<br>--- ----- -- ----,486991.37499998324,486990.2399999555,486441.98,486445.5199999502,486458.789,487008.668,,12,says
screen,html.Screen,1_1_0_1_13,2021-04-13T14:31:05.925Z,,,,,,,,,,,,,,,,53,,,,,,,,,,,,,,409.79699999518925,,response,,,,99,,,,,,,Space,keypress(Space),,,,,,,,---- -- ----- -- ------ - ------- --- ----------<br>------------- ------ ------ ---- that ------- ----- -- ----<br>-------- ------- -- ---------- --- - --- ----- ----- ----<br>---- --- --- ----- --- ---- ---- ------- ----- ---- -------<br>--- --- -- ----- -- --- ---- -- --- ---- -- ------ ------<br>--- ----- -- ----,487419.73500000313,487418.4649999952,486992.09,486991.6850000154,487008.668,487425.176,,13,that
screen,html.Screen,1_1_0_1_14,2021-04-13T14:31:06.400Z,,,,,,,,,,,,,,,,53,,,,,,,,,,,,,,468.1989999851212,,response,,,,99,,,,,,,Space,keypress(Space),,,,,,,,---- -- ----- -- ------ - ------- --- ----------<br>------------- ------ ------ ---- ---- feeling ----- -- ----<br>-------- ------- -- ---------- --- - --- ----- ----- ----<br>---- --- --- ----- --- ---- ---- ------- ----- ---- -------<br>--- --- -- ----- -- --- ---- -- --- ---- -- ------ ------<br>--- ----- -- ----,487894.61499999743,487893.3749999851,487408.705,487420.03999999724,487425.176,487908.635,,14,feeling
screen,html.Screen,1_1_0_1_15,2021-04-13T14:31:06.864Z,,,,,,,,,,,,,,,,53,,,,,,,,,,,,,,448.78500001481734,,response,,,,99,,,,,,,Space,keypress(Space),,,,,,,,---- -- ----- -- ------ - ------- --- ----------<br>------------- ------ ------ ---- ---- ------- close -- ----<br>-------- ------- -- ---------- --- - --- ----- ----- ----<br>---- --- --- ----- --- ---- ---- ------- ----- ---- -------<br>--- --- -- ----- -- --- ---- -- --- ---- -- ------ ------<br>--- ----- -- ----,488358.61500003375,488357.4200000148,487892.005,487894.9149999535,487908.635,488375.236,,15,close
screen,html.Screen,1_1_0_1_16,2021-04-13T14:31:07.263Z,,,,,,,,,,,,,,,,53,,,,,,,,,,,,,,382.05399997957284,,response,,,,99,,,,,,,Space,keypress(Space),,,,,,,,---- -- ----- -- ------ - ------- --- ----------<br>------------- ------ ------ ---- ---- ------- ----- to ----<br>-------- ------- -- ---------- --- - --- ----- ----- ----<br>---- --- --- ----- --- ---- ---- ------- ----- ---- -------<br>--- --- -- ----- -- --- ---- -- --- ---- -- ------ ------<br>--- ----- -- ----,488757.7900000615,488757.28999997955,488358.664,488358.9099999517,488375.236,488789.579,,16,to
screen,html.Screen,1_1_0_1_17,2021-04-13T14:31:07.636Z,,,,,,,,,,,,,,,,53,,,,,,,,,,,,,,340.04600005957764,,response,,,,99,,,,,,,Space,keypress(Space),,,,,,,,---- -- ----- -- ------ - ------- --- ----------<br>------------- ------ ------ ---- ---- ------- ----- -- your<br>-------- ------- -- ---------- --- - --- ----- ----- ----<br>---- --- --- ----- --- ---- ---- ------- ----- ---- -------<br>--- --- -- ----- -- --- ---- -- --- ---- -- ------ ------<br>--- ----- -- ----,489130.4249999812,489129.6250000596,488741.885,488757.9149999656,488789.579,489141.836,,17,your
screen,html.Screen,1_1_0_1_18,2021-04-13T14:31:08.145Z,,,,,,,,,,,,,,,,53,,,,,,,,,,,,,,496.3989999621408,,response,,,,99,,,,,,,Space,keypress(Space),,,,,,,,---- -- ----- -- ------ - ------- --- ----------<br>------------- ------ ------ ---- ---- ------- ----- -- ----<br>romantic ------- -- ---------- --- - --- ----- ----- ----<br>---- --- --- ----- --- ---- ---- ------- ----- ---- -------<br>--- --- -- ----- -- --- ---- -- --- ---- -- ------ ------<br>--- ----- -- ----,489639.4449999789,489638.23499996215,489125.199,489130.61500003096,489141.836,489641.608,,18,romantic
screen,html.Screen,1_1_0_1_19,2021-04-13T14:31:08.666Z,,,,,,,,,,,,,,,,53,,,,,,,,,,,,,,518.0520000047982,,response,,,,99,,,,,,,Space,keypress(Space),,,,,,,,---- -- ----- -- ------ - ------- --- ----------<br>------------- ------ ------ ---- ---- ------- ----- -- ----<br>-------- partner -- ---------- --- - --- ----- ----- ----<br>---- --- --- ----- --- ---- ---- ------- ----- ---- -------<br>--- --- -- ----- -- --- ---- -- --- ---- -- ------ ------<br>--- ----- -- ----,490160.4600000428,490159.6600000048,489625.194,489639.74000001326,489641.608,490174.949,,19,partner
screen,html.Screen,1_1_0_1_20,2021-04-13T14:31:09.085Z,,,,,,,,,,,,,,,,53,,,,,,,,,,,,,,403.78099995013326,,response,,,,99,,,,,,,Space,keypress(Space),,,,,,,,---- -- ----- -- ------ - ------- --- ----------<br>------------- ------ ------ ---- ---- ------- ----- -- ----<br>-------- ------- is ---------- --- - --- ----- ----- ----<br>---- --- --- ----- --- ---- ---- ------- ----- ---- -------<br>--- --- -- ----- -- --- ---- -- --- ---- -- ------ ------<br>--- ----- -- ----,490579.8649999779,490578.72999995016,490158.446,490160.65500001423,490174.949,490591.619,,20,is
screen,html.Screen,1_1_0_1_21,2021-04-13T14:31:09.726Z,,,,,,,,,,,,,,,,53,,,,,,,,,,,,,,628.4259999654605,,response,,,,99,,,,,,,Space,keypress(Space),,,,,,,,---- -- ----- -- ------ - ------- --- ----------<br>------------- ------ ------ ---- ---- ------- ----- -- ----<br>-------- ------- -- paramount. --- - --- ----- ----- ----<br>---- --- --- ----- --- ---- ---- ------- ----- ---- -------<br>--- --- -- ----- -- --- ---- -- --- ---- -- ------ ------<br>--- ----- -- ----,491220.6899999874,491220.04499996547,490575.117,490580.1650000503,490591.619,491224.783,,21,paramount.
screen,html.Screen,1_1_0_1_22,2021-04-13T14:31:10.135Z,,,,,,,,,,,,,,,,53,,,,,,,,,,,,,,403.7169999916223,,response,,,,99,,,,,,,Space,keypress(Space),,,,,,,,---- -- ----- -- ------ - ------- --- ----------<br>------------- ------ ------ ---- ---- ------- ----- -- ----<br>-------- ------- -- ---------- But - --- ----- ----- ----<br>---- --- --- ----- --- ---- ---- ------- ----- ---- -------<br>--- --- -- ----- -- --- ---- -- --- ---- -- ------ ------<br>--- ----- -- ----,491629.68999997247,491628.4999999916,491208.382,491220.869999961,491224.783,491641.638,,22,But
screen,html.Screen,1_1_0_1_23,2021-04-13T14:31:10.647Z,,,,,,,,,,,,,,,,53,,,,,,,,,,,,,,499.9319999779691,,response,,,,99,,,,,,,Space,keypress(Space),,,,,,,,---- -- ----- -- ------ - ------- --- ----------<br>------------- ------ ------ ---- ---- ------- ----- -- ----<br>-------- ------- -- ---------- --- a --- ----- ----- ----<br>---- --- --- ----- --- ---- ---- ------- ----- ---- -------<br>--- --- -- ----- -- --- ---- -- --- ---- -- ------ ------<br>--- ----- -- ----,492142.11999997497,492141.56999997795,491624.922,491629.9750000471,491641.638,492158.126,,23,a
screen,html.Screen,1_1_0_1_24,2021-04-13T14:31:11.064Z,,,,,,,,,,,,,,,,53,,,,,,,,,,,,,,399.2639999726671,,response,,,,99,,,,,,,Space,keypress(Space),,,,,,,,---- -- ----- -- ------ - ------- --- ----------<br>------------- ------ ------ ---- ---- ------- ----- -- ----<br>-------- ------- -- ---------- --- - new ----- ----- ----<br>---- --- --- ----- --- ---- ---- ------- ----- ---- -------<br>--- --- -- ----- -- --- ---- -- --- ---- -- ------ ------<br>--- ----- -- ----,492558.51000000257,492557.38999997266,492141.585,492142.2549999552,492158.126,492574.874,,24,new
screen,html.Screen,1_1_0_1_25,2021-04-13T14:31:11.724Z,,,,,,,,,,,,,,,,53,,,,,,,,,,,,,,642.3660000272212,,response,,,,99,,,,,,,Space,keypress(Space),,,,,,,,---- -- ----- -- ------ - ------- --- ----------<br>------------- ------ ------ ---- ---- ------- ----- -- ----<br>-------- ------- -- ---------- --- - --- study ----- ----<br>---- --- --- ----- --- ---- ---- ------- ----- ---- -------<br>--- --- -- ----- -- --- ---- -- --- ---- -- ------ ------<br>--- ----- -- ----,493218.36000005715,493217.24000002723,492558.204,492558.9049999835,492574.874,493224.643,,25,study
screen,html.Screen,1_1_0_1_26,2021-04-13T14:31:12.163Z,,,,,,,,,,,,,,,,53,,,,,,,,,,,,,,432.4070000380161,,response,,,,99,,,,,,,Space,keypress(Space),,,,,,,,---- -- ----- -- ------ - ------- --- ----------<br>------------- ------ ------ ---- ---- ------- ----- -- ----<br>-------- ------- -- ---------- --- - --- ----- finds ----<br>---- --- --- ----- --- ---- ---- ------- ----- ---- -------<br>--- --- -- ----- -- --- ---- -- --- ---- -- ------ ------<br>--- ----- -- ----,493658.15999999177,493657.050000038,493208.196,493218.66500005126,493224.643,493674.703,,26,finds
screen,html.Screen,1_1_0_1_27,2021-04-13T14:31:12.541Z,,,,,,,,,,,,,,,,53,,,,,,,,,,,,,,360.33699998795055,,response,,,,99,,,,,,,Space,keypress(Space),,,,,,,,---- -- ----- -- ------ - ------- --- ----------<br>------------- ------ ------ ---- ---- ------- ----- -- ----<br>-------- ------- -- ---------- --- - --- ----- ----- that<br>---- --- --- ----- --- ---- ---- ------- ----- ---- -------<br>--- --- -- ----- -- --- ---- -- --- ---- -- ------ ------<br>--- ----- -- ----,494036.23500000685,494035.03999998793,493658.109,493660.21999996156,493674.703,494041.17,,27,that
screen,html.Screen,1_1_0_1_28,2021-04-13T14:31:13.066Z,,,,,,,,,,,,,,,,53,,,,,,,,,,,,,,518.6900000376045,,response,,,,99,,,,,,,Space,keypress(Space),,,,,,,,---- -- ----- -- ------ - ------- --- ----------<br>------------- ------ ------ ---- ---- ------- ----- -- ----<br>-------- ------- -- ---------- --- - --- ----- ----- ----<br>it's --- --- ----- --- ---- ---- ------- ----- ---- -------<br>--- --- -- ----- -- --- ---- -- --- ---- -- ------ ------<br>--- ----- -- ----,494560.99000002723,494559.8600000376,494024.736,494036.51500004344,494041.17,494574.463,,28,it's
screen,html.Screen,1_1_0_1_29,2021-04-13T14:31:13.472Z,,,,,,,,,,,,,,,,53,,,,,,,,,,,,,,390.9570000222884,,response,,,,99,,,,,,,Space,keypress(Space),,,,,,,,---- -- ----- -- ------ - ------- --- ----------<br>------------- ------ ------ ---- ---- ------- ----- -- ----<br>-------- ------- -- ---------- --- - --- ----- ----- ----<br>---- not --- ----- --- ---- ---- ------- ----- ---- -------<br>--- --- -- ----- -- --- ---- -- --- ---- -- ------ ------<br>--- ----- -- ----,494966.87999996357,494965.4200000223,494558.034,494561.29500002135,494574.463,494974.51,,29,not
screen,html.Screen,1_1_0_1_30,2021-04-13T14:31:14.020Z,,,,,,,,,,,,,,,,53,,,,,,,,,,,,,,539.1549999767449,,response,,,,99,,,,,,,Space,keypress(Space),,,,,,,,---- -- ----- -- ------ - ------- --- ----------<br>------------- ------ ------ ---- ---- ------- ----- -- ----<br>-------- ------- -- ---------- --- - --- ----- ----- ----<br>---- --- how ----- --- ---- ---- ------- ----- ---- -------<br>--- --- -- ----- -- --- ---- -- --- ---- -- ------ ------<br>--- ----- -- ----,495515.0249999715,495513.66499997675,494957.939,494967.16000000015,494974.51,495524.469,,30,how
screen,html.Screen,1_1_0_1_31,2021-04-13T14:31:14.434Z,,,,,,,,,,,,,,,,53,,,,,,,,,,,,,,402.65100000757957,,response,,,,99,,,,,,,Space,keypress(Space),,,,,,,,---- -- ----- -- ------ - ------- --- ----------<br>------------- ------ ------ ---- ---- ------- ----- -- ----<br>-------- ------- -- ---------- --- - --- ----- ----- ----<br>---- --- --- close --- ---- ---- ------- ----- ---- -------<br>--- --- -- ----- -- --- ---- -- --- ---- -- ------ ------<br>--- ----- -- ----,495928.3249999862,495927.12000000756,495507.937,495515.2600000147,495524.469,495941.149,,31,close
screen,html.Screen,1_1_0_1_32,2021-04-13T14:31:14.871Z,,,,,,,,,,,,,,,,53,,,,,,,,,,,,,,423.5859999519307,,response,,,,99,,,,,,,Space,keypress(Space),,,,,,,,---- -- ----- -- ------ - ------- --- ----------<br>------------- ------ ------ ---- ---- ------- ----- -- ----<br>-------- ------- -- ---------- --- - --- ----- ----- ----<br>---- --- --- ----- you ---- ---- ------- ----- ---- -------<br>--- --- -- ----- -- --- ---- -- --- ---- -- ------ ------<br>--- ----- -- ----,496365.71499996353,496364.7349999519,495924.576,495928.5999999847,495941.149,496374.495,,32,you
screen,html.Screen,1_1_0_1_33,2021-04-13T14:31:15.480Z,,,,,,,,,,,,,,,,53,,,,,,,,,,,,,,599.5999999541091,,response,,,,99,,,,,,,Space,keypress(Space),,,,,,,,---- -- ----- -- ------ - ------- --- ----------<br>------------- ------ ------ ---- ---- ------- ----- -- ----<br>-------- ------- -- ---------- --- - --- ----- ----- ----<br>---- --- --- ----- --- feel ---- ------- ----- ---- -------<br>--- --- -- ----- -- --- ---- -- --- ---- -- ------ ------<br>--- ----- -- ----,496975.22500006016,496974.0949999541,496357.877,496365.97499996424,496374.495,496991.073,,33,feel
screen,html.Screen,1_1_0_1_34,2021-04-13T14:31:16.043Z,,,,,,,,,,,,,,,,53,,,,,,,,,,,,,,545.6619999724207,,response,,,,99,,,,,,,Space,keypress(Space),,,,,,,,---- -- ----- -- ------ - ------- --- ----------<br>------------- ------ ------ ---- ---- ------- ----- -- ----<br>-------- ------- -- ---------- --- - --- ----- ----- ----<br>---- --- --- ----- --- ---- that ------- ----- ---- -------<br>--- --- -- ----- -- --- ---- -- --- ---- -- ------ ------<br>--- ----- -- ----,497537.46500005946,497536.7349999724,496974.437,496975.53499997593,496991.073,497540.84,,34,that
screen,html.Screen,1_1_0_1_35,2021-04-13T14:31:16.442Z,,,,,,,,,,,,,,,,53,,,,,,,,,,,,,,394.7449999701348,,response,,,,99,,,,,,,Space,keypress(Space),,,,,,,,---- -- ----- -- ------ - ------- --- ----------<br>------------- ------ ------ ---- ---- ------- ----- -- ----<br>-------- ------- -- ---------- --- - --- ----- ----- ----<br>---- --- --- ----- --- ---- ---- matters ----- ---- -------<br>--- --- -- ----- -- --- ---- -- --- ---- -- ------ ------<br>--- ----- -- ----,497936.66500004474,497935.58499997016,497524.388,497537.63499995694,497540.84,497940.824,,35,matters
screen,html.Screen,1_1_0_1_36,2021-04-13T14:31:17.057Z,,,,,,,,,,,,,,,,53,,,,,,,,,,,,,,610.2410000069067,,response,,,,99,,,,,,,Space,keypress(Space),,,,,,,,"---- -- ----- -- ------ - ------- --- ----------<br>------------- ------ ------ ---- ---- ------- ----- -- ----<br>-------- ------- -- ---------- --- - --- ----- ----- ----<br>---- --- --- ----- --- ---- ---- ------- most, ---- -------<br>--- --- -- ----- -- --- ---- -- --- ---- -- ------ ------<br>--- ----- -- ----",498551.44499999005,498551.0650000069,497924.336,497936.9299999671,497940.824,498557.393,,36,"most,"
screen,html.Screen,1_1_0_1_37,2021-04-13T14:31:17.463Z,,,,,,,,,,,,,,,,53,,,,,,,,,,,,,,398.75200006196974,,response,,,,99,,,,,,,Space,keypress(Space),,,,,,,,---- -- ----- -- ------ - ------- --- ----------<br>------------- ------ ------ ---- ---- ------- ----- -- ----<br>-------- ------- -- ---------- --- - --- ----- ----- ----<br>---- --- --- ----- --- ---- ---- ------- ----- it's -------<br>--- --- -- ----- -- --- ---- -- --- ---- -- ------ ------<br>--- ----- -- ----,498957.2700000135,498956.14500006195,498540.985,498551.5799999703,498557.393,498974.258,,37,it's
screen,html.Screen,1_1_0_1_38,2021-04-13T14:31:18.084Z,,,,,,,,,,,,,,,,53,,,,,,,,,,,,,,603.3520000366843,,response,,,,99,,,,,,,Space,keypress(Space),,,,,,,,---- -- ----- -- ------ - ------- --- ----------<br>------------- ------ ------ ---- ---- ------- ----- -- ----<br>-------- ------- -- ---------- --- - --- ----- ----- ----<br>---- --- --- ----- --- ---- ---- ------- ----- ---- whether<br>--- --- -- ----- -- --- ---- -- --- ---- -- ------ ------<br>--- ----- -- ----,499578.5900000483,499577.61000003666,498957.602,498957.6550000347,498974.258,499590.689,,38,whether
screen,html.Screen,1_1_0_1_39,2021-04-13T14:31:18.522Z,,,,,,,,,,,,,,,,53,,,,,,,,,,,,,,425.20100003876723,,response,,,,99,,,,,,,Space,keypress(Space),,,,,,,,---- -- ----- -- ------ - ------- --- ----------<br>------------- ------ ------ ---- ---- ------- ----- -- ----<br>-------- ------- -- ---------- --- - --- ----- ----- ----<br>---- --- --- ----- --- ---- ---- ------- ----- ---- -------<br>you --- -- ----- -- --- ---- -- --- ---- -- ------ ------<br>--- ----- -- ----,500016.96999999695,500015.8900000388,499574.243,499578.8900000043,499590.689,500023.982,,39,you
screen,html.Screen,1_1_0_1_40,2021-04-13T14:31:19.086Z,,,,,,,,,,,,,,,,53,,,,,,,,,,,,,,555.6229999771458,,response,,,,99,,,,,,,Space,keypress(Space),,,,,,,,---- -- ----- -- ------ - ------- --- ----------<br>------------- ------ ------ ---- ---- ------- ----- -- ----<br>-------- ------- -- ---------- --- - --- ----- ----- ----<br>---- --- --- ----- --- ---- ---- ------- ----- ---- -------<br>--- are -- ----- -- --- ---- -- --- ---- -- ------ ------<br>--- ----- -- ----,500580.68500005174,500579.60499997716,500007.508,500017.2549999552,500023.982,500590.737,,40,are
screen,html.Screen,1_1_0_1_41,2021-04-13T14:31:19.569Z,,,,,,,,,,,,,,,,53,,,,,,,,,,,,,,472.107999949425,,response,,,,99,,,,,,,Space,keypress(Space),,,,,,,,---- -- ----- -- ------ - ------- --- ----------<br>------------- ------ ------ ---- ---- ------- ----- -- ----<br>-------- ------- -- ---------- --- - --- ----- ----- ----<br>---- --- --- ----- --- ---- ---- ------- ----- ---- -------<br>--- --- as ----- -- --- ---- -- --- ---- -- ------ ------<br>--- ----- -- ----,501063.95500001963,501062.84499994945,500574.108,500581.0300000012,500590.737,501073.968,,41,as
screen,html.Screen,1_1_0_1_42,2021-04-13T14:31:20.279Z,,,,,,,,,,,,,,,,53,,,,,,,,,,,,,,699.0770000381162,,response,,,,99,,,,,,,Space,keypress(Space),,,,,,,,---- -- ----- -- ------ - ------- --- ----------<br>------------- ------ ------ ---- ---- ------- ----- -- ----<br>-------- ------- -- ---------- --- - --- ----- ----- ----<br>---- --- --- ----- --- ---- ---- ------- ----- ---- -------<br>--- --- -- close -- --- ---- -- --- ---- -- ------ ------<br>--- ----- -- ----,501773.79000000656,501773.0450000381,501057.259,501064.24500001594,501073.968,501790.588,,42,close
screen,html.Screen,1_1_0_1_43,2021-04-13T14:31:20.723Z,,,,,,,,,,,,,,,,53,,,,,,,,,,,,,,425.53199999732897,,response,,,,99,,,,,,,Space,keypress(Space),,,,,,,,---- -- ----- -- ------ - ------- --- ----------<br>------------- ------ ------ ---- ---- ------- ----- -- ----<br>-------- ------- -- ---------- --- - --- ----- ----- ----<br>---- --- --- ----- --- ---- ---- ------- ----- ---- -------<br>--- --- -- ----- as --- ---- -- --- ---- -- ------ ------<br>--- ----- -- ----,502217.2449999489,502216.1199999973,501773.997,501776.1450000107,501790.588,502223.767,,43,as
screen,html.Screen,1_1_0_1_44,2021-04-13T14:31:21.301Z,,,,,,,,,,,,,,,,53,,,,,,,,,,,,,,570.8630000185221,,response,,,,99,,,,,,,Space,keypress(Space),,,,,,,,---- -- ----- -- ------ - ------- --- ----------<br>------------- ------ ------ ---- ---- ------- ----- -- ----<br>-------- ------- -- ---------- --- - --- ----- ----- ----<br>---- --- --- ----- --- ---- ---- ------- ----- ---- -------<br>--- --- -- ----- -- you ---- -- --- ---- -- ------ ------<br>--- ----- -- ----,502795.65500002354,502794.6300000185,502207.25,502217.54500002135,502223.767,502807.134,,44,you
screen,html.Screen,1_1_0_1_45,2021-04-13T14:31:21.712Z,,,,,,,,,,,,,,,,53,,,,,,,,,,,,,,398.65099999826634,,response,,,,99,,,,,,,Space,keypress(Space),,,,,,,,---- -- ----- -- ------ - ------- --- ----------<br>------------- ------ ------ ---- ---- ------- ----- -- ----<br>-------- ------- -- ---------- --- - --- ----- ----- ----<br>---- --- --- ----- --- ---- ---- ------- ----- ---- -------<br>--- --- -- ----- -- --- want -- --- ---- -- ------ ------<br>--- ----- -- ----,503206.8100000033,503205.7849999983,502790.551,502795.9500000579,502807.134,503223.724,,45,want
screen,html.Screen,1_1_0_1_46,2021-04-13T14:31:22.125Z,,,,,,,,,,,,,,,,53,,,,,,,,,,,,,,395.17099996324396,,response,,,,99,,,,,,,Space,keypress(Space),,,,,,,,---- -- ----- -- ------ - ------- --- ----------<br>------------- ------ ------ ---- ---- ------- ----- -- ----<br>-------- ------- -- ---------- --- - --- ----- ----- ----<br>---- --- --- ----- --- ---- ---- ------- ----- ---- -------<br>--- --- -- ----- -- --- ---- to --- ---- -- ------ ------<br>--- ----- -- ----,503620.0099999551,503618.89499996323,503207.198,503207.1650000289,503223.724,503623.608,,46,to
screen,html.Screen,1_1_0_1_47,2021-04-13T14:31:22.470Z,,,,,,,,,,,,,,,,53,,,,,,,,,,,,,,339.8120000436902,,response,,,,99,,,,,,,Space,keypress(Space),,,,,,,,"---- -- ----- -- ------ - ------- --- ----------<br>------------- ------ ------ ---- ---- ------- ----- -- ----<br>-------- ------- -- ---------- --- - --- ----- ----- ----<br>---- --- --- ----- --- ---- ---- ------- ----- ---- -------<br>--- --- -- ----- -- --- ---- -- be, ---- -- ------ ------<br>--- ----- -- ----",503964.59500002675,503963.4200000437,503607.116,503620.2500000363,503623.608,503973.753,,47,"be,"
screen,html.Screen,1_1_0_1_48,2021-04-13T14:31:22.959Z,,,,,,,,,,,,,,,,53,,,,,,,,,,,,,,477.59199995035306,,response,,,,99,,,,,,,Space,keypress(Space),,,,,,,,---- -- ----- -- ------ - ------- --- ----------<br>------------- ------ ------ ---- ---- ------- ----- -- ----<br>-------- ------- -- ---------- --- - --- ----- ----- ----<br>---- --- --- ----- --- ---- ---- ------- ----- ---- -------<br>--- --- -- ----- -- --- ---- -- --- even -- ------ ------<br>--- ----- -- ----,504454.075000016,504451.3449999504,503957.06,503964.9249999784,503973.753,504456.889,,48,even
screen,html.Screen,1_1_0_1_49,2021-04-13T14:31:23.404Z,,,,,,,,,,,,,,,,53,,,,,,,,,,,,,,440.9209999949089,,response,,,,99,,,,,,,Space,keypress(Space),,,,,,,,---- -- ----- -- ------ - ------- --- ----------<br>------------- ------ ------ ---- ---- ------- ----- -- ----<br>-------- ------- -- ---------- --- - --- ----- ----- ----<br>---- --- --- ----- --- ---- ---- ------- ----- ---- -------<br>--- --- -- ----- -- --- ---- -- --- ---- if ------ ------<br>--- ----- -- ----,504898.7549999729,504897.80999999493,504440.391,504454.4300000416,504456.889,504907.055,,49,if
screen,html.Screen,1_1_0_1_50,2021-04-13T14:31:23.961Z,,,,,,,,,,,,,,,,53,,,,,,,,,,,,,,547.8849999668892,,response,,,,99,,,,,,,Space,keypress(Space),,,,,,,,---- -- ----- -- ------ - ------- --- ----------<br>------------- ------ ------ ---- ---- ------- ----- -- ----<br>-------- ------- -- ---------- --- - --- ----- ----- ----<br>---- --- --- ----- --- ---- ---- ------- ----- ---- -------<br>--- --- -- ----- -- --- ---- -- --- ---- -- that's ------<br>--- ----- -- ----,505455.9649999719,505454.9399999669,504890.352,504899.059999967,504907.055,505490.266,,50,that's
screen,html.Screen,1_1_0_1_51,2021-04-13T14:31:24.432Z,,,,,,,,,,,,,,,,53,,,,,,,,,,,,,,435.7090000201133,,response,,,,99,,,,,,,Space,keypress(Space),,,,,,,,---- -- ----- -- ------ - ------- --- ----------<br>------------- ------ ------ ---- ---- ------- ----- -- ----<br>-------- ------- -- ---------- --- - --- ----- ----- ----<br>---- --- --- ----- --- ---- ---- ------- ----- ---- -------<br>--- --- -- ----- -- --- ---- -- --- ---- -- ------ really<br>--- ----- -- ----,505926.87500000466,505925.9750000201,505473.554,505456.22000005096,505490.266,505940.225,,51,really
screen,html.Screen,1_1_0_1_52,2021-04-13T14:31:25.153Z,,,,,,,,,,,,,,,,53,,,,,,,,,,,,,,706.2750000316883,,response,,,,99,,,,,,,Space,keypress(Space),,,,,,,,---- -- ----- -- ------ - ------- --- ----------<br>------------- ------ ------ ---- ---- ------- ----- -- ----<br>-------- ------- -- ---------- --- - --- ----- ----- ----<br>---- --- --- ----- --- ---- ---- ------- ----- ---- -------<br>--- --- -- ----- -- --- ---- -- --- ---- -- ------ ------<br>not ----- -- ----,506647.52999995835,506646.50000003166,505923.623,505927.10500000976,505940.225,506656.715,,52,not
screen,html.Screen,1_1_0_1_53,2021-04-13T14:31:25.572Z,,,,,,,,,,,,,,,,53,,,,,,,,,,,,,,409.0349999506143,,response,,,,99,,,,,,,Space,keypress(Space),,,,,,,,---- -- ----- -- ------ - ------- --- ----------<br>------------- ------ ------ ---- ---- ------- ----- -- ----<br>-------- ------- -- ---------- --- - --- ----- ----- ----<br>---- --- --- ----- --- ---- ---- ------- ----- ---- -------<br>--- --- -- ----- -- --- ---- -- --- ---- -- ------ ------<br>--- close -- ----,507066.77499995567,507065.74999995064,506640.212,506647.75999996345,506656.715,507073.295,,53,close
screen,html.Screen,1_1_0_1_54,2021-04-13T14:31:25.988Z,,,,,,,,,,,,,,,,53,,,,,,,,,,,,,,408.2599999475642,,response,,,,99,,,,,,,Space,keypress(Space),,,,,,,,---- -- ----- -- ------ - ------- --- ----------<br>------------- ------ ------ ---- ---- ------- ----- -- ----<br>-------- ------- -- ---------- --- - --- ----- ----- ----<br>---- --- --- ----- --- ---- ---- ------- ----- ---- -------<br>--- --- -- ----- -- --- ---- -- --- ---- -- ------ ------<br>--- ----- at ----,507482.6350000221,507481.55499994755,507056.769,507067.0150000369,507073.295,507490.079,,54,at
screen,html.Screen,1_1_0_1_55,2021-04-13T14:31:26.438Z,,,,,,,,,,,,,,,,53,,,,,,,,,,,,,,441.1609999471111,,response,,,,99,,,,,,,Space,keypress(Space),,,,,,,,---- -- ----- -- ------ - ------- --- ----------<br>------------- ------ ------ ---- ---- ------- ----- -- ----<br>-------- ------- -- ---------- --- - --- ----- ----- ----<br>---- --- --- ----- --- ---- ---- ------- ----- ---- -------<br>--- --- -- ----- -- --- ---- -- --- ---- -- ------ ------<br>--- ----- -- all.,507932.3800000129,507931.23999994714,507473.415,507482.9600000521,507490.079,507956.538,,55,all.
Item 99,flow.Loop,1_1_0_1,2021-04-13T14:31:26.438Z,,,,,,,,,,,,,,,,,,,,,,,,,,,,,,27988.634999947157,,completion,,,,,C,,,,,,,,,,,silence,,,,,507932.93000000995,507931.23999994714,479892.798,479894.28999996744,479942.605,507956.538,,,
Question 1,html.Screen,1_1_0_2,2021-04-13T14:31:30.988Z,,,,,,,,,,,,,,,,,,,,,,,,,,,true,FALSE,,4524.372000042058,,response,,,,99,C,,,,,,FALSE,click #choice-2,,,,silence,,,,,512482.73499996867,512480.91000004206,507923.355,507933.3650000626,507956.538,512489.492,,,
Question 2,html.Screen,1_1_0_3,2021-04-13T14:31:36.420Z,,,,,,,,,,,,,,,,,,,,,,,,,,,true,TRUE,,5423.9330000351765,,response,,,,99,C,,,,,,TRUE,click #choice-1,,,,silence,,,,,517915.07500002626,517913.4250000352,512472.948,512483.0050000455,512489.492,517922.245,,,
Item 99,flow.Sequence,1_1_0,2021-04-13T14:31:36.421Z,,,,,,,,,,,,,,,,,,,,,,,,,,,,,,48003.194000035175,,completion,,,,,,,,,,,,,,,,,,,,,517915.47500004526,517913.4250000352,469877.124,469895.47500002664,469910.231,517922.245,,,
Holding screen,html.Screen,1_1_1_0,2021-04-13T14:31:46.411Z,,,,,,,,,,,,,,,,,,,,,,,,,,,,,,9999.089000000036,,timeout,,,,,,,,,,,,,,,,,,,,,527905.8850000147,527904.772,517905.729,517917.52000001725,517922.245,527921.334,,,
screen,html.Screen,1_1_1_1_0,2021-04-13T14:31:47.185Z,,,,,,,,,,,,,,,,54,,,,,,,,,,,,,,757.450999996392,,response,,,,100,,,,,,,Space,keypress(Space),,,,,,,,At --- ---- --- ------ ----- ------- ---- -- --- ------- --<br>------- ---------- ------ -- ----- -- ----- -- ---- ------<br>--- ----- --- --- ------ -------- ----- --- ------ ----- --<br>----- ----- ---------- --- --- ------ ------ ---- -- ------<br>------- --- ------ ----- --- ---- ------- -- ---- --- --<br>------- ------,528679.5200000051,528678.7849999964,527904.772,527906.2350000022,527921.334,528687.856,,0,At
screen,html.Screen,1_1_1_1_1,2021-04-13T14:31:47.589Z,,,,,,,,,,,,,,,,54,,,,,,,,,,,,,,395.534000043408,,response,,,,100,,,,,,,Space,keypress(Space),,,,,,,,-- the ---- --- ------ ----- ------- ---- -- --- ------- --<br>------- ---------- ------ -- ----- -- ----- -- ---- ------<br>--- ----- --- --- ------ -------- ----- --- ------ ----- --<br>----- ----- ---------- --- --- ------ ------ ---- -- ------<br>------- --- ------ ----- --- ---- ------- -- ---- --- --<br>------- ------,529084.14000005,529083.3900000434,528671.25,528679.7050000168,528687.856,529087.77,,1,the
screen,html.Screen,1_1_1_1_2,2021-04-13T14:31:48.111Z,,,,,,,,,,,,,,,,54,,,,,,,,,,,,,,517.3100000084378,,response,,,,100,,,,,,,Space,keypress(Space),,,,,,,,-- --- time --- ------ ----- ------- ---- -- --- ------- --<br>------- ---------- ------ -- ----- -- ----- -- ---- ------<br>--- ----- --- --- ------ -------- ----- --- ------ ----- --<br>----- ----- ---------- --- --- ------ ------ ---- -- ------<br>------- --- ------ ----- --- ---- ------- -- ---- --- --<br>------- ------,529606.1850000406,529605.0800000085,529071.296,529084.2999999877,529087.77,529621.27,,2,time
screen,html.Screen,1_1_1_1_3,2021-04-13T14:31:48.522Z,,,,,,,,,,,,,,,,54,,,,,,,,,,,,,,394.1900000241585,,response,,,,100,,,,,,,Space,keypress(Space),,,,,,,,-- --- ---- the ------ ----- ------- ---- -- --- ------- --<br>------- ---------- ------ -- ----- -- ----- -- ---- ------<br>--- ----- --- --- ------ -------- ----- --- ------ ----- --<br>----- ----- ---------- --- --- ------ ------ ---- -- ------<br>------- --- ------ ----- --- ---- ------- -- ---- --- --<br>------- ------,530016.4700000314,530015.4600000242,529604.464,529606.4600000391,529621.27,530021.019,,3,the
screen,html.Screen,1_1_1_1_4,2021-04-13T14:31:48.938Z,,,,,,,,,,,,,,,,54,,,,,,,,,,,,,,410.55100001522806,,response,,,,100,,,,,,,Space,keypress(Space),,,,,,,,-- --- ---- --- French ----- ------- ---- -- --- ------- --<br>------- ---------- ------ -- ----- -- ----- -- ---- ------<br>--- ----- --- --- ------ -------- ----- --- ------ ----- --<br>----- ----- ---------- --- --- ------ ------ ---- -- ------<br>------- --- ------ ----- --- ---- ------- -- ---- --- --<br>------- ------,530432.6199999778,530431.5700000152,530004.559,530016.719999956,530021.019,530437.629,,4,French
screen,html.Screen,1_1_1_1_5,2021-04-13T14:31:49.322Z,,,,,,,,,,,,,,,,54,,,,,,,,,,,,,,378.0659999975469,,response,,,,100,,,,,,,Space,keypress(Space),,,,,,,,-- --- ---- --- ------ crown ------- ---- -- --- ------- --<br>------- ---------- ------ -- ----- -- ----- -- ---- ------<br>--- ----- --- --- ------ -------- ----- --- ------ ----- --<br>----- ----- ---------- --- --- ------ ------ ---- -- ------<br>------- --- ------ ----- --- ---- ------- -- ---- --- --<br>------- ------,530816.7799999937,530815.6949999975,530421.2,530432.8750000568,530437.629,530820.945,,5,crown
screen,html.Screen,1_1_1_1_6,2021-04-13T14:31:49.779Z,,,,,,,,,,,,,,,,54,,,,,,,,,,,,,,451.6349999898812,,response,,,,100,,,,,,,Space,keypress(Space),,,,,,,,-- --- ---- --- ------ ----- secured ---- -- --- ------- --<br>------- ---------- ------ -- ----- -- ----- -- ---- ------<br>--- ----- --- --- ------ -------- ----- --- ------ ----- --<br>----- ----- ---------- --- --- ------ ------ ---- -- ------<br>------- --- ------ ----- --- ---- ------- -- ---- --- --<br>------- ------,531273.5000000102,531272.5799999898,530804.455,530817.0799999498,530820.945,531287.757,,6,secured
screen,html.Screen,1_1_1_1_7,2021-04-13T14:31:50.251Z,,,,,,,,,,,,,,,,54,,,,,,,,,,,,,,456.44799999543466,,response,,,,100,,,,,,,Space,keypress(Space),,,,,,,,-- --- ---- --- ------ ----- ------- much -- --- ------- --<br>------- ---------- ------ -- ----- -- ----- -- ---- ------<br>--- ----- --- --- ------ -------- ----- --- ------ ----- --<br>----- ----- ---------- --- --- ------ ------ ---- -- ------<br>------- --- ------ ----- --- ---- ------- -- ---- --- --<br>------- ------,531745.3199999873,531744.2049999954,531271.084,531273.7450000132,531287.757,531754.429,,7,much
screen,html.Screen,1_1_1_1_8,2021-04-13T14:31:50.659Z,,,,,,,,,,,,,,,,54,,,,,,,,,,,,,,398.0409999717958,,response,,,,100,,,,,,,Space,keypress(Space),,,,,,,,-- --- ---- --- ------ ----- ------- ---- of --- ------- --<br>------- ---------- ------ -- ----- -- ----- -- ---- ------<br>--- ----- --- --- ------ -------- ----- --- ------ ----- --<br>----- ----- ---------- --- --- ------ ------ ---- -- ------<br>------- --- ------ ----- --- ---- ------- -- ---- --- --<br>------- ------,532153.6499999929,532152.4699999718,531737.713,531745.5749999499,531754.429,532170.902,,8,of
screen,html.Screen,1_1_1_1_9,2021-04-13T14:31:51.000Z,,,,,,,,,,,,,,,,54,,,,,,,,,,,,,,322.81800002767704,,response,,,,100,,,,,,,Space,keypress(Space),,,,,,,,-- --- ---- --- ------ ----- ------- ---- -- its ------- --<br>------- ---------- ------ -- ----- -- ----- -- ---- ------<br>--- ----- --- --- ------ -------- ----- --- ------ ----- --<br>----- ----- ---------- --- --- ------ ------ ---- -- ------<br>------- --- ------ ----- --- ---- ------- -- ---- --- --<br>------- ------,532494.9999999953,532493.7200000277,532154.37,532153.954999987,532170.902,532504.402,,9,its
screen,html.Screen,1_1_1_1_10,2021-04-13T14:31:51.373Z,,,,,,,,,,,,,,,,54,,,,,,,,,,,,,,362.74300002562813,,response,,,,100,,,,,,,Space,keypress(Space),,,,,,,,-- --- ---- --- ------ ----- ------- ---- -- --- revenue --<br>------- ---------- ------ -- ----- -- ----- -- ---- ------<br>--- ----- --- --- ------ -------- ----- --- ------ ----- --<br>----- ----- ---------- --- --- ------ ------ ---- -- ------<br>------- --- ------ ----- --- ---- ------- -- ---- --- --<br>------- ------,532868.2350000599,532867.1450000256,532487.483,532495.2699999558,532504.402,532870.78,,10,revenue
screen,html.Screen,1_1_1_1_11,2021-04-13T14:31:51.764Z,,,,,,,,,,,,,,,,54,,,,,,,,,,,,,,386.9450000321958,,response,,,,100,,,,,,,Space,keypress(Space),,,,,,,,-- --- ---- --- ------ ----- ------- ---- -- --- ------- by<br>------- ---------- ------ -- ----- -- ----- -- ---- ------<br>--- ----- --- --- ------ -------- ----- --- ------ ----- --<br>----- ----- ---------- --- --- ------ ------ ---- -- ------<br>------- --- ------ ----- --- ---- ------- -- ---- --- --<br>------- ------,533258.5200000321,533257.7250000322,532854.296,532868.5500000138,532870.78,533270.856,,11,by
screen,html.Screen,1_1_1_1_12,2021-04-13T14:31:52.278Z,,,,,,,,,,,,,,,,54,,,,,,,,,,,,,,500.5690000426257,,response,,,,100,,,,,,,Space,keypress(Space),,,,,,,,-- --- ---- --- ------ ----- ------- ---- -- --- ------- --<br>issuing ---------- ------ -- ----- -- ----- -- ---- ------<br>--- ----- --- --- ------ -------- ----- --- ------ ----- --<br>----- ----- ---------- --- --- ------ ------ ---- -- ------<br>------- --- ------ ----- --- ---- ------- -- ---- --- --<br>------- ------,533772.4500000477,533771.4250000427,533254.249,533258.690000046,533270.856,533787.518,,12,issuing
screen,html.Screen,1_1_1_1_13,2021-04-13T14:31:52.689Z,,,,,,,,,,,,,,,,54,,,,,,,,,,,,,,395.4669999630423,,response,,,,100,,,,,,,Space,keypress(Space),,,,,,,,-- --- ---- --- ------ ----- ------- ---- -- --- ------- --<br>------- government ------ -- ----- -- ----- -- ---- ------<br>--- ----- --- --- ------ -------- ----- --- ------ ----- --<br>----- ----- ---------- --- --- ------ ------ ---- -- ------<br>------- --- ------ ----- --- ---- ------- -- ---- --- --<br>------- ------,534184.030000004,534182.9849999631,533770.832,533772.6800000528,533787.518,534187.325,,13,government
screen,html.Screen,1_1_1_1_14,2021-04-13T14:31:53.102Z,,,,,,,,,,,,,,,,54,,,,,,,,,,,,,,408.80000004009344,,response,,,,100,,,,,,,Space,keypress(Space),,,,,,,,-- --- ---- --- ------ ----- ------- ---- -- --- ------- --<br>------- ---------- bonds. -- ----- -- ----- -- ---- ------<br>--- ----- --- --- ------ -------- ----- --- ------ ----- --<br>----- ----- ---------- --- --- ------ ------ ---- -- ------<br>------- --- ------ ----- --- ---- ------- -- ---- --- --<br>------- ------,534597.289999947,534596.12500004,534170.878,534184.3449999578,534187.325,534603.944,,14,bonds.
screen,html.Screen,1_1_1_1_15,2021-04-13T14:31:53.590Z,,,,,,,,,,,,,,,,54,,,,,,,,,,,,,,479.706000044127,,response,,,,100,,,,,,,Space,keypress(Space),,,,,,,,-- --- ---- --- ------ ----- ------- ---- -- --- ------- --<br>------- ---------- ------ In ----- -- ----- -- ---- ------<br>--- ----- --- --- ------ -------- ----- --- ------ ----- --<br>----- ----- ---------- --- --- ------ ------ ---- -- ------<br>------- --- ------ ----- --- ---- ------- -- ---- --- --<br>------- ------,535084.690000047,535083.6500000441,534587.466,534597.5650000619,534603.944,535087.222,,15,In
screen,html.Screen,1_1_1_1_16,2021-04-13T14:31:54.859Z,,,,,,,,,,,,,,,,54,,,,,,,,,,,,,,1265.2679999611573,,response,,,,100,,,,,,,Space,keypress(Space),,,,,,,,"-- --- ---- --- ------ ----- ------- ---- -- --- ------- --<br>------- ---------- ------ -- 1727, -- ----- -- ---- ------<br>--- ----- --- --- ------ -------- ----- --- ------ ----- --<br>----- ----- ---------- --- --- ------ ------ ---- -- ------<br>------- --- ------ ----- --- ---- ------- -- ---- --- --<br>------- ------",536353.5200000042,536352.4899999611,535070.739,535084.9399999715,535087.222,536370.572,,16,"1727,"
screen,html.Screen,1_1_1_1_17,2021-04-13T14:31:55.474Z,,,,,,,,,,,,,,,,54,,,,,,,,,,,,,,596.6179999957094,,response,,,,100,,,,,,,Space,keypress(Space),,,,,,,,-- --- ---- --- ------ ----- ------- ---- -- --- ------- --<br>------- ---------- ------ -- ----- in ----- -- ---- ------<br>--- ----- --- --- ------ -------- ----- --- ------ ----- --<br>----- ----- ---------- --- --- ------ ------ ---- -- ------<br>------- --- ------ ----- --- ---- ------- -- ---- --- --<br>------- ------,536968.3199999854,536967.1899999958,536354.002,536353.8699999917,536370.572,536970.367,,17,in
screen,html.Screen,1_1_1_1_18,2021-04-13T14:31:55.924Z,,,,,,,,,,,,,,,,54,,,,,,,,,,,,,,447.5080000428716,,response,,,,100,,,,,,,Space,keypress(Space),,,,,,,,-- --- ---- --- ------ ----- ------- ---- -- --- ------- --<br>------- ---------- ------ -- ----- -- order -- ---- ------<br>--- ----- --- --- ------ -------- ----- --- ------ ----- --<br>----- ----- ---------- --- --- ------ ------ ---- -- ------<br>------- --- ------ ----- --- ---- ------- -- ---- --- --<br>------- ------,537418.9750000369,537417.8750000428,536953.741,536968.5649999883,536970.367,537452.005,,18,order
screen,html.Screen,1_1_1_1_19,2021-04-13T14:31:56.320Z,,,,,,,,,,,,,,,,54,,,,,,,,,,,,,,362.1050000357209,,response,,,,100,,,,,,,Space,keypress(Space),,,,,,,,-- --- ---- --- ------ ----- ------- ---- -- --- ------- --<br>------- ---------- ------ -- ----- -- ----- to ---- ------<br>--- ----- --- --- ------ -------- ----- --- ------ ----- --<br>----- ----- ---------- --- --- ------ ------ ---- -- ------<br>------- --- ------ ----- --- ---- ------- -- ---- --- --<br>------- ------,537815.169999958,537814.1100000357,537403.853,537419.2650000332,537452.005,537820.287,,19,to
screen,html.Screen,1_1_1_1_20,2021-04-13T14:31:57.142Z,,,,,,,,,,,,,,,,54,,,,,,,,,,,,,,814.9979999675415,,response,,,,100,,,,,,,Space,keypress(Space),,,,,,,,-- --- ---- --- ------ ----- ------- ---- -- --- ------- --<br>------- ---------- ------ -- ----- -- ----- -- save ------<br>--- ----- --- --- ------ -------- ----- --- ------ ----- --<br>----- ----- ---------- --- --- ------ ------ ---- -- ------<br>------- --- ------ ----- --- ---- ------- -- ---- --- --<br>------- ------,538636.4199999953,538635.2849999676,537803.79,537815.4299999587,537820.287,538653.581,,20,save
screen,html.Screen,1_1_1_1_21,2021-04-13T14:31:57.572Z,,,,,,,,,,,,,,,,54,,,,,,,,,,,,,,412.1589999909047,,response,,,,100,,,,,,,Space,keypress(Space),,,,,,,,"-- --- ---- --- ------ ----- ------- ---- -- --- ------- --<br>------- ---------- ------ -- ----- -- ----- -- ---- money,<br>--- ----- --- --- ------ -------- ----- --- ------ ----- --<br>----- ----- ---------- --- --- ------ ------ ---- -- ------<br>------- --- ------ ----- --- ---- ------- -- ---- --- --<br>------- ------",539066.8350000633,539065.7399999909,538637.048,538636.8850000435,538653.581,539070.183,,21,"money,"
screen,html.Screen,1_1_1_1_22,2021-04-13T14:31:58.038Z,,,,,,,,,,,,,,,,54,,,,,,,,,,,,,,462.5970000086818,,response,,,,100,,,,,,,Space,keypress(Space),,,,,,,,-- --- ---- --- ------ ----- ------- ---- -- --- ------- --<br>------- ---------- ------ -- ----- -- ----- -- ---- ------<br>the ----- --- --- ------ -------- ----- --- ------ ----- --<br>----- ----- ---------- --- --- ------ ------ ---- -- ------<br>------- --- ------ ----- --- ---- ------- -- ---- --- --<br>------- ------,539533.2499999786,539532.7800000086,539053.687,539067.0949999476,539070.183,539536.731,,22,the
screen,html.Screen,1_1_1_1_23,2021-04-13T14:31:58.443Z,,,,,,,,,,,,,,,,54,,,,,,,,,,,,,,399.72399995906744,,response,,,,100,,,,,,,Space,keypress(Space),,,,,,,,-- --- ---- --- ------ ----- ------- ---- -- --- ------- --<br>------- ---------- ------ -- ----- -- ----- -- ---- ------<br>--- state --- --- ------ -------- ----- --- ------ ----- --<br>----- ----- ---------- --- --- ------ ------ ---- -- ------<br>------- --- ------ ----- --- ---- ------- -- ---- --- --<br>------- ------,539937.9249999765,539936.4549999591,539520.303,539533.3450000035,539536.731,539953.601,,23,state
screen,html.Screen,1_1_1_1_24,2021-04-13T14:31:59.077Z,,,,,,,,,,,,,,,,54,,,,,,,,,,,,,,617.6140000035521,,response,,,,100,,,,,,,Space,keypress(Space),,,,,,,,-- --- ---- --- ------ ----- ------- ---- -- --- ------- --<br>------- ---------- ------ -- ----- -- ----- -- ---- ------<br>--- ----- cut --- ------ -------- ----- --- ------ ----- --<br>----- ----- ---------- --- --- ------ ------ ---- -- ------<br>------- --- ------ ----- --- ---- ------- -- ---- --- --<br>------- ------,540571.910000057,540571.2150000036,539936.889,539938.3399999933,539953.601,540586.688,,24,cut
screen,html.Screen,1_1_1_1_25,2021-04-13T14:31:59.415Z,,,,,,,,,,,,,,,,54,,,,,,,,,,,,,,321.6669999632286,,response,,,,100,,,,,,,Space,keypress(Space),,,,,,,,-- --- ---- --- ------ ----- ------- ---- -- --- ------- --<br>------- ---------- ------ -- ----- -- ----- -- ---- ------<br>--- ----- --- the ------ -------- ----- --- ------ ----- --<br>----- ----- ---------- --- --- ------ ------ ---- -- ------<br>------- --- ------ ----- --- ---- ------- -- ---- --- --<br>------- ------,540909.4599999953,540908.3549999632,540570.258,540572.1149999881,540586.688,540920.057,,25,the
screen,html.Screen,1_1_1_1_26,2021-04-13T14:31:59.784Z,,,,,,,,,,,,,,,,54,,,,,,,,,,,,,,357.74799996148795,,response,,,,100,,,,,,,Space,keypress(Space),,,,,,,,-- --- ---- --- ------ ----- ------- ---- -- --- ------- --<br>------- ---------- ------ -- ----- -- ----- -- ---- ------<br>--- ----- --- --- bonds' -------- ----- --- ------ ----- --<br>----- ----- ---------- --- --- ------ ------ ---- -- ------<br>------- --- ------ ----- --- ---- ------- -- ---- --- --<br>------- ------,541278.9750000229,541277.8049999615,540903.345,540909.7250000341,540920.057,541286.835,,26,bonds'
screen,html.Screen,1_1_1_1_27,2021-04-13T14:32:00.604Z,,,,,,,,,,,,,,,,54,,,,,,,,,,,,,,811.1799999959767,,response,,,,100,,,,,,,Space,keypress(Space),,,,,,,,-- --- ---- --- ------ ----- ------- ---- -- --- ------- --<br>------- ---------- ------ -- ----- -- ----- -- ---- ------<br>--- ----- --- --- ------ interest ----- --- ------ ----- --<br>----- ----- ---------- --- --- ------ ------ ---- -- ------<br>------- --- ------ ----- --- ---- ------- -- ---- --- --<br>------- ------,542099.1299999878,542098.0149999959,541270.168,541279.2599999812,541286.835,542103.199,,27,interest
screen,html.Screen,1_1_1_1_28,2021-04-13T14:32:01.096Z,,,,,,,,,,,,,,,,54,,,,,,,,,,,,,,486.2959999637678,,response,,,,100,,,,,,,Space,keypress(Space),,,,,,,,-- --- ---- --- ------ ----- ------- ---- -- --- ------- --<br>------- ---------- ------ -- ----- -- ----- -- ---- ------<br>--- ----- --- --- ------ -------- rate. --- ------ ----- --<br>----- ----- ---------- --- --- ------ ------ ---- -- ------<br>------- --- ------ ----- --- ---- ------- -- ---- --- --<br>------- ------,542590.5999999959,542589.4949999638,542086.718,542099.4049999863,542103.199,542603.313,,28,rate.
screen,html.Screen,1_1_1_1_29,2021-04-13T14:32:02.094Z,,,,,,,,,,,,,,,,54,,,,,,,,,,,,,,984.7019999866607,,response,,,,100,,,,,,,Space,keypress(Space),,,,,,,,-- --- ---- --- ------ ----- ------- ---- -- --- ------- --<br>------- ---------- ------ -- ----- -- ----- -- ---- ------<br>--- ----- --- --- ------ -------- ----- The ------ ----- --<br>----- ----- ---------- --- --- ------ ------ ---- -- ------<br>------- --- ------ ----- --- ---- ------- -- ---- --- --<br>------- ------,543589.1500000143,543588.0149999866,542586.648,542590.8899999922,542603.313,543603.197,,29,The
screen,html.Screen,1_1_1_1_30,2021-04-13T14:32:02.461Z,,,,,,,,,,,,,,,,54,,,,,,,,,,,,,,351.74800000491086,,response,,,,100,,,,,,,Space,keypress(Space),,,,,,,,-- --- ---- --- ------ ----- ------- ---- -- --- ------- --<br>------- ---------- ------ -- ----- -- ----- -- ---- ------<br>--- ----- --- --- ------ -------- ----- --- market ----- --<br>----- ----- ---------- --- --- ------ ------ ---- -- ------<br>------- --- ------ ----- --- ---- ------- -- ---- --- --<br>------- ------,543956.1250000261,543954.945000005,543586.47,543589.404999977,543603.197,543969.85,,30,market
screen,html.Screen,1_1_1_1_31,2021-04-13T14:32:02.873Z,,,,,,,,,,,,,,,,54,,,,,,,,,,,,,,396.53999998106156,,response,,,,100,,,,,,,Space,keypress(Space),,,,,,,,-- --- ---- --- ------ ----- ------- ---- -- --- ------- --<br>------- ---------- ------ -- ----- -- ----- -- ---- ------<br>--- ----- --- --- ------ -------- ----- --- ------ value --<br>----- ----- ---------- --- --- ------ ------ ---- -- ------<br>------- --- ------ ----- --- ---- ------- -- ---- --- --<br>------- ------,544367.5700000022,544366.389999981,543953.071,543956.3949999865,543969.85,544369.662,,31,value
screen,html.Screen,1_1_1_1_32,2021-04-13T14:32:03.279Z,,,,,,,,,,,,,,,,54,,,,,,,,,,,,,,403.15799995465204,,response,,,,100,,,,,,,Space,keypress(Space),,,,,,,,-- --- ---- --- ------ ----- ------- ---- -- --- ------- --<br>------- ---------- ------ -- ----- -- ----- -- ---- ------<br>--- ----- --- --- ------ -------- ----- --- ------ ----- of<br>----- ----- ---------- --- --- ------ ------ ---- -- ------<br>------- --- ------ ----- --- ---- ------- -- ---- --- --<br>------- ------,544773.6499999883,544772.8199999547,544353.171,544367.8599999985,544369.662,544786.402,,32,of
screen,html.Screen,1_1_1_1_33,2021-04-13T14:32:03.585Z,,,,,,,,,,,,,,,,54,,,,,,,,,,,,,,292.082999947248,,response,,,,100,,,,,,,Space,keypress(Space),,,,,,,,-- --- ---- --- ------ ----- ------- ---- -- --- ------- --<br>------- ---------- ------ -- ----- -- ----- -- ---- ------<br>--- ----- --- --- ------ -------- ----- --- ------ ----- --<br>these ----- ---------- --- --- ------ ------ ---- -- ------<br>------- --- ------ ----- --- ---- ------- -- ---- --- --<br>------- ------,545079.550000024,545078.4849999472,544769.799,544773.8449999597,544786.402,545086.261,,33,these
screen,html.Screen,1_1_1_1_34,2021-04-13T14:32:04.034Z,,,,,,,,,,,,,,,,54,,,,,,,,,,,,,,441.19900001201313,,response,,,,100,,,,,,,Space,keypress(Space),,,,,,,,-- --- ---- --- ------ ----- ------- ---- -- --- ------- --<br>------- ---------- ------ -- ----- -- ----- -- ---- ------<br>--- ----- --- --- ------ -------- ----- --- ------ ----- --<br>----- bonds ---------- --- --- ------ ------ ---- -- ------<br>------- --- ------ ----- --- ---- ------- -- ---- --- --<br>------- ------,545528.6100000376,545527.4600000121,545069.743,545079.8049999867,545086.261,545536.21,,34,bonds
screen,html.Screen,1_1_1_1_35,2021-04-13T14:32:04.490Z,,,,,,,,,,,,,,,,54,,,,,,,,,,,,,,447.25000001769513,,response,,,,100,,,,,,,Space,keypress(Space),,,,,,,,"-- --- ---- --- ------ ----- ------- ---- -- --- ------- --<br>------- ---------- ------ -- ----- -- ----- -- ---- ------<br>--- ----- --- --- ------ -------- ----- --- ------ ----- --<br>----- ----- plummeted, --- --- ------ ------ ---- -- ------<br>------- --- ------ ----- --- ---- ------- -- ---- --- --<br>------- ------",545984.6949999919,545983.4600000177,545519.695,545528.8850000361,545536.21,546008.309,,35,"plummeted,"
screen,html.Screen,1_1_1_1_36,2021-04-13T14:32:04.889Z,,,,,,,,,,,,,,,,54,,,,,,,,,,,,,,374.5510000124341,,response,,,,100,,,,,,,Space,keypress(Space),,,,,,,,-- --- ---- --- ------ ----- ------- ---- -- --- ------- --<br>------- ---------- ------ -- ----- -- ----- -- ---- ------<br>--- ----- --- --- ------ -------- ----- --- ------ ----- --<br>----- ----- ---------- and --- ------ ------ ---- -- ------<br>------- --- ------ ----- --- ---- ------- -- ---- --- --<br>------- ------,546383.9600000065,546382.8600000124,545969.577,545984.9499999546,546008.309,546386.124,,36,and
screen,html.Screen,1_1_1_1_37,2021-04-13T14:32:05.179Z,,,,,,,,,,,,,,,,54,,,,,,,,,,,,,,286.8159999604104,,response,,,,100,,,,,,,Space,keypress(Space),,,,,,,,-- --- ---- --- ------ ----- ------- ---- -- --- ------- --<br>------- ---------- ------ -- ----- -- ----- -- ---- ------<br>--- ----- --- --- ------ -------- ----- --- ------ ----- --<br>----- ----- ---------- --- the ------ ------ ---- -- ------<br>------- --- ------ ----- --- ---- ------- -- ---- --- --<br>------- ------,546674.1850000108,546672.9399999604,546369.637,546384.2599999625,546386.124,546686.238,,37,the
screen,html.Screen,1_1_1_1_38,2021-04-13T14:32:05.590Z,,,,,,,,,,,,,,,,54,,,,,,,,,,,,,,397.93699996720534,,response,,,,100,,,,,,,Space,keypress(Space),,,,,,,,-- --- ---- --- ------ ----- ------- ---- -- --- ------- --<br>------- ---------- ------ -- ----- -- ----- -- ---- ------<br>--- ----- --- --- ------ -------- ----- --- ------ ----- --<br>----- ----- ---------- --- --- market ------ ---- -- ------<br>------- --- ------ ----- --- ---- ------- -- ---- --- --<br>------- ------,547085.240000044,547084.1749999672,546669.58,546674.4500000495,546686.238,547119.574,,38,market
screen,html.Screen,1_1_1_1_39,2021-04-13T14:32:06.087Z,,,,,,,,,,,,,,,,54,,,,,,,,,,,,,,461.6610000487417,,response,,,,100,,,,,,,Space,keypress(Space),,,,,,,,-- --- ---- --- ------ ----- ------- ---- -- --- ------- --<br>------- ---------- ------ -- ----- -- ----- -- ---- ------<br>--- ----- --- --- ------ -------- ----- --- ------ ----- --<br>----- ----- ---------- --- --- ------ became ---- -- ------<br>------- --- ------ ----- --- ---- ------- -- ---- --- --<br>------- ------,547582.294999971,547581.2350000488,547102.921,547085.5150000425,547119.574,547586.015,,39,became
screen,html.Screen,1_1_1_1_40,2021-04-13T14:32:06.506Z,,,,,,,,,,,,,,,,54,,,,,,,,,,,,,,413.7750000307569,,response,,,,100,,,,,,,Space,keypress(Space),,,,,,,,-- --- ---- --- ------ ----- ------- ---- -- --- ------- --<br>------- ---------- ------ -- ----- -- ----- -- ---- ------<br>--- ----- --- --- ------ -------- ----- --- ------ ----- --<br>----- ----- ---------- --- --- ------ ------ wary -- ------<br>------- --- ------ ----- --- ---- ------- -- ---- --- --<br>------- ------,548000.699999975,547999.7900000308,547569.559,547582.614999963,547586.015,548002.641,,40,wary
screen,html.Screen,1_1_1_1_41,2021-04-13T14:32:07.044Z,,,,,,,,,,,,,,,,54,,,,,,,,,,,,,,535.1740000470309,,response,,,,100,,,,,,,Space,keypress(Space),,,,,,,,-- --- ---- --- ------ ----- ------- ---- -- --- ------- --<br>------- ---------- ------ -- ----- -- ----- -- ---- ------<br>--- ----- --- --- ------ -------- ----- --- ------ ----- --<br>----- ----- ---------- --- --- ------ ------ ---- of ------<br>------- --- ------ ----- --- ---- ------- -- ---- --- --<br>------- ------,548538.4250000352,548537.815000047,547986.145,548001.0100000072,548002.641,548552.596,,41,of
screen,html.Screen,1_1_1_1_42,2021-04-13T14:32:07.448Z,,,,,,,,,,,,,,,,54,,,,,,,,,,,,,,389.114000042784,,response,,,,100,,,,,,,Space,keypress(Space),,,,,,,,-- --- ---- --- ------ ----- ------- ---- -- --- ------- --<br>------- ---------- ------ -- ----- -- ----- -- ---- ------<br>--- ----- --- --- ------ -------- ----- --- ------ ----- --<br>----- ----- ---------- --- --- ------ ------ ---- -- French<br>------- --- ------ ----- --- ---- ------- -- ---- --- --<br>------- ------,548942.470000009,548941.7100000428,548536.081,548538.5399999795,548552.596,548952.553,,42,French
screen,html.Screen,1_1_1_1_43,2021-04-13T14:32:07.755Z,,,,,,,,,,,,,,,,54,,,,,,,,,,,,,,295.791999970912,,response,,,,100,,,,,,,Space,keypress(Space),,,,,,,,-- --- ---- --- ------ ----- ------- ---- -- --- ------- --<br>------- ---------- ------ -- ----- -- ----- -- ---- ------<br>--- ----- --- --- ------ -------- ----- --- ------ ----- --<br>----- ----- ---------- --- --- ------ ------ ---- -- ------<br>credit. --- ------ ----- --- ---- ------- -- ---- --- --<br>------- ------,549249.4949999964,549248.3449999709,548935.887,548942.6550000207,548952.553,549252.509,,43,credit.
screen,html.Screen,1_1_1_1_44,2021-04-13T14:32:08.294Z,,,,,,,,,,,,,,,,54,,,,,,,,,,,,,,536.1809999576071,,response,,,,100,,,,,,,Space,keypress(Space),,,,,,,,-- --- ---- --- ------ ----- ------- ---- -- --- ------- --<br>------- ---------- ------ -- ----- -- ----- -- ---- ------<br>--- ----- --- --- ------ -------- ----- --- ------ ----- --<br>----- ----- ---------- --- --- ------ ------ ---- -- ------<br>------- The ------ ----- --- ---- ------- -- ---- --- --<br>------- ------,549789.214999997,549788.6899999576,549236.003,549249.85500006,549252.509,549802.472,,44,The
screen,html.Screen,1_1_1_1_45,2021-04-13T14:32:08.870Z,,,,,,,,,,,,,,,,54,,,,,,,,,,,,,,560.8480000040727,,response,,,,100,,,,,,,Space,keypress(Space),,,,,,,,-- --- ---- --- ------ ----- ------- ---- -- --- ------- --<br>------- ---------- ------ -- ----- -- ----- -- ---- ------<br>--- ----- --- --- ------ -------- ----- --- ------ ----- --<br>----- ----- ---------- --- --- ------ ------ ---- -- ------<br>------- --- French ----- --- ---- ------- -- ---- --- --<br>------- ------,550364.345000009,550363.320000004,549785.976,549789.3199999817,549802.472,550369.037,,45,French
screen,html.Screen,1_1_1_1_46,2021-04-13T14:32:09.224Z,,,,,,,,,,,,,,,,54,,,,,,,,,,,,,,348.2380000608973,,response,,,,100,,,,,,,Space,keypress(Space),,,,,,,,-- --- ---- --- ------ ----- ------- ---- -- --- ------- --<br>------- ---------- ------ -- ----- -- ----- -- ---- ------<br>--- ----- --- --- ------ -------- ----- --- ------ ----- --<br>----- ----- ---------- --- --- ------ ------ ---- -- ------<br>------- --- ------ state --- ---- ------- -- ---- --- --<br>------- ------,550718.42499997,550717.2750000609,550352.353,550364.5999999717,550369.037,550735.875,,46,state
screen,html.Screen,1_1_1_1_47,2021-04-13T14:32:09.638Z,,,,,,,,,,,,,,,,54,,,,,,,,,,,,,,396.28999995905906,,response,,,,100,,,,,,,Space,keypress(Space),,,,,,,,-- --- ---- --- ------ ----- ------- ---- -- --- ------- --<br>------- ---------- ------ -- ----- -- ----- -- ---- ------<br>--- ----- --- --- ------ -------- ----- --- ------ ----- --<br>----- ----- ---------- --- --- ------ ------ ---- -- ------<br>------- --- ------ ----- was ---- ------- -- ---- --- --<br>------- ------,551133.1800000044,551132.1649999591,550719.168,550718.6849999707,550735.875,551135.652,,47,was
screen,html.Screen,1_1_1_1_48,2021-04-13T14:32:09.979Z,,,,,,,,,,,,,,,,54,,,,,,,,,,,,,,336.83300003479235,,response,,,,100,,,,,,,Space,keypress(Space),,,,,,,,-- --- ---- --- ------ ----- ------- ---- -- --- ------- --<br>------- ---------- ------ -- ----- -- ----- -- ---- ------<br>--- ----- --- --- ------ -------- ----- --- ------ ----- --<br>----- ----- ---------- --- --- ------ ------ ---- -- ------<br>------- --- ------ ----- --- left ------- -- ---- --- --<br>------- ------,551473.6650000559,551472.4850000348,551119.215,551133.4750000387,551135.652,551485.797,,48,left
screen,html.Screen,1_1_1_1_49,2021-04-13T14:32:10.393Z,,,,,,,,,,,,,,,,54,,,,,,,,,,,,,,400.9579999849666,,response,,,,100,,,,,,,Space,keypress(Space),,,,,,,,-- --- ---- --- ------ ----- ------- ---- -- --- ------- --<br>------- ---------- ------ -- ----- -- ----- -- ---- ------<br>--- ----- --- --- ------ -------- ----- --- ------ ----- --<br>----- ----- ---------- --- --- ------ ------ ---- -- ------<br>------- --- ------ ----- --- ---- without -- ---- --- --<br>------- ------,551887.9599999636,551886.754999985,551469.122,551473.9500000142,551485.797,551902.411,,49,without
screen,html.Screen,1_1_1_1_50,2021-04-13T14:32:10.772Z,,,,,,,,,,,,,,,,54,,,,,,,,,,,,,,363.0389999480685,,response,,,,100,,,,,,,Space,keypress(Space),,,,,,,,-- --- ---- --- ------ ----- ------- ---- -- --- ------- --<br>------- ---------- ------ -- ----- -- ----- -- ---- ------<br>--- ----- --- --- ------ -------- ----- --- ------ ----- --<br>----- ----- ---------- --- --- ------ ------ ---- -- ------<br>------- --- ------ ----- --- ---- ------- an ---- --- --<br>------- ------,552266.5200000629,552265.449999948,551885.8,551888.2199999643,551902.411,552268.895,,50,an
screen,html.Screen,1_1_1_1_51,2021-04-13T14:32:11.144Z,,,,,,,,,,,,,,,,54,,,,,,,,,,,,,,368.6600000229664,,response,,,,100,,,,,,,Space,keypress(Space),,,,,,,,-- --- ---- --- ------ ----- ------- ---- -- --- ------- --<br>------- ---------- ------ -- ----- -- ----- -- ---- ------<br>--- ----- --- --- ------ -------- ----- --- ------ ----- --<br>----- ----- ---------- --- --- ------ ------ ---- -- ------<br>------- --- ------ ----- --- ---- ------- -- easy --- --<br>------- ------,552638.724999968,552637.555000023,552252.43,552266.7849999852,552268.895,552652.354,,51,easy
screen,html.Screen,1_1_1_1_52,2021-04-13T14:32:11.596Z,,,,,,,,,,,,,,,,54,,,,,,,,,,,,,,437.63099996955134,,response,,,,100,,,,,,,Space,keypress(Space),,,,,,,,-- --- ---- --- ------ ----- ------- ---- -- --- ------- --<br>------- ---------- ------ -- ----- -- ----- -- ---- ------<br>--- ----- --- --- ------ -------- ----- --- ------ ----- --<br>----- ----- ---------- --- --- ------ ------ ---- -- ------<br>------- --- ------ ----- --- ---- ------- -- ---- way --<br>------- ------,553091.0600000061,553089.9849999696,552635.682,552638.9900000067,552652.354,553102.25,,52,way
screen,html.Screen,1_1_1_1_53,2021-04-13T14:32:12.012Z,,,,,,,,,,,,,,,,54,,,,,,,,,,,,,,403.90999998990446,,response,,,,100,,,,,,,Space,keypress(Space),,,,,,,,-- --- ---- --- ------ ----- ------- ---- -- --- ------- --<br>------- ---------- ------ -- ----- -- ----- -- ---- ------<br>--- ----- --- --- ------ -------- ----- --- ------ ----- --<br>----- ----- ---------- --- --- ------ ------ ---- -- ------<br>------- --- ------ ----- --- ---- ------- -- ---- --- of<br>------- ------,553507.0449999766,553506.1599999899,553085.64,553091.3949999958,553102.25,553518.948,,53,of
screen,html.Screen,1_1_1_1_54,2021-04-13T14:32:12.436Z,,,,,,,,,,,,,,,,54,,,,,,,,,,,,,,411.1220000021858,,response,,,,100,,,,,,,Space,keypress(Space),,,,,,,,-- --- ---- --- ------ ----- ------- ---- -- --- ------- --<br>------- ---------- ------ -- ----- -- ----- -- ---- ------<br>--- ----- --- --- ------ -------- ----- --- ------ ----- --<br>----- ----- ---------- --- --- ------ ------ ---- -- ------<br>------- --- ------ ----- --- ---- ------- -- ---- --- --<br>raising ------,553931.110000005,553930.0700000022,553502.111,553507.265000022,553518.948,553935.43,,54,raising
screen,html.Screen,1_1_1_1_55,2021-04-13T14:32:12.860Z,,,,,,,,,,,,,,,,54,,,,,,,,,,,,,,418.02000005322043,,response,,,,100,,,,,,,Space,keypress(Space),,,,,,,,-- --- ---- --- ------ ----- ------- ---- -- --- ------- --<br>------- ---------- ------ -- ----- -- ----- -- ---- ------<br>--- ----- --- --- ------ -------- ----- --- ------ ----- --<br>----- ----- ---------- --- --- ------ ------ ---- -- ------<br>------- --- ------ ----- --- ---- ------- -- ---- --- --<br>------- money.,554354.5500000473,554353.4500000533,553918.942,553931.4650000306,553935.43,554368.633,,55,money.
Item 100,flow.Loop,1_1_1_1,2021-04-13T14:32:12.860Z,,,,,,,,,,,,,,,,,,,,,,,,,,,,,,26432.11600005324,,completion,,,,,C,,,,,,,,,,,silence,,,,,554355.0449999748,554353.4500000533,527904.772,527906.1450000154,527921.334,554368.633,,,
Question 1,html.Screen,1_1_1_2,2021-04-13T14:32:15.003Z,,,,,,,,,,,,,,,,,,,,,,,,,,,true,TRUE,,2127.8270000530174,,response,,,,100,C,,,,,,TRUE,click #choice-1,,,,silence,,,,,556498.0150000192,556496.460000053,554352.21,554355.2299999865,554368.633,556501.819,,,
Question 2,html.Screen,1_1_1_3,2021-04-13T14:32:17.513Z,,,,,,,,,,,,,,,,,,,,,,,,,,,true,FALSE,,2504.4309999766992,,response,,,,100,C,,,,,,FALSE,click #choice-2,,,,silence,,,,,559007.8500000527,559006.2499999767,556485.303,556498.2750000199,556501.819,559018.236,,,
Item 100,flow.Sequence,1_1_1,2021-04-13T14:32:17.513Z,,,,,,,,,,,,,,,,,,,,,,,,,,,,,,41084.00499997672,,completion,,,,,,,,,,,,,,,,,,,,,559008.2649999531,559006.2499999767,517905.729,517917.3749999609,517922.245,559018.236,,,
End of Practice,html.Page,1_1_2,2021-04-13T14:32:23.250Z,,,,,,,,,,,,,,,,,,,,,,,,,,,,,,5725.94899995951,,form submission,,,,,,,,,,,,,,,,,,,,,564744.8250000598,564744.1849999595,559001.692,559008.4700000007,559018.236,564751.009,,,
Practice,flow.Sequence,1_1,2021-04-13T14:32:23.250Z,,,,,,,,,,,,,,,,,,,,,,,,,,,,,,94833.95399995951,,completion,,,,,,,,,,,,,,,,,,,,,564745.185000007,564744.1849999595,469877.124,469895.3749999637,469910.231,564751.009,,,
Trap_instruction,html.Page,1_2_0,2021-04-13T14:32:29.364Z,,,,,,,,,,,,,,,,,,,,,,,,,,,,,,6093.745999969193,,form submission,,,,,,,,,,,,,,,,,,,,,570858.4950000513,570844.7549999692,564734.495,564745.43000001,564751.009,570917.269,,,
trap_trial,html.Screen,1_2_1,2021-04-13T14:32:33.773Z,,,,,,,,,,,,,,,,,,,,,,,,,,,true,1,,4349.616000048234,,response,,,,,,,,,,,1,click #choice-1,,,,,,,,,575268.0499999551,575266.8850000482,570833.916,570858.830000041,570917.269,575283.337,,,
end of trap trial,html.Page,1_2_2,2021-04-13T14:32:36.521Z,,,,,,,,,,,,,,,,,,,,,,,,,,,,,,2731.633000018308,,form submission,,,,,,,,,,,,,,,,,,,,,578015.6900000293,578014.9700000184,575266.677,575268.2550000027,575283.337,578016.425,,,
Trap 1,flow.Sequence,1_2,2021-04-13T14:32:36.521Z,,,,,,,,,,,,,,,,,,,,,,,,,,,,,,13263.961000018404,,completion,,,,,,,,,,,,,,,,,,,,,578016.100000008,578014.9700000184,564734.495,564745.3550000209,564751.009,578016.425,,,
Standby,html.Page,1_3_0,2021-04-13T14:32:44.506Z,,,,,,,,,,,,,,,,,,,,,,,,,,,,,,7999.196999999927,,timeout,,,,,,,,,,,,,,,,,,,,,586000.4099999787,585999.071,577999.74,578016.6749999626,578016.425,586015.622,,,
Holding screen,html.Screen,1_3_1_0_0,2021-04-13T14:32:51.505Z,,,,,,,,,,,,,,,,,,,,,,,,,,,,,,6999.3150000000605,,timeout,,,,,,,,,,,,,,,,,,,,,592999.6599999722,592998.463,585999.071,586000.7700000424,586015.622,593014.937,,,
screen,html.Screen,1_3_1_0_1_0,2021-04-13T14:32:52.333Z,,,,,,,,,,,,,,,,11,,,,,,,,,,,,,,810.3279999921797,,response,,,,4,C,,,,,,Space,keypress(Space),,,,instrumental,,,,Known -- ---- --- -- --- -------- ------------ ---------- --<br>- ------- ------ --------- -- ------------ -- --- ---- -----<br>------ ---- ---- ------ ------ ------- --- ----- ---------<br>---- --- -------- -------- --- --- -- ------- --- --- -----<br>-- --- ------ ------- --- --- -------- ---- --------- --<br>---------- -- -------- ----------------,593826.8099999987,593825.2649999922,592998.463,593000.0699999509,593014.937,593831.518,,0,Known
screen,html.Screen,1_3_1_0_1_1,2021-04-13T14:32:52.746Z,,,,,,,,,,,,,,,,11,,,,,,,,,,,,,,407.32700004347134,,response,,,,4,C,,,,,,Space,keypress(Space),,,,instrumental,,,,----- as ---- --- -- --- -------- ------------ ---------- --<br>- ------- ------ --------- -- ------------ -- --- ---- -----<br>------ ---- ---- ------ ------ ------- --- ----- ---------<br>---- --- -------- -------- --- --- -- ------- --- --- -----<br>-- --- ------ ------- --- --- -------- ---- --------- --<br>---------- -- -------- ----------------,594239.8400000529,594238.8450000435,593815.038,593827.0799999591,593831.518,594248.143,,1,as
screen,html.Screen,1_3_1_0_1_2,2021-04-13T14:32:53.100Z,,,,,,,,,,,,,,,,11,,,,,,,,,,,,,,344.5969999927329,,response,,,,4,C,,,,,,Space,keypress(Space),,,,instrumental,,,,----- -- Rapa --- -- --- -------- ------------ ---------- --<br>- ------- ------ --------- -- ------------ -- --- ---- -----<br>------ ---- ---- ------ ------ ------- --- ----- ---------<br>---- --- -------- -------- --- --- -- ------- --- --- -----<br>-- --- ------ ------- --- --- -------- ---- --------- --<br>---------- -- -------- ----------------,594593.9149999758,594592.7399999928,594231.62,594240.070000058,594248.143,594598.104,,2,Rapa
screen,html.Screen,1_3_1_0_1_3,2021-04-13T14:32:53.486Z,,,,,,,,,,,,,,,,11,,,,,,,,,,,,,,380.661000007065,,response,,,,4,C,,,,,,Space,keypress(Space),,,,instrumental,,,,----- -- ---- Nui -- --- -------- ------------ ---------- --<br>- ------- ------ --------- -- ------------ -- --- ---- -----<br>------ ---- ---- ------ ------ ------- --- ----- ---------<br>---- --- -------- -------- --- --- -- ------- --- --- -----<br>-- --- ------ ------- --- --- -------- ---- --------- --<br>---------- -- -------- ----------------,594979.8650000012,594978.7650000071,594581.514,594594.1599999787,594598.104,594999.241,,3,Nui
screen,html.Screen,1_3_1_0_1_4,2021-04-13T14:32:53.964Z,,,,,,,,,,,,,,,,11,,,,,,,,,,,,,,458.104000002495,,response,,,,4,C,,,,,,Space,keypress(Space),,,,instrumental,,,,----- -- ---- --- to --- -------- ------------ ---------- --<br>- ------- ------ --------- -- ------------ -- --- ---- -----<br>------ ---- ---- ------ ------ ------- --- ----- ---------<br>---- --- -------- -------- --- --- -- ------- --- --- -----<br>-- --- ------ ------- --- --- -------- ---- --------- --<br>---------- -- -------- ----------------,595458.3550000098,595457.3450000025,594964.762,594980.1250000019,594999.241,595464.69,,4,to
screen,html.Screen,1_3_1_0_1_5,2021-04-13T14:32:54.264Z,,,,,,,,,,,,,,,,11,,,,,,,,,,,,,,292.30000002356246,,response,,,,4,C,,,,,,Space,keypress(Space),,,,instrumental,,,,----- -- ---- --- -- the -------- ------------ ---------- --<br>- ------- ------ --------- -- ------------ -- --- ---- -----<br>------ ---- ---- ------ ------ ------- --- ----- ---------<br>---- --- -------- -------- --- --- -- ------- --- --- -----<br>-- --- ------ ------- --- --- -------- ---- --------- --<br>---------- -- -------- ----------------,595758.0000000307,595756.9900000235,595448.129,595458.6300000083,595464.69,595764.653,,5,the
screen,html.Screen,1_3_1_0_1_6,2021-04-13T14:32:54.632Z,,,,,,,,,,,,,,,,11,,,,,,,,,,,,,,360.6120000387309,,response,,,,4,C,,,,,,Space,keypress(Space),,,,instrumental,,,,----- -- ---- --- -- --- island's ------------ ---------- --<br>- ------- ------ --------- -- ------------ -- --- ---- -----<br>------ ---- ---- ------ ------ ------- --- ----- ---------<br>---- --- -------- -------- --- --- -- ------- --- --- -----<br>-- --- ------ ------- --- --- -------- ---- --------- --<br>---------- -- -------- ----------------,596126.350000035,596125.2650000388,595748.171,595758.2450000336,595764.653,596131.247,,6,island's
screen,html.Screen,1_3_1_0_1_7,2021-04-13T14:32:55.004Z,,,,,,,,,,,,,,,,11,,,,,,,,,,,,,,366.0930000017397,,response,,,,4,C,,,,,,Space,keypress(Space),,,,instrumental,,,,"----- -- ---- --- -- --- -------- inhabitants, ---------- --<br>- ------- ------ --------- -- ------------ -- --- ---- -----<br>------ ---- ---- ------ ------ ------- --- ----- ---------<br>---- --- -------- -------- --- --- -- ------- --- --- -----<br>-- --- ------ ------- --- --- -------- ---- --------- --<br>---------- -- -------- ----------------",596498.3050000155,596497.3400000017,596114.794,596126.6250000335,596131.247,596514.742,,7,"inhabitants,"
screen,html.Screen,1_3_1_0_1_8,2021-04-13T14:32:56.941Z,,,,,,,,,,,,,,,,11,,,,,,,,,,,,,,1918.9230000186944,,response,,,,4,C,,,,,,Space,keypress(Space),,,,instrumental,,,,----- -- ---- --- -- --- -------- ------------ Rongorongo --<br>- ------- ------ --------- -- ------------ -- --- ---- -----<br>------ ---- ---- ------ ------ ------- --- ----- ---------<br>---- --- -------- -------- --- --- -- ------- --- --- -----<br>-- --- ------ ------- --- --- -------- ---- --------- --<br>---------- -- -------- ----------------,598434.804999968,598433.6650000187,596498.077,596498.5400000587,596514.742,598447.989,,8,Rongorongo
screen,html.Screen,1_3_1_0_1_9,2021-04-13T14:32:57.297Z,,,,,,,,,,,,,,,,11,,,,,,,,,,,,,,342.41599997796584,,response,,,,4,C,,,,,,Space,keypress(Space),,,,instrumental,,,,----- -- ---- --- -- --- -------- ------------ ---------- is<br>- ------- ------ --------- -- ------------ -- --- ---- -----<br>------ ---- ---- ------ ------ ------- --- ----- ---------<br>---- --- -------- -------- --- --- -- ------- --- --- -----<br>-- --- ------ ------- --- --- -------- ---- --------- --<br>---------- -- -------- ----------------,598791.5649999632,598790.4049999779,598431.394,598435.055000009,598447.989,598797.691,,9,is
screen,html.Screen,1_3_1_0_1_10,2021-04-13T14:32:57.764Z,,,,,,,,,,,,,,,,11,,,,,,,,,,,,,,459.6289999751607,,response,,,,4,C,,,,,,Space,keypress(Space),,,,instrumental,,,,----- -- ---- --- -- --- -------- ------------ ---------- --<br>a ------- ------ --------- -- ------------ -- --- ---- -----<br>------ ---- ---- ------ ------ ------- --- ----- ---------<br>---- --- -------- -------- --- --- -- ------- --- --- -----<br>-- --- ------ ------- --- --- -------- ---- --------- --<br>---------- -- -------- ----------------,599258.3850000519,599257.3199999752,598781.119,598791.8599999975,598797.691,599264.32,,10,a
screen,html.Screen,1_3_1_0_1_11,2021-04-13T14:32:58.176Z,,,,,,,,,,,,,,,,11,,,,,,,,,,,,,,404.5999999673804,,response,,,,4,C,,,,,,Space,keypress(Space),,,,instrumental,,,,----- -- ---- --- -- --- -------- ------------ ---------- --<br>- writing ------ --------- -- ------------ -- --- ---- -----<br>------ ---- ---- ------ ------ ------- --- ----- ---------<br>---- --- -------- -------- --- --- -- ------- --- --- -----<br>-- --- ------ ------- --- --- -------- ---- --------- --<br>---------- -- -------- ----------------,599670.0600000331,599668.9199999673,599247.665,599258.6300000548,599264.32,599680.944,,11,writing
screen,html.Screen,1_3_1_0_1_12,2021-04-13T14:32:58.658Z,,,,,,,,,,,,,,,,11,,,,,,,,,,,,,,470.6310000253143,,response,,,,4,C,,,,,,Space,keypress(Space),,,,instrumental,,,,----- -- ---- --- -- --- -------- ------------ ---------- --<br>- ------- system --------- -- ------------ -- --- ---- -----<br>------ ---- ---- ------ ------ ------- --- ----- ---------<br>---- --- -------- -------- --- --- -- ------- --- --- -----<br>-- --- ------ ------- --- --- -------- ---- --------- --<br>---------- -- -------- ----------------,600152.2849999601,600151.5750000253,599664.445,599670.3599999892,599680.944,600164.216,,12,system
screen,html.Screen,1_3_1_0_1_13,2021-04-13T14:32:58.979Z,,,,,,,,,,,,,,,,11,,,,,,,,,,,,,,308.0339999916032,,response,,,,4,C,,,,,,Space,keypress(Space),,,,instrumental,,,,----- -- ---- --- -- --- -------- ------------ ---------- --<br>- ------- ------ comprised -- ------------ -- --- ---- -----<br>------ ---- ---- ------ ------ ------- --- ----- ---------<br>---- --- -------- -------- --- --- -- ------- --- --- -----<br>-- --- ------ ------- --- --- -------- ---- --------- --<br>---------- -- -------- ----------------,600473.314999952,600472.2499999916,600147.69,600152.555000037,600164.216,600480.825,,13,comprised
screen,html.Screen,1_3_1_0_1_14,2021-04-13T14:32:59.479Z,,,,,,,,,,,,,,,,11,,,,,,,,,,,,,,491.47500002314337,,response,,,,4,C,,,,,,Space,keypress(Space),,,,instrumental,,,,----- -- ---- --- -- --- -------- ------------ ---------- --<br>- ------- ------ --------- of ------------ -- --- ---- -----<br>------ ---- ---- ------ ------ ------- --- ----- ---------<br>---- --- -------- -------- --- --- -- ------- --- --- -----<br>-- --- ------ ------- --- --- -------- ---- --------- --<br>---------- -- -------- ----------------,600973.3250000281,600972.3000000231,600464.393,600473.6549999798,600480.825,600980.809,,14,of
screen,html.Screen,1_3_1_0_1_15,2021-04-13T14:33:00.211Z,,,,,,,,,,,,,,,,11,,,,,,,,,,,,,,723.165999953053,,response,,,,4,C,,,,,,Space,keypress(Space),,,,instrumental,,,,----- -- ---- --- -- --- -------- ------------ ---------- --<br>- ------- ------ --------- -- pictographs. -- --- ---- -----<br>------ ---- ---- ------ ------ ------- --- ----- ---------<br>---- --- -------- -------- --- --- -- ------- --- --- -----<br>-- --- ------ ------- --- --- -------- ---- --------- --<br>---------- -- -------- ----------------,601705.0599999493,601703.9749999531,600964.321,600973.5799999908,600980.809,601714.285,,15,pictographs.
screen,html.Screen,1_3_1_0_1_16,2021-04-13T14:33:00.698Z,,,,,,,,,,,,,,,,11,,,,,,,,,,,,,,477.19500003766734,,response,,,,4,C,,,,,,Space,keypress(Space),,,,instrumental,,,,----- -- ---- --- -- --- -------- ------------ ---------- --<br>- ------- ------ --------- -- ------------ It --- ---- -----<br>------ ---- ---- ------ ------ ------- --- ----- ---------<br>---- --- -------- -------- --- --- -- ------- --- --- -----<br>-- --- ------ ------- --- --- -------- ---- --------- --<br>---------- -- -------- ----------------,602192.5099999644,602191.4800000377,601697.595,601705.3650000598,601714.285,602197.381,,16,It
screen,html.Screen,1_3_1_0_1_17,2021-04-13T14:33:01.063Z,,,,,,,,,,,,,,,,11,,,,,,,,,,,,,,358.78899999614805,,response,,,,4,C,,,,,,Space,keypress(Space),,,,instrumental,,,,----- -- ---- --- -- --- -------- ------------ ---------- --<br>- ------- ------ --------- -- ------------ -- has ---- -----<br>------ ---- ---- ------ ------ ------- --- ----- ---------<br>---- --- -------- -------- --- --- -- ------- --- --- -----<br>-- --- ------ ------- --- --- -------- ---- --------- --<br>---------- -- -------- ----------------,602557.3200000217,602556.1699999962,602180.855,602192.8599999519,602197.381,602563.984,,17,has
screen,html.Screen,1_3_1_0_1_18,2021-04-13T14:33:01.367Z,,,,,,,,,,,,,,,,11,,,,,,,,,,,,,,295.9559999947669,,response,,,,4,C,,,,,,Space,keypress(Space),,,,instrumental,,,,----- -- ---- --- -- --- -------- ------------ ---------- --<br>- ------- ------ --------- -- ------------ -- --- been -----<br>------ ---- ---- ------ ------ ------- --- ----- ---------<br>---- --- -------- -------- --- --- -- ------- --- --- -----<br>-- --- ------ ------- --- --- -------- ---- --------- --<br>---------- -- -------- ----------------,602861.0999999801,602859.9399999948,602547.39,602557.5700000627,602563.984,602863.966,,18,been
screen,html.Screen,1_3_1_0_1_19,2021-04-13T14:33:01.765Z,,,,,,,,,,,,,,,,11,,,,,,,,,,,,,,393.6439999714494,,response,,,,4,C,,,,,,Space,keypress(Space),,,,instrumental,,,,----- -- ---- --- -- --- -------- ------------ ---------- --<br>- ------- ------ --------- -- ------------ -- --- ---- found<br>------ ---- ---- ------ ------ ------- --- ----- ---------<br>---- --- -------- -------- --- --- -- ------- --- --- -----<br>-- --- ------ ------- --- --- -------- ---- --------- --<br>---------- -- -------- ----------------,603259.1000000248,603257.6099999715,602847.475,602861.4999999991,602863.966,603263.901,,19,found
screen,html.Screen,1_3_1_0_1_20,2021-04-13T14:33:02.202Z,,,,,,,,,,,,,,,,11,,,,,,,,,,,,,,431.7090000534663,,response,,,,4,C,,,,,,Space,keypress(Space),,,,instrumental,,,,----- -- ---- --- -- --- -------- ------------ ---------- --<br>- ------- ------ --------- -- ------------ -- --- ---- -----<br>carved ---- ---- ------ ------ ------- --- ----- ---------<br>---- --- -------- -------- --- --- -- ------- --- --- -----<br>-- --- ------ ------- --- --- -------- ---- --------- --<br>---------- -- -------- ----------------,603696.6900000116,603695.6100000534,603247.413,603259.3450000277,603263.901,603714.018,,20,carved
screen,html.Screen,1_3_1_0_1_21,2021-04-13T14:33:02.520Z,,,,,,,,,,,,,,,,11,,,,,,,,,,,,,,299.3670000565471,,response,,,,4,C,,,,,,Space,keypress(Space),,,,instrumental,,,,----- -- ---- --- -- --- -------- ------------ ---------- --<br>- ------- ------ --------- -- ------------ -- --- ---- -----<br>------ into ---- ------ ------ ------- --- ----- ---------<br>---- --- -------- -------- --- --- -- ------- --- --- -----<br>-- --- ------ ------- --- --- -------- ---- --------- --<br>---------- -- -------- ----------------,604014.4700000528,604013.3850000566,603697.423,603696.9550000504,603714.018,604030.611,,21,into
screen,html.Screen,1_3_1_0_1_22,2021-04-13T14:33:02.858Z,,,,,,,,,,,,,,,,11,,,,,,,,,,,,,,320.52900004247203,,response,,,,4,C,,,,,,Space,keypress(Space),,,,instrumental,,,,----- -- ---- --- -- --- -------- ------------ ---------- --<br>- ------- ------ --------- -- ------------ -- --- ---- -----<br>------ ---- many ------ ------ ------- --- ----- ---------<br>---- --- -------- -------- --- --- -- ------- --- --- -----<br>-- --- ------ ------- --- --- -------- ---- --------- --<br>---------- -- -------- ----------------,604352.28500003,604351.1400000425,604013.898,604014.7150000557,604030.611,604363.94,,22,many
screen,html.Screen,1_3_1_0_1_23,2021-04-13T14:33:03.301Z,,,,,,,,,,,,,,,,11,,,,,,,,,,,,,,429.88500005891547,,response,,,,4,C,,,,,,Space,keypress(Space),,,,instrumental,,,,----- -- ---- --- -- --- -------- ------------ ---------- --<br>- ------- ------ --------- -- ------------ -- --- ---- -----<br>------ ---- ---- oblong ------ ------- --- ----- ---------<br>---- --- -------- -------- --- --- -- ------- --- --- -----<br>-- --- ------ ------- --- --- -------- ---- --------- --<br>---------- -- -------- ----------------,604795.3249999555,604793.8250000589,604347.358,604352.5750000263,604363.94,604813.806,,23,oblong
screen,html.Screen,1_3_1_0_1_24,2021-04-13T14:33:03.808Z,,,,,,,,,,,,,,,,11,,,,,,,,,,,,,,487.08399995497894,,response,,,,4,C,,,,,,Space,keypress(Space),,,,instrumental,,,,----- -- ---- --- -- --- -------- ------------ ---------- --<br>- ------- ------ --------- -- ------------ -- --- ---- -----<br>------ ---- ---- ------ wooden ------- --- ----- ---------<br>---- --- -------- -------- --- --- -- ------- --- --- -----<br>-- --- ------ ------- --- --- -------- ---- --------- --<br>---------- -- -------- ----------------,605301.8549999688,605300.889999955,604797.251,604797.2150000278,604813.806,605313.848,,24,wooden
screen,html.Screen,1_3_1_0_1_25,2021-04-13T14:33:04.276Z,,,,,,,,,,,,,,,,11,,,,,,,,,,,,,,455.46700004138984,,response,,,,4,C,,,,,,Space,keypress(Space),,,,instrumental,,,,----- -- ---- --- -- --- -------- ------------ ---------- --<br>- ------- ------ --------- -- ------------ -- --- ---- -----<br>------ ---- ---- ------ ------ tablets --- ----- ---------<br>---- --- -------- -------- --- --- -- ------- --- --- -----<br>-- --- ------ ------- --- --- -------- ---- --------- --<br>---------- -- -------- ----------------,605770.4249999952,605769.3150000414,605297.267,605302.2049999563,605313.848,605780.373,,25,tablets
screen,html.Screen,1_3_1_0_1_26,2021-04-13T14:33:04.719Z,,,,,,,,,,,,,,,,11,,,,,,,,,,,,,,431.55199995229486,,response,,,,4,C,,,,,,Space,keypress(Space),,,,instrumental,,,,----- -- ---- --- -- --- -------- ------------ ---------- --<br>- ------- ------ --------- -- ------------ -- --- ---- -----<br>------ ---- ---- ------ ------ ------- and ----- ---------<br>---- --- -------- -------- --- --- -- ------- --- --- -----<br>-- --- ------ ------- --- --- -------- ---- --------- --<br>---------- -- -------- ----------------,606213.0099999486,606211.9249999523,605763.859,605770.7800000207,605780.373,606230.381,,26,and
screen,html.Screen,1_3_1_0_1_27,2021-04-13T14:33:05.039Z,,,,,,,,,,,,,,,,11,,,,,,,,,,,,,,301.9639999559149,,response,,,,4,C,,,,,,Space,keypress(Space),,,,instrumental,,,,----- -- ---- --- -- --- -------- ------------ ---------- --<br>- ------- ------ --------- -- ------------ -- --- ---- -----<br>------ ---- ---- ------ ------ ------- --- other ---------<br>---- --- -------- -------- --- --- -- ------- --- --- -----<br>-- --- ------ ------- --- --- -------- ---- --------- --<br>---------- -- -------- ----------------,606533.5200000554,606532.344999956,606213.769,606213.3000000613,606230.381,606547.071,,27,other
screen,html.Screen,1_3_1_0_1_28,2021-04-13T14:33:05.449Z,,,,,,,,,,,,,,,,11,,,,,,,,,,,,,,395.32900005811825,,response,,,,4,C,,,,,,Space,keypress(Space),,,,instrumental,,,,----- -- ---- --- -- --- -------- ------------ ---------- --<br>- ------- ------ --------- -- ------------ -- --- ---- -----<br>------ ---- ---- ------ ------ ------- --- ----- artifacts<br>---- --- -------- -------- --- --- -- ------- --- --- -----<br>-- --- ------ ------- --- --- -------- ---- --------- --<br>---------- -- -------- ----------------,606943.4800000163,606942.4000000581,606530.436,606533.7800000561,606547.071,606946.924,,28,artifacts
screen,html.Screen,1_3_1_0_1_29,2021-04-13T14:33:05.937Z,,,,,,,,,,,,,,,,11,,,,,,,,,,,,,,483.17599999776576,,response,,,,4,C,,,,,,Space,keypress(Space),,,,instrumental,,,,----- -- ---- --- -- --- -------- ------------ ---------- --<br>- ------- ------ --------- -- ------------ -- --- ---- -----<br>------ ---- ---- ------ ------ ------- --- ----- ---------<br>from --- -------- -------- --- --- -- ------- --- --- -----<br>-- --- ------ ------- --- --- -------- ---- --------- --<br>---------- -- -------- ----------------,607431.3300000504,607430.0999999978,606930.29,606943.7300000573,606946.924,607446.978,,29,from
screen,html.Screen,1_3_1_0_1_30,2021-04-13T14:33:06.225Z,,,,,,,,,,,,,,,,11,,,,,,,,,,,,,,271.5369999568211,,response,,,,4,C,,,,,,Space,keypress(Space),,,,instrumental,,,,----- -- ---- --- -- --- -------- ------------ ---------- --<br>- ------- ------ --------- -- ------------ -- --- ---- -----<br>------ ---- ---- ------ ------ ------- --- ----- ---------<br>---- the -------- -------- --- --- -- ------- --- --- -----<br>-- --- ------ ------- --- --- -------- ---- --------- --<br>---------- -- -------- ----------------,607719.5650000358,607718.5149999568,607430.192,607431.6999999573,607446.978,607730.166,,30,the
screen,html.Screen,1_3_1_0_1_31,2021-04-13T14:33:06.521Z,,,,,,,,,,,,,,,,11,,,,,,,,,,,,,,283.75899997749366,,response,,,,4,C,,,,,,Space,keypress(Space),,,,instrumental,,,,----- -- ---- --- -- --- -------- ------------ ---------- --<br>- ------- ------ --------- -- ------------ -- --- ---- -----<br>------ ---- ---- ------ ------ ------- --- ----- ---------<br>---- --- island's -------- --- --- -- ------- --- --- -----<br>-- --- ------ ------- --- --- -------- ---- --------- --<br>---------- -- -------- ----------------,608015.0849999627,608013.9249999775,607713.544,607719.8749999516,607730.166,608030.163,,31,island's
screen,html.Screen,1_3_1_0_1_32,2021-04-13T14:33:07.037Z,,,,,,,,,,,,,,,,11,,,,,,,,,,,,,,499.6270000587683,,response,,,,4,C,,,,,,Space,keypress(Space),,,,instrumental,,,,----- -- ---- --- -- --- -------- ------------ ---------- --<br>- ------- ------ --------- -- ------------ -- --- ---- -----<br>------ ---- ---- ------ ------ ------- --- ----- ---------<br>---- --- -------- history. --- --- -- ------- --- --- -----<br>-- --- ------ ------- --- --- -------- ---- --------- --<br>---------- -- -------- ----------------,608530.92499997,608529.7900000587,608013.597,608015.3599999612,608030.163,608546.867,,32,history.
screen,html.Screen,1_3_1_0_1_33,2021-04-13T14:33:07.447Z,,,,,,,,,,,,,,,,11,,,,,,,,,,,,,,393.1829999756301,,response,,,,4,C,,,,,,Space,keypress(Space),,,,instrumental,,,,----- -- ---- --- -- --- -------- ------------ ---------- --<br>- ------- ------ --------- -- ------------ -- --- ---- -----<br>------ ---- ---- ------ ------ ------- --- ----- ---------<br>---- --- -------- -------- The --- -- ------- --- --- -----<br>-- --- ------ ------- --- --- -------- ---- --------- --<br>---------- -- -------- ----------------,608941.220000037,608940.0499999756,608530.104,608531.2749999575,608546.867,608946.677,,33,The
screen,html.Screen,1_3_1_0_1_34,2021-04-13T14:33:07.925Z,,,,,,,,,,,,,,,,11,,,,,,,,,,,,,,471.18799996667076,,response,,,,4,C,,,,,,Space,keypress(Space),,,,instrumental,,,,----- -- ---- --- -- --- -------- ------------ ---------- --<br>- ------- ------ --------- -- ------------ -- --- ---- -----<br>------ ---- ---- ------ ------ ------- --- ----- ---------<br>---- --- -------- -------- --- art -- ------- --- --- -----<br>-- --- ------ ------- --- --- -------- ---- --------- --<br>---------- -- -------- ----------------,609418.8200000208,609417.8649999667,608930.094,608941.5599999484,608946.677,609430.058,,34,art
screen,html.Screen,1_3_1_0_1_35,2021-04-13T14:33:08.299Z,,,,,,,,,,,,,,,,11,,,,,,,,,,,,,,361.70200005103834,,response,,,,4,C,,,,,,Space,keypress(Space),,,,instrumental,,,,----- -- ---- --- -- --- -------- ------------ ---------- --<br>- ------- ------ --------- -- ------------ -- --- ---- -----<br>------ ---- ---- ------ ------ ------- --- ----- ---------<br>---- --- -------- -------- --- --- of ------- --- --- -----<br>-- --- ------ ------- --- --- -------- ---- --------- --<br>---------- -- -------- ----------------,609792.8300000494,609791.760000051,609413.367,609419.1150000552,609430.058,609796.622,,35,of
screen,html.Screen,1_3_1_0_1_36,2021-04-13T14:33:08.730Z,,,,,,,,,,,,,,,,11,,,,,,,,,,,,,,426.9780000266619,,response,,,,4,C,,,,,,Space,keypress(Space),,,,instrumental,,,,----- -- ---- --- -- --- -------- ------------ ---------- --<br>- ------- ------ --------- -- ------------ -- --- ---- -----<br>------ ---- ---- ------ ------ ------- --- ----- ---------<br>---- --- -------- -------- --- --- -- writing --- --- -----<br>-- --- ------ ------- --- --- -------- ---- --------- --<br>---------- -- -------- ----------------,610224.6049999958,610223.6000000266,609780.114,609793.1500000414,609796.622,610229.917,,36,writing
screen,html.Screen,1_3_1_0_1_37,2021-04-13T14:33:09.447Z,,,,,,,,,,,,,,,,11,,,,,,,,,,,,,,710.553000030457,,response,,,,4,C,,,,,,Space,keypress(Space),,,,instrumental,,,,----- -- ---- --- -- --- -------- ------------ ---------- --<br>- ------- ------ --------- -- ------------ -- --- ---- -----<br>------ ---- ---- ------ ------ ------- --- ----- ---------<br>---- --- -------- -------- --- --- -- ------- was --- -----<br>-- --- ------ ------- --- --- -------- ---- --------- --<br>---------- -- -------- ----------------,610941.6600000113,610940.4700000305,610213.306,610224.8200000031,610229.917,610946.525,,37,was
screen,html.Screen,1_3_1_0_1_38,2021-04-13T14:33:09.865Z,,,,,,,,,,,,,,,,11,,,,,,,,,,,,,,411.8750000264263,,response,,,,4,C,,,,,,Space,keypress(Space),,,,instrumental,,,,----- -- ---- --- -- --- -------- ------------ ---------- --<br>- ------- ------ --------- -- ------------ -- --- ---- -----<br>------ ---- ---- ------ ------ ------- --- ----- ---------<br>---- --- -------- -------- --- --- -- ------- --- not -----<br>-- --- ------ ------- --- --- -------- ---- --------- --<br>---------- -- -------- ----------------,611359.3950000359,611358.4000000264,610930.015,610941.9400000479,610946.525,611363.121,,38,not
