sender,sender_type,sender_id,timestamp,meta,,Blues,Classical,Country,Dance,Electronic,Folk,Gospel,Hip-Hop,Jazz,Latin,Musical/Film,New-age,Pop,Provo_ID,R&B,Rap,Reggae,Religious,Rock,Soul,Swing,Traditional,age,artist_name,correct,correctResponse,distraction,duration,education,ended_on,familiarity,gender,headphone_check_performance,item,list,music_frequency,offensiveness,pleasantness,position_correct,preference,response,response_action,snippet_file,song_name,song_rating,sound,stimulus_1,stimulus_2,stimulus_3,text,time_commit,time_end,time_render,time_run,time_show,time_switch,url,word,word_ID
Introduction,html.Screen,0_0,2021-04-12T13:26:55.287Z,"{""labjs_version"":""20.2.2"",""labjs_build"":{""flavor"":""production"",""commit"":""a25486e0c714a0ae2ce03ff94b7bb6896854dcfa""},""location"":""https://run.pavlovia.org/mvasilev/music_a/"",""userAgent"":""Mozilla/5.0 (Macintosh; Intel Mac OS X 10_14_6) AppleWebKit/605.1.15 (KHTML, like Gecko) Version/14.0.3 Safari/605.1.15"",""platform"":""MacIntel"",""language"":""en-gb"",""locale"":""en-GB"",""timeZone"":""Europe/London"",""timezoneOffset"":-60,""screen_width"":1440,""screen_height"":900,""scroll_width"":1440,""scroll_height"":715,""window_innerWidth"":1440,""window_innerHeight"":763,""devicePixelRatio"":2}",,,,,,,,,,,,,,,,,,,,,,,,,,,,,49317,,response,,,,,,,,,,,continue,click button,,,,,,,,,56081,55988,6671,6661.000000000001,6688,56108,{},,
Volume calibration,html.Screen,0_1,2021-04-12T13:27:20.078Z,,,,,,,,,,,,,,,,,,,,,,,,,,,,,,24686,,response,,,,,,,,,,,continue,click button,,,,,,,,,80871,80777,56091,56081,56108,80892,,,
Task instructions,html.Screen,0_2,2021-04-12T13:27:27.439Z,,,,,,,,,,,,,,,,,,,,,,,,,,,,,,7263,,response,,,,,,,,,,,continue,click button,,,,,,,,,88233,88138,80875,80871,80892,88263,,,
Sounds,html.Screen,0_3_0_0,2021-04-12T13:27:31.706Z,,,,,,,,,,,,,,,,,,,,,,,,,,,,,,4252,,timeout,,,,,,,,,3,,,,,,,,O,I,S,,92500,92499,88246,88233,88263,92515,,,
Judgement,html.Screen,0_3_0_1,2021-04-12T13:27:33.798Z,,,,,,,,,,,,,,,,,,,,,,,,,,,true,3,,2001,,response,,,,,,,,,3,,3,click #choice-3,,,,,O,I,S,,94592,94500,92499,92500,92515,94617,,,
Trial,flow.Sequence,0_3_0,2021-04-12T13:27:33.799Z,,,,,,,,,,,,,,,,,,,,,,,,,,,,,,6237,,completion,,,,,,,,,3,,,,,,,,O,I,S,,94592,94500,88246,88233,88263,94617,,,
Sounds,html.Screen,0_3_1_0,2021-04-12T13:27:38.060Z,,,,,,,,,,,,,,,,,,,,,,,,,,,,,,4253,,timeout,,,,,,,,,2,,,,,,,,O,S,I,,98854,98853,94600,94593,94617,98870,,,
Judgement,html.Screen,0_3_1_1,2021-04-12T13:27:39.166Z,,,,,,,,,,,,,,,,,,,,,,,,,,,true,2,,1016,,response,,,,,,,,,2,,2,click #choice-2,,,,,O,S,I,,99960.00000000001,99869,98853,98854,98870,99986,,,
Trial,flow.Sequence,0_3_1,2021-04-12T13:27:39.167Z,,,,,,,,,,,,,,,,,,,,,,,,,,,,,,5252,,completion,,,,,,,,,2,,,,,,,,O,S,I,,99960.00000000001,99869,94600,94593,94617,99986,,,
Sounds,html.Screen,0_3_2_0,2021-04-12T13:27:43.428Z,,,,,,,,,,,,,,,,,,,,,,,,,,,,,,4252,,timeout,,,,,,,,,2,,,,,,,,I,S,O,,104222.00000000001,104222,99970,99960.00000000001,99986,104238,,,
Judgement,html.Screen,0_3_2_1,2021-04-12T13:27:44.137Z,,,,,,,,,,,,,,,,,,,,,,,,,,,true,2,,616.0000000000146,,response,,,,,,,,,2,,2,click #choice-2,,,,,I,S,O,,104930,104838.00000000001,104222,104222.00000000001,104238,104954,,,
Trial,flow.Sequence,0_3_2,2021-04-12T13:27:44.137Z,,,,,,,,,,,,,,,,,,,,,,,,,,,,,,4852.000000000015,,completion,,,,,,,,,2,,,,,,,,I,S,O,,104931,104838.00000000001,99970,99960.00000000001,99986,104954,,,
Sounds,html.Screen,0_3_3_0,2021-04-12T13:27:48.399Z,,,,,,,,,,,,,,,,,,,,,,,,,,,,,,4255,,timeout,,,,,,,,,3,,,,,,,,I,O,S,,109193,109192,104938,104931,104954,109209,,,
Judgement,html.Screen,0_3_3_1,2021-04-12T13:27:49.559Z,,,,,,,,,,,,,,,,,,,,,,,,,,,true,3,,1067,,response,,,,,,,,,3,,3,click #choice-3,,,,,I,O,S,,110352,110259,109192,109193,109209,110375,,,
Trial,flow.Sequence,0_3_3,2021-04-12T13:27:49.559Z,,,,,,,,,,,,,,,,,,,,,,,,,,,,,,5305,,completion,,,,,,,,,3,,,,,,,,I,O,S,,110352,110259,104938,104931,104954,110375,,,
Sounds,html.Screen,0_3_4_0,2021-04-12T13:27:53.818Z,,,,,,,,,,,,,,,,,,,,,,,,,,,,,,4252,,timeout,,,,,,,,,1,,,,,,,,S,O,I,,114612.00000000001,114611,110358,110353.00000000001,110375,114627,,,
Judgement,html.Screen,0_3_4_1,2021-04-12T13:27:54.885Z,,,,,,,,,,,,,,,,,,,,,,,,,,,false,1,,976,,response,,,,,,,,,1,,3,click #choice-3,,,,,S,O,I,,115678,115587,114611,114612.00000000001,114627,115711,,,
Trial,flow.Sequence,0_3_4,2021-04-12T13:27:54.885Z,,,,,,,,,,,,,,,,,,,,,,,,,,,,,,5212,,completion,,,,,,,,,1,,,,,,,,S,O,I,,115678,115587,110358,110353.00000000001,110375,115711,,,
Sounds,html.Screen,0_3_5_0,2021-04-12T13:27:59.153Z,,,,,,,,,,,,,,,,,,,,,,,,,,,,,,4251,,timeout,,,,,,,,,1,,,,,,,,S,I,O,,119947,119947,115695,115678,115711,119962,,,
Judgement,html.Screen,0_3_5_1,2021-04-12T13:28:00.240Z,,,,,,,,,,,,,,,,,,,,,,,,,,,true,1,,992,,response,,,,,,,,,1,,1,click #choice-1,,,,,S,I,O,,121034,120939,119947,119947,119962,121063,,,
Trial,flow.Sequence,0_3_5,2021-04-12T13:28:00.240Z,,,,,,,,,,,,,,,,,,,,,,,,,,,,,,5228,,completion,,,,,,,,,1,,,,,,,,S,I,O,,121034,120939,115695,115678,115711,121063,,,
Task,flow.Loop,0_3,2021-04-12T13:28:00.242Z,,,,,,,,,,,,,,,,,,,,,,,,,,,,,,32676,,completion,,,0.8333333333333334,,,,,,,,,,,,,,,,,,121036,120939,88246,88233,88263,121063,,,
Trap,html.Screen,0_4,2021-04-12T13:28:00.243Z,,,,,,,,,,,,,,,,,,,,,,,,,,,,,,NaN,,skipped,,,,,,,,,,,,,,,,,,,,,121037,120939,,121037,,121063,,,
Thanks,html.Screen,0_5,2021-04-12T13:28:04.696Z,,,,,,,,,,,,,,,,,,,,,,,,,,,,,,4268,,response,,,,,,,,,,,continue,click button,,,,,,,,,125489,125314,121046,121037,121063,130162,,,
Headphone screening,flow.Sequence,0,2021-04-12T13:28:04.696Z,,,,,,,,,,,,,,,,,,,,,,,,,,,,,,118626,,completion,,,,,,,,,,,,,,,,,,,,,125489,125314,6671,6661.000000000001,6688,130162,,,
Instructions,html.Page,1_0,2021-04-12T13:28:24.619Z,,,,,,,,,,,,,,,,,,,,,,,,,,,,,,15251,,form submission,,,,,,,,,,,,,,,,,,,,,145413,145413,130143,130127.00000000001,130162,145436,,,
Holding screen,html.Screen,1_1_0_0,2021-04-12T13:28:34.618Z,,,,,,,,,,,,,,,,,,,,,,,,,,,,,,9999,,timeout,,,,,,,,,,,,,,,,,,,,,155411,155411,145420,145413,145436,155435,,,
screen,html.Screen,1_1_0_1_0,2021-04-12T13:28:36.309Z,,,,,,,,,,,,,,,,53,,,,,,,,,,,,,,1598,,response,,,,99,,,,,,,Space,keypress(Space),,,,,,,,When -- ----- -- ------ - ------- --- ----------<br>------------- ------ ------ ---- ---- ------- ----- -- ----<br>-------- ------- -- ---------- --- - --- ----- ----- ----<br>---- --- --- ----- --- ---- ---- ------- ----- ---- -------<br>--- --- -- ----- -- --- ---- -- --- ---- -- ------ ------<br>--- ----- -- ----,157103,157009,155411,155411,155435,157144,,0,When
screen,html.Screen,1_1_0_1_1,2021-04-12T13:28:37.028Z,,,,,,,,,,,,,,,,53,,,,,,,,,,,,,,602,,response,,,,99,,,,,,,Space,keypress(Space),,,,,,,,---- it ----- -- ------ - ------- --- ----------<br>------------- ------ ------ ---- ---- ------- ----- -- ----<br>-------- ------- -- ---------- --- - --- ----- ----- ----<br>---- --- --- ----- --- ---- ---- ------- ----- ---- -------<br>--- --- -- ----- -- --- ---- -- --- ---- -- ------ ------<br>--- ----- -- ----,157822,157729,157127,157103,157144,157860,,1,it
screen,html.Screen,1_1_0_1_2,2021-04-12T13:28:37.617Z,,,,,,,,,,,,,,,,53,,,,,,,,,,,,,,473,,response,,,,99,,,,,,,Space,keypress(Space),,,,,,,,---- -- comes -- ------ - ------- --- ----------<br>------------- ------ ------ ---- ---- ------- ----- -- ----<br>-------- ------- -- ---------- --- - --- ----- ----- ----<br>---- --- --- ----- --- ---- ---- ------- ----- ---- -------<br>--- --- -- ----- -- --- ---- -- --- ---- -- ------ ------<br>--- ----- -- ----,158410,158317,157844,157822,157860,158444,,2,comes
screen,html.Screen,1_1_0_1_3,2021-04-12T13:28:38.087Z,,,,,,,,,,,,,,,,53,,,,,,,,,,,,,,360,,response,,,,99,,,,,,,Space,keypress(Space),,,,,,,,---- -- ----- to ------ - ------- --- ----------<br>------------- ------ ------ ---- ---- ------- ----- -- ----<br>-------- ------- -- ---------- --- - --- ----- ----- ----<br>---- --- --- ----- --- ---- ---- ------- ----- ---- -------<br>--- --- -- ----- -- --- ---- -- --- ---- -- ------ ------<br>--- ----- -- ----,158881,158787,158427,158410,158444,158914,,3,to
screen,html.Screen,1_1_0_1_4,2021-04-12T13:28:38.660Z,,,,,,,,,,,,,,,,53,,,,,,,,,,,,,,463,,response,,,,99,,,,,,,Space,keypress(Space),,,,,,,,---- -- ----- -- having - ------- --- ----------<br>------------- ------ ------ ---- ---- ------- ----- -- ----<br>-------- ------- -- ---------- --- - --- ----- ----- ----<br>---- --- --- ----- --- ---- ---- ------- ----- ---- -------<br>--- --- -- ----- -- --- ---- -- --- ---- -- ------ ------<br>--- ----- -- ----,159454,159361,158898,158881,158914,159481,,4,having
screen,html.Screen,1_1_0_1_5,2021-04-12T13:28:39.174Z,,,,,,,,,,,,,,,,53,,,,,,,,,,,,,,411,,response,,,,99,,,,,,,Space,keypress(Space),,,,,,,,---- -- ----- -- ------ a ------- --- ----------<br>------------- ------ ------ ---- ---- ------- ----- -- ----<br>-------- ------- -- ---------- --- - --- ----- ----- ----<br>---- --- --- ----- --- ---- ---- ------- ----- ---- -------<br>--- --- -- ----- -- --- ---- -- --- ---- -- ------ ------<br>--- ----- -- ----,159968,159875,159464,159454,159481,159997,,5,a
screen,html.Screen,1_1_0_1_6,2021-04-12T13:28:39.719Z,,,,,,,,,,,,,,,,53,,,,,,,,,,,,,,439.0000000000291,,response,,,,99,,,,,,,Space,keypress(Space),,,,,,,,---- -- ----- -- ------ - lasting --- ----------<br>------------- ------ ------ ---- ---- ------- ----- -- ----<br>-------- ------- -- ---------- --- - --- ----- ----- ----<br>---- --- --- ----- --- ---- ---- ------- ----- ---- -------<br>--- --- -- ----- -- --- ---- -- --- ---- -- ------ ------<br>--- ----- -- ----,160513,160420.00000000003,159981,159968,159997,160548,,6,lasting
screen,html.Screen,1_1_0_1_7,2021-04-12T13:28:40.247Z,,,,,,,,,,,,,,,,53,,,,,,,,,,,,,,417,,response,,,,99,,,,,,,Space,keypress(Space),,,,,,,,---- -- ----- -- ------ - ------- and ----------<br>------------- ------ ------ ---- ---- ------- ----- -- ----<br>-------- ------- -- ---------- --- - --- ----- ----- ----<br>---- --- --- ----- --- ---- ---- ------- ----- ---- -------<br>--- --- -- ----- -- --- ---- -- --- ---- -- ------ ------<br>--- ----- -- ----,161041,160948,160531,160513,160548,161081,,7,and
screen,html.Screen,1_1_0_1_8,2021-04-12T13:28:40.843Z,,,,,,,,,,,,,,,,53,,,,,,,,,,,,,,482.0000000000291,,response,,,,99,,,,,,,Space,keypress(Space),,,,,,,,---- -- ----- -- ------ - ------- --- fulfilling<br>------------- ------ ------ ---- ---- ------- ----- -- ----<br>-------- ------- -- ---------- --- - --- ----- ----- ----<br>---- --- --- ----- --- ---- ---- ------- ----- ---- -------<br>--- --- -- ----- -- --- ---- -- --- ---- -- ------ ------<br>--- ----- -- ----,161637,161545.00000000003,161063,161041,161081,161663,,8,fulfilling
screen,html.Screen,1_1_0_1_9,2021-04-12T13:28:41.400Z,,,,,,,,,,,,,,,,53,,,,,,,,,,,,,,454,,response,,,,99,,,,,,,Space,keypress(Space),,,,,,,,"---- -- ----- -- ------ - ------- --- ----------<br>relationship, ------ ------ ---- ---- ------- ----- -- ----<br>-------- ------- -- ---------- --- - --- ----- ----- ----<br>---- --- --- ----- --- ---- ---- ------- ----- ---- -------<br>--- --- -- ----- -- --- ---- -- --- ---- -- ------ ------<br>--- ----- -- ----",162194.00000000003,162101,161647,161637,161663,162231,,9,"relationship,"
screen,html.Screen,1_1_0_1_10,2021-04-12T13:28:41.838Z,,,,,,,,,,,,,,,,53,,,,,,,,,,,,,,325.0000000000291,,response,,,,99,,,,,,,Space,keypress(Space),,,,,,,,---- -- ----- -- ------ - ------- --- ----------<br>------------- common ------ ---- ---- ------- ----- -- ----<br>-------- ------- -- ---------- --- - --- ----- ----- ----<br>---- --- --- ----- --- ---- ---- ------- ----- ---- -------<br>--- --- -- ----- -- --- ---- -- --- ---- -- ------ ------<br>--- ----- -- ----,162632,162539.00000000003,162214,162194.00000000003,162231,162664,,10,common
screen,html.Screen,1_1_0_1_11,2021-04-12T13:28:42.557Z,,,,,,,,,,,,,,,,53,,,,,,,,,,,,,,611,,response,,,,99,,,,,,,Space,keypress(Space),,,,,,,,---- -- ----- -- ------ - ------- --- ----------<br>------------- ------ wisdom ---- ---- ------- ----- -- ----<br>-------- ------- -- ---------- --- - --- ----- ----- ----<br>---- --- --- ----- --- ---- ---- ------- ----- ---- -------<br>--- --- -- ----- -- --- ---- -- --- ---- -- ------ ------<br>--- ----- -- ----,163351,163258,162647,162632,162664,163380,,11,wisdom
screen,html.Screen,1_1_0_1_12,2021-04-12T13:28:43.007Z,,,,,,,,,,,,,,,,53,,,,,,,,,,,,,,344,,response,,,,99,,,,,,,Space,keypress(Space),,,,,,,,---- -- ----- -- ------ - ------- --- ----------<br>------------- ------ ------ says ---- ------- ----- -- ----<br>-------- ------- -- ---------- --- - --- ----- ----- ----<br>---- --- --- ----- --- ---- ---- ------- ----- ---- -------<br>--- --- -- ----- -- --- ---- -- --- ---- -- ------ ------<br>--- ----- -- ----,163800,163708,163364,163351,163380,163835,,12,says
screen,html.Screen,1_1_0_1_13,2021-04-12T13:28:43.486Z,,,,,,,,,,,,,,,,53,,,,,,,,,,,,,,367,,response,,,,99,,,,,,,Space,keypress(Space),,,,,,,,---- -- ----- -- ------ - ------- --- ----------<br>------------- ------ ------ ---- that ------- ----- -- ----<br>-------- ------- -- ---------- --- - --- ----- ----- ----<br>---- --- --- ----- --- ---- ---- ------- ----- ---- -------<br>--- --- -- ----- -- --- ---- -- --- ---- -- ------ ------<br>--- ----- -- ----,164279,164185,163818,163801.00000000003,163835,164318,,13,that
screen,html.Screen,1_1_0_1_14,2021-04-12T13:28:44.088Z,,,,,,,,,,,,,,,,53,,,,,,,,,,,,,,487.0000000000291,,response,,,,99,,,,,,,Space,keypress(Space),,,,,,,,---- -- ----- -- ------ - ------- --- ----------<br>------------- ------ ------ ---- ---- feeling ----- -- ----<br>-------- ------- -- ---------- --- - --- ----- ----- ----<br>---- --- --- ----- --- ---- ---- ------- ----- ---- -------<br>--- --- -- ----- -- --- ---- -- --- ---- -- ------ ------<br>--- ----- -- ----,164882,164789.00000000003,164302,164280,164318,164918,,14,feeling
screen,html.Screen,1_1_0_1_15,2021-04-12T13:28:44.597Z,,,,,,,,,,,,,,,,53,,,,,,,,,,,,,,398,,response,,,,99,,,,,,,Space,keypress(Space),,,,,,,,---- -- ----- -- ------ - ------- --- ----------<br>------------- ------ ------ ---- ---- ------- close -- ----<br>-------- ------- -- ---------- --- - --- ----- ----- ----<br>---- --- --- ----- --- ---- ---- ------- ----- ---- -------<br>--- --- -- ----- -- --- ---- -- --- ---- -- ------ ------<br>--- ----- -- ----,165390.00000000003,165298,164900,164882,164918,165418,,15,close
screen,html.Screen,1_1_0_1_16,2021-04-12T13:28:45.035Z,,,,,,,,,,,,,,,,53,,,,,,,,,,,,,,335,,response,,,,99,,,,,,,Space,keypress(Space),,,,,,,,---- -- ----- -- ------ - ------- --- ----------<br>------------- ------ ------ ---- ---- ------- ----- to ----<br>-------- ------- -- ---------- --- - --- ----- ----- ----<br>---- --- --- ----- --- ---- ---- ------- ----- ---- -------<br>--- --- -- ----- -- --- ---- -- --- ---- -- ------ ------<br>--- ----- -- ----,165829,165736,165401,165390.00000000003,165418,165868,,16,to
screen,html.Screen,1_1_0_1_17,2021-04-12T13:28:45.465Z,,,,,,,,,,,,,,,,53,,,,,,,,,,,,,,315,,response,,,,99,,,,,,,Space,keypress(Space),,,,,,,,---- -- ----- -- ------ - ------- --- ----------<br>------------- ------ ------ ---- ---- ------- ----- -- your<br>-------- ------- -- ---------- --- - --- ----- ----- ----<br>---- --- --- ----- --- ---- ---- ------- ----- ---- -------<br>--- --- -- ----- -- --- ---- -- --- ---- -- ------ ------<br>--- ----- -- ----,166259,166166,165851,165829,165868,166300,,17,your
screen,html.Screen,1_1_0_1_18,2021-04-12T13:28:45.989Z,,,,,,,,,,,,,,,,53,,,,,,,,,,,,,,405,,response,,,,99,,,,,,,Space,keypress(Space),,,,,,,,---- -- ----- -- ------ - ------- --- ----------<br>------------- ------ ------ ---- ---- ------- ----- -- ----<br>romantic ------- -- ---------- --- - --- ----- ----- ----<br>---- --- --- ----- --- ---- ---- ------- ----- ---- -------<br>--- --- -- ----- -- --- ---- -- --- ---- -- ------ ------<br>--- ----- -- ----,166782,166690,166285,166259,166300,166817,,18,romantic
screen,html.Screen,1_1_0_1_19,2021-04-12T13:28:46.555Z,,,,,,,,,,,,,,,,53,,,,,,,,,,,,,,455,,response,,,,99,,,,,,,Space,keypress(Space),,,,,,,,---- -- ----- -- ------ - ------- --- ----------<br>------------- ------ ------ ---- ---- ------- ----- -- ----<br>-------- partner -- ---------- --- - --- ----- ----- ----<br>---- --- --- ----- --- ---- ---- ------- ----- ---- -------<br>--- --- -- ----- -- --- ---- -- --- ---- -- ------ ------<br>--- ----- -- ----,167348,167256,166801,166782,166817,167384,,19,partner
screen,html.Screen,1_1_0_1_20,2021-04-12T13:28:47.062Z,,,,,,,,,,,,,,,,53,,,,,,,,,,,,,,395,,response,,,,99,,,,,,,Space,keypress(Space),,,,,,,,---- -- ----- -- ------ - ------- --- ----------<br>------------- ------ ------ ---- ---- ------- ----- -- ----<br>-------- ------- is ---------- --- - --- ----- ----- ----<br>---- --- --- ----- --- ---- ---- ------- ----- ---- -------<br>--- --- -- ----- -- --- ---- -- --- ---- -- ------ ------<br>--- ----- -- ----,167855,167763,167368,167349,167384,167885,,20,is
screen,html.Screen,1_1_0_1_21,2021-04-12T13:28:47.695Z,,,,,,,,,,,,,,,,53,,,,,,,,,,,,,,528.0000000000291,,response,,,,99,,,,,,,Space,keypress(Space),,,,,,,,---- -- ----- -- ------ - ------- --- ----------<br>------------- ------ ------ ---- ---- ------- ----- -- ----<br>-------- ------- -- paramount. --- - --- ----- ----- ----<br>---- --- --- ----- --- ---- ---- ------- ----- ---- -------<br>--- --- -- ----- -- --- ---- -- --- ---- -- ------ ------<br>--- ----- -- ----,168489,168396.00000000003,167868,167856,167885,168518,,21,paramount.
screen,html.Screen,1_1_0_1_22,2021-04-12T13:28:48.276Z,,,,,,,,,,,,,,,,53,,,,,,,,,,,,,,476,,response,,,,99,,,,,,,Space,keypress(Space),,,,,,,,---- -- ----- -- ------ - ------- --- ----------<br>------------- ------ ------ ---- ---- ------- ----- -- ----<br>-------- ------- -- ---------- But - --- ----- ----- ----<br>---- --- --- ----- --- ---- ---- ------- ----- ---- -------<br>--- --- -- ----- -- --- ---- -- --- ---- -- ------ ------<br>--- ----- -- ----,169069.00000000003,168977,168501,168489,168518,169104,,22,But
screen,html.Screen,1_1_0_1_23,2021-04-12T13:28:48.792Z,,,,,,,,,,,,,,,,53,,,,,,,,,,,,,,405,,response,,,,99,,,,,,,Space,keypress(Space),,,,,,,,---- -- ----- -- ------ - ------- --- ----------<br>------------- ------ ------ ---- ---- ------- ----- -- ----<br>-------- ------- -- ---------- --- a --- ----- ----- ----<br>---- --- --- ----- --- ---- ---- ------- ----- ---- -------<br>--- --- -- ----- -- --- ---- -- --- ---- -- ------ ------<br>--- ----- -- ----,169585,169492,169087,169070,169104,169619,,23,a
screen,html.Screen,1_1_0_1_24,2021-04-12T13:28:49.238Z,,,,,,,,,,,,,,,,53,,,,,,,,,,,,,,336,,response,,,,99,,,,,,,Space,keypress(Space),,,,,,,,---- -- ----- -- ------ - ------- --- ----------<br>------------- ------ ------ ---- ---- ------- ----- -- ----<br>-------- ------- -- ---------- --- - new ----- ----- ----<br>---- --- --- ----- --- ---- ---- ------- ----- ---- -------<br>--- --- -- ----- -- --- ---- -- --- ---- -- ------ ------<br>--- ----- -- ----,170032,169939,169603,169585,169619,170070,,24,new
screen,html.Screen,1_1_0_1_25,2021-04-12T13:28:49.712Z,,,,,,,,,,,,,,,,53,,,,,,,,,,,,,,358,,response,,,,99,,,,,,,Space,keypress(Space),,,,,,,,---- -- ----- -- ------ - ------- --- ----------<br>------------- ------ ------ ---- ---- ------- ----- -- ----<br>-------- ------- -- ---------- --- - --- study ----- ----<br>---- --- --- ----- --- ---- ---- ------- ----- ---- -------<br>--- --- -- ----- -- --- ---- -- --- ---- -- ------ ------<br>--- ----- -- ----,170505,170412,170054,170032,170070,170536,,25,study
screen,html.Screen,1_1_0_1_26,2021-04-12T13:28:50.177Z,,,,,,,,,,,,,,,,53,,,,,,,,,,,,,,358,,response,,,,99,,,,,,,Space,keypress(Space),,,,,,,,---- -- ----- -- ------ - ------- --- ----------<br>------------- ------ ------ ---- ---- ------- ----- -- ----<br>-------- ------- -- ---------- --- - --- ----- finds ----<br>---- --- --- ----- --- ---- ---- ------- ----- ---- -------<br>--- --- -- ----- -- --- ---- -- --- ---- -- ------ ------<br>--- ----- -- ----,170970,170878,170520,170505,170536,171004,,26,finds
screen,html.Screen,1_1_0_1_27,2021-04-12T13:28:50.658Z,,,,,,,,,,,,,,,,53,,,,,,,,,,,,,,372,,response,,,,99,,,,,,,Space,keypress(Space),,,,,,,,---- -- ----- -- ------ - ------- --- ----------<br>------------- ------ ------ ---- ---- ------- ----- -- ----<br>-------- ------- -- ---------- --- - --- ----- ----- that<br>---- --- --- ----- --- ---- ---- ------- ----- ---- -------<br>--- --- -- ----- -- --- ---- -- --- ---- -- ------ ------<br>--- ----- -- ----,171451,171358,170986,170971,171004,171487,,27,that
screen,html.Screen,1_1_0_1_28,2021-04-12T13:28:51.230Z,,,,,,,,,,,,,,,,53,,,,,,,,,,,,,,460,,response,,,,99,,,,,,,Space,keypress(Space),,,,,,,,---- -- ----- -- ------ - ------- --- ----------<br>------------- ------ ------ ---- ---- ------- ----- -- ----<br>-------- ------- -- ---------- --- - --- ----- ----- ----<br>it's --- --- ----- --- ---- ---- ------- ----- ---- -------<br>--- --- -- ----- -- --- ---- -- --- ---- -- ------ ------<br>--- ----- -- ----,172023,171930,171470,171451,171487,172053,,28,it's
screen,html.Screen,1_1_0_1_29,2021-04-12T13:28:51.742Z,,,,,,,,,,,,,,,,53,,,,,,,,,,,,,,407,,response,,,,99,,,,,,,Space,keypress(Space),,,,,,,,---- -- ----- -- ------ - ------- --- ----------<br>------------- ------ ------ ---- ---- ------- ----- -- ----<br>-------- ------- -- ---------- --- - --- ----- ----- ----<br>---- not --- ----- --- ---- ---- ------- ----- ---- -------<br>--- --- -- ----- -- --- ---- -- --- ---- -- ------ ------<br>--- ----- -- ----,172535,172443,172036,172023,172053,172570,,29,not
screen,html.Screen,1_1_0_1_30,2021-04-12T13:28:52.218Z,,,,,,,,,,,,,,,,53,,,,,,,,,,,,,,365,,response,,,,99,,,,,,,Space,keypress(Space),,,,,,,,---- -- ----- -- ------ - ------- --- ----------<br>------------- ------ ------ ---- ---- ------- ----- -- ----<br>-------- ------- -- ---------- --- - --- ----- ----- ----<br>---- --- how ----- --- ---- ---- ------- ----- ---- -------<br>--- --- -- ----- -- --- ---- -- --- ---- -- ------ ------<br>--- ----- -- ----,173012,172919,172554,172535,172570,173054,,30,how
screen,html.Screen,1_1_0_1_31,2021-04-12T13:28:52.688Z,,,,,,,,,,,,,,,,53,,,,,,,,,,,,,,351,,response,,,,99,,,,,,,Space,keypress(Space),,,,,,,,---- -- ----- -- ------ - ------- --- ----------<br>------------- ------ ------ ---- ---- ------- ----- -- ----<br>-------- ------- -- ---------- --- - --- ----- ----- ----<br>---- --- --- close --- ---- ---- ------- ----- ---- -------<br>--- --- -- ----- -- --- ---- -- --- ---- -- ------ ------<br>--- ----- -- ----,173481,173388,173037,173012,173054,173519,,31,close
screen,html.Screen,1_1_0_1_32,2021-04-12T13:28:53.127Z,,,,,,,,,,,,,,,,53,,,,,,,,,,,,,,325,,response,,,,99,,,,,,,Space,keypress(Space),,,,,,,,---- -- ----- -- ------ - ------- --- ----------<br>------------- ------ ------ ---- ---- ------- ----- -- ----<br>-------- ------- -- ---------- --- - --- ----- ----- ----<br>---- --- --- ----- you ---- ---- ------- ----- ---- -------<br>--- --- -- ----- -- --- ---- -- --- ---- -- ------ ------<br>--- ----- -- ----,173921,173828,173503,173481,173519,173958,,32,you
screen,html.Screen,1_1_0_1_33,2021-04-12T13:28:53.670Z,,,,,,,,,,,,,,,,53,,,,,,,,,,,,,,429,,response,,,,99,,,,,,,Space,keypress(Space),,,,,,,,---- -- ----- -- ------ - ------- --- ----------<br>------------- ------ ------ ---- ---- ------- ----- -- ----<br>-------- ------- -- ---------- --- - --- ----- ----- ----<br>---- --- --- ----- --- feel ---- ------- ----- ---- -------<br>--- --- -- ----- -- --- ---- -- --- ---- -- ------ ------<br>--- ----- -- ----,174463,174370,173941,173921,173958,174491,,33,feel
screen,html.Screen,1_1_0_1_34,2021-04-12T13:28:54.152Z,,,,,,,,,,,,,,,,53,,,,,,,,,,,,,,378,,response,,,,99,,,,,,,Space,keypress(Space),,,,,,,,---- -- ----- -- ------ - ------- --- ----------<br>------------- ------ ------ ---- ---- ------- ----- -- ----<br>-------- ------- -- ---------- --- - --- ----- ----- ----<br>---- --- --- ----- --- ---- that ------- ----- ---- -------<br>--- --- -- ----- -- --- ---- -- --- ---- -- ------ ------<br>--- ----- -- ----,174945,174852,174474,174463,174491,174974,,34,that
screen,html.Screen,1_1_0_1_35,2021-04-12T13:28:54.666Z,,,,,,,,,,,,,,,,53,,,,,,,,,,,,,,408,,response,,,,99,,,,,,,Space,keypress(Space),,,,,,,,---- -- ----- -- ------ - ------- --- ----------<br>------------- ------ ------ ---- ---- ------- ----- -- ----<br>-------- ------- -- ---------- --- - --- ----- ----- ----<br>---- --- --- ----- --- ---- ---- matters ----- ---- -------<br>--- --- -- ----- -- --- ---- -- --- ---- -- ------ ------<br>--- ----- -- ----,175459,175366,174958,174945,174974,175491,,35,matters
screen,html.Screen,1_1_0_1_36,2021-04-12T13:28:55.257Z,,,,,,,,,,,,,,,,53,,,,,,,,,,,,,,483,,response,,,,99,,,,,,,Space,keypress(Space),,,,,,,,"---- -- ----- -- ------ - ------- --- ----------<br>------------- ------ ------ ---- ---- ------- ----- -- ----<br>-------- ------- -- ---------- --- - --- ----- ----- ----<br>---- --- --- ----- --- ---- ---- ------- most, ---- -------<br>--- --- -- ----- -- --- ---- -- --- ---- -- ------ ------<br>--- ----- -- ----",176050,175957,175474,175459,175491,176091,,36,"most,"
screen,html.Screen,1_1_0_1_37,2021-04-12T13:28:55.704Z,,,,,,,,,,,,,,,,53,,,,,,,,,,,,,,331,,response,,,,99,,,,,,,Space,keypress(Space),,,,,,,,---- -- ----- -- ------ - ------- --- ----------<br>------------- ------ ------ ---- ---- ------- ----- -- ----<br>-------- ------- -- ---------- --- - --- ----- ----- ----<br>---- --- --- ----- --- ---- ---- ------- ----- it's -------<br>--- --- -- ----- -- --- ---- -- --- ---- -- ------ ------<br>--- ----- -- ----,176498,176405,176074,176050,176091,176541,,37,it's
screen,html.Screen,1_1_0_1_38,2021-04-12T13:28:56.221Z,,,,,,,,,,,,,,,,53,,,,,,,,,,,,,,397,,response,,,,99,,,,,,,Space,keypress(Space),,,,,,,,---- -- ----- -- ------ - ------- --- ----------<br>------------- ------ ------ ---- ---- ------- ----- -- ----<br>-------- ------- -- ---------- --- - --- ----- ----- ----<br>---- --- --- ----- --- ---- ---- ------- ----- ---- whether<br>--- --- -- ----- -- --- ---- -- --- ---- -- ------ ------<br>--- ----- -- ----,177014,176921,176524,176498,176541,177040,,38,whether
screen,html.Screen,1_1_0_1_39,2021-04-12T13:28:56.683Z,,,,,,,,,,,,,,,,53,,,,,,,,,,,,,,360,,response,,,,99,,,,,,,Space,keypress(Space),,,,,,,,---- -- ----- -- ------ - ------- --- ----------<br>------------- ------ ------ ---- ---- ------- ----- -- ----<br>-------- ------- -- ---------- --- - --- ----- ----- ----<br>---- --- --- ----- --- ---- ---- ------- ----- ---- -------<br>you --- -- ----- -- --- ---- -- --- ---- -- ------ ------<br>--- ----- -- ----,177476,177383,177023,177014,177040,177508,,39,you
screen,html.Screen,1_1_0_1_40,2021-04-12T13:28:57.107Z,,,,,,,,,,,,,,,,53,,,,,,,,,,,,,,318,,response,,,,99,,,,,,,Space,keypress(Space),,,,,,,,---- -- ----- -- ------ - ------- --- ----------<br>------------- ------ ------ ---- ---- ------- ----- -- ----<br>-------- ------- -- ---------- --- - --- ----- ----- ----<br>---- --- --- ----- --- ---- ---- ------- ----- ---- -------<br>--- are -- ----- -- --- ---- -- --- ---- -- ------ ------<br>--- ----- -- ----,177901,177808,177490,177476,177508,177940,,40,are
screen,html.Screen,1_1_0_1_41,2021-04-12T13:28:57.515Z,,,,,,,,,,,,,,,,53,,,,,,,,,,,,,,293,,response,,,,99,,,,,,,Space,keypress(Space),,,,,,,,---- -- ----- -- ------ - ------- --- ----------<br>------------- ------ ------ ---- ---- ------- ----- -- ----<br>-------- ------- -- ---------- --- - --- ----- ----- ----<br>---- --- --- ----- --- ---- ---- ------- ----- ---- -------<br>--- --- as ----- -- --- ---- -- --- ---- -- ------ ------<br>--- ----- -- ----,178309,178216,177923,177901,177940,178341,,41,as
screen,html.Screen,1_1_0_1_42,2021-04-12T13:28:57.989Z,,,,,,,,,,,,,,,,53,,,,,,,,,,,,,,365,,response,,,,99,,,,,,,Space,keypress(Space),,,,,,,,---- -- ----- -- ------ - ------- --- ----------<br>------------- ------ ------ ---- ---- ------- ----- -- ----<br>-------- ------- -- ---------- --- - --- ----- ----- ----<br>---- --- --- ----- --- ---- ---- ------- ----- ---- -------<br>--- --- -- close -- --- ---- -- --- ---- -- ------ ------<br>--- ----- -- ----,178782,178689,178324,178309,178341,178812,,42,close
screen,html.Screen,1_1_0_1_43,2021-04-12T13:28:58.369Z,,,,,,,,,,,,,,,,53,,,,,,,,,,,,,,276,,response,,,,99,,,,,,,Space,keypress(Space),,,,,,,,---- -- ----- -- ------ - ------- --- ----------<br>------------- ------ ------ ---- ---- ------- ----- -- ----<br>-------- ------- -- ---------- --- - --- ----- ----- ----<br>---- --- --- ----- --- ---- ---- ------- ----- ---- -------<br>--- --- -- ----- as --- ---- -- --- ---- -- ------ ------<br>--- ----- -- ----,179163,179070,178794,178782,178812,179195,,43,as
screen,html.Screen,1_1_0_1_44,2021-04-12T13:28:58.765Z,,,,,,,,,,,,,,,,53,,,,,,,,,,,,,,287,,response,,,,99,,,,,,,Space,keypress(Space),,,,,,,,---- -- ----- -- ------ - ------- --- ----------<br>------------- ------ ------ ---- ---- ------- ----- -- ----<br>-------- ------- -- ---------- --- - --- ----- ----- ----<br>---- --- --- ----- --- ---- ---- ------- ----- ---- -------<br>--- --- -- ----- -- you ---- -- --- ---- -- ------ ------<br>--- ----- -- ----,179558,179465,179178,179163,179195,179578,,44,you
screen,html.Screen,1_1_0_1_45,2021-04-12T13:28:59.178Z,,,,,,,,,,,,,,,,53,,,,,,,,,,,,,,317,,response,,,,99,,,,,,,Space,keypress(Space),,,,,,,,---- -- ----- -- ------ - ------- --- ----------<br>------------- ------ ------ ---- ---- ------- ----- -- ----<br>-------- ------- -- ---------- --- - --- ----- ----- ----<br>---- --- --- ----- --- ---- ---- ------- ----- ---- -------<br>--- --- -- ----- -- --- want -- --- ---- -- ------ ------<br>--- ----- -- ----,179972,179879,179562,179558,179578,180012,,45,want
screen,html.Screen,1_1_0_1_46,2021-04-12T13:28:59.577Z,,,,,,,,,,,,,,,,53,,,,,,,,,,,,,,282.0000000000291,,response,,,,99,,,,,,,Space,keypress(Space),,,,,,,,---- -- ----- -- ------ - ------- --- ----------<br>------------- ------ ------ ---- ---- ------- ----- -- ----<br>-------- ------- -- ---------- --- - --- ----- ----- ----<br>---- --- --- ----- --- ---- ---- ------- ----- ---- -------<br>--- --- -- ----- -- --- ---- to --- ---- -- ------ ------<br>--- ----- -- ----,180370,180277.00000000003,179995,179972,180012,180394,,46,to
screen,html.Screen,1_1_0_1_47,2021-04-12T13:29:00.025Z,,,,,,,,,,,,,,,,53,,,,,,,,,,,,,,347,,response,,,,99,,,,,,,Space,keypress(Space),,,,,,,,"---- -- ----- -- ------ - ------- --- ----------<br>------------- ------ ------ ---- ---- ------- ----- -- ----<br>-------- ------- -- ---------- --- - --- ----- ----- ----<br>---- --- --- ----- --- ---- ---- ------- ----- ---- -------<br>--- --- -- ----- -- --- ---- -- be, ---- -- ------ ------<br>--- ----- -- ----",180819.00000000003,180725,180378,180370,180394,180862,,47,"be,"
screen,html.Screen,1_1_0_1_48,2021-04-12T13:29:00.436Z,,,,,,,,,,,,,,,,53,,,,,,,,,,,,,,292,,response,,,,99,,,,,,,Space,keypress(Space),,,,,,,,---- -- ----- -- ------ - ------- --- ----------<br>------------- ------ ------ ---- ---- ------- ----- -- ----<br>-------- ------- -- ---------- --- - --- ----- ----- ----<br>---- --- --- ----- --- ---- ---- ------- ----- ---- -------<br>--- --- -- ----- -- --- ---- -- --- even -- ------ ------<br>--- ----- -- ----,181230,181137,180845,180819.00000000003,180862,181262,,48,even
screen,html.Screen,1_1_0_1_49,2021-04-12T13:29:00.789Z,,,,,,,,,,,,,,,,53,,,,,,,,,,,,,,245,,response,,,,99,,,,,,,Space,keypress(Space),,,,,,,,---- -- ----- -- ------ - ------- --- ----------<br>------------- ------ ------ ---- ---- ------- ----- -- ----<br>-------- ------- -- ---------- --- - --- ----- ----- ----<br>---- --- --- ----- --- ---- ---- ------- ----- ---- -------<br>--- --- -- ----- -- --- ---- -- --- ---- if ------ ------<br>--- ----- -- ----,181583,181490,181245,181230,181262,181612,,49,if
screen,html.Screen,1_1_0_1_50,2021-04-12T13:29:01.196Z,,,,,,,,,,,,,,,,53,,,,,,,,,,,,,,302.0000000000291,,response,,,,99,,,,,,,Space,keypress(Space),,,,,,,,---- -- ----- -- ------ - ------- --- ----------<br>------------- ------ ------ ---- ---- ------- ----- -- ----<br>-------- ------- -- ---------- --- - --- ----- ----- ----<br>---- --- --- ----- --- ---- ---- ------- ----- ---- -------<br>--- --- -- ----- -- --- ---- -- --- ---- -- that's ------<br>--- ----- -- ----,181989,181896.00000000003,181594,181583,181612,182028,,50,that's
screen,html.Screen,1_1_0_1_51,2021-04-12T13:29:01.654Z,,,,,,,,,,,,,,,,53,,,,,,,,,,,,,,343,,response,,,,99,,,,,,,Space,keypress(Space),,,,,,,,---- -- ----- -- ------ - ------- --- ----------<br>------------- ------ ------ ---- ---- ------- ----- -- ----<br>-------- ------- -- ---------- --- - --- ----- ----- ----<br>---- --- --- ----- --- ---- ---- ------- ----- ---- -------<br>--- --- -- ----- -- --- ---- -- --- ---- -- ------ really<br>--- ----- -- ----,182448,182355,182012,181989,182028,182478,,51,really
screen,html.Screen,1_1_0_1_52,2021-04-12T13:29:02.060Z,,,,,,,,,,,,,,,,53,,,,,,,,,,,,,,299,,response,,,,99,,,,,,,Space,keypress(Space),,,,,,,,---- -- ----- -- ------ - ------- --- ----------<br>------------- ------ ------ ---- ---- ------- ----- -- ----<br>-------- ------- -- ---------- --- - --- ----- ----- ----<br>---- --- --- ----- --- ---- ---- ------- ----- ---- -------<br>--- --- -- ----- -- --- ---- -- --- ---- -- ------ ------<br>not ----- -- ----,182854,182761,182462,182448,182478,182894,,52,not
screen,html.Screen,1_1_0_1_53,2021-04-12T13:29:02.438Z,,,,,,,,,,,,,,,,53,,,,,,,,,,,,,,261,,response,,,,99,,,,,,,Space,keypress(Space),,,,,,,,---- -- ----- -- ------ - ------- --- ----------<br>------------- ------ ------ ---- ---- ------- ----- -- ----<br>-------- ------- -- ---------- --- - --- ----- ----- ----<br>---- --- --- ----- --- ---- ---- ------- ----- ---- -------<br>--- --- -- ----- -- --- ---- -- --- ---- -- ------ ------<br>--- close -- ----,183232,183139,182878,182854,182894,183262,,53,close
screen,html.Screen,1_1_0_1_54,2021-04-12T13:29:02.823Z,,,,,,,,,,,,,,,,53,,,,,,,,,,,,,,279,,response,,,,99,,,,,,,Space,keypress(Space),,,,,,,,---- -- ----- -- ------ - ------- --- ----------<br>------------- ------ ------ ---- ---- ------- ----- -- ----<br>-------- ------- -- ---------- --- - --- ----- ----- ----<br>---- --- --- ----- --- ---- ---- ------- ----- ---- -------<br>--- --- -- ----- -- --- ---- -- --- ---- -- ------ ------<br>--- ----- at ----,183617,183524,183245,183232,183262,183645,,54,at
screen,html.Screen,1_1_0_1_55,2021-04-12T13:29:03.317Z,,,,,,,,,,,,,,,,53,,,,,,,,,,,,,,390,,response,,,,99,,,,,,,Space,keypress(Space),,,,,,,,---- -- ----- -- ------ - ------- --- ----------<br>------------- ------ ------ ---- ---- ------- ----- -- ----<br>-------- ------- -- ---------- --- - --- ----- ----- ----<br>---- --- --- ----- --- ---- ---- ------- ----- ---- -------<br>--- --- -- ----- -- --- ---- -- --- ---- -- ------ ------<br>--- ----- -- all.,184111,184018,183628,183617,183645,184148,,55,all.
Item 99,flow.Loop,1_1_0_1,2021-04-12T13:29:03.317Z,,,,,,,,,,,,,,,,,,,,,,,,,,,,,,28583,,completion,,,,,A,,,,,,,,,,,silence,,,,,184111,184018,155411,155411,155435,184148,,,
Question 1,html.Screen,1_1_0_2,2021-04-12T13:29:09.758Z,,,,,,,,,,,,,,,,,,,,,,,,,,,true,FALSE,,6243,,response,,,,99,A,,,,,,FALSE,click #choice-2,,,,silence,,,,,190552,190374,184131,184111,184148,190583,,,
Question 2,html.Screen,1_1_0_3,2021-04-12T13:29:16.012Z,,,,,,,,,,,,,,,,,,,,,,,,,,,true,TRUE,,6147,,response,,,,99,A,,,,,,TRUE,click #choice-1,,,,silence,,,,,196805,196713,190566,190552,190583,196835,,,
Item 99,flow.Sequence,1_1_0,2021-04-12T13:29:16.012Z,,,,,,,,,,,,,,,,,,,,,,,,,,,,,,51277,,completion,,,,,,,,,,,,,,,,,,,,,196805,196713,145420,145413,145436,196835,,,
Holding screen,html.Screen,1_1_1_0,2021-04-12T13:29:26.032Z,,,,,,,,,,,,,,,,,,,,,,,,,,,,,,10007,,timeout,,,,,,,,,,,,,,,,,,,,,206826,206826,196819,196805,196835,206842,,,
screen,html.Screen,1_1_1_1_0,2021-04-12T13:29:26.903Z,,,,,,,,,,,,,,,,54,,,,,,,,,,,,,,777,,response,,,,100,,,,,,,Space,keypress(Space),,,,,,,,At --- ---- --- ------ ----- ------- ---- -- --- ------- --<br>------- ---------- ------ -- ----- -- ----- -- ---- ------<br>--- ----- --- --- ------ -------- ----- --- ------ ----- --<br>----- ----- ---------- --- --- ------ ------ ---- -- ------<br>------- --- ------ ----- --- ---- ------- -- ---- --- --<br>------- ------,207696,207603,206826,206826,206842,207725,,0,At
screen,html.Screen,1_1_1_1_1,2021-04-12T13:29:27.391Z,,,,,,,,,,,,,,,,54,,,,,,,,,,,,,,384,,response,,,,100,,,,,,,Space,keypress(Space),,,,,,,,-- the ---- --- ------ ----- ------- ---- -- --- ------- --<br>------- ---------- ------ -- ----- -- ----- -- ---- ------<br>--- ----- --- --- ------ -------- ----- --- ------ ----- --<br>----- ----- ---------- --- --- ------ ------ ---- -- ------<br>------- --- ------ ----- --- ---- ------- -- ---- --- --<br>------- ------,208185,208092,207708,207696,207725,208226,,1,the
screen,html.Screen,1_1_1_1_2,2021-04-12T13:29:27.856Z,,,,,,,,,,,,,,,,54,,,,,,,,,,,,,,348.0000000000291,,response,,,,100,,,,,,,Space,keypress(Space),,,,,,,,-- --- time --- ------ ----- ------- ---- -- --- ------- --<br>------- ---------- ------ -- ----- -- ----- -- ---- ------<br>--- ----- --- --- ------ -------- ----- --- ------ ----- --<br>----- ----- ---------- --- --- ------ ------ ---- -- ------<br>------- --- ------ ----- --- ---- ------- -- ---- --- --<br>------- ------,208650,208557.00000000003,208209,208185,208226,208692,,2,time
screen,html.Screen,1_1_1_1_3,2021-04-12T13:29:28.292Z,,,,,,,,,,,,,,,,54,,,,,,,,,,,,,,317,,response,,,,100,,,,,,,Space,keypress(Space),,,,,,,,-- --- ---- the ------ ----- ------- ---- -- --- ------- --<br>------- ---------- ------ -- ----- -- ----- -- ---- ------<br>--- ----- --- --- ------ -------- ----- --- ------ ----- --<br>----- ----- ---------- --- --- ------ ------ ---- -- ------<br>------- --- ------ ----- --- ---- ------- -- ---- --- --<br>------- ------,209086,208992,208675,208650,208692,209128,,3,the
screen,html.Screen,1_1_1_1_4,2021-04-12T13:29:28.826Z,,,,,,,,,,,,,,,,54,,,,,,,,,,,,,,415,,response,,,,100,,,,,,,Space,keypress(Space),,,,,,,,-- --- ---- --- French ----- ------- ---- -- --- ------- --<br>------- ---------- ------ -- ----- -- ----- -- ---- ------<br>--- ----- --- --- ------ -------- ----- --- ------ ----- --<br>----- ----- ---------- --- --- ------ ------ ---- -- ------<br>------- --- ------ ----- --- ---- ------- -- ---- --- --<br>------- ------,209619,209526,209111,209086,209128,209660,,4,French
screen,html.Screen,1_1_1_1_5,2021-04-12T13:29:29.248Z,,,,,,,,,,,,,,,,54,,,,,,,,,,,,,,304,,response,,,,100,,,,,,,Space,keypress(Space),,,,,,,,-- --- ---- --- ------ crown ------- ---- -- --- ------- --<br>------- ---------- ------ -- ----- -- ----- -- ---- ------<br>--- ----- --- --- ------ -------- ----- --- ------ ----- --<br>----- ----- ---------- --- --- ------ ------ ---- -- ------<br>------- --- ------ ----- --- ---- ------- -- ---- --- --<br>------- ------,210041,209948,209644,209619,209660,210078,,5,crown
screen,html.Screen,1_1_1_1_6,2021-04-12T13:29:29.697Z,,,,,,,,,,,,,,,,54,,,,,,,,,,,,,,336,,response,,,,100,,,,,,,Space,keypress(Space),,,,,,,,-- --- ---- --- ------ ----- secured ---- -- --- ------- --<br>------- ---------- ------ -- ----- -- ----- -- ---- ------<br>--- ----- --- --- ------ -------- ----- --- ------ ----- --<br>----- ----- ---------- --- --- ------ ------ ---- -- ------<br>------- --- ------ ----- --- ---- ------- -- ---- --- --<br>------- ------,210490,210397,210061,210041,210078,210528,,6,secured
screen,html.Screen,1_1_1_1_7,2021-04-12T13:29:30.108Z,,,,,,,,,,,,,,,,54,,,,,,,,,,,,,,297,,response,,,,100,,,,,,,Space,keypress(Space),,,,,,,,-- --- ---- --- ------ ----- ------- much -- --- ------- --<br>------- ---------- ------ -- ----- -- ----- -- ---- ------<br>--- ----- --- --- ------ -------- ----- --- ------ ----- --<br>----- ----- ---------- --- --- ------ ------ ---- -- ------<br>------- --- ------ ----- --- ---- ------- -- ---- --- --<br>------- ------,210901,210808,210511,210490,210528,210944,,7,much
screen,html.Screen,1_1_1_1_8,2021-04-12T13:29:30.593Z,,,,,,,,,,,,,,,,54,,,,,,,,,,,,,,366,,response,,,,100,,,,,,,Space,keypress(Space),,,,,,,,-- --- ---- --- ------ ----- ------- ---- of --- ------- --<br>------- ---------- ------ -- ----- -- ----- -- ---- ------<br>--- ----- --- --- ------ -------- ----- --- ------ ----- --<br>----- ----- ---------- --- --- ------ ------ ---- -- ------<br>------- --- ------ ----- --- ---- ------- -- ---- --- --<br>------- ------,211386,211293,210927,210902.00000000003,210944,211428,,8,of
screen,html.Screen,1_1_1_1_9,2021-04-12T13:29:31.005Z,,,,,,,,,,,,,,,,54,,,,,,,,,,,,,,294,,response,,,,100,,,,,,,Space,keypress(Space),,,,,,,,-- --- ---- --- ------ ----- ------- ---- -- its ------- --<br>------- ---------- ------ -- ----- -- ----- -- ---- ------<br>--- ----- --- --- ------ -------- ----- --- ------ ----- --<br>----- ----- ---------- --- --- ------ ------ ---- -- ------<br>------- --- ------ ----- --- ---- ------- -- ---- --- --<br>------- ------,211799,211705,211411,211386,211428,211828,,9,its
screen,html.Screen,1_1_1_1_10,2021-04-12T13:29:31.505Z,,,,,,,,,,,,,,,,54,,,,,,,,,,,,,,394,,response,,,,100,,,,,,,Space,keypress(Space),,,,,,,,-- --- ---- --- ------ ----- ------- ---- -- --- revenue --<br>------- ---------- ------ -- ----- -- ----- -- ---- ------<br>--- ----- --- --- ------ -------- ----- --- ------ ----- --<br>----- ----- ---------- --- --- ------ ------ ---- -- ------<br>------- --- ------ ----- --- ---- ------- -- ---- --- --<br>------- ------,212298,212205,211811,211799,211828,212328,,10,revenue
screen,html.Screen,1_1_1_1_11,2021-04-12T13:29:31.956Z,,,,,,,,,,,,,,,,54,,,,,,,,,,,,,,345,,response,,,,100,,,,,,,Space,keypress(Space),,,,,,,,-- --- ---- --- ------ ----- ------- ---- -- --- ------- by<br>------- ---------- ------ -- ----- -- ----- -- ---- ------<br>--- ----- --- --- ------ -------- ----- --- ------ ----- --<br>----- ----- ---------- --- --- ------ ------ ---- -- ------<br>------- --- ------ ----- --- ---- ------- -- ---- --- --<br>------- ------,212749,212656,212311,212298,212328,212778,,11,by
screen,html.Screen,1_1_1_1_12,2021-04-12T13:29:32.405Z,,,,,,,,,,,,,,,,54,,,,,,,,,,,,,,344.0000000000291,,response,,,,100,,,,,,,Space,keypress(Space),,,,,,,,-- --- ---- --- ------ ----- ------- ---- -- --- ------- --<br>issuing ---------- ------ -- ----- -- ----- -- ---- ------<br>--- ----- --- --- ------ -------- ----- --- ------ ----- --<br>----- ----- ---------- --- --- ------ ------ ---- -- ------<br>------- --- ------ ----- --- ---- ------- -- ---- --- --<br>------- ------,213198,213105.00000000003,212761,212749,212778,213228,,12,issuing
screen,html.Screen,1_1_1_1_13,2021-04-12T13:29:32.851Z,,,,,,,,,,,,,,,,54,,,,,,,,,,,,,,341,,response,,,,100,,,,,,,Space,keypress(Space),,,,,,,,-- --- ---- --- ------ ----- ------- ---- -- --- ------- --<br>------- government ------ -- ----- -- ----- -- ---- ------<br>--- ----- --- --- ------ -------- ----- --- ------ ----- --<br>----- ----- ---------- --- --- ------ ------ ---- -- ------<br>------- --- ------ ----- --- ---- ------- -- ---- --- --<br>------- ------,213644,213552,213211,213198,213228,213677,,13,government
screen,html.Screen,1_1_1_1_14,2021-04-12T13:29:33.252Z,,,,,,,,,,,,,,,,54,,,,,,,,,,,,,,292,,response,,,,100,,,,,,,Space,keypress(Space),,,,,,,,-- --- ---- --- ------ ----- ------- ---- -- --- ------- --<br>------- ---------- bonds. -- ----- -- ----- -- ---- ------<br>--- ----- --- --- ------ -------- ----- --- ------ ----- --<br>----- ----- ---------- --- --- ------ ------ ---- -- ------<br>------- --- ------ ----- --- ---- ------- -- ---- --- --<br>------- ------,214045.00000000003,213952,213660,213644,213677,214064,,14,bonds.
screen,html.Screen,1_1_1_1_15,2021-04-12T13:29:33.666Z,,,,,,,,,,,,,,,,54,,,,,,,,,,,,,,319,,response,,,,100,,,,,,,Space,keypress(Space),,,,,,,,-- --- ---- --- ------ ----- ------- ---- -- --- ------- --<br>------- ---------- ------ In ----- -- ----- -- ---- ------<br>--- ----- --- --- ------ -------- ----- --- ------ ----- --<br>----- ----- ---------- --- --- ------ ------ ---- -- ------<br>------- --- ------ ----- --- ---- ------- -- ---- --- --<br>------- ------,214459,214366,214047,214045.00000000003,214064,214497,,15,In
screen,html.Screen,1_1_1_1_16,2021-04-12T13:29:34.151Z,,,,,,,,,,,,,,,,54,,,,,,,,,,,,,,370,,response,,,,100,,,,,,,Space,keypress(Space),,,,,,,,"-- --- ---- --- ------ ----- ------- ---- -- --- ------- --<br>------- ---------- ------ -- 1727, -- ----- -- ---- ------<br>--- ----- --- --- ------ -------- ----- --- ------ ----- --<br>----- ----- ---------- --- --- ------ ------ ---- -- ------<br>------- --- ------ ----- --- ---- ------- -- ---- --- --<br>------- ------",214945,214851,214481,214459,214497,214980,,16,"1727,"
screen,html.Screen,1_1_1_1_17,2021-04-12T13:29:34.583Z,,,,,,,,,,,,,,,,54,,,,,,,,,,,,,,320,,response,,,,100,,,,,,,Space,keypress(Space),,,,,,,,-- --- ---- --- ------ ----- ------- ---- -- --- ------- --<br>------- ---------- ------ -- ----- in ----- -- ---- ------<br>--- ----- --- --- ------ -------- ----- --- ------ ----- --<br>----- ----- ---------- --- --- ------ ------ ---- -- ------<br>------- --- ------ ----- --- ---- ------- -- ---- --- --<br>------- ------,215377,215284,214964,214945,214980,215414,,17,in
screen,html.Screen,1_1_1_1_18,2021-04-12T13:29:35.769Z,,,,,,,,,,,,,,,,54,,,,,,,,,,,,,,1072,,response,,,,100,,,,,,,Space,keypress(Space),,,,,,,,-- --- ---- --- ------ ----- ------- ---- -- --- ------- --<br>------- ---------- ------ -- ----- -- order -- ---- ------<br>--- ----- --- --- ------ -------- ----- --- ------ ----- --<br>----- ----- ---------- --- --- ------ ------ ---- -- ------<br>------- --- ------ ----- --- ---- ------- -- ---- --- --<br>------- ------,216562,216469,215397,215377,215414,216596,,18,order
screen,html.Screen,1_1_1_1_19,2021-04-12T13:29:36.295Z,,,,,,,,,,,,,,,,54,,,,,,,,,,,,,,416,,response,,,,100,,,,,,,Space,keypress(Space),,,,,,,,-- --- ---- --- ------ ----- ------- ---- -- --- ------- --<br>------- ---------- ------ -- ----- -- ----- to ---- ------<br>--- ----- --- --- ------ -------- ----- --- ------ ----- --<br>----- ----- ---------- --- --- ------ ------ ---- -- ------<br>------- --- ------ ----- --- ---- ------- -- ---- --- --<br>------- ------,217089,216996,216580,216562,216596,217130,,19,to
screen,html.Screen,1_1_1_1_20,2021-04-12T13:29:36.824Z,,,,,,,,,,,,,,,,54,,,,,,,,,,,,,,411,,response,,,,100,,,,,,,Space,keypress(Space),,,,,,,,-- --- ---- --- ------ ----- ------- ---- -- --- ------- --<br>------- ---------- ------ -- ----- -- ----- -- save ------<br>--- ----- --- --- ------ -------- ----- --- ------ ----- --<br>----- ----- ---------- --- --- ------ ------ ---- -- ------<br>------- --- ------ ----- --- ---- ------- -- ---- --- --<br>------- ------,217618,217525,217114,217089,217130,217647,,20,save
screen,html.Screen,1_1_1_1_21,2021-04-12T13:29:37.236Z,,,,,,,,,,,,,,,,54,,,,,,,,,,,,,,307,,response,,,,100,,,,,,,Space,keypress(Space),,,,,,,,"-- --- ---- --- ------ ----- ------- ---- -- --- ------- --<br>------- ---------- ------ -- ----- -- ----- -- ---- money,<br>--- ----- --- --- ------ -------- ----- --- ------ ----- --<br>----- ----- ---------- --- --- ------ ------ ---- -- ------<br>------- --- ------ ----- --- ---- ------- -- ---- --- --<br>------- ------",218030,217937,217630,217618,217647,218064,,21,"money,"
screen,html.Screen,1_1_1_1_22,2021-04-12T13:29:37.645Z,,,,,,,,,,,,,,,,54,,,,,,,,,,,,,,299,,response,,,,100,,,,,,,Space,keypress(Space),,,,,,,,-- --- ---- --- ------ ----- ------- ---- -- --- ------- --<br>------- ---------- ------ -- ----- -- ----- -- ---- ------<br>the ----- --- --- ------ -------- ----- --- ------ ----- --<br>----- ----- ---------- --- --- ------ ------ ---- -- ------<br>------- --- ------ ----- --- ---- ------- -- ---- --- --<br>------- ------,218438.00000000003,218346,218047,218030,218064,218481,,22,the
screen,html.Screen,1_1_1_1_23,2021-04-12T13:29:38.101Z,,,,,,,,,,,,,,,,54,,,,,,,,,,,,,,339,,response,,,,100,,,,,,,Space,keypress(Space),,,,,,,,-- --- ---- --- ------ ----- ------- ---- -- --- ------- --<br>------- ---------- ------ -- ----- -- ----- -- ---- ------<br>--- state --- --- ------ -------- ----- --- ------ ----- --<br>----- ----- ---------- --- --- ------ ------ ---- -- ------<br>------- --- ------ ----- --- ---- ------- -- ---- --- --<br>------- ------,218895,218802,218463,218438.00000000003,218481,218934,,23,state
screen,html.Screen,1_1_1_1_24,2021-04-12T13:29:38.584Z,,,,,,,,,,,,,,,,54,,,,,,,,,,,,,,369,,response,,,,100,,,,,,,Space,keypress(Space),,,,,,,,-- --- ---- --- ------ ----- ------- ---- -- --- ------- --<br>------- ---------- ------ -- ----- -- ----- -- ---- ------<br>--- ----- cut --- ------ -------- ----- --- ------ ----- --<br>----- ----- ---------- --- --- ------ ------ ---- -- ------<br>------- --- ------ ----- --- ---- ------- -- ---- --- --<br>------- ------,219378,219285,218916,218895,218934,219416,,24,cut
screen,html.Screen,1_1_1_1_25,2021-04-12T13:29:38.933Z,,,,,,,,,,,,,,,,54,,,,,,,,,,,,,,233,,response,,,,100,,,,,,,Space,keypress(Space),,,,,,,,-- --- ---- --- ------ ----- ------- ---- -- --- ------- --<br>------- ---------- ------ -- ----- -- ----- -- ---- ------<br>--- ----- --- the ------ -------- ----- --- ------ ----- --<br>----- ----- ---------- --- --- ------ ------ ---- -- ------<br>------- --- ------ ----- --- ---- ------- -- ---- --- --<br>------- ------,219727,219634,219401,219378,219416,219751,,25,the
screen,html.Screen,1_1_1_1_26,2021-04-12T13:29:39.433Z,,,,,,,,,,,,,,,,54,,,,,,,,,,,,,,400,,response,,,,100,,,,,,,Space,keypress(Space),,,,,,,,-- --- ---- --- ------ ----- ------- ---- -- --- ------- --<br>------- ---------- ------ -- ----- -- ----- -- ---- ------<br>--- ----- --- --- bonds' -------- ----- --- ------ ----- --<br>----- ----- ---------- --- --- ------ ------ ---- -- ------<br>------- --- ------ ----- --- ---- ------- -- ---- --- --<br>------- ------,220227,220134,219734,219727,219751,220267,,26,bonds'
screen,html.Screen,1_1_1_1_27,2021-04-12T13:29:39.901Z,,,,,,,,,,,,,,,,54,,,,,,,,,,,,,,350,,response,,,,100,,,,,,,Space,keypress(Space),,,,,,,,-- --- ---- --- ------ ----- ------- ---- -- --- ------- --<br>------- ---------- ------ -- ----- -- ----- -- ---- ------<br>--- ----- --- --- ------ interest ----- --- ------ ----- --<br>----- ----- ---------- --- --- ------ ------ ---- -- ------<br>------- --- ------ ----- --- ---- ------- -- ---- --- --<br>------- ------,220694.00000000003,220601,220251,220227,220267,220734,,27,interest
screen,html.Screen,1_1_1_1_28,2021-04-12T13:29:40.352Z,,,,,,,,,,,,,,,,54,,,,,,,,,,,,,,336,,response,,,,100,,,,,,,Space,keypress(Space),,,,,,,,-- --- ---- --- ------ ----- ------- ---- -- --- ------- --<br>------- ---------- ------ -- ----- -- ----- -- ---- ------<br>--- ----- --- --- ------ -------- rate. --- ------ ----- --<br>----- ----- ---------- --- --- ------ ------ ---- -- ------<br>------- --- ------ ----- --- ---- ------- -- ---- --- --<br>------- ------,221146.00000000003,221053,220717,220694.00000000003,220734,221183,,28,rate.
screen,html.Screen,1_1_1_1_29,2021-04-12T13:29:40.792Z,,,,,,,,,,,,,,,,54,,,,,,,,,,,,,,326,,response,,,,100,,,,,,,Space,keypress(Space),,,,,,,,-- --- ---- --- ------ ----- ------- ---- -- --- ------- --<br>------- ---------- ------ -- ----- -- ----- -- ---- ------<br>--- ----- --- --- ------ -------- ----- The ------ ----- --<br>----- ----- ---------- --- --- ------ ------ ---- -- ------<br>------- --- ------ ----- --- ---- ------- -- ---- --- --<br>------- ------,221586,221493,221167,221146.00000000003,221183,221617,,29,The
screen,html.Screen,1_1_1_1_30,2021-04-12T13:29:41.221Z,,,,,,,,,,,,,,,,54,,,,,,,,,,,,,,321,,response,,,,100,,,,,,,Space,keypress(Space),,,,,,,,-- --- ---- --- ------ ----- ------- ---- -- --- ------- --<br>------- ---------- ------ -- ----- -- ----- -- ---- ------<br>--- ----- --- --- ------ -------- ----- --- market ----- --<br>----- ----- ---------- --- --- ------ ------ ---- -- ------<br>------- --- ------ ----- --- ---- ------- -- ---- --- --<br>------- ------,222015.00000000003,221922,221601,221586,221617,222050,,30,market
screen,html.Screen,1_1_1_1_31,2021-04-12T13:29:41.569Z,,,,,,,,,,,,,,,,54,,,,,,,,,,,,,,236,,response,,,,100,,,,,,,Space,keypress(Space),,,,,,,,-- --- ---- --- ------ ----- ------- ---- -- --- ------- --<br>------- ---------- ------ -- ----- -- ----- -- ---- ------<br>--- ----- --- --- ------ -------- ----- --- ------ value --<br>----- ----- ---------- --- --- ------ ------ ---- -- ------<br>------- --- ------ ----- --- ---- ------- -- ---- --- --<br>------- ------,222363,222270,222034,222015.00000000003,222050,222383,,31,value
screen,html.Screen,1_1_1_1_32,2021-04-12T13:29:41.961Z,,,,,,,,,,,,,,,,54,,,,,,,,,,,,,,295,,response,,,,100,,,,,,,Space,keypress(Space),,,,,,,,-- --- ---- --- ------ ----- ------- ---- -- --- ------- --<br>------- ---------- ------ -- ----- -- ----- -- ---- ------<br>--- ----- --- --- ------ -------- ----- --- ------ ----- of<br>----- ----- ---------- --- --- ------ ------ ---- -- ------<br>------- --- ------ ----- --- ---- ------- -- ---- --- --<br>------- ------,222755,222662,222367,222363,222383,222783,,32,of
screen,html.Screen,1_1_1_1_33,2021-04-12T13:29:42.400Z,,,,,,,,,,,,,,,,54,,,,,,,,,,,,,,334,,response,,,,100,,,,,,,Space,keypress(Space),,,,,,,,-- --- ---- --- ------ ----- ------- ---- -- --- ------- --<br>------- ---------- ------ -- ----- -- ----- -- ---- ------<br>--- ----- --- --- ------ -------- ----- --- ------ ----- --<br>these ----- ---------- --- --- ------ ------ ---- -- ------<br>------- --- ------ ----- --- ---- ------- -- ---- --- --<br>------- ------,223194.00000000003,223101,222767,222755,222783,223234,,33,these
screen,html.Screen,1_1_1_1_34,2021-04-12T13:29:42.754Z,,,,,,,,,,,,,,,,54,,,,,,,,,,,,,,237,,response,,,,100,,,,,,,Space,keypress(Space),,,,,,,,-- --- ---- --- ------ ----- ------- ---- -- --- ------- --<br>------- ---------- ------ -- ----- -- ----- -- ---- ------<br>--- ----- --- --- ------ -------- ----- --- ------ ----- --<br>----- bonds ---------- --- --- ------ ------ ---- -- ------<br>------- --- ------ ----- --- ---- ------- -- ---- --- --<br>------- ------,223547,223454,223217,223194.00000000003,223234,223567,,34,bonds
screen,html.Screen,1_1_1_1_35,2021-04-12T13:29:43.139Z,,,,,,,,,,,,,,,,54,,,,,,,,,,,,,,288,,response,,,,100,,,,,,,Space,keypress(Space),,,,,,,,"-- --- ---- --- ------ ----- ------- ---- -- --- ------- --<br>------- ---------- ------ -- ----- -- ----- -- ---- ------<br>--- ----- --- --- ------ -------- ----- --- ------ ----- --<br>----- ----- plummeted, --- --- ------ ------ ---- -- ------<br>------- --- ------ ----- --- ---- ------- -- ---- --- --<br>------- ------",223932.00000000003,223839,223551,223547,223567,223955,,35,"plummeted,"
screen,html.Screen,1_1_1_1_36,2021-04-12T13:29:43.645Z,,,,,,,,,,,,,,,,54,,,,,,,,,,,,,,409,,response,,,,100,,,,,,,Space,keypress(Space),,,,,,,,-- --- ---- --- ------ ----- ------- ---- -- --- ------- --<br>------- ---------- ------ -- ----- -- ----- -- ---- ------<br>--- ----- --- --- ------ -------- ----- --- ------ ----- --<br>----- ----- ---------- and --- ------ ------ ---- -- ------<br>------- --- ------ ----- --- ---- ------- -- ---- --- --<br>------- ------,224438.00000000003,224346,223937,223932.00000000003,223955,224471,,36,and
screen,html.Screen,1_1_1_1_37,2021-04-12T13:29:44.009Z,,,,,,,,,,,,,,,,54,,,,,,,,,,,,,,254,,response,,,,100,,,,,,,Space,keypress(Space),,,,,,,,-- --- ---- --- ------ ----- ------- ---- -- --- ------- --<br>------- ---------- ------ -- ----- -- ----- -- ---- ------<br>--- ----- --- --- ------ -------- ----- --- ------ ----- --<br>----- ----- ---------- --- the ------ ------ ---- -- ------<br>------- --- ------ ----- --- ---- ------- -- ---- --- --<br>------- ------,224802,224709,224455,224438.00000000003,224471,224821,,37,the
screen,html.Screen,1_1_1_1_38,2021-04-12T13:29:44.493Z,,,,,,,,,,,,,,,,54,,,,,,,,,,,,,,389.0000000000291,,response,,,,100,,,,,,,Space,keypress(Space),,,,,,,,-- --- ---- --- ------ ----- ------- ---- -- --- ------- --<br>------- ---------- ------ -- ----- -- ----- -- ---- ------<br>--- ----- --- --- ------ -------- ----- --- ------ ----- --<br>----- ----- ---------- --- --- market ------ ---- -- ------<br>------- --- ------ ----- --- ---- ------- -- ---- --- --<br>------- ------,225287,225194.00000000003,224805,224802,224821,225321,,38,market
screen,html.Screen,1_1_1_1_39,2021-04-12T13:29:44.973Z,,,,,,,,,,,,,,,,54,,,,,,,,,,,,,,369,,response,,,,100,,,,,,,Space,keypress(Space),,,,,,,,-- --- ---- --- ------ ----- ------- ---- -- --- ------- --<br>------- ---------- ------ -- ----- -- ----- -- ---- ------<br>--- ----- --- --- ------ -------- ----- --- ------ ----- --<br>----- ----- ---------- --- --- ------ became ---- -- ------<br>------- --- ------ ----- --- ---- ------- -- ---- --- --<br>------- ------,225766,225674,225305,225287,225321,225804,,39,became
screen,html.Screen,1_1_1_1_40,2021-04-12T13:29:45.523Z,,,,,,,,,,,,,,,,54,,,,,,,,,,,,,,436.0000000000291,,response,,,,100,,,,,,,Space,keypress(Space),,,,,,,,-- --- ---- --- ------ ----- ------- ---- -- --- ------- --<br>------- ---------- ------ -- ----- -- ----- -- ---- ------<br>--- ----- --- --- ------ -------- ----- --- ------ ----- --<br>----- ----- ---------- --- --- ------ ------ wary -- ------<br>------- --- ------ ----- --- ---- ------- -- ---- --- --<br>------- ------,226316,226224.00000000003,225788,225767,225804,226355,,40,wary
screen,html.Screen,1_1_1_1_41,2021-04-12T13:29:45.965Z,,,,,,,,,,,,,,,,54,,,,,,,,,,,,,,328,,response,,,,100,,,,,,,Space,keypress(Space),,,,,,,,-- --- ---- --- ------ ----- ------- ---- -- --- ------- --<br>------- ---------- ------ -- ----- -- ----- -- ---- ------<br>--- ----- --- --- ------ -------- ----- --- ------ ----- --<br>----- ----- ---------- --- --- ------ ------ ---- of ------<br>------- --- ------ ----- --- ---- ------- -- ---- --- --<br>------- ------,226758,226666,226338,226317,226355,226788,,41,of
screen,html.Screen,1_1_1_1_42,2021-04-12T13:29:46.375Z,,,,,,,,,,,,,,,,54,,,,,,,,,,,,,,304.0000000000291,,response,,,,100,,,,,,,Space,keypress(Space),,,,,,,,-- --- ---- --- ------ ----- ------- ---- -- --- ------- --<br>------- ---------- ------ -- ----- -- ----- -- ---- ------<br>--- ----- --- --- ------ -------- ----- --- ------ ----- --<br>----- ----- ---------- --- --- ------ ------ ---- -- French<br>------- --- ------ ----- --- ---- ------- -- ---- --- --<br>------- ------,227168,227075.00000000003,226771,226758,226788,227204,,42,French
screen,html.Screen,1_1_1_1_43,2021-04-12T13:29:46.866Z,,,,,,,,,,,,,,,,54,,,,,,,,,,,,,,379,,response,,,,100,,,,,,,Space,keypress(Space),,,,,,,,-- --- ---- --- ------ ----- ------- ---- -- --- ------- --<br>------- ---------- ------ -- ----- -- ----- -- ---- ------<br>--- ----- --- --- ------ -------- ----- --- ------ ----- --<br>----- ----- ---------- --- --- ------ ------ ---- -- ------<br>credit. --- ------ ----- --- ---- ------- -- ---- --- --<br>------- ------,227660,227567,227188,227168,227204,227687,,43,credit.
screen,html.Screen,1_1_1_1_44,2021-04-12T13:29:47.328Z,,,,,,,,,,,,,,,,54,,,,,,,,,,,,,,358,,response,,,,100,,,,,,,Space,keypress(Space),,,,,,,,-- --- ---- --- ------ ----- ------- ---- -- --- ------- --<br>------- ---------- ------ -- ----- -- ----- -- ---- ------<br>--- ----- --- --- ------ -------- ----- --- ------ ----- --<br>----- ----- ---------- --- --- ------ ------ ---- -- ------<br>------- The ------ ----- --- ---- ------- -- ---- --- --<br>------- ------,228122,228029,227671,227660,227687,228155,,44,The
screen,html.Screen,1_1_1_1_45,2021-04-12T13:29:47.763Z,,,,,,,,,,,,,,,,54,,,,,,,,,,,,,,326,,response,,,,100,,,,,,,Space,keypress(Space),,,,,,,,-- --- ---- --- ------ ----- ------- ---- -- --- ------- --<br>------- ---------- ------ -- ----- -- ----- -- ---- ------<br>--- ----- --- --- ------ -------- ----- --- ------ ----- --<br>----- ----- ---------- --- --- ------ ------ ---- -- ------<br>------- --- French ----- --- ---- ------- -- ---- --- --<br>------- ------,228556,228464,228138,228122,228155,228588,,45,French
screen,html.Screen,1_1_1_1_46,2021-04-12T13:29:48.173Z,,,,,,,,,,,,,,,,54,,,,,,,,,,,,,,303,,response,,,,100,,,,,,,Space,keypress(Space),,,,,,,,-- --- ---- --- ------ ----- ------- ---- -- --- ------- --<br>------- ---------- ------ -- ----- -- ----- -- ---- ------<br>--- ----- --- --- ------ -------- ----- --- ------ ----- --<br>----- ----- ---------- --- --- ------ ------ ---- -- ------<br>------- --- ------ state --- ---- ------- -- ---- --- --<br>------- ------,228967,228874,228571,228557.00000000003,228588,229009,,46,state
screen,html.Screen,1_1_1_1_47,2021-04-12T13:29:48.599Z,,,,,,,,,,,,,,,,54,,,,,,,,,,,,,,309,,response,,,,100,,,,,,,Space,keypress(Space),,,,,,,,-- --- ---- --- ------ ----- ------- ---- -- --- ------- --<br>------- ---------- ------ -- ----- -- ----- -- ---- ------<br>--- ----- --- --- ------ -------- ----- --- ------ ----- --<br>----- ----- ---------- --- --- ------ ------ ---- -- ------<br>------- --- ------ ----- was ---- ------- -- ---- --- --<br>------- ------,229393,229300,228991,228967,229009,229425,,47,was
screen,html.Screen,1_1_1_1_48,2021-04-12T13:29:48.993Z,,,,,,,,,,,,,,,,54,,,,,,,,,,,,,,285.0000000000291,,response,,,,100,,,,,,,Space,keypress(Space),,,,,,,,-- --- ---- --- ------ ----- ------- ---- -- --- ------- --<br>------- ---------- ------ -- ----- -- ----- -- ---- ------<br>--- ----- --- --- ------ -------- ----- --- ------ ----- --<br>----- ----- ---------- --- --- ------ ------ ---- -- ------<br>------- --- ------ ----- --- left ------- -- ---- --- --<br>------- ------,229787,229694.00000000003,229409,229393,229425,229808,,48,left
screen,html.Screen,1_1_1_1_49,2021-04-12T13:29:49.732Z,,,,,,,,,,,,,,,,54,,,,,,,,,,,,,,641,,response,,,,100,,,,,,,Space,keypress(Space),,,,,,,,-- --- ---- --- ------ ----- ------- ---- -- --- ------- --<br>------- ---------- ------ -- ----- -- ----- -- ---- ------<br>--- ----- --- --- ------ -------- ----- --- ------ ----- --<br>----- ----- ---------- --- --- ------ ------ ---- -- ------<br>------- --- ------ ----- --- ---- without -- ---- --- --<br>------- ------,230526,230433,229792,229787,229808,230559,,49,without
screen,html.Screen,1_1_1_1_50,2021-04-12T13:29:50.166Z,,,,,,,,,,,,,,,,54,,,,,,,,,,,,,,325.0000000000291,,response,,,,100,,,,,,,Space,keypress(Space),,,,,,,,-- --- ---- --- ------ ----- ------- ---- -- --- ------- --<br>------- ---------- ------ -- ----- -- ----- -- ---- ------<br>--- ----- --- --- ------ -------- ----- --- ------ ----- --<br>----- ----- ---------- --- --- ------ ------ ---- -- ------<br>------- --- ------ ----- --- ---- ------- an ---- --- --<br>------- ------,230960,230867.00000000003,230542,230526,230559,230992,,50,an
screen,html.Screen,1_1_1_1_51,2021-04-12T13:29:50.573Z,,,,,,,,,,,,,,,,54,,,,,,,,,,,,,,299,,response,,,,100,,,,,,,Space,keypress(Space),,,,,,,,-- --- ---- --- ------ ----- ------- ---- -- --- ------- --<br>------- ---------- ------ -- ----- -- ----- -- ---- ------<br>--- ----- --- --- ------ -------- ----- --- ------ ----- --<br>----- ----- ---------- --- --- ------ ------ ---- -- ------<br>------- --- ------ ----- --- ---- ------- -- easy --- --<br>------- ------,231367.00000000003,231274,230975,230960,230992,231408,,51,easy
screen,html.Screen,1_1_1_1_52,2021-04-12T13:29:50.933Z,,,,,,,,,,,,,,,,54,,,,,,,,,,,,,,242,,response,,,,100,,,,,,,Space,keypress(Space),,,,,,,,-- --- ---- --- ------ ----- ------- ---- -- --- ------- --<br>------- ---------- ------ -- ----- -- ----- -- ---- ------<br>--- ----- --- --- ------ -------- ----- --- ------ ----- --<br>----- ----- ---------- --- --- ------ ------ ---- -- ------<br>------- --- ------ ----- --- ---- ------- -- ---- way --<br>------- ------,231726,231634,231392,231367.00000000003,231408,231759,,52,way
screen,html.Screen,1_1_1_1_53,2021-04-12T13:29:51.315Z,,,,,,,,,,,,,,,,54,,,,,,,,,,,,,,273.0000000000291,,response,,,,100,,,,,,,Space,keypress(Space),,,,,,,,-- --- ---- --- ------ ----- ------- ---- -- --- ------- --<br>------- ---------- ------ -- ----- -- ----- -- ---- ------<br>--- ----- --- --- ------ -------- ----- --- ------ ----- --<br>----- ----- ---------- --- --- ------ ------ ---- -- ------<br>------- --- ------ ----- --- ---- ------- -- ---- --- of<br>------- ------,232108,232015.00000000003,231742,231726,231759,232142,,53,of
screen,html.Screen,1_1_1_1_54,2021-04-12T13:29:51.750Z,,,,,,,,,,,,,,,,54,,,,,,,,,,,,,,325.0000000000291,,response,,,,100,,,,,,,Space,keypress(Space),,,,,,,,-- --- ---- --- ------ ----- ------- ---- -- --- ------- --<br>------- ---------- ------ -- ----- -- ----- -- ---- ------<br>--- ----- --- --- ------ -------- ----- --- ------ ----- --<br>----- ----- ---------- --- --- ------ ------ ---- -- ------<br>------- --- ------ ----- --- ---- ------- -- ---- --- --<br>raising ------,232543,232450.00000000003,232125,232108,232142,232575,,54,raising
screen,html.Screen,1_1_1_1_55,2021-04-12T13:29:52.213Z,,,,,,,,,,,,,,,,54,,,,,,,,,,,,,,356.0000000000291,,response,,,,100,,,,,,,Space,keypress(Space),,,,,,,,-- --- ---- --- ------ ----- ------- ---- -- --- ------- --<br>------- ---------- ------ -- ----- -- ----- -- ---- ------<br>--- ----- --- --- ------ -------- ----- --- ------ ----- --<br>----- ----- ---------- --- --- ------ ------ ---- -- ------<br>------- --- ------ ----- --- ---- ------- -- ---- --- --<br>------- money.,233006,232914.00000000003,232558,232543,232575,233042,,55,money.
Item 100,flow.Loop,1_1_1_1,2021-04-12T13:29:52.213Z,,,,,,,,,,,,,,,,,,,,,,,,,,,,,,26072.00000000003,,completion,,,,,A,,,,,,,,,,,silence,,,,,233007,232914.00000000003,206826,206826,206842,233042,,,
Question 1,html.Screen,1_1_1_2,2021-04-12T13:29:54.445Z,,,,,,,,,,,,,,,,,,,,,,,,,,,true,TRUE,,2121.000000000029,,response,,,,100,A,,,,,,TRUE,click #choice-1,,,,silence,,,,,235239,235146.00000000003,233025,233007,233042,235261,,,
Question 2,html.Screen,1_1_1_3,2021-04-12T13:29:56.593Z,,,,,,,,,,,,,,,,,,,,,,,,,,,true,FALSE,,2049,,response,,,,100,A,,,,,,FALSE,click #choice-2,,,,silence,,,,,237387,237294,235245,235239,235261,237412,,,
Item 100,flow.Sequence,1_1_1,2021-04-12T13:29:56.593Z,,,,,,,,,,,,,,,,,,,,,,,,,,,,,,40459,,completion,,,,,,,,,,,,,,,,,,,,,237387,237294,196819,196805,196835,237412,,,
End of Practice,html.Page,1_1_2,2021-04-12T13:29:59.863Z,,,,,,,,,,,,,,,,,,,,,,,,,,,,,,3244,,form submission,,,,,,,,,,,,,,,,,,,,,240656,240656,237395,237387,237412,240682,,,
Practice,flow.Sequence,1_1,2021-04-12T13:29:59.863Z,,,,,,,,,,,,,,,,,,,,,,,,,,,,,,95220,,completion,,,,,,,,,,,,,,,,,,,,,240656,240656,145420,145413,145436,240682,,,
Trap_instruction,html.Page,1_2_0,2021-04-12T13:30:04.777Z,,,,,,,,,,,,,,,,,,,,,,,,,,,,,,4888,,form submission,,,,,,,,,,,,,,,,,,,,,245571,245570,240664,240656,240682,245601,,,
trap_trial,html.Screen,1_2_1,2021-04-12T13:30:09.386Z,,,,,,,,,,,,,,,,,,,,,,,,,,,true,1,,4503.000000000029,,response,,,,,,,,,,,1,click #choice-1,,,,,,,,,250179,250087.00000000003,245584,245571,245601,250221,,,
end of trap trial,html.Page,1_2_2,2021-04-12T13:30:11.866Z,,,,,,,,,,,,,,,,,,,,,,,,,,,,,,2438,,form submission,,,,,,,,,,,,,,,,,,,,,252659,252659,250213,250179,250221,252687,,,
Trap 1,flow.Sequence,1_2,2021-04-12T13:30:11.866Z,,,,,,,,,,,,,,,,,,,,,,,,,,,,,,11977,,completion,,,,,,,,,,,,,,,,,,,,,252659,252659,240664,240656,240682,252687,,,
Standby,html.Page,1_3_0,2021-04-12T13:30:19.870Z,,,,,,,,,,,,,,,,,,,,,,,,,,,,,,7993,,timeout,,,,,,,,,,,,,,,,,,,,,260663,260663,252671,252660,252687,260680,,,
Holding screen,html.Screen,1_3_1_0_0,2021-04-12T13:30:26.874Z,,,,,,,,,,,,,,,,,,,,,,,,,,,,,,7003,,timeout,,,,,,,,,,,,,,,,,,,,,267668,267667,260663,260664,260680,267683,,,
screen,html.Screen,1_3_1_0_1_0,2021-04-12T13:30:27.818Z,,,,,,,,,,,,,,,,51,,,,,,,,,,,,,,851,,response,,,,13,A,,,,,,Space,keypress(Space),,,,silence,,,,American -------- --- --- ---- --- --- ------ -- --------<br>---- --------- --- ------- ------------ ---------- ---------<br>--- ---------- ------- ---------- ------- -- -------- ----<br>---- --- ------ ----- ------ -- ---- --- ----- -- - -------<br>-------- -- --- --- -- ----- ----------- ----- -----------<br>---- --- ---------- --- ---- --- -- ----------,268612,268518,267667,267668,267683,268649,,0,American
screen,html.Screen,1_3_1_0_1_1,2021-04-12T13:30:28.455Z,,,,,,,,,,,,,,,,51,,,,,,,,,,,,,,523.0000000000582,,response,,,,13,A,,,,,,Space,keypress(Space),,,,silence,,,,-------- industry --- --- ---- --- --- ------ -- --------<br>---- --------- --- ------- ------------ ---------- ---------<br>--- ---------- ------- ---------- ------- -- -------- ----<br>---- --- ------ ----- ------ -- ---- --- ----- -- - -------<br>-------- -- --- --- -- ----- ----------- ----- -----------<br>---- --- ---------- --- ---- --- -- ----------,269248,269155.00000000006,268632,268612,268649,269286,,1,industry
screen,html.Screen,1_3_1_0_1_2,2021-04-12T13:30:29.277Z,,,,,,,,,,,,,,,,51,,,,,,,,,,,,,,709,,response,,,,13,A,,,,,,Space,keypress(Space),,,,silence,,,,-------- -------- may --- ---- --- --- ------ -- --------<br>---- --------- --- ------- ------------ ---------- ---------<br>--- ---------- ------- ---------- ------- -- -------- ----<br>---- --- ------ ----- ------ -- ---- --- ----- -- - -------<br>-------- -- --- --- -- ----- ----------- ----- -----------<br>---- --- ---------- --- ---- --- -- ----------,270071,269978,269269,269248,269286,270103,,2,may
screen,html.Screen,1_3_1_0_1_3,2021-04-12T13:30:29.757Z,,,,,,,,,,,,,,,,51,,,,,,,,,,,,,,373,,response,,,,13,A,,,,,,Space,keypress(Space),,,,silence,,,,-------- -------- --- not ---- --- --- ------ -- --------<br>---- --------- --- ------- ------------ ---------- ---------<br>--- ---------- ------- ---------- ------- -- -------- ----<br>---- --- ------ ----- ------ -- ---- --- ----- -- - -------<br>-------- -- --- --- -- ----- ----------- ----- -----------<br>---- --- ---------- --- ---- --- -- ----------,270551,270458,270085,270071,270103,270586,,3,not
screen,html.Screen,1_3_1_0_1_4,2021-04-12T13:30:30.263Z,,,,,,,,,,,,,,,,51,,,,,,,,,,,,,,395,,response,,,,13,A,,,,,,Space,keypress(Space),,,,silence,,,,-------- -------- --- --- know --- --- ------ -- --------<br>---- --------- --- ------- ------------ ---------- ---------<br>--- ---------- ------- ---------- ------- -- -------- ----<br>---- --- ------ ----- ------ -- ---- --- ----- -- - -------<br>-------- -- --- --- -- ----- ----------- ----- -----------<br>---- --- ---------- --- ---- --- -- ----------,271057,270964,270569,270551,270586,271086,,4,know
screen,html.Screen,1_3_1_0_1_5,2021-04-12T13:30:30.771Z,,,,,,,,,,,,,,,,51,,,,,,,,,,,,,,402,,response,,,,13,A,,,,,,Space,keypress(Space),,,,silence,,,,"-------- -------- --- --- ---- it, --- ------ -- --------<br>---- --------- --- ------- ------------ ---------- ---------<br>--- ---------- ------- ---------- ------- -- -------- ----<br>---- --- ------ ----- ------ -- ---- --- ----- -- - -------<br>-------- -- --- --- -- ----- ----------- ----- -----------<br>---- --- ---------- --- ---- --- -- ----------",271565,271471,271069,271057,271086,271603,,5,"it,"
screen,html.Screen,1_3_1_0_1_6,2021-04-12T13:30:31.236Z,,,,,,,,,,,,,,,,51,,,,,,,,,,,,,,351,,response,,,,13,A,,,,,,Space,keypress(Space),,,,silence,,,,-------- -------- --- --- ---- --- but ------ -- --------<br>---- --------- --- ------- ------------ ---------- ---------<br>--- ---------- ------- ---------- ------- -- -------- ----<br>---- --- ------ ----- ------ -- ---- --- ----- -- - -------<br>-------- -- --- --- -- ----- ----------- ----- -----------<br>---- --- ---------- --- ---- --- -- ----------,272030.00000000006,271937,271586,271565,271603,272069,,6,but
screen,html.Screen,1_3_1_0_1_7,2021-04-12T13:30:31.865Z,,,,,,,,,,,,,,,,51,,,,,,,,,,,,,,513.0000000000582,,response,,,,13,A,,,,,,Space,keypress(Space),,,,silence,,,,-------- -------- --- --- ---- --- --- debate -- --------<br>---- --------- --- ------- ------------ ---------- ---------<br>--- ---------- ------- ---------- ------- -- -------- ----<br>---- --- ------ ----- ------ -- ---- --- ----- -- - -------<br>-------- -- --- --- -- ----- ----------- ----- -----------<br>---- --- ---------- --- ---- --- -- ----------,272658,272566.00000000006,272053,272030.00000000006,272069,272686,,7,debate
screen,html.Screen,1_3_1_0_1_8,2021-04-12T13:30:32.220Z,,,,,,,,,,,,,,,,51,,,,,,,,,,,,,,251,,response,,,,13,A,,,,,,Space,keypress(Space),,,,silence,,,,-------- -------- --- --- ---- --- --- ------ in --------<br>---- --------- --- ------- ------------ ---------- ---------<br>--- ---------- ------- ---------- ------- -- -------- ----<br>---- --- ------ ----- ------ -- ---- --- ----- -- - -------<br>-------- -- --- --- -- ----- ----------- ----- -----------<br>---- --- ---------- --- ---- --- -- ----------,273013.00000000006,272920,272669,272659,272686,273035,,8,in
screen,html.Screen,1_3_1_0_1_9,2021-04-12T13:30:32.736Z,,,,,,,,,,,,,,,,51,,,,,,,,,,,,,,417,,response,,,,13,A,,,,,,Space,keypress(Space),,,,silence,,,,-------- -------- --- --- ---- --- --- ------ -- Congress<br>---- --------- --- ------- ------------ ---------- ---------<br>--- ---------- ------- ---------- ------- -- -------- ----<br>---- --- ------ ----- ------ -- ---- --- ----- -- - -------<br>-------- -- --- --- -- ----- ----------- ----- -----------<br>---- --- ---------- --- ---- --- -- ----------,273529,273436,273019,273014,273035,273569,,9,Congress
screen,html.Screen,1_3_1_0_1_10,2021-04-12T13:30:33.251Z,,,,,,,,,,,,,,,,51,,,,,,,,,,,,,,399,,response,,,,13,A,,,,,,Space,keypress(Space),,,,silence,,,,-------- -------- --- --- ---- --- --- ------ -- --------<br>over --------- --- ------- ------------ ---------- ---------<br>--- ---------- ------- ---------- ------- -- -------- ----<br>---- --- ------ ----- ------ -- ---- --- ----- -- - -------<br>-------- -- --- --- -- ----- ----------- ----- -----------<br>---- --- ---------- --- ---- --- -- ----------,274045,273952,273553,273529,273569,274072,,10,over
screen,html.Screen,1_3_1_0_1_11,2021-04-12T13:30:33.719Z,,,,,,,,,,,,,,,,51,,,,,,,,,,,,,,365,,response,,,,13,A,,,,,,Space,keypress(Space),,,,silence,,,,-------- -------- --- --- ---- --- --- ------ -- --------<br>---- reforming --- ------- ------------ ---------- ---------<br>--- ---------- ------- ---------- ------- -- -------- ----<br>---- --- ------ ----- ------ -- ---- --- ----- -- - -------<br>-------- -- --- --- -- ----- ----------- ----- -----------<br>---- --- ---------- --- ---- --- -- ----------,274513.00000000006,274420,274055,274045,274072,274555,,11,reforming
screen,html.Screen,1_3_1_0_1_12,2021-04-12T13:30:34.167Z,,,,,,,,,,,,,,,,51,,,,,,,,,,,,,,328,,response,,,,13,A,,,,,,Space,keypress(Space),,,,silence,,,,-------- -------- --- --- ---- --- --- ------ -- --------<br>---- --------- the ------- ------------ ---------- ---------<br>--- ---------- ------- ---------- ------- -- -------- ----<br>---- --- ------ ----- ------ -- ---- --- ----- -- - -------<br>-------- -- --- --- -- ----- ----------- ----- -----------<br>---- --- ---------- --- ---- --- -- ----------,274960,274867,274539,274513.00000000006,274555,274988,,12,the
screen,html.Screen,1_3_1_0_1_13,2021-04-12T13:30:34.597Z,,,,,,,,,,,,,,,,51,,,,,,,,,,,,,,324,,response,,,,13,A,,,,,,Space,keypress(Space),,,,silence,,,,-------- -------- --- --- ---- --- --- ------ -- --------<br>---- --------- --- federal ------------ ---------- ---------<br>--- ---------- ------- ---------- ------- -- -------- ----<br>---- --- ------ ----- ------ -- ---- --- ----- -- - -------<br>-------- -- --- --- -- ----- ----------- ----- -----------<br>---- --- ---------- --- ---- --- -- ----------,275390,275297,274973,274960,274988,275423,,13,federal
screen,html.Screen,1_3_1_0_1_14,2021-04-12T13:30:35.035Z,,,,,,,,,,,,,,,,51,,,,,,,,,,,,,,329,,response,,,,13,A,,,,,,Space,keypress(Space),,,,silence,,,,-------- -------- --- --- ---- --- --- ------ -- --------<br>---- --------- --- ------- government's ---------- ---------<br>--- ---------- ------- ---------- ------- -- -------- ----<br>---- --- ------ ----- ------ -- ---- --- ----- -- - -------<br>-------- -- --- --- -- ----- ----------- ----- -----------<br>---- --- ---------- --- ---- --- -- ----------,275828.00000000006,275735,275406,275390,275423,275856,,14,government's
screen,html.Screen,1_3_1_0_1_15,2021-04-12T13:30:35.598Z,,,,,,,,,,,,,,,,51,,,,,,,,,,,,,,459,,response,,,,13,A,,,,,,Space,keypress(Space),,,,silence,,,,-------- -------- --- --- ---- --- --- ------ -- --------<br>---- --------- --- ------- ------------ regulatory ---------<br>--- ---------- ------- ---------- ------- -- -------- ----<br>---- --- ------ ----- ------ -- ---- --- ----- -- - -------<br>-------- -- --- --- -- ----- ----------- ----- -----------<br>---- --- ---------- --- ---- --- -- ----------,276391,276298,275839,275828.00000000006,275856,276423,,15,regulatory
screen,html.Screen,1_3_1_0_1_16,2021-04-12T13:30:36.188Z,,,,,,,,,,,,,,,,51,,,,,,,,,,,,,,482.0000000000582,,response,,,,13,A,,,,,,Space,keypress(Space),,,,silence,,,,-------- -------- --- --- ---- --- --- ------ -- --------<br>---- --------- --- ------- ------------ ---------- apparatus<br>--- ---------- ------- ---------- ------- -- -------- ----<br>---- --- ------ ----- ------ -- ---- --- ----- -- - -------<br>-------- -- --- --- -- ----- ----------- ----- -----------<br>---- --- ---------- --- ---- --- -- ----------,276981,276888.00000000006,276406,276392,276423,277023,,16,apparatus
screen,html.Screen,1_3_1_0_1_17,2021-04-12T13:30:36.721Z,,,,,,,,,,,,,,,,51,,,,,,,,,,,,,,415,,response,,,,13,A,,,,,,Space,keypress(Space),,,,silence,,,,-------- -------- --- --- ---- --- --- ------ -- --------<br>---- --------- --- ------- ------------ ---------- ---------<br>may ---------- ------- ---------- ------- -- -------- ----<br>---- --- ------ ----- ------ -- ---- --- ----- -- - -------<br>-------- -- --- --- -- ----- ----------- ----- -----------<br>---- --- ---------- --- ---- --- -- ----------,277514,277421,277006,276981,277023,277555,,17,may
screen,html.Screen,1_3_1_0_1_18,2021-04-12T13:30:37.153Z,,,,,,,,,,,,,,,,51,,,,,,,,,,,,,,315,,response,,,,13,A,,,,,,Space,keypress(Space),,,,silence,,,,-------- -------- --- --- ---- --- --- ------ -- --------<br>---- --------- --- ------- ------------ ---------- ---------<br>--- profoundly ------- ---------- ------- -- -------- ----<br>---- --- ------ ----- ------ -- ---- --- ----- -- - -------<br>-------- -- --- --- -- ----- ----------- ----- -----------<br>---- --- ---------- --- ---- --- -- ----------,277946,277853,277538,277514,277555,277989,,18,profoundly
screen,html.Screen,1_3_1_0_1_19,2021-04-12T13:30:37.625Z,,,,,,,,,,,,,,,,51,,,,,,,,,,,,,,353,,response,,,,13,A,,,,,,Space,keypress(Space),,,,silence,,,,-------- -------- --- --- ---- --- --- ------ -- --------<br>---- --------- --- ------- ------------ ---------- ---------<br>--- ---------- improve ---------- ------- -- -------- ----<br>---- --- ------ ----- ------ -- ---- --- ----- -- - -------<br>-------- -- --- --- -- ----- ----------- ----- -----------<br>---- --- ---------- --- ---- --- -- ----------,278419,278325,277972,277946,277989,278456,,19,improve
screen,html.Screen,1_3_1_0_1_20,2021-04-12T13:30:38.068Z,,,,,,,,,,,,,,,,51,,,,,,,,,,,,,,329,,response,,,,13,A,,,,,,Space,keypress(Space),,,,silence,,,,-------- -------- --- --- ---- --- --- ------ -- --------<br>---- --------- --- ------- ------------ ---------- ---------<br>--- ---------- ------- companies' ------- -- -------- ----<br>---- --- ------ ----- ------ -- ---- --- ----- -- - -------<br>-------- -- --- --- -- ----- ----------- ----- -----------<br>---- --- ---------- --- ---- --- -- ----------,278861,278768,278439,278419,278456,278893,,20,companies'
screen,html.Screen,1_3_1_0_1_21,2021-04-12T13:30:38.554Z,,,,,,,,,,,,,,,,51,,,,,,,,,,,,,,378,,response,,,,13,A,,,,,,Space,keypress(Space),,,,silence,,,,-------- -------- --- --- ---- --- --- ------ -- --------<br>---- --------- --- ------- ------------ ---------- ---------<br>--- ---------- ------- ---------- ability -- -------- ----<br>---- --- ------ ----- ------ -- ---- --- ----- -- - -------<br>-------- -- --- --- -- ----- ----------- ----- -----------<br>---- --- ---------- --- ---- --- -- ----------,279348,279255,278877,278861,278893,279377,,21,ability
screen,html.Screen,1_3_1_0_1_22,2021-04-12T13:30:38.934Z,,,,,,,,,,,,,,,,51,,,,,,,,,,,,,,275,,response,,,,13,A,,,,,,Space,keypress(Space),,,,silence,,,,-------- -------- --- --- ---- --- --- ------ -- --------<br>---- --------- --- ------- ------------ ---------- ---------<br>--- ---------- ------- ---------- ------- to -------- ----<br>---- --- ------ ----- ------ -- ---- --- ----- -- - -------<br>-------- -- --- --- -- ----- ----------- ----- -----------<br>---- --- ---------- --- ---- --- -- ----------,279727.00000000006,279634,279359,279348,279377,279760,,22,to
screen,html.Screen,1_3_1_0_1_23,2021-04-12T13:30:39.479Z,,,,,,,,,,,,,,,,51,,,,,,,,,,,,,,436.0000000000582,,response,,,,13,A,,,,,,Space,keypress(Space),,,,silence,,,,-------- -------- --- --- ---- --- --- ------ -- --------<br>---- --------- --- ------- ------------ ---------- ---------<br>--- ---------- ------- ---------- ------- -- survive. ----<br>---- --- ------ ----- ------ -- ---- --- ----- -- - -------<br>-------- -- --- --- -- ----- ----------- ----- -----------<br>---- --- ---------- --- ---- --- -- ----------,280272,280179.00000000006,279743,279727.00000000006,279760,280310,,23,survive.
screen,html.Screen,1_3_1_0_1_24,2021-04-12T13:30:39.930Z,,,,,,,,,,,,,,,,51,,,,,,,,,,,,,,337,,response,,,,13,A,,,,,,Space,keypress(Space),,,,silence,,,,-------- -------- --- --- ---- --- --- ------ -- --------<br>---- --------- --- ------- ------------ ---------- ---------<br>--- ---------- ------- ---------- ------- -- -------- This<br>---- --- ------ ----- ------ -- ---- --- ----- -- - -------<br>-------- -- --- --- -- ----- ----------- ----- -----------<br>---- --- ---------- --- ---- --- -- ----------,280723,280630,280293,280272,280310,280760,,24,This
screen,html.Screen,1_3_1_0_1_25,2021-04-12T13:30:40.419Z,,,,,,,,,,,,,,,,51,,,,,,,,,,,,,,376,,response,,,,13,A,,,,,,Space,keypress(Space),,,,silence,,,,-------- -------- --- --- ---- --- --- ------ -- --------<br>---- --------- --- ------- ------------ ---------- ---------<br>--- ---------- ------- ---------- ------- -- -------- ----<br>week --- ------ ----- ------ -- ---- --- ----- -- - -------<br>-------- -- --- --- -- ----- ----------- ----- -----------<br>---- --- ---------- --- ---- --- -- ----------,281212,281119,280743,280723,280760,281243,,25,week
screen,html.Screen,1_3_1_0_1_26,2021-04-12T13:30:40.844Z,,,,,,,,,,,,,,,,51,,,,,,,,,,,,,,318,,response,,,,13,A,,,,,,Space,keypress(Space),,,,silence,,,,-------- -------- --- --- ---- --- --- ------ -- --------<br>---- --------- --- ------- ------------ ---------- ---------<br>--- ---------- ------- ---------- ------- -- -------- ----<br>---- the ------ ----- ------ -- ---- --- ----- -- - -------<br>-------- -- --- --- -- ----- ----------- ----- -----------<br>---- --- ---------- --- ---- --- -- ----------,281637,281545,281227,281212,281243,281676,,26,the
screen,html.Screen,1_3_1_0_1_27,2021-04-12T13:30:41.448Z,,,,,,,,,,,,,,,,51,,,,,,,,,,,,,,489,,response,,,,13,A,,,,,,Space,keypress(Space),,,,silence,,,,-------- -------- --- --- ---- --- --- ------ -- --------<br>---- --------- --- ------- ------------ ---------- ---------<br>--- ---------- ------- ---------- ------- -- -------- ----<br>---- --- Senate ----- ------ -- ---- --- ----- -- - -------<br>-------- -- --- --- -- ----- ----------- ----- -----------<br>---- --- ---------- --- ---- --- -- ----------,282242,282149,281660,281637,281676,282276,,27,Senate
screen,html.Screen,1_3_1_0_1_28,2021-04-12T13:30:41.917Z,,,,,,,,,,,,,,,,51,,,,,,,,,,,,,,357,,response,,,,13,A,,,,,,Space,keypress(Space),,,,silence,,,,-------- -------- --- --- ---- --- --- ------ -- --------<br>---- --------- --- ------- ------------ ---------- ---------<br>--- ---------- ------- ---------- ------- -- -------- ----<br>---- --- ------ seems ------ -- ---- --- ----- -- - -------<br>-------- -- --- --- -- ----- ----------- ----- -----------<br>---- --- ---------- --- ---- --- -- ----------,282710,282617,282260,282242,282276,282743,,28,seems
screen,html.Screen,1_3_1_0_1_29,2021-04-12T13:30:42.343Z,,,,,,,,,,,,,,,,51,,,,,,,,,,,,,,316,,response,,,,13,A,,,,,,Space,keypress(Space),,,,silence,,,,-------- -------- --- --- ---- --- --- ------ -- --------<br>---- --------- --- ------- ------------ ---------- ---------<br>--- ---------- ------- ---------- ------- -- -------- ----<br>---- --- ------ ----- poised -- ---- --- ----- -- - -------<br>-------- -- --- --- -- ----- ----------- ----- -----------<br>---- --- ---------- --- ---- --- -- ----------,283136,283043,282727,282710,282743,283176,,29,poised
screen,html.Screen,1_3_1_0_1_30,2021-04-12T13:30:42.920Z,,,,,,,,,,,,,,,,51,,,,,,,,,,,,,,460,,response,,,,13,A,,,,,,Space,keypress(Space),,,,silence,,,,-------- -------- --- --- ---- --- --- ------ -- --------<br>---- --------- --- ------- ------------ ---------- ---------<br>--- ---------- ------- ---------- ------- -- -------- ----<br>---- --- ------ ----- ------ to ---- --- ----- -- - -------<br>-------- -- --- --- -- ----- ----------- ----- -----------<br>---- --- ---------- --- ---- --- -- ----------,283713,283620,283160,283136,283176,283743,,30,to
screen,html.Screen,1_3_1_0_1_31,2021-04-12T13:30:43.316Z,,,,,,,,,,,,,,,,51,,,,,,,,,,,,,,289,,response,,,,13,A,,,,,,Space,keypress(Space),,,,silence,,,,-------- -------- --- --- ---- --- --- ------ -- --------<br>---- --------- --- ------- ------------ ---------- ---------<br>--- ---------- ------- ---------- ------- -- -------- ----<br>---- --- ------ ----- ------ -- join --- ----- -- - -------<br>-------- -- --- --- -- ----- ----------- ----- -----------<br>---- --- ---------- --- ---- --- -- ----------,284109,284016,283727,283713,283743,284129,,31,join
screen,html.Screen,1_3_1_0_1_32,2021-04-12T13:30:43.748Z,,,,,,,,,,,,,,,,51,,,,,,,,,,,,,,337,,response,,,,13,A,,,,,,Space,keypress(Space),,,,silence,,,,-------- -------- --- --- ---- --- --- ------ -- --------<br>---- --------- --- ------- ------------ ---------- ---------<br>--- ---------- ------- ---------- ------- -- -------- ----<br>---- --- ------ ----- ------ -- ---- the ----- -- - -------<br>-------- -- --- --- -- ----- ----------- ----- -----------<br>---- --- ---------- --- ---- --- -- ----------,284542.00000000006,284449,284112,284109,284129,284579,,32,the
screen,html.Screen,1_3_1_0_1_33,2021-04-12T13:30:44.197Z,,,,,,,,,,,,,,,,51,,,,,,,,,,,,,,336,,response,,,,13,A,,,,,,Space,keypress(Space),,,,silence,,,,-------- -------- --- --- ---- --- --- ------ -- --------<br>---- --------- --- ------- ------------ ---------- ---------<br>--- ---------- ------- ---------- ------- -- -------- ----<br>---- --- ------ ----- ------ -- ---- --- House -- - -------<br>-------- -- --- --- -- ----- ----------- ----- -----------<br>---- --- ---------- --- ---- --- -- ----------,284990,284898,284562,284542.00000000006,284579,285028,,33,House
screen,html.Screen,1_3_1_0_1_34,2021-04-12T13:30:44.612Z,,,,,,,,,,,,,,,,51,,,,,,,,,,,,,,301,,response,,,,13,A,,,,,,Space,keypress(Space),,,,silence,,,,-------- -------- --- --- ---- --- --- ------ -- --------<br>---- --------- --- ------- ------------ ---------- ---------<br>--- ---------- ------- ---------- ------- -- -------- ----<br>---- --- ------ ----- ------ -- ---- --- ----- in - -------<br>-------- -- --- --- -- ----- ----------- ----- -----------<br>---- --- ---------- --- ---- --- -- ----------,285406,285313,285012,284991,285028,285445,,34,in
screen,html.Screen,1_3_1_0_1_35,2021-04-12T13:30:44.992Z,,,,,,,,,,,,,,,,51,,,,,,,,,,,,,,265,,response,,,,13,A,,,,,,Space,keypress(Space),,,,silence,,,,-------- -------- --- --- ---- --- --- ------ -- --------<br>---- --------- --- ------- ------------ ---------- ---------<br>--- ---------- ------- ---------- ------- -- -------- ----<br>---- --- ------ ----- ------ -- ---- --- ----- -- a -------<br>-------- -- --- --- -- ----- ----------- ----- -----------<br>---- --- ---------- --- ---- --- -- ----------,285786,285693,285428,285406,285445,285812,,35,a
screen,html.Screen,1_3_1_0_1_36,2021-04-12T13:30:45.489Z,,,,,,,,,,,,,,,,51,,,,,,,,,,,,,,394,,response,,,,13,A,,,,,,Space,keypress(Space),,,,silence,,,,-------- -------- --- --- ---- --- --- ------ -- --------<br>---- --------- --- ------- ------------ ---------- ---------<br>--- ---------- ------- ---------- ------- -- -------- ----<br>---- --- ------ ----- ------ -- ---- --- ----- -- - massive<br>-------- -- --- --- -- ----- ----------- ----- -----------<br>---- --- ---------- --- ---- --- -- ----------,286282,286189,285795,285786,285812,286312,,36,massive
screen,html.Screen,1_3_1_0_1_37,2021-04-12T13:30:45.986Z,,,,,,,,,,,,,,,,51,,,,,,,,,,,,,,390,,response,,,,13,A,,,,,,Space,keypress(Space),,,,silence,,,,-------- -------- --- --- ---- --- --- ------ -- --------<br>---- --------- --- ------- ------------ ---------- ---------<br>--- ---------- ------- ---------- ------- -- -------- ----<br>---- --- ------ ----- ------ -- ---- --- ----- -- - -------<br>overhaul -- --- --- -- ----- ----------- ----- -----------<br>---- --- ---------- --- ---- --- -- ----------,286779,286686,286296,286282,286312,286812,,37,overhaul
screen,html.Screen,1_3_1_0_1_38,2021-04-12T13:30:46.467Z,,,,,,,,,,,,,,,,51,,,,,,,,,,,,,,372,,response,,,,13,A,,,,,,Space,keypress(Space),,,,silence,,,,-------- -------- --- --- ---- --- --- ------ -- --------<br>---- --------- --- ------- ------------ ---------- ---------<br>--- ---------- ------- ---------- ------- -- -------- ----<br>---- --- ------ ----- ------ -- ---- --- ----- -- - -------<br>-------- of --- --- -- ----- ----------- ----- -----------<br>---- --- ---------- --- ---- --- -- ----------,287261,287168,286796,286779,286812,287295,,38,of
screen,html.Screen,1_3_1_0_1_39,2021-04-12T13:30:46.855Z,,,,,,,,,,,,,,,,51,,,,,,,,,,,,,,278,,response,,,,13,A,,,,,,Space,keypress(Space),,,,silence,,,,-------- -------- --- --- ---- --- --- ------ -- --------<br>---- --------- --- ------- ------------ ---------- ---------<br>--- ---------- ------- ---------- ------- -- -------- ----<br>---- --- ------ ----- ------ -- ---- --- ----- -- - -------<br>-------- -- the --- -- ----- ----------- ----- -----------<br>---- --- ---------- --- ---- --- -- ----------,287648,287556,287278,287261,287295,287679,,39,the
screen,html.Screen,1_3_1_0_1_40,2021-04-12T13:30:47.294Z,,,,,,,,,,,,,,,,51,,,,,,,,,,,,,,333,,response,,,,13,A,,,,,,Space,keypress(Space),,,,silence,,,,-------- -------- --- --- ---- --- --- ------ -- --------<br>---- --------- --- ------- ------------ ---------- ---------<br>--- ---------- ------- ---------- ------- -- -------- ----<br>---- --- ------ ----- ------ -- ---- --- ----- -- - -------<br>-------- -- --- way -- ----- ----------- ----- -----------<br>---- --- ---------- --- ---- --- -- ----------,288088,287995,287662,287648,287679,288129,,40,way
screen,html.Screen,1_3_1_0_1_41,2021-04-12T13:30:47.791Z,,,,,,,,,,,,,,,,51,,,,,,,,,,,,,,380,,response,,,,13,A,,,,,,Space,keypress(Space),,,,silence,,,,-------- -------- --- --- ---- --- --- ------ -- --------<br>---- --------- --- ------- ------------ ---------- ---------<br>--- ---------- ------- ---------- ------- -- -------- ----<br>---- --- ------ ----- ------ -- ---- --- ----- -- - -------<br>-------- -- --- --- in ----- ----------- ----- -----------<br>---- --- ---------- --- ---- --- -- ----------,288585,288492,288112,288088,288129,288612,,41,in
screen,html.Screen,1_3_1_0_1_42,2021-04-12T13:30:48.264Z,,,,,,,,,,,,,,,,51,,,,,,,,,,,,,,369,,response,,,,13,A,,,,,,Space,keypress(Space),,,,silence,,,,-------- -------- --- --- ---- --- --- ------ -- --------<br>---- --------- --- ------- ------------ ---------- ---------<br>--- ---------- ------- ---------- ------- -- -------- ----<br>---- --- ------ ----- ------ -- ---- --- ----- -- - -------<br>-------- -- --- --- -- which ----------- ----- -----------<br>---- --- ---------- --- ---- --- -- ----------,289057,288964,288595,288585,288612,289099,,42,which
screen,html.Screen,1_3_1_0_1_43,2021-04-12T13:30:49.095Z,,,,,,,,,,,,,,,,51,,,,,,,,,,,,,,713,,response,,,,13,A,,,,,,Space,keypress(Space),,,,silence,,,,-------- -------- --- --- ---- --- --- ------ -- --------<br>---- --------- --- ------- ------------ ---------- ---------<br>--- ---------- ------- ---------- ------- -- -------- ----<br>---- --- ------ ----- ------ -- ---- --- ----- -- - -------<br>-------- -- --- --- -- ----- bureaucrats ----- -----------<br>---- --- ---------- --- ---- --- -- ----------,289889,289796,289083,289057,289099,289916,,43,bureaucrats
screen,html.Screen,1_3_1_0_1_44,2021-04-12T13:30:49.664Z,,,,,,,,,,,,,,,,51,,,,,,,,,,,,,,464.0000000000582,,response,,,,13,A,,,,,,Space,keypress(Space),,,,silence,,,,-------- -------- --- --- ---- --- --- ------ -- --------<br>---- --------- --- ------- ------------ ---------- ---------<br>--- ---------- ------- ---------- ------- -- -------- ----<br>---- --- ------ ----- ------ -- ---- --- ----- -- - -------<br>-------- -- --- --- -- ----- ----------- enact -----------<br>---- --- ---------- --- ---- --- -- ----------,290457,290364.00000000006,289900,289889,289916,290499,,44,enact
screen,html.Screen,1_3_1_0_1_45,2021-04-12T13:30:50.246Z,,,,,,,,,,,,,,,,51,,,,,,,,,,,,,,464,,response,,,,13,A,,,,,,Space,keypress(Space),,,,silence,,,,-------- -------- --- --- ---- --- --- ------ -- --------<br>---- --------- --- ------- ------------ ---------- ---------<br>--- ---------- ------- ---------- ------- -- -------- ----<br>---- --- ------ ----- ------ -- ---- --- ----- -- - -------<br>-------- -- --- --- -- ----- ----------- ----- regulations<br>---- --- ---------- --- ---- --- -- ----------,291040,290947,290483,290457,290499,291083,,45,regulations
screen,html.Screen,1_3_1_0_1_46,2021-04-12T13:30:50.739Z,,,,,,,,,,,,,,,,51,,,,,,,,,,,,,,374,,response,,,,13,A,,,,,,Space,keypress(Space),,,,silence,,,,-------- -------- --- --- ---- --- --- ------ -- --------<br>---- --------- --- ------- ------------ ---------- ---------<br>--- ---------- ------- ---------- ------- -- -------- ----<br>---- --- ------ ----- ------ -- ---- --- ----- -- - -------<br>-------- -- --- --- -- ----- ----------- ----- -----------<br>that --- ---------- --- ---- --- -- ----------,291533,291440,291066,291040,291083,291566,,46,that
screen,html.Screen,1_3_1_0_1_47,2021-04-12T13:30:51.125Z,,,,,,,,,,,,,,,,51,,,,,,,,,,,,,,275,,response,,,,13,A,,,,,,Space,keypress(Space),,,,silence,,,,-------- -------- --- --- ---- --- --- ------ -- --------<br>---- --------- --- ------- ------------ ---------- ---------<br>--- ---------- ------- ---------- ------- -- -------- ----<br>---- --- ------ ----- ------ -- ---- --- ----- -- - -------<br>-------- -- --- --- -- ----- ----------- ----- -----------<br>---- are ---------- --- ---- --- -- ----------,291918,291825,291550,291533,291566,291949,,47,are
screen,html.Screen,1_3_1_0_1_48,2021-04-12T13:30:51.683Z,,,,,,,,,,,,,,,,51,,,,,,,,,,,,,,452,,response,,,,13,A,,,,,,Space,keypress(Space),,,,silence,,,,-------- -------- --- --- ---- --- --- ------ -- --------<br>---- --------- --- ------- ------------ ---------- ---------<br>--- ---------- ------- ---------- ------- -- -------- ----<br>---- --- ------ ----- ------ -- ---- --- ----- -- - -------<br>-------- -- --- --- -- ----- ----------- ----- -----------<br>---- --- strangling --- ---- --- -- ----------,292477.00000000006,292384,291932,291918,291949,292516,,48,strangling
screen,html.Screen,1_3_1_0_1_49,2021-04-12T13:30:52.116Z,,,,,,,,,,,,,,,,51,,,,,,,,,,,,,,317,,response,,,,13,A,,,,,,Space,keypress(Space),,,,silence,,,,-------- -------- --- --- ---- --- --- ------ -- --------<br>---- --------- --- ------- ------------ ---------- ---------<br>--- ---------- ------- ---------- ------- -- -------- ----<br>---- --- ------ ----- ------ -- ---- --- ----- -- - -------<br>-------- -- --- --- -- ----- ----------- ----- -----------<br>---- --- ---------- the ---- --- -- ----------,292910,292817,292500,292477.00000000006,292516,292949,,49,the
screen,html.Screen,1_3_1_0_1_50,2021-04-12T13:30:52.739Z,,,,,,,,,,,,,,,,51,,,,,,,,,,,,,,508,,response,,,,13,A,,,,,,Space,keypress(Space),,,,silence,,,,-------- -------- --- --- ---- --- --- ------ -- --------<br>---- --------- --- ------- ------------ ---------- ---------<br>--- ---------- ------- ---------- ------- -- -------- ----<br>---- --- ------ ----- ------ -- ---- --- ----- -- - -------<br>-------- -- --- --- -- ----- ----------- ----- -----------<br>---- --- ---------- --- life --- -- ----------,293532,293440,292932,292910,292949,293566,,50,life
screen,html.Screen,1_3_1_0_1_51,2021-04-12T13:30:53.094Z,,,,,,,,,,,,,,,,51,,,,,,,,,,,,,,246,,response,,,,13,A,,,,,,Space,keypress(Space),,,,silence,,,,-------- -------- --- --- ---- --- --- ------ -- --------<br>---- --------- --- ------- ------------ ---------- ---------<br>--- ---------- ------- ---------- ------- -- -------- ----<br>---- --- ------ ----- ------ -- ---- --- ----- -- - -------<br>-------- -- --- --- -- ----- ----------- ----- -----------<br>---- --- ---------- --- ---- out -- ----------,293888.00000000006,293795,293549,293532,293566,293920,,51,out
screen,html.Screen,1_3_1_0_1_52,2021-04-12T13:30:53.493Z,,,,,,,,,,,,,,,,51,,,,,,,,,,,,,,291,,response,,,,13,A,,,,,,Space,keypress(Space),,,,silence,,,,-------- -------- --- --- ---- --- --- ------ -- --------<br>---- --------- --- ------- ------------ ---------- ---------<br>--- ---------- ------- ---------- ------- -- -------- ----<br>---- --- ------ ----- ------ -- ---- --- ----- -- - -------<br>-------- -- --- --- -- ----- ----------- ----- -----------<br>---- --- ---------- --- ---- --- of ----------,294286,294194,293903,293888.00000000006,293920,294319,,52,of
screen,html.Screen,1_3_1_0_1_53,2021-04-12T13:30:53.983Z,,,,,,,,,,,,,,,,51,,,,,,,,,,,,,,382,,response,,,,13,A,,,,,,Space,keypress(Space),,,,silence,,,,-------- -------- --- --- ---- --- --- ------ -- --------<br>---- --------- --- ------- ------------ ---------- ---------<br>--- ---------- ------- ---------- ------- -- -------- ----<br>---- --- ------ ----- ------ -- ---- --- ----- -- - -------<br>-------- -- --- --- -- ----- ----------- ----- -----------<br>---- --- ---------- --- ---- --- -- companies.,294777,294684,294302,294286,294319,294819,,53,companies.
Item 13,flow.Loop,1_3_1_0_1,2021-04-12T13:30:53.984Z,,,,,,,,,,,,,,,,,,,,,,,,,,,,,,27001,,completion,,,,,,,,,,,,,,,,,,,,,294777,294684,267667,267668,267683,294819,,,
Question 1,html.Screen,1_3_1_0_2,2021-04-12T13:30:59.193Z,,,,,,,,,,,,,,,,,,,,,,,,,,,true,FALSE,,5089,,response,,,,13,A,,,,,,FALSE,click #choice-2,,,,silence,,,,,299987,299892,294803,294777,294819,300005,,,
Question 2,html.Screen,1_3_1_0_3,2021-04-12T13:31:04.413Z,,,,,,,,,,,,,,,,,,,,,,,,,,,true,TRUE,,5124.000000000058,,response,,,,13,A,,,,,,TRUE,click #choice-1,,,,silence,,,,,305207,305114.00000000006,299990,299987,300005,305226,,,
Item 13,flow.Sequence,1_3_1_0,2021-04-12T13:31:04.414Z,,,,,,,,,,,,,,,,,,,,,,,,,,,,,,44434.00000000006,,completion,,,,,,,,,,,,,,,,,,,,,305207,305114.00000000006,260663,260664,260680,305226,,,
Holding screen,html.Screen,1_3_1_1_0,2021-04-12T13:31:11.419Z,,,,,,,,,,,,,,,,,,,,,,,,,,,,,,7003,,timeout,,,,,,,,,,,,,,,,,,,,,312213,312212,305209,305207,305226,312229,,,
screen,html.Screen,1_3_1_1_1_0,2021-04-12T13:31:13.121Z,,,,,,,,,,,,,,,,15,,,,,,,,,,,,,,1610,,response,,,,7,A,,,,,,Space,keypress(Space),,,,silence,,,,Greg --------- ---------- - --- ------- -- --- ------------<br>----- -- -------- ------- ---- ------ - -------- ---- -----<br>--- ------- ---- -- --- -------- --- - ----- ------ ---- --<br>-------- --- -------- -------- --- -------- ---- -- ----- -<br>-------- ---- --- ---------- --------- -- ------- ------ -<br>--------- ----- -----,313915,313822,312212,312213,312229,313950,,0,Greg
