sender,sender_type,sender_id,timestamp,meta,,Blues,Classical,Country,Dance,Electronic,Folk,Gospel,Hip-Hop,Jazz,Latin,Musical/Film,New-age,Pop,Provo_ID,R&B,Rap,Reggae,Religious,Rock,Soul,Swing,Traditional,age,artist_name,correct,correctResponse,distraction,duration,ended_on,familiarity,gender,headphone_check_performance,item,list,offensiveness,pleasantness,position_correct,preference,response,response_action,snippet_file,song_name,song_rating,sound,stimulus_1,stimulus_2,stimulus_3,text,time_commit,time_end,time_render,time_run,time_show,time_switch,url,word,word_ID
Introduction,html.Screen,0_0,2021-03-26T16:13:24.556Z,"{""labjs_version"":""20.2.2"",""labjs_build"":{""flavor"":""production"",""commit"":""a25486e0c714a0ae2ce03ff94b7bb6896854dcfa""},""location"":""https://run.pavlovia.org/mvasilev/music_a/"",""userAgent"":""Mozilla/5.0 (Macintosh; Intel Mac OS X 10_15_6) AppleWebKit/605.1.15 (KHTML, like Gecko) Version/14.0.3 Safari/605.1.15"",""platform"":""MacIntel"",""language"":""en-gb"",""locale"":""en-GB"",""timeZone"":""Europe/London"",""timezoneOffset"":0,""screen_width"":1440,""screen_height"":900,""scroll_width"":1440,""scroll_height"":642,""window_innerWidth"":1440,""window_innerHeight"":690,""devicePixelRatio"":1}",,,,,,,,,,,,,,,,,,,,,,,,,,,,,123266,response,,,,,,,,,,continue,click button,,,,,,,,,132863,132829,9563,9541,9584,132892,{},,
Volume calibration,html.Screen,0_1,2021-03-26T16:13:36.712Z,,,,,,,,,,,,,,,,,,,,,,,,,,,,,,12110,response,,,,,,,,,,continue,click button,,,,,,,,,145018,144985,132875,132863,132892,145040,,,
Task instructions,html.Screen,0_2,2021-03-26T16:13:46.070Z,,,,,,,,,,,,,,,,,,,,,,,,,,,,,,9319,response,,,,,,,,,,continue,click button,,,,,,,,,154375,154343,145024,145018,145040,154400,,,
Sounds,html.Screen,0_3_0_0,2021-03-26T16:13:50.322Z,,,,,,,,,,,,,,,,,,,,,,,,,,,,,,4243,timeout,,,,,,,,1,,,,,,,,S,O,I,,158628,158627,154382,154376,154400,158643,,,
Judgement,html.Screen,0_3_0_1,2021-03-26T16:13:52.884Z,,,,,,,,,,,,,,,,,,,,,,,,,,,true,1,,2531.000000000029,response,,,,,,,,1,,1,click #choice-1,,,,,S,O,I,,161190,161158.00000000003,158627,158628,158643,161217,,,
Trial,flow.Sequence,0_3_0,2021-03-26T16:13:52.885Z,,,,,,,,,,,,,,,,,,,,,,,,,,,,,,6758.000000000029,completion,,,,,,,,1,,,,,,,,S,O,I,,161191,161158.00000000003,154382,154376,154400,161217,,,
Sounds,html.Screen,0_3_1_0,2021-03-26T16:13:57.140Z,,,,,,,,,,,,,,,,,,,,,,,,,,,,,,4244,timeout,,,,,,,,2,,,,,,,,O,S,I,,165445,165445,161200,161191,161217,165461,,,
Judgement,html.Screen,0_3_1_1,2021-03-26T16:13:57.961Z,,,,,,,,,,,,,,,,,,,,,,,,,,,true,2,,789,response,,,,,,,,2,,2,click #choice-2,,,,,O,S,I,,166266,166234,165445,165445,165461,166298,,,
Trial,flow.Sequence,0_3_1,2021-03-26T16:13:57.961Z,,,,,,,,,,,,,,,,,,,,,,,,,,,,,,5017,completion,,,,,,,,2,,,,,,,,O,S,I,,166267,166234,161200,161191,161217,166298,,,
Sounds,html.Screen,0_3_2_0,2021-03-26T16:14:02.220Z,,,,,,,,,,,,,,,,,,,,,,,,,,,,,,4244,timeout,,,,,,,,1,,,,,,,,S,I,O,,170525,170525,166280,166267,166298,170542,,,
Judgement,html.Screen,0_3_2_1,2021-03-26T16:14:02.874Z,,,,,,,,,,,,,,,,,,,,,,,,,,,true,1,,622,response,,,,,,,,1,,1,click #choice-1,,,,,S,I,O,,171179,171147,170525,170526,170542,171211,,,
Trial,flow.Sequence,0_3_2,2021-03-26T16:14:02.874Z,,,,,,,,,,,,,,,,,,,,,,,,,,,,,,4849,completion,,,,,,,,1,,,,,,,,S,I,O,,171179,171147,166280,166267,166298,171211,,,
Sounds,html.Screen,0_3_3_0,2021-03-26T16:14:07.134Z,,,,,,,,,,,,,,,,,,,,,,,,,,,,,,4244,timeout,,,,,,,,2,,,,,,,,I,S,O,,175439,175438,171194,171180,171211,175455,,,
Judgement,html.Screen,0_3_3_1,2021-03-26T16:14:07.623Z,,,,,,,,,,,,,,,,,,,,,,,,,,,true,2,,457,response,,,,,,,,2,,2,click #choice-2,,,,,I,S,O,,175928,175895,175438,175439,175455,175958,,,
Trial,flow.Sequence,0_3_3,2021-03-26T16:14:07.623Z,,,,,,,,,,,,,,,,,,,,,,,,,,,,,,4684,completion,,,,,,,,2,,,,,,,,I,S,O,,175928,175895,171194,171180,171211,175958,,,
Sounds,html.Screen,0_3_4_0,2021-03-26T16:14:11.879Z,,,,,,,,,,,,,,,,,,,,,,,,,,,,,,4243,timeout,,,,,,,,3,,,,,,,,I,O,S,,180184,180184,175941,175928,175958,180201,,,
Judgement,html.Screen,0_3_4_1,2021-03-26T16:14:12.333Z,,,,,,,,,,,,,,,,,,,,,,,,,,,true,3,,421,response,,,,,,,,3,,3,click #choice-3,,,,,I,O,S,,180638,180605,180184,180185,180201,180669,,,
Trial,flow.Sequence,0_3_4,2021-03-26T16:14:12.334Z,,,,,,,,,,,,,,,,,,,,,,,,,,,,,,4647,completion,,,,,,,,3,,,,,,,,I,O,S,,180639,180605,175941,175928,175958,180669,,,
Sounds,html.Screen,0_3_5_0,2021-03-26T16:14:16.592Z,,,,,,,,,,,,,,,,,,,,,,,,,,,,,,4245,timeout,,,,,,,,3,,,,,,,,O,I,S,,184897,184897,180652,180639,180669,184914,,,
Judgement,html.Screen,0_3_5_1,2021-03-26T16:14:17.155Z,,,,,,,,,,,,,,,,,,,,,,,,,,,true,3,,530,response,,,,,,,,3,,3,click #choice-3,,,,,O,I,S,,185460,185427,184897,184897,184914,185482,,,
Trial,flow.Sequence,0_3_5,2021-03-26T16:14:17.156Z,,,,,,,,,,,,,,,,,,,,,,,,,,,,,,4758,completion,,,,,,,,3,,,,,,,,O,I,S,,185461,185427,180652,180639,180669,185482,,,
Task,flow.Loop,0_3,2021-03-26T16:14:17.158Z,,,,,,,,,,,,,,,,,,,,,,,,,,,,,,31027,completion,,,1,,,,,,,,,,,,,,,,,185463,185427,154382,154376,154400,185482,,,
Trap,html.Screen,0_4,2021-03-26T16:14:17.159Z,,,,,,,,,,,,,,,,,,,,,,,,,,,,,,NaN,skipped,,,,,,,,,,,,,,,,,,,,185464,185427,,185464,,185482,,,
Thanks,html.Screen,0_5,2021-03-26T16:14:21.454Z,,,,,,,,,,,,,,,,,,,,,,,,,,,,,,4259,response,,,,,,,,,,continue,click button,,,,,,,,,189758,189725,185466,185464,185482,193068,,,
Headphone screening,flow.Sequence,0,2021-03-26T16:14:21.454Z,,,,,,,,,,,,,,,,,,,,,,,,,,,,,,180141,completion,,,,,,,,,,,,,,,,,,,,189759,189725,9563,9541,9584,193068,,,
Instructions,html.Page,1_0,2021-03-26T16:14:48.163Z,,,,,,,,,,,,,,,,,,,,,,,,,,,,,,23398,form submission,,,,,,,,,,,,,,,,,,,,216467,216466,193058,193043,193068,216499,,,
Holding screen,html.Screen,1_1_0_0,2021-03-26T16:14:55.181Z,,,,,,,,,,,,,,,,,,,,,,,,,,,,,,7008,timeout,,,,,,,,,,,,,,,,,,,,223485,223484,216482,216467,216499,223507,,,
screen,html.Screen,1_1_0_1_0,2021-03-26T16:14:56.055Z,,,,,,,,,,,,,,,,53,,,,,,,,,,,,,,838,response,,,,99,,,,,,Space,keypress(Space),,,,,,,,When -- ----- -- ------ - ------- --- ----------<br>------------- ------ ------ ---- ---- ------- ----- -- ----<br>-------- ------- -- ---------- --- - --- ----- ----- ----<br>---- --- --- ----- --- ---- ---- ------- ----- ---- -------<br>--- --- -- ----- -- --- ---- -- --- ---- -- ------ ------<br>--- ----- -- ----,224359,224322,223484,223485,223507,224387,,0,When
screen,html.Screen,1_1_0_1_1,2021-03-26T16:14:56.496Z,,,,,,,,,,,,,,,,53,,,,,,,,,,,,,,394,response,,,,99,,,,,,Space,keypress(Space),,,,,,,,---- it ----- -- ------ - ------- --- ----------<br>------------- ------ ------ ---- ---- ------- ----- -- ----<br>-------- ------- -- ---------- --- - --- ----- ----- ----<br>---- --- --- ----- --- ---- ---- ------- ----- ---- -------<br>--- --- -- ----- -- --- ---- -- --- ---- -- ------ ------<br>--- ----- -- ----,224800,224764,224370,224359,224387,224837,,1,it
screen,html.Screen,1_1_0_1_2,2021-03-26T16:14:57.047Z,,,,,,,,,,,,,,,,53,,,,,,,,,,,,,,494,response,,,,99,,,,,,Space,keypress(Space),,,,,,,,---- -- comes -- ------ - ------- --- ----------<br>------------- ------ ------ ---- ---- ------- ----- -- ----<br>-------- ------- -- ---------- --- - --- ----- ----- ----<br>---- --- --- ----- --- ---- ---- ------- ----- ---- -------<br>--- --- -- ----- -- --- ---- -- --- ---- -- ------ ------<br>--- ----- -- ----,225351,225315,224821,224800,224837,225389,,2,comes
screen,html.Screen,1_1_0_1_3,2021-03-26T16:14:57.556Z,,,,,,,,,,,,,,,,53,,,,,,,,,,,,,,451,response,,,,99,,,,,,Space,keypress(Space),,,,,,,,---- -- ----- to ------ - ------- --- ----------<br>------------- ------ ------ ---- ---- ------- ----- -- ----<br>-------- ------- -- ---------- --- - --- ----- ----- ----<br>---- --- --- ----- --- ---- ---- ------- ----- ---- -------<br>--- --- -- ----- -- --- ---- -- --- ---- -- ------ ------<br>--- ----- -- ----,225860,225824,225373,225351,225389,225891,,3,to
screen,html.Screen,1_1_0_1_4,2021-03-26T16:14:58.046Z,,,,,,,,,,,,,,,,53,,,,,,,,,,,,,,439.0000000000291,response,,,,99,,,,,,Space,keypress(Space),,,,,,,,---- -- ----- -- having - ------- --- ----------<br>------------- ------ ------ ---- ---- ------- ----- -- ----<br>-------- ------- -- ---------- --- - --- ----- ----- ----<br>---- --- --- ----- --- ---- ---- ------- ----- ---- -------<br>--- --- -- ----- -- --- ---- -- --- ---- -- ------ ------<br>--- ----- -- ----,226349.00000000003,226313.00000000003,225874,225860,225891,226392,,4,having
screen,html.Screen,1_1_0_1_5,2021-03-26T16:14:58.489Z,,,,,,,,,,,,,,,,53,,,,,,,,,,,,,,381,response,,,,99,,,,,,Space,keypress(Space),,,,,,,,---- -- ----- -- ------ a ------- --- ----------<br>------------- ------ ------ ---- ---- ------- ----- -- ----<br>-------- ------- -- ---------- --- - --- ----- ----- ----<br>---- --- --- ----- --- ---- ---- ------- ----- ---- -------<br>--- --- -- ----- -- --- ---- -- --- ---- -- ------ ------<br>--- ----- -- ----,226792,226756,226375,226350,226392,226826,,5,a
screen,html.Screen,1_1_0_1_6,2021-03-26T16:14:59.014Z,,,,,,,,,,,,,,,,53,,,,,,,,,,,,,,472,response,,,,99,,,,,,Space,keypress(Space),,,,,,,,---- -- ----- -- ------ - lasting --- ----------<br>------------- ------ ------ ---- ---- ------- ----- -- ----<br>-------- ------- -- ---------- --- - --- ----- ----- ----<br>---- --- --- ----- --- ---- ---- ------- ----- ---- -------<br>--- --- -- ----- -- --- ---- -- --- ---- -- ------ ------<br>--- ----- -- ----,227318,227282,226810,226792,226826,227360,,6,lasting
screen,html.Screen,1_1_0_1_7,2021-03-26T16:14:59.729Z,,,,,,,,,,,,,,,,53,,,,,,,,,,,,,,653,response,,,,99,,,,,,Space,keypress(Space),,,,,,,,---- -- ----- -- ------ - ------- and ----------<br>------------- ------ ------ ---- ---- ------- ----- -- ----<br>-------- ------- -- ---------- --- - --- ----- ----- ----<br>---- --- --- ----- --- ---- ---- ------- ----- ---- -------<br>--- --- -- ----- -- --- ---- -- --- ---- -- ------ ------<br>--- ----- -- ----,228033.00000000003,227997,227344,227318,227360,228063,,7,and
screen,html.Screen,1_1_0_1_8,2021-03-26T16:15:00.320Z,,,,,,,,,,,,,,,,53,,,,,,,,,,,,,,543,response,,,,99,,,,,,Space,keypress(Space),,,,,,,,---- -- ----- -- ------ - ------- --- fulfilling<br>------------- ------ ------ ---- ---- ------- ----- -- ----<br>-------- ------- -- ---------- --- - --- ----- ----- ----<br>---- --- --- ----- --- ---- ---- ------- ----- ---- -------<br>--- --- -- ----- -- --- ---- -- --- ---- -- ------ ------<br>--- ----- -- ----,228624,228588,228045,228033.00000000003,228063,228664,,8,fulfilling
screen,html.Screen,1_1_0_1_9,2021-03-26T16:15:00.891Z,,,,,,,,,,,,,,,,53,,,,,,,,,,,,,,512,response,,,,99,,,,,,Space,keypress(Space),,,,,,,,"---- -- ----- -- ------ - ------- --- ----------<br>relationship, ------ ------ ---- ---- ------- ----- -- ----<br>-------- ------- -- ---------- --- - --- ----- ----- ----<br>---- --- --- ----- --- ---- ---- ------- ----- ---- -------<br>--- --- -- ----- -- --- ---- -- --- ---- -- ------ ------<br>--- ----- -- ----",229195,229159,228647,228624,228664,229232,,9,"relationship,"
screen,html.Screen,1_1_0_1_10,2021-03-26T16:15:01.375Z,,,,,,,,,,,,,,,,53,,,,,,,,,,,,,,426,response,,,,99,,,,,,Space,keypress(Space),,,,,,,,---- -- ----- -- ------ - ------- --- ----------<br>------------- common ------ ---- ---- ------- ----- -- ----<br>-------- ------- -- ---------- --- - --- ----- ----- ----<br>---- --- --- ----- --- ---- ---- ------- ----- ---- -------<br>--- --- -- ----- -- --- ---- -- --- ---- -- ------ ------<br>--- ----- -- ----,229679,229642,229216,229195,229232,229717,,10,common
screen,html.Screen,1_1_0_1_11,2021-03-26T16:15:02.019Z,,,,,,,,,,,,,,,,53,,,,,,,,,,,,,,586,response,,,,99,,,,,,Space,keypress(Space),,,,,,,,---- -- ----- -- ------ - ------- --- ----------<br>------------- ------ wisdom ---- ---- ------- ----- -- ----<br>-------- ------- -- ---------- --- - --- ----- ----- ----<br>---- --- --- ----- --- ---- ---- ------- ----- ---- -------<br>--- --- -- ----- -- --- ---- -- --- ---- -- ------ ------<br>--- ----- -- ----,230323,230287,229701,229679,229717,230352,,11,wisdom
screen,html.Screen,1_1_0_1_12,2021-03-26T16:15:02.596Z,,,,,,,,,,,,,,,,53,,,,,,,,,,,,,,528,response,,,,99,,,,,,Space,keypress(Space),,,,,,,,---- -- ----- -- ------ - ------- --- ----------<br>------------- ------ ------ says ---- ------- ----- -- ----<br>-------- ------- -- ---------- --- - --- ----- ----- ----<br>---- --- --- ----- --- ---- ---- ------- ----- ---- -------<br>--- --- -- ----- -- --- ---- -- --- ---- -- ------ ------<br>--- ----- -- ----,230900,230864,230336,230323,230352,230937,,12,says
screen,html.Screen,1_1_0_1_13,2021-03-26T16:15:03.096Z,,,,,,,,,,,,,,,,53,,,,,,,,,,,,,,443,response,,,,99,,,,,,Space,keypress(Space),,,,,,,,---- -- ----- -- ------ - ------- --- ----------<br>------------- ------ ------ ---- that ------- ----- -- ----<br>-------- ------- -- ---------- --- - --- ----- ----- ----<br>---- --- --- ----- --- ---- ---- ------- ----- ---- -------<br>--- --- -- ----- -- --- ---- -- --- ---- -- ------ ------<br>--- ----- -- ----,231400,231363,230920,230900,230937,231439,,13,that
screen,html.Screen,1_1_0_1_14,2021-03-26T16:15:03.614Z,,,,,,,,,,,,,,,,53,,,,,,,,,,,,,,459,response,,,,99,,,,,,Space,keypress(Space),,,,,,,,---- -- ----- -- ------ - ------- --- ----------<br>------------- ------ ------ ---- ---- feeling ----- -- ----<br>-------- ------- -- ---------- --- - --- ----- ----- ----<br>---- --- --- ----- --- ---- ---- ------- ----- ---- -------<br>--- --- -- ----- -- --- ---- -- --- ---- -- ------ ------<br>--- ----- -- ----,231918,231881,231422,231400,231439,231957,,14,feeling
screen,html.Screen,1_1_0_1_15,2021-03-26T16:15:04.028Z,,,,,,,,,,,,,,,,53,,,,,,,,,,,,,,356.0000000000291,response,,,,99,,,,,,Space,keypress(Space),,,,,,,,---- -- ----- -- ------ - ------- --- ----------<br>------------- ------ ------ ---- ---- ------- close -- ----<br>-------- ------- -- ---------- --- - --- ----- ----- ----<br>---- --- --- ----- --- ---- ---- ------- ----- ---- -------<br>--- --- -- ----- -- --- ---- -- --- ---- -- ------ ------<br>--- ----- -- ----,232331.00000000003,232295.00000000003,231939,231918,231957,232373,,15,close
screen,html.Screen,1_1_0_1_16,2021-03-26T16:15:04.490Z,,,,,,,,,,,,,,,,53,,,,,,,,,,,,,,400,response,,,,99,,,,,,Space,keypress(Space),,,,,,,,---- -- ----- -- ------ - ------- --- ----------<br>------------- ------ ------ ---- ---- ------- ----- to ----<br>-------- ------- -- ---------- --- - --- ----- ----- ----<br>---- --- --- ----- --- ---- ---- ------- ----- ---- -------<br>--- --- -- ----- -- --- ---- -- --- ---- -- ------ ------<br>--- ----- -- ----,232794,232757,232357,232332,232373,232826,,16,to
screen,html.Screen,1_1_0_1_17,2021-03-26T16:15:05.020Z,,,,,,,,,,,,,,,,53,,,,,,,,,,,,,,479,response,,,,99,,,,,,Space,keypress(Space),,,,,,,,---- -- ----- -- ------ - ------- --- ----------<br>------------- ------ ------ ---- ---- ------- ----- -- your<br>-------- ------- -- ---------- --- - --- ----- ----- ----<br>---- --- --- ----- --- ---- ---- ------- ----- ---- -------<br>--- --- -- ----- -- --- ---- -- --- ---- -- ------ ------<br>--- ----- -- ----,233324,233287,232808,232794,232826,233360,,17,your
screen,html.Screen,1_1_0_1_18,2021-03-26T16:15:05.474Z,,,,,,,,,,,,,,,,53,,,,,,,,,,,,,,397,response,,,,99,,,,,,Space,keypress(Space),,,,,,,,---- -- ----- -- ------ - ------- --- ----------<br>------------- ------ ------ ---- ---- ------- ----- -- ----<br>romantic ------- -- ---------- --- - --- ----- ----- ----<br>---- --- --- ----- --- ---- ---- ------- ----- ---- -------<br>--- --- -- ----- -- --- ---- -- --- ---- -- ------ ------<br>--- ----- -- ----,233777.00000000003,233741,233344,233324,233360,233811,,18,romantic
screen,html.Screen,1_1_0_1_19,2021-03-26T16:15:05.934Z,,,,,,,,,,,,,,,,53,,,,,,,,,,,,,,406,response,,,,99,,,,,,Space,keypress(Space),,,,,,,,---- -- ----- -- ------ - ------- --- ----------<br>------------- ------ ------ ---- ---- ------- ----- -- ----<br>-------- partner -- ---------- --- - --- ----- ----- ----<br>---- --- --- ----- --- ---- ---- ------- ----- ---- -------<br>--- --- -- ----- -- --- ---- -- --- ---- -- ------ ------<br>--- ----- -- ----,234238,234201,233795,233777.00000000003,233811,234279,,19,partner
screen,html.Screen,1_1_0_1_20,2021-03-26T16:15:06.477Z,,,,,,,,,,,,,,,,53,,,,,,,,,,,,,,481,response,,,,99,,,,,,Space,keypress(Space),,,,,,,,---- -- ----- -- ------ - ------- --- ----------<br>------------- ------ ------ ---- ---- ------- ----- -- ----<br>-------- ------- is ---------- --- - --- ----- ----- ----<br>---- --- --- ----- --- ---- ---- ------- ----- ---- -------<br>--- --- -- ----- -- --- ---- -- --- ---- -- ------ ------<br>--- ----- -- ----,234780,234744,234263,234238,234279,234813,,20,is
screen,html.Screen,1_1_0_1_21,2021-03-26T16:15:06.909Z,,,,,,,,,,,,,,,,53,,,,,,,,,,,,,,379.0000000000291,response,,,,99,,,,,,Space,keypress(Space),,,,,,,,---- -- ----- -- ------ - ------- --- ----------<br>------------- ------ ------ ---- ---- ------- ----- -- ----<br>-------- ------- -- paramount. --- - --- ----- ----- ----<br>---- --- --- ----- --- ---- ---- ------- ----- ---- -------<br>--- --- -- ----- -- --- ---- -- --- ---- -- ------ ------<br>--- ----- -- ----,235212.00000000003,235176.00000000003,234797,234780,234813,235248,,21,paramount.
screen,html.Screen,1_1_0_1_22,2021-03-26T16:15:07.391Z,,,,,,,,,,,,,,,,53,,,,,,,,,,,,,,426.0000000000291,response,,,,99,,,,,,Space,keypress(Space),,,,,,,,---- -- ----- -- ------ - ------- --- ----------<br>------------- ------ ------ ---- ---- ------- ----- -- ----<br>-------- ------- -- ---------- But - --- ----- ----- ----<br>---- --- --- ----- --- ---- ---- ------- ----- ---- -------<br>--- --- -- ----- -- --- ---- -- --- ---- -- ------ ------<br>--- ----- -- ----,235694.00000000003,235658.00000000003,235232,235213,235248,235733,,22,But
screen,html.Screen,1_1_0_1_23,2021-03-26T16:15:07.834Z,,,,,,,,,,,,,,,,53,,,,,,,,,,,,,,384,response,,,,99,,,,,,Space,keypress(Space),,,,,,,,---- -- ----- -- ------ - ------- --- ----------<br>------------- ------ ------ ---- ---- ------- ----- -- ----<br>-------- ------- -- ---------- --- a --- ----- ----- ----<br>---- --- --- ----- --- ---- ---- ------- ----- ---- -------<br>--- --- -- ----- -- --- ---- -- --- ---- -- ------ ------<br>--- ----- -- ----,236137,236101,235717,235694.00000000003,235733,236168,,23,a
screen,html.Screen,1_1_0_1_24,2021-03-26T16:15:08.319Z,,,,,,,,,,,,,,,,53,,,,,,,,,,,,,,435,response,,,,99,,,,,,Space,keypress(Space),,,,,,,,---- -- ----- -- ------ - ------- --- ----------<br>------------- ------ ------ ---- ---- ------- ----- -- ----<br>-------- ------- -- ---------- --- - new ----- ----- ----<br>---- --- --- ----- --- ---- ---- ------- ----- ---- -------<br>--- --- -- ----- -- --- ---- -- --- ---- -- ------ ------<br>--- ----- -- ----,236622,236586,236151,236138,236168,236652,,24,new
screen,html.Screen,1_1_0_1_25,2021-03-26T16:15:08.744Z,,,,,,,,,,,,,,,,53,,,,,,,,,,,,,,376,response,,,,99,,,,,,Space,keypress(Space),,,,,,,,---- -- ----- -- ------ - ------- --- ----------<br>------------- ------ ------ ---- ---- ------- ----- -- ----<br>-------- ------- -- ---------- --- - --- study ----- ----<br>---- --- --- ----- --- ---- ---- ------- ----- ---- -------<br>--- --- -- ----- -- --- ---- -- --- ---- -- ------ ------<br>--- ----- -- ----,237047,237011,236635,236622,236652,237087,,25,study
screen,html.Screen,1_1_0_1_26,2021-03-26T16:15:09.175Z,,,,,,,,,,,,,,,,53,,,,,,,,,,,,,,372,response,,,,99,,,,,,Space,keypress(Space),,,,,,,,---- -- ----- -- ------ - ------- --- ----------<br>------------- ------ ------ ---- ---- ------- ----- -- ----<br>-------- ------- -- ---------- --- - --- ----- finds ----<br>---- --- --- ----- --- ---- ---- ------- ----- ---- -------<br>--- --- -- ----- -- --- ---- -- --- ---- -- ------ ------<br>--- ----- -- ----,237478,237442,237070,237048,237087,237522,,26,finds
screen,html.Screen,1_1_0_1_27,2021-03-26T16:15:09.648Z,,,,,,,,,,,,,,,,53,,,,,,,,,,,,,,411,response,,,,99,,,,,,Space,keypress(Space),,,,,,,,---- -- ----- -- ------ - ------- --- ----------<br>------------- ------ ------ ---- ---- ------- ----- -- ----<br>-------- ------- -- ---------- --- - --- ----- ----- that<br>---- --- --- ----- --- ---- ---- ------- ----- ---- -------<br>--- --- -- ----- -- --- ---- -- --- ---- -- ------ ------<br>--- ----- -- ----,237952,237915,237504,237478,237522,237989,,27,that
screen,html.Screen,1_1_0_1_28,2021-03-26T16:15:10.196Z,,,,,,,,,,,,,,,,53,,,,,,,,,,,,,,490,response,,,,99,,,,,,Space,keypress(Space),,,,,,,,---- -- ----- -- ------ - ------- --- ----------<br>------------- ------ ------ ---- ---- ------- ----- -- ----<br>-------- ------- -- ---------- --- - --- ----- ----- ----<br>it's --- --- ----- --- ---- ---- ------- ----- ---- -------<br>--- --- -- ----- -- --- ---- -- --- ---- -- ------ ------<br>--- ----- -- ----,238500,238463,237973,237952,237989,238541,,28,it's
screen,html.Screen,1_1_0_1_29,2021-03-26T16:15:10.683Z,,,,,,,,,,,,,,,,53,,,,,,,,,,,,,,426.0000000000291,response,,,,99,,,,,,Space,keypress(Space),,,,,,,,---- -- ----- -- ------ - ------- --- ----------<br>------------- ------ ------ ---- ---- ------- ----- -- ----<br>-------- ------- -- ---------- --- - --- ----- ----- ----<br>---- not --- ----- --- ---- ---- ------- ----- ---- -------<br>--- --- -- ----- -- --- ---- -- --- ---- -- ------ ------<br>--- ----- -- ----,238986.00000000003,238950.00000000003,238524,238500,238541,239025,,29,not
screen,html.Screen,1_1_0_1_30,2021-03-26T16:15:11.102Z,,,,,,,,,,,,,,,,53,,,,,,,,,,,,,,361,response,,,,99,,,,,,Space,keypress(Space),,,,,,,,---- -- ----- -- ------ - ------- --- ----------<br>------------- ------ ------ ---- ---- ------- ----- -- ----<br>-------- ------- -- ---------- --- - --- ----- ----- ----<br>---- --- how ----- --- ---- ---- ------- ----- ---- -------<br>--- --- -- ----- -- --- ---- -- --- ---- -- ------ ------<br>--- ----- -- ----,239405,239369,239008,238987,239025,239442,,30,how
screen,html.Screen,1_1_0_1_31,2021-03-26T16:15:11.534Z,,,,,,,,,,,,,,,,53,,,,,,,,,,,,,,374.0000000000291,response,,,,99,,,,,,Space,keypress(Space),,,,,,,,---- -- ----- -- ------ - ------- --- ----------<br>------------- ------ ------ ---- ---- ------- ----- -- ----<br>-------- ------- -- ---------- --- - --- ----- ----- ----<br>---- --- --- close --- ---- ---- ------- ----- ---- -------<br>--- --- -- ----- -- --- ---- -- --- ---- -- ------ ------<br>--- ----- -- ----,239837.00000000003,239801.00000000003,239427,239405,239442,239877,,31,close
screen,html.Screen,1_1_0_1_32,2021-03-26T16:15:11.892Z,,,,,,,,,,,,,,,,53,,,,,,,,,,,,,,298,response,,,,99,,,,,,Space,keypress(Space),,,,,,,,---- -- ----- -- ------ - ------- --- ----------<br>------------- ------ ------ ---- ---- ------- ----- -- ----<br>-------- ------- -- ---------- --- - --- ----- ----- ----<br>---- --- --- ----- you ---- ---- ------- ----- ---- -------<br>--- --- -- ----- -- --- ---- -- --- ---- -- ------ ------<br>--- ----- -- ----,240195,240159,239861,239837.00000000003,239877,240229,,32,you
screen,html.Screen,1_1_0_1_33,2021-03-26T16:15:12.513Z,,,,,,,,,,,,,,,,53,,,,,,,,,,,,,,568,response,,,,99,,,,,,Space,keypress(Space),,,,,,,,---- -- ----- -- ------ - ------- --- ----------<br>------------- ------ ------ ---- ---- ------- ----- -- ----<br>-------- ------- -- ---------- --- - --- ----- ----- ----<br>---- --- --- ----- --- feel ---- ------- ----- ---- -------<br>--- --- -- ----- -- --- ---- -- --- ---- -- ------ ------<br>--- ----- -- ----,240816,240780,240212,240195,240229,240847,,33,feel
screen,html.Screen,1_1_0_1_34,2021-03-26T16:15:12.904Z,,,,,,,,,,,,,,,,53,,,,,,,,,,,,,,340.0000000000291,response,,,,99,,,,,,Space,keypress(Space),,,,,,,,---- -- ----- -- ------ - ------- --- ----------<br>------------- ------ ------ ---- ---- ------- ----- -- ----<br>-------- ------- -- ---------- --- - --- ----- ----- ----<br>---- --- --- ----- --- ---- that ------- ----- ---- -------<br>--- --- -- ----- -- --- ---- -- --- ---- -- ------ ------<br>--- ----- -- ----,241207,241170.00000000003,240830,240817,240847,241232,,34,that
screen,html.Screen,1_1_0_1_35,2021-03-26T16:15:13.374Z,,,,,,,,,,,,,,,,53,,,,,,,,,,,,,,426,response,,,,99,,,,,,Space,keypress(Space),,,,,,,,---- -- ----- -- ------ - ------- --- ----------<br>------------- ------ ------ ---- ---- ------- ----- -- ----<br>-------- ------- -- ---------- --- - --- ----- ----- ----<br>---- --- --- ----- --- ---- ---- matters ----- ---- -------<br>--- --- -- ----- -- --- ---- -- --- ---- -- ------ ------<br>--- ----- -- ----,241677,241641,241215,241207,241232,241716,,35,matters
screen,html.Screen,1_1_0_1_36,2021-03-26T16:15:13.838Z,,,,,,,,,,,,,,,,53,,,,,,,,,,,,,,405,response,,,,99,,,,,,Space,keypress(Space),,,,,,,,"---- -- ----- -- ------ - ------- --- ----------<br>------------- ------ ------ ---- ---- ------- ----- -- ----<br>-------- ------- -- ---------- --- - --- ----- ----- ----<br>---- --- --- ----- --- ---- ---- ------- most, ---- -------<br>--- --- -- ----- -- --- ---- -- --- ---- -- ------ ------<br>--- ----- -- ----",242141,242104,241699,241678,241716,242184,,36,"most,"
screen,html.Screen,1_1_0_1_37,2021-03-26T16:15:14.315Z,,,,,,,,,,,,,,,,53,,,,,,,,,,,,,,414.0000000000291,response,,,,99,,,,,,Space,keypress(Space),,,,,,,,---- -- ----- -- ------ - ------- --- ----------<br>------------- ------ ------ ---- ---- ------- ----- -- ----<br>-------- ------- -- ---------- --- - --- ----- ----- ----<br>---- --- --- ----- --- ---- ---- ------- ----- it's -------<br>--- --- -- ----- -- --- ---- -- --- ---- -- ------ ------<br>--- ----- -- ----,242618,242581.00000000003,242167,242141,242184,242651,,37,it's
screen,html.Screen,1_1_0_1_38,2021-03-26T16:15:14.794Z,,,,,,,,,,,,,,,,53,,,,,,,,,,,,,,425,response,,,,99,,,,,,Space,keypress(Space),,,,,,,,---- -- ----- -- ------ - ------- --- ----------<br>------------- ------ ------ ---- ---- ------- ----- -- ----<br>-------- ------- -- ---------- --- - --- ----- ----- ----<br>---- --- --- ----- --- ---- ---- ------- ----- ---- whether<br>--- --- -- ----- -- --- ---- -- --- ---- -- ------ ------<br>--- ----- -- ----,243097,243060,242635,242618,242651,243136,,38,whether
screen,html.Screen,1_1_0_1_39,2021-03-26T16:15:15.259Z,,,,,,,,,,,,,,,,53,,,,,,,,,,,,,,405,response,,,,99,,,,,,Space,keypress(Space),,,,,,,,---- -- ----- -- ------ - ------- --- ----------<br>------------- ------ ------ ---- ---- ------- ----- -- ----<br>-------- ------- -- ---------- --- - --- ----- ----- ----<br>---- --- --- ----- --- ---- ---- ------- ----- ---- -------<br>you --- -- ----- -- --- ---- -- --- ---- -- ------ ------<br>--- ----- -- ----,243562,243525,243120,243097,243136,243604,,39,you
screen,html.Screen,1_1_0_1_40,2021-03-26T16:15:15.643Z,,,,,,,,,,,,,,,,53,,,,,,,,,,,,,,322,response,,,,99,,,,,,Space,keypress(Space),,,,,,,,---- -- ----- -- ------ - ------- --- ----------<br>------------- ------ ------ ---- ---- ------- ----- -- ----<br>-------- ------- -- ---------- --- - --- ----- ----- ----<br>---- --- --- ----- --- ---- ---- ------- ----- ---- -------<br>--- are -- ----- -- --- ---- -- --- ---- -- ------ ------<br>--- ----- -- ----,243946,243909,243587,243562,243604,243972,,40,are
screen,html.Screen,1_1_0_1_41,2021-03-26T16:15:16.062Z,,,,,,,,,,,,,,,,53,,,,,,,,,,,,,,373,response,,,,99,,,,,,Space,keypress(Space),,,,,,,,---- -- ----- -- ------ - ------- --- ----------<br>------------- ------ ------ ---- ---- ------- ----- -- ----<br>-------- ------- -- ---------- --- - --- ----- ----- ----<br>---- --- --- ----- --- ---- ---- ------- ----- ---- -------<br>--- --- as ----- -- --- ---- -- --- ---- -- ------ ------<br>--- ----- -- ----,244365,244328,243955,243946,243972,244407,,41,as
screen,html.Screen,1_1_0_1_42,2021-03-26T16:15:16.489Z,,,,,,,,,,,,,,,,53,,,,,,,,,,,,,,366,response,,,,99,,,,,,Space,keypress(Space),,,,,,,,---- -- ----- -- ------ - ------- --- ----------<br>------------- ------ ------ ---- ---- ------- ----- -- ----<br>-------- ------- -- ---------- --- - --- ----- ----- ----<br>---- --- --- ----- --- ---- ---- ------- ----- ---- -------<br>--- --- -- close -- --- ---- -- --- ---- -- ------ ------<br>--- ----- -- ----,244792,244755,244389,244365,244407,244824,,42,close
screen,html.Screen,1_1_0_1_43,2021-03-26T16:15:16.900Z,,,,,,,,,,,,,,,,53,,,,,,,,,,,,,,358,response,,,,99,,,,,,Space,keypress(Space),,,,,,,,---- -- ----- -- ------ - ------- --- ----------<br>------------- ------ ------ ---- ---- ------- ----- -- ----<br>-------- ------- -- ---------- --- - --- ----- ----- ----<br>---- --- --- ----- --- ---- ---- ------- ----- ---- -------<br>--- --- -- ----- as --- ---- -- --- ---- -- ------ ------<br>--- ----- -- ----,245203,245166,244808,244792,244824,245242,,43,as
screen,html.Screen,1_1_0_1_44,2021-03-26T16:15:17.286Z,,,,,,,,,,,,,,,,53,,,,,,,,,,,,,,326,response,,,,99,,,,,,Space,keypress(Space),,,,,,,,---- -- ----- -- ------ - ------- --- ----------<br>------------- ------ ------ ---- ---- ------- ----- -- ----<br>-------- ------- -- ---------- --- - --- ----- ----- ----<br>---- --- --- ----- --- ---- ---- ------- ----- ---- -------<br>--- --- -- ----- -- you ---- -- --- ---- -- ------ ------<br>--- ----- -- ----,245589,245552,245226,245203,245242,245610,,44,you
screen,html.Screen,1_1_0_1_45,2021-03-26T16:15:17.694Z,,,,,,,,,,,,,,,,53,,,,,,,,,,,,,,367,response,,,,99,,,,,,Space,keypress(Space),,,,,,,,---- -- ----- -- ------ - ------- --- ----------<br>------------- ------ ------ ---- ---- ------- ----- -- ----<br>-------- ------- -- ---------- --- - --- ----- ----- ----<br>---- --- --- ----- --- ---- ---- ------- ----- ---- -------<br>--- --- -- ----- -- --- want -- --- ---- -- ------ ------<br>--- ----- -- ----,245997,245960,245593,245589,245610,246027,,45,want
screen,html.Screen,1_1_0_1_46,2021-03-26T16:15:18.086Z,,,,,,,,,,,,,,,,53,,,,,,,,,,,,,,341,response,,,,99,,,,,,Space,keypress(Space),,,,,,,,---- -- ----- -- ------ - ------- --- ----------<br>------------- ------ ------ ---- ---- ------- ----- -- ----<br>-------- ------- -- ---------- --- - --- ----- ----- ----<br>---- --- --- ----- --- ---- ---- ------- ----- ---- -------<br>--- --- -- ----- -- --- ---- to --- ---- -- ------ ------<br>--- ----- -- ----,246389,246352,246011,245997,246027,246411,,46,to
screen,html.Screen,1_1_0_1_47,2021-03-26T16:15:18.425Z,,,,,,,,,,,,,,,,53,,,,,,,,,,,,,,296,response,,,,99,,,,,,Space,keypress(Space),,,,,,,,"---- -- ----- -- ------ - ------- --- ----------<br>------------- ------ ------ ---- ---- ------- ----- -- ----<br>-------- ------- -- ---------- --- - --- ----- ----- ----<br>---- --- --- ----- --- ---- ---- ------- ----- ---- -------<br>--- --- -- ----- -- --- ---- -- be, ---- -- ------ ------<br>--- ----- -- ----",246728,246691,246395,246389,246411,246746,,47,"be,"
screen,html.Screen,1_1_0_1_48,2021-03-26T16:15:18.850Z,,,,,,,,,,,,,,,,53,,,,,,,,,,,,,,387,response,,,,99,,,,,,Space,keypress(Space),,,,,,,,---- -- ----- -- ------ - ------- --- ----------<br>------------- ------ ------ ---- ---- ------- ----- -- ----<br>-------- ------- -- ---------- --- - --- ----- ----- ----<br>---- --- --- ----- --- ---- ---- ------- ----- ---- -------<br>--- --- -- ----- -- --- ---- -- --- even -- ------ ------<br>--- ----- -- ----,247153,247116,246729,246728,246746,247181,,48,even
screen,html.Screen,1_1_0_1_49,2021-03-26T16:15:19.246Z,,,,,,,,,,,,,,,,53,,,,,,,,,,,,,,348,response,,,,99,,,,,,Space,keypress(Space),,,,,,,,---- -- ----- -- ------ - ------- --- ----------<br>------------- ------ ------ ---- ---- ------- ----- -- ----<br>-------- ------- -- ---------- --- - --- ----- ----- ----<br>---- --- --- ----- --- ---- ---- ------- ----- ---- -------<br>--- --- -- ----- -- --- ---- -- --- ---- if ------ ------<br>--- ----- -- ----,247549,247512,247164,247153,247181,247581,,49,if
screen,html.Screen,1_1_0_1_50,2021-03-26T16:15:19.620Z,,,,,,,,,,,,,,,,53,,,,,,,,,,,,,,322,response,,,,99,,,,,,Space,keypress(Space),,,,,,,,---- -- ----- -- ------ - ------- --- ----------<br>------------- ------ ------ ---- ---- ------- ----- -- ----<br>-------- ------- -- ---------- --- - --- ----- ----- ----<br>---- --- --- ----- --- ---- ---- ------- ----- ---- -------<br>--- --- -- ----- -- --- ---- -- --- ---- -- that's ------<br>--- ----- -- ----,247923,247887,247565,247549,247581,247949,,50,that's
screen,html.Screen,1_1_0_1_51,2021-03-26T16:15:20.055Z,,,,,,,,,,,,,,,,53,,,,,,,,,,,,,,390,response,,,,99,,,,,,Space,keypress(Space),,,,,,,,---- -- ----- -- ------ - ------- --- ----------<br>------------- ------ ------ ---- ---- ------- ----- -- ----<br>-------- ------- -- ---------- --- - --- ----- ----- ----<br>---- --- --- ----- --- ---- ---- ------- ----- ---- -------<br>--- --- -- ----- -- --- ---- -- --- ---- -- ------ really<br>--- ----- -- ----,248358,248322,247932,247924,247949,248400,,51,really
screen,html.Screen,1_1_0_1_52,2021-03-26T16:15:20.534Z,,,,,,,,,,,,,,,,53,,,,,,,,,,,,,,416,response,,,,99,,,,,,Space,keypress(Space),,,,,,,,---- -- ----- -- ------ - ------- --- ----------<br>------------- ------ ------ ---- ---- ------- ----- -- ----<br>-------- ------- -- ---------- --- - --- ----- ----- ----<br>---- --- --- ----- --- ---- ---- ------- ----- ---- -------<br>--- --- -- ----- -- --- ---- -- --- ---- -- ------ ------<br>not ----- -- ----,248837.00000000003,248800,248384,248358,248400,248868,,52,not
screen,html.Screen,1_1_0_1_53,2021-03-26T16:15:20.927Z,,,,,,,,,,,,,,,,53,,,,,,,,,,,,,,341,response,,,,99,,,,,,Space,keypress(Space),,,,,,,,---- -- ----- -- ------ - ------- --- ----------<br>------------- ------ ------ ---- ---- ------- ----- -- ----<br>-------- ------- -- ---------- --- - --- ----- ----- ----<br>---- --- --- ----- --- ---- ---- ------- ----- ---- -------<br>--- --- -- ----- -- --- ---- -- --- ---- -- ------ ------<br>--- close -- ----,249230.00000000003,249193,248852,248837.00000000003,248868,249253,,53,close
screen,html.Screen,1_1_0_1_54,2021-03-26T16:15:21.301Z,,,,,,,,,,,,,,,,53,,,,,,,,,,,,,,332,response,,,,99,,,,,,Space,keypress(Space),,,,,,,,---- -- ----- -- ------ - ------- --- ----------<br>------------- ------ ------ ---- ---- ------- ----- -- ----<br>-------- ------- -- ---------- --- - --- ----- ----- ----<br>---- --- --- ----- --- ---- ---- ------- ----- ---- -------<br>--- --- -- ----- -- --- ---- -- --- ---- -- ------ ------<br>--- ----- at ----,249604,249568,249236,249230.00000000003,249253,249637,,54,at
screen,html.Screen,1_1_0_1_55,2021-03-26T16:15:21.830Z,,,,,,,,,,,,,,,,53,,,,,,,,,,,,,,475,response,,,,99,,,,,,Space,keypress(Space),,,,,,,,---- -- ----- -- ------ - ------- --- ----------<br>------------- ------ ------ ---- ---- ------- ----- -- ----<br>-------- ------- -- ---------- --- - --- ----- ----- ----<br>---- --- --- ----- --- ---- ---- ------- ----- ---- -------<br>--- --- -- ----- -- --- ---- -- --- ---- -- ------ ------<br>--- ----- -- all.,250133,250096,249621,249604,249637,250172,,55,all.
Item 99,flow.Loop,1_1_0_1,2021-03-26T16:15:21.830Z,,,,,,,,,,,,,,,,,,,,,,,,,,,,,,26589,completion,,,,,A,,,,,,,,,,silence,,,,,250133,250096,223484,223485,223507,250172,,,
Question 1,html.Screen,1_1_0_2,2021-03-26T16:15:27.015Z,,,,,,,,,,,,,,,,,,,,,,,,,,,true,FALSE,,5128.000000000029,response,,,,99,A,,,,,FALSE,click #choice-2,,,,silence,,,,,255318,255283.00000000003,250155,250133,250172,255335,,,
Question 2,html.Screen,1_1_0_3,2021-03-26T16:15:31.251Z,,,,,,,,,,,,,,,,,,,,,,,,,,,true,TRUE,,4197.000000000029,response,,,,99,A,,,,,TRUE,click #choice-1,,,,silence,,,,,259553,259518.00000000003,255321,255318,255335,259580,,,
Item 99,flow.Sequence,1_1_0,2021-03-26T16:15:31.251Z,,,,,,,,,,,,,,,,,,,,,,,,,,,,,,43019.00000000003,completion,,,,,,,,,,,,,,,,,,,,259554.00000000003,259518.00000000003,216482,216467,216499,259580,,,
Holding screen,html.Screen,1_1_1_0,2021-03-26T16:15:38.263Z,,,,,,,,,,,,,,,,,,,,,,,,,,,,,,7001,timeout,,,,,,,,,,,,,,,,,,,,266566.00000000006,266565,259563,259554.00000000003,259580,266581,,,
screen,html.Screen,1_1_1_1_0,2021-03-26T16:15:39.473Z,,,,,,,,,,,,,,,,54,,,,,,,,,,,,,,1173,response,,,,100,,,,,,Space,keypress(Space),,,,,,,,At --- ---- --- ------ ----- ------- ---- -- --- ------- --<br>------- ---------- ------ -- ----- -- ----- -- ---- ------<br>--- ----- --- --- ------ -------- ----- --- ------ ----- --<br>----- ----- ---------- --- --- ------ ------ ---- -- ------<br>------- --- ------ ----- --- ---- ------- -- ---- --- --<br>------- ------,267776,267738,266565,266566.00000000006,266581,267819,,0,At
screen,html.Screen,1_1_1_1_1,2021-03-26T16:15:39.963Z,,,,,,,,,,,,,,,,54,,,,,,,,,,,,,,425,response,,,,100,,,,,,Space,keypress(Space),,,,,,,,-- the ---- --- ------ ----- ------- ---- -- --- ------- --<br>------- ---------- ------ -- ----- -- ----- -- ---- ------<br>--- ----- --- --- ------ -------- ----- --- ------ ----- --<br>----- ----- ---------- --- --- ------ ------ ---- -- ------<br>------- --- ------ ----- --- ---- ------- -- ---- --- --<br>------- ------,268265,268228,267803,267776,267819,268304,,1,the
screen,html.Screen,1_1_1_1_2,2021-03-26T16:15:40.416Z,,,,,,,,,,,,,,,,54,,,,,,,,,,,,,,394,response,,,,100,,,,,,Space,keypress(Space),,,,,,,,-- --- time --- ------ ----- ------- ---- -- --- ------- --<br>------- ---------- ------ -- ----- -- ----- -- ---- ------<br>--- ----- --- --- ------ -------- ----- --- ------ ----- --<br>----- ----- ---------- --- --- ------ ------ ---- -- ------<br>------- --- ------ ----- --- ---- ------- -- ---- --- --<br>------- ------,268718,268681,268287,268265,268304,268754,,2,time
screen,html.Screen,1_1_1_1_3,2021-03-26T16:15:40.904Z,,,,,,,,,,,,,,,,54,,,,,,,,,,,,,,432,response,,,,100,,,,,,Space,keypress(Space),,,,,,,,-- --- ---- the ------ ----- ------- ---- -- --- ------- --<br>------- ---------- ------ -- ----- -- ----- -- ---- ------<br>--- ----- --- --- ------ -------- ----- --- ------ ----- --<br>----- ----- ---------- --- --- ------ ------ ---- -- ------<br>------- --- ------ ----- --- ---- ------- -- ---- --- --<br>------- ------,269206,269169,268737,268718,268754,269240,,3,the
screen,html.Screen,1_1_1_1_4,2021-03-26T16:15:41.397Z,,,,,,,,,,,,,,,,54,,,,,,,,,,,,,,439,response,,,,100,,,,,,Space,keypress(Space),,,,,,,,-- --- ---- --- French ----- ------- ---- -- --- ------- --<br>------- ---------- ------ -- ----- -- ----- -- ---- ------<br>--- ----- --- --- ------ -------- ----- --- ------ ----- --<br>----- ----- ---------- --- --- ------ ------ ---- -- ------<br>------- --- ------ ----- --- ---- ------- -- ---- --- --<br>------- ------,269699,269662,269223,269206,269240,269741,,4,French
screen,html.Screen,1_1_1_1_5,2021-03-26T16:15:41.877Z,,,,,,,,,,,,,,,,54,,,,,,,,,,,,,,418,response,,,,100,,,,,,Space,keypress(Space),,,,,,,,-- --- ---- --- ------ crown ------- ---- -- --- ------- --<br>------- ---------- ------ -- ----- -- ----- -- ---- ------<br>--- ----- --- --- ------ -------- ----- --- ------ ----- --<br>----- ----- ---------- --- --- ------ ------ ---- -- ------<br>------- --- ------ ----- --- ---- ------- -- ---- --- --<br>------- ------,270179.00000000006,270142,269724,269699,269741,270208,,5,crown
screen,html.Screen,1_1_1_1_6,2021-03-26T16:15:42.343Z,,,,,,,,,,,,,,,,54,,,,,,,,,,,,,,416,response,,,,100,,,,,,Space,keypress(Space),,,,,,,,-- --- ---- --- ------ ----- secured ---- -- --- ------- --<br>------- ---------- ------ -- ----- -- ----- -- ---- ------<br>--- ----- --- --- ------ -------- ----- --- ------ ----- --<br>----- ----- ---------- --- --- ------ ------ ---- -- ------<br>------- --- ------ ----- --- ---- ------- -- ---- --- --<br>------- ------,270645,270608,270192,270179.00000000006,270208,270677,,6,secured
screen,html.Screen,1_1_1_1_7,2021-03-26T16:15:42.847Z,,,,,,,,,,,,,,,,54,,,,,,,,,,,,,,452,response,,,,100,,,,,,Space,keypress(Space),,,,,,,,-- --- ---- --- ------ ----- ------- much -- --- ------- --<br>------- ---------- ------ -- ----- -- ----- -- ---- ------<br>--- ----- --- --- ------ -------- ----- --- ------ ----- --<br>----- ----- ---------- --- --- ------ ------ ---- -- ------<br>------- --- ------ ----- --- ---- ------- -- ---- --- --<br>------- ------,271149,271112,270660,270645,270677,271178,,7,much
screen,html.Screen,1_1_1_1_8,2021-03-26T16:15:43.296Z,,,,,,,,,,,,,,,,54,,,,,,,,,,,,,,399,response,,,,100,,,,,,Space,keypress(Space),,,,,,,,-- --- ---- --- ------ ----- ------- ---- of --- ------- --<br>------- ---------- ------ -- ----- -- ----- -- ---- ------<br>--- ----- --- --- ------ -------- ----- --- ------ ----- --<br>----- ----- ---------- --- --- ------ ------ ---- -- ------<br>------- --- ------ ----- --- ---- ------- -- ---- --- --<br>------- ------,271599,271561,271162,271149,271178,271628,,8,of
screen,html.Screen,1_1_1_1_9,2021-03-26T16:15:43.730Z,,,,,,,,,,,,,,,,54,,,,,,,,,,,,,,382,response,,,,100,,,,,,Space,keypress(Space),,,,,,,,-- --- ---- --- ------ ----- ------- ---- -- its ------- --<br>------- ---------- ------ -- ----- -- ----- -- ---- ------<br>--- ----- --- --- ------ -------- ----- --- ------ ----- --<br>----- ----- ---------- --- --- ------ ------ ---- -- ------<br>------- --- ------ ----- --- ---- ------- -- ---- --- --<br>------- ------,272032,271994,271612,271599,271628,272064,,9,its
screen,html.Screen,1_1_1_1_10,2021-03-26T16:15:44.184Z,,,,,,,,,,,,,,,,54,,,,,,,,,,,,,,402,response,,,,100,,,,,,Space,keypress(Space),,,,,,,,-- --- ---- --- ------ ----- ------- ---- -- --- revenue --<br>------- ---------- ------ -- ----- -- ----- -- ---- ------<br>--- ----- --- --- ------ -------- ----- --- ------ ----- --<br>----- ----- ---------- --- --- ------ ------ ---- -- ------<br>------- --- ------ ----- --- ---- ------- -- ---- --- --<br>------- ------,272486,272449,272047,272032,272064,272515,,10,revenue
screen,html.Screen,1_1_1_1_11,2021-03-26T16:15:44.677Z,,,,,,,,,,,,,,,,54,,,,,,,,,,,,,,444,response,,,,100,,,,,,Space,keypress(Space),,,,,,,,-- --- ---- --- ------ ----- ------- ---- -- --- ------- by<br>------- ---------- ------ -- ----- -- ----- -- ---- ------<br>--- ----- --- --- ------ -------- ----- --- ------ ----- --<br>----- ----- ---------- --- --- ------ ------ ---- -- ------<br>------- --- ------ ----- --- ---- ------- -- ---- --- --<br>------- ------,272980,272942,272498,272487,272515,273016,,11,by
screen,html.Screen,1_1_1_1_12,2021-03-26T16:15:45.114Z,,,,,,,,,,,,,,,,54,,,,,,,,,,,,,,379,response,,,,100,,,,,,Space,keypress(Space),,,,,,,,-- --- ---- --- ------ ----- ------- ---- -- --- ------- --<br>issuing ---------- ------ -- ----- -- ----- -- ---- ------<br>--- ----- --- --- ------ -------- ----- --- ------ ----- --<br>----- ----- ---------- --- --- ------ ------ ---- -- ------<br>------- --- ------ ----- --- ---- ------- -- ---- --- --<br>------- ------,273416,273378,272999,272980,273016,273451,,12,issuing
screen,html.Screen,1_1_1_1_13,2021-03-26T16:15:45.568Z,,,,,,,,,,,,,,,,54,,,,,,,,,,,,,,398,response,,,,100,,,,,,Space,keypress(Space),,,,,,,,-- --- ---- --- ------ ----- ------- ---- -- --- ------- --<br>------- government ------ -- ----- -- ----- -- ---- ------<br>--- ----- --- --- ------ -------- ----- --- ------ ----- --<br>----- ----- ---------- --- --- ------ ------ ---- -- ------<br>------- --- ------ ----- --- ---- ------- -- ---- --- --<br>------- ------,273870,273832,273434,273416,273451,273901,,13,government
screen,html.Screen,1_1_1_1_14,2021-03-26T16:15:46.011Z,,,,,,,,,,,,,,,,54,,,,,,,,,,,,,,391,response,,,,100,,,,,,Space,keypress(Space),,,,,,,,-- --- ---- --- ------ ----- ------- ---- -- --- ------- --<br>------- ---------- bonds. -- ----- -- ----- -- ---- ------<br>--- ----- --- --- ------ -------- ----- --- ------ ----- --<br>----- ----- ---------- --- --- ------ ------ ---- -- ------<br>------- --- ------ ----- --- ---- ------- -- ---- --- --<br>------- ------,274314,274276,273885,273870,273901,274353,,14,bonds.
screen,html.Screen,1_1_1_1_15,2021-03-26T16:15:46.453Z,,,,,,,,,,,,,,,,54,,,,,,,,,,,,,,382,response,,,,100,,,,,,Space,keypress(Space),,,,,,,,-- --- ---- --- ------ ----- ------- ---- -- --- ------- --<br>------- ---------- ------ In ----- -- ----- -- ---- ------<br>--- ----- --- --- ------ -------- ----- --- ------ ----- --<br>----- ----- ---------- --- --- ------ ------ ---- -- ------<br>------- --- ------ ----- --- ---- ------- -- ---- --- --<br>------- ------,274756,274718,274336,274314,274353,274788,,15,In
screen,html.Screen,1_1_1_1_16,2021-03-26T16:15:47.140Z,,,,,,,,,,,,,,,,54,,,,,,,,,,,,,,635.0000000000582,response,,,,100,,,,,,Space,keypress(Space),,,,,,,,"-- --- ---- --- ------ ----- ------- ---- -- --- ------- --<br>------- ---------- ------ -- 1727, -- ----- -- ---- ------<br>--- ----- --- --- ------ -------- ----- --- ------ ----- --<br>----- ----- ---------- --- --- ------ ------ ---- -- ------<br>------- --- ------ ----- --- ---- ------- -- ---- --- --<br>------- ------",275443,275405.00000000006,274770,274756,274788,275472,,16,"1727,"
screen,html.Screen,1_1_1_1_17,2021-03-26T16:15:47.656Z,,,,,,,,,,,,,,,,54,,,,,,,,,,,,,,465,response,,,,100,,,,,,Space,keypress(Space),,,,,,,,-- --- ---- --- ------ ----- ------- ---- -- --- ------- --<br>------- ---------- ------ -- ----- in ----- -- ---- ------<br>--- ----- --- --- ------ -------- ----- --- ------ ----- --<br>----- ----- ---------- --- --- ------ ------ ---- -- ------<br>------- --- ------ ----- --- ---- ------- -- ---- --- --<br>------- ------,275958,275921,275456,275443,275472,275990,,17,in
screen,html.Screen,1_1_1_1_18,2021-03-26T16:15:48.158Z,,,,,,,,,,,,,,,,54,,,,,,,,,,,,,,450,response,,,,100,,,,,,Space,keypress(Space),,,,,,,,-- --- ---- --- ------ ----- ------- ---- -- --- ------- --<br>------- ---------- ------ -- ----- -- order -- ---- ------<br>--- ----- --- --- ------ -------- ----- --- ------ ----- --<br>----- ----- ---------- --- --- ------ ------ ---- -- ------<br>------- --- ------ ----- --- ---- ------- -- ---- --- --<br>------- ------,276460,276423,275973,275958,275990,276491,,18,order
screen,html.Screen,1_1_1_1_19,2021-03-26T16:15:48.586Z,,,,,,,,,,,,,,,,54,,,,,,,,,,,,,,375,response,,,,100,,,,,,Space,keypress(Space),,,,,,,,-- --- ---- --- ------ ----- ------- ---- -- --- ------- --<br>------- ---------- ------ -- ----- -- ----- to ---- ------<br>--- ----- --- --- ------ -------- ----- --- ------ ----- --<br>----- ----- ---------- --- --- ------ ------ ---- -- ------<br>------- --- ------ ----- --- ---- ------- -- ---- --- --<br>------- ------,276888.00000000006,276850,276475,276461,276491,276927,,19,to
screen,html.Screen,1_1_1_1_20,2021-03-26T16:15:48.987Z,,,,,,,,,,,,,,,,54,,,,,,,,,,,,,,343,response,,,,100,,,,,,Space,keypress(Space),,,,,,,,-- --- ---- --- ------ ----- ------- ---- -- --- ------- --<br>------- ---------- ------ -- ----- -- ----- -- save ------<br>--- ----- --- --- ------ -------- ----- --- ------ ----- --<br>----- ----- ---------- --- --- ------ ------ ---- -- ------<br>------- --- ------ ----- --- ---- ------- -- ---- --- --<br>------- ------,277289,277252,276909,276888.00000000006,276927,277311,,20,save
screen,html.Screen,1_1_1_1_21,2021-03-26T16:15:49.377Z,,,,,,,,,,,,,,,,54,,,,,,,,,,,,,,348,response,,,,100,,,,,,Space,keypress(Space),,,,,,,,"-- --- ---- --- ------ ----- ------- ---- -- --- ------- --<br>------- ---------- ------ -- ----- -- ----- -- ---- money,<br>--- ----- --- --- ------ -------- ----- --- ------ ----- --<br>----- ----- ---------- --- --- ------ ------ ---- -- ------<br>------- --- ------ ----- --- ---- ------- -- ---- --- --<br>------- ------",277679.00000000006,277642,277294,277290,277311,277712,,21,"money,"
screen,html.Screen,1_1_1_1_22,2021-03-26T16:15:49.765Z,,,,,,,,,,,,,,,,54,,,,,,,,,,,,,,334.0000000000582,response,,,,100,,,,,,Space,keypress(Space),,,,,,,,-- --- ---- --- ------ ----- ------- ---- -- --- ------- --<br>------- ---------- ------ -- ----- -- ----- -- ---- ------<br>the ----- --- --- ------ -------- ----- --- ------ ----- --<br>----- ----- ---------- --- --- ------ ------ ---- -- ------<br>------- --- ------ ----- --- ---- ------- -- ---- --- --<br>------- ------,278067,278030.00000000006,277696,277679.00000000006,277712,278096,,22,the
screen,html.Screen,1_1_1_1_23,2021-03-26T16:15:50.130Z,,,,,,,,,,,,,,,,54,,,,,,,,,,,,,,314,response,,,,100,,,,,,Space,keypress(Space),,,,,,,,-- --- ---- --- ------ ----- ------- ---- -- --- ------- --<br>------- ---------- ------ -- ----- -- ----- -- ---- ------<br>--- state --- --- ------ -------- ----- --- ------ ----- --<br>----- ----- ---------- --- --- ------ ------ ---- -- ------<br>------- --- ------ ----- --- ---- ------- -- ---- --- --<br>------- ------,278432,278394,278080,278067,278096,278464,,23,state
screen,html.Screen,1_1_1_1_24,2021-03-26T16:15:50.471Z,,,,,,,,,,,,,,,,54,,,,,,,,,,,,,,289,response,,,,100,,,,,,Space,keypress(Space),,,,,,,,-- --- ---- --- ------ ----- ------- ---- -- --- ------- --<br>------- ---------- ------ -- ----- -- ----- -- ---- ------<br>--- ----- cut --- ------ -------- ----- --- ------ ----- --<br>----- ----- ---------- --- --- ------ ------ ---- -- ------<br>------- --- ------ ----- --- ---- ------- -- ---- --- --<br>------- ------,278773,278736,278447,278432,278464,278798,,24,cut
screen,html.Screen,1_1_1_1_25,2021-03-26T16:15:50.870Z,,,,,,,,,,,,,,,,54,,,,,,,,,,,,,,354,response,,,,100,,,,,,Space,keypress(Space),,,,,,,,-- --- ---- --- ------ ----- ------- ---- -- --- ------- --<br>------- ---------- ------ -- ----- -- ----- -- ---- ------<br>--- ----- --- the ------ -------- ----- --- ------ ----- --<br>----- ----- ---------- --- --- ------ ------ ---- -- ------<br>------- --- ------ ----- --- ---- ------- -- ---- --- --<br>------- ------,279172,279135,278781,278773,278798,279200,,25,the
screen,html.Screen,1_1_1_1_26,2021-03-26T16:15:51.163Z,,,,,,,,,,,,,,,,54,,,,,,,,,,,,,,245,response,,,,100,,,,,,Space,keypress(Space),,,,,,,,-- --- ---- --- ------ ----- ------- ---- -- --- ------- --<br>------- ---------- ------ -- ----- -- ----- -- ---- ------<br>--- ----- --- --- bonds' -------- ----- --- ------ ----- --<br>----- ----- ---------- --- --- ------ ------ ---- -- ------<br>------- --- ------ ----- --- ---- ------- -- ---- --- --<br>------- ------,279465.00000000006,279428,279183,279172,279200,279483,,26,bonds'
screen,html.Screen,1_1_1_1_27,2021-03-26T16:15:51.604Z,,,,,,,,,,,,,,,,54,,,,,,,,,,,,,,403,response,,,,100,,,,,,Space,keypress(Space),,,,,,,,-- --- ---- --- ------ ----- ------- ---- -- --- ------- --<br>------- ---------- ------ -- ----- -- ----- -- ---- ------<br>--- ----- --- --- ------ interest ----- --- ------ ----- --<br>----- ----- ---------- --- --- ------ ------ ---- -- ------<br>------- --- ------ ----- --- ---- ------- -- ---- --- --<br>------- ------,279907,279869,279466,279465.00000000006,279483,279935,,27,interest
screen,html.Screen,1_1_1_1_28,2021-03-26T16:15:51.999Z,,,,,,,,,,,,,,,,54,,,,,,,,,,,,,,347,response,,,,100,,,,,,Space,keypress(Space),,,,,,,,-- --- ---- --- ------ ----- ------- ---- -- --- ------- --<br>------- ---------- ------ -- ----- -- ----- -- ---- ------<br>--- ----- --- --- ------ -------- rate. --- ------ ----- --<br>----- ----- ---------- --- --- ------ ------ ---- -- ------<br>------- --- ------ ----- --- ---- ------- -- ---- --- --<br>------- ------,280301,280264,279917,279907,279935,280319,,28,rate.
screen,html.Screen,1_1_1_1_29,2021-03-26T16:15:52.427Z,,,,,,,,,,,,,,,,54,,,,,,,,,,,,,,390,response,,,,100,,,,,,Space,keypress(Space),,,,,,,,-- --- ---- --- ------ ----- ------- ---- -- --- ------- --<br>------- ---------- ------ -- ----- -- ----- -- ---- ------<br>--- ----- --- --- ------ -------- ----- The ------ ----- --<br>----- ----- ---------- --- --- ------ ------ ---- -- ------<br>------- --- ------ ----- --- ---- ------- -- ---- --- --<br>------- ------,280729,280692,280302,280301,280319,280771,,29,The
screen,html.Screen,1_1_1_1_30,2021-03-26T16:15:52.822Z,,,,,,,,,,,,,,,,54,,,,,,,,,,,,,,333,response,,,,100,,,,,,Space,keypress(Space),,,,,,,,-- --- ---- --- ------ ----- ------- ---- -- --- ------- --<br>------- ---------- ------ -- ----- -- ----- -- ---- ------<br>--- ----- --- --- ------ -------- ----- --- market ----- --<br>----- ----- ---------- --- --- ------ ------ ---- -- ------<br>------- --- ------ ----- --- ---- ------- -- ---- --- --<br>------- ------,281124,281087,280754,280729,280771,281155,,30,market
screen,html.Screen,1_1_1_1_31,2021-03-26T16:15:53.221Z,,,,,,,,,,,,,,,,54,,,,,,,,,,,,,,348,response,,,,100,,,,,,Space,keypress(Space),,,,,,,,-- --- ---- --- ------ ----- ------- ---- -- --- ------- --<br>------- ---------- ------ -- ----- -- ----- -- ---- ------<br>--- ----- --- --- ------ -------- ----- --- ------ value --<br>----- ----- ---------- --- --- ------ ------ ---- -- ------<br>------- --- ------ ----- --- ---- ------- -- ---- --- --<br>------- ------,281523,281486,281138,281124,281155,281556,,31,value
screen,html.Screen,1_1_1_1_32,2021-03-26T16:15:53.656Z,,,,,,,,,,,,,,,,54,,,,,,,,,,,,,,381,response,,,,100,,,,,,Space,keypress(Space),,,,,,,,-- --- ---- --- ------ ----- ------- ---- -- --- ------- --<br>------- ---------- ------ -- ----- -- ----- -- ---- ------<br>--- ----- --- --- ------ -------- ----- --- ------ ----- of<br>----- ----- ---------- --- --- ------ ------ ---- -- ------<br>------- --- ------ ----- --- ---- ------- -- ---- --- --<br>------- ------,281958,281920,281539,281523,281556,281989,,32,of
screen,html.Screen,1_1_1_1_33,2021-03-26T16:15:53.989Z,,,,,,,,,,,,,,,,54,,,,,,,,,,,,,,279,response,,,,100,,,,,,Space,keypress(Space),,,,,,,,-- --- ---- --- ------ ----- ------- ---- -- --- ------- --<br>------- ---------- ------ -- ----- -- ----- -- ---- ------<br>--- ----- --- --- ------ -------- ----- --- ------ ----- --<br>these ----- ---------- --- --- ------ ------ ---- -- ------<br>------- --- ------ ----- --- ---- ------- -- ---- --- --<br>------- ------,282291,282253,281974,281958,281989,282323,,33,these
screen,html.Screen,1_1_1_1_34,2021-03-26T16:15:54.371Z,,,,,,,,,,,,,,,,54,,,,,,,,,,,,,,327,response,,,,100,,,,,,Space,keypress(Space),,,,,,,,-- --- ---- --- ------ ----- ------- ---- -- --- ------- --<br>------- ---------- ------ -- ----- -- ----- -- ---- ------<br>--- ----- --- --- ------ -------- ----- --- ------ ----- --<br>----- bonds ---------- --- --- ------ ------ ---- -- ------<br>------- --- ------ ----- --- ---- ------- -- ---- --- --<br>------- ------,282673,282635,282308,282291,282323,282692,,34,bonds
screen,html.Screen,1_1_1_1_35,2021-03-26T16:15:54.584Z,,,,,,,,,,,,,,,,54,,,,,,,,,,,,,,173,response,,,,100,,,,,,Space,keypress(Space),,,,,,,,"-- --- ---- --- ------ ----- ------- ---- -- --- ------- --<br>------- ---------- ------ -- ----- -- ----- -- ---- ------<br>--- ----- --- --- ------ -------- ----- --- ------ ----- --<br>----- ----- plummeted, --- --- ------ ------ ---- -- ------<br>------- --- ------ ----- --- ---- ------- -- ---- --- --<br>------- ------",282886,282848,282675,282673,282692,282909,,35,"plummeted,"
screen,html.Screen,1_1_1_1_36,2021-03-26T16:15:55.109Z,,,,,,,,,,,,,,,,54,,,,,,,,,,,,,,480,response,,,,100,,,,,,Space,keypress(Space),,,,,,,,-- --- ---- --- ------ ----- ------- ---- -- --- ------- --<br>------- ---------- ------ -- ----- -- ----- -- ---- ------<br>--- ----- --- --- ------ -------- ----- --- ------ ----- --<br>----- ----- ---------- and --- ------ ------ ---- -- ------<br>------- --- ------ ----- --- ---- ------- -- ---- --- --<br>------- ------,283411,283373,282893,282886,282909,283444,,36,and
screen,html.Screen,1_1_1_1_37,2021-03-26T16:15:55.519Z,,,,,,,,,,,,,,,,54,,,,,,,,,,,,,,356,response,,,,100,,,,,,Space,keypress(Space),,,,,,,,-- --- ---- --- ------ ----- ------- ---- -- --- ------- --<br>------- ---------- ------ -- ----- -- ----- -- ---- ------<br>--- ----- --- --- ------ -------- ----- --- ------ ----- --<br>----- ----- ---------- --- the ------ ------ ---- -- ------<br>------- --- ------ ----- --- ---- ------- -- ---- --- --<br>------- ------,283821,283783,283427,283411,283444,283861,,37,the
screen,html.Screen,1_1_1_1_38,2021-03-26T16:15:55.939Z,,,,,,,,,,,,,,,,54,,,,,,,,,,,,,,358.0000000000582,response,,,,100,,,,,,Space,keypress(Space),,,,,,,,-- --- ---- --- ------ ----- ------- ---- -- --- ------- --<br>------- ---------- ------ -- ----- -- ----- -- ---- ------<br>--- ----- --- --- ------ -------- ----- --- ------ ----- --<br>----- ----- ---------- --- --- market ------ ---- -- ------<br>------- --- ------ ----- --- ---- ------- -- ---- --- --<br>------- ------,284241,284203.00000000006,283845,283821,283861,284280,,38,market
screen,html.Screen,1_1_1_1_39,2021-03-26T16:15:56.346Z,,,,,,,,,,,,,,,,54,,,,,,,,,,,,,,347,response,,,,100,,,,,,Space,keypress(Space),,,,,,,,-- --- ---- --- ------ ----- ------- ---- -- --- ------- --<br>------- ---------- ------ -- ----- -- ----- -- ---- ------<br>--- ----- --- --- ------ -------- ----- --- ------ ----- --<br>----- ----- ---------- --- --- ------ became ---- -- ------<br>------- --- ------ ----- --- ---- ------- -- ---- --- --<br>------- ------,284648,284610,284263,284241,284280,284680,,39,became
screen,html.Screen,1_1_1_1_40,2021-03-26T16:15:56.719Z,,,,,,,,,,,,,,,,54,,,,,,,,,,,,,,319,response,,,,100,,,,,,Space,keypress(Space),,,,,,,,-- --- ---- --- ------ ----- ------- ---- -- --- ------- --<br>------- ---------- ------ -- ----- -- ----- -- ---- ------<br>--- ----- --- --- ------ -------- ----- --- ------ ----- --<br>----- ----- ---------- --- --- ------ ------ wary -- ------<br>------- --- ------ ----- --- ---- ------- -- ---- --- --<br>------- ------,285021,284983,284664,284648,284680,285048,,40,wary
screen,html.Screen,1_1_1_1_41,2021-03-26T16:15:57.093Z,,,,,,,,,,,,,,,,54,,,,,,,,,,,,,,326,response,,,,100,,,,,,Space,keypress(Space),,,,,,,,-- --- ---- --- ------ ----- ------- ---- -- --- ------- --<br>------- ---------- ------ -- ----- -- ----- -- ---- ------<br>--- ----- --- --- ------ -------- ----- --- ------ ----- --<br>----- ----- ---------- --- --- ------ ------ ---- of ------<br>------- --- ------ ----- --- ---- ------- -- ---- --- --<br>------- ------,285395,285357,285031,285021,285048,285415,,41,of
screen,html.Screen,1_1_1_1_42,2021-03-26T16:15:57.614Z,,,,,,,,,,,,,,,,54,,,,,,,,,,,,,,479,response,,,,100,,,,,,Space,keypress(Space),,,,,,,,-- --- ---- --- ------ ----- ------- ---- -- --- ------- --<br>------- ---------- ------ -- ----- -- ----- -- ---- ------<br>--- ----- --- --- ------ -------- ----- --- ------ ----- --<br>----- ----- ---------- --- --- ------ ------ ---- -- French<br>------- --- ------ ----- --- ---- ------- -- ---- --- --<br>------- ------,285916,285878,285399,285395,285415,285951,,42,French
screen,html.Screen,1_1_1_1_43,2021-03-26T16:15:58.034Z,,,,,,,,,,,,,,,,54,,,,,,,,,,,,,,365,response,,,,100,,,,,,Space,keypress(Space),,,,,,,,-- --- ---- --- ------ ----- ------- ---- -- --- ------- --<br>------- ---------- ------ -- ----- -- ----- -- ---- ------<br>--- ----- --- --- ------ -------- ----- --- ------ ----- --<br>----- ----- ---------- --- --- ------ ------ ---- -- ------<br>credit. --- ------ ----- --- ---- ------- -- ---- --- --<br>------- ------,286336,286298,285933,285916,285951,286368,,43,credit.
screen,html.Screen,1_1_1_1_44,2021-03-26T16:15:58.455Z,,,,,,,,,,,,,,,,54,,,,,,,,,,,,,,367,response,,,,100,,,,,,Space,keypress(Space),,,,,,,,-- --- ---- --- ------ ----- ------- ---- -- --- ------- --<br>------- ---------- ------ -- ----- -- ----- -- ---- ------<br>--- ----- --- --- ------ -------- ----- --- ------ ----- --<br>----- ----- ---------- --- --- ------ ------ ---- -- ------<br>------- The ------ ----- --- ---- ------- -- ---- --- --<br>------- ------,286757,286719,286352,286336,286368,286787,,44,The
screen,html.Screen,1_1_1_1_45,2021-03-26T16:15:58.652Z,,,,,,,,,,,,,,,,54,,,,,,,,,,,,,,146,response,,,,100,,,,,,Space,keypress(Space),,,,,,,,-- --- ---- --- ------ ----- ------- ---- -- --- ------- --<br>------- ---------- ------ -- ----- -- ----- -- ---- ------<br>--- ----- --- --- ------ -------- ----- --- ------ ----- --<br>----- ----- ---------- --- --- ------ ------ ---- -- ------<br>------- --- French ----- --- ---- ------- -- ---- --- --<br>------- ------,286954,286916,286770,286757,286787,286987,,45,French
screen,html.Screen,1_1_1_1_46,2021-03-26T16:15:58.844Z,,,,,,,,,,,,,,,,54,,,,,,,,,,,,,,138,response,,,,100,,,,,,Space,keypress(Space),,,,,,,,-- --- ---- --- ------ ----- ------- ---- -- --- ------- --<br>------- ---------- ------ -- ----- -- ----- -- ---- ------<br>--- ----- --- --- ------ -------- ----- --- ------ ----- --<br>----- ----- ---------- --- --- ------ ------ ---- -- ------<br>------- --- ------ state --- ---- ------- -- ---- --- --<br>------- ------,287146,287108,286970,286954,286987,287171,,46,state
screen,html.Screen,1_1_1_1_47,2021-03-26T16:15:59.315Z,,,,,,,,,,,,,,,,54,,,,,,,,,,,,,,425,response,,,,100,,,,,,Space,keypress(Space),,,,,,,,-- --- ---- --- ------ ----- ------- ---- -- --- ------- --<br>------- ---------- ------ -- ----- -- ----- -- ---- ------<br>--- ----- --- --- ------ -------- ----- --- ------ ----- --<br>----- ----- ---------- --- --- ------ ------ ---- -- ------<br>------- --- ------ ----- was ---- ------- -- ---- --- --<br>------- ------,287617,287579,287154,287146,287171,287655,,47,was
screen,html.Screen,1_1_1_1_48,2021-03-26T16:15:59.710Z,,,,,,,,,,,,,,,,54,,,,,,,,,,,,,,335,response,,,,100,,,,,,Space,keypress(Space),,,,,,,,-- --- ---- --- ------ ----- ------- ---- -- --- ------- --<br>------- ---------- ------ -- ----- -- ----- -- ---- ------<br>--- ----- --- --- ------ -------- ----- --- ------ ----- --<br>----- ----- ---------- --- --- ------ ------ ---- -- ------<br>------- --- ------ ----- --- left ------- -- ---- --- --<br>------- ------,288011,287974,287639,287617,287655,288039,,48,left
screen,html.Screen,1_1_1_1_49,2021-03-26T16:16:00.108Z,,,,,,,,,,,,,,,,54,,,,,,,,,,,,,,349,response,,,,100,,,,,,Space,keypress(Space),,,,,,,,-- --- ---- --- ------ ----- ------- ---- -- --- ------- --<br>------- ---------- ------ -- ----- -- ----- -- ---- ------<br>--- ----- --- --- ------ -------- ----- --- ------ ----- --<br>----- ----- ---------- --- --- ------ ------ ---- -- ------<br>------- --- ------ ----- --- ---- without -- ---- --- --<br>------- ------,288410,288372,288023,288011,288039,288440,,49,without
screen,html.Screen,1_1_1_1_50,2021-03-26T16:16:00.521Z,,,,,,,,,,,,,,,,54,,,,,,,,,,,,,,361,response,,,,100,,,,,,Space,keypress(Space),,,,,,,,-- --- ---- --- ------ ----- ------- ---- -- --- ------- --<br>------- ---------- ------ -- ----- -- ----- -- ---- ------<br>--- ----- --- --- ------ -------- ----- --- ------ ----- --<br>----- ----- ---------- --- --- ------ ------ ---- -- ------<br>------- --- ------ ----- --- ---- ------- an ---- --- --<br>------- ------,288822,288785,288424,288410,288440,288859,,50,an
screen,html.Screen,1_1_1_1_51,2021-03-26T16:16:00.930Z,,,,,,,,,,,,,,,,54,,,,,,,,,,,,,,352,response,,,,100,,,,,,Space,keypress(Space),,,,,,,,-- --- ---- --- ------ ----- ------- ---- -- --- ------- --<br>------- ---------- ------ -- ----- -- ----- -- ---- ------<br>--- ----- --- --- ------ -------- ----- --- ------ ----- --<br>----- ----- ---------- --- --- ------ ------ ---- -- ------<br>------- --- ------ ----- --- ---- ------- -- easy --- --<br>------- ------,289232,289194,288842,288823,288859,289259,,51,easy
screen,html.Screen,1_1_1_1_52,2021-03-26T16:16:01.322Z,,,,,,,,,,,,,,,,54,,,,,,,,,,,,,,343,response,,,,100,,,,,,Space,keypress(Space),,,,,,,,-- --- ---- --- ------ ----- ------- ---- -- --- ------- --<br>------- ---------- ------ -- ----- -- ----- -- ---- ------<br>--- ----- --- --- ------ -------- ----- --- ------ ----- --<br>----- ----- ---------- --- --- ------ ------ ---- -- ------<br>------- --- ------ ----- --- ---- ------- -- ---- way --<br>------- ------,289624,289586,289243,289232,289259,289644,,52,way
screen,html.Screen,1_1_1_1_53,2021-03-26T16:16:01.692Z,,,,,,,,,,,,,,,,54,,,,,,,,,,,,,,329,response,,,,100,,,,,,Space,keypress(Space),,,,,,,,-- --- ---- --- ------ ----- ------- ---- -- --- ------- --<br>------- ---------- ------ -- ----- -- ----- -- ---- ------<br>--- ----- --- --- ------ -------- ----- --- ------ ----- --<br>----- ----- ---------- --- --- ------ ------ ---- -- ------<br>------- --- ------ ----- --- ---- ------- -- ---- --- of<br>------- ------,289994,289956,289627,289624,289644,290028,,53,of
screen,html.Screen,1_1_1_1_54,2021-03-26T16:16:02.134Z,,,,,,,,,,,,,,,,54,,,,,,,,,,,,,,387,response,,,,100,,,,,,Space,keypress(Space),,,,,,,,-- --- ---- --- ------ ----- ------- ---- -- --- ------- --<br>------- ---------- ------ -- ----- -- ----- -- ---- ------<br>--- ----- --- --- ------ -------- ----- --- ------ ----- --<br>----- ----- ---------- --- --- ------ ------ ---- -- ------<br>------- --- ------ ----- --- ---- ------- -- ---- --- --<br>raising ------,290435,290398,290011,289994,290028,290463,,54,raising
screen,html.Screen,1_1_1_1_55,2021-03-26T16:16:02.513Z,,,,,,,,,,,,,,,,54,,,,,,,,,,,,,,332,response,,,,100,,,,,,Space,keypress(Space),,,,,,,,-- --- ---- --- ------ ----- ------- ---- -- --- ------- --<br>------- ---------- ------ -- ----- -- ----- -- ---- ------<br>--- ----- --- --- ------ -------- ----- --- ------ ----- --<br>----- ----- ---------- --- --- ------ ------ ---- -- ------<br>------- --- ------ ----- --- ---- ------- -- ---- --- --<br>------- money.,290815,290777,290445,290436,290463,290847,,55,money.
Item 100,flow.Loop,1_1_1_1,2021-03-26T16:16:02.513Z,,,,,,,,,,,,,,,,,,,,,,,,,,,,,,24196,completion,,,,,A,,,,,,,,,,silence,,,,,290815,290777,266565,266566.00000000006,266581,290847,,,
Question 1,html.Screen,1_1_1_2,2021-03-26T16:16:08.933Z,,,,,,,,,,,,,,,,,,,,,,,,,,,true,TRUE,,6369,response,,,,100,A,,,,,TRUE,click #choice-1,,,,silence,,,,,297234,297198,290829,290815,290847,297264,,,
Question 2,html.Screen,1_1_1_3,2021-03-26T16:16:11.494Z,,,,,,,,,,,,,,,,,,,,,,,,,,,true,FALSE,,2511,response,,,,100,A,,,,,FALSE,click #choice-2,,,,silence,,,,,299795,299759,297248,297234,297264,299821,,,
Item 100,flow.Sequence,1_1_1,2021-03-26T16:16:11.494Z,,,,,,,,,,,,,,,,,,,,,,,,,,,,,,40179,completion,,,,,,,,,,,,,,,,,,,,299796,299759,259563,259554.00000000003,259580,299821,,,
End of Practice,html.Page,1_1_2,2021-03-26T16:16:13.543Z,,,,,,,,,,,,,,,,,,,,,,,,,,,,,,2023,form submission,,,,,,,,,,,,,,,,,,,,301845,301844,299805,299796,299821,301877,,,
Practice,flow.Sequence,1_1,2021-03-26T16:16:13.543Z,,,,,,,,,,,,,,,,,,,,,,,,,,,,,,85345,completion,,,,,,,,,,,,,,,,,,,,301845,301844,216482,216467,216499,301877,,,
Trap_instruction,html.Page,1_2_0,2021-03-26T16:16:17.067Z,,,,,,,,,,,,,,,,,,,,,,,,,,,,,,3491,form submission,,,,,,,,,,,,,,,,,,,,305368,305368,301860,301845,301877,305471,,,
trap_trial,html.Screen,1_2_1,2021-03-26T16:16:22.143Z,,,,,,,,,,,,,,,,,,,,,,,,,,,true,1,,4962,response,,,,,,,,,,1,click #choice-1,,,,,,,,,310444,310408,305446,305368,305471,310483,,,
end of trap trial,html.Page,1_2_2,2021-03-26T16:16:24.140Z,,,,,,,,,,,,,,,,,,,,,,,,,,,,,,1958.0000000000582,form submission,,,,,,,,,,,,,,,,,,,,312441.00000000006,312441.00000000006,310460,310445,310483,312472,,,
Trap 1,flow.Sequence,1_2,2021-03-26T16:16:24.141Z,,,,,,,,,,,,,,,,,,,,,,,,,,,,,,10564.000000000058,completion,,,,,,,,,,,,,,,,,,,,312442,312441.00000000006,301860,301845,301877,312472,,,
Holding screen,html.Screen,1_3_0_0,2021-03-26T16:16:31.155Z,,,,,,,,,,,,,,,,,,,,,,,,,,,,,,7002,timeout,,,,,,,,,,,,,,,,,,,,319456,319456,312455,312442,312472,319474,,,
screen,html.Screen,1_3_0_1_0,2021-03-26T16:16:32.654Z,,,,,,,,,,,,,,,,15,,,,,,,,,,,,,,1459,response,,,,7,A,,,,,Space,keypress(Space),,,,silence,,,,Greg --------- ---------- - --- ------- -- --- ------------<br>----- -- -------- ------- ---- ------ - -------- ---- -----<br>--- ------- ---- -- --- -------- --- - ----- ------ ---- --<br>-------- --- -------- -------- --- -------- ---- -- ----- -<br>-------- ---- --- ---------- --------- -- ------- ------ -<br>--------- ----- -----,320955,320915,319456,319457,319474,320995,,0,Greg
screen,html.Screen,1_3_0_1_1,2021-03-26T16:16:33.076Z,,,,,,,,,,,,,,,,15,,,,,,,,,,,,,,360,response,,,,7,A,,,,,Space,keypress(Space),,,,silence,,,,"---- Anderson, ---------- - --- ------- -- --- ------------<br>----- -- -------- ------- ---- ------ - -------- ---- -----<br>--- ------- ---- -- --- -------- --- - ----- ------ ---- --<br>-------- --- -------- -------- --- -------- ---- -- ----- -<br>-------- ---- --- ---------- --------- -- ------- ------ -<br>--------- ----- -----",321377,321338,320978,320955,320995,321412,,1,"Anderson,"
screen,html.Screen,1_3_0_1_2,2021-03-26T16:16:33.845Z,,,,,,,,,,,,,,,,15,,,,,,,,,,,,,,712,response,,,,7,A,,,,,Space,keypress(Space),,,,silence,,,,---- --------- considered - --- ------- -- --- ------------<br>----- -- -------- ------- ---- ------ - -------- ---- -----<br>--- ------- ---- -- --- -------- --- - ----- ------ ---- --<br>-------- --- -------- -------- --- -------- ---- -- ----- -<br>-------- ---- --- ---------- --------- -- ------- ------ -<br>--------- ----- -----,322145,322107,321395,321377,321412,322181,,2,considered
screen,html.Screen,1_3_0_1_3,2021-03-26T16:16:34.368Z,,,,,,,,,,,,,,,,15,,,,,,,,,,,,,,466,response,,,,7,A,,,,,Space,keypress(Space),,,,silence,,,,---- --------- ---------- a --- ------- -- --- ------------<br>----- -- -------- ------- ---- ------ - -------- ---- -----<br>--- ------- ---- -- --- -------- --- - ----- ------ ---- --<br>-------- --- -------- -------- --- -------- ---- -- ----- -<br>-------- ---- --- ---------- --------- -- ------- ------ -<br>--------- ----- -----,322668,322630,322164,322146,322181,322699,,3,a
screen,html.Screen,1_3_0_1_4,2021-03-26T16:16:34.926Z,,,,,,,,,,,,,,,,15,,,,,,,,,,,,,,502,response,,,,7,A,,,,,Space,keypress(Space),,,,silence,,,,---- --------- ---------- - key ------- -- --- ------------<br>----- -- -------- ------- ---- ------ - -------- ---- -----<br>--- ------- ---- -- --- -------- --- - ----- ------ ---- --<br>-------- --- -------- -------- --- -------- ---- -- ----- -<br>-------- ---- --- ---------- --------- -- ------- ------ -<br>--------- ----- -----,323226,323185,322683,322669,322699,323267,,4,key
screen,html.Screen,1_3_0_1_5,2021-03-26T16:16:35.396Z,,,,,,,,,,,,,,,,15,,,,,,,,,,,,,,406,response,,,,7,A,,,,,Space,keypress(Space),,,,silence,,,,---- --------- ---------- - --- witness -- --- ------------<br>----- -- -------- ------- ---- ------ - -------- ---- -----<br>--- ------- ---- -- --- -------- --- - ----- ------ ---- --<br>-------- --- -------- -------- --- -------- ---- -- ----- -<br>-------- ---- --- ---------- --------- -- ------- ------ -<br>--------- ----- -----,323696,323657,323251,323226,323267,323735,,5,witness
screen,html.Screen,1_3_0_1_6,2021-03-26T16:16:35.865Z,,,,,,,,,,,,,,,,15,,,,,,,,,,,,,,408.0000000000582,response,,,,7,A,,,,,Space,keypress(Space),,,,silence,,,,---- --------- ---------- - --- ------- by --- ------------<br>----- -- -------- ------- ---- ------ - -------- ---- -----<br>--- ------- ---- -- --- -------- --- - ----- ------ ---- --<br>-------- --- -------- -------- --- -------- ---- -- ----- -<br>-------- ---- --- ---------- --------- -- ------- ------ -<br>--------- ----- -----,324165,324126.00000000006,323718,323697,323735,324203,,6,by
screen,html.Screen,1_3_0_1_7,2021-03-26T16:16:36.308Z,,,,,,,,,,,,,,,,15,,,,,,,,,,,,,,383,response,,,,7,A,,,,,Space,keypress(Space),,,,silence,,,,---- --------- ---------- - --- ------- -- the ------------<br>----- -- -------- ------- ---- ------ - -------- ---- -----<br>--- ------- ---- -- --- -------- --- - ----- ------ ---- --<br>-------- --- -------- -------- --- -------- ---- -- ----- -<br>-------- ---- --- ---------- --------- -- ------- ------ -<br>--------- ----- -----,324609,324570,324187,324166,324203,324637,,7,the
screen,html.Screen,1_3_0_1_8,2021-03-26T16:16:36.992Z,,,,,,,,,,,,,,,,15,,,,,,,,,,,,,,632,response,,,,7,A,,,,,Space,keypress(Space),,,,silence,,,,"---- --------- ---------- - --- ------- -- --- prosecution,<br>----- -- -------- ------- ---- ------ - -------- ---- -----<br>--- ------- ---- -- --- -------- --- - ----- ------ ---- --<br>-------- --- -------- -------- --- -------- ---- -- ----- -<br>-------- ---- --- ---------- --------- -- ------- ------ -<br>--------- ----- -----",325292.00000000006,325253,324621,324609,324637,325322,,8,"prosecution,"
screen,html.Screen,1_3_0_1_9,2021-03-26T16:16:37.514Z,,,,,,,,,,,,,,,,15,,,,,,,,,,,,,,470,response,,,,7,A,,,,,Space,keypress(Space),,,,silence,,,,---- --------- ---------- - --- ------- -- --- ------------<br>vowed -- -------- ------- ---- ------ - -------- ---- -----<br>--- ------- ---- -- --- -------- --- - ----- ------ ---- --<br>-------- --- -------- -------- --- -------- ---- -- ----- -<br>-------- ---- --- ---------- --------- -- ------- ------ -<br>--------- ----- -----,325815,325776,325306,325292.00000000006,325322,325858,,9,vowed
screen,html.Screen,1_3_0_1_10,2021-03-26T16:16:37.953Z,,,,,,,,,,,,,,,,15,,,,,,,,,,,,,,374,response,,,,7,A,,,,,Space,keypress(Space),,,,silence,,,,---- --------- ---------- - --- ------- -- --- ------------<br>----- he -------- ------- ---- ------ - -------- ---- -----<br>--- ------- ---- -- --- -------- --- - ----- ------ ---- --<br>-------- --- -------- -------- --- -------- ---- -- ----- -<br>-------- ---- --- ---------- --------- -- ------- ------ -<br>--------- ----- -----,326253,326214,325840,325815,325858,326292,,10,he
screen,html.Screen,1_3_0_1_11,2021-03-26T16:16:38.366Z,,,,,,,,,,,,,,,,15,,,,,,,,,,,,,,352,response,,,,7,A,,,,,Space,keypress(Space),,,,silence,,,,---- --------- ---------- - --- ------- -- --- ------------<br>----- -- wouldn't ------- ---- ------ - -------- ---- -----<br>--- ------- ---- -- --- -------- --- - ----- ------ ---- --<br>-------- --- -------- -------- --- -------- ---- -- ----- -<br>-------- ---- --- ---------- --------- -- ------- ------ -<br>--------- ----- -----,326667.00000000006,326627,326275,326253,326292,326709,,11,wouldn't
screen,html.Screen,1_3_0_1_12,2021-03-26T16:16:38.855Z,,,,,,,,,,,,,,,,15,,,,,,,,,,,,,,423,response,,,,7,A,,,,,Space,keypress(Space),,,,silence,,,,---- --------- ---------- - --- ------- -- --- ------------<br>----- -- -------- testify ---- ------ - -------- ---- -----<br>--- ------- ---- -- --- -------- --- - ----- ------ ---- --<br>-------- --- -------- -------- --- -------- ---- -- ----- -<br>-------- ---- --- ---------- --------- -- ------- ------ -<br>--------- ----- -----,327155.00000000006,327116,326693,326667.00000000006,326709,327195,,12,testify
screen,html.Screen,1_3_0_1_13,2021-03-26T16:16:39.307Z,,,,,,,,,,,,,,,,15,,,,,,,,,,,,,,390,response,,,,7,A,,,,,Space,keypress(Space),,,,silence,,,,---- --------- ---------- - --- ------- -- --- ------------<br>----- -- -------- ------- when ------ - -------- ---- -----<br>--- ------- ---- -- --- -------- --- - ----- ------ ---- --<br>-------- --- -------- -------- --- -------- ---- -- ----- -<br>-------- ---- --- ---------- --------- -- ------- ------ -<br>--------- ----- -----,327607,327568,327178,327155.00000000006,327195,327645,,13,when
screen,html.Screen,1_3_0_1_14,2021-03-26T16:16:39.719Z,,,,,,,,,,,,,,,,15,,,,,,,,,,,,,,351,response,,,,7,A,,,,,Space,keypress(Space),,,,silence,,,,---- --------- ---------- - --- ------- -- --- ------------<br>----- -- -------- ------- ---- served - -------- ---- -----<br>--- ------- ---- -- --- -------- --- - ----- ------ ---- --<br>-------- --- -------- -------- --- -------- ---- -- ----- -<br>-------- ---- --- ---------- --------- -- ------- ------ -<br>--------- ----- -----,328019,327980,327629,327608,327645,328047,,14,served
screen,html.Screen,1_3_0_1_15,2021-03-26T16:16:40.143Z,,,,,,,,,,,,,,,,15,,,,,,,,,,,,,,374,response,,,,7,A,,,,,Space,keypress(Space),,,,silence,,,,---- --------- ---------- - --- ------- -- --- ------------<br>----- -- -------- ------- ---- ------ a -------- ---- -----<br>--- ------- ---- -- --- -------- --- - ----- ------ ---- --<br>-------- --- -------- -------- --- -------- ---- -- ----- -<br>-------- ---- --- ---------- --------- -- ------- ------ -<br>--------- ----- -----,328444,328404,328030,328019,328047,328480,,15,a
screen,html.Screen,1_3_0_1_16,2021-03-26T16:16:41.599Z,,,,,,,,,,,,,,,,15,,,,,,,,,,,,,,1396,response,,,,7,A,,,,,Space,keypress(Space),,,,silence,,,,---- --------- ---------- - --- ------- -- --- ------------<br>----- -- -------- ------- ---- ------ - subpoena ---- -----<br>--- ------- ---- -- --- -------- --- - ----- ------ ---- --<br>-------- --- -------- -------- --- -------- ---- -- ----- -<br>-------- ---- --- ---------- --------- -- ------- ------ -<br>--------- ----- -----,329899,329860,328464,328444,328480,329935,,16,subpoena
screen,html.Screen,1_3_0_1_17,2021-03-26T16:16:42.102Z,,,,,,,,,,,,,,,,15,,,,,,,,,,,,,,446,response,,,,7,A,,,,,Space,keypress(Space),,,,silence,,,,---- --------- ---------- - --- ------- -- --- ------------<br>----- -- -------- ------- ---- ------ - -------- last -----<br>--- ------- ---- -- --- -------- --- - ----- ------ ---- --<br>-------- --- -------- -------- --- -------- ---- -- ----- -<br>-------- ---- --- ---------- --------- -- ------- ------ -<br>--------- ----- -----,330402,330363,329917,329899,329935,330436,,17,last
screen,html.Screen,1_3_0_1_18,2021-03-26T16:16:42.561Z,,,,,,,,,,,,,,,,15,,,,,,,,,,,,,,403,response,,,,7,A,,,,,Space,keypress(Space),,,,silence,,,,---- --------- ---------- - --- ------- -- --- ------------<br>----- -- -------- ------- ---- ------ - -------- ---- week.<br>--- ------- ---- -- --- -------- --- - ----- ------ ---- --<br>-------- --- -------- -------- --- -------- ---- -- ----- -<br>-------- ---- --- ---------- --------- -- ------- ------ -<br>--------- ----- -----,330861,330822,330419,330402,330436,330904,,18,week.
screen,html.Screen,1_3_0_1_19,2021-03-26T16:16:43.041Z,,,,,,,,,,,,,,,,15,,,,,,,,,,,,,,414,response,,,,7,A,,,,,Space,keypress(Space),,,,silence,,,,---- --------- ---------- - --- ------- -- --- ------------<br>----- -- -------- ------- ---- ------ - -------- ---- -----<br>His ------- ---- -- --- -------- --- - ----- ------ ---- --<br>-------- --- -------- -------- --- -------- ---- -- ----- -<br>-------- ---- --- ---------- --------- -- ------- ------ -<br>--------- ----- -----,331341,331302,330888,330861,330904,331372,,19,His
screen,html.Screen,1_3_0_1_20,2021-03-26T16:16:43.415Z,,,,,,,,,,,,,,,,15,,,,,,,,,,,,,,322,response,,,,7,A,,,,,Space,keypress(Space),,,,silence,,,,---- --------- ---------- - --- ------- -- --- ------------<br>----- -- -------- ------- ---- ------ - -------- ---- -----<br>--- lawyers ---- -- --- -------- --- - ----- ------ ---- --<br>-------- --- -------- -------- --- -------- ---- -- ----- -<br>-------- ---- --- ---------- --------- -- ------- ------ -<br>--------- ----- -----,331716,331677,331355,331341,331372,331739,,20,lawyers
screen,html.Screen,1_3_0_1_21,2021-03-26T16:16:43.855Z,,,,,,,,,,,,,,,,15,,,,,,,,,,,,,,394,response,,,,7,A,,,,,Space,keypress(Space),,,,silence,,,,---- --------- ---------- - --- ------- -- --- ------------<br>----- -- -------- ------- ---- ------ - -------- ---- -----<br>--- ------- said -- --- -------- --- - ----- ------ ---- --<br>-------- --- -------- -------- --- -------- ---- -- ----- -<br>-------- ---- --- ---------- --------- -- ------- ------ -<br>--------- ----- -----,332156,332117,331723,331716,331739,332191,,21,said
screen,html.Screen,1_3_0_1_22,2021-03-26T16:16:44.270Z,,,,,,,,,,,,,,,,15,,,,,,,,,,,,,,358,response,,,,7,A,,,,,Space,keypress(Space),,,,silence,,,,---- --------- ---------- - --- ------- -- --- ------------<br>----- -- -------- ------- ---- ------ - -------- ---- -----<br>--- ------- ---- he --- -------- --- - ----- ------ ---- --<br>-------- --- -------- -------- --- -------- ---- -- ----- -<br>-------- ---- --- ---------- --------- -- ------- ------ -<br>--------- ----- -----,332570,332531,332173,332156,332191,332608,,22,he
screen,html.Screen,1_3_0_1_23,2021-03-26T16:16:44.716Z,,,,,,,,,,,,,,,,15,,,,,,,,,,,,,,385.0000000000582,response,,,,7,A,,,,,Space,keypress(Space),,,,silence,,,,---- --------- ---------- - --- ------- -- --- ------------<br>----- -- -------- ------- ---- ------ - -------- ---- -----<br>--- ------- ---- -- was -------- --- - ----- ------ ---- --<br>-------- --- -------- -------- --- -------- ---- -- ----- -<br>-------- ---- --- ---------- --------- -- ------- ------ -<br>--------- ----- -----,333016,332977.00000000006,332592,332570,332608,333043,,23,was
screen,html.Screen,1_3_0_1_24,2021-03-26T16:16:45.214Z,,,,,,,,,,,,,,,,15,,,,,,,,,,,,,,449,response,,,,7,A,,,,,Space,keypress(Space),,,,silence,,,,---- --------- ---------- - --- ------- -- --- ------------<br>----- -- -------- ------- ---- ------ - -------- ---- -----<br>--- ------- ---- -- --- prepared --- - ----- ------ ---- --<br>-------- --- -------- -------- --- -------- ---- -- ----- -<br>-------- ---- --- ---------- --------- -- ------- ------ -<br>--------- ----- -----,333515,333476,333027,333016,333043,333544,,24,prepared
screen,html.Screen,1_3_0_1_25,2021-03-26T16:16:45.652Z,,,,,,,,,,,,,,,,15,,,,,,,,,,,,,,386,response,,,,7,A,,,,,Space,keypress(Space),,,,silence,,,,---- --------- ---------- - --- ------- -- --- ------------<br>----- -- -------- ------- ---- ------ - -------- ---- -----<br>--- ------- ---- -- --- -------- for - ----- ------ ---- --<br>-------- --- -------- -------- --- -------- ---- -- ----- -<br>-------- ---- --- ---------- --------- -- ------- ------ -<br>--------- ----- -----,333953.00000000006,333913,333527,333515,333544,333995,,25,for
screen,html.Screen,1_3_0_1_26,2021-03-26T16:16:46.051Z,,,,,,,,,,,,,,,,15,,,,,,,,,,,,,,333,response,,,,7,A,,,,,Space,keypress(Space),,,,silence,,,,---- --------- ---------- - --- ------- -- --- ------------<br>----- -- -------- ------- ---- ------ - -------- ---- -----<br>--- ------- ---- -- --- -------- --- a ----- ------ ---- --<br>-------- --- -------- -------- --- -------- ---- -- ----- -<br>-------- ---- --- ---------- --------- -- ------- ------ -<br>--------- ----- -----,334351,334312,333979,333953.00000000006,333995,334380,,26,a
screen,html.Screen,1_3_0_1_27,2021-03-26T16:16:46.479Z,,,,,,,,,,,,,,,,15,,,,,,,,,,,,,,378,response,,,,7,A,,,,,Space,keypress(Space),,,,silence,,,,---- --------- ---------- - --- ------- -- --- ------------<br>----- -- -------- ------- ---- ------ - -------- ---- -----<br>--- ------- ---- -- --- -------- --- - third ------ ---- --<br>-------- --- -------- -------- --- -------- ---- -- ----- -<br>-------- ---- --- ---------- --------- -- ------- ------ -<br>--------- ----- -----,334779,334741,334363,334351,334380,334815,,27,third
screen,html.Screen,1_3_0_1_28,2021-03-26T16:16:46.873Z,,,,,,,,,,,,,,,,15,,,,,,,,,,,,,,336,response,,,,7,A,,,,,Space,keypress(Space),,,,silence,,,,---- --------- ---------- - --- ------- -- --- ------------<br>----- -- -------- ------- ---- ------ - -------- ---- -----<br>--- ------- ---- -- --- -------- --- - ----- prison ---- --<br>-------- --- -------- -------- --- -------- ---- -- ----- -<br>-------- ---- --- ---------- --------- -- ------- ------ -<br>--------- ----- -----,335174.00000000006,335134,334798,334780.00000000006,334815,335199,,28,prison
screen,html.Screen,1_3_0_1_29,2021-03-26T16:16:47.312Z,,,,,,,,,,,,,,,,15,,,,,,,,,,,,,,392,response,,,,7,A,,,,,Space,keypress(Space),,,,silence,,,,---- --------- ---------- - --- ------- -- --- ------------<br>----- -- -------- ------- ---- ------ - -------- ---- -----<br>--- ------- ---- -- --- -------- --- - ----- ------ stay --<br>-------- --- -------- -------- --- -------- ---- -- ----- -<br>-------- ---- --- ---------- --------- -- ------- ------ -<br>--------- ----- -----,335613,335573,335181,335174.00000000006,335199,335650,,29,stay
screen,html.Screen,1_3_0_1_30,2021-03-26T16:16:47.725Z,,,,,,,,,,,,,,,,15,,,,,,,,,,,,,,352,response,,,,7,A,,,,,Space,keypress(Space),,,,silence,,,,---- --------- ---------- - --- ------- -- --- ------------<br>----- -- -------- ------- ---- ------ - -------- ---- -----<br>--- ------- ---- -- --- -------- --- - ----- ------ ---- to<br>-------- --- -------- -------- --- -------- ---- -- ----- -<br>-------- ---- --- ---------- --------- -- ------- ------ -<br>--------- ----- -----,336026,335986,335634,335613,335650,336068,,30,to
screen,html.Screen,1_3_0_1_31,2021-03-26T16:16:48.111Z,,,,,,,,,,,,,,,,15,,,,,,,,,,,,,,320,response,,,,7,A,,,,,Space,keypress(Space),,,,silence,,,,---- --------- ---------- - --- ------- -- --- ------------<br>----- -- -------- ------- ---- ------ - -------- ---- -----<br>--- ------- ---- -- --- -------- --- - ----- ------ ---- --<br>maintain --- -------- -------- --- -------- ---- -- ----- -<br>-------- ---- --- ---------- --------- -- ------- ------ -<br>--------- ----- -----,336411,336371,336051,336026,336068,336435,,31,maintain
screen,html.Screen,1_3_0_1_32,2021-03-26T16:16:48.539Z,,,,,,,,,,,,,,,,15,,,,,,,,,,,,,,381,response,,,,7,A,,,,,Space,keypress(Space),,,,silence,,,,---- --------- ---------- - --- ------- -- --- ------------<br>----- -- -------- ------- ---- ------ - -------- ---- -----<br>--- ------- ---- -- --- -------- --- - ----- ------ ---- --<br>-------- his -------- -------- --- -------- ---- -- ----- -<br>-------- ---- --- ---------- --------- -- ------- ------ -<br>--------- ----- -----,336840.00000000006,336800,336419,336411,336435,336869,,32,his
screen,html.Screen,1_3_0_1_33,2021-03-26T16:16:48.998Z,,,,,,,,,,,,,,,,15,,,,,,,,,,,,,,406,response,,,,7,A,,,,,Space,keypress(Space),,,,silence,,,,---- --------- ---------- - --- ------- -- --- ------------<br>----- -- -------- ------- ---- ------ - -------- ---- -----<br>--- ------- ---- -- --- -------- --- - ----- ------ ---- --<br>-------- --- silence. -------- --- -------- ---- -- ----- -<br>-------- ---- --- ---------- --------- -- ------- ------ -<br>--------- ----- -----,337299.00000000006,337259,336853,336840.00000000006,336869,337338,,33,silence.
screen,html.Screen,1_3_0_1_34,2021-03-26T16:16:49.450Z,,,,,,,,,,,,,,,,15,,,,,,,,,,,,,,389,response,,,,7,A,,,,,Space,keypress(Space),,,,silence,,,,---- --------- ---------- - --- ------- -- --- ------------<br>----- -- -------- ------- ---- ------ - -------- ---- -----<br>--- ------- ---- -- --- -------- --- - ----- ------ ---- --<br>-------- --- -------- Anderson --- -------- ---- -- ----- -<br>-------- ---- --- ---------- --------- -- ------- ------ -<br>--------- ----- -----,337750,337711,337322,337299.00000000006,337338,337788,,34,Anderson
screen,html.Screen,1_3_0_1_35,2021-03-26T16:16:49.921Z,,,,,,,,,,,,,,,,15,,,,,,,,,,,,,,409,response,,,,7,A,,,,,Space,keypress(Space),,,,silence,,,,---- --------- ---------- - --- ------- -- --- ------------<br>----- -- -------- ------- ---- ------ - -------- ---- -----<br>--- ------- ---- -- --- -------- --- - ----- ------ ---- --<br>-------- --- -------- -------- was -------- ---- -- ----- -<br>-------- ---- --- ---------- --------- -- ------- ------ -<br>--------- ----- -----,338222,338182,337773,337751.00000000006,337788,338257,,35,was
screen,html.Screen,1_3_0_1_36,2021-03-26T16:16:50.412Z,,,,,,,,,,,,,,,,15,,,,,,,,,,,,,,433,response,,,,7,A,,,,,Space,keypress(Space),,,,silence,,,,---- --------- ---------- - --- ------- -- --- ------------<br>----- -- -------- ------- ---- ------ - -------- ---- -----<br>--- ------- ---- -- --- -------- --- - ----- ------ ---- --<br>-------- --- -------- -------- --- released ---- -- ----- -<br>-------- ---- --- ---------- --------- -- ------- ------ -<br>--------- ----- -----,338712,338673,338240,338222,338257,338741,,36,released
screen,html.Screen,1_3_0_1_37,2021-03-26T16:16:50.834Z,,,,,,,,,,,,,,,,15,,,,,,,,,,,,,,370,response,,,,7,A,,,,,Space,keypress(Space),,,,silence,,,,---- --------- ---------- - --- ------- -- --- ------------<br>----- -- -------- ------- ---- ------ - -------- ---- -----<br>--- ------- ---- -- --- -------- --- - ----- ------ ---- --<br>-------- --- -------- -------- --- -------- July -- ----- -<br>-------- ---- --- ---------- --------- -- ------- ------ -<br>--------- ----- -----,339134,339095,338725,338712,338741,339176,,37,July
screen,html.Screen,1_3_0_1_38,2021-03-26T16:16:51.250Z,,,,,,,,,,,,,,,,15,,,,,,,,,,,,,,352,response,,,,7,A,,,,,Space,keypress(Space),,,,silence,,,,---- --------- ---------- - --- ------- -- --- ------------<br>----- -- -------- ------- ---- ------ - -------- ---- -----<br>--- ------- ---- -- --- -------- --- - ----- ------ ---- --<br>-------- --- -------- -------- --- -------- ---- 20 ----- -<br>-------- ---- --- ---------- --------- -- ------- ------ -<br>--------- ----- -----,339550,339511,339159,339135,339176,339577,,38,20
screen,html.Screen,1_3_0_1_39,2021-03-26T16:16:51.687Z,,,,,,,,,,,,,,,,15,,,,,,,,,,,,,,388,response,,,,7,A,,,,,Space,keypress(Space),,,,silence,,,,---- --------- ---------- - --- ------- -- --- ------------<br>----- -- -------- ------- ---- ------ - -------- ---- -----<br>--- ------- ---- -- --- -------- --- - ----- ------ ---- --<br>-------- --- -------- -------- --- -------- ---- -- after -<br>-------- ---- --- ---------- --------- -- ------- ------ -<br>--------- ----- -----,339988,339948,339560,339550,339577,340028,,39,after
screen,html.Screen,1_3_0_1_40,2021-03-26T16:16:52.124Z,,,,,,,,,,,,,,,,15,,,,,,,,,,,,,,374,response,,,,7,A,,,,,Space,keypress(Space),,,,silence,,,,---- --------- ---------- - --- ------- -- --- ------------<br>----- -- -------- ------- ---- ------ - -------- ---- -----<br>--- ------- ---- -- --- -------- --- - ----- ------ ---- --<br>-------- --- -------- -------- --- -------- ---- -- ----- a<br>-------- ---- --- ---------- --------- -- ------- ------ -<br>--------- ----- -----,340425,340385,340011,339988,340028,340463,,40,a
screen,html.Screen,1_3_0_1_41,2021-03-26T16:16:52.616Z,,,,,,,,,,,,,,,,15,,,,,,,,,,,,,,432,response,,,,7,A,,,,,Space,keypress(Space),,,,silence,,,,---- --------- ---------- - --- ------- -- --- ------------<br>----- -- -------- ------- ---- ------ - -------- ---- -----<br>--- ------- ---- -- --- -------- --- - ----- ------ ---- --<br>-------- --- -------- -------- --- -------- ---- -- ----- -<br>two-week ---- --- ---------- --------- -- ------- ------ -<br>--------- ----- -----,340916,340877,340445,340425,340463,340947,,41,two-week
screen,html.Screen,1_3_0_1_42,2021-03-26T16:16:52.984Z,,,,,,,,,,,,,,,,15,,,,,,,,,,,,,,314,response,,,,7,A,,,,,Space,keypress(Space),,,,silence,,,,---- --------- ---------- - --- ------- -- --- ------------<br>----- -- -------- ------- ---- ------ - -------- ---- -----<br>--- ------- ---- -- --- -------- --- - ----- ------ ---- --<br>-------- --- -------- -------- --- -------- ---- -- ----- -<br>-------- stay --- ---------- --------- -- ------- ------ -<br>--------- ----- -----,341284,341245,340931,340916,340947,341315,,42,stay
screen,html.Screen,1_3_0_1_43,2021-03-26T16:16:53.486Z,,,,,,,,,,,,,,,,15,,,,,,,,,,,,,,448,response,,,,7,A,,,,,Space,keypress(Space),,,,silence,,,,---- --------- ---------- - --- ------- -- --- ------------<br>----- -- -------- ------- ---- ------ - -------- ---- -----<br>--- ------- ---- -- --- -------- --- - ----- ------ ---- --<br>-------- --- -------- -------- --- -------- ---- -- ----- -<br>-------- ---- for ---------- --------- -- ------- ------ -<br>--------- ----- -----,341787.00000000006,341747,341299,341284,341315,341816,,43,for
screen,html.Screen,1_3_0_1_44,2021-03-26T16:16:54.090Z,,,,,,,,,,,,,,,,15,,,,,,,,,,,,,,551,response,,,,7,A,,,,,Space,keypress(Space),,,,silence,,,,---- --------- ---------- - --- ------- -- --- ------------<br>----- -- -------- ------- ---- ------ - -------- ---- -----<br>--- ------- ---- -- --- -------- --- - ----- ------ ---- --<br>-------- --- -------- -------- --- -------- ---- -- ----- -<br>-------- ---- --- previously --------- -- ------- ------ -<br>--------- ----- -----,342390,342351,341800,341787.00000000006,341816,342418,,44,previously
screen,html.Screen,1_3_0_1_45,2021-03-26T16:16:54.606Z,,,,,,,,,,,,,,,,15,,,,,,,,,,,,,,466,response,,,,7,A,,,,,Space,keypress(Space),,,,silence,,,,---- --------- ---------- - --- ------- -- --- ------------<br>----- -- -------- ------- ---- ------ - -------- ---- -----<br>--- ------- ---- -- --- -------- --- - ----- ------ ---- --<br>-------- --- -------- -------- --- -------- ---- -- ----- -<br>-------- ---- --- ---------- declining -- ------- ------ -<br>--------- ----- -----,342906,342867,342401,342390,342418,342936,,45,declining
screen,html.Screen,1_3_0_1_46,2021-03-26T16:16:55.075Z,,,,,,,,,,,,,,,,15,,,,,,,,,,,,,,416,response,,,,7,A,,,,,Space,keypress(Space),,,,silence,,,,---- --------- ---------- - --- ------- -- --- ------------<br>----- -- -------- ------- ---- ------ - -------- ---- -----<br>--- ------- ---- -- --- -------- --- - ----- ------ ---- --<br>-------- --- -------- -------- --- -------- ---- -- ----- -<br>-------- ---- --- ---------- --------- to ------- ------ -<br>--------- ----- -----,343375,343336,342920,342906,342936,343404,,46,to
screen,html.Screen,1_3_0_1_47,2021-03-26T16:16:55.488Z,,,,,,,,,,,,,,,,15,,,,,,,,,,,,,,361,response,,,,7,A,,,,,Space,keypress(Space),,,,silence,,,,---- --------- ---------- - --- ------- -- --- ------------<br>----- -- -------- ------- ---- ------ - -------- ---- -----<br>--- ------- ---- -- --- -------- --- - ----- ------ ---- --<br>-------- --- -------- -------- --- -------- ---- -- ----- -<br>-------- ---- --- ---------- --------- -- testify ------ -<br>--------- ----- -----,343788,343748,343387,343375,343404,343821,,47,testify
screen,html.Screen,1_3_0_1_48,2021-03-26T16:16:55.942Z,,,,,,,,,,,,,,,,15,,,,,,,,,,,,,,397,response,,,,7,A,,,,,Space,keypress(Space),,,,silence,,,,---- --------- ---------- - --- ------- -- --- ------------<br>----- -- -------- ------- ---- ------ - -------- ---- -----<br>--- ------- ---- -- --- -------- --- - ----- ------ ---- --<br>-------- --- -------- -------- --- -------- ---- -- ----- -<br>-------- ---- --- ---------- --------- -- ------- before -<br>--------- ----- -----,344242,344202,343805,343788,343821,344273,,48,before
screen,html.Screen,1_3_0_1_49,2021-03-26T16:16:56.342Z,,,,,,,,,,,,,,,,15,,,,,,,,,,,,,,346.0000000000582,response,,,,7,A,,,,,Space,keypress(Space),,,,silence,,,,---- --------- ---------- - --- ------- -- --- ------------<br>----- -- -------- ------- ---- ------ - -------- ---- -----<br>--- ------- ---- -- --- -------- --- - ----- ------ ---- --<br>-------- --- -------- -------- --- -------- ---- -- ----- -<br>-------- ---- --- ---------- --------- -- ------- ------ a<br>--------- ----- -----,344642,344602.00000000006,344256,344242,344273,344675,,49,a
screen,html.Screen,1_3_0_1_50,2021-03-26T16:16:56.811Z,,,,,,,,,,,,,,,,15,,,,,,,,,,,,,,413,response,,,,7,A,,,,,Space,keypress(Space),,,,silence,,,,---- --------- ---------- - --- ------- -- --- ------------<br>----- -- -------- ------- ---- ------ - -------- ---- -----<br>--- ------- ---- -- --- -------- --- - ----- ------ ---- --<br>-------- --- -------- -------- --- -------- ---- -- ----- -<br>-------- ---- --- ---------- --------- -- ------- ------ -<br>different ----- -----,345111,345071,344658,344642,344675,345141,,50,different
screen,html.Screen,1_3_0_1_51,2021-03-26T16:16:57.189Z,,,,,,,,,,,,,,,,15,,,,,,,,,,,,,,323,response,,,,7,A,,,,,Space,keypress(Space),,,,silence,,,,---- --------- ---------- - --- ------- -- --- ------------<br>----- -- -------- ------- ---- ------ - -------- ---- -----<br>--- ------- ---- -- --- -------- --- - ----- ------ ---- --<br>-------- --- -------- -------- --- -------- ---- -- ----- -<br>-------- ---- --- ---------- --------- -- ------- ------ -<br>--------- grand -----,345488,345448,345125,345111,345141,345509,,51,grand
screen,html.Screen,1_3_0_1_52,2021-03-26T16:16:57.535Z,,,,,,,,,,,,,,,,15,,,,,,,,,,,,,,301,response,,,,7,A,,,,,Space,keypress(Space),,,,silence,,,,---- --------- ---------- - --- ------- -- --- ------------<br>----- -- -------- ------- ---- ------ - -------- ---- -----<br>--- ------- ---- -- --- -------- --- - ----- ------ ---- --<br>-------- --- -------- -------- --- -------- ---- -- ----- -<br>-------- ---- --- ---------- --------- -- ------- ------ -<br>--------- ----- jury.,345834,345794,345493,345488,345509,345861,,52,jury.
Item 7,flow.Loop,1_3_0_1,2021-03-26T16:16:57.535Z,,,,,,,,,,,,,,,,,,,,,,,,,,,,,,26320,completion,,,,,,,,,,,,,,,,,,,,345834,345794,319456,319457,319474,345861,,,
Question 1,html.Screen,1_3_0_2,2021-03-26T16:17:01.251Z,,,,,,,,,,,,,,,,,,,,,,,,,,,true,FALSE,,3664,response,,,,7,A,,,,,FALSE,click #choice-2,,,,silence,,,,,349549.00000000006,349508,345844,345835,345861,349571,,,
Question 2,html.Screen,1_3_0_3,2021-03-26T16:17:04.492Z,,,,,,,,,,,,,,,,,,,,,,,,,,,true,TRUE,,3191,response,,,,7,A,,,,,TRUE,click #choice-1,,,,silence,,,,,352788,352745,349554,349549.00000000006,349571,352812,,,
Item 7,flow.Sequence,1_3_0,2021-03-26T16:17:04.492Z,,,,,,,,,,,,,,,,,,,,,,,,,,,,,,40273,completion,,,,,,,,,,,,,,,,,,,,352788,352745,312455,312442,312472,352812,,,
Holding screen,html.Screen,1_3_1_0,2021-03-26T16:17:11.504Z,,,,,,,,,,,,,,,,,,,,,,,,,,,,,,7003,timeout,,,,,,,,,,,,,,,,,,,,359798,359797,352795,352788,352812,359815,,,
screen,html.Screen,1_3_1_1_0,2021-03-26T16:17:12.186Z,,,,,,,,,,,,,,,,2,,,,,,,,,,,,,,635,response,,,,1,A,,,,,Space,keypress(Space),,,,silence,,,,Two ---- ------ --- ------- ---------- ------- ----------<br>--- --------- --- ----------- ------- ----- ------- ---<br>--------- ---- -- --- ---- -- --------- -- ---- -------<br>-- --------- ------ --- ----- ------ ---- --- --------- --<br>------ - ---- -- --- ----------- ------- ---- ----- -----<br>--- -------- - ------ ---- -- ----- ---- --- --- -----------<br>-- -------,360479,360432,359797,359798,359815,360517,,0,Two
screen,html.Screen,1_3_1_1_1,2021-03-26T16:17:12.552Z,,,,,,,,,,,,,,,,2,,,,,,,,,,,,,,298,response,,,,1,A,,,,,Space,keypress(Space),,,,silence,,,,--- days ------ --- ------- ---------- ------- ----------<br>--- --------- --- ----------- ------- ----- ------- ---<br>--------- ---- -- --- ---- -- --------- -- ---- -------<br>-- --------- ------ --- ----- ------ ---- --- --------- --<br>------ - ---- -- --- ----------- ------- ---- ----- -----<br>--- -------- - ------ ---- -- ----- ---- --- --- -----------<br>-- -------,360845,360798,360500,360479,360517,360867,,1,days
screen,html.Screen,1_3_1_1_2,2021-03-26T16:17:12.932Z,,,,,,,,,,,,,,,,2,,,,,,,,,,,,,,327,response,,,,1,A,,,,,Space,keypress(Space),,,,silence,,,,"--- ---- later, --- ------- ---------- ------- ----------<br>--- --------- --- ----------- ------- ----- ------- ---<br>--------- ---- -- --- ---- -- --------- -- ---- -------<br>-- --------- ------ --- ----- ------ ---- --- --------- --<br>------ - ---- -- --- ----------- ------- ---- ----- -----<br>--- -------- - ------ ---- -- ----- ---- --- --- -----------<br>-- -------",361225,361177,360850,360845,360867,361252,,2,"later,"
screen,html.Screen,1_3_1_1_3,2021-03-26T16:17:13.322Z,,,,,,,,,,,,,,,,2,,,,,,,,,,,,,,333,response,,,,1,A,,,,,Space,keypress(Space),,,,silence,,,,--- ---- ------ the ------- ---------- ------- ----------<br>--- --------- --- ----------- ------- ----- ------- ---<br>--------- ---- -- --- ---- -- --------- -- ---- -------<br>-- --------- ------ --- ----- ------ ---- --- --------- --<br>------ - ---- -- --- ----------- ------- ---- ----- -----<br>--- -------- - ------ ---- -- ----- ---- --- --- -----------<br>-- -------,361615,361567,361234,361225,361252,361635,,3,the
screen,html.Screen,1_3_1_1_4,2021-03-26T16:17:13.760Z,,,,,,,,,,,,,,,,2,,,,,,,,,,,,,,386,response,,,,1,A,,,,,Space,keypress(Space),,,,silence,,,,--- ---- ------ --- British ---------- ------- ----------<br>--- --------- --- ----------- ------- ----- ------- ---<br>--------- ---- -- --- ---- -- --------- -- ---- -------<br>-- --------- ------ --- ----- ------ ---- --- --------- --<br>------ - ---- -- --- ----------- ------- ---- ----- -----<br>--- -------- - ------ ---- -- ----- ---- --- --- -----------<br>-- -------,362052,362005,361619,361615,361635,362087,,4,British
screen,html.Screen,1_3_1_1_5,2021-03-26T16:17:14.135Z,,,,,,,,,,,,,,,,2,,,,,,,,,,,,,,310,response,,,,1,A,,,,,Space,keypress(Space),,,,silence,,,,--- ---- ------ --- ------- astronomer ------- ----------<br>--- --------- --- ----------- ------- ----- ------- ---<br>--------- ---- -- --- ---- -- --------- -- ---- -------<br>-- --------- ------ --- ----- ------ ---- --- --------- --<br>------ - ---- -- --- ----------- ------- ---- ----- -----<br>--- -------- - ------ ---- -- ----- ---- --- --- -----------<br>-- -------,362427,362380,362070,362052,362087,362454,,5,astronomer
