sender,sender_type,sender_id,timestamp,meta,,Blues,Classical,Country,Dance,Electronic,Folk,Gospel,Hip-Hop,Jazz,Latin,Musical/Film,New-age,Pop,Provo_ID,R&B,Rap,Reggae,Religious,Rock,Soul,Swing,Traditional,age,artist_name,correct,correctResponse,distraction,duration,ended_on,familiarity,gender,headphone_check_performance,item,list,offensiveness,pleasantness,position_correct,preference,response,response_action,snippet_file,song_name,song_rating,sound,stimulus_1,stimulus_2,stimulus_3,text,time_commit,time_end,time_render,time_run,time_show,time_switch,url,word,word_ID
Introduction,html.Screen,0_0,2021-03-27T20:00:18.445Z,"{""labjs_version"":""20.2.2"",""labjs_build"":{""flavor"":""production"",""commit"":""a25486e0c714a0ae2ce03ff94b7bb6896854dcfa""},""location"":""https://run.pavlovia.org/mvasilev/music_f/"",""userAgent"":""Mozilla/5.0 (Macintosh; Intel Mac OS X 10_15_6) AppleWebKit/605.1.15 (KHTML, like Gecko) Version/14.0.3 Safari/605.1.15"",""platform"":""MacIntel"",""language"":""en-gb"",""locale"":""en-GB"",""timeZone"":""Europe/London"",""timezoneOffset"":0,""screen_width"":1440,""screen_height"":900,""scroll_width"":1440,""scroll_height"":772,""window_innerWidth"":1440,""window_innerHeight"":820,""devicePixelRatio"":2}",,,,,,,,,,,,,,,,,,,,,,,,,,,,,16524,response,,,,,,,,,,continue,click button,,,,,,,,,23196,22667,6143,6127,6159,23206,{},,
Volume calibration,html.Screen,0_1,2021-03-27T20:00:43.009Z,,,,,,,,,,,,,,,,,,,,,,,,,,,,,,24568,response,,,,,,,,,,continue,click button,,,,,,,,,47762,47770,23202,23197,23206,47789,,,
Task instructions,html.Screen,0_2,2021-03-27T20:01:04.849Z,,,,,,,,,,,,,,,,,,,,,,,,,,,,,,21842,response,,,,,,,,,,continue,click button,,,,,,,,,69603,69614,47772,47762,47789,69634,,,
Sounds,html.Screen,0_3_0_0,2021-03-27T20:01:09.107Z,,,,,,,,,,,,,,,,,,,,,,,,,,,,,,4244,timeout,,,,,,,,3,,,,,,,,I,O,S,,73861,73860,69617,69604,69634,73878,,,
Judgement,html.Screen,0_3_0_1,2021-03-27T20:01:10.306Z,,,,,,,,,,,,,,,,,,,,,,,,,,,true,3,,1212,response,,,,,,,,3,,3,click #choice-3,,,,,I,O,S,,75060,75072,73860,73862,73878,75092,,,
Trial,flow.Sequence,0_3_0,2021-03-27T20:01:10.306Z,,,,,,,,,,,,,,,,,,,,,,,,,,,,,,5438,completion,,,,,,,,3,,,,,,,,I,O,S,,75061,75072,69617,69604,69634,75092,,,
Sounds,html.Screen,0_3_1_0,2021-03-27T20:01:14.576Z,,,,,,,,,,,,,,,,,,,,,,,,,,,,,,4261,timeout,,,,,,,,1,,,,,,,,S,O,I,,79330,79330,75076,75061,75092,79353,,,
Judgement,html.Screen,0_3_1_1,2021-03-27T20:01:15.193Z,,,,,,,,,,,,,,,,,,,,,,,,,,,true,1,,629,response,,,,,,,,1,,1,click #choice-1,,,,,S,O,I,,79947,79959,79330,79330,79353,79966,,,
Trial,flow.Sequence,0_3_1,2021-03-27T20:01:15.193Z,,,,,,,,,,,,,,,,,,,,,,,,,,,,,,4867,completion,,,,,,,,1,,,,,,,,S,O,I,,79948.00000000001,79959,75076,75061,75092,79966,,,
Sounds,html.Screen,0_3_2_0,2021-03-27T20:01:19.445Z,,,,,,,,,,,,,,,,,,,,,,,,,,,,,,4249,timeout,,,,,,,,2,,,,,,,,I,S,O,,84199,84199,79949,79948.00000000001,79966,84215,,,
Judgement,html.Screen,0_3_2_1,2021-03-27T20:01:19.921Z,,,,,,,,,,,,,,,,,,,,,,,,,,,true,2,,489,response,,,,,,,,2,,2,click #choice-2,,,,,I,S,O,,84676,84688,84199,84199,84215,84703,,,
Trial,flow.Sequence,0_3_2,2021-03-27T20:01:19.922Z,,,,,,,,,,,,,,,,,,,,,,,,,,,,,,4722,completion,,,,,,,,2,,,,,,,,I,S,O,,84676,84688,79949,79948.00000000001,79966,84703,,,
Sounds,html.Screen,0_3_3_0,2021-03-27T20:01:24.167Z,,,,,,,,,,,,,,,,,,,,,,,,,,,,,,4240,timeout,,,,,,,,1,,,,,,,,S,I,O,,88922,88921,84677,84676,84703,88943,,,
Judgement,html.Screen,0_3_3_1,2021-03-27T20:01:24.650Z,,,,,,,,,,,,,,,,,,,,,,,,,,,true,1,,495,response,,,,,,,,1,,1,click #choice-1,,,,,S,I,O,,89405,89416,88921,88922,88943,89434,,,
Trial,flow.Sequence,0_3_3,2021-03-27T20:01:24.650Z,,,,,,,,,,,,,,,,,,,,,,,,,,,,,,4713,completion,,,,,,,,1,,,,,,,,S,I,O,,89405,89416,84677,84676,84703,89434,,,
Sounds,html.Screen,0_3_4_0,2021-03-27T20:01:28.907Z,,,,,,,,,,,,,,,,,,,,,,,,,,,,,,4245,timeout,,,,,,,,2,,,,,,,,O,S,I,,93663,93662,89418,89406,89434,93679,,,
Judgement,html.Screen,0_3_4_1,2021-03-27T20:01:29.394Z,,,,,,,,,,,,,,,,,,,,,,,,,,,true,2,,500,response,,,,,,,,2,,2,click #choice-2,,,,,O,S,I,,94149,94162,93662,93663,93679,94169,,,
Trial,flow.Sequence,0_3_4,2021-03-27T20:01:29.394Z,,,,,,,,,,,,,,,,,,,,,,,,,,,,,,4728,completion,,,,,,,,2,,,,,,,,O,S,I,,94149,94162,89418,89406,89434,94169,,,
Sounds,html.Screen,0_3_5_0,2021-03-27T20:01:33.652Z,,,,,,,,,,,,,,,,,,,,,,,,,,,,,,4256,timeout,,,,,,,,3,,,,,,,,O,I,S,,98408,98407,94151,94149,94169,98425,,,
Judgement,html.Screen,0_3_5_1,2021-03-27T20:01:34.237Z,,,,,,,,,,,,,,,,,,,,,,,,,,,true,3,,599,response,,,,,,,,3,,3,click #choice-3,,,,,O,I,S,,98993,99006,98407,98408,98425,99015,,,
Trial,flow.Sequence,0_3_5,2021-03-27T20:01:34.238Z,,,,,,,,,,,,,,,,,,,,,,,,,,,,,,4837,completion,,,,,,,,3,,,,,,,,O,I,S,,98993,99006,94151,94149,94169,99015,,,
Task,flow.Loop,0_3,2021-03-27T20:01:34.240Z,,,,,,,,,,,,,,,,,,,,,,,,,,,,,,29372,completion,,,1,,,,,,,,,,,,,,,,,98996,99006,69617,69603,69634,99015,,,
Trap,html.Screen,0_4,2021-03-27T20:01:34.241Z,,,,,,,,,,,,,,,,,,,,,,,,,,,,,,NaN,skipped,,,,,,,,,,,,,,,,,,,,98997,99006,,98997,,99015,,,
Thanks,html.Screen,0_5,2021-03-27T20:01:39.368Z,,,,,,,,,,,,,,,,,,,,,,,,,,,,,,5138,response,,,,,,,,,,continue,click button,,,,,,,,,104124,104137,98999,98997,99015,107294,,,
Headphone screening,flow.Sequence,0,2021-03-27T20:01:39.368Z,,,,,,,,,,,,,,,,,,,,,,,,,,,,,,97978,completion,,,,,,,,,,,,,,,,,,,,104124,104137,6143,6127,6159,107294,,,
Instructions,html.Page,1_0,2021-03-27T20:02:19.664Z,,,,,,,,,,,,,,,,,,,,,,,,,,,,,,37128,form submission,,,,,,,,,,,,,,,,,,,,144422,144422,107277,107263,107294,144441,,,
Holding screen,html.Screen,1_1_0_0,2021-03-27T20:02:26.671Z,,,,,,,,,,,,,,,,,,,,,,,,,,,,,,7012,timeout,,,,,,,,,,,,,,,,,,,,151430,151429,144425,144422,144441,151453,,,
screen,html.Screen,1_1_0_1_0,2021-03-27T20:02:28.952Z,,,,,,,,,,,,,,,,53,,,,,,,,,,,,,,2296,response,,,,99,,,,,,Space,keypress(Space),,,,,,,,When -- ----- -- ------ - ------- --- ----------<br>------------- ------ ------ ---- ---- ------- ----- -- ----<br>-------- ------- -- ---------- --- - --- ----- ----- ----<br>---- --- --- ----- --- ---- ---- ------- ----- ---- -------<br>--- --- -- ----- -- --- ---- -- --- ---- -- ------ ------<br>--- ----- -- ----,153710,153725,151429,151430,151453,153751,,0,When
screen,html.Screen,1_1_0_1_1,2021-03-27T20:02:29.683Z,,,,,,,,,,,,,,,,53,,,,,,,,,,,,,,722,response,,,,99,,,,,,Space,keypress(Space),,,,,,,,---- it ----- -- ------ - ------- --- ----------<br>------------- ------ ------ ---- ---- ------- ----- -- ----<br>-------- ------- -- ---------- --- - --- ----- ----- ----<br>---- --- --- ----- --- ---- ---- ------- ----- ---- -------<br>--- --- -- ----- -- --- ---- -- --- ---- -- ------ ------<br>--- ----- -- ----,154442,154457,153735,153711,153751,154473,,1,it
screen,html.Screen,1_1_0_1_2,2021-03-27T20:02:30.274Z,,,,,,,,,,,,,,,,53,,,,,,,,,,,,,,592,response,,,,99,,,,,,Space,keypress(Space),,,,,,,,---- -- comes -- ------ - ------- --- ----------<br>------------- ------ ------ ---- ---- ------- ----- -- ----<br>-------- ------- -- ---------- --- - --- ----- ----- ----<br>---- --- --- ----- --- ---- ---- ------- ----- ---- -------<br>--- --- -- ----- -- --- ---- -- --- ---- -- ------ ------<br>--- ----- -- ----,155032,155048,154456,154442,154473,155062,,2,comes
screen,html.Screen,1_1_0_1_3,2021-03-27T20:02:30.723Z,,,,,,,,,,,,,,,,53,,,,,,,,,,,,,,452,response,,,,99,,,,,,Space,keypress(Space),,,,,,,,---- -- ----- to ------ - ------- --- ----------<br>------------- ------ ------ ---- ---- ------- ----- -- ----<br>-------- ------- -- ---------- --- - --- ----- ----- ----<br>---- --- --- ----- --- ---- ---- ------- ----- ---- -------<br>--- --- -- ----- -- --- ---- -- --- ---- -- ------ ------<br>--- ----- -- ----,155482,155497,155045,155033.00000000003,155062,155516,,3,to
screen,html.Screen,1_1_0_1_4,2021-03-27T20:02:31.334Z,,,,,,,,,,,,,,,,53,,,,,,,,,,,,,,608,response,,,,99,,,,,,Space,keypress(Space),,,,,,,,---- -- ----- -- having - ------- --- ----------<br>------------- ------ ------ ---- ---- ------- ----- -- ----<br>-------- ------- -- ---------- --- - --- ----- ----- ----<br>---- --- --- ----- --- ---- ---- ------- ----- ---- -------<br>--- --- -- ----- -- --- ---- -- --- ---- -- ------ ------<br>--- ----- -- ----,156093,156108,155500,155482,155516,156121,,4,having
screen,html.Screen,1_1_0_1_5,2021-03-27T20:02:31.877Z,,,,,,,,,,,,,,,,53,,,,,,,,,,,,,,547.0000000000291,response,,,,99,,,,,,Space,keypress(Space),,,,,,,,---- -- ----- -- ------ a ------- --- ----------<br>------------- ------ ------ ---- ---- ------- ----- -- ----<br>-------- ------- -- ---------- --- - --- ----- ----- ----<br>---- --- --- ----- --- ---- ---- ------- ----- ---- -------<br>--- --- -- ----- -- --- ---- -- --- ---- -- ------ ------<br>--- ----- -- ----,156636,156652.00000000003,156105,156093,156121,156676,,5,a
screen,html.Screen,1_1_0_1_6,2021-03-27T20:02:32.514Z,,,,,,,,,,,,,,,,53,,,,,,,,,,,,,,628,response,,,,99,,,,,,Space,keypress(Space),,,,,,,,---- -- ----- -- ------ - lasting --- ----------<br>------------- ------ ------ ---- ---- ------- ----- -- ----<br>-------- ------- -- ---------- --- - --- ----- ----- ----<br>---- --- --- ----- --- ---- ---- ------- ----- ---- -------<br>--- --- -- ----- -- --- ---- -- --- ---- -- ------ ------<br>--- ----- -- ----,157273,157288,156660,156636,156676,157315,,6,lasting
screen,html.Screen,1_1_0_1_7,2021-03-27T20:02:33.085Z,,,,,,,,,,,,,,,,53,,,,,,,,,,,,,,562,response,,,,99,,,,,,Space,keypress(Space),,,,,,,,---- -- ----- -- ------ - ------- and ----------<br>------------- ------ ------ ---- ---- ------- ----- -- ----<br>-------- ------- -- ---------- --- - --- ----- ----- ----<br>---- --- --- ----- --- ---- ---- ------- ----- ---- -------<br>--- --- -- ----- -- --- ---- -- --- ---- -- ------ ------<br>--- ----- -- ----,157845,157860,157298,157273,157315,157887,,7,and
screen,html.Screen,1_1_0_1_8,2021-03-27T20:02:33.621Z,,,,,,,,,,,,,,,,53,,,,,,,,,,,,,,525,response,,,,99,,,,,,Space,keypress(Space),,,,,,,,---- -- ----- -- ------ - ------- --- fulfilling<br>------------- ------ ------ ---- ---- ------- ----- -- ----<br>-------- ------- -- ---------- --- - --- ----- ----- ----<br>---- --- --- ----- --- ---- ---- ------- ----- ---- -------<br>--- --- -- ----- -- --- ---- -- --- ---- -- ------ ------<br>--- ----- -- ----,158380,158395,157870,157845,157887,158408,,8,fulfilling
screen,html.Screen,1_1_0_1_9,2021-03-27T20:02:34.252Z,,,,,,,,,,,,,,,,53,,,,,,,,,,,,,,636.0000000000291,response,,,,99,,,,,,Space,keypress(Space),,,,,,,,"---- -- ----- -- ------ - ------- --- ----------<br>relationship, ------ ------ ---- ---- ------- ----- -- ----<br>-------- ------- -- ---------- --- - --- ----- ----- ----<br>---- --- --- ----- --- ---- ---- ------- ----- ---- -------<br>--- --- -- ----- -- --- ---- -- --- ---- -- ------ ------<br>--- ----- -- ----",159011,159027.00000000003,158391,158380,158408,159047,,9,"relationship,"
screen,html.Screen,1_1_0_1_10,2021-03-27T20:02:34.880Z,,,,,,,,,,,,,,,,53,,,,,,,,,,,,,,623,response,,,,99,,,,,,Space,keypress(Space),,,,,,,,---- -- ----- -- ------ - ------- --- ----------<br>------------- common ------ ---- ---- ------- ----- -- ----<br>-------- ------- -- ---------- --- - --- ----- ----- ----<br>---- --- --- ----- --- ---- ---- ------- ----- ---- -------<br>--- --- -- ----- -- --- ---- -- --- ---- -- ------ ------<br>--- ----- -- ----,159639,159654,159031,159012,159047,159673,,10,common
screen,html.Screen,1_1_0_1_11,2021-03-27T20:02:35.555Z,,,,,,,,,,,,,,,,53,,,,,,,,,,,,,,673,response,,,,99,,,,,,Space,keypress(Space),,,,,,,,---- -- ----- -- ------ - ------- --- ----------<br>------------- ------ wisdom ---- ---- ------- ----- -- ----<br>-------- ------- -- ---------- --- - --- ----- ----- ----<br>---- --- --- ----- --- ---- ---- ------- ----- ---- -------<br>--- --- -- ----- -- --- ---- -- --- ---- -- ------ ------<br>--- ----- -- ----,160314,160330,159657,159639,159673,160345,,11,wisdom
screen,html.Screen,1_1_0_1_12,2021-03-27T20:02:36.225Z,,,,,,,,,,,,,,,,53,,,,,,,,,,,,,,671,response,,,,99,,,,,,Space,keypress(Space),,,,,,,,---- -- ----- -- ------ - ------- --- ----------<br>------------- ------ ------ says ---- ------- ----- -- ----<br>-------- ------- -- ---------- --- - --- ----- ----- ----<br>---- --- --- ----- --- ---- ---- ------- ----- ---- -------<br>--- --- -- ----- -- --- ---- -- --- ---- -- ------ ------<br>--- ----- -- ----,160984,161000,160329,160314,160345,161017,,12,says
screen,html.Screen,1_1_0_1_13,2021-03-27T20:02:36.848Z,,,,,,,,,,,,,,,,53,,,,,,,,,,,,,,622,response,,,,99,,,,,,Space,keypress(Space),,,,,,,,---- -- ----- -- ------ - ------- --- ----------<br>------------- ------ ------ ---- that ------- ----- -- ----<br>-------- ------- -- ---------- --- - --- ----- ----- ----<br>---- --- --- ----- --- ---- ---- ------- ----- ---- -------<br>--- --- -- ----- -- --- ---- -- --- ---- -- ------ ------<br>--- ----- -- ----,161607,161623,161001,160984,161017,161639,,13,that
screen,html.Screen,1_1_0_1_14,2021-03-27T20:02:37.454Z,,,,,,,,,,,,,,,,53,,,,,,,,,,,,,,607,response,,,,99,,,,,,Space,keypress(Space),,,,,,,,---- -- ----- -- ------ - ------- --- ----------<br>------------- ------ ------ ---- ---- feeling ----- -- ----<br>-------- ------- -- ---------- --- - --- ----- ----- ----<br>---- --- --- ----- --- ---- ---- ------- ----- ---- -------<br>--- --- -- ----- -- --- ---- -- --- ---- -- ------ ------<br>--- ----- -- ----,162214,162229,161622,161607,161639,162244,,14,feeling
screen,html.Screen,1_1_0_1_15,2021-03-27T20:02:38.096Z,,,,,,,,,,,,,,,,53,,,,,,,,,,,,,,643,response,,,,99,,,,,,Space,keypress(Space),,,,,,,,---- -- ----- -- ------ - ------- --- ----------<br>------------- ------ ------ ---- ---- ------- close -- ----<br>-------- ------- -- ---------- --- - --- ----- ----- ----<br>---- --- --- ----- --- ---- ---- ------- ----- ---- -------<br>--- --- -- ----- -- --- ---- -- --- ---- -- ------ ------<br>--- ----- -- ----,162855,162871,162228,162214,162244,162883,,15,close
screen,html.Screen,1_1_0_1_16,2021-03-27T20:02:38.675Z,,,,,,,,,,,,,,,,53,,,,,,,,,,,,,,583,response,,,,99,,,,,,Space,keypress(Space),,,,,,,,---- -- ----- -- ------ - ------- --- ----------<br>------------- ------ ------ ---- ---- ------- ----- to ----<br>-------- ------- -- ---------- --- - --- ----- ----- ----<br>---- --- --- ----- --- ---- ---- ------- ----- ---- -------<br>--- --- -- ----- -- --- ---- -- --- ---- -- ------ ------<br>--- ----- -- ----,163435,163449,162866,162855,162883,163471,,16,to
screen,html.Screen,1_1_0_1_17,2021-03-27T20:02:39.280Z,,,,,,,,,,,,,,,,53,,,,,,,,,,,,,,600,response,,,,99,,,,,,Space,keypress(Space),,,,,,,,---- -- ----- -- ------ - ------- --- ----------<br>------------- ------ ------ ---- ---- ------- ----- -- your<br>-------- ------- -- ---------- --- - --- ----- ----- ----<br>---- --- --- ----- --- ---- ---- ------- ----- ---- -------<br>--- --- -- ----- -- --- ---- -- --- ---- -- ------ ------<br>--- ----- -- ----,164039.00000000003,164055,163455,163435,163471,164076,,17,your
screen,html.Screen,1_1_0_1_18,2021-03-27T20:02:40.022Z,,,,,,,,,,,,,,,,53,,,,,,,,,,,,,,737,response,,,,99,,,,,,Space,keypress(Space),,,,,,,,---- -- ----- -- ------ - ------- --- ----------<br>------------- ------ ------ ---- ---- ------- ----- -- ----<br>romantic ------- -- ---------- --- - --- ----- ----- ----<br>---- --- --- ----- --- ---- ---- ------- ----- ---- -------<br>--- --- -- ----- -- --- ---- -- --- ---- -- ------ ------<br>--- ----- -- ----,164781,164797,164060,164039.00000000003,164076,164815,,18,romantic
screen,html.Screen,1_1_0_1_19,2021-03-27T20:02:40.767Z,,,,,,,,,,,,,,,,53,,,,,,,,,,,,,,743,response,,,,99,,,,,,Space,keypress(Space),,,,,,,,---- -- ----- -- ------ - ------- --- ----------<br>------------- ------ ------ ---- ---- ------- ----- -- ----<br>-------- partner -- ---------- --- - --- ----- ----- ----<br>---- --- --- ----- --- ---- ---- ------- ----- ---- -------<br>--- --- -- ----- -- --- ---- -- --- ---- -- ------ ------<br>--- ----- -- ----,165526,165542,164799,164781,164815,165553,,19,partner
screen,html.Screen,1_1_0_1_20,2021-03-27T20:02:41.305Z,,,,,,,,,,,,,,,,53,,,,,,,,,,,,,,543,response,,,,99,,,,,,Space,keypress(Space),,,,,,,,---- -- ----- -- ------ - ------- --- ----------<br>------------- ------ ------ ---- ---- ------- ----- -- ----<br>-------- ------- is ---------- --- - --- ----- ----- ----<br>---- --- --- ----- --- ---- ---- ------- ----- ---- -------<br>--- --- -- ----- -- --- ---- -- --- ---- -- ------ ------<br>--- ----- -- ----,166065,166080,165537,165527.00000000003,165553,166092,,20,is
screen,html.Screen,1_1_0_1_21,2021-03-27T20:02:42.258Z,,,,,,,,,,,,,,,,53,,,,,,,,,,,,,,956,response,,,,99,,,,,,Space,keypress(Space),,,,,,,,---- -- ----- -- ------ - ------- --- ----------<br>------------- ------ ------ ---- ---- ------- ----- -- ----<br>-------- ------- -- paramount. --- - --- ----- ----- ----<br>---- --- --- ----- --- ---- ---- ------- ----- ---- -------<br>--- --- -- ----- -- --- ---- -- --- ---- -- ------ ------<br>--- ----- -- ----,167017,167032,166076,166065,166092,167047,,21,paramount.
screen,html.Screen,1_1_0_1_22,2021-03-27T20:02:43.012Z,,,,,,,,,,,,,,,,53,,,,,,,,,,,,,,757,response,,,,99,,,,,,Space,keypress(Space),,,,,,,,---- -- ----- -- ------ - ------- --- ----------<br>------------- ------ ------ ---- ---- ------- ----- -- ----<br>-------- ------- -- ---------- But - --- ----- ----- ----<br>---- --- --- ----- --- ---- ---- ------- ----- ---- -------<br>--- --- -- ----- -- --- ---- -- --- ---- -- ------ ------<br>--- ----- -- ----,167772,167788,167031,167017,167047,167803,,22,But
screen,html.Screen,1_1_0_1_23,2021-03-27T20:02:43.418Z,,,,,,,,,,,,,,,,53,,,,,,,,,,,,,,407,response,,,,99,,,,,,Space,keypress(Space),,,,,,,,---- -- ----- -- ------ - ------- --- ----------<br>------------- ------ ------ ---- ---- ------- ----- -- ----<br>-------- ------- -- ---------- --- a --- ----- ----- ----<br>---- --- --- ----- --- ---- ---- ------- ----- ---- -------<br>--- --- -- ----- -- --- ---- -- --- ---- -- ------ ------<br>--- ----- -- ----,168177,168193,167786,167772,167803,168208,,23,a
screen,html.Screen,1_1_0_1_24,2021-03-27T20:02:44.050Z,,,,,,,,,,,,,,,,53,,,,,,,,,,,,,,634.0000000000291,response,,,,99,,,,,,Space,keypress(Space),,,,,,,,---- -- ----- -- ------ - ------- --- ----------<br>------------- ------ ------ ---- ---- ------- ----- -- ----<br>-------- ------- -- ---------- --- - new ----- ----- ----<br>---- --- --- ----- --- ---- ---- ------- ----- ---- -------<br>--- --- -- ----- -- --- ---- -- --- ---- -- ------ ------<br>--- ----- -- ----,168809,168825.00000000003,168191,168177,168208,168846,,24,new
screen,html.Screen,1_1_0_1_25,2021-03-27T20:02:44.482Z,,,,,,,,,,,,,,,,53,,,,,,,,,,,,,,428,response,,,,99,,,,,,Space,keypress(Space),,,,,,,,---- -- ----- -- ------ - ------- --- ----------<br>------------- ------ ------ ---- ---- ------- ----- -- ----<br>-------- ------- -- ---------- --- - --- study ----- ----<br>---- --- --- ----- --- ---- ---- ------- ----- ---- -------<br>--- --- -- ----- -- --- ---- -- --- ---- -- ------ ------<br>--- ----- -- ----,169242,169258,168830,168810,168846,169284,,25,study
screen,html.Screen,1_1_0_1_26,2021-03-27T20:02:44.988Z,,,,,,,,,,,,,,,,53,,,,,,,,,,,,,,495,response,,,,99,,,,,,Space,keypress(Space),,,,,,,,---- -- ----- -- ------ - ------- --- ----------<br>------------- ------ ------ ---- ---- ------- ----- -- ----<br>-------- ------- -- ---------- --- - --- ----- finds ----<br>---- --- --- ----- --- ---- ---- ------- ----- ---- -------<br>--- --- -- ----- -- --- ---- -- --- ---- -- ------ ------<br>--- ----- -- ----,169747,169763,169268,169242,169284,169790,,26,finds
screen,html.Screen,1_1_0_1_27,2021-03-27T20:02:45.399Z,,,,,,,,,,,,,,,,53,,,,,,,,,,,,,,401,response,,,,99,,,,,,Space,keypress(Space),,,,,,,,---- -- ----- -- ------ - ------- --- ----------<br>------------- ------ ------ ---- ---- ------- ----- -- ----<br>-------- ------- -- ---------- --- - --- ----- ----- that<br>---- --- --- ----- --- ---- ---- ------- ----- ---- -------<br>--- --- -- ----- -- --- ---- -- --- ---- -- ------ ------<br>--- ----- -- ----,170158.00000000003,170174,169773,169747,169790,170177,,27,that
screen,html.Screen,1_1_0_1_28,2021-03-27T20:02:45.932Z,,,,,,,,,,,,,,,,53,,,,,,,,,,,,,,546,response,,,,99,,,,,,Space,keypress(Space),,,,,,,,---- -- ----- -- ------ - ------- --- ----------<br>------------- ------ ------ ---- ---- ------- ----- -- ----<br>-------- ------- -- ---------- --- - --- ----- ----- ----<br>it's --- --- ----- --- ---- ---- ------- ----- ---- -------<br>--- --- -- ----- -- --- ---- -- --- ---- -- ------ ------<br>--- ----- -- ----,170691,170707,170161,170158.00000000003,170177,170732,,28,it's
screen,html.Screen,1_1_0_1_29,2021-03-27T20:02:46.346Z,,,,,,,,,,,,,,,,53,,,,,,,,,,,,,,406,response,,,,99,,,,,,Space,keypress(Space),,,,,,,,---- -- ----- -- ------ - ------- --- ----------<br>------------- ------ ------ ---- ---- ------- ----- -- ----<br>-------- ------- -- ---------- --- - --- ----- ----- ----<br>---- not --- ----- --- ---- ---- ------- ----- ---- -------<br>--- --- -- ----- -- --- ---- -- --- ---- -- ------ ------<br>--- ----- -- ----,171106,171122,170716,170691,170732,171137,,29,not
screen,html.Screen,1_1_0_1_30,2021-03-27T20:02:46.766Z,,,,,,,,,,,,,,,,53,,,,,,,,,,,,,,421,response,,,,99,,,,,,Space,keypress(Space),,,,,,,,---- -- ----- -- ------ - ------- --- ----------<br>------------- ------ ------ ---- ---- ------- ----- -- ----<br>-------- ------- -- ---------- --- - --- ----- ----- ----<br>---- --- how ----- --- ---- ---- ------- ----- ---- -------<br>--- --- -- ----- -- --- ---- -- --- ---- -- ------ ------<br>--- ----- -- ----,171526,171542,171121,171106,171137,171558,,30,how
screen,html.Screen,1_1_0_1_31,2021-03-27T20:02:47.607Z,,,,,,,,,,,,,,,,53,,,,,,,,,,,,,,841,response,,,,99,,,,,,Space,keypress(Space),,,,,,,,---- -- ----- -- ------ - ------- --- ----------<br>------------- ------ ------ ---- ---- ------- ----- -- ----<br>-------- ------- -- ---------- --- - --- ----- ----- ----<br>---- --- --- close --- ---- ---- ------- ----- ---- -------<br>--- --- -- ----- -- --- ---- -- --- ---- -- ------ ------<br>--- ----- -- ----,172367,172383,171542,171526,171558,172396,,31,close
screen,html.Screen,1_1_0_1_32,2021-03-27T20:02:48.283Z,,,,,,,,,,,,,,,,53,,,,,,,,,,,,,,680,response,,,,99,,,,,,Space,keypress(Space),,,,,,,,---- -- ----- -- ------ - ------- --- ----------<br>------------- ------ ------ ---- ---- ------- ----- -- ----<br>-------- ------- -- ---------- --- - --- ----- ----- ----<br>---- --- --- ----- you ---- ---- ------- ----- ---- -------<br>--- --- -- ----- -- --- ---- -- --- ---- -- ------ ------<br>--- ----- -- ----,173043,173059,172379,172367,172396,173084,,32,you
screen,html.Screen,1_1_0_1_33,2021-03-27T20:02:48.876Z,,,,,,,,,,,,,,,,53,,,,,,,,,,,,,,586,response,,,,99,,,,,,Space,keypress(Space),,,,,,,,---- -- ----- -- ------ - ------- --- ----------<br>------------- ------ ------ ---- ---- ------- ----- -- ----<br>-------- ------- -- ---------- --- - --- ----- ----- ----<br>---- --- --- ----- --- feel ---- ------- ----- ---- -------<br>--- --- -- ----- -- --- ---- -- --- ---- -- ------ ------<br>--- ----- -- ----,173636,173653,173067,173043,173084,173673,,33,feel
screen,html.Screen,1_1_0_1_34,2021-03-27T20:02:49.471Z,,,,,,,,,,,,,,,,53,,,,,,,,,,,,,,591,response,,,,99,,,,,,Space,keypress(Space),,,,,,,,---- -- ----- -- ------ - ------- --- ----------<br>------------- ------ ------ ---- ---- ------- ----- -- ----<br>-------- ------- -- ---------- --- - --- ----- ----- ----<br>---- --- --- ----- --- ---- that ------- ----- ---- -------<br>--- --- -- ----- -- --- ---- -- --- ---- -- ------ ------<br>--- ----- -- ----,174231,174247,173656,173637,173673,174262,,34,that
screen,html.Screen,1_1_0_1_35,2021-03-27T20:02:50.239Z,,,,,,,,,,,,,,,,53,,,,,,,,,,,,,,772,response,,,,99,,,,,,Space,keypress(Space),,,,,,,,---- -- ----- -- ------ - ------- --- ----------<br>------------- ------ ------ ---- ---- ------- ----- -- ----<br>-------- ------- -- ---------- --- - --- ----- ----- ----<br>---- --- --- ----- --- ---- ---- matters ----- ---- -------<br>--- --- -- ----- -- --- ---- -- --- ---- -- ------ ------<br>--- ----- -- ----,175000,175016,174244,174231,174262,175033,,35,matters
screen,html.Screen,1_1_0_1_36,2021-03-27T20:02:50.899Z,,,,,,,,,,,,,,,,53,,,,,,,,,,,,,,658,response,,,,99,,,,,,Space,keypress(Space),,,,,,,,"---- -- ----- -- ------ - ------- --- ----------<br>------------- ------ ------ ---- ---- ------- ----- -- ----<br>-------- ------- -- ---------- --- - --- ----- ----- ----<br>---- --- --- ----- --- ---- ---- ------- most, ---- -------<br>--- --- -- ----- -- --- ---- -- --- ---- -- ------ ------<br>--- ----- -- ----",175659,175675,175017,175000,175033,175688,,36,"most,"
screen,html.Screen,1_1_0_1_37,2021-03-27T20:02:51.484Z,,,,,,,,,,,,,,,,53,,,,,,,,,,,,,,589,response,,,,99,,,,,,Space,keypress(Space),,,,,,,,---- -- ----- -- ------ - ------- --- ----------<br>------------- ------ ------ ---- ---- ------- ----- -- ----<br>-------- ------- -- ---------- --- - --- ----- ----- ----<br>---- --- --- ----- --- ---- ---- ------- ----- it's -------<br>--- --- -- ----- -- --- ---- -- --- ---- -- ------ ------<br>--- ----- -- ----,176244,176261,175672,175659,175688,176277,,37,it's
screen,html.Screen,1_1_0_1_38,2021-03-27T20:02:52.088Z,,,,,,,,,,,,,,,,53,,,,,,,,,,,,,,604,response,,,,99,,,,,,Space,keypress(Space),,,,,,,,---- -- ----- -- ------ - ------- --- ----------<br>------------- ------ ------ ---- ---- ------- ----- -- ----<br>-------- ------- -- ---------- --- - --- ----- ----- ----<br>---- --- --- ----- --- ---- ---- ------- ----- ---- whether<br>--- --- -- ----- -- --- ---- -- --- ---- -- ------ ------<br>--- ----- -- ----,176848,176864,176260,176245,176277,176882,,38,whether
screen,html.Screen,1_1_0_1_39,2021-03-27T20:02:52.706Z,,,,,,,,,,,,,,,,53,,,,,,,,,,,,,,616,response,,,,99,,,,,,Space,keypress(Space),,,,,,,,---- -- ----- -- ------ - ------- --- ----------<br>------------- ------ ------ ---- ---- ------- ----- -- ----<br>-------- ------- -- ---------- --- - --- ----- ----- ----<br>---- --- --- ----- --- ---- ---- ------- ----- ---- -------<br>you --- -- ----- -- --- ---- -- --- ---- -- ------ ------<br>--- ----- -- ----,177466,177481,176865,176848,176882,177504,,39,you
screen,html.Screen,1_1_0_1_40,2021-03-27T20:02:53.241Z,,,,,,,,,,,,,,,,53,,,,,,,,,,,,,,530,response,,,,99,,,,,,Space,keypress(Space),,,,,,,,---- -- ----- -- ------ - ------- --- ----------<br>------------- ------ ------ ---- ---- ------- ----- -- ----<br>-------- ------- -- ---------- --- - --- ----- ----- ----<br>---- --- --- ----- --- ---- ---- ------- ----- ---- -------<br>--- are -- ----- -- --- ---- -- --- ---- -- ------ ------<br>--- ----- -- ----,178001,178017,177487,177466,177504,178043,,40,are
screen,html.Screen,1_1_0_1_41,2021-03-27T20:02:53.817Z,,,,,,,,,,,,,,,,53,,,,,,,,,,,,,,568.0000000000291,response,,,,99,,,,,,Space,keypress(Space),,,,,,,,---- -- ----- -- ------ - ------- --- ----------<br>------------- ------ ------ ---- ---- ------- ----- -- ----<br>-------- ------- -- ---------- --- - --- ----- ----- ----<br>---- --- --- ----- --- ---- ---- ------- ----- ---- -------<br>--- --- as ----- -- --- ---- -- --- ---- -- ------ ------<br>--- ----- -- ----,178577,178593.00000000003,178025,178001,178043,178614,,41,as
screen,html.Screen,1_1_0_1_42,2021-03-27T20:02:54.369Z,,,,,,,,,,,,,,,,53,,,,,,,,,,,,,,547,response,,,,99,,,,,,Space,keypress(Space),,,,,,,,---- -- ----- -- ------ - ------- --- ----------<br>------------- ------ ------ ---- ---- ------- ----- -- ----<br>-------- ------- -- ---------- --- - --- ----- ----- ----<br>---- --- --- ----- --- ---- ---- ------- ----- ---- -------<br>--- --- -- close -- --- ---- -- --- ---- -- ------ ------<br>--- ----- -- ----,179129,179145,178598,178577,178614,179169,,42,close
screen,html.Screen,1_1_0_1_43,2021-03-27T20:02:54.888Z,,,,,,,,,,,,,,,,53,,,,,,,,,,,,,,511.0000000000291,response,,,,99,,,,,,Space,keypress(Space),,,,,,,,---- -- ----- -- ------ - ------- --- ----------<br>------------- ------ ------ ---- ---- ------- ----- -- ----<br>-------- ------- -- ---------- --- - --- ----- ----- ----<br>---- --- --- ----- --- ---- ---- ------- ----- ---- -------<br>--- --- -- ----- as --- ---- -- --- ---- -- ------ ------<br>--- ----- -- ----,179648,179664.00000000003,179153,179129,179169,179692,,43,as
screen,html.Screen,1_1_0_1_44,2021-03-27T20:02:55.398Z,,,,,,,,,,,,,,,,53,,,,,,,,,,,,,,500,response,,,,99,,,,,,Space,keypress(Space),,,,,,,,---- -- ----- -- ------ - ------- --- ----------<br>------------- ------ ------ ---- ---- ------- ----- -- ----<br>-------- ------- -- ---------- --- - --- ----- ----- ----<br>---- --- --- ----- --- ---- ---- ------- ----- ---- -------<br>--- --- -- ----- -- you ---- -- --- ---- -- ------ ------<br>--- ----- -- ----,180159,180175,179675,179648,179692,180196,,44,you
screen,html.Screen,1_1_0_1_45,2021-03-27T20:02:55.951Z,,,,,,,,,,,,,,,,53,,,,,,,,,,,,,,548,response,,,,99,,,,,,Space,keypress(Space),,,,,,,,---- -- ----- -- ------ - ------- --- ----------<br>------------- ------ ------ ---- ---- ------- ----- -- ----<br>-------- ------- -- ---------- --- - --- ----- ----- ----<br>---- --- --- ----- --- ---- ---- ------- ----- ---- -------<br>--- --- -- ----- -- --- want -- --- ---- -- ------ ------<br>--- ----- -- ----,180712.00000000003,180728,180180,180159,180196,180752,,45,want
screen,html.Screen,1_1_0_1_46,2021-03-27T20:02:56.353Z,,,,,,,,,,,,,,,,53,,,,,,,,,,,,,,396,response,,,,99,,,,,,Space,keypress(Space),,,,,,,,---- -- ----- -- ------ - ------- --- ----------<br>------------- ------ ------ ---- ---- ------- ----- -- ----<br>-------- ------- -- ---------- --- - --- ----- ----- ----<br>---- --- --- ----- --- ---- ---- ------- ----- ---- -------<br>--- --- -- ----- -- --- ---- to --- ---- -- ------ ------<br>--- ----- -- ----,181114,181130,180734,180712.00000000003,180752,181140,,46,to
screen,html.Screen,1_1_0_1_47,2021-03-27T20:02:56.850Z,,,,,,,,,,,,,,,,53,,,,,,,,,,,,,,503,response,,,,99,,,,,,Space,keypress(Space),,,,,,,,"---- -- ----- -- ------ - ------- --- ----------<br>------------- ------ ------ ---- ---- ------- ----- -- ----<br>-------- ------- -- ---------- --- - --- ----- ----- ----<br>---- --- --- ----- --- ---- ---- ------- ----- ---- -------<br>--- --- -- ----- -- --- ---- -- be, ---- -- ------ ------<br>--- ----- -- ----",181611,181627,181124,181114,181140,181646,,47,"be,"
screen,html.Screen,1_1_0_1_48,2021-03-27T20:02:57.322Z,,,,,,,,,,,,,,,,53,,,,,,,,,,,,,,472,response,,,,99,,,,,,Space,keypress(Space),,,,,,,,---- -- ----- -- ------ - ------- --- ----------<br>------------- ------ ------ ---- ---- ------- ----- -- ----<br>-------- ------- -- ---------- --- - --- ----- ----- ----<br>---- --- --- ----- --- ---- ---- ------- ----- ---- -------<br>--- --- -- ----- -- --- ---- -- --- even -- ------ ------<br>--- ----- -- ----,182083,182100,181628,181611,181646,182116,,48,even
screen,html.Screen,1_1_0_1_49,2021-03-27T20:02:57.757Z,,,,,,,,,,,,,,,,53,,,,,,,,,,,,,,434,response,,,,99,,,,,,Space,keypress(Space),,,,,,,,---- -- ----- -- ------ - ------- --- ----------<br>------------- ------ ------ ---- ---- ------- ----- -- ----<br>-------- ------- -- ---------- --- - --- ----- ----- ----<br>---- --- --- ----- --- ---- ---- ------- ----- ---- -------<br>--- --- -- ----- -- --- ---- -- --- ---- if ------ ------<br>--- ----- -- ----,182517,182534,182100,182083,182116,182554,,49,if
screen,html.Screen,1_1_0_1_50,2021-03-27T20:02:58.183Z,,,,,,,,,,,,,,,,53,,,,,,,,,,,,,,424,response,,,,99,,,,,,Space,keypress(Space),,,,,,,,---- -- ----- -- ------ - ------- --- ----------<br>------------- ------ ------ ---- ---- ------- ----- -- ----<br>-------- ------- -- ---------- --- - --- ----- ----- ----<br>---- --- --- ----- --- ---- ---- ------- ----- ---- -------<br>--- --- -- ----- -- --- ---- -- --- ---- -- that's ------<br>--- ----- -- ----,182944.00000000003,182961,182537,182517,182554,182975,,50,that's
screen,html.Screen,1_1_0_1_51,2021-03-27T20:02:58.833Z,,,,,,,,,,,,,,,,53,,,,,,,,,,,,,,652,response,,,,99,,,,,,Space,keypress(Space),,,,,,,,---- -- ----- -- ------ - ------- --- ----------<br>------------- ------ ------ ---- ---- ------- ----- -- ----<br>-------- ------- -- ---------- --- - --- ----- ----- ----<br>---- --- --- ----- --- ---- ---- ------- ----- ---- -------<br>--- --- -- ----- -- --- ---- -- --- ---- -- ------ really<br>--- ----- -- ----,183594,183611,182959,182944.00000000003,182975,183629,,51,really
screen,html.Screen,1_1_0_1_52,2021-03-27T20:02:59.420Z,,,,,,,,,,,,,,,,53,,,,,,,,,,,,,,585,response,,,,99,,,,,,Space,keypress(Space),,,,,,,,---- -- ----- -- ------ - ------- --- ----------<br>------------- ------ ------ ---- ---- ------- ----- -- ----<br>-------- ------- -- ---------- --- - --- ----- ----- ----<br>---- --- --- ----- --- ---- ---- ------- ----- ---- -------<br>--- --- -- ----- -- --- ---- -- --- ---- -- ------ ------<br>not ----- -- ----,184181,184198,183613,183594,183629,184217,,52,not
screen,html.Screen,1_1_0_1_53,2021-03-27T20:03:00.092Z,,,,,,,,,,,,,,,,53,,,,,,,,,,,,,,669,response,,,,99,,,,,,Space,keypress(Space),,,,,,,,---- -- ----- -- ------ - ------- --- ----------<br>------------- ------ ------ ---- ---- ------- ----- -- ----<br>-------- ------- -- ---------- --- - --- ----- ----- ----<br>---- --- --- ----- --- ---- ---- ------- ----- ---- -------<br>--- --- -- ----- -- --- ---- -- --- ---- -- ------ ------<br>--- close -- ----,184852,184870,184201,184181,184217,184889,,53,close
screen,html.Screen,1_1_0_1_54,2021-03-27T20:03:00.760Z,,,,,,,,,,,,,,,,53,,,,,,,,,,,,,,665,response,,,,99,,,,,,Space,keypress(Space),,,,,,,,---- -- ----- -- ------ - ------- --- ----------<br>------------- ------ ------ ---- ---- ------- ----- -- ----<br>-------- ------- -- ---------- --- - --- ----- ----- ----<br>---- --- --- ----- --- ---- ---- ------- ----- ---- -------<br>--- --- -- ----- -- --- ---- -- --- ---- -- ------ ------<br>--- ----- at ----,185521.00000000003,185538,184873,184853,184889,185561,,54,at
screen,html.Screen,1_1_0_1_55,2021-03-27T20:03:01.259Z,,,,,,,,,,,,,,,,53,,,,,,,,,,,,,,492,response,,,,99,,,,,,Space,keypress(Space),,,,,,,,---- -- ----- -- ------ - ------- --- ----------<br>------------- ------ ------ ---- ---- ------- ----- -- ----<br>-------- ------- -- ---------- --- - --- ----- ----- ----<br>---- --- --- ----- --- ---- ---- ------- ----- ---- -------<br>--- --- -- ----- -- --- ---- -- --- ---- -- ------ ------<br>--- ----- -- all.,186020,186037,185545,185521.00000000003,185561,186049,,55,all.
Item 99,flow.Loop,1_1_0_1,2021-03-27T20:03:01.260Z,,,,,,,,,,,,,,,,,,,,,,,,,,,,,,34584,completion,,,,,F,,,,,,,,,,silence,,,,,186021.00000000003,186037,151429,151430,151453,186049,,,
Question 1,html.Screen,1_1_0_2,2021-03-27T20:03:20.544Z,,,,,,,,,,,,,,,,,,,,,,,,,,,false,FALSE,,19292.00000000003,response,,,,99,F,,,,,TRUE,click #choice-1,,,,silence,,,,,205306,205325.00000000003,186033,186021.00000000003,186049,205327,,,
Question 2,html.Screen,1_1_0_3,2021-03-27T20:03:26.623Z,,,,,,,,,,,,,,,,,,,,,,,,,,,true,TRUE,,6094,response,,,,99,F,,,,,TRUE,click #choice-1,,,,silence,,,,,211385,211404,205310,205306,205327,211416,,,
Item 99,flow.Sequence,1_1_0,2021-03-27T20:03:26.623Z,,,,,,,,,,,,,,,,,,,,,,,,,,,,,,66963,completion,,,,,,,,,,,,,,,,,,,,211385,211404,144425,144422,144441,211416,,,
Holding screen,html.Screen,1_1_1_0,2021-03-27T20:03:33.638Z,,,,,,,,,,,,,,,,,,,,,,,,,,,,,,7001,timeout,,,,,,,,,,,,,,,,,,,,218400,218400,211400,211386,211416,218417,,,
screen,html.Screen,1_1_1_1_0,2021-03-27T20:03:34.512Z,,,,,,,,,,,,,,,,54,,,,,,,,,,,,,,893,response,,,,100,,,,,,Space,keypress(Space),,,,,,,,At --- ---- --- ------ ----- ------- ---- -- --- ------- --<br>------- ---------- ------ -- ----- -- ----- -- ---- ------<br>--- ----- --- --- ------ -------- ----- --- ------ ----- --<br>----- ----- ---------- --- --- ------ ------ ---- -- ------<br>------- --- ------ ----- --- ---- ------- -- ---- --- --<br>------- ------,219274,219293,218400,218401,218417,219305,,0,At
screen,html.Screen,1_1_1_1_1,2021-03-27T20:03:34.960Z,,,,,,,,,,,,,,,,54,,,,,,,,,,,,,,454.0000000000291,response,,,,100,,,,,,Space,keypress(Space),,,,,,,,-- the ---- --- ------ ----- ------- ---- -- --- ------- --<br>------- ---------- ------ -- ----- -- ----- -- ---- ------<br>--- ----- --- --- ------ -------- ----- --- ------ ----- --<br>----- ----- ---------- --- --- ------ ------ ---- -- ------<br>------- --- ------ ----- --- ---- ------- -- ---- --- --<br>------- ------,219723,219742.00000000003,219288,219274,219305,219760,,1,the
screen,html.Screen,1_1_1_1_2,2021-03-27T20:03:35.956Z,,,,,,,,,,,,,,,,54,,,,,,,,,,,,,,995,response,,,,100,,,,,,Space,keypress(Space),,,,,,,,-- --- time --- ------ ----- ------- ---- -- --- ------- --<br>------- ---------- ------ -- ----- -- ----- -- ---- ------<br>--- ----- --- --- ------ -------- ----- --- ------ ----- --<br>----- ----- ---------- --- --- ------ ------ ---- -- ------<br>------- --- ------ ----- --- ---- ------- -- ---- --- --<br>------- ------,220718.00000000003,220738,219743,219723,219760,220748,,2,time
screen,html.Screen,1_1_1_1_3,2021-03-27T20:03:36.775Z,,,,,,,,,,,,,,,,54,,,,,,,,,,,,,,825.0000000000291,response,,,,100,,,,,,Space,keypress(Space),,,,,,,,-- --- ---- the ------ ----- ------- ---- -- --- ------- --<br>------- ---------- ------ -- ----- -- ----- -- ---- ------<br>--- ----- --- --- ------ -------- ----- --- ------ ----- --<br>----- ----- ---------- --- --- ------ ------ ---- -- ------<br>------- --- ------ ----- --- ---- ------- -- ---- --- --<br>------- ------,221538,221557.00000000003,220732,220719,220748,221571,,3,the
screen,html.Screen,1_1_1_1_4,2021-03-27T20:03:37.419Z,,,,,,,,,,,,,,,,54,,,,,,,,,,,,,,646.0000000000291,response,,,,100,,,,,,Space,keypress(Space),,,,,,,,-- --- ---- --- French ----- ------- ---- -- --- ------- --<br>------- ---------- ------ -- ----- -- ----- -- ---- ------<br>--- ----- --- --- ------ -------- ----- --- ------ ----- --<br>----- ----- ---------- --- --- ------ ------ ---- -- ------<br>------- --- ------ ----- --- ---- ------- -- ---- --- --<br>------- ------,222182.00000000003,222200.00000000003,221554,221538,221571,222209,,4,French
screen,html.Screen,1_1_1_1_5,2021-03-27T20:03:38.112Z,,,,,,,,,,,,,,,,54,,,,,,,,,,,,,,702,response,,,,100,,,,,,Space,keypress(Space),,,,,,,,-- --- ---- --- ------ crown ------- ---- -- --- ------- --<br>------- ---------- ------ -- ----- -- ----- -- ---- ------<br>--- ----- --- --- ------ -------- ----- --- ------ ----- --<br>----- ----- ---------- --- --- ------ ------ ---- -- ------<br>------- --- ------ ----- --- ---- ------- -- ---- --- --<br>------- ------,222875,222895,222193,222182.00000000003,222209,222915,,5,crown
screen,html.Screen,1_1_1_1_6,2021-03-27T20:03:38.768Z,,,,,,,,,,,,,,,,54,,,,,,,,,,,,,,653.0000000000291,response,,,,100,,,,,,Space,keypress(Space),,,,,,,,-- --- ---- --- ------ ----- secured ---- -- --- ------- --<br>------- ---------- ------ -- ----- -- ----- -- ---- ------<br>--- ----- --- --- ------ -------- ----- --- ------ ----- --<br>----- ----- ---------- --- --- ------ ------ ---- -- ------<br>------- --- ------ ----- --- ---- ------- -- ---- --- --<br>------- ------,223531,223551.00000000003,222898,222875,222915,223569,,6,secured
screen,html.Screen,1_1_1_1_7,2021-03-27T20:03:39.307Z,,,,,,,,,,,,,,,,54,,,,,,,,,,,,,,537,response,,,,100,,,,,,Space,keypress(Space),,,,,,,,-- --- ---- --- ------ ----- ------- much -- --- ------- --<br>------- ---------- ------ -- ----- -- ----- -- ---- ------<br>--- ----- --- --- ------ -------- ----- --- ------ ----- --<br>----- ----- ---------- --- --- ------ ------ ---- -- ------<br>------- --- ------ ----- --- ---- ------- -- ---- --- --<br>------- ------,224070,224090,223553,223531,223569,224108,,7,much
screen,html.Screen,1_1_1_1_8,2021-03-27T20:03:39.856Z,,,,,,,,,,,,,,,,54,,,,,,,,,,,,,,547,response,,,,100,,,,,,Space,keypress(Space),,,,,,,,-- --- ---- --- ------ ----- ------- ---- of --- ------- --<br>------- ---------- ------ -- ----- -- ----- -- ---- ------<br>--- ----- --- --- ------ -------- ----- --- ------ ----- --<br>----- ----- ---------- --- --- ------ ------ ---- -- ------<br>------- --- ------ ----- --- ---- ------- -- ---- --- --<br>------- ------,224619,224639,224092,224070,224108,224647,,8,of
screen,html.Screen,1_1_1_1_9,2021-03-27T20:03:40.498Z,,,,,,,,,,,,,,,,54,,,,,,,,,,,,,,651,response,,,,100,,,,,,Space,keypress(Space),,,,,,,,-- --- ---- --- ------ ----- ------- ---- -- its ------- --<br>------- ---------- ------ -- ----- -- ----- -- ---- ------<br>--- ----- --- --- ------ -------- ----- --- ------ ----- --<br>----- ----- ---------- --- --- ------ ------ ---- -- ------<br>------- --- ------ ----- --- ---- ------- -- ---- --- --<br>------- ------,225261,225281,224630,224619,224647,225302,,9,its
screen,html.Screen,1_1_1_1_10,2021-03-27T20:03:42.351Z,,,,,,,,,,,,,,,,54,,,,,,,,,,,,,,1849,response,,,,100,,,,,,Space,keypress(Space),,,,,,,,-- --- ---- --- ------ ----- ------- ---- -- --- revenue --<br>------- ---------- ------ -- ----- -- ----- -- ---- ------<br>--- ----- --- --- ------ -------- ----- --- ------ ----- --<br>----- ----- ---------- --- --- ------ ------ ---- -- ------<br>------- --- ------ ----- --- ---- ------- -- ---- --- --<br>------- ------,227114,227133,225284,225261,225302,227156,,10,revenue
screen,html.Screen,1_1_1_1_11,2021-03-27T20:03:43.232Z,,,,,,,,,,,,,,,,54,,,,,,,,,,,,,,875.0000000000291,response,,,,100,,,,,,Space,keypress(Space),,,,,,,,-- --- ---- --- ------ ----- ------- ---- -- --- ------- by<br>------- ---------- ------ -- ----- -- ----- -- ---- ------<br>--- ----- --- --- ------ -------- ----- --- ------ ----- --<br>----- ----- ---------- --- --- ------ ------ ---- -- ------<br>------- --- ------ ----- --- ---- ------- -- ---- --- --<br>------- ------,227995,228015.00000000003,227140,227114,227156,228028,,11,by
screen,html.Screen,1_1_1_1_12,2021-03-27T20:03:44.609Z,,,,,,,,,,,,,,,,54,,,,,,,,,,,,,,1380,response,,,,100,,,,,,Space,keypress(Space),,,,,,,,-- --- ---- --- ------ ----- ------- ---- -- --- ------- --<br>issuing ---------- ------ -- ----- -- ----- -- ---- ------<br>--- ----- --- --- ------ -------- ----- --- ------ ----- --<br>----- ----- ---------- --- --- ------ ------ ---- -- ------<br>------- --- ------ ----- --- ---- ------- -- ---- --- --<br>------- ------,229373.00000000003,229392,228012,227995,228028,229400,,12,issuing
screen,html.Screen,1_1_1_1_13,2021-03-27T20:03:45.446Z,,,,,,,,,,,,,,,,54,,,,,,,,,,,,,,847.0000000000291,response,,,,100,,,,,,Space,keypress(Space),,,,,,,,-- --- ---- --- ------ ----- ------- ---- -- --- ------- --<br>------- government ------ -- ----- -- ----- -- ---- ------<br>--- ----- --- --- ------ -------- ----- --- ------ ----- --<br>----- ----- ---------- --- --- ------ ------ ---- -- ------<br>------- --- ------ ----- --- ---- ------- -- ---- --- --<br>------- ------,230210,230230.00000000003,229383,229373.00000000003,229400,230239,,13,government
screen,html.Screen,1_1_1_1_14,2021-03-27T20:03:48.153Z,,,,,,,,,,,,,,,,54,,,,,,,,,,,,,,2715,response,,,,100,,,,,,Space,keypress(Space),,,,,,,,-- --- ---- --- ------ ----- ------- ---- -- --- ------- --<br>------- ---------- bonds. -- ----- -- ----- -- ---- ------<br>--- ----- --- --- ------ -------- ----- --- ------ ----- --<br>----- ----- ---------- --- --- ------ ------ ---- -- ------<br>------- --- ------ ----- --- ---- ------- -- ---- --- --<br>------- ------,232917,232937,230222,230210,230239,232959,,14,bonds.
screen,html.Screen,1_1_1_1_15,2021-03-27T20:03:48.794Z,,,,,,,,,,,,,,,,54,,,,,,,,,,,,,,635,response,,,,100,,,,,,Space,keypress(Space),,,,,,,,-- --- ---- --- ------ ----- ------- ---- -- --- ------- --<br>------- ---------- ------ In ----- -- ----- -- ---- ------<br>--- ----- --- --- ------ -------- ----- --- ------ ----- --<br>----- ----- ---------- --- --- ------ ------ ---- -- ------<br>------- --- ------ ----- --- ---- ------- -- ---- --- --<br>------- ------,233558,233578,232943,232917,232959,233599,,15,In
screen,html.Screen,1_1_1_1_16,2021-03-27T20:03:50.484Z,,,,,,,,,,,,,,,,54,,,,,,,,,,,,,,1686,response,,,,100,,,,,,Space,keypress(Space),,,,,,,,"-- --- ---- --- ------ ----- ------- ---- -- --- ------- --<br>------- ---------- ------ -- 1727, -- ----- -- ---- ------<br>--- ----- --- --- ------ -------- ----- --- ------ ----- --<br>----- ----- ---------- --- --- ------ ------ ---- -- ------<br>------- --- ------ ----- --- ---- ------- -- ---- --- --<br>------- ------",235248.00000000003,235268,233582,233558,233599,235287,,16,"1727,"
screen,html.Screen,1_1_1_1_17,2021-03-27T20:03:51.025Z,,,,,,,,,,,,,,,,54,,,,,,,,,,,,,,538,response,,,,100,,,,,,Space,keypress(Space),,,,,,,,-- --- ---- --- ------ ----- ------- ---- -- --- ------- --<br>------- ---------- ------ -- ----- in ----- -- ---- ------<br>--- ----- --- --- ------ -------- ----- --- ------ ----- --<br>----- ----- ---------- --- --- ------ ------ ---- -- ------<br>------- --- ------ ----- --- ---- ------- -- ---- --- --<br>------- ------,235789.00000000003,235809,235271,235248.00000000003,235287,235826,,17,in
screen,html.Screen,1_1_1_1_18,2021-03-27T20:03:51.828Z,,,,,,,,,,,,,,,,54,,,,,,,,,,,,,,803,response,,,,100,,,,,,Space,keypress(Space),,,,,,,,-- --- ---- --- ------ ----- ------- ---- -- --- ------- --<br>------- ---------- ------ -- ----- -- order -- ---- ------<br>--- ----- --- --- ------ -------- ----- --- ------ ----- --<br>----- ----- ---------- --- --- ------ ------ ---- -- ------<br>------- --- ------ ----- --- ---- ------- -- ---- --- --<br>------- ------,236592,236612,235809,235789.00000000003,235826,236631,,18,order
screen,html.Screen,1_1_1_1_19,2021-03-27T20:03:52.305Z,,,,,,,,,,,,,,,,54,,,,,,,,,,,,,,474,response,,,,100,,,,,,Space,keypress(Space),,,,,,,,-- --- ---- --- ------ ----- ------- ---- -- --- ------- --<br>------- ---------- ------ -- ----- -- ----- to ---- ------<br>--- ----- --- --- ------ -------- ----- --- ------ ----- --<br>----- ----- ---------- --- --- ------ ------ ---- -- ------<br>------- --- ------ ----- --- ---- ------- -- ---- --- --<br>------- ------,237069.00000000003,237089,236615,236592,236631,237103,,19,to
screen,html.Screen,1_1_1_1_20,2021-03-27T20:03:52.864Z,,,,,,,,,,,,,,,,54,,,,,,,,,,,,,,561,response,,,,100,,,,,,Space,keypress(Space),,,,,,,,-- --- ---- --- ------ ----- ------- ---- -- --- ------- --<br>------- ---------- ------ -- ----- -- ----- -- save ------<br>--- ----- --- --- ------ -------- ----- --- ------ ----- --<br>----- ----- ---------- --- --- ------ ------ ---- -- ------<br>------- --- ------ ----- --- ---- ------- -- ---- --- --<br>------- ------,237628,237648,237087,237069.00000000003,237103,237659,,20,save
screen,html.Screen,1_1_1_1_21,2021-03-27T20:03:53.537Z,,,,,,,,,,,,,,,,54,,,,,,,,,,,,,,680,response,,,,100,,,,,,Space,keypress(Space),,,,,,,,"-- --- ---- --- ------ ----- ------- ---- -- --- ------- --<br>------- ---------- ------ -- ----- -- ----- -- ---- money,<br>--- ----- --- --- ------ -------- ----- --- ------ ----- --<br>----- ----- ---------- --- --- ------ ------ ---- -- ------<br>------- --- ------ ----- --- ---- ------- -- ---- --- --<br>------- ------",238300,238321,237641,237628,237659,238329,,21,"money,"
screen,html.Screen,1_1_1_1_22,2021-03-27T20:03:54.382Z,,,,,,,,,,,,,,,,54,,,,,,,,,,,,,,852,response,,,,100,,,,,,Space,keypress(Space),,,,,,,,-- --- ---- --- ------ ----- ------- ---- -- --- ------- --<br>------- ---------- ------ -- ----- -- ----- -- ---- ------<br>the ----- --- --- ------ -------- ----- --- ------ ----- --<br>----- ----- ---------- --- --- ------ ------ ---- -- ------<br>------- --- ------ ----- --- ---- ------- -- ---- --- --<br>------- ------,239146.00000000003,239165,238313,238301.00000000003,238329,239184,,22,the
screen,html.Screen,1_1_1_1_23,2021-03-27T20:03:55.008Z,,,,,,,,,,,,,,,,54,,,,,,,,,,,,,,624,response,,,,100,,,,,,Space,keypress(Space),,,,,,,,-- --- ---- --- ------ ----- ------- ---- -- --- ------- --<br>------- ---------- ------ -- ----- -- ----- -- ---- ------<br>--- state --- --- ------ -------- ----- --- ------ ----- --<br>----- ----- ---------- --- --- ------ ------ ---- -- ------<br>------- --- ------ ----- --- ---- ------- -- ---- --- --<br>------- ------,239772,239793,239169,239146.00000000003,239184,239807,,23,state
screen,html.Screen,1_1_1_1_24,2021-03-27T20:03:55.704Z,,,,,,,,,,,,,,,,54,,,,,,,,,,,,,,698,response,,,,100,,,,,,Space,keypress(Space),,,,,,,,-- --- ---- --- ------ ----- ------- ---- -- --- ------- --<br>------- ---------- ------ -- ----- -- ----- -- ---- ------<br>--- ----- cut --- ------ -------- ----- --- ------ ----- --<br>----- ----- ---------- --- --- ------ ------ ---- -- ------<br>------- --- ------ ----- --- ---- ------- -- ---- --- --<br>------- ------,240468.00000000003,240488,239790,239773,239807,240495,,24,cut
screen,html.Screen,1_1_1_1_25,2021-03-27T20:03:56.643Z,,,,,,,,,,,,,,,,54,,,,,,,,,,,,,,948,response,,,,100,,,,,,Space,keypress(Space),,,,,,,,-- --- ---- --- ------ ----- ------- ---- -- --- ------- --<br>------- ---------- ------ -- ----- -- ----- -- ---- ------<br>--- ----- --- the ------ -------- ----- --- ------ ----- --<br>----- ----- ---------- --- --- ------ ------ ---- -- ------<br>------- --- ------ ----- --- ---- ------- -- ---- --- --<br>------- ------,241407,241427,240479,240468.00000000003,240495,241433,,25,the
screen,html.Screen,1_1_1_1_26,2021-03-27T20:03:57.496Z,,,,,,,,,,,,,,,,54,,,,,,,,,,,,,,864,response,,,,100,,,,,,Space,keypress(Space),,,,,,,,-- --- ---- --- ------ ----- ------- ---- -- --- ------- --<br>------- ---------- ------ -- ----- -- ----- -- ---- ------<br>--- ----- --- --- bonds' -------- ----- --- ------ ----- --<br>----- ----- ---------- --- --- ------ ------ ---- -- ------<br>------- --- ------ ----- --- ---- ------- -- ---- --- --<br>------- ------,242261,242281,241417,241407,241433,242289,,26,bonds'
screen,html.Screen,1_1_1_1_27,2021-03-27T20:03:59.135Z,,,,,,,,,,,,,,,,54,,,,,,,,,,,,,,1648.000000000029,response,,,,100,,,,,,Space,keypress(Space),,,,,,,,-- --- ---- --- ------ ----- ------- ---- -- --- ------- --<br>------- ---------- ------ -- ----- -- ----- -- ---- ------<br>--- ----- --- --- ------ interest ----- --- ------ ----- --<br>----- ----- ---------- --- --- ------ ------ ---- -- ------<br>------- --- ------ ----- --- ---- ------- -- ---- --- --<br>------- ------,243899,243920.00000000003,242272,242261,242289,243928,,27,interest
screen,html.Screen,1_1_1_1_28,2021-03-27T20:03:59.735Z,,,,,,,,,,,,,,,,54,,,,,,,,,,,,,,609,response,,,,100,,,,,,Space,keypress(Space),,,,,,,,-- --- ---- --- ------ ----- ------- ---- -- --- ------- --<br>------- ---------- ------ -- ----- -- ----- -- ---- ------<br>--- ----- --- --- ------ -------- rate. --- ------ ----- --<br>----- ----- ---------- --- --- ------ ------ ---- -- ------<br>------- --- ------ ----- --- ---- ------- -- ---- --- --<br>------- ------,244500,244520,243911,243899,243928,244534,,28,rate.
screen,html.Screen,1_1_1_1_29,2021-03-27T20:04:00.447Z,,,,,,,,,,,,,,,,54,,,,,,,,,,,,,,715,response,,,,100,,,,,,Space,keypress(Space),,,,,,,,-- --- ---- --- ------ ----- ------- ---- -- --- ------- --<br>------- ---------- ------ -- ----- -- ----- -- ---- ------<br>--- ----- --- --- ------ -------- ----- The ------ ----- --<br>----- ----- ---------- --- --- ------ ------ ---- -- ------<br>------- --- ------ ----- --- ---- ------- -- ---- --- --<br>------- ------,245211,245231,244516,244500,244534,245238,,29,The
screen,html.Screen,1_1_1_1_30,2021-03-27T20:04:01.451Z,,,,,,,,,,,,,,,,54,,,,,,,,,,,,,,1015,response,,,,100,,,,,,Space,keypress(Space),,,,,,,,-- --- ---- --- ------ ----- ------- ---- -- --- ------- --<br>------- ---------- ------ -- ----- -- ----- -- ---- ------<br>--- ----- --- --- ------ -------- ----- --- market ----- --<br>----- ----- ---------- --- --- ------ ------ ---- -- ------<br>------- --- ------ ----- --- ---- ------- -- ---- --- --<br>------- ------,246216,246237,245222,245211,245238,246243,,30,market
screen,html.Screen,1_1_1_1_31,2021-03-27T20:04:02.270Z,,,,,,,,,,,,,,,,54,,,,,,,,,,,,,,830,response,,,,100,,,,,,Space,keypress(Space),,,,,,,,-- --- ---- --- ------ ----- ------- ---- -- --- ------- --<br>------- ---------- ------ -- ----- -- ----- -- ---- ------<br>--- ----- --- --- ------ -------- ----- --- ------ value --<br>----- ----- ---------- --- --- ------ ------ ---- -- ------<br>------- --- ------ ----- --- ---- ------- -- ---- --- --<br>------- ------,247034,247055,246225,246216,246243,247065,,31,value
screen,html.Screen,1_1_1_1_32,2021-03-27T20:04:02.943Z,,,,,,,,,,,,,,,,54,,,,,,,,,,,,,,682,response,,,,100,,,,,,Space,keypress(Space),,,,,,,,-- --- ---- --- ------ ----- ------- ---- -- --- ------- --<br>------- ---------- ------ -- ----- -- ----- -- ---- ------<br>--- ----- --- --- ------ -------- ----- --- ------ ----- of<br>----- ----- ---------- --- --- ------ ------ ---- -- ------<br>------- --- ------ ----- --- ---- ------- -- ---- --- --<br>------- ------,247708,247729,247047,247034,247065,247736,,32,of
screen,html.Screen,1_1_1_1_33,2021-03-27T20:04:03.542Z,,,,,,,,,,,,,,,,54,,,,,,,,,,,,,,609,response,,,,100,,,,,,Space,keypress(Space),,,,,,,,-- --- ---- --- ------ ----- ------- ---- -- --- ------- --<br>------- ---------- ------ -- ----- -- ----- -- ---- ------<br>--- ----- --- --- ------ -------- ----- --- ------ ----- --<br>these ----- ---------- --- --- ------ ------ ---- -- ------<br>------- --- ------ ----- --- ---- ------- -- ---- --- --<br>------- ------,248307.00000000003,248328,247719,247708,247736,248340,,33,these
screen,html.Screen,1_1_1_1_34,2021-03-27T20:04:04.152Z,,,,,,,,,,,,,,,,54,,,,,,,,,,,,,,614.0000000000291,response,,,,100,,,,,,Space,keypress(Space),,,,,,,,-- --- ---- --- ------ ----- ------- ---- -- --- ------- --<br>------- ---------- ------ -- ----- -- ----- -- ---- ------<br>--- ----- --- --- ------ -------- ----- --- ------ ----- --<br>----- bonds ---------- --- --- ------ ------ ---- -- ------<br>------- --- ------ ----- --- ---- ------- -- ---- --- --<br>------- ------,248917,248938.00000000003,248324,248307.00000000003,248340,248945,,34,bonds
screen,html.Screen,1_1_1_1_35,2021-03-27T20:04:04.935Z,,,,,,,,,,,,,,,,54,,,,,,,,,,,,,,791,response,,,,100,,,,,,Space,keypress(Space),,,,,,,,"-- --- ---- --- ------ ----- ------- ---- -- --- ------- --<br>------- ---------- ------ -- ----- -- ----- -- ---- ------<br>--- ----- --- --- ------ -------- ----- --- ------ ----- --<br>----- ----- plummeted, --- --- ------ ------ ---- -- ------<br>------- --- ------ ----- --- ---- ------- -- ---- --- --<br>------- ------",249699,249720,248929,248917,248945,249734,,35,"plummeted,"
screen,html.Screen,1_1_1_1_36,2021-03-27T20:04:05.629Z,,,,,,,,,,,,,,,,54,,,,,,,,,,,,,,697,response,,,,100,,,,,,Space,keypress(Space),,,,,,,,-- --- ---- --- ------ ----- ------- ---- -- --- ------- --<br>------- ---------- ------ -- ----- -- ----- -- ---- ------<br>--- ----- --- --- ------ -------- ----- --- ------ ----- --<br>----- ----- ---------- and --- ------ ------ ---- -- ------<br>------- --- ------ ----- --- ---- ------- -- ---- --- --<br>------- ------,250394,250415,249718,249699,249734,250422,,36,and
screen,html.Screen,1_1_1_1_37,2021-03-27T20:04:06.169Z,,,,,,,,,,,,,,,,54,,,,,,,,,,,,,,549,response,,,,100,,,,,,Space,keypress(Space),,,,,,,,-- --- ---- --- ------ ----- ------- ---- -- --- ------- --<br>------- ---------- ------ -- ----- -- ----- -- ---- ------<br>--- ----- --- --- ------ -------- ----- --- ------ ----- --<br>----- ----- ---------- --- the ------ ------ ---- -- ------<br>------- --- ------ ----- --- ---- ------- -- ---- --- --<br>------- ------,250934,250955,250406,250394,250422,250961,,37,the
screen,html.Screen,1_1_1_1_38,2021-03-27T20:04:06.852Z,,,,,,,,,,,,,,,,54,,,,,,,,,,,,,,693,response,,,,100,,,,,,Space,keypress(Space),,,,,,,,-- --- ---- --- ------ ----- ------- ---- -- --- ------- --<br>------- ---------- ------ -- ----- -- ----- -- ---- ------<br>--- ----- --- --- ------ -------- ----- --- ------ ----- --<br>----- ----- ---------- --- --- market ------ ---- -- ------<br>------- --- ------ ----- --- ---- ------- -- ---- --- --<br>------- ------,251616,251638,250945,250934,250961,251649,,38,market
screen,html.Screen,1_1_1_1_39,2021-03-27T20:04:07.468Z,,,,,,,,,,,,,,,,54,,,,,,,,,,,,,,621.0000000000291,response,,,,100,,,,,,Space,keypress(Space),,,,,,,,-- --- ---- --- ------ ----- ------- ---- -- --- ------- --<br>------- ---------- ------ -- ----- -- ----- -- ---- ------<br>--- ----- --- --- ------ -------- ----- --- ------ ----- --<br>----- ----- ---------- --- --- ------ became ---- -- ------<br>------- --- ------ ----- --- ---- ------- -- ---- --- --<br>------- ------,252233,252254.00000000003,251633,251617.00000000003,251649,252272,,39,became
screen,html.Screen,1_1_1_1_40,2021-03-27T20:04:08.186Z,,,,,,,,,,,,,,,,54,,,,,,,,,,,,,,717,response,,,,100,,,,,,Space,keypress(Space),,,,,,,,-- --- ---- --- ------ ----- ------- ---- -- --- ------- --<br>------- ---------- ------ -- ----- -- ----- -- ---- ------<br>--- ----- --- --- ------ -------- ----- --- ------ ----- --<br>----- ----- ---------- --- --- ------ ------ wary -- ------<br>------- --- ------ ----- --- ---- ------- -- ---- --- --<br>------- ------,252950.00000000003,252972,252255,252233,252272,252977,,40,wary
screen,html.Screen,1_1_1_1_41,2021-03-27T20:04:08.730Z,,,,,,,,,,,,,,,,54,,,,,,,,,,,,,,556,response,,,,100,,,,,,Space,keypress(Space),,,,,,,,-- --- ---- --- ------ ----- ------- ---- -- --- ------- --<br>------- ---------- ------ -- ----- -- ----- -- ---- ------<br>--- ----- --- --- ------ -------- ----- --- ------ ----- --<br>----- ----- ---------- --- --- ------ ------ ---- of ------<br>------- --- ------ ----- --- ---- ------- -- ---- --- --<br>------- ------,253495,253516,252960,252950.00000000003,252977,253533,,41,of
screen,html.Screen,1_1_1_1_42,2021-03-27T20:04:09.410Z,,,,,,,,,,,,,,,,54,,,,,,,,,,,,,,681,response,,,,100,,,,,,Space,keypress(Space),,,,,,,,-- --- ---- --- ------ ----- ------- ---- -- --- ------- --<br>------- ---------- ------ -- ----- -- ----- -- ---- ------<br>--- ----- --- --- ------ -------- ----- --- ------ ----- --<br>----- ----- ---------- --- --- ------ ------ ---- -- French<br>------- --- ------ ----- --- ---- ------- -- ---- --- --<br>------- ------,254175,254197,253516,253495,253533,254204,,42,French
screen,html.Screen,1_1_1_1_43,2021-03-27T20:04:10.111Z,,,,,,,,,,,,,,,,54,,,,,,,,,,,,,,710,response,,,,100,,,,,,Space,keypress(Space),,,,,,,,-- --- ---- --- ------ ----- ------- ---- -- --- ------- --<br>------- ---------- ------ -- ----- -- ----- -- ---- ------<br>--- ----- --- --- ------ -------- ----- --- ------ ----- --<br>----- ----- ---------- --- --- ------ ------ ---- -- ------<br>credit. --- ------ ----- --- ---- ------- -- ---- --- --<br>------- ------,254876,254898,254188,254175,254204,254910,,43,credit.
screen,html.Screen,1_1_1_1_44,2021-03-27T20:04:10.738Z,,,,,,,,,,,,,,,,54,,,,,,,,,,,,,,632,response,,,,100,,,,,,Space,keypress(Space),,,,,,,,-- --- ---- --- ------ ----- ------- ---- -- --- ------- --<br>------- ---------- ------ -- ----- -- ----- -- ---- ------<br>--- ----- --- --- ------ -------- ----- --- ------ ----- --<br>----- ----- ---------- --- --- ------ ------ ---- -- ------<br>------- The ------ ----- --- ---- ------- -- ---- --- --<br>------- ------,255503,255524,254892,254876,254910,255532,,44,The
screen,html.Screen,1_1_1_1_45,2021-03-27T20:04:11.454Z,,,,,,,,,,,,,,,,54,,,,,,,,,,,,,,725,response,,,,100,,,,,,Space,keypress(Space),,,,,,,,-- --- ---- --- ------ ----- ------- ---- -- --- ------- --<br>------- ---------- ------ -- ----- -- ----- -- ---- ------<br>--- ----- --- --- ------ -------- ----- --- ------ ----- --<br>----- ----- ---------- --- --- ------ ------ ---- -- ------<br>------- --- French ----- --- ---- ------- -- ---- --- --<br>------- ------,256219,256240,255515,255503,255532,256252,,45,French
screen,html.Screen,1_1_1_1_46,2021-03-27T20:04:12.140Z,,,,,,,,,,,,,,,,54,,,,,,,,,,,,,,691.0000000000291,response,,,,100,,,,,,Space,keypress(Space),,,,,,,,-- --- ---- --- ------ ----- ------- ---- -- --- ------- --<br>------- ---------- ------ -- ----- -- ----- -- ---- ------<br>--- ----- --- --- ------ -------- ----- --- ------ ----- --<br>----- ----- ---------- --- --- ------ ------ ---- -- ------<br>------- --- ------ state --- ---- ------- -- ---- --- --<br>------- ------,256905.00000000003,256927.00000000003,256236,256219,256252,256941,,46,state
screen,html.Screen,1_1_1_1_47,2021-03-27T20:04:12.750Z,,,,,,,,,,,,,,,,54,,,,,,,,,,,,,,612.9999999999709,response,,,,100,,,,,,Space,keypress(Space),,,,,,,,-- --- ---- --- ------ ----- ------- ---- -- --- ------- --<br>------- ---------- ------ -- ----- -- ----- -- ---- ------<br>--- ----- --- --- ------ -------- ----- --- ------ ----- --<br>----- ----- ---------- --- --- ------ ------ ---- -- ------<br>------- --- ------ ----- was ---- ------- -- ---- --- --<br>------- ------,257515,257536.99999999997,256924,256906,256941,257545,,47,was
screen,html.Screen,1_1_1_1_48,2021-03-27T20:04:13.383Z,,,,,,,,,,,,,,,,54,,,,,,,,,,,,,,641.0000000000291,response,,,,100,,,,,,Space,keypress(Space),,,,,,,,-- --- ---- --- ------ ----- ------- ---- -- --- ------- --<br>------- ---------- ------ -- ----- -- ----- -- ---- ------<br>--- ----- --- --- ------ -------- ----- --- ------ ----- --<br>----- ----- ---------- --- --- ------ ------ ---- -- ------<br>------- --- ------ ----- --- left ------- -- ---- --- --<br>------- ------,258148.00000000003,258170.00000000003,257529,257515,257545,258185,,48,left
screen,html.Screen,1_1_1_1_49,2021-03-27T20:04:14.033Z,,,,,,,,,,,,,,,,54,,,,,,,,,,,,,,651.0000000000291,response,,,,100,,,,,,Space,keypress(Space),,,,,,,,-- --- ---- --- ------ ----- ------- ---- -- --- ------- --<br>------- ---------- ------ -- ----- -- ----- -- ---- ------<br>--- ----- --- --- ------ -------- ----- --- ------ ----- --<br>----- ----- ---------- --- --- ------ ------ ---- -- ------<br>------- --- ------ ----- --- ---- without -- ---- --- --<br>------- ------,258798,258819.00000000003,258168,258148.00000000003,258185,258840,,49,without
screen,html.Screen,1_1_1_1_50,2021-03-27T20:04:14.653Z,,,,,,,,,,,,,,,,54,,,,,,,,,,,,,,617,response,,,,100,,,,,,Space,keypress(Space),,,,,,,,-- --- ---- --- ------ ----- ------- ---- -- --- ------- --<br>------- ---------- ------ -- ----- -- ----- -- ---- ------<br>--- ----- --- --- ------ -------- ----- --- ------ ----- --<br>----- ----- ---------- --- --- ------ ------ ---- -- ------<br>------- --- ------ ----- --- ---- ------- an ---- --- --<br>------- ------,259418,259440,258823,258798,258840,259445,,50,an
screen,html.Screen,1_1_1_1_51,2021-03-27T20:04:15.291Z,,,,,,,,,,,,,,,,54,,,,,,,,,,,,,,650.0000000000291,response,,,,100,,,,,,Space,keypress(Space),,,,,,,,-- --- ---- --- ------ ----- ------- ---- -- --- ------- --<br>------- ---------- ------ -- ----- -- ----- -- ---- ------<br>--- ----- --- --- ------ -------- ----- --- ------ ----- --<br>----- ----- ---------- --- --- ------ ------ ---- -- ------<br>------- --- ------ ----- --- ---- ------- -- easy --- --<br>------- ------,260057.00000000003,260078.00000000003,259428,259418,259445,260084,,51,easy
screen,html.Screen,1_1_1_1_52,2021-03-27T20:04:15.910Z,,,,,,,,,,,,,,,,54,,,,,,,,,,,,,,631,response,,,,100,,,,,,Space,keypress(Space),,,,,,,,-- --- ---- --- ------ ----- ------- ---- -- --- ------- --<br>------- ---------- ------ -- ----- -- ----- -- ---- ------<br>--- ----- --- --- ------ -------- ----- --- ------ ----- --<br>----- ----- ---------- --- --- ------ ------ ---- -- ------<br>------- --- ------ ----- --- ---- ------- -- ---- way --<br>------- ------,260676,260697,260066,260057.00000000003,260084,260706,,52,way
screen,html.Screen,1_1_1_1_53,2021-03-27T20:04:16.521Z,,,,,,,,,,,,,,,,54,,,,,,,,,,,,,,618.0000000000291,response,,,,100,,,,,,Space,keypress(Space),,,,,,,,-- --- ---- --- ------ ----- ------- ---- -- --- ------- --<br>------- ---------- ------ -- ----- -- ----- -- ---- ------<br>--- ----- --- --- ------ -------- ----- --- ------ ----- --<br>----- ----- ---------- --- --- ------ ------ ---- -- ------<br>------- --- ------ ----- --- ---- ------- -- ---- --- of<br>------- ------,261286,261307.00000000003,260689,260676,260706,261328,,53,of
screen,html.Screen,1_1_1_1_54,2021-03-27T20:04:17.186Z,,,,,,,,,,,,,,,,54,,,,,,,,,,,,,,662,response,,,,100,,,,,,Space,keypress(Space),,,,,,,,-- --- ---- --- ------ ----- ------- ---- -- --- ------- --<br>------- ---------- ------ -- ----- -- ----- -- ---- ------<br>--- ----- --- --- ------ -------- ----- --- ------ ----- --<br>----- ----- ---------- --- --- ------ ------ ---- -- ------<br>------- --- ------ ----- --- ---- ------- -- ---- --- --<br>raising ------,261951.00000000003,261973,261311,261286,261328,261983,,54,raising
screen,html.Screen,1_1_1_1_55,2021-03-27T20:04:17.783Z,,,,,,,,,,,,,,,,54,,,,,,,,,,,,,,604,response,,,,100,,,,,,Space,keypress(Space),,,,,,,,-- --- ---- --- ------ ----- ------- ---- -- --- ------- --<br>------- ---------- ------ -- ----- -- ----- -- ---- ------<br>--- ----- --- --- ------ -------- ----- --- ------ ----- --<br>----- ----- ---------- --- --- ------ ------ ---- -- ------<br>------- --- ------ ----- --- ---- ------- -- ---- --- --<br>------- money.,262549,262570,261966,261951.00000000003,261983,262588,,55,money.
Item 100,flow.Loop,1_1_1_1,2021-03-27T20:04:17.784Z,,,,,,,,,,,,,,,,,,,,,,,,,,,,,,44153,completion,,,,,F,,,,,,,,,,silence,,,,,262549,262570,218400,218401,218417,262588,,,
Question 1,html.Screen,1_1_1_2,2021-03-27T20:04:23.811Z,,,,,,,,,,,,,,,,,,,,,,,,,,,true,TRUE,,6029,response,,,,100,F,,,,,TRUE,click #choice-1,,,,silence,,,,,268577,268600,262571,262549,262588,268600,,,
Question 2,html.Screen,1_1_1_3,2021-03-27T20:04:29.962Z,,,,,,,,,,,,,,,,,,,,,,,,,,,true,FALSE,,6171.000000000058,response,,,,100,F,,,,,FALSE,click #choice-2,,,,silence,,,,,274728,274751.00000000006,268580,268577,268600,274754,,,
Item 100,flow.Sequence,1_1_1,2021-03-27T20:04:29.962Z,,,,,,,,,,,,,,,,,,,,,,,,,,,,,,63335.00000000006,completion,,,,,,,,,,,,,,,,,,,,274728,274751.00000000006,211400,211385,211416,274754,,,
End of Practice,html.Page,1_1_2,2021-03-27T20:04:33.431Z,,,,,,,,,,,,,,,,,,,,,,,,,,,,,,3442,form submission,,,,,,,,,,,,,,,,,,,,278197,278196,274738,274728,274754,278217,,,
Practice,flow.Sequence,1_1,2021-03-27T20:04:33.431Z,,,,,,,,,,,,,,,,,,,,,,,,,,,,,,133755,completion,,,,,,,,,,,,,,,,,,,,278197,278196,144425,144422,144441,278217,,,
Trap_instruction,html.Page,1_2_0,2021-03-27T20:04:34.825Z,,,,,,,,,,,,,,,,,,,,,,,,,,,,,,1374,form submission,,,,,,,,,,,,,,,,,,,,279591,279591,278201,278197,278217,279704,,,
trap_trial,html.Screen,1_2_1,2021-03-27T20:04:39.179Z,,,,,,,,,,,,,,,,,,,,,,,,,,,true,1,,4276,response,,,,,,,,,,1,click #choice-1,,,,,,,,,283946,283970,279694,279591,279704,283988,,,
end of trap trial,html.Page,1_2_2,2021-03-27T20:04:40.593Z,,,,,,,,,,,,,,,,,,,,,,,,,,,,,,1371,form submission,,,,,,,,,,,,,,,,,,,,285360,285359,283986,283946,283988,285380,,,
Trap 1,flow.Sequence,1_2,2021-03-27T20:04:40.593Z,,,,,,,,,,,,,,,,,,,,,,,,,,,,,,7142,completion,,,,,,,,,,,,,,,,,,,,285360,285359,278201,278197,278217,285380,,,
Holding screen,html.Screen,1_3_0_0,2021-03-27T20:04:47.598Z,,,,,,,,,,,,,,,,,,,,,,,,,,,,,,7001,timeout,,,,,,,,,,,,,,,,,,,,292365,292365,285363,285360,285380,292381,,,
screen,html.Screen,1_3_0_1_0,2021-03-27T20:04:49.716Z,,,,,,,,,,,,,,,,15,,,,,,,,,,,,,,2140,response,,,,7,F,,,,,Space,keypress(Space),,,,instrumental,,,,Greg --------- ---------- - --- ------- -- --- ------------<br>----- -- -------- ------- ---- ------ - -------- ---- -----<br>--- ------- ---- -- --- -------- --- - ----- ------ ---- --<br>-------- --- -------- -------- --- -------- ---- -- ----- -<br>-------- ---- --- ---------- --------- -- ------- ------ -<br>--------- ----- -----,294483,294505,292365,292365,292381,294518,,0,Greg
screen,html.Screen,1_3_0_1_1,2021-03-27T20:04:50.582Z,,,,,,,,,,,,,,,,15,,,,,,,,,,,,,,872,response,,,,7,F,,,,,Space,keypress(Space),,,,instrumental,,,,"---- Anderson, ---------- - --- ------- -- --- ------------<br>----- -- -------- ------- ---- ------ - -------- ---- -----<br>--- ------- ---- -- --- -------- --- - ----- ------ ---- --<br>-------- --- -------- -------- --- -------- ---- -- ----- -<br>-------- ---- --- ---------- --------- -- ------- ------ -<br>--------- ----- -----",295349,295373,294501,294483,294518,295389,,1,"Anderson,"
screen,html.Screen,1_3_0_1_2,2021-03-27T20:04:51.310Z,,,,,,,,,,,,,,,,15,,,,,,,,,,,,,,729,response,,,,7,F,,,,,Space,keypress(Space),,,,instrumental,,,,---- --------- considered - --- ------- -- --- ------------<br>----- -- -------- ------- ---- ------ - -------- ---- -----<br>--- ------- ---- -- --- -------- --- - ----- ------ ---- --<br>-------- --- -------- -------- --- -------- ---- -- ----- -<br>-------- ---- --- ---------- --------- -- ------- ------ -<br>--------- ----- -----,296077,296101,295372,295349,295389,296112,,2,considered
screen,html.Screen,1_3_0_1_3,2021-03-27T20:04:51.751Z,,,,,,,,,,,,,,,,15,,,,,,,,,,,,,,447.0000000000582,response,,,,7,F,,,,,Space,keypress(Space),,,,instrumental,,,,---- --------- ---------- a --- ------- -- --- ------------<br>----- -- -------- ------- ---- ------ - -------- ---- -----<br>--- ------- ---- -- --- -------- --- - ----- ------ ---- --<br>-------- --- -------- -------- --- -------- ---- -- ----- -<br>-------- ---- --- ---------- --------- -- ------- ------ -<br>--------- ----- -----,296519,296542.00000000006,296095,296077,296112,296551,,3,a
screen,html.Screen,1_3_0_1_4,2021-03-27T20:04:52.341Z,,,,,,,,,,,,,,,,15,,,,,,,,,,,,,,598,response,,,,7,F,,,,,Space,keypress(Space),,,,instrumental,,,,---- --------- ---------- - key ------- -- --- ------------<br>----- -- -------- ------- ---- ------ - -------- ---- -----<br>--- ------- ---- -- --- -------- --- - ----- ------ ---- --<br>-------- --- -------- -------- --- -------- ---- -- ----- -<br>-------- ---- --- ---------- --------- -- ------- ------ -<br>--------- ----- -----,297108,297132,296534,296519,296551,297138,,4,key
screen,html.Screen,1_3_0_1_5,2021-03-27T20:04:52.943Z,,,,,,,,,,,,,,,,15,,,,,,,,,,,,,,612,response,,,,7,F,,,,,Space,keypress(Space),,,,instrumental,,,,---- --------- ---------- - --- witness -- --- ------------<br>----- -- -------- ------- ---- ------ - -------- ---- -----<br>--- ------- ---- -- --- -------- --- - ----- ------ ---- --<br>-------- --- -------- -------- --- -------- ---- -- ----- -<br>-------- ---- --- ---------- --------- -- ------- ------ -<br>--------- ----- -----,297710,297733,297121,297109,297138,297743,,5,witness
screen,html.Screen,1_3_0_1_6,2021-03-27T20:04:53.614Z,,,,,,,,,,,,,,,,15,,,,,,,,,,,,,,678.0000000000582,response,,,,7,F,,,,,Space,keypress(Space),,,,instrumental,,,,---- --------- ---------- - --- ------- by --- ------------<br>----- -- -------- ------- ---- ------ - -------- ---- -----<br>--- ------- ---- -- --- -------- --- - ----- ------ ---- --<br>-------- --- -------- -------- --- -------- ---- -- ----- -<br>-------- ---- --- ---------- --------- -- ------- ------ -<br>--------- ----- -----,298382,298405.00000000006,297727,297710,297743,298415,,6,by
screen,html.Screen,1_3_0_1_7,2021-03-27T20:04:54.258Z,,,,,,,,,,,,,,,,15,,,,,,,,,,,,,,651,response,,,,7,F,,,,,Space,keypress(Space),,,,instrumental,,,,---- --------- ---------- - --- ------- -- the ------------<br>----- -- -------- ------- ---- ------ - -------- ---- -----<br>--- ------- ---- -- --- -------- --- - ----- ------ ---- --<br>-------- --- -------- -------- --- -------- ---- -- ----- -<br>-------- ---- --- ---------- --------- -- ------- ------ -<br>--------- ----- -----,299026,299050,298399,298382,298415,299054,,7,the
screen,html.Screen,1_3_0_1_8,2021-03-27T20:04:55.397Z,,,,,,,,,,,,,,,,15,,,,,,,,,,,,,,1152,response,,,,7,F,,,,,Space,keypress(Space),,,,instrumental,,,,"---- --------- ---------- - --- ------- -- --- prosecution,<br>----- -- -------- ------- ---- ------ - -------- ---- -----<br>--- ------- ---- -- --- -------- --- - ----- ------ ---- --<br>-------- --- -------- -------- --- -------- ---- -- ----- -<br>-------- ---- --- ---------- --------- -- ------- ------ -<br>--------- ----- -----",300165,300189,299037,299026,299054,300192,,8,"prosecution,"
screen,html.Screen,1_3_0_1_9,2021-03-27T20:04:56.116Z,,,,,,,,,,,,,,,,15,,,,,,,,,,,,,,732,response,,,,7,F,,,,,Space,keypress(Space),,,,instrumental,,,,---- --------- ---------- - --- ------- -- --- ------------<br>vowed -- -------- ------- ---- ------ - -------- ---- -----<br>--- ------- ---- -- --- -------- --- - ----- ------ ---- --<br>-------- --- -------- -------- --- -------- ---- -- ----- -<br>-------- ---- --- ---------- --------- -- ------- ------ -<br>--------- ----- -----,300883,300907,300175,300165,300192,300914,,9,vowed
screen,html.Screen,1_3_0_1_10,2021-03-27T20:04:56.802Z,,,,,,,,,,,,,,,,15,,,,,,,,,,,,,,697,response,,,,7,F,,,,,Space,keypress(Space),,,,instrumental,,,,---- --------- ---------- - --- ------- -- --- ------------<br>----- he -------- ------- ---- ------ - -------- ---- -----<br>--- ------- ---- -- --- -------- --- - ----- ------ ---- --<br>-------- --- -------- -------- --- -------- ---- -- ----- -<br>-------- ---- --- ---------- --------- -- ------- ------ -<br>--------- ----- -----,301569,301594,300897,300883,300914,301602,,10,he
screen,html.Screen,1_3_0_1_11,2021-03-27T20:04:57.520Z,,,,,,,,,,,,,,,,15,,,,,,,,,,,,,,726,response,,,,7,F,,,,,Space,keypress(Space),,,,instrumental,,,,---- --------- ---------- - --- ------- -- --- ------------<br>----- -- wouldn't ------- ---- ------ - -------- ---- -----<br>--- ------- ---- -- --- -------- --- - ----- ------ ---- --<br>-------- --- -------- -------- --- -------- ---- -- ----- -<br>-------- ---- --- ---------- --------- -- ------- ------ -<br>--------- ----- -----,302287.00000000006,302311,301585,301570,301602,302324,,11,wouldn't
screen,html.Screen,1_3_0_1_12,2021-03-27T20:04:58.225Z,,,,,,,,,,,,,,,,15,,,,,,,,,,,,,,710,response,,,,7,F,,,,,Space,keypress(Space),,,,instrumental,,,,---- --------- ---------- - --- ------- -- --- ------------<br>----- -- -------- testify ---- ------ - -------- ---- -----<br>--- ------- ---- -- --- -------- --- - ----- ------ ---- --<br>-------- --- -------- -------- --- -------- ---- -- ----- -<br>-------- ---- --- ---------- --------- -- ------- ------ -<br>--------- ----- -----,302993,303017,302307,302287.00000000006,302324,303029,,12,testify
screen,html.Screen,1_3_0_1_13,2021-03-27T20:04:58.825Z,,,,,,,,,,,,,,,,15,,,,,,,,,,,,,,604,response,,,,7,F,,,,,Space,keypress(Space),,,,instrumental,,,,---- --------- ---------- - --- ------- -- --- ------------<br>----- -- -------- ------- when ------ - -------- ---- -----<br>--- ------- ---- -- --- -------- --- - ----- ------ ---- --<br>-------- --- -------- -------- --- -------- ---- -- ----- -<br>-------- ---- --- ---------- --------- -- ------- ------ -<br>--------- ----- -----,303593,303617,303013,302993,303029,303633,,13,when
screen,html.Screen,1_3_0_1_14,2021-03-27T20:04:59.477Z,,,,,,,,,,,,,,,,15,,,,,,,,,,,,,,652,response,,,,7,F,,,,,Space,keypress(Space),,,,instrumental,,,,---- --------- ---------- - --- ------- -- --- ------------<br>----- -- -------- ------- ---- served - -------- ---- -----<br>--- ------- ---- -- --- -------- --- - ----- ------ ---- --<br>-------- --- -------- -------- --- -------- ---- -- ----- -<br>-------- ---- --- ---------- --------- -- ------- ------ -<br>--------- ----- -----,304245,304269,303617,303593,303633,304273,,14,served
screen,html.Screen,1_3_0_1_15,2021-03-27T20:04:59.908Z,,,,,,,,,,,,,,,,15,,,,,,,,,,,,,,445,response,,,,7,F,,,,,Space,keypress(Space),,,,instrumental,,,,---- --------- ---------- - --- ------- -- --- ------------<br>----- -- -------- ------- ---- ------ a -------- ---- -----<br>--- ------- ---- -- --- -------- --- - ----- ------ ---- --<br>-------- --- -------- -------- --- -------- ---- -- ----- -<br>-------- ---- --- ---------- --------- -- ------- ------ -<br>--------- ----- -----,304676,304700,304255,304245,304273,304711,,15,a
screen,html.Screen,1_3_0_1_16,2021-03-27T20:05:03.312Z,,,,,,,,,,,,,,,,15,,,,,,,,,,,,,,3411,response,,,,7,F,,,,,Space,keypress(Space),,,,instrumental,,,,---- --------- ---------- - --- ------- -- --- ------------<br>----- -- -------- ------- ---- ------ - subpoena ---- -----<br>--- ------- ---- -- --- -------- --- - ----- ------ ---- --<br>-------- --- -------- -------- --- -------- ---- -- ----- -<br>-------- ---- --- ---------- --------- -- ------- ------ -<br>--------- ----- -----,308081,308105,304694,304676,304711,308115,,16,subpoena
screen,html.Screen,1_3_0_1_17,2021-03-27T20:05:03.818Z,,,,,,,,,,,,,,,,15,,,,,,,,,,,,,,512,response,,,,7,F,,,,,Space,keypress(Space),,,,instrumental,,,,---- --------- ---------- - --- ------- -- --- ------------<br>----- -- -------- ------- ---- ------ - -------- last -----<br>--- ------- ---- -- --- -------- --- - ----- ------ ---- --<br>-------- --- -------- -------- --- -------- ---- -- ----- -<br>-------- ---- --- ---------- --------- -- ------- ------ -<br>--------- ----- -----,308586,308611,308099,308081,308115,308620,,17,last
screen,html.Screen,1_3_0_1_18,2021-03-27T20:05:04.478Z,,,,,,,,,,,,,,,,15,,,,,,,,,,,,,,666,response,,,,7,F,,,,,Space,keypress(Space),,,,instrumental,,,,---- --------- ---------- - --- ------- -- --- ------------<br>----- -- -------- ------- ---- ------ - -------- ---- week.<br>--- ------- ---- -- --- -------- --- - ----- ------ ---- --<br>-------- --- -------- -------- --- -------- ---- -- ----- -<br>-------- ---- --- ---------- --------- -- ------- ------ -<br>--------- ----- -----,309246,309270,308604,308586,308620,309276,,18,week.
screen,html.Screen,1_3_0_1_19,2021-03-27T20:05:05.233Z,,,,,,,,,,,,,,,,15,,,,,,,,,,,,,,767,response,,,,7,F,,,,,Space,keypress(Space),,,,instrumental,,,,---- --------- ---------- - --- ------- -- --- ------------<br>----- -- -------- ------- ---- ------ - -------- ---- -----<br>His ------- ---- -- --- -------- --- - ----- ------ ---- --<br>-------- --- -------- -------- --- -------- ---- -- ----- -<br>-------- ---- --- ---------- --------- -- ------- ------ -<br>--------- ----- -----,310001.00000000006,310026,309259,309246,309276,310032,,19,His
screen,html.Screen,1_3_0_1_20,2021-03-27T20:05:06.135Z,,,,,,,,,,,,,,,,15,,,,,,,,,,,,,,913,response,,,,7,F,,,,,Space,keypress(Space),,,,instrumental,,,,---- --------- ---------- - --- ------- -- --- ------------<br>----- -- -------- ------- ---- ------ - -------- ---- -----<br>--- lawyers ---- -- --- -------- --- - ----- ------ ---- --<br>-------- --- -------- -------- --- -------- ---- -- ----- -<br>-------- ---- --- ---------- --------- -- ------- ------ -<br>--------- ----- -----,310903,310928,310015,310001.00000000006,310032,310937,,20,lawyers
screen,html.Screen,1_3_0_1_21,2021-03-27T20:05:06.566Z,,,,,,,,,,,,,,,,15,,,,,,,,,,,,,,439,response,,,,7,F,,,,,Space,keypress(Space),,,,instrumental,,,,---- --------- ---------- - --- ------- -- --- ------------<br>----- -- -------- ------- ---- ------ - -------- ---- -----<br>--- ------- said -- --- -------- --- - ----- ------ ---- --<br>-------- --- -------- -------- --- -------- ---- -- ----- -<br>-------- ---- --- ---------- --------- -- ------- ------ -<br>--------- ----- -----,311334,311359,310920,310903,310937,311376,,21,said
screen,html.Screen,1_3_0_1_22,2021-03-27T20:05:06.977Z,,,,,,,,,,,,,,,,15,,,,,,,,,,,,,,411,response,,,,7,F,,,,,Space,keypress(Space),,,,instrumental,,,,---- --------- ---------- - --- ------- -- --- ------------<br>----- -- -------- ------- ---- ------ - -------- ---- -----<br>--- ------- ---- he --- -------- --- - ----- ------ ---- --<br>-------- --- -------- -------- --- -------- ---- -- ----- -<br>-------- ---- --- ---------- --------- -- ------- ------ -<br>--------- ----- -----,311745,311770,311359,311334,311376,311764,,22,he
screen,html.Screen,1_3_0_1_23,2021-03-27T20:05:07.356Z,,,,,,,,,,,,,,,,15,,,,,,,,,,,,,,401,response,,,,7,F,,,,,Space,keypress(Space),,,,instrumental,,,,---- --------- ---------- - --- ------- -- --- ------------<br>----- -- -------- ------- ---- ------ - -------- ---- -----<br>--- ------- ---- -- was -------- --- - ----- ------ ---- --<br>-------- --- -------- -------- --- -------- ---- -- ----- -<br>-------- ---- --- ---------- --------- -- ------- ------ -<br>--------- ----- -----,312124,312149,311748,311745,311764,312153,,23,was
screen,html.Screen,1_3_0_1_24,2021-03-27T20:05:07.766Z,,,,,,,,,,,,,,,,15,,,,,,,,,,,,,,424,response,,,,7,F,,,,,Space,keypress(Space),,,,instrumental,,,,---- --------- ---------- - --- ------- -- --- ------------<br>----- -- -------- ------- ---- ------ - -------- ---- -----<br>--- ------- ---- -- --- prepared --- - ----- ------ ---- --<br>-------- --- -------- -------- --- -------- ---- -- ----- -<br>-------- ---- --- ---------- --------- -- ------- ------ -<br>--------- ----- -----,312534,312559,312135,312124,312153,312573,,24,prepared
screen,html.Screen,1_3_0_1_25,2021-03-27T20:05:08.162Z,,,,,,,,,,,,,,,,15,,,,,,,,,,,,,,399,response,,,,7,F,,,,,Space,keypress(Space),,,,instrumental,,,,---- --------- ---------- - --- ------- -- --- ------------<br>----- -- -------- ------- ---- ------ - -------- ---- -----<br>--- ------- ---- -- --- -------- for - ----- ------ ---- --<br>-------- --- -------- -------- --- -------- ---- -- ----- -<br>-------- ---- --- ---------- --------- -- ------- ------ -<br>--------- ----- -----,312930,312955,312556,312534,312573,312961,,25,for
screen,html.Screen,1_3_0_1_26,2021-03-27T20:05:08.583Z,,,,,,,,,,,,,,,,15,,,,,,,,,,,,,,431.0000000000582,response,,,,7,F,,,,,Space,keypress(Space),,,,instrumental,,,,---- --------- ---------- - --- ------- -- --- ------------<br>----- -- -------- ------- ---- ------ - -------- ---- -----<br>--- ------- ---- -- --- -------- --- a ----- ------ ---- --<br>-------- --- -------- -------- --- -------- ---- -- ----- -<br>-------- ---- --- ---------- --------- -- ------- ------ -<br>--------- ----- -----,313351,313376.00000000006,312945,312930,312961,313383,,26,a
screen,html.Screen,1_3_0_1_27,2021-03-27T20:05:09.102Z,,,,,,,,,,,,,,,,15,,,,,,,,,,,,,,529,response,,,,7,F,,,,,Space,keypress(Space),,,,instrumental,,,,---- --------- ---------- - --- ------- -- --- ------------<br>----- -- -------- ------- ---- ------ - -------- ---- -----<br>--- ------- ---- -- --- -------- --- - third ------ ---- --<br>-------- --- -------- -------- --- -------- ---- -- ----- -<br>-------- ---- --- ---------- --------- -- ------- ------ -<br>--------- ----- -----,313871,313895,313366,313351,313383,313903,,27,third
screen,html.Screen,1_3_0_1_28,2021-03-27T20:05:09.599Z,,,,,,,,,,,,,,,,15,,,,,,,,,,,,,,505,response,,,,7,F,,,,,Space,keypress(Space),,,,instrumental,,,,---- --------- ---------- - --- ------- -- --- ------------<br>----- -- -------- ------- ---- ------ - -------- ---- -----<br>--- ------- ---- -- --- -------- --- - ----- prison ---- --<br>-------- --- -------- -------- --- -------- ---- -- ----- -<br>-------- ---- --- ---------- --------- -- ------- ------ -<br>--------- ----- -----,314367,314392,313887,313871,313903,314408,,28,prison
screen,html.Screen,1_3_0_1_29,2021-03-27T20:05:10.246Z,,,,,,,,,,,,,,,,15,,,,,,,,,,,,,,648,response,,,,7,F,,,,,Space,keypress(Space),,,,instrumental,,,,---- --------- ---------- - --- ------- -- --- ------------<br>----- -- -------- ------- ---- ------ - -------- ---- -----<br>--- ------- ---- -- --- -------- --- - ----- ------ stay --<br>-------- --- -------- -------- --- -------- ---- -- ----- -<br>-------- ---- --- ---------- --------- -- ------- ------ -<br>--------- ----- -----,315014,315039,314391,314367,314408,315046,,29,stay
screen,html.Screen,1_3_0_1_30,2021-03-27T20:05:10.825Z,,,,,,,,,,,,,,,,15,,,,,,,,,,,,,,590,response,,,,7,F,,,,,Space,keypress(Space),,,,instrumental,,,,---- --------- ---------- - --- ------- -- --- ------------<br>----- -- -------- ------- ---- ------ - -------- ---- -----<br>--- ------- ---- -- --- -------- --- - ----- ------ ---- to<br>-------- --- -------- -------- --- -------- ---- -- ----- -<br>-------- ---- --- ---------- --------- -- ------- ------ -<br>--------- ----- -----,315593,315618,315028,315014,315046,315633,,30,to
screen,html.Screen,1_3_0_1_31,2021-03-27T20:05:11.433Z,,,,,,,,,,,,,,,,15,,,,,,,,,,,,,,610.0000000000582,response,,,,7,F,,,,,Space,keypress(Space),,,,instrumental,,,,---- --------- ---------- - --- ------- -- --- ------------<br>----- -- -------- ------- ---- ------ - -------- ---- -----<br>--- ------- ---- -- --- -------- --- - ----- ------ ---- --<br>maintain --- -------- -------- --- -------- ---- -- ----- -<br>-------- ---- --- ---------- --------- -- ------- ------ -<br>--------- ----- -----,316202,316227.00000000006,315617,315593,315633,316239,,31,maintain
screen,html.Screen,1_3_0_1_32,2021-03-27T20:05:11.870Z,,,,,,,,,,,,,,,,15,,,,,,,,,,,,,,441,response,,,,7,F,,,,,Space,keypress(Space),,,,instrumental,,,,---- --------- ---------- - --- ------- -- --- ------------<br>----- -- -------- ------- ---- ------ - -------- ---- -----<br>--- ------- ---- -- --- -------- --- - ----- ------ ---- --<br>-------- his -------- -------- --- -------- ---- -- ----- -<br>-------- ---- --- ---------- --------- -- ------- ------ -<br>--------- ----- -----,316639,316664,316223,316202,316239,316678,,32,his
screen,html.Screen,1_3_0_1_33,2021-03-27T20:05:12.716Z,,,,,,,,,,,,,,,,15,,,,,,,,,,,,,,849,response,,,,7,F,,,,,Space,keypress(Space),,,,instrumental,,,,---- --------- ---------- - --- ------- -- --- ------------<br>----- -- -------- ------- ---- ------ - -------- ---- -----<br>--- ------- ---- -- --- -------- --- - ----- ------ ---- --<br>-------- --- silence. -------- --- -------- ---- -- ----- -<br>-------- ---- --- ---------- --------- -- ------- ------ -<br>--------- ----- -----,317484,317510,316661,316639,316678,317516,,33,silence.
screen,html.Screen,1_3_0_1_34,2021-03-27T20:05:13.475Z,,,,,,,,,,,,,,,,15,,,,,,,,,,,,,,768,response,,,,7,F,,,,,Space,keypress(Space),,,,instrumental,,,,---- --------- ---------- - --- ------- -- --- ------------<br>----- -- -------- ------- ---- ------ - -------- ---- -----<br>--- ------- ---- -- --- -------- --- - ----- ------ ---- --<br>-------- --- -------- Anderson --- -------- ---- -- ----- -<br>-------- ---- --- ---------- --------- -- ------- ------ -<br>--------- ----- -----,318243,318268,317500,317484,317516,318271,,34,Anderson
screen,html.Screen,1_3_0_1_35,2021-03-27T20:05:14.075Z,,,,,,,,,,,,,,,,15,,,,,,,,,,,,,,613,response,,,,7,F,,,,,Space,keypress(Space),,,,instrumental,,,,---- --------- ---------- - --- ------- -- --- ------------<br>----- -- -------- ------- ---- ------ - -------- ---- -----<br>--- ------- ---- -- --- -------- --- - ----- ------ ---- --<br>-------- --- -------- -------- was -------- ---- -- ----- -<br>-------- ---- --- ---------- --------- -- ------- ------ -<br>--------- ----- -----,318843,318868,318255,318244,318271,318876,,35,was
screen,html.Screen,1_3_0_1_36,2021-03-27T20:05:14.654Z,,,,,,,,,,,,,,,,15,,,,,,,,,,,,,,588,response,,,,7,F,,,,,Space,keypress(Space),,,,instrumental,,,,---- --------- ---------- - --- ------- -- --- ------------<br>----- -- -------- ------- ---- ------ - -------- ---- -----<br>--- ------- ---- -- --- -------- --- - ----- ------ ---- --<br>-------- --- -------- -------- --- released ---- -- ----- -<br>-------- ---- --- ---------- --------- -- ------- ------ -<br>--------- ----- -----,319423,319448,318860,318843,318876,319465,,36,released
screen,html.Screen,1_3_0_1_37,2021-03-27T20:05:15.616Z,,,,,,,,,,,,,,,,15,,,,,,,,,,,,,,960,response,,,,7,F,,,,,Space,keypress(Space),,,,instrumental,,,,---- --------- ---------- - --- ------- -- --- ------------<br>----- -- -------- ------- ---- ------ - -------- ---- -----<br>--- ------- ---- -- --- -------- --- - ----- ------ ---- --<br>-------- --- -------- -------- --- -------- July -- ----- -<br>-------- ---- --- ---------- --------- -- ------- ------ -<br>--------- ----- -----,320385,320409,319449,319423,319465,320420,,37,July
screen,html.Screen,1_3_0_1_38,2021-03-27T20:05:16.670Z,,,,,,,,,,,,,,,,15,,,,,,,,,,,,,,1060,response,,,,7,F,,,,,Space,keypress(Space),,,,instrumental,,,,---- --------- ---------- - --- ------- -- --- ------------<br>----- -- -------- ------- ---- ------ - -------- ---- -----<br>--- ------- ---- -- --- -------- --- - ----- ------ ---- --<br>-------- --- -------- -------- --- -------- ---- 20 ----- -<br>-------- ---- --- ---------- --------- -- ------- ------ -<br>--------- ----- -----,321439,321464,320404,320385,320420,321475,,38,20
screen,html.Screen,1_3_0_1_39,2021-03-27T20:05:17.484Z,,,,,,,,,,,,,,,,15,,,,,,,,,,,,,,819,response,,,,7,F,,,,,Space,keypress(Space),,,,instrumental,,,,---- --------- ---------- - --- ------- -- --- ------------<br>----- -- -------- ------- ---- ------ - -------- ---- -----<br>--- ------- ---- -- --- -------- --- - ----- ------ ---- --<br>-------- --- -------- -------- --- -------- ---- -- after -<br>-------- ---- --- ---------- --------- -- ------- ------ -<br>--------- ----- -----,322253,322277,321458,321439,321475,322281,,39,after
screen,html.Screen,1_3_0_1_40,2021-03-27T20:05:17.969Z,,,,,,,,,,,,,,,,15,,,,,,,,,,,,,,499.0000000000582,response,,,,7,F,,,,,Space,keypress(Space),,,,instrumental,,,,---- --------- ---------- - --- ------- -- --- ------------<br>----- -- -------- ------- ---- ------ - -------- ---- -----<br>--- ------- ---- -- --- -------- --- - ----- ------ ---- --<br>-------- --- -------- -------- --- -------- ---- -- ----- a<br>-------- ---- --- ---------- --------- -- ------- ------ -<br>--------- ----- -----,322738,322763.00000000006,322264,322253,322281,322769,,40,a
screen,html.Screen,1_3_0_1_41,2021-03-27T20:05:19.049Z,,,,,,,,,,,,,,,,15,,,,,,,,,,,,,,1090,response,,,,7,F,,,,,Space,keypress(Space),,,,instrumental,,,,---- --------- ---------- - --- ------- -- --- ------------<br>----- -- -------- ------- ---- ------ - -------- ---- -----<br>--- ------- ---- -- --- -------- --- - ----- ------ ---- --<br>-------- --- -------- -------- --- -------- ---- -- ----- -<br>two-week ---- --- ---------- --------- -- ------- ------ -<br>--------- ----- -----,323818,323843,322753,322738,322769,323857,,41,two-week
screen,html.Screen,1_3_0_1_42,2021-03-27T20:05:19.879Z,,,,,,,,,,,,,,,,15,,,,,,,,,,,,,,832,response,,,,7,F,,,,,Space,keypress(Space),,,,instrumental,,,,---- --------- ---------- - --- ------- -- --- ------------<br>----- -- -------- ------- ---- ------ - -------- ---- -----<br>--- ------- ---- -- --- -------- --- - ----- ------ ---- --<br>-------- --- -------- -------- --- -------- ---- -- ----- -<br>-------- stay --- ---------- --------- -- ------- ------ -<br>--------- ----- -----,324648,324673,323841,323818,323857,324679,,42,stay
screen,html.Screen,1_3_0_1_43,2021-03-27T20:05:20.661Z,,,,,,,,,,,,,,,,15,,,,,,,,,,,,,,793,response,,,,7,F,,,,,Space,keypress(Space),,,,instrumental,,,,---- --------- ---------- - --- ------- -- --- ------------<br>----- -- -------- ------- ---- ------ - -------- ---- -----<br>--- ------- ---- -- --- -------- --- - ----- ------ ---- --<br>-------- --- -------- -------- --- -------- ---- -- ----- -<br>-------- ---- for ---------- --------- -- ------- ------ -<br>--------- ----- -----,325430,325455,324662,324648,324679,325468,,43,for
screen,html.Screen,1_3_0_1_44,2021-03-27T20:05:21.346Z,,,,,,,,,,,,,,,,15,,,,,,,,,,,,,,688,response,,,,7,F,,,,,Space,keypress(Space),,,,instrumental,,,,---- --------- ---------- - --- ------- -- --- ------------<br>----- -- -------- ------- ---- ------ - -------- ---- -----<br>--- ------- ---- -- --- -------- --- - ----- ------ ---- --<br>-------- --- -------- -------- --- -------- ---- -- ----- -<br>-------- ---- --- previously --------- -- ------- ------ -<br>--------- ----- -----,326116,326140,325452,325430,325468,326157,,44,previously
screen,html.Screen,1_3_0_1_45,2021-03-27T20:05:22.238Z,,,,,,,,,,,,,,,,15,,,,,,,,,,,,,,892,response,,,,7,F,,,,,Space,keypress(Space),,,,instrumental,,,,---- --------- ---------- - --- ------- -- --- ------------<br>----- -- -------- ------- ---- ------ - -------- ---- -----<br>--- ------- ---- -- --- -------- --- - ----- ------ ---- --<br>-------- --- -------- -------- --- -------- ---- -- ----- -<br>-------- ---- --- ---------- declining -- ------- ------ -<br>--------- ----- -----,327007,327032,326140,326116,326157,327046,,45,declining
screen,html.Screen,1_3_0_1_46,2021-03-27T20:05:22.930Z,,,,,,,,,,,,,,,,15,,,,,,,,,,,,,,694,response,,,,7,F,,,,,Space,keypress(Space),,,,instrumental,,,,---- --------- ---------- - --- ------- -- --- ------------<br>----- -- -------- ------- ---- ------ - -------- ---- -----<br>--- ------- ---- -- --- -------- --- - ----- ------ ---- --<br>-------- --- -------- -------- --- -------- ---- -- ----- -<br>-------- ---- --- ---------- --------- to ------- ------ -<br>--------- ----- -----,327699,327724,327030,327007,327046,327734,,46,to
screen,html.Screen,1_3_0_1_47,2021-03-27T20:05:23.628Z,,,,,,,,,,,,,,,,15,,,,,,,,,,,,,,704,response,,,,7,F,,,,,Space,keypress(Space),,,,instrumental,,,,---- --------- ---------- - --- ------- -- --- ------------<br>----- -- -------- ------- ---- ------ - -------- ---- -----<br>--- ------- ---- -- --- -------- --- - ----- ------ ---- --<br>-------- --- -------- -------- --- -------- ---- -- ----- -<br>-------- ---- --- ---------- --------- -- testify ------ -<br>--------- ----- -----,328397,328422,327718,327699,327734,328439,,47,testify
screen,html.Screen,1_3_0_1_48,2021-03-27T20:05:24.331Z,,,,,,,,,,,,,,,,15,,,,,,,,,,,,,,703.0000000000582,response,,,,7,F,,,,,Space,keypress(Space),,,,instrumental,,,,---- --------- ---------- - --- ------- -- --- ------------<br>----- -- -------- ------- ---- ------ - -------- ---- -----<br>--- ------- ---- -- --- -------- --- - ----- ------ ---- --<br>-------- --- -------- -------- --- -------- ---- -- ----- -<br>-------- ---- --- ---------- --------- -- ------- before -<br>--------- ----- -----,329101,329126.00000000006,328423,328397,328439,329128,,48,before
screen,html.Screen,1_3_0_1_49,2021-03-27T20:05:24.762Z,,,,,,,,,,,,,,,,15,,,,,,,,,,,,,,446,response,,,,7,F,,,,,Space,keypress(Space),,,,instrumental,,,,---- --------- ---------- - --- ------- -- --- ------------<br>----- -- -------- ------- ---- ------ - -------- ---- -----<br>--- ------- ---- -- --- -------- --- - ----- ------ ---- --<br>-------- --- -------- -------- --- -------- ---- -- ----- -<br>-------- ---- --- ---------- --------- -- ------- ------ a<br>--------- ----- -----,329531,329557,329111,329101,329128,329567,,49,a
screen,html.Screen,1_3_0_1_50,2021-03-27T20:05:25.303Z,,,,,,,,,,,,,,,,15,,,,,,,,,,,,,,549,response,,,,7,F,,,,,Space,keypress(Space),,,,instrumental,,,,---- --------- ---------- - --- ------- -- --- ------------<br>----- -- -------- ------- ---- ------ - -------- ---- -----<br>--- ------- ---- -- --- -------- --- - ----- ------ ---- --<br>-------- --- -------- -------- --- -------- ---- -- ----- -<br>-------- ---- --- ---------- --------- -- ------- ------ -<br>different ----- -----,330073,330099,329550,329531,329567,330105,,50,different
screen,html.Screen,1_3_0_1_51,2021-03-27T20:05:25.870Z,,,,,,,,,,,,,,,,15,,,,,,,,,,,,,,577,response,,,,7,F,,,,,Space,keypress(Space),,,,instrumental,,,,---- --------- ---------- - --- ------- -- --- ------------<br>----- -- -------- ------- ---- ------ - -------- ---- -----<br>--- ------- ---- -- --- -------- --- - ----- ------ ---- --<br>-------- --- -------- -------- --- -------- ---- -- ----- -<br>-------- ---- --- ---------- --------- -- ------- ------ -<br>--------- grand -----,330640,330665,330088,330073,330105,330678,,51,grand
screen,html.Screen,1_3_0_1_52,2021-03-27T20:05:26.360Z,,,,,,,,,,,,,,,,15,,,,,,,,,,,,,,495.0000000000582,response,,,,7,F,,,,,Space,keypress(Space),,,,instrumental,,,,---- --------- ---------- - --- ------- -- --- ------------<br>----- -- -------- ------- ---- ------ - -------- ---- -----<br>--- ------- ---- -- --- -------- --- - ----- ------ ---- --<br>-------- --- -------- -------- --- -------- ---- -- ----- -<br>-------- ---- --- ---------- --------- -- ------- ------ -<br>--------- ----- jury.,331129,331155.00000000006,330660,330640,330678,331165,,52,jury.
Item 7,flow.Loop,1_3_0_1,2021-03-27T20:05:26.360Z,,,,,,,,,,,,,,,,,,,,,,,,,,,,,,38774.00000000006,completion,,,,,,,,,,,,,,,,,,,,331130,331155.00000000006,292365,292365,292381,331165,,,
Question 1,html.Screen,1_3_0_2,2021-03-27T20:05:32.373Z,,,,,,,,,,,,,,,,,,,,,,,,,,,true,FALSE,,6021,response,,,,7,F,,,,,FALSE,click #choice-2,,,,instrumental,,,,,337143,337170,331149,331130,331165,337174,,,
Question 2,html.Screen,1_3_0_3,2021-03-27T20:05:37.465Z,,,,,,,,,,,,,,,,,,,,,,,,,,,true,TRUE,,5107.000000000058,response,,,,7,F,,,,,TRUE,click #choice-1,,,,instrumental,,,,,342235,342263.00000000006,337156,337143,337174,342263,,,
Item 7,flow.Sequence,1_3_0,2021-03-27T20:05:37.465Z,,,,,,,,,,,,,,,,,,,,,,,,,,,,,,56883.00000000006,completion,,,,,,,,,,,,,,,,,,,,342235,342263.00000000006,285363,285360,285380,342263,,,
Holding screen,html.Screen,1_3_1_0,2021-03-27T20:05:44.476Z,,,,,,,,,,,,,,,,,,,,,,,,,,,,,,7001,timeout,,,,,,,,,,,,,,,,,,,,349247,349247,342248,342236,342263,349264,,,
screen,html.Screen,1_3_1_1_0,2021-03-27T20:05:45.343Z,,,,,,,,,,,,,,,,11,,,,,,,,,,,,,,893,response,,,,4,F,,,,,Space,keypress(Space),,,,instrumental,,,,Known -- ---- --- -- --- -------- ------------ ---------- --<br>- ------- ------ --------- -- ------------ -- --- ---- -----<br>------ ---- ---- ------ ------ ------- --- ----- ---------<br>---- --- -------- -------- --- --- -- ------- --- --- -----<br>-- --- ------ ------- --- --- -------- ---- --------- --<br>---------- -- -------- ----------------,350114.00000000006,350140,349247,349247,349264,350151,,0,Known
screen,html.Screen,1_3_1_1_1,2021-03-27T20:05:45.769Z,,,,,,,,,,,,,,,,11,,,,,,,,,,,,,,432,response,,,,4,F,,,,,Space,keypress(Space),,,,instrumental,,,,----- as ---- --- -- --- -------- ------------ ---------- --<br>- ------- ------ --------- -- ------------ -- --- ---- -----<br>------ ---- ---- ------ ------ ------- --- ----- ---------<br>---- --- -------- -------- --- --- -- ------- --- --- -----<br>-- --- ------ ------- --- --- -------- ---- --------- --<br>---------- -- -------- ----------------,350540,350567,350135,350114.00000000006,350151,350574,,1,as
screen,html.Screen,1_3_1_1_2,2021-03-27T20:05:46.375Z,,,,,,,,,,,,,,,,11,,,,,,,,,,,,,,616,response,,,,4,F,,,,,Space,keypress(Space),,,,instrumental,,,,----- -- Rapa --- -- --- -------- ------------ ---------- --<br>- ------- ------ --------- -- ------------ -- --- ---- -----<br>------ ---- ---- ------ ------ ------- --- ----- ---------<br>---- --- -------- -------- --- --- -- ------- --- --- -----<br>-- --- ------ ------- --- --- -------- ---- --------- --<br>---------- -- -------- ----------------,351146,351173,350557,350540,350574,351180,,2,Rapa
screen,html.Screen,1_3_1_1_3,2021-03-27T20:05:47.044Z,,,,,,,,,,,,,,,,11,,,,,,,,,,,,,,679,response,,,,4,F,,,,,Space,keypress(Space),,,,instrumental,,,,----- -- ---- Nui -- --- -------- ------------ ---------- --<br>- ------- ------ --------- -- ------------ -- --- ---- -----<br>------ ---- ---- ------ ------ ------- --- ----- ---------<br>---- --- -------- -------- --- --- -- ------- --- --- -----<br>-- --- ------ ------- --- --- -------- ---- --------- --<br>---------- -- -------- ----------------,351815,351842,351163,351146,351180,351851,,3,Nui
screen,html.Screen,1_3_1_1_4,2021-03-27T20:05:47.709Z,,,,,,,,,,,,,,,,11,,,,,,,,,,,,,,673,response,,,,4,F,,,,,Space,keypress(Space),,,,instrumental,,,,----- -- ---- --- to --- -------- ------------ ---------- --<br>- ------- ------ --------- -- ------------ -- --- ---- -----<br>------ ---- ---- ------ ------ ------- --- ----- ---------<br>---- --- -------- -------- --- --- -- ------- --- --- -----<br>-- --- ------ ------- --- --- -------- ---- --------- --<br>---------- -- -------- ----------------,352480,352507,351834,351815,351851,352523,,4,to
