sender,sender_type,sender_id,timestamp,meta,,Blues,Classical,Country,Dance,Electronic,Folk,Gospel,Hip-Hop,Jazz,Latin,Musical/Film,New-age,Pop,Provo_ID,R&B,Rap,Reggae,Religious,Rock,Soul,Swing,Traditional,age,artist_name,correct,correctResponse,distraction,duration,education,ended_on,familiarity,gender,headphone_check_performance,item,list,music_frequency,offensiveness,pleasantness,position_correct,preference,response,response_action,snippet_file,song_name,song_rating,sound,stimulus_1,stimulus_2,stimulus_3,text,time_commit,time_end,time_render,time_run,time_show,time_switch,url,word,word_ID
Introduction,html.Screen,0_0,2021-04-22T21:21:25.638Z,"{""labjs_version"":""20.2.2"",""labjs_build"":{""flavor"":""production"",""commit"":""a25486e0c714a0ae2ce03ff94b7bb6896854dcfa""},""location"":""https://run.pavlovia.org/mvasilev/music_e/"",""userAgent"":""Mozilla/5.0 (Macintosh; Intel Mac OS X 10_13_6) AppleWebKit/537.36 (KHTML, like Gecko) Chrome/89.0.4389.128 Safari/537.36"",""platform"":""MacIntel"",""language"":""en-GB"",""locale"":""en-GB"",""timeZone"":""Europe/London"",""timezoneOffset"":-60,""screen_width"":1280,""screen_height"":800,""scroll_width"":1101,""scroll_height"":592,""window_innerWidth"":1101,""window_innerHeight"":640,""devicePixelRatio"":1}",,,,,,,,,,,,,,,,,,,,,,,,,,,,,4061.845999987474,,response,,,,,,,,,,,continue,click button,,,,,,,,,12692.974999983562,12690.299999987474,8428.042,8428.569999989122,8628.454,12704.476,{},,
Volume calibration,html.Screen,0_1,2021-04-22T21:21:33.386Z,,,,,,,,,,,,,,,,,,,,,,,,,,,,,,7729.868999986933,,response,,,,,,,,,,,continue,click button,,,,,,,,,20441.894999996293,20434.344999986934,12687.775,12693.379999982426,12704.476,20438.031,,,
Task instructions,html.Screen,0_2,2021-04-22T21:21:40.848Z,,,,,,,,,,,,,,,,,,,,,,,,,,,,,,7462.633999993752,,response,,,,,,,,,,,continue,click button,,,,,,,,,27903.35499998764,27900.66499999375,20421.33,20442.154999997,20438.031,27904.453,,,
Sounds,html.Screen,0_3_0_0,2021-04-22T21:21:45.080Z,,,,,,,,,,,,,,,,,,,,,,,,,,,,,,4242.054,,timeout,,,,,,,,,2,,,,,,,,O,S,I,,32136.104999983218,32129.806,27887.752,27904.234999994515,27904.453,32146.507,,,
Judgement,html.Screen,0_3_0_1,2021-04-22T21:21:45.850Z,,,,,,,,,,,,,,,,,,,,,,,,,,,true,2,,756.1529999924642,,response,,,,,,,,,2,,2,click #choice-2,,,,,O,S,I,,32905.724999989616,32902.659999992466,32129.806,32136.719999980414,32146.507,32914.753,,,
Trial,flow.Sequence,0_3_0,2021-04-22T21:21:45.851Z,,,,,,,,,,,,,,,,,,,,,,,,,,,,,,4998.206999992464,,completion,,,,,,,,,2,,,,,,,,O,S,I,,32906.61000000546,32902.659999992466,27887.752,27903.980000002775,27904.453,32914.753,,,
Sounds,html.Screen,0_3_1_0,2021-04-22T21:21:50.085Z,,,,,,,,,,,,,,,,,,,,,,,,,,,,,,4242.054000000004,,timeout,,,,,,,,,1,,,,,,,,S,I,O,,37141.279999981634,37140.106,32898.052,32907.004999986384,32914.753,37156.807,,,
Judgement,html.Screen,0_3_1_1,2021-04-22T21:21:50.747Z,,,,,,,,,,,,,,,,,,,,,,,,,,,true,1,,644.5779999988445,,response,,,,,,,,,1,,1,click #choice-1,,,,,S,I,O,,37803.36999997962,37801.384999998845,37140.106,37141.479999991134,37156.807,37809.108,,,
Trial,flow.Sequence,0_3_1,2021-04-22T21:21:50.748Z,,,,,,,,,,,,,,,,,,,,,,,,,,,,,,4886.631999998848,,completion,,,,,,,,,1,,,,,,,,S,I,O,,37803.69000000064,37801.384999998845,32898.052,32906.85999998823,32914.753,37809.108,,,
Sounds,html.Screen,0_3_2_0,2021-04-22T21:21:54.980Z,,,,,,,,,,,,,,,,,,,,,,,,,,,,,,4242.053999999996,,timeout,,,,,,,,,3,,,,,,,,I,O,S,,42036.25999999349,42034.461,37792.407,37803.96999997902,37809.108,42051.162,,,
Judgement,html.Screen,0_3_2_1,2021-04-22T21:21:55.547Z,,,,,,,,,,,,,,,,,,,,,,,,,,,true,3,,549.7829999837704,,response,,,,,,,,,3,,3,click #choice-3,,,,,I,O,S,,42602.83499999787,42600.94499998377,42034.461,42036.45499999402,42051.162,42618.996,,,
Trial,flow.Sequence,0_3_2,2021-04-22T21:21:55.547Z,,,,,,,,,,,,,,,,,,,,,,,,,,,,,,4791.836999983767,,completion,,,,,,,,,3,,,,,,,,I,O,S,,42603.10999999638,42600.94499998377,37792.407,37803.88500000117,37809.108,42618.996,,,
Sounds,html.Screen,0_3_3_0,2021-04-22T21:21:59.791Z,,,,,,,,,,,,,,,,,,,,,,,,,,,,,,4242.054000000004,,timeout,,,,,,,,,1,,,,,,,,S,O,I,,46847.389999980805,46844.349,42602.295,42603.31499998574,42618.996,46861.05,,,
Judgement,html.Screen,0_3_3_1,2021-04-22T21:22:00.376Z,,,,,,,,,,,,,,,,,,,,,,,,,,,true,1,,567.9000000013475,,response,,,,,,,,,1,,1,click #choice-1,,,,,S,O,I,,47432.0149999985,47428.95000000135,46844.349,46847.68000000622,46861.05,47446.523,,,
Trial,flow.Sequence,0_3_3,2021-04-22T21:22:00.377Z,,,,,,,,,,,,,,,,,,,,,,,,,,,,,,4809.954000001351,,completion,,,,,,,,,1,,,,,,,,S,O,I,,47432.65000000247,47428.95000000135,42602.295,42603.229999978794,42618.996,47446.523,,,
Sounds,html.Screen,0_3_4_0,2021-04-22T21:22:04.619Z,,,,,,,,,,,,,,,,,,,,,,,,,,,,,,4242.053999999996,,timeout,,,,,,,,,3,,,,,,,,O,I,S,,51675.01499998616,51671.876,47429.822,47432.97999998322,47446.523,51688.577,,,
Judgement,html.Screen,0_3_4_1,2021-04-22T21:22:05.197Z,,,,,,,,,,,,,,,,,,,,,,,,,,,true,3,,562.9180000040724,,response,,,,,,,,,3,,3,click #choice-3,,,,,O,I,S,,52253.410000004806,52251.49500000407,51671.876,51675.419999985024,51688.577,52256.411,,,
Trial,flow.Sequence,0_3_4,2021-04-22T21:22:05.197Z,,,,,,,,,,,,,,,,,,,,,,,,,,,,,,4804.972000004069,,completion,,,,,,,,,3,,,,,,,,O,I,S,,52253.64999999874,52251.49500000407,47429.822,47432.889999996405,47446.523,52256.411,,,
Sounds,html.Screen,0_3_5_0,2021-04-22T21:22:09.427Z,,,,,,,,,,,,,,,,,,,,,,,,,,,,,,4242.053999999996,,timeout,,,,,,,,,2,,,,,,,,I,S,O,,56482.95499998494,56481.764,52239.71,52253.81500000367,52256.411,56498.465,,,
Judgement,html.Screen,0_3_5_1,2021-04-22T21:22:10.132Z,,,,,,,,,,,,,,,,,,,,,,,,,,,true,2,,687.1199999992677,,response,,,,,,,,,2,,2,click #choice-2,,,,,I,S,O,,57188.21999998181,57185.584999999264,56481.764,56483.199999987846,56498.465,57200.912,,,
Trial,flow.Sequence,0_3_5,2021-04-22T21:22:10.132Z,,,,,,,,,,,,,,,,,,,,,,,,,,,,,,4929.173999999264,,completion,,,,,,,,,2,,,,,,,,I,S,O,,57188.59999999404,57185.584999999264,52239.71,52253.76999998116,52256.411,57200.912,,,
Task,flow.Loop,0_3,2021-04-22T21:22:10.139Z,,,,,,,,,,,,,,,,,,,,,,,,,,,,,,29281.131999999263,,completion,,,1,,,,,,,,,,,,,,,,,,57195.550000004005,57185.584999999264,27887.752,27903.724999981932,27904.453,57200.912,,,
Trap,html.Screen,0_4,2021-04-22T21:22:10.141Z,,,,,,,,,,,,,,,,,,,,,,,,,,,,,,NaN,,skipped,,,,,,,,,,,,,,,,,,,,,57197.214999992866,57185.584999999264,,57197.039999999106,,57200.912,,,
Thanks,html.Screen,0_5,2021-04-22T21:22:14.596Z,,,,,,,,,,,,,,,,,,,,,,,,,,,,,,4448.5929999794025,,response,,,,,,,,,,,continue,click button,,,,,,,,,61652.70999999484,61649.5049999794,57184.211,57197.36499999999,57200.912,65952.236,,,
Headphone screening,flow.Sequence,0,2021-04-22T21:22:14.597Z,,,,,,,,,,,,,,,,,,,,,,,,,,,,,,53021.0509999794,,completion,,,,,,,,,,,,,,,,,,,,,61653.17499998491,61649.5049999794,8428.042,8428.450000006706,8628.454,65952.236,,,
Instructions,html.Page,1_0,2021-04-22T21:22:47.723Z,,,,,,,,,,,,,,,,,,,,,,,,,,,,,,28827.513999986957,,form submission,,,,,,,,,,,,,,,,,,,,,94780.3899999999,94779.74999998696,65735.123,65981.89500000444,65952.236,94781.119,,,
Holding screen,html.Screen,1_1_0_0,2021-04-22T21:22:57.713Z,,,,,,,,,,,,,,,,,,,,,,,,,,,,,,10155.25,,timeout,,,,,,,,,,,,,,,,,,,,,104770.85000000079,104769.359,94680.913,94780.89500000351,94781.119,104936.369,,,
screen,html.Screen,1_1_0_1_0,2021-04-22T21:22:58.880Z,,,,,,,,,,,,,,,,53,,,,,,,,,,,,,,994.3259999881848,,response,,,,99,,,,,,,Space,keypress(Space),,,,,,,,When -- ----- -- ------ - ------- --- ----------<br>------------- ------ ------ ---- ---- ------- ----- -- ----<br>-------- ------- -- ---------- --- - --- ----- ----- ----<br>---- --- --- ----- --- ---- ---- ------- ----- ---- -------<br>--- --- -- ----- -- --- ---- -- --- ---- -- ------ ------<br>--- ----- -- ----,105937.76999998954,105930.69499998819,104769.359,104771.31499999086,104936.369,105955.13,,0,When
screen,html.Screen,1_1_0_1_1,2021-04-22T21:22:59.549Z,,,,,,,,,,,,,,,,53,,,,,,,,,,,,,,647.4949999995297,,response,,,,99,,,,,,,Space,keypress(Space),,,,,,,,---- it ----- -- ------ - ------- --- ----------<br>------------- ------ ------ ---- ---- ------- ----- -- ----<br>-------- ------- -- ---------- --- - --- ----- ----- ----<br>---- --- --- ----- --- ---- ---- ------- ----- ---- -------<br>--- --- -- ----- -- --- ---- -- --- ---- -- ------ ------<br>--- ----- -- ----,106606.41499998746,106602.62499999953,105938.429,105938.1449999928,105955.13,106623.17,,1,it
screen,html.Screen,1_1_0_1_2,2021-04-22T21:23:00.292Z,,,,,,,,,,,,,,,,53,,,,,,,,,,,,,,723.3999999942462,,response,,,,99,,,,,,,Space,keypress(Space),,,,,,,,---- -- comes -- ------ - ------- --- ----------<br>------------- ------ ------ ---- ---- ------- ----- -- ----<br>-------- ------- -- ---------- --- - --- ----- ----- ----<br>---- --- --- ----- --- ---- ---- ------- ----- ---- -------<br>--- --- -- ----- -- --- ---- -- --- ---- -- ------ ------<br>--- ----- -- ----,107349.9249999877,107346.56999999424,106606.469,106606.65999999037,106623.17,107358.014,,2,comes
screen,html.Screen,1_1_0_1_3,2021-04-22T21:23:01.004Z,,,,,,,,,,,,,,,,53,,,,,,,,,,,,,,700.6609999783977,,response,,,,99,,,,,,,Space,keypress(Space),,,,,,,,---- -- ----- to ------ - ------- --- ----------<br>------------- ------ ------ ---- ---- ------- ----- -- ----<br>-------- ------- -- ---------- --- - --- ----- ----- ----<br>---- --- --- ----- --- ---- ---- ------- ----- ---- -------<br>--- --- -- ----- -- --- ---- -- --- ---- -- ------ ------<br>--- ----- -- ----,108062.06500000553,108058.6749999784,107341.313,107350.15499999281,107358.014,108076.157,,3,to
screen,html.Screen,1_1_0_1_4,2021-04-22T21:23:01.524Z,,,,,,,,,,,,,,,,53,,,,,,,,,,,,,,502.46299998566974,,response,,,,99,,,,,,,Space,keypress(Space),,,,,,,,---- -- ----- -- having - ------- --- ----------<br>------------- ------ ------ ---- ---- ------- ----- -- ----<br>-------- ------- -- ---------- --- - --- ----- ----- ----<br>---- --- --- ----- --- ---- ---- ------- ----- ---- -------<br>--- --- -- ----- -- --- ---- -- --- ---- -- ------ ------<br>--- ----- -- ----,108581.60999999382,108578.61999998568,108059.456,108062.30499999947,108076.157,108594.871,,4,having
screen,html.Screen,1_1_0_1_5,2021-04-22T21:23:01.956Z,,,,,,,,,,,,,,,,53,,,,,,,,,,,,,,415.70900000193797,,response,,,,99,,,,,,,Space,keypress(Space),,,,,,,,---- -- ----- -- ------ a ------- --- ----------<br>------------- ------ ------ ---- ---- ------- ----- -- ----<br>-------- ------- -- ---------- --- - --- ----- ----- ----<br>---- --- --- ----- --- ---- ---- ------- ----- ---- -------<br>--- --- -- ----- -- --- ---- -- --- ---- -- ------ ------<br>--- ----- -- ----,109013.99000000674,109010.58000000194,108578.17,108581.85499999672,108594.871,109029.097,,5,a
screen,html.Screen,1_1_0_1_6,2021-04-22T21:23:02.508Z,,,,,,,,,,,,,,,,53,,,,,,,,,,,,,,533.5330000003596,,response,,,,99,,,,,,,Space,keypress(Space),,,,,,,,---- -- ----- -- ------ - lasting --- ----------<br>------------- ------ ------ ---- ---- ------- ----- -- ----<br>-------- ------- -- ---------- --- - --- ----- ----- ----<br>---- --- --- ----- --- ---- ---- ------- ----- ---- -------<br>--- --- -- ----- -- --- ---- -- --- ---- -- ------ ------<br>--- ----- -- ----,109566.124999983,109562.63000000035,109012.396,109014.23000000068,109029.097,109580.23,,6,lasting
screen,html.Screen,1_1_0_1_7,2021-04-22T21:23:02.980Z,,,,,,,,,,,,,,,,53,,,,,,,,,,,,,,454.38999999126827,,response,,,,99,,,,,,,Space,keypress(Space),,,,,,,,---- -- ----- -- ------ - ------- and ----------<br>------------- ------ ------ ---- ---- ------- ----- -- ----<br>-------- ------- -- ---------- --- - --- ----- ----- ----<br>---- --- --- ----- --- ---- ---- ------- ----- ---- -------<br>--- --- -- ----- -- --- ---- -- --- ---- -- ------ ------<br>--- ----- -- ----,110037.77500000433,110034.61999999126,109563.529,109566.36500000604,109580.23,110047.858,,7,and
screen,html.Screen,1_1_0_1_8,2021-04-22T21:23:03.621Z,,,,,,,,,,,,,,,,53,,,,,,,,,,,,,,626.7669999851059,,response,,,,99,,,,,,,Space,keypress(Space),,,,,,,,---- -- ----- -- ------ - ------- --- fulfilling<br>------------- ------ ------ ---- ---- ------- ----- -- ----<br>-------- ------- -- ---------- --- - --- ----- ----- ----<br>---- --- --- ----- --- ---- ---- ------- ----- ---- -------<br>--- --- -- ----- -- --- ---- -- --- ---- -- ------ ------<br>--- ----- -- ----,110678.190000006,110674.6249999851,110031.157,110038.14499999862,110047.858,110682.496,,8,fulfilling
screen,html.Screen,1_1_0_1_9,2021-04-22T21:23:04.173Z,,,,,,,,,,,,,,,,53,,,,,,,,,,,,,,544.1189999923081,,response,,,,99,,,,,,,Space,keypress(Space),,,,,,,,"---- -- ----- -- ------ - ------- --- ----------<br>relationship, ------ ------ ---- ---- ------- ----- -- ----<br>-------- ------- -- ---------- --- - --- ----- ----- ----<br>---- --- --- ----- --- ---- ---- ------- ----- ---- -------<br>--- --- -- ----- -- --- ---- -- --- ---- -- ------ ------<br>--- ----- -- ----",111230.30500000459,111226.6149999923,110665.795,110678.56499998015,110682.496,111233.629,,9,"relationship,"
screen,html.Screen,1_1_0_1_10,2021-04-22T21:23:07.460Z,,,,,,,,,,,,,,,,53,,,,,,,,,,,,,,3280.9959999816056,,response,,,,99,,,,,,,Space,keypress(Space),,,,,,,,---- -- ----- -- ------ - ------- --- ----------<br>------------- common ------ ---- ---- ------- ----- -- ----<br>-------- ------- -- ---------- --- - --- ----- ----- ----<br>---- --- --- ----- --- ---- ---- ------- ----- ---- -------<br>--- --- -- ----- -- --- ---- -- --- ---- -- ------ ------<br>--- ----- -- ----,114518.1299999822,114514.6249999816,111216.928,111230.54499999853,111233.629,114523.726,,10,common
screen,html.Screen,1_1_0_1_11,2021-04-22T21:23:08.213Z,,,,,,,,,,,,,,,,53,,,,,,,,,,,,,,742.8989999892947,,response,,,,99,,,,,,,Space,keypress(Space),,,,,,,,---- -- ----- -- ------ - ------- --- ----------<br>------------- ------ wisdom ---- ---- ------- ----- -- ----<br>-------- ------- -- ---------- --- - --- ----- ----- ----<br>---- --- --- ----- --- ---- ---- ------- ----- ---- -------<br>--- --- -- ----- -- --- ---- -- --- ---- -- ------ ------<br>--- ----- -- ----,115270.31500000157,115266.62499998929,114507.025,114518.37999999407,114523.726,115275.271,,11,wisdom
screen,html.Screen,1_1_0_1_12,2021-04-22T21:23:08.787Z,,,,,,,,,,,,,,,,53,,,,,,,,,,,,,,567.3790000059671,,response,,,,99,,,,,,,Space,keypress(Space),,,,,,,,---- -- ----- -- ------ - ------- --- ----------<br>------------- ------ ------ says ---- ------- ----- -- ----<br>-------- ------- -- ---------- --- - --- ----- ----- ----<br>---- --- --- ----- --- ---- ---- ------- ----- ---- -------<br>--- --- -- ----- -- --- ---- -- --- ---- -- ------ ------<br>--- ----- -- ----,115844.55999999773,115842.65000000596,115258.57,115270.62999998452,115275.271,115859.806,,12,says
screen,html.Screen,1_1_0_1_13,2021-04-22T21:23:09.524Z,,,,,,,,,,,,,,,,53,,,,,,,,,,,,,,718.8390000014188,,response,,,,99,,,,,,,Space,keypress(Space),,,,,,,,---- -- ----- -- ------ - ------- --- ----------<br>------------- ------ ------ ---- that ------- ----- -- ----<br>-------- ------- -- ---------- --- - --- ----- ----- ----<br>---- --- --- ----- --- ---- ---- ------- ----- ---- -------<br>--- --- -- ----- -- --- ---- -- --- ---- -- ------ ------<br>--- ----- -- ----,116582.1799999976,116578.64500000142,115843.105,115844.69999998691,115859.806,116594.65,,13,that
screen,html.Screen,1_1_0_1_14,2021-04-22T21:23:10.644Z,,,,,,,,,,,,,,,,53,,,,,,,,,,,,,,1103.974999989994,,response,,,,99,,,,,,,Space,keypress(Space),,,,,,,,---- -- ----- -- ------ - ------- --- ----------<br>------------- ------ ------ ---- ---- feeling ----- -- ----<br>-------- ------- -- ---------- --- - --- ----- ----- ----<br>---- --- --- ----- --- ---- ---- ------- ----- ---- -------<br>--- --- -- ----- -- --- ---- -- --- ---- -- ------ ------<br>--- ----- -- ----,117702.12999999058,117698.62499998999,116577.949,116582.36999998917,116594.65,117713.617,,14,feeling
screen,html.Screen,1_1_0_1_15,2021-04-22T21:23:11.293Z,,,,,,,,,,,,,,,,53,,,,,,,,,,,,,,633.0029999966209,,response,,,,99,,,,,,,Space,keypress(Space),,,,,,,,---- -- ----- -- ------ - ------- --- ----------<br>------------- ------ ------ ---- ---- ------- close -- ----<br>-------- ------- -- ---------- --- - --- ----- ----- ----<br>---- --- --- ----- --- ---- ---- ------- ----- ---- -------<br>--- --- -- ----- -- --- ---- -- --- ---- -- ------ ------<br>--- ----- -- ----,118350.4949999915,118346.61999999662,117696.916,117702.37499999348,117713.617,118364.956,,15,close
screen,html.Screen,1_1_0_1_16,2021-04-22T21:23:12.028Z,,,,,,,,,,,,,,,,53,,,,,,,,,,,,,,717.6739999898709,,response,,,,99,,,,,,,Space,keypress(Space),,,,,,,,---- -- ----- -- ------ - ------- --- ----------<br>------------- ------ ------ ---- ---- ------- ----- to ----<br>-------- ------- -- ---------- --- - --- ----- ----- ----<br>---- --- --- ----- --- ---- ---- ------- ----- ---- -------<br>--- --- -- ----- -- --- ---- -- --- ---- -- ------ ------<br>--- ----- -- ----,119085.64499998465,119082.62999998988,118348.255,118350.7399999944,118364.956,119100.793,,16,to
screen,html.Screen,1_1_0_1_17,2021-04-22T21:23:12.876Z,,,,,,,,,,,,,,,,53,,,,,,,,,,,,,,829.8319999790401,,response,,,,99,,,,,,,Space,keypress(Space),,,,,,,,---- -- ----- -- ------ - ------- --- ----------<br>------------- ------ ------ ---- ---- ------- ----- -- your<br>-------- ------- -- ---------- --- - --- ----- ----- ----<br>---- --- --- ----- --- ---- ---- ------- ----- ---- -------<br>--- --- -- ----- -- --- ---- -- --- ---- -- ------ ------<br>--- ----- -- ----,119934.09500000416,119930.62499997905,119084.092,119085.88499997859,119100.793,119935.843,,17,your
screen,html.Screen,1_1_0_1_18,2021-04-22T21:23:13.595Z,,,,,,,,,,,,,,,,53,,,,,,,,,,,,,,714.7869999891846,,response,,,,99,,,,,,,Space,keypress(Space),,,,,,,,---- -- ----- -- ------ - ------- --- ----------<br>------------- ------ ------ ---- ---- ------- ----- -- ----<br>romantic ------- -- ---------- --- - --- ----- ----- ----<br>---- --- --- ----- --- ---- ---- ------- ----- ---- -------<br>--- --- -- ----- -- --- ---- -- --- ---- -- ------ ------<br>--- ----- -- ----,120652.99499998218,120650.62999998918,119919.142,119934.33999997796,119935.843,120653.986,,18,romantic
screen,html.Screen,1_1_0_1_19,2021-04-22T21:23:14.356Z,,,,,,,,,,,,,,,,53,,,,,,,,,,,,,,756.6689999851224,,response,,,,99,,,,,,,Space,keypress(Space),,,,,,,,---- -- ----- -- ------ - ------- --- ----------<br>------------- ------ ------ ---- ---- ------- ----- -- ----<br>-------- partner -- ---------- --- - --- ----- ----- ----<br>---- --- --- ----- --- ---- ---- ------- ----- ---- -------<br>--- --- -- ----- -- --- ---- -- --- ---- -- ------ ------<br>--- ----- -- ----,121414.03499999433,121410.65499998513,120637.285,120653.18999998271,120653.986,121422.232,,19,partner
screen,html.Screen,1_1_0_1_20,2021-04-22T21:23:15.004Z,,,,,,,,,,,,,,,,53,,,,,,,,,,,,,,636.3930000051187,,response,,,,99,,,,,,,Space,keypress(Space),,,,,,,,---- -- ----- -- ------ - ------- --- ----------<br>------------- ------ ------ ---- ---- ------- ----- -- ----<br>-------- ------- is ---------- --- - --- ----- ----- ----<br>---- --- --- ----- --- ---- ---- ------- ----- ---- -------<br>--- --- -- ----- -- --- ---- -- --- ---- -- ------ ------<br>--- ----- -- ----,122062.29000000167,122058.62500000512,121405.531,121414.27999999723,121422.232,122073.571,,20,is
screen,html.Screen,1_1_0_1_21,2021-04-22T21:23:16.219Z,,,,,,,,,,,,,,,,53,,,,,,,,,,,,,,1200.979000001913,,response,,,,99,,,,,,,Space,keypress(Space),,,,,,,,---- -- ----- -- ------ - ------- --- ----------<br>------------- ------ ------ ---- ---- ------- ----- -- ----<br>-------- ------- -- paramount. --- - --- ----- ----- ----<br>---- --- --- ----- --- ---- ---- ------- ----- ---- -------<br>--- --- -- ----- -- --- ---- -- --- ---- -- ------ ------<br>--- ----- -- ----,123277.4550000031,123274.55000000191,122056.87,122062.52499998664,122073.571,123292.744,,21,paramount.
screen,html.Screen,1_1_0_1_22,2021-04-22T21:23:16.980Z,,,,,,,,,,,,,,,,53,,,,,,,,,,,,,,741.8810000002268,,response,,,,99,,,,,,,Space,keypress(Space),,,,,,,,---- -- ----- -- ------ - ------- --- ----------<br>------------- ------ ------ ---- ---- ------- ----- -- ----<br>-------- ------- -- ---------- But - --- ----- ----- ----<br>---- --- --- ----- --- ---- ---- ------- ----- ---- -------<br>--- --- -- ----- -- --- ---- -- --- ---- -- ------ ------<br>--- ----- -- ----,124037.61499997927,124034.62500000023,123276.043,123277.63500000583,123292.744,124044.289,,22,But
screen,html.Screen,1_1_0_1_23,2021-04-22T21:23:17.484Z,,,,,,,,,,,,,,,,53,,,,,,,,,,,,,,494.2759999952832,,response,,,,99,,,,,,,Space,keypress(Space),,,,,,,,---- -- ----- -- ------ - ------- --- ----------<br>------------- ------ ------ ---- ---- ------- ----- -- ----<br>-------- ------- -- ---------- --- a --- ----- ----- ----<br>---- --- --- ----- --- ---- ---- ------- ----- ---- -------<br>--- --- -- ----- -- --- ---- -- --- ---- -- ------ ------<br>--- ----- -- ----,124542.28999998304,124538.56499999529,124027.588,124037.81999999774,124044.289,124545.319,,23,a
screen,html.Screen,1_1_0_1_24,2021-04-22T21:23:18.564Z,,,,,,,,,,,,,,,,53,,,,,,,,,,,,,,1073.3060000027908,,response,,,,99,,,,,,,Space,keypress(Space),,,,,,,,---- -- ----- -- ------ - ------- --- ----------<br>------------- ------ ------ ---- ---- ------- ----- -- ----<br>-------- ------- -- ---------- --- - new ----- ----- ----<br>---- --- --- ----- --- ---- ---- ------- ----- ---- -------<br>--- --- -- ----- -- --- ---- -- --- ---- -- ------ ------<br>--- ----- -- ----,125622.4499999953,125618.6250000028,124528.618,124542.53499998595,124545.319,125630.884,,24,new
screen,html.Screen,1_1_0_1_25,2021-04-22T21:23:19.036Z,,,,,,,,,,,,,,,,53,,,,,,,,,,,,,,459.695999989126,,response,,,,99,,,,,,,Space,keypress(Space),,,,,,,,---- -- ----- -- ------ - ------- --- ----------<br>------------- ------ ------ ---- ---- ------- ----- -- ----<br>-------- ------- -- ---------- --- - --- study ----- ----<br>---- --- --- ----- --- ---- ---- ------- ----- ---- -------<br>--- --- -- ----- -- --- ---- -- --- ---- -- ------ ------<br>--- ----- -- ----,126094.07500000088,126090.57999998913,125614.183,125622.69999997807,125630.884,126098.512,,25,study
screen,html.Screen,1_1_0_1_26,2021-04-22T21:23:20.188Z,,,,,,,,,,,,,,,,53,,,,,,,,,,,,,,1144.0879999977624,,response,,,,99,,,,,,,Space,keypress(Space),,,,,,,,---- -- ----- -- ------ - ------- --- ----------<br>------------- ------ ------ ---- ---- ------- ----- -- ----<br>-------- ------- -- ---------- --- - --- ----- finds ----<br>---- --- --- ----- --- ---- ---- ------- ----- ---- -------<br>--- --- -- ----- -- --- ---- -- --- ---- -- ------ ------<br>--- ----- -- ----,127246.23999997857,127242.59999999776,126081.811,126094.43500000634,126098.512,127250.881,,26,finds
screen,html.Screen,1_1_0_1_27,2021-04-22T21:23:20.796Z,,,,,,,,,,,,,,,,53,,,,,,,,,,,,,,599.7490000008256,,response,,,,99,,,,,,,Space,keypress(Space),,,,,,,,---- -- ----- -- ------ - ------- --- ----------<br>------------- ------ ------ ---- ---- ------- ----- -- ----<br>-------- ------- -- ---------- --- - --- ----- ----- that<br>---- --- --- ----- --- ---- ---- ------- ----- ---- -------<br>--- --- -- ----- -- --- ---- -- --- ---- -- ------ ------<br>--- ----- -- ----,127854.39500000211,127850.63000000082,127234.18,127246.48000000161,127250.881,127868.818,,27,that
screen,html.Screen,1_1_0_1_28,2021-04-22T21:23:21.428Z,,,,,,,,,,,,,,,,53,,,,,,,,,,,,,,613.8769999842334,,response,,,,99,,,,,,,Space,keypress(Space),,,,,,,,---- -- ----- -- ------ - ------- --- ----------<br>------------- ------ ------ ---- ---- ------- ----- -- ----<br>-------- ------- -- ---------- --- - --- ----- ----- ----<br>it's --- --- ----- --- ---- ---- ------- ----- ---- -------<br>--- --- -- ----- -- --- ---- -- --- ---- -- ------ ------<br>--- ----- -- ----,128486.109999998,128482.69499998423,127852.117,127854.67499998049,127868.818,128503.456,,28,it's
screen,html.Screen,1_1_0_1_29,2021-04-22T21:23:21.900Z,,,,,,,,,,,,,,,,53,,,,,,,,,,,,,,451.1189999815542,,response,,,,99,,,,,,,Space,keypress(Space),,,,,,,,---- -- ----- -- ------ - ------- --- ----------<br>------------- ------ ------ ---- ---- ------- ----- -- ----<br>-------- ------- -- ---------- --- - --- ----- ----- ----<br>---- not --- ----- --- ---- ---- ------- ----- ---- -------<br>--- --- -- ----- -- --- ---- -- --- ---- -- ------ ------<br>--- ----- -- ----,128957.77499998803,128954.57499998156,128486.755,128486.35500000091,128503.456,128971.084,,29,not
screen,html.Screen,1_1_0_1_30,2021-04-22T21:23:22.581Z,,,,,,,,,,,,,,,,53,,,,,,,,,,,,,,663.541000006051,,response,,,,99,,,,,,,Space,keypress(Space),,,,,,,,---- -- ----- -- ------ - ------- --- ----------<br>------------- ------ ------ ---- ---- ------- ----- -- ----<br>-------- ------- -- ---------- --- - --- ----- ----- ----<br>---- --- how ----- --- ---- ---- ------- ----- ---- -------<br>--- --- -- ----- -- --- ---- -- --- ---- -- ------ ------<br>--- ----- -- ----,129638.87999998406,129634.62500000605,128954.383,128958.01999999094,128971.084,129640.11,,30,how
screen,html.Screen,1_1_0_1_31,2021-04-22T21:23:23.068Z,,,,,,,,,,,,,,,,53,,,,,,,,,,,,,,482.50500000022294,,response,,,,99,,,,,,,Space,keypress(Space),,,,,,,,---- -- ----- -- ------ - ------- --- ----------<br>------------- ------ ------ ---- ---- ------- ----- -- ----<br>-------- ------- -- ---------- --- - --- ----- ----- ----<br>---- --- --- close --- ---- ---- ------- ----- ---- -------<br>--- --- -- ----- -- --- ---- -- --- ---- -- ------ ------<br>--- ----- -- ----,130126.56499998411,130122.61500000022,129623.409,129639.35499999207,129640.11,130141.14,,31,close
screen,html.Screen,1_1_0_1_32,2021-04-22T21:23:23.475Z,,,,,,,,,,,,,,,,53,,,,,,,,,,,,,,389.4800000050018,,response,,,,99,,,,,,,Space,keypress(Space),,,,,,,,---- -- ----- -- ------ - ------- --- ----------<br>------------- ------ ------ ---- ---- ------- ----- -- ----<br>-------- ------- -- ---------- --- - --- ----- ----- ----<br>---- --- --- ----- you ---- ---- ------- ----- ---- -------<br>--- --- -- ----- -- --- ---- -- --- ---- -- ------ ------<br>--- ----- -- ----,130533.46000000602,130530.620000005,130124.439,130126.78999998025,130141.14,130541.964,,32,you
screen,html.Screen,1_1_0_1_33,2021-04-22T21:23:24.507Z,,,,,,,,,,,,,,,,53,,,,,,,,,,,,,,1020.5759999844304,,response,,,,99,,,,,,,Space,keypress(Space),,,,,,,,---- -- ----- -- ------ - ------- --- ----------<br>------------- ------ ------ ---- ---- ------- ----- -- ----<br>-------- ------- -- ---------- --- - --- ----- ----- ----<br>---- --- --- ----- --- feel ---- ------- ----- ---- -------<br>--- --- -- ----- -- --- ---- -- --- ---- -- ------ ------<br>--- ----- -- ----,131565.6500000041,131562.53999998444,130525.263,130533.68500000215,130541.964,131577.426,,33,feel
screen,html.Screen,1_1_0_1_34,2021-04-22T21:23:25.188Z,,,,,,,,,,,,,,,,53,,,,,,,,,,,,,,665.1989999843936,,response,,,,99,,,,,,,Space,keypress(Space),,,,,,,,---- -- ----- -- ------ - ------- --- ----------<br>------------- ------ ------ ---- ---- ------- ----- -- ----<br>-------- ------- -- ---------- --- - --- ----- ----- ----<br>---- --- --- ----- --- ---- that ------- ----- ---- -------<br>--- --- -- ----- -- --- ---- -- --- ---- -- ------ ------<br>--- ----- -- ----,132246.45499998587,132242.6249999844,131560.725,131565.8799999801,131577.426,132262.167,,34,that
screen,html.Screen,1_1_0_1_35,2021-04-22T21:23:25.612Z,,,,,,,,,,,,,,,,53,,,,,,,,,,,,,,404.4579999834823,,response,,,,99,,,,,,,Space,keypress(Space),,,,,,,,---- -- ----- -- ------ - ------- --- ----------<br>------------- ------ ------ ---- ---- ------- ----- -- ----<br>-------- ------- -- ---------- --- - --- ----- ----- ----<br>---- --- --- ----- --- ---- ---- matters ----- ---- -------<br>--- --- -- ----- -- --- ---- -- --- ---- -- ------ ------<br>--- ----- -- ----,132670.1250000042,132666.62499998347,132245.466,132246.68999999994,132262.167,132679.692,,35,matters
screen,html.Screen,1_1_0_1_36,2021-04-22T21:23:26.212Z,,,,,,,,,,,,,,,,53,,,,,,,,,,,,,,586.9329999892798,,response,,,,99,,,,,,,Space,keypress(Space),,,,,,,,"---- -- ----- -- ------ - ------- --- ----------<br>------------- ------ ------ ---- ---- ------- ----- -- ----<br>-------- ------- -- ---------- --- - --- ----- ----- ----<br>---- --- --- ----- --- ---- ---- ------- most, ---- -------<br>--- --- -- ----- -- --- ---- -- --- ---- -- ------ ------<br>--- ----- -- ----",133269.79999998002,133266.6249999893,132662.991,132670.4000000027,132679.692,133280.928,,36,"most,"
screen,html.Screen,1_1_0_1_37,2021-04-22T21:23:26.804Z,,,,,,,,,,,,,,,,53,,,,,,,,,,,,,,577.6969999934663,,response,,,,99,,,,,,,Space,keypress(Space),,,,,,,,---- -- ----- -- ------ - ------- --- ----------<br>------------- ------ ------ ---- ---- ------- ----- -- ----<br>-------- ------- -- ---------- --- - --- ----- ----- ----<br>---- --- --- ----- --- ---- ---- ------- ----- it's -------<br>--- --- -- ----- -- --- ---- -- --- ---- -- ------ ------<br>--- ----- -- ----,133862.00500000268,133858.62499999348,133264.227,133270.04499998293,133280.928,133865.463,,37,it's
screen,html.Screen,1_1_0_1_38,2021-04-22T21:23:27.428Z,,,,,,,,,,,,,,,,53,,,,,,,,,,,,,,617.1569999952335,,response,,,,99,,,,,,,Space,keypress(Space),,,,,,,,---- -- ----- -- ------ - ------- --- ----------<br>------------- ------ ------ ---- ---- ------- ----- -- ----<br>-------- ------- -- ---------- --- - --- ----- ----- ----<br>---- --- --- ----- --- ---- ---- ------- ----- ---- whether<br>--- --- -- ----- -- --- ---- -- --- ---- -- ------ ------<br>--- ----- -- ----,134486.04499999783,134482.61999999522,133848.762,133862.34999998123,133865.463,134500.101,,38,whether
screen,html.Screen,1_1_0_1_39,2021-04-22T21:23:27.876Z,,,,,,,,,,,,,,,,53,,,,,,,,,,,,,,430.52899998801877,,response,,,,99,,,,,,,Space,keypress(Space),,,,,,,,---- -- ----- -- ------ - ------- --- ----------<br>------------- ------ ------ ---- ---- ------- ----- -- ----<br>-------- ------- -- ---------- --- - --- ----- ----- ----<br>---- --- --- ----- --- ---- ---- ------- ----- ---- -------<br>you --- -- ----- -- --- ---- -- --- ---- -- ------ ------<br>--- ----- -- ----,134934.16999999317,134930.629999988,134483.4,134486.29000000074,134500.101,134951.028,,39,you
screen,html.Screen,1_1_0_1_40,2021-04-22T21:23:28.323Z,,,,,,,,,,,,,,,,53,,,,,,,,,,,,,,427.62199999875156,,response,,,,99,,,,,,,Space,keypress(Space),,,,,,,,---- -- ----- -- ------ - ------- --- ----------<br>------------- ------ ------ ---- ---- ------- ----- -- ----<br>-------- ------- -- ---------- --- - --- ----- ----- ----<br>---- --- --- ----- --- ---- ---- ------- ----- ---- -------<br>--- are -- ----- -- --- ---- -- --- ---- -- ------ ------<br>--- ----- -- ----,135381.56499998877,135378.64999999874,134934.327,134934.39999999828,134951.028,135385.254,,40,are
screen,html.Screen,1_1_0_1_41,2021-04-22T21:23:28.756Z,,,,,,,,,,,,,,,,53,,,,,,,,,,,,,,425.3709999837156,,response,,,,99,,,,,,,Space,keypress(Space),,,,,,,,---- -- ----- -- ------ - ------- --- ----------<br>------------- ------ ------ ---- ---- ------- ----- -- ----<br>-------- ------- -- ---------- --- - --- ----- ----- ----<br>---- --- --- ----- --- ---- ---- ------- ----- ---- -------<br>--- --- as ----- -- --- ---- -- --- ---- -- ------ ------<br>--- ----- -- ----,135814.04500000644,135810.6249999837,135368.553,135381.7449999915,135385.254,135819.48,,41,as
screen,html.Screen,1_1_0_1_42,2021-04-22T21:23:29.635Z,,,,,,,,,,,,,,,,53,,,,,,,,,,,,,,871.0749999792024,,response,,,,99,,,,,,,Space,keypress(Space),,,,,,,,---- -- ----- -- ------ - ------- --- ----------<br>------------- ------ ------ ---- ---- ------- ----- -- ----<br>-------- ------- -- ---------- --- - --- ----- ----- ----<br>---- --- --- ----- --- ---- ---- ------- ----- ---- -------<br>--- --- -- close -- --- ---- -- --- ---- -- ------ ------<br>--- ----- -- ----,136692.94999999693,136690.5549999792,135802.779,135814.2799999914,135819.48,136704.633,,42,close
screen,html.Screen,1_1_0_1_43,2021-04-22T21:23:30.308Z,,,,,,,,,,,,,,,,53,,,,,,,,,,,,,,657.97699998194,,response,,,,99,,,,,,,Space,keypress(Space),,,,,,,,---- -- ----- -- ------ - ------- --- ----------<br>------------- ------ ------ ---- ---- ------- ----- -- ----<br>-------- ------- -- ---------- --- - --- ----- ----- ----<br>---- --- --- ----- --- ---- ---- ------- ----- ---- -------<br>--- --- -- ----- as --- ---- -- --- ---- -- ------ ------<br>--- ----- -- ----,137366.474999988,137362.60999998194,136687.932,136694.5349999878,136704.633,137372.673,,43,as
screen,html.Screen,1_1_0_1_44,2021-04-22T21:23:30.820Z,,,,,,,,,,,,,,,,53,,,,,,,,,,,,,,501.92699998099124,,response,,,,99,,,,,,,Space,keypress(Space),,,,,,,,---- -- ----- -- ------ - ------- --- ----------<br>------------- ------ ------ ---- ---- ------- ----- -- ----<br>-------- ------- -- ---------- --- - --- ----- ----- ----<br>---- --- --- ----- --- ---- ---- ------- ----- ---- -------<br>--- --- -- ----- -- you ---- -- --- ---- -- ------ ------<br>--- ----- -- ----,137878.2699999865,137874.599999981,137355.972,137366.6899999953,137372.673,137890.404,,44,you
screen,html.Screen,1_1_0_1_45,2021-04-22T21:23:31.276Z,,,,,,,,,,,,,,,,53,,,,,,,,,,,,,,440.22100000231876,,response,,,,99,,,,,,,Space,keypress(Space),,,,,,,,---- -- ----- -- ------ - ------- --- ----------<br>------------- ------ ------ ---- ---- ------- ----- -- ----<br>-------- ------- -- ---------- --- - --- ----- ----- ----<br>---- --- --- ----- --- ---- ---- ------- ----- ---- -------<br>--- --- -- ----- -- --- want -- --- ---- -- ------ ------<br>--- ----- -- ----,138334.16499997838,138330.62500000233,137873.703,137878.48499999382,137890.404,138341.331,,45,want
screen,html.Screen,1_1_0_1_46,2021-04-22T21:23:31.659Z,,,,,,,,,,,,,,,,53,,,,,,,,,,,,,,373.27899999544024,,response,,,,99,,,,,,,Space,keypress(Space),,,,,,,,---- -- ----- -- ------ - ------- --- ----------<br>------------- ------ ------ ---- ---- ------- ----- -- ----<br>-------- ------- -- ---------- --- - --- ----- ----- ----<br>---- --- --- ----- --- ---- ---- ------- ----- ---- -------<br>--- --- -- ----- -- --- ---- to --- ---- -- ------ ------<br>--- ----- -- ----,138717.60999999242,138714.60999999545,138324.63,138334.3799999857,138341.331,138725.454,,46,to
screen,html.Screen,1_1_0_1_47,2021-04-22T21:23:32.059Z,,,,,,,,,,,,,,,,53,,,,,,,,,,,,,,389.1659999784606,,response,,,,99,,,,,,,Space,keypress(Space),,,,,,,,"---- -- ----- -- ------ - ------- --- ----------<br>------------- ------ ------ ---- ---- ------- ----- -- ----<br>-------- ------- -- ---------- --- - --- ----- ----- ----<br>---- --- --- ----- --- ---- ---- ------- ----- ---- -------<br>--- --- -- ----- -- --- ---- -- be, ---- -- ------ ------<br>--- ----- -- ----",139117.024999985,139114.61999997846,138708.753,138717.83499998855,138725.454,139126.278,,47,"be,"
screen,html.Screen,1_1_0_1_48,2021-04-22T21:23:32.500Z,,,,,,,,,,,,,,,,53,,,,,,,,,,,,,,428.2969999873894,,response,,,,99,,,,,,,Space,keypress(Space),,,,,,,,---- -- ----- -- ------ - ------- --- ----------<br>------------- ------ ------ ---- ---- ------- ----- -- ----<br>-------- ------- -- ---------- --- - --- ----- ----- ----<br>---- --- --- ----- --- ---- ---- ------- ----- ---- -------<br>--- --- -- ----- -- --- ---- -- --- even -- ------ ------<br>--- ----- -- ----,139557.88499998744,139554.57499998738,139109.577,139117.1949999989,139126.278,139561.496,,48,even
screen,html.Screen,1_1_0_1_49,2021-04-22T21:23:32.939Z,,,,,,,,,,,,,,,,53,,,,,,,,,,,,,,433.07899998969515,,response,,,,99,,,,,,,Space,keypress(Space),,,,,,,,---- -- ----- -- ------ - ------- --- ----------<br>------------- ------ ------ ---- ---- ------- ----- -- ----<br>-------- ------- -- ---------- --- - --- ----- ----- ----<br>---- --- --- ----- --- ---- ---- ------- ----- ---- -------<br>--- --- -- ----- -- --- ---- -- --- ---- if ------ ------<br>--- ----- -- ----,139997.60000000242,139994.5749999897,139544.795,139558.06499999017,139561.496,140012.423,,49,if
screen,html.Screen,1_1_0_1_50,2021-04-22T21:23:33.396Z,,,,,,,,,,,,,,,,53,,,,,,,,,,,,,,438.20700000663055,,response,,,,99,,,,,,,Space,keypress(Space),,,,,,,,---- -- ----- -- ------ - ------- --- ----------<br>------------- ------ ------ ---- ---- ------- ----- -- ----<br>-------- ------- -- ---------- --- - --- ----- ----- ----<br>---- --- --- ----- --- ---- ---- ------- ----- ---- -------<br>--- --- -- ----- -- --- ---- -- --- ---- -- that's ------<br>--- ----- -- ----,140454.25499998964,140450.63000000664,139995.722,139997.81499998062,140012.423,140463.35,,50,that's
screen,html.Screen,1_1_0_1_51,2021-04-22T21:23:33.860Z,,,,,,,,,,,,,,,,53,,,,,,,,,,,,,,451.3050000004878,,response,,,,99,,,,,,,Space,keypress(Space),,,,,,,,---- -- ----- -- ------ - ------- --- ----------<br>------------- ------ ------ ---- ---- ------- ----- -- ----<br>-------- ------- -- ---------- --- - --- ----- ----- ----<br>---- --- --- ----- --- ---- ---- ------- ----- ---- -------<br>--- --- -- ----- -- --- ---- -- --- ---- -- ------ really<br>--- ----- -- ----,140918.2799999835,140914.6550000005,140446.649,140454.54499998596,140463.35,140930.978,,51,really
screen,html.Screen,1_1_0_1_52,2021-04-22T21:23:34.300Z,,,,,,,,,,,,,,,,53,,,,,,,,,,,,,,423.65199998707976,,response,,,,99,,,,,,,Space,keypress(Space),,,,,,,,---- -- ----- -- ------ - ------- --- ----------<br>------------- ------ ------ ---- ---- ------- ----- -- ----<br>-------- ------- -- ---------- --- - --- ----- ----- ----<br>---- --- --- ----- --- ---- ---- ------- ----- ---- -------<br>--- --- -- ----- -- --- ---- -- --- ---- -- ------ ------<br>not ----- -- ----,141358.03499998292,141354.62999998708,140914.277,140918.58999998658,140930.978,141365.204,,52,not
screen,html.Screen,1_1_0_1_53,2021-04-22T21:23:34.756Z,,,,,,,,,,,,,,,,53,,,,,,,,,,,,,,445.466000006214,,response,,,,99,,,,,,,Space,keypress(Space),,,,,,,,---- -- ----- -- ------ - ------- --- ----------<br>------------- ------ ------ ---- ---- ------- ----- -- ----<br>-------- ------- -- ---------- --- - --- ----- ----- ----<br>---- --- --- ----- --- ---- ---- ------- ----- ---- -------<br>--- --- -- ----- -- --- ---- -- --- ---- -- ------ ------<br>--- close -- ----,141814.37999999616,141810.6700000062,141348.503,141358.21499998565,141365.204,141816.131,,53,close
screen,html.Screen,1_1_0_1_54,2021-04-22T21:23:35.163Z,,,,,,,,,,,,,,,,53,,,,,,,,,,,,,,402.459000004048,,response,,,,99,,,,,,,Space,keypress(Space),,,,,,,,---- -- ----- -- ------ - ------- --- ----------<br>------------- ------ ------ ---- ---- ------- ----- -- ----<br>-------- ------- -- ---------- --- - --- ----- ----- ----<br>---- --- --- ----- --- ---- ---- ------- ----- ---- -------<br>--- --- -- ----- -- --- ---- -- --- ---- -- ------ ------<br>--- ----- at ----,142221.61999999662,142218.59000000404,141799.43,141814.5599999989,141816.131,142233.656,,54,at
screen,html.Screen,1_1_0_1_55,2021-04-22T21:23:35.612Z,,,,,,,,,,,,,,,,53,,,,,,,,,,,,,,432.9640000036161,,response,,,,99,,,,,,,Space,keypress(Space),,,,,,,,---- -- ----- -- ------ - ------- --- ----------<br>------------- ------ ------ ---- ---- ------- ----- -- ----<br>-------- ------- -- ---------- --- - --- ----- ----- ----<br>---- --- --- ----- --- ---- ---- ------- ----- ---- -------<br>--- --- -- ----- -- --- ---- -- --- ---- -- ------ ------<br>--- ----- -- all.,142670.12999998406,142666.6200000036,142216.955,142221.8399999838,142233.656,142768.088,,55,all.
Item 99,flow.Loop,1_1_0_1,2021-04-22T21:23:35.612Z,,,,,,,,,,,,,,,,,,,,,,,,,,,,,,37730.2510000036,,completion,,,,,E,,,,,,,,,,,silence,,,,,142670.68499999004,142666.6200000036,104769.359,104771.19499997934,104936.369,142768.088,,,
Question 1,html.Screen,1_1_0_2,2021-04-22T21:23:45.092Z,,,,,,,,,,,,,,,,,,,,,,,,,,,true,FALSE,,9379.521999985445,,response,,,,99,E,,,,,,FALSE,click #choice-2,,,,silence,,,,,152151.00499999244,152147.60999998543,142667.882,142670.8749999816,142768.088,152154.978,,,
Question 2,html.Screen,1_1_0_3,2021-04-22T21:23:52.791Z,,,,,,,,,,,,,,,,,,,,,,,,,,,true,TRUE,,7692.611999990302,,response,,,,99,E,,,,,,TRUE,click #choice-1,,,,silence,,,,,159849.74499998498,159847.5899999903,152138.277,152151.2550000043,152154.978,159855.181,,,
Item 99,flow.Sequence,1_1_0,2021-04-22T21:23:52.791Z,,,,,,,,,,,,,,,,,,,,,,,,,,,,,,65066.4709999903,,completion,,,,,,,,,,,,,,,,,,,,,159849.99499999685,159847.5899999903,94680.913,94780.8199999854,94781.119,159855.181,,,
Holding screen,html.Screen,1_1_1_0,2021-04-22T21:24:02.786Z,,,,,,,,,,,,,,,,,,,,,,,,,,,,,,10003.898999999976,,timeout,,,,,,,,,,,,,,,,,,,,,169844.74499998032,169842.379,159838.48,159850.1849999884,159855.181,169859.08,,,
screen,html.Screen,1_1_1_1_0,2021-04-22T21:24:04.914Z,,,,,,,,,,,,,,,,54,,,,,,,,,,,,,,2110.584999982355,,response,,,,100,,,,,,,Space,keypress(Space),,,,,,,,At --- ---- --- ------ ----- ------- ---- -- --- ------- --<br>------- ---------- ------ -- ----- -- ----- -- ---- ------<br>--- ----- --- --- ------ -------- ----- --- ------ ----- --<br>----- ----- ---------- --- --- ------ ------ ---- -- ------<br>------- --- ------ ----- --- ---- ------- -- ---- --- --<br>------- ------,171972.86999999778,171969.66499998234,169842.379,169845.01999997883,169859.08,171981.292,,0,At
screen,html.Screen,1_1_1_1_1,2021-04-22T21:24:05.562Z,,,,,,,,,,,,,,,,54,,,,,,,,,,,,,,636.372999997955,,response,,,,100,,,,,,,Space,keypress(Space),,,,,,,,-- the ---- --- ------ ----- ------- ---- -- --- ------- --<br>------- ---------- ------ -- ----- -- ----- -- ---- ------<br>--- ----- --- --- ------ -------- ----- --- ------ ----- --<br>----- ----- ---------- --- --- ------ ------ ---- -- ------<br>------- --- ------ ----- --- ---- ------- -- ---- --- --<br>------- ------,172620.9600000002,172617.66499999794,171964.591,171973.02499998477,171981.292,172632.631,,1,the
screen,html.Screen,1_1_1_1_2,2021-04-22T21:24:06.531Z,,,,,,,,,,,,,,,,54,,,,,,,,,,,,,,953.0339999914286,,response,,,,100,,,,,,,Space,keypress(Space),,,,,,,,-- --- time --- ------ ----- ------- ---- -- --- ------- --<br>------- ---------- ------ -- ----- -- ----- -- ---- ------<br>--- ----- --- --- ------ -------- ----- --- ------ ----- --<br>----- ----- ---------- --- --- ------ ------ ---- -- ------<br>------- --- ------ ----- --- ---- ------- -- ---- --- --<br>------- ------,173589.7849999892,173585.66499999142,172615.93,172621.14000000292,172632.631,173601.289,,2,time
screen,html.Screen,1_1_1_1_3,2021-04-22T21:24:06.946Z,,,,,,,,,,,,,,,,54,,,,,,,,,,,,,,400.3759999888716,,response,,,,100,,,,,,,Space,keypress(Space),,,,,,,,-- --- ---- the ------ ----- ------- ---- -- --- ------- --<br>------- ---------- ------ -- ----- -- ----- -- ---- ------<br>--- ----- --- --- ------ -------- ----- --- ------ ----- --<br>----- ----- ---------- --- --- ------ ------ ---- -- ------<br>------- --- ------ ----- --- ---- ------- -- ---- --- --<br>------- ------,174005.24999998743,174001.66499998886,173584.588,173589.9849999987,173601.289,174018.814,,3,the
screen,html.Screen,1_1_1_1_4,2021-04-22T21:24:07.514Z,,,,,,,,,,,,,,,,54,,,,,,,,,,,,,,550.8559999971185,,response,,,,100,,,,,,,Space,keypress(Space),,,,,,,,-- --- ---- --- French ----- ------- ---- -- --- ------- --<br>------- ---------- ------ -- ----- -- ----- -- ---- ------<br>--- ----- --- --- ------ -------- ----- --- ------ ----- --<br>----- ----- ---------- --- --- ------ ------ ---- -- ------<br>------- --- ------ ----- --- ---- ------- -- ---- --- --<br>------- ------,174572.78499999666,174569.66999999713,174002.113,174005.42999999016,174018.814,174586.648,,4,French
screen,html.Screen,1_1_1_1_5,2021-04-22T21:24:07.890Z,,,,,,,,,,,,,,,,54,,,,,,,,,,,,,,359.0119999976014,,response,,,,100,,,,,,,Space,keypress(Space),,,,,,,,-- --- ---- --- ------ crown ------- ---- -- --- ------- --<br>------- ---------- ------ -- ----- -- ----- -- ---- ------<br>--- ----- --- --- ------ -------- ----- --- ------ ----- --<br>----- ----- ---------- --- --- ------ ------ ---- -- ------<br>------- --- ------ ----- --- ---- ------- -- ---- --- --<br>------- ------,174949.3450000009,174945.6599999976,174569.947,174573.02999999956,174586.648,174954.07,,5,crown
screen,html.Screen,1_1_1_1_6,2021-04-22T21:24:08.346Z,,,,,,,,,,,,,,,,54,,,,,,,,,,,,,,447.54499998065876,,response,,,,100,,,,,,,Space,keypress(Space),,,,,,,,-- --- ---- --- ------ ----- secured ---- -- --- ------- --<br>------- ---------- ------ -- ----- -- ----- -- ---- ------<br>--- ----- --- --- ------ -------- ----- --- ------ ----- --<br>----- ----- ---------- --- --- ------ ------ ---- -- ------<br>------- --- ------ ----- --- ---- ------- -- ---- --- --<br>------- ------,175405.15000000596,175401.61499998067,174937.369,174949.5299999835,174954.07,175421.698,,6,secured
screen,html.Screen,1_1_1_1_7,2021-04-22T21:24:08.785Z,,,,,,,,,,,,,,,,54,,,,,,,,,,,,,,419.96200000550016,,response,,,,100,,,,,,,Space,keypress(Space),,,,,,,,-- --- ---- --- ------ ----- ------- much -- --- ------- --<br>------- ---------- ------ -- ----- -- ----- -- ---- ------<br>--- ----- --- --- ------ -------- ----- --- ------ ----- --<br>----- ----- ---------- --- --- ------ ------ ---- -- ------<br>------- --- ------ ----- --- ---- ------- -- ---- --- --<br>------- ------,175844.5499999798,175841.6600000055,175404.997,175405.33499998855,175421.698,175855.924,,7,much
screen,html.Screen,1_1_1_1_8,2021-04-22T21:24:09.362Z,,,,,,,,,,,,,,,,54,,,,,,,,,,,,,,561.6559999793535,,response,,,,100,,,,,,,Space,keypress(Space),,,,,,,,-- --- ---- --- ------ ----- ------- ---- of --- ------- --<br>------- ---------- ------ -- ----- -- ----- -- ---- ------<br>--- ----- --- --- ------ -------- ----- --- ------ ----- --<br>----- ----- ---------- --- --- ------ ------ ---- -- ------<br>------- --- ------ ----- --- ---- ------- -- ---- --- --<br>------- ------,176421.02499998873,176417.57999997935,175839.223,175844.74000000046,175855.924,176423.758,,8,of
screen,html.Screen,1_1_1_1_9,2021-04-22T21:24:09.858Z,,,,,,,,,,,,,,,,54,,,,,,,,,,,,,,489.9070000000356,,response,,,,100,,,,,,,Space,keypress(Space),,,,,,,,-- --- ---- --- ------ ----- ------- ---- -- its ------- --<br>------- ---------- ------ -- ----- -- ----- -- ---- ------<br>--- ----- --- --- ------ -------- ----- --- ------ ----- --<br>----- ----- ---------- --- --- ------ ------ ---- -- ------<br>------- --- ------ ----- --- ---- ------- -- ---- --- --<br>------- ------,176916.9300000067,176913.66500000004,176407.057,176421.2149999803,176423.758,176924.788,,9,its
screen,html.Screen,1_1_1_1_10,2021-04-22T21:24:10.290Z,,,,,,,,,,,,,,,,54,,,,,,,,,,,,,,420.8869999895687,,response,,,,100,,,,,,,Space,keypress(Space),,,,,,,,-- --- ---- --- ------ ----- ------- ---- -- --- revenue --<br>------- ---------- ------ -- ----- -- ----- -- ---- ------<br>--- ----- --- --- ------ -------- ----- --- ------ ----- --<br>----- ----- ---------- --- --- ------ ------ ---- -- ------<br>------- --- ------ ----- --- ---- ------- -- ---- --- --<br>------- ------,177349.19999999693,177345.67499998957,176908.087,176917.11499998928,176924.788,177359.014,,10,revenue
screen,html.Screen,1_1_1_1_11,2021-04-22T21:24:10.770Z,,,,,,,,,,,,,,,,54,,,,,,,,,,,,,,466.6409999932803,,response,,,,100,,,,,,,Space,keypress(Space),,,,,,,,-- --- ---- --- ------ ----- ------- ---- -- --- ------- by<br>------- ---------- ------ -- ----- -- ----- -- ---- ------<br>--- ----- --- --- ------ -------- ----- --- ------ ----- --<br>----- ----- ---------- --- --- ------ ------ ---- -- ------<br>------- --- ------ ----- --- ---- ------- -- ---- --- --<br>------- ------,177829.29500000319,177825.65499999328,177342.313,177349.37999999966,177359.014,177843.343,,11,by
screen,html.Screen,1_1_1_1_12,2021-04-22T21:24:11.409Z,,,,,,,,,,,,,,,,54,,,,,,,,,,,,,,622.2069999935338,,response,,,,100,,,,,,,Space,keypress(Space),,,,,,,,-- --- ---- --- ------ ----- ------- ---- -- --- ------- --<br>issuing ---------- ------ -- ----- -- ----- -- ---- ------<br>--- ----- --- --- ------ -------- ----- --- ------ ----- --<br>----- ----- ---------- --- --- ------ ------ ---- -- ------<br>------- --- ------ ----- --- ---- ------- -- ---- --- --<br>------- ------,178467.8899999999,178465.54999999353,177826.642,177829.49000000372,177843.343,178477.981,,12,issuing
screen,html.Screen,1_1_1_1_13,2021-04-22T21:24:12.121Z,,,,,,,,,,,,,,,,54,,,,,,,,,,,,,,699.6839999956137,,response,,,,100,,,,,,,Space,keypress(Space),,,,,,,,-- --- ---- --- ------ ----- ------- ---- -- --- ------- --<br>------- government ------ -- ----- -- ----- -- ---- ------<br>--- ----- --- --- ------ -------- ----- --- ------ ----- --<br>----- ----- ---------- --- --- ------ ------ ---- -- ------<br>------- --- ------ ----- --- ---- ------- -- ---- --- --<br>------- ------,179180.4949999787,179177.6649999956,178461.28,178468.03499999805,178477.981,179196.124,,13,government
screen,html.Screen,1_1_1_1_14,2021-04-22T21:24:12.977Z,,,,,,,,,,,,,,,,54,,,,,,,,,,,,,,837.5409999953699,,response,,,,100,,,,,,,Space,keypress(Space),,,,,,,,-- --- ---- --- ------ ----- ------- ---- -- --- ------- --<br>------- ---------- bonds. -- ----- -- ----- -- ---- ------<br>--- ----- --- --- ------ -------- ----- --- ------ ----- --<br>----- ----- ---------- --- --- ------ ------ ---- -- ------<br>------- --- ------ ----- --- ---- ------- -- ---- --- --<br>------- ------,180036.54000000097,180033.66499999538,179179.423,179180.67499998142,179196.124,180047.875,,14,bonds.
screen,html.Screen,1_1_1_1_15,2021-04-22T21:24:13.706Z,,,,,,,,,,,,,,,,54,,,,,,,,,,,,,,713.7899999981746,,response,,,,100,,,,,,,Space,keypress(Space),,,,,,,,-- --- ---- --- ------ ----- ------- ---- -- --- ------- --<br>------- ---------- ------ In ----- -- ----- -- ---- ------<br>--- ----- --- --- ------ -------- ----- --- ------ ----- --<br>----- ----- ---------- --- --- ------ ------ ---- -- ------<br>------- --- ------ ----- --- ---- ------- -- ---- --- --<br>------- ------,180765.12500000536,180761.66499999817,180031.174,180036.72499998356,180047.875,180767.006,,15,In
screen,html.Screen,1_1_1_1_16,2021-04-22T21:24:15.122Z,,,,,,,,,,,,,,,,54,,,,,,,,,,,,,,1410.653999986651,,response,,,,100,,,,,,,Space,keypress(Space),,,,,,,,"-- --- ---- --- ------ ----- ------- ---- -- --- ------- --<br>------- ---------- ------ -- 1727, -- ----- -- ---- ------<br>--- ----- --- --- ------ -------- ----- --- ------ ----- --<br>----- ----- ---------- --- --- ------ ------ ---- -- ------<br>------- --- ------ ----- --- ---- ------- -- ---- --- --<br>------- ------",182180.95999999787,182177.65999998664,180750.305,180765.30999998795,180767.006,182186.591,,16,"1727,"
screen,html.Screen,1_1_1_1_17,2021-04-22T21:24:15.625Z,,,,,,,,,,,,,,,,54,,,,,,,,,,,,,,494.98900000404683,,response,,,,100,,,,,,,Space,keypress(Space),,,,,,,,-- --- ---- --- ------ ----- ------- ---- -- --- ------- --<br>------- ---------- ------ -- ----- in ----- -- ---- ------<br>--- ----- --- --- ------ -------- ----- --- ------ ----- --<br>----- ----- ---------- --- --- ------ ------ ---- -- ------<br>------- --- ------ ----- --- ---- ------- -- ---- --- --<br>------- ------,182684.0749999974,182681.58000000403,182169.89,182181.1250000028,182186.591,182687.621,,17,in
screen,html.Screen,1_1_1_1_18,2021-04-22T21:24:16.240Z,,,,,,,,,,,,,,,,54,,,,,,,,,,,,,,610.0389999819745,,response,,,,100,,,,,,,Space,keypress(Space),,,,,,,,-- --- ---- --- ------ ----- ------- ---- -- --- ------- --<br>------- ---------- ------ -- ----- -- order -- ---- ------<br>--- ----- --- --- ------ -------- ----- --- ------ ----- --<br>----- ----- ---------- --- --- ------ ------ ---- -- ------<br>------- --- ------ ----- --- ---- ------- -- ---- --- --<br>------- ------,183299.55999998492,183297.659999982,182670.92,182684.26999999792,182687.621,183305.558,,18,order
screen,html.Screen,1_1_1_1_19,2021-04-22T21:24:16.913Z,,,,,,,,,,,,,,,,54,,,,,,,,,,,,,,664.1170000002894,,response,,,,100,,,,,,,Space,keypress(Space),,,,,,,,-- --- ---- --- ------ ----- ------- ---- -- --- ------- --<br>------- ---------- ------ -- ----- -- ----- to ---- ------<br>--- ----- --- --- ------ -------- ----- --- ------ ----- --<br>----- ----- ---------- --- --- ------ ------ ---- -- ------<br>------- --- ------ ----- --- ---- ------- -- ---- --- --<br>------- ------,183972.5299999991,183969.67500000028,183288.857,183299.67499998747,183305.558,183973.598,,19,to
screen,html.Screen,1_1_1_1_20,2021-04-22T21:24:17.425Z,,,,,,,,,,,,,,,,54,,,,,,,,,,,,,,508.061999990372,,response,,,,100,,,,,,,Space,keypress(Space),,,,,,,,-- --- ---- --- ------ ----- ------- ---- -- --- ------- --<br>------- ---------- ------ -- ----- -- ----- -- save ------<br>--- ----- --- --- ------ -------- ----- --- ------ ----- --<br>----- ----- ---------- --- --- ------ ------ ---- -- ------<br>------- --- ------ ----- --- ---- ------- -- ---- --- --<br>------- ------,184484.61499999394,184481.65999999037,183956.897,183972.7149999817,183973.598,184491.329,,20,save
screen,html.Screen,1_1_1_1_21,2021-04-22T21:24:17.969Z,,,,,,,,,,,,,,,,54,,,,,,,,,,,,,,534.2809999824094,,response,,,,100,,,,,,,Space,keypress(Space),,,,,,,,"-- --- ---- --- ------ ----- ------- ---- -- --- ------- --<br>------- ---------- ------ -- ----- -- ----- -- ---- money,<br>--- ----- --- --- ------ -------- ----- --- ------ ----- --<br>----- ----- ---------- --- --- ------ ------ ---- -- ------<br>------- --- ------ ----- --- ---- ------- -- ---- --- --<br>------- ------",185028.39500000118,185025.6099999824,184474.628,184484.8049999855,184491.329,185042.462,,21,"money,"
screen,html.Screen,1_1_1_1_22,2021-04-22T21:24:18.554Z,,,,,,,,,,,,,,,,54,,,,,,,,,,,,,,567.2029999963124,,response,,,,100,,,,,,,Space,keypress(Space),,,,,,,,-- --- ---- --- ------ ----- ------- ---- -- --- ------- --<br>------- ---------- ------ -- ----- -- ----- -- ---- ------<br>the ----- --- --- ------ -------- ----- --- ------ ----- --<br>----- ----- ---------- --- --- ------ ------ ---- -- ------<br>------- --- ------ ----- --- ---- ------- -- ---- --- --<br>------- ------,185613.1100000057,185609.6649999963,185025.761,185028.5750000039,185042.462,185626.997,,22,the
screen,html.Screen,1_1_1_1_23,2021-04-22T21:24:19.098Z,,,,,,,,,,,,,,,,54,,,,,,,,,,,,,,526.6629999817524,,response,,,,100,,,,,,,Space,keypress(Space),,,,,,,,-- --- ---- --- ------ ----- ------- ---- -- --- ------- --<br>------- ---------- ------ -- ----- -- ----- -- ---- ------<br>--- state --- --- ------ -------- ----- --- ------ ----- --<br>----- ----- ---------- --- --- ------ ------ ---- -- ------<br>------- --- ------ ----- --- ---- ------- -- ---- --- --<br>------- ------,186157.3099999805,186153.65999998176,185610.296,185613.34999999963,185626.997,186161.429,,23,state
screen,html.Screen,1_1_1_1_24,2021-04-22T21:24:19.609Z,,,,,,,,,,,,,,,,54,,,,,,,,,,,,,,504.24099998758174,,response,,,,100,,,,,,,Space,keypress(Space),,,,,,,,-- --- ---- --- ------ ----- ------- ---- -- --- ------- --<br>------- ---------- ------ -- ----- -- ----- -- ---- ------<br>--- ----- cut --- ------ -------- ----- --- ------ ----- --<br>----- ----- ---------- --- --- ------ ------ ---- -- ------<br>------- --- ------ ----- --- ---- ------- -- ---- --- --<br>------- ------,186668.9699999988,186665.6699999876,186144.728,186157.53500000574,186161.429,186679.16,,24,cut
screen,html.Screen,1_1_1_1_25,2021-04-22T21:24:20.073Z,,,,,,,,,,,,,,,,54,,,,,,,,,,,,,,450.49499999699765,,response,,,,100,,,,,,,Space,keypress(Space),,,,,,,,-- --- ---- --- ------ ----- ------- ---- -- --- ------- --<br>------- ---------- ------ -- ----- -- ----- -- ---- ------<br>--- ----- --- the ------ -------- ----- --- ------ ----- --<br>----- ----- ---------- --- --- ------ ------ ---- -- ------<br>------- --- ------ ----- --- ---- ------- -- ---- --- --<br>------- ------,187132.6649999828,187129.654999997,186662.459,186669.16499999934,186679.16,187146.788,,25,the
screen,html.Screen,1_1_1_1_26,2021-04-22T21:24:20.713Z,,,,,,,,,,,,,,,,54,,,,,,,,,,,,,,622.7670000062208,,response,,,,100,,,,,,,Space,keypress(Space),,,,,,,,-- --- ---- --- ------ ----- ------- ---- -- --- ------- --<br>------- ---------- ------ -- ----- -- ----- -- ---- ------<br>--- ----- --- --- bonds' -------- ----- --- ------ ----- --<br>----- ----- ---------- --- --- ------ ------ ---- -- ------<br>------- --- ------ ----- --- ---- ------- -- ---- --- --<br>------- ------,187772.39499997813,187769.55500000622,187130.087,187132.85500000347,187146.788,187781.426,,26,bonds'
screen,html.Screen,1_1_1_1_27,2021-04-22T21:24:21.466Z,,,,,,,,,,,,,,,,54,,,,,,,,,,,,,,740.2389999783773,,response,,,,100,,,,,,,Space,keypress(Space),,,,,,,,-- --- ---- --- ------ ----- ------- ---- -- --- ------- --<br>------- ---------- ------ -- ----- -- ----- -- ---- ------<br>--- ----- --- --- ------ interest ----- --- ------ ----- --<br>----- ----- ---------- --- --- ------ ------ ---- -- ------<br>------- --- ------ ----- --- ---- ------- -- ---- --- --<br>------- ------,188525.1649999991,188521.66499997838,187764.725,187772.57499998086,187781.426,188532.971,,27,interest
screen,html.Screen,1_1_1_1_28,2021-04-22T21:24:22.050Z,,,,,,,,,,,,,,,,54,,,,,,,,,,,,,,572.7289999855275,,response,,,,100,,,,,,,Space,keypress(Space),,,,,,,,-- --- ---- --- ------ ----- ------- ---- -- --- ------- --<br>------- ---------- ------ -- ----- -- ----- -- ---- ------<br>--- ----- --- --- ------ -------- rate. --- ------ ----- --<br>----- ----- ---------- --- --- ------ ------ ---- -- ------<br>------- --- ------ ----- --- ---- ------- -- ---- --- --<br>------- ------,189109.3600000022,189105.69999998552,188516.27,188525.44999998645,188532.971,189117.506,,28,rate.
screen,html.Screen,1_1_1_1_29,2021-04-22T21:24:22.593Z,,,,,,,,,,,,,,,,54,,,,,,,,,,,,,,532.0839999863529,,response,,,,100,,,,,,,Space,keypress(Space),,,,,,,,-- --- ---- --- ------ ----- ------- ---- -- --- ------- --<br>------- ---------- ------ -- ----- -- ----- -- ---- ------<br>--- ----- --- --- ------ -------- ----- The ------ ----- --<br>----- ----- ---------- --- --- ------ ------ ---- -- ------<br>------- --- ------ ----- --- ---- ------- -- ---- --- --<br>------- ------,189652.37500000512,189649.58999998635,189100.805,189109.58499999833,189117.506,189668.639,,29,The
screen,html.Screen,1_1_1_1_30,2021-04-22T21:24:23.498Z,,,,,,,,,,,,,,,,54,,,,,,,,,,,,,,884.9759999825328,,response,,,,100,,,,,,,Space,keypress(Space),,,,,,,,-- --- ---- --- ------ ----- ------- ---- -- --- ------- --<br>------- ---------- ------ -- ----- -- ----- -- ---- ------<br>--- ----- --- --- ------ -------- ----- --- market ----- --<br>----- ----- ---------- --- --- ------ ------ ---- -- ------<br>------- --- ------ ----- --- ---- ------- -- ---- --- --<br>------- ------,190557.46499999077,190553.61499998253,189651.938,189652.55999998772,189668.639,190570.493,,30,market
screen,html.Screen,1_1_1_1_31,2021-04-22T21:24:24.138Z,,,,,,,,,,,,,,,,54,,,,,,,,,,,,,,623.1719999988854,,response,,,,100,,,,,,,Space,keypress(Space),,,,,,,,-- --- ---- --- ------ ----- ------- ---- -- --- ------- --<br>------- ---------- ------ -- ----- -- ----- -- ---- ------<br>--- ----- --- --- ------ -------- ----- --- ------ value --<br>----- ----- ---------- --- --- ------ ------ ---- -- ------<br>------- --- ------ ----- --- ---- ------- -- ---- --- --<br>------- ------,191197.2399999795,191193.66499999887,190553.792,190557.75499998708,190570.493,191206.126,,31,value
screen,html.Screen,1_1_1_1_32,2021-04-22T21:24:24.706Z,,,,,,,,,,,,,,,,54,,,,,,,,,,,,,,555.5789999826229,,response,,,,100,,,,,,,Space,keypress(Space),,,,,,,,-- --- ---- --- ------ ----- ------- ---- -- --- ------- --<br>------- ---------- ------ -- ----- -- ----- -- ---- ------<br>--- ----- --- --- ------ -------- ----- --- ------ ----- of<br>----- ----- ---------- --- --- ------ ------ ---- -- ------<br>------- --- ------ ----- --- ---- ------- -- ---- --- --<br>------- ------,191765.29999999912,191761.7049999826,191189.425,191197.4249999912,191206.126,191773.96,,32,of
screen,html.Screen,1_1_1_1_33,2021-04-22T21:24:25.450Z,,,,,,,,,,,,,,,,54,,,,,,,,,,,,,,731.7050000042364,,response,,,,100,,,,,,,Space,keypress(Space),,,,,,,,-- --- ---- --- ------ ----- ------- ---- -- --- ------- --<br>------- ---------- ------ -- ----- -- ----- -- ---- ------<br>--- ----- --- --- ------ -------- ----- --- ------ ----- --<br>these ----- ---------- --- --- ------ ------ ---- -- ------<br>------- --- ------ ----- --- ---- ------- -- ---- --- --<br>------- ------,192509.56499998574,192505.66500000423,191757.259,191765.4849999817,191773.96,192525.505,,33,these
screen,html.Screen,1_1_1_1_34,2021-04-22T21:24:25.857Z,,,,,,,,,,,,,,,,54,,,,,,,,,,,,,,388.0650000042515,,response,,,,100,,,,,,,Space,keypress(Space),,,,,,,,-- --- ---- --- ------ ----- ------- ---- -- --- ------- --<br>------- ---------- ------ -- ----- -- ----- -- ---- ------<br>--- ----- --- --- ------ -------- ----- --- ------ ----- --<br>----- bonds ---------- --- --- ------ ------ ---- -- ------<br>------- --- ------ ----- --- ---- ------- -- ---- --- --<br>------- ------,192917.05999997794,192913.57000000426,192508.804,192509.7550000064,192525.505,192926.329,,34,bonds
screen,html.Screen,1_1_1_1_35,2021-04-22T21:24:26.577Z,,,,,,,,,,,,,,,,54,,,,,,,,,,,,,,707.3360000012035,,response,,,,100,,,,,,,Space,keypress(Space),,,,,,,,"-- --- ---- --- ------ ----- ------- ---- -- --- ------- --<br>------- ---------- ------ -- ----- -- ----- -- ---- ------<br>--- ----- --- --- ------ -------- ----- --- ------ ----- --<br>----- ----- plummeted, --- --- ------ ------ ---- -- ------<br>------- --- ------ ----- --- ---- ------- -- ---- --- --<br>------- ------",193637.0900000038,193633.6650000012,192909.628,192917.3899999878,192926.329,193644.472,,35,"plummeted,"
screen,html.Screen,1_1_1_1_36,2021-04-22T21:24:27.401Z,,,,,,,,,,,,,,,,54,,,,,,,,,,,,,,813.1879999854718,,response,,,,100,,,,,,,Space,keypress(Space),,,,,,,,-- --- ---- --- ------ ----- ------- ---- -- --- ------- --<br>------- ---------- ------ -- ----- -- ----- -- ---- ------<br>--- ----- --- --- ------ -------- ----- --- ------ ----- --<br>----- ----- ---------- and --- ------ ------ ---- -- ------<br>------- --- ------ ----- --- ---- ------- -- ---- --- --<br>------- ------,194460.47999997973,194457.65999998548,193627.771,193637.67999998527,193644.472,194462.821,,36,and
screen,html.Screen,1_1_1_1_37,2021-04-22T21:24:28.010Z,,,,,,,,,,,,,,,,54,,,,,,,,,,,,,,602.838999992935,,response,,,,100,,,,,,,Space,keypress(Space),,,,,,,,-- --- ---- --- ------ ----- ------- ---- -- --- ------- --<br>------- ---------- ------ -- ----- -- ----- -- ---- ------<br>--- ----- --- --- ------ -------- ----- --- ------ ----- --<br>----- ----- ---------- --- the ------ ------ ---- -- ------<br>------- --- ------ ----- --- ---- ------- -- ---- --- --<br>------- ------,195069.32499998948,195065.65999999293,194446.12,194460.65999998245,194462.821,195080.758,,37,the
screen,html.Screen,1_1_1_1_38,2021-04-22T21:24:28.801Z,,,,,,,,,,,,,,,,54,,,,,,,,,,,,,,776.9069999886269,,response,,,,100,,,,,,,Space,keypress(Space),,,,,,,,-- --- ---- --- ------ ----- ------- ---- -- --- ------- --<br>------- ---------- ------ -- ----- -- ----- -- ---- ------<br>--- ----- --- --- ------ -------- ----- --- ------ ----- --<br>----- ----- ---------- --- --- market ------ ---- -- ------<br>------- --- ------ ----- --- ---- ------- -- ---- --- --<br>------- ------,195861.2199999916,195857.66499998863,195064.057,195069.5049999922,195080.758,195865.705,,38,market
screen,html.Screen,1_1_1_1_39,2021-04-22T21:24:29.273Z,,,,,,,,,,,,,,,,54,,,,,,,,,,,,,,463.96500000645756,,response,,,,100,,,,,,,Space,keypress(Space),,,,,,,,-- --- ---- --- ------ ----- ------- ---- -- --- ------- --<br>------- ---------- ------ -- ----- -- ----- -- ---- ------<br>--- ----- --- --- ------ -------- ----- --- ------ ----- --<br>----- ----- ---------- --- --- ------ became ---- -- ------<br>------- --- ------ ----- --- ---- ------- -- ---- --- --<br>------- ------,196333.27999999165,196329.67000000644,195849.004,195861.4050000033,195865.705,196350.034,,39,became
screen,html.Screen,1_1_1_1_40,2021-04-22T21:24:30.002Z,,,,,,,,,,,,,,,,54,,,,,,,,,,,,,,707.6810000026308,,response,,,,100,,,,,,,Space,keypress(Space),,,,,,,,-- --- ---- --- ------ ----- ------- ---- -- --- ------- --<br>------- ---------- ------ -- ----- -- ----- -- ---- ------<br>--- ----- --- --- ------ -------- ----- --- ------ ----- --<br>----- ----- ---------- --- --- ------ ------ wary -- ------<br>------- --- ------ ----- --- ---- ------- -- ---- --- --<br>------- ------,197061.41999998363,197057.71500000264,196333.333,196333.46500000334,196350.034,197068.177,,40,wary
screen,html.Screen,1_1_1_1_41,2021-04-22T21:24:30.529Z,,,,,,,,,,,,,,,,54,,,,,,,,,,,,,,517.5229999959993,,response,,,,100,,,,,,,Space,keypress(Space),,,,,,,,-- --- ---- --- ------ ----- ------- ---- -- --- ------- --<br>------- ---------- ------ -- ----- -- ----- -- ---- ------<br>--- ----- --- --- ------ -------- ----- --- ------ ----- --<br>----- ----- ---------- --- --- ------ ------ ---- of ------<br>------- --- ------ ----- --- ---- ------- -- ---- --- --<br>------- ------,197589.19499997864,197585.699999996,197051.476,197061.60499999532,197068.177,197602.609,,41,of
screen,html.Screen,1_1_1_1_42,2021-04-22T21:24:31.080Z,,,,,,,,,,,,,,,,54,,,,,,,,,,,,,,535.0709999852697,,response,,,,100,,,,,,,Space,keypress(Space),,,,,,,,-- --- ---- --- ------ ----- ------- ---- -- --- ------- --<br>------- ---------- ------ -- ----- -- ----- -- ---- ------<br>--- ----- --- --- ------ -------- ----- --- ------ ----- --<br>----- ----- ---------- --- --- ------ ------ ---- -- French<br>------- --- ------ ----- --- ---- ------- -- ---- --- --<br>------- ------,198140.0250000006,198137.67999998527,197585.908,197589.37499998137,197602.609,198153.742,,42,French
screen,html.Screen,1_1_1_1_43,2021-04-22T21:24:31.561Z,,,,,,,,,,,,,,,,54,,,,,,,,,,,,,,463.9229999979434,,response,,,,100,,,,,,,Space,keypress(Space),,,,,,,,-- --- ---- --- ------ ----- ------- ---- -- --- ------- --<br>------- ---------- ------ -- ----- -- ----- -- ---- ------<br>--- ----- --- --- ------ -------- ----- --- ------ ----- --<br>----- ----- ---------- --- --- ------ ------ ---- -- ------<br>credit. --- ------ ----- --- ---- ------- -- ---- --- --<br>------- ------,198620.44499997864,198617.66499999794,198137.041,198140.15500000096,198153.742,198621.37,,43,credit.
screen,html.Screen,1_1_1_1_44,2021-04-22T21:24:32.224Z,,,,,,,,,,,,,,,,54,,,,,,,,,,,,,,660.2949999877019,,response,,,,100,,,,,,,Space,keypress(Space),,,,,,,,-- --- ---- --- ------ ----- ------- ---- -- --- ------- --<br>------- ---------- ------ -- ----- -- ----- -- ---- ------<br>--- ----- --- --- ------ -------- ----- --- ------ ----- --<br>----- ----- ---------- --- --- ------ ------ ---- -- ------<br>------- The ------ ----- --- ---- ------- -- ---- --- --<br>------- ------,199284.01999999187,199281.6649999877,198604.669,198620.62999999034,198621.37,199289.41,,44,The
screen,html.Screen,1_1_1_1_45,2021-04-22T21:24:32.666Z,,,,,,,,,,,,,,,,54,,,,,,,,,,,,,,432.2499999810534,,response,,,,100,,,,,,,Space,keypress(Space),,,,,,,,-- --- ---- --- ------ ----- ------- ---- -- --- ------- --<br>------- ---------- ------ -- ----- -- ----- -- ---- ------<br>--- ----- --- --- ------ -------- ----- --- ------ ----- --<br>----- ----- ---------- --- --- ------ ------ ---- -- ------<br>------- --- French ----- --- ---- ------- -- ---- --- --<br>------- ------,199725.80499999458,199721.65999998106,199272.709,199284.169999999,199289.41,199740.337,,45,French
screen,html.Screen,1_1_1_1_46,2021-04-22T21:24:33.185Z,,,,,,,,,,,,,,,,54,,,,,,,,,,,,,,501.2780000062776,,response,,,,100,,,,,,,Space,keypress(Space),,,,,,,,-- --- ---- --- ------ ----- ------- ---- -- --- ------- --<br>------- ---------- ------ -- ----- -- ----- -- ---- ------<br>--- ----- --- --- ------ -------- ----- --- ------ ----- --<br>----- ----- ---------- --- --- ------ ------ ---- -- ------<br>------- --- ------ state --- ---- ------- -- ---- --- --<br>------- ------,200245.0200000021,200241.61500000628,199723.636,199726.10499997973,199740.337,200258.068,,46,state
screen,html.Screen,1_1_1_1_47,2021-04-22T21:24:33.729Z,,,,,,,,,,,,,,,,54,,,,,,,,,,,,,,527.6019999829296,,response,,,,100,,,,,,,Space,keypress(Space),,,,,,,,-- --- ---- --- ------ ----- ------- ---- -- --- ------- --<br>------- ---------- ------ -- ----- -- ----- -- ---- ------<br>--- ----- --- --- ------ -------- ----- --- ------ ----- --<br>----- ----- ---------- --- --- ------ ------ ---- -- ------<br>------- --- ------ ----- was ---- ------- -- ---- --- --<br>------- ------,200789.25999999046,200785.66999998293,200241.367,200245.23000000045,200258.068,200792.5,,47,was
screen,html.Screen,1_1_1_1_48,2021-04-22T21:24:34.209Z,,,,,,,,,,,,,,,,54,,,,,,,,,,,,,,473.1600000045728,,response,,,,100,,,,,,,Space,keypress(Space),,,,,,,,-- --- ---- --- ------ ----- ------- ---- -- --- ------- --<br>------- ---------- ------ -- ----- -- ----- -- ---- ------<br>--- ----- --- --- ------ -------- ----- --- ------ ----- --<br>----- ----- ---------- --- --- ------ ------ ---- -- ------<br>------- --- ------ ----- --- left ------- -- ---- --- --<br>------- ------,201268.8499999931,201265.66000000457,200775.799,200789.45999999996,200792.5,201277.821,,48,left
screen,html.Screen,1_1_1_1_49,2021-04-22T21:24:34.617Z,,,,,,,,,,,,,,,,54,,,,,,,,,,,,,,395.83900000038557,,response,,,,100,,,,,,,Space,keypress(Space),,,,,,,,-- --- ---- --- ------ ----- ------- ---- -- --- ------- --<br>------- ---------- ------ -- ----- -- ----- -- ---- ------<br>--- ----- --- --- ------ -------- ----- --- ------ ----- --<br>----- ----- ---------- --- --- ------ ------ ---- -- ------<br>------- --- ------ ----- --- ---- without -- ---- --- --<br>------- ------,201677.04499998945,201673.66000000038,201261.12,201269.1300000006,201277.821,201678.645,,49,without
screen,html.Screen,1_1_1_1_50,2021-04-22T21:24:35.041Z,,,,,,,,,,,,,,,,54,,,,,,,,,,,,,,419.04499999506515,,response,,,,100,,,,,,,Space,keypress(Space),,,,,,,,-- --- ---- --- ------ ----- ------- ---- -- --- ------- --<br>------- ---------- ------ -- ----- -- ----- -- ---- ------<br>--- ----- --- --- ------ -------- ----- --- ------ ----- --<br>----- ----- ---------- --- --- ------ ------ ---- -- ------<br>------- --- ------ ----- --- ---- ------- an ---- --- --<br>------- ------,202101.2000000046,202097.68999999505,201661.944,201677.234999981,201678.645,202112.871,,50,an
screen,html.Screen,1_1_1_1_51,2021-04-22T21:24:35.505Z,,,,,,,,,,,,,,,,54,,,,,,,,,,,,,,448.79399998651934,,response,,,,100,,,,,,,Space,keypress(Space),,,,,,,,-- --- ---- --- ------ ----- ------- ---- -- --- ------- --<br>------- ---------- ------ -- ----- -- ----- -- ---- ------<br>--- ----- --- --- ------ -------- ----- --- ------ ----- --<br>----- ----- ---------- --- --- ------ ------ ---- -- ------<br>------- --- ------ ----- --- ---- ------- -- easy --- --<br>------- ------,202565.36499998765,202561.66499998653,202096.17,202101.399999985,202112.871,202580.499,,51,easy
screen,html.Screen,1_1_1_1_52,2021-04-22T21:24:35.898Z,,,,,,,,,,,,,,,,54,,,,,,,,,,,,,,373.160999999207,,response,,,,100,,,,,,,Space,keypress(Space),,,,,,,,-- --- ---- --- ------ ----- ------- ---- -- --- ------- --<br>------- ---------- ------ -- ----- -- ----- -- ---- ------<br>--- ----- --- --- ------ -------- ----- --- ------ ----- --<br>----- ----- ---------- --- --- ------ ------ ---- -- ------<br>------- --- ------ ----- --- ---- ------- -- ---- way --<br>------- ------,202958.0100000021,202953.65999999922,202563.798,202565.54999999935,202580.499,202964.622,,52,way
screen,html.Screen,1_1_1_1_53,2021-04-22T21:24:36.393Z,,,,,,,,,,,,,,,,54,,,,,,,,,,,,,,484.94299998806673,,response,,,,100,,,,,,,Space,keypress(Space),,,,,,,,-- --- ---- --- ------ ----- ------- ---- -- --- ------- --<br>------- ---------- ------ -- ----- -- ----- -- ---- ------<br>--- ----- --- --- ------ -------- ----- --- ------ ----- --<br>----- ----- ---------- --- --- ------ ------ ---- -- ------<br>------- --- ------ ----- --- ---- ------- -- ---- --- of<br>------- ------,203452.59000000078,203449.56499998807,202947.921,202958.3200000052,202964.622,203465.652,,53,of
screen,html.Screen,1_1_1_1_54,2021-04-22T21:24:36.905Z,,,,,,,,,,,,,,,,54,,,,,,,,,,,,,,495.922999993898,,response,,,,100,,,,,,,Space,keypress(Space),,,,,,,,-- --- ---- --- ------ ----- ------- ---- -- --- ------- --<br>------- ---------- ------ -- ----- -- ----- -- ---- ------<br>--- ----- --- --- ------ -------- ----- --- ------ ----- --<br>----- ----- ---------- --- --- ------ ------ ---- -- ------<br>------- --- ------ ----- --- ---- ------- -- ---- --- --<br>raising ------,203964.83499999158,203961.5749999939,203448.951,203452.77999999234,203465.652,203966.682,,54,raising
screen,html.Screen,1_1_1_1_55,2021-04-22T21:24:37.432Z,,,,,,,,,,,,,,,,54,,,,,,,,,,,,,,523.0079999876034,,response,,,,100,,,,,,,Space,keypress(Space),,,,,,,,-- --- ---- --- ------ ----- ------- ---- -- --- ------- --<br>------- ---------- ------ -- ----- -- ----- -- ---- ------<br>--- ----- --- --- ------ -------- ----- --- ------ ----- --<br>----- ----- ---------- --- --- ------ ------ ---- -- ------<br>------- --- ------ ----- --- ---- ------- -- ---- --- --<br>------- money.,204492.24500000128,204489.6899999876,203949.981,203965.02499998314,203966.682,204501.114,,55,money.
Item 100,flow.Loop,1_1_1_1,2021-04-22T21:24:37.433Z,,,,,,,,,,,,,,,,,,,,,,,,,,,,,,34630.60999998762,,completion,,,,,E,,,,,,,,,,,silence,,,,,204492.72499998915,204489.6899999876,169842.379,169844.94499998982,169859.08,204501.114,,,
Question 1,html.Screen,1_1_1_2,2021-04-22T21:24:41.362Z,,,,,,,,,,,,,,,,,,,,,,,,,,,true,TRUE,,3919.4909999920637,,response,,,,100,E,,,,,,TRUE,click #choice-1,,,,silence,,,,,208422.56999999518,208420.60499999207,204484.413,204492.91000000085,204501.114,208425.849,,,
Question 2,html.Screen,1_1_1_3,2021-04-22T21:24:46.915Z,,,,,,,,,,,,,,,,,,,,,,,,,,,true,FALSE,,5546.796000001661,,response,,,,100,E,,,,,,FALSE,click #choice-2,,,,silence,,,,,213974.82499998296,213972.64500000165,208409.148,208422.7050000045,208425.849,213988.267,,,
Item 100,flow.Sequence,1_1_1,2021-04-22T21:24:46.915Z,,,,,,,,,,,,,,,,,,,,,,,,,,,,,,54117.46400000164,,completion,,,,,,,,,,,,,,,,,,,,,213975.065000006,213972.64500000165,159838.48,159850.13000000617,159855.181,213988.267,,,
End of Practice,html.Page,1_1_2,2021-04-22T21:24:49.766Z,,,,,,,,,,,,,,,,,,,,,,,,,,,,,,2838.162999986438,,form submission,,,,,,,,,,,,,,,,,,,,,216826.6799999983,216826.42999998643,213971.566,213975.24499997962,213988.267,216827.437,,,
Practice,flow.Sequence,1_1,2021-04-22T21:24:49.767Z,,,,,,,,,,,,,,,,,,,,,,,,,,,,,,122045.31099998642,,completion,,,,,,,,,,,,,,,,,,,,,216826.85499999207,216826.42999998643,94680.913,94780.72999999858,94781.119,216827.437,,,
Trap_instruction,html.Page,1_2_0,2021-04-22T21:24:58.078Z,,,,,,,,,,,,,,,,,,,,,,,,,,,,,,8310.788000002416,,form submission,,,,,,,,,,,,,,,,,,,,,225138.63499998115,225138.22500000242,216810.736,216826.97999998345,216827.437,225229.02,,,
trap_trial,html.Screen,1_2_1,2021-04-22T21:25:00.959Z,,,,,,,,,,,,,,,,,,,,,,,,,,,true,1,,2787.6849999872793,,response,,,,,,,,,,,1,click #choice-1,,,,,,,,,228019.4649999903,228016.70499998727,225128.814,225138.810000004,225229.02,228034.788,,,
end of trap trial,html.Page,1_2_2,2021-04-22T21:25:02.715Z,,,,,,,,,,,,,,,,,,,,,,,,,,,,,,1740.4719999948866,,form submission,,,,,,,,,,,,,,,,,,,,,229775.55500000017,229775.2599999949,228018.087,228019.6949999954,228034.788,229788.393,,,
Trap 1,flow.Sequence,1_2,2021-04-22T21:25:02.715Z,,,,,,,,,,,,,,,,,,,,,,,,,,,,,,12947.822999994882,,completion,,,,,,,,,,,,,,,,,,,,,229775.80499998294,229775.2599999949,216810.736,216826.93499999004,216827.437,229788.393,,,
Standby,html.Page,1_3_0,2021-04-22T21:25:10.712Z,,,,,,,,,,,,,,,,,,,,,,,,,,,,,,7999.77899999998,,timeout,,,,,,,,,,,,,,,,,,,,,237772.44000000064,237771.471,229771.692,229775.9800000058,229788.393,237788.172,,,
Holding screen,html.Screen,1_3_1_0_0,2021-04-22T21:25:17.713Z,,,,,,,,,,,,,,,,,,,,,,,,,,,,,,6999.736000000004,,timeout,,,,,,,,,,,,,,,,,,,,,244773.5049999901,244771.207,237771.471,237772.68500000355,237788.172,244787.908,,,
screen,html.Screen,1_3_1_0_1_0,2021-04-22T21:25:19.067Z,,,,,,,,,,,,,,,,51,,,,,,,,,,,,,,1336.581999987422,,response,,,,13,E,,,,,,Space,keypress(Space),,,,lyrical,,,,American -------- --- --- ---- --- --- ------ -- --------<br>---- --------- --- ------- ------------ ---------- ---------<br>--- ---------- ------- ---------- ------- -- -------- ----<br>---- --- ------ ----- ------ -- ---- --- ----- -- - -------<br>-------- -- --- --- -- ----- ----------- ----- -----------<br>---- --- ---------- --- ---- --- -- ----------,246128.3649999823,246124.48999998742,244771.207,244773.8149999932,244787.908,246140.689,,0,American
screen,html.Screen,1_3_1_0_1_1,2021-04-22T21:25:19.683Z,,,,,,,,,,,,,,,,51,,,,,,,,,,,,,,599.8659999966621,,response,,,,13,E,,,,,,Space,keypress(Space),,,,lyrical,,,,-------- industry --- --- ---- --- --- ------ -- --------<br>---- --------- --- ------- ------------ ---------- ---------<br>--- ---------- ------- ---------- ------- -- -------- ----<br>---- --- ------ ----- ------ -- ---- --- ----- -- - -------<br>-------- -- --- --- -- ----- ----------- ----- -----------<br>---- --- ---------- --- ---- --- -- ----------,246744.10499999067,246740.55499999668,246123.988,246128.54000000516,246140.689,246758.626,,1,industry
screen,html.Screen,1_3_1_0_1_2,2021-04-22T21:25:20.619Z,,,,,,,,,,,,,,,,51,,,,,,,,,,,,,,917.8339999878663,,response,,,,13,E,,,,,,Space,keypress(Space),,,,lyrical,,,,-------- -------- may --- ---- --- --- ------ -- --------<br>---- --------- --- ------- ------------ ---------- ---------<br>--- ---------- ------- ---------- ------- -- -------- ----<br>---- --- ------ ----- ------ -- ---- --- ----- -- - -------<br>-------- -- --- --- -- ----- ----------- ----- -----------<br>---- --- ---------- --- ---- --- -- ----------,247679.7399999923,247676.45999998786,246741.925,246744.2849999934,246758.626,247693.882,,2,may
screen,html.Screen,1_3_1_0_1_3,2021-04-22T21:25:21.306Z,,,,,,,,,,,,,,,,51,,,,,,,,,,,,,,670.6479999916337,,response,,,,13,E,,,,,,Space,keypress(Space),,,,lyrical,,,,-------- -------- --- not ---- --- --- ------ -- --------<br>---- --------- --- ------- ------------ ---------- ---------<br>--- ---------- ------- ---------- ------- -- -------- ----<br>---- --- ------ ----- ------ -- ---- --- ----- -- - -------<br>-------- -- --- --- -- ----- ----------- ----- -----------<br>---- --- ---------- --- ---- --- -- ----------,248367.41999999504,248364.52999999165,247677.181,247679.925000004,247693.882,248378.623,,3,not
screen,html.Screen,1_3_1_0_1_4,2021-04-22T21:25:21.859Z,,,,,,,,,,,,,,,,51,,,,,,,,,,,,,,537.901999978727,,response,,,,13,E,,,,,,Space,keypress(Space),,,,lyrical,,,,-------- -------- --- --- know --- --- ------ -- --------<br>---- --------- --- ------- ------------ ---------- ---------<br>--- ---------- ------- ---------- ------- -- -------- ----<br>---- --- ------ ----- ------ -- ---- --- ----- -- - -------<br>-------- -- --- --- -- ----- ----------- ----- -----------<br>---- --- ---------- --- ---- --- -- ----------,248920.54999998072,248916.52499997872,248361.922,248367.61499999557,248378.623,248929.756,,4,know
screen,html.Screen,1_3_1_0_1_5,2021-04-22T21:25:22.521Z,,,,,,,,,,,,,,,,51,,,,,,,,,,,,,,650.7439999818453,,response,,,,13,E,,,,,,Space,keypress(Space),,,,lyrical,,,,"-------- -------- --- --- ---- it, --- ------ -- --------<br>---- --------- --- ------- ------------ ---------- ---------<br>--- ---------- ------- ---------- ------- -- -------- ----<br>---- --- ------ ----- ------ -- ---- --- ----- -- - -------<br>-------- -- --- --- -- ----- ----------- ----- -----------<br>---- --- ---------- --- ---- --- -- ----------",249582.4399999983,249580.49999998184,248913.055,248920.9700000065,248929.756,249597.796,,5,"it,"
screen,html.Screen,1_3_1_0_1_6,2021-04-22T21:25:22.995Z,,,,,,,,,,,,,,,,51,,,,,,,,,,,,,,454.7239999974554,,response,,,,13,E,,,,,,Space,keypress(Space),,,,lyrical,,,,-------- -------- --- --- ---- --- but ------ -- --------<br>---- --------- --- ------- ------------ ---------- ---------<br>--- ---------- ------- ---------- ------- -- -------- ----<br>---- --- ------ ----- ------ -- ---- --- ----- -- - -------<br>-------- -- --- --- -- ----- ----------- ----- -----------<br>---- --- ---------- --- ---- --- -- ----------,250056.11999999383,250052.51999999746,249581.095,249582.55500000087,249597.796,250065.424,,6,but
screen,html.Screen,1_3_1_0_1_7,2021-04-22T21:25:23.579Z,,,,,,,,,,,,,,,,51,,,,,,,,,,,,,,571.0909999910509,,response,,,,13,E,,,,,,Space,keypress(Space),,,,lyrical,,,,-------- -------- --- --- ---- --- --- debate -- --------<br>---- --------- --- ------- ------------ ---------- ---------<br>--- ---------- ------- ---------- ------- -- -------- ----<br>---- --- ------ ----- ------ -- ---- --- ----- -- - -------<br>-------- -- --- --- -- ----- ----------- ----- -----------<br>---- --- ---------- --- ---- --- -- ----------,250639.85999999568,250636.51499999105,250048.723,250056.3099999854,250065.424,250649.959,,7,debate
screen,html.Screen,1_3_1_0_1_8,2021-04-22T21:25:24.003Z,,,,,,,,,,,,,,,,51,,,,,,,,,,,,,,410.5909999946889,,response,,,,13,E,,,,,,Space,keypress(Space),,,,lyrical,,,,-------- -------- --- --- ---- --- --- ------ in --------<br>---- --------- --- ------- ------------ ---------- ---------<br>--- ---------- ------- ---------- ------- -- -------- ----<br>---- --- ------ ----- ------ -- ---- --- ----- -- - -------<br>-------- -- --- --- -- ----- ----------- ----- -----------<br>---- --- ---------- --- ---- --- -- ----------,251064.19499998447,251060.5499999947,250633.258,250640.0399999984,250649.959,251067.484,,8,in
screen,html.Screen,1_3_1_0_1_9,2021-04-22T21:25:24.499Z,,,,,,,,,,,,,,,,51,,,,,,,,,,,,,,489.07599999726517,,response,,,,13,E,,,,,,Space,keypress(Space),,,,lyrical,,,,-------- -------- --- --- ---- --- --- ------ -- Congress<br>---- --------- --- ------- ------------ ---------- ---------<br>--- ---------- ------- ---------- ------- -- -------- ----<br>---- --- ------ ----- ------ -- ---- --- ----- -- - -------<br>-------- -- --- --- -- ----- ----------- ----- -----------<br>---- --- ---------- --- ---- --- -- ----------,251560.2249999938,251556.55999999726,251050.783,251064.45999999414,251067.484,251568.514,,9,Congress
screen,html.Screen,1_3_1_0_1_10,2021-04-22T21:25:25.051Z,,,,,,,,,,,,,,,,51,,,,,,,,,,,,,,539.9959999909333,,response,,,,13,E,,,,,,Space,keypress(Space),,,,lyrical,,,,-------- -------- --- --- ---- --- --- ------ -- --------<br>over --------- --- ------- ------------ ---------- ---------<br>--- ---------- ------- ---------- ------- -- -------- ----<br>---- --- ------ ----- ------ -- ---- --- ----- -- - -------<br>-------- -- --- --- -- ----- ----------- ----- -----------<br>---- --- ---------- --- ---- --- -- ----------,252112.51999999513,252108.50999999093,251551.813,251560.41499998537,251568.514,252120.552,,10,over
screen,html.Screen,1_3_1_0_1_11,2021-04-22T21:25:25.658Z,,,,,,,,,,,,,,,,51,,,,,,,,,,,,,,595.9529999894148,,response,,,,13,E,,,,,,Space,keypress(Space),,,,lyrical,,,,-------- -------- --- --- ---- --- --- ------ -- --------<br>---- reforming --- ------- ------------ ---------- ---------<br>--- ---------- ------- ---------- ------- -- -------- ----<br>---- --- ------ ----- ------ -- ---- --- ----- -- - -------<br>-------- -- --- --- -- ----- ----------- ----- -----------<br>---- --- ---------- --- ---- --- -- ----------,252719.32999999262,252716.5049999894,252103.851,252112.72000000463,252120.552,252721.788,,11,reforming
screen,html.Screen,1_3_1_0_1_12,2021-04-22T21:25:26.130Z,,,,,,,,,,,,,,,,51,,,,,,,,,,,,,,466.73199999606004,,response,,,,13,E,,,,,,Space,keypress(Space),,,,lyrical,,,,-------- -------- --- --- ---- --- --- ------ -- --------<br>---- --------- the ------- ------------ ---------- ---------<br>--- ---------- ------- ---------- ------- -- -------- ----<br>---- --- ------ ----- ------ -- ---- --- ----- -- - -------<br>-------- -- --- --- -- ----- ----------- ----- -----------<br>---- --- ---------- --- ---- --- -- ----------,253191.04000000516,253188.51999999606,252705.087,252719.50499998638,252721.788,253206.117,,12,the
screen,html.Screen,1_3_1_0_1_13,2021-04-22T21:25:26.683Z,,,,,,,,,,,,,,,,51,,,,,,,,,,,,,,534.3979999831354,,response,,,,13,E,,,,,,Space,keypress(Space),,,,lyrical,,,,-------- -------- --- --- ---- --- --- ------ -- --------<br>---- --------- --- federal ------------ ---------- ---------<br>--- ---------- ------- ---------- ------- -- -------- ----<br>---- --- ------ ----- ------ -- ---- --- ----- -- - -------<br>-------- -- --- --- -- ----- ----------- ----- -----------<br>---- --- ---------- --- ---- --- -- ----------,253743.78999997862,253740.51499998313,253189.416,253191.31500000367,253206.117,253757.25,,13,federal
screen,html.Screen,1_3_1_0_1_14,2021-04-22T21:25:27.345Z,,,,,,,,,,,,,,,,51,,,,,,,,,,,,,,647.2699999818578,,response,,,,13,E,,,,,,Space,keypress(Space),,,,lyrical,,,,-------- -------- --- --- ---- --- --- ------ -- --------<br>---- --------- --- ------- government's ---------- ---------<br>--- ---------- ------- ---------- ------- -- -------- ----<br>---- --- ------ ----- ------ -- ---- --- ----- -- - -------<br>-------- -- --- --- -- ----- ----------- ----- -----------<br>---- --- ---------- --- ---- --- -- ----------,254406.5249999985,254404.51999998186,253740.549,253743.9749999903,253757.25,254408.589,,14,government's
screen,html.Screen,1_3_1_0_1_15,2021-04-22T21:25:28.411Z,,,,,,,,,,,,,,,,51,,,,,,,,,,,,,,1059.9259999859205,,response,,,,13,E,,,,,,Space,keypress(Space),,,,lyrical,,,,-------- -------- --- --- ---- --- --- ------ -- --------<br>---- --------- --- ------- ------------ regulatory ---------<br>--- ---------- ------- ---------- ------- -- -------- ----<br>---- --- ------ ----- ------ -- ---- --- ----- -- - -------<br>-------- -- --- --- -- ----- ----------- ----- -----------<br>---- --- ---------- --- ---- --- -- ----------,255472.3449999874,255468.51499998593,254391.888,254406.6349999921,254408.589,255477.453,,15,regulatory
screen,html.Screen,1_3_1_0_1_16,2021-04-22T21:25:29.051Z,,,,,,,,,,,,,,,,51,,,,,,,,,,,,,,631.0619999998889,,response,,,,13,E,,,,,,Space,keypress(Space),,,,lyrical,,,,-------- -------- --- --- ---- --- --- ------ -- --------<br>---- --------- --- ------- ------------ ---------- apparatus<br>--- ---------- ------- ---------- ------- -- -------- ----<br>---- --- ------ ----- ------ -- ---- --- ----- -- - -------<br>-------- -- --- --- -- ----- ----------- ----- -----------<br>---- --- ---------- --- ---- --- -- ----------,256112.1099999873,256108.5149999999,255460.752,255472.5299999991,255477.453,256128.792,,16,apparatus
screen,html.Screen,1_3_1_0_1_17,2021-04-22T21:25:29.762Z,,,,,,,,,,,,,,,,51,,,,,,,,,,,,,,691.7529999950493,,response,,,,13,E,,,,,,Space,keypress(Space),,,,lyrical,,,,-------- -------- --- --- ---- --- --- ------ -- --------<br>---- --------- --- ------- ------------ ---------- ---------<br>may ---------- ------- ---------- ------- -- -------- ----<br>---- --- ------ ----- ------ -- ---- --- ----- -- - -------<br>-------- -- --- --- -- ----- ----------- ----- -----------<br>---- --- ---------- --- ---- --- -- ----------,256823.52000000537,256820.54499999504,256112.091,256112.5100000063,256128.792,256830.234,,17,may
screen,html.Screen,1_3_1_0_1_18,2021-04-22T21:25:30.418Z,,,,,,,,,,,,,,,,51,,,,,,,,,,,,,,646.2809999875608,,response,,,,13,E,,,,,,Space,keypress(Space),,,,lyrical,,,,-------- -------- --- --- ---- --- --- ------ -- --------<br>---- --------- --- ------- ------------ ---------- ---------<br>--- profoundly ------- ---------- ------- -- -------- ----<br>---- --- ------ ----- ------ -- ---- --- ----- -- - -------<br>-------- -- --- --- -- ----- ----------- ----- -----------<br>---- --- ---------- --- ---- --- -- ----------,257479.33999999077,257476.51499998756,256813.533,256823.65000000573,256830.234,257481.573,,18,profoundly
screen,html.Screen,1_3_1_0_1_19,2021-04-22T21:25:30.915Z,,,,,,,,,,,,,,,,51,,,,,,,,,,,,,,490.9420000012906,,response,,,,13,E,,,,,,Space,keypress(Space),,,,lyrical,,,,-------- -------- --- --- ---- --- --- ------ -- --------<br>---- --------- --- ------- ------------ ---------- ---------<br>--- ---------- improve ---------- ------- -- -------- ----<br>---- --- ------ ----- ------ -- ---- --- ----- -- - -------<br>-------- -- --- --- -- ----- ----------- ----- -----------<br>---- --- ---------- --- ---- --- -- ----------,257976.23499998008,257972.5150000013,257464.872,257479.51499998453,257481.573,257982.603,,19,improve
screen,html.Screen,1_3_1_0_1_20,2021-04-22T21:25:31.513Z,,,,,,,,,,,,,,,,51,,,,,,,,,,,,,,589.9169999869773,,response,,,,13,E,,,,,,Space,keypress(Space),,,,lyrical,,,,-------- -------- --- --- ---- --- --- ------ -- --------<br>---- --------- --- ------- ------------ ---------- ---------<br>--- ---------- ------- companies' ------- -- -------- ----<br>---- --- ------ ----- ------ -- ---- --- ----- -- - -------<br>-------- -- --- --- -- ----- ----------- ----- -----------<br>---- --- ---------- --- ---- --- -- ----------,258574.61499999044,258572.51999998698,257965.902,257976.4149999828,257982.603,258583.839,,20,companies'
screen,html.Screen,1_3_1_0_1_21,2021-04-22T21:25:32.178Z,,,,,,,,,,,,,,,,51,,,,,,,,,,,,,,652.6810000058322,,response,,,,13,E,,,,,,Space,keypress(Space),,,,lyrical,,,,-------- -------- --- --- ---- --- --- ------ -- --------<br>---- --------- --- ------- ------------ ---------- ---------<br>--- ---------- ------- ---------- ability -- -------- ----<br>---- --- ------ ----- ------ -- ---- --- ----- -- - -------<br>-------- -- --- --- -- ----- ----------- ----- -----------<br>---- --- ---------- --- ---- --- -- ----------,259239.16500000632,259236.52000000584,258567.138,258574.77999999537,258583.839,259251.879,,21,ability
screen,html.Screen,1_3_1_0_1_22,2021-04-22T21:25:32.834Z,,,,,,,,,,,,,,,,51,,,,,,,,,,,,,,640.6310000051453,,response,,,,13,E,,,,,,Space,keypress(Space),,,,lyrical,,,,-------- -------- --- --- ---- --- --- ------ -- --------<br>---- --------- --- ------- ------------ ---------- ---------<br>--- ---------- ------- ---------- ------- to -------- ----<br>---- --- ------ ----- ------ -- ---- --- ----- -- - -------<br>-------- -- --- --- -- ----- ----------- ----- -----------<br>---- --- ---------- --- ---- --- -- ----------,259895.78999998048,259892.51000000513,259235.178,259239.3199999933,259251.879,259903.218,,22,to
screen,html.Screen,1_3_1_0_1_23,2021-04-22T21:25:33.385Z,,,,,,,,,,,,,,,,51,,,,,,,,,,,,,,541.2969999810448,,response,,,,13,E,,,,,,Space,keypress(Space),,,,lyrical,,,,-------- -------- --- --- ---- --- --- ------ -- --------<br>---- --------- --- ------- ------------ ---------- ---------<br>--- ---------- ------- ---------- ------- -- survive. ----<br>---- --- ------ ----- ------ -- ---- --- ----- -- - -------<br>-------- -- --- --- -- ----- ----------- ----- -----------<br>---- --- ---------- --- ---- --- -- ----------,260446.47500000428,260444.51499998104,259886.517,259895.98000000115,259903.218,260454.351,,23,survive.
screen,html.Screen,1_3_1_0_1_24,2021-04-22T21:25:33.898Z,,,,,,,,,,,,,,,,51,,,,,,,,,,,,,,502.0339999976859,,response,,,,13,E,,,,,,Space,keypress(Space),,,,lyrical,,,,-------- -------- --- --- ---- --- --- ------ -- --------<br>---- --------- --- ------- ------------ ---------- ---------<br>--- ---------- ------- ---------- ------- -- -------- This<br>---- --- ------ ----- ------ -- ---- --- ----- -- - -------<br>-------- -- --- --- -- ----- ----------- ----- -----------<br>---- --- ---------- --- ---- --- -- ----------,260959.19999998296,260956.38499999768,260437.65,260446.62000000244,260454.351,260972.082,,24,This
screen,html.Screen,1_3_1_0_1_25,2021-04-22T21:25:34.466Z,,,,,,,,,,,,,,,,51,,,,,,,,,,,,,,552.4229999794043,,response,,,,13,E,,,,,,Space,keypress(Space),,,,lyrical,,,,-------- -------- --- --- ---- --- --- ------ -- --------<br>---- --------- --- ------- ------------ ---------- ---------<br>--- ---------- ------- ---------- ------- -- -------- ----<br>week --- ------ ----- ------ -- ---- --- ----- -- - -------<br>-------- -- --- --- -- ----- ----------- ----- -----------<br>---- --- ---------- --- ---- --- -- ----------,261527.60499998112,261524.5049999794,260955.381,260959.34999999008,260972.082,261539.916,,25,week
screen,html.Screen,1_3_1_0_1_26,2021-04-22T21:25:35.035Z,,,,,,,,,,,,,,,,51,,,,,,,,,,,,,,552.5289999874949,,response,,,,13,E,,,,,,Space,keypress(Space),,,,lyrical,,,,-------- -------- --- --- ---- --- --- ------ -- --------<br>---- --------- --- ------- ------------ ---------- ---------<br>--- ---------- ------- ---------- ------- -- -------- ----<br>---- the ------ ----- ------ -- ---- --- ----- -- - -------<br>-------- -- --- --- -- ----- ----------- ----- -----------<br>---- --- ---------- --- ---- --- -- ----------,262096.04999999283,262092.4449999875,261523.215,261527.81499997946,261539.916,262107.75,,26,the
screen,html.Screen,1_3_1_0_1_27,2021-04-22T21:25:36.163Z,,,,,,,,,,,,,,,,51,,,,,,,,,,,,,,1112.7550000047777,,response,,,,13,E,,,,,,Space,keypress(Space),,,,lyrical,,,,-------- -------- --- --- ---- --- --- ------ -- --------<br>---- --------- --- ------- ------------ ---------- ---------<br>--- ---------- ------- ---------- ------- -- -------- ----<br>---- --- Senate ----- ------ -- ---- --- ----- -- - -------<br>-------- -- --- --- -- ----- ----------- ----- -----------<br>---- --- ---------- --- ---- --- -- ----------,263224.35000000405,263220.5050000048,262091.049,262096.23500000453,262107.75,263227.753,,27,Senate
screen,html.Screen,1_3_1_0_1_28,2021-04-22T21:25:36.714Z,,,,,,,,,,,,,,,,51,,,,,,,,,,,,,,544.6519999960437,,response,,,,13,E,,,,,,Space,keypress(Space),,,,lyrical,,,,-------- -------- --- --- ---- --- --- ------ -- --------<br>---- --------- --- ------- ------------ ---------- ---------<br>--- ---------- ------- ---------- ------- -- -------- ----<br>---- --- ------ seems ------ -- ---- --- ----- -- - -------<br>-------- -- --- --- -- ----- ----------- ----- -----------<br>---- --- ---------- --- ---- --- -- ----------,263775.3349999839,263772.40499999607,263211.052,263224.54999998445,263227.753,263778.886,,28,seems
screen,html.Screen,1_3_1_0_1_29,2021-04-22T21:25:37.314Z,,,,,,,,,,,,,,,,51,,,,,,,,,,,,,,593.6089999887045,,response,,,,13,E,,,,,,Space,keypress(Space),,,,lyrical,,,,-------- -------- --- --- ---- --- --- ------ -- --------<br>---- --------- --- ------- ------------ ---------- ---------<br>--- ---------- ------- ---------- ------- -- -------- ----<br>---- --- ------ ----- poised -- ---- --- ----- -- - -------<br>-------- -- --- --- -- ----- ----------- ----- -----------<br>---- --- ---------- --- ---- --- -- ----------,264375.5949999904,264372.4949999887,263762.185,263775.60500000254,263778.886,264380.122,,29,poised
screen,html.Screen,1_3_1_0_1_30,2021-04-22T21:25:37.810Z,,,,,,,,,,,,,,,,51,,,,,,,,,,,,,,488.3880000002682,,response,,,,13,E,,,,,,Space,keypress(Space),,,,lyrical,,,,-------- -------- --- --- ---- --- --- ------ -- --------<br>---- --------- --- ------- ------------ ---------- ---------<br>--- ---------- ------- ---------- ------- -- -------- ----<br>---- --- ------ ----- ------ to ---- --- ----- -- - -------<br>-------- -- --- --- -- ----- ----------- ----- -----------<br>---- --- ---------- --- ---- --- -- ----------,264871.3149999967,264868.51000000024,264363.421,264375.75999999535,264380.122,264881.152,,30,to
screen,html.Screen,1_3_1_0_1_31,2021-04-22T21:25:38.355Z,,,,,,,,,,,,,,,,51,,,,,,,,,,,,,,531.363000003621,,response,,,,13,E,,,,,,Space,keypress(Space),,,,lyrical,,,,-------- -------- --- --- ---- --- --- ------ -- --------<br>---- --------- --- ------- ------------ ---------- ---------<br>--- ---------- ------- ---------- ------- -- -------- ----<br>---- --- ------ ----- ------ -- join --- ----- -- - -------<br>-------- -- --- --- -- ----- ----------- ----- -----------<br>---- --- ---------- --- ---- --- -- ----------,265416.035000002,265412.5150000036,264864.451,264871.4650000038,264881.152,265432.285,,31,join
screen,html.Screen,1_3_1_0_1_32,2021-04-22T21:25:39.042Z,,,,,,,,,,,,,,,,51,,,,,,,,,,,,,,668.204999982554,,response,,,,13,E,,,,,,Space,keypress(Space),,,,lyrical,,,,-------- -------- --- --- ---- --- --- ------ -- --------<br>---- --------- --- ------- ------------ ---------- ---------<br>--- ---------- ------- ---------- ------- -- -------- ----<br>---- --- ------ ----- ------ -- ---- the ----- -- - -------<br>-------- -- --- --- -- ----- ----------- ----- -----------<br>---- --- ---------- --- ---- --- -- ----------,266103.77499999595,266100.4899999825,265415.584,265416.2199999846,265432.285,266117.026,,32,the
screen,html.Screen,1_3_1_0_1_33,2021-04-22T21:25:39.818Z,,,,,,,,,,,,,,,,51,,,,,,,,,,,,,,759.4939999906928,,response,,,,13,E,,,,,,Space,keypress(Space),,,,lyrical,,,,-------- -------- --- --- ---- --- --- ------ -- --------<br>---- --------- --- ------- ------------ ---------- ---------<br>--- ---------- ------- ---------- ------- -- -------- ----<br>---- --- ------ ----- ------ -- ---- --- House -- - -------<br>-------- -- --- --- -- ----- ----------- ----- -----------<br>---- --- ---------- --- ---- --- -- ----------,266879.3350000051,266876.5199999907,266100.325,266104.0149999899,266117.026,266885.272,,33,House
screen,html.Screen,1_3_1_0_1_34,2021-04-22T21:25:40.395Z,,,,,,,,,,,,,,,,51,,,,,,,,,,,,,,567.2380000028061,,response,,,,13,E,,,,,,Space,keypress(Space),,,,lyrical,,,,-------- -------- --- --- ---- --- --- ------ -- --------<br>---- --------- --- ------- ------------ ---------- ---------<br>--- ---------- ------- ---------- ------- -- -------- ----<br>---- --- ------ ----- ------ -- ---- --- ----- in - -------<br>-------- -- --- --- -- ----- ----------- ----- -----------<br>---- --- ---------- --- ---- --- -- ----------,267456.2250000017,267452.5100000028,266868.571,266879.4899999921,266885.272,267469.807,,34,in
screen,html.Screen,1_3_1_0_1_35,2021-04-22T21:25:40.930Z,,,,,,,,,,,,,,,,51,,,,,,,,,,,,,,518.7479999890202,,response,,,,13,E,,,,,,Space,keypress(Space),,,,lyrical,,,,-------- -------- --- --- ---- --- --- ------ -- --------<br>---- --------- --- ------- ------------ ---------- ---------<br>--- ---------- ------- ---------- ------- -- -------- ----<br>---- --- ------ ----- ------ -- ---- --- ----- -- a -------<br>-------- -- --- --- -- ----- ----------- ----- -----------<br>---- --- ---------- --- ---- --- -- ----------,267991.4399999834,267988.554999989,267453.106,267456.5049999801,267469.807,268004.239,,35,a
screen,html.Screen,1_3_1_0_1_36,2021-04-22T21:25:41.553Z,,,,,,,,,,,,,,,,51,,,,,,,,,,,,,,608.1609999836073,,response,,,,13,E,,,,,,Space,keypress(Space),,,,lyrical,,,,-------- -------- --- --- ---- --- --- ------ -- --------<br>---- --------- --- ------- ------------ ---------- ---------<br>--- ---------- ------- ---------- ------- -- -------- ----<br>---- --- ------ ----- ------ -- ---- --- ----- -- - massive<br>-------- -- --- --- -- ----- ----------- ----- -----------<br>---- --- ---------- --- ---- --- -- ----------,268614.87999997917,268612.3999999836,267987.538,267991.64999998175,268004.239,268622.176,,36,massive
screen,html.Screen,1_3_1_0_1_37,2021-04-22T21:25:42.426Z,,,,,,,,,,,,,,,,51,,,,,,,,,,,,,,862.3389999892097,,response,,,,13,E,,,,,,Space,keypress(Space),,,,lyrical,,,,-------- -------- --- --- ---- --- --- ------ -- --------<br>---- --------- --- ------- ------------ ---------- ---------<br>--- ---------- ------- ---------- ------- -- -------- ----<br>---- --- ------ ----- ------ -- ---- --- ----- -- - -------<br>overhaul -- --- --- -- ----- ----------- ----- -----------<br>---- --- ---------- --- ---- --- -- ----------,269488.0349999876,269484.5149999892,268605.475,268615.04999999306,268622.176,269490.628,,37,overhaul
