sender,sender_type,sender_id,timestamp,meta,,Blues,Classical,Country,Dance,Electronic,Folk,Gospel,Hip-Hop,Jazz,Latin,Musical/Film,New-age,Pop,Provo_ID,R&B,Rap,Reggae,Religious,Rock,Soul,Swing,Traditional,age,artist_name,correct,correctResponse,distraction,duration,education,ended_on,familiarity,gender,headphone_check_performance,item,list,music_frequency,offensiveness,pleasantness,position_correct,preference,response,response_action,snippet_file,song_name,song_rating,sound,stimulus_1,stimulus_2,stimulus_3,text,time_commit,time_end,time_render,time_run,time_show,time_switch,url,word,word_ID
Introduction,html.Screen,0_0,2021-04-14T19:31:35.351Z,"{""labjs_version"":""20.2.2"",""labjs_build"":{""flavor"":""production"",""commit"":""a25486e0c714a0ae2ce03ff94b7bb6896854dcfa""},""location"":""https://run.pavlovia.org/mvasilev/music_b/"",""userAgent"":""Mozilla/5.0 (Macintosh; Intel Mac OS X 10_15_6) AppleWebKit/605.1.15 (KHTML, like Gecko) Version/14.0.2 Safari/605.1.15"",""platform"":""MacIntel"",""language"":""en-gb"",""locale"":""en-GB"",""timeZone"":""Europe/London"",""timezoneOffset"":-60,""screen_width"":1440,""screen_height"":900,""scroll_width"":1440,""scroll_height"":772,""window_innerWidth"":1440,""window_innerHeight"":820,""devicePixelRatio"":2}",,,,,,,,,,,,,,,,,,,,,,,,,,,,,5218,,response,,,,,,,,,,,continue,click button,,,,,,,,,9413,9410,4192,4168,4209,9437,{},,
Volume calibration,html.Screen,0_1,2021-04-14T19:31:52.611Z,,,,,,,,,,,,,,,,,,,,,,,,,,,,,,17250,,response,,,,,,,,,,,continue,click button,,,,,,,,,26674,26671,9421,9414,9437,26703,,,
Task instructions,html.Screen,0_2,2021-04-14T19:32:10.575Z,,,,,,,,,,,,,,,,,,,,,,,,,,,,,,17951,,response,,,,,,,,,,,continue,click button,,,,,,,,,44638,44637,26686,26674,26703,44664,,,
Sounds,html.Screen,0_3_0_0,2021-04-14T19:32:14.817Z,,,,,,,,,,,,,,,,,,,,,,,,,,,,,,4240,,timeout,,,,,,,,,2,,,,,,,,I,S,O,,48880,48880,44646,44639,44664,48904,,,
Judgement,html.Screen,0_3_0_1,2021-04-14T19:32:15.814Z,,,,,,,,,,,,,,,,,,,,,,,,,,,true,2,,997,,response,,,,,,,,,2,,2,click #choice-2,,,,,I,S,O,,49877,49877,48880,48880,48904,49909,,,
Trial,flow.Sequence,0_3_0,2021-04-14T19:32:15.814Z,,,,,,,,,,,,,,,,,,,,,,,,,,,,,,5213,,completion,,,,,,,,,2,,,,,,,,I,S,O,,49878,49877,44646,44639,44664,49909,,,
Sounds,html.Screen,0_3_1_0,2021-04-14T19:32:20.079Z,,,,,,,,,,,,,,,,,,,,,,,,,,,,,,4254,,timeout,,,,,,,,,1,,,,,,,,S,O,I,,54142,54142,49893,49878,49909,54163,,,
Judgement,html.Screen,0_3_1_1,2021-04-14T19:32:20.724Z,,,,,,,,,,,,,,,,,,,,,,,,,,,true,1,,645,,response,,,,,,,,,1,,1,click #choice-1,,,,,S,O,I,,54787,54787,54142,54143,54163,54807,,,
Trial,flow.Sequence,0_3_1,2021-04-14T19:32:20.724Z,,,,,,,,,,,,,,,,,,,,,,,,,,,,,,4878,,completion,,,,,,,,,1,,,,,,,,S,O,I,,54787,54787,49893,49878,49909,54807,,,
Sounds,html.Screen,0_3_2_0,2021-04-14T19:32:24.966Z,,,,,,,,,,,,,,,,,,,,,,,,,,,,,,4245,,timeout,,,,,,,,,2,,,,,,,,O,S,I,,59030,59029,54790,54788.00000000001,54807,59052,,,
Judgement,html.Screen,0_3_2_1,2021-04-14T19:32:25.586Z,,,,,,,,,,,,,,,,,,,,,,,,,,,true,2,,621,,response,,,,,,,,,2,,2,click #choice-2,,,,,O,S,I,,59650,59650,59029,59030,59052,59679,,,
Trial,flow.Sequence,0_3_2,2021-04-14T19:32:25.586Z,,,,,,,,,,,,,,,,,,,,,,,,,,,,,,4843,,completion,,,,,,,,,2,,,,,,,,O,S,I,,59650,59650,54790,54788.00000000001,54807,59679,,,
Sounds,html.Screen,0_3_3_0,2021-04-14T19:32:29.846Z,,,,,,,,,,,,,,,,,,,,,,,,,,,,,,4247,,timeout,,,,,,,,,3,,,,,,,,O,I,S,,63910.00000000001,63910,59662,59650,59679,63926,,,
Judgement,html.Screen,0_3_3_1,2021-04-14T19:32:30.255Z,,,,,,,,,,,,,,,,,,,,,,,,,,,true,3,,409,,response,,,,,,,,,3,,3,click #choice-3,,,,,O,I,S,,64319,64319,63910,63910.00000000001,63926,64340,,,
Trial,flow.Sequence,0_3_3,2021-04-14T19:32:30.255Z,,,,,,,,,,,,,,,,,,,,,,,,,,,,,,4640,,completion,,,,,,,,,3,,,,,,,,O,I,S,,64319,64319,59662,59650,59679,64340,,,
Sounds,html.Screen,0_3_4_0,2021-04-14T19:32:34.508Z,,,,,,,,,,,,,,,,,,,,,,,,,,,,,,4249,,timeout,,,,,,,,,1,,,,,,,,S,I,O,,68572,68572,64323,64319,64340,68589,,,
Judgement,html.Screen,0_3_4_1,2021-04-14T19:32:35.091Z,,,,,,,,,,,,,,,,,,,,,,,,,,,true,1,,583,,response,,,,,,,,,1,,1,click #choice-1,,,,,S,I,O,,69155,69155,68572,68572,68589,69172,,,
Trial,flow.Sequence,0_3_4,2021-04-14T19:32:35.091Z,,,,,,,,,,,,,,,,,,,,,,,,,,,,,,4815,,completion,,,,,,,,,1,,,,,,,,S,I,O,,69155,69155,64323,64319,64340,69172,,,
Sounds,html.Screen,0_3_5_0,2021-04-14T19:32:39.348Z,,,,,,,,,,,,,,,,,,,,,,,,,,,,,,4256,,timeout,,,,,,,,,3,,,,,,,,I,O,S,,73412,73412,69156,69155,69172,73428,,,
Judgement,html.Screen,0_3_5_1,2021-04-14T19:32:39.759Z,,,,,,,,,,,,,,,,,,,,,,,,,,,true,3,,412,,response,,,,,,,,,3,,3,click #choice-3,,,,,I,O,S,,73824,73824,73412,73412,73428,73854,,,
Trial,flow.Sequence,0_3_5,2021-04-14T19:32:39.760Z,,,,,,,,,,,,,,,,,,,,,,,,,,,,,,4652,,completion,,,,,,,,,3,,,,,,,,I,O,S,,73824,73824,69156,69155,69172,73854,,,
Task,flow.Loop,0_3,2021-04-14T19:32:39.762Z,,,,,,,,,,,,,,,,,,,,,,,,,,,,,,29160,,completion,,,1,,,,,,,,,,,,,,,,,,73826.00000000001,73824,44646,44639,44664,73854,,,
Trap,html.Screen,0_4,2021-04-14T19:32:39.763Z,,,,,,,,,,,,,,,,,,,,,,,,,,,,,,NaN,,skipped,,,,,,,,,,,,,,,,,,,,,73827,73824,,73827,,73854,,,
Thanks,html.Screen,0_5,2021-04-14T19:32:44.016Z,,,,,,,,,,,,,,,,,,,,,,,,,,,,,,4244,,response,,,,,,,,,,,continue,click button,,,,,,,,,78080,78081,73837,73827,73854,82241,,,
Headphone screening,flow.Sequence,0,2021-04-14T19:32:44.016Z,,,,,,,,,,,,,,,,,,,,,,,,,,,,,,73872,,completion,,,,,,,,,,,,,,,,,,,,,78081,78081,4192,4167,4209,82241,,,
Instructions,html.Page,1_0,2021-04-14T19:33:13.059Z,,,,,,,,,,,,,,,,,,,,,,,,,,,,,,24883,,form submission,,,,,,,,,,,,,,,,,,,,,107125,107124,82225,82206,82241,107158,,,
Holding screen,html.Screen,1_1_0_0,2021-04-14T19:33:23.083Z,,,,,,,,,,,,,,,,,,,,,,,,,,,,,,10018,,timeout,,,,,,,,,,,,,,,,,,,,,117149,117148,107141,107125,107158,117176,,,
screen,html.Screen,1_1_0_1_0,2021-04-14T19:33:24.226Z,,,,,,,,,,,,,,,,53,,,,,,,,,,,,,,1143,,response,,,,99,,,,,,,Space,keypress(Space),,,,,,,,When -- ----- -- ------ - ------- --- ----------<br>------------- ------ ------ ---- ---- ------- ----- -- ----<br>-------- ------- -- ---------- --- - --- ----- ----- ----<br>---- --- --- ----- --- ---- ---- ------- ----- ---- -------<br>--- --- -- ----- -- --- ---- -- --- ---- -- ------ ------<br>--- ----- -- ----,118292,118291,117148,117149,117176,118319,,0,When
screen,html.Screen,1_1_0_1_1,2021-04-14T19:33:24.789Z,,,,,,,,,,,,,,,,53,,,,,,,,,,,,,,553,,response,,,,99,,,,,,,Space,keypress(Space),,,,,,,,---- it ----- -- ------ - ------- --- ----------<br>------------- ------ ------ ---- ---- ------- ----- -- ----<br>-------- ------- -- ---------- --- - --- ----- ----- ----<br>---- --- --- ----- --- ---- ---- ------- ----- ---- -------<br>--- --- -- ----- -- --- ---- -- --- ---- -- ------ ------<br>--- ----- -- ----,118855,118855,118302,118292,118319,118890,,1,it
screen,html.Screen,1_1_0_1_2,2021-04-14T19:33:25.320Z,,,,,,,,,,,,,,,,53,,,,,,,,,,,,,,512,,response,,,,99,,,,,,,Space,keypress(Space),,,,,,,,---- -- comes -- ------ - ------- --- ----------<br>------------- ------ ------ ---- ---- ------- ----- -- ----<br>-------- ------- -- ---------- --- - --- ----- ----- ----<br>---- --- --- ----- --- ---- ---- ------- ----- ---- -------<br>--- --- -- ----- -- --- ---- -- --- ---- -- ------ ------<br>--- ----- -- ----,119386,119386,118874,118855,118890,119429,,2,comes
screen,html.Screen,1_1_0_1_3,2021-04-14T19:33:25.746Z,,,,,,,,,,,,,,,,53,,,,,,,,,,,,,,400,,response,,,,99,,,,,,,Space,keypress(Space),,,,,,,,---- -- ----- to ------ - ------- --- ----------<br>------------- ------ ------ ---- ---- ------- ----- -- ----<br>-------- ------- -- ---------- --- - --- ----- ----- ----<br>---- --- --- ----- --- ---- ---- ------- ----- ---- -------<br>--- --- -- ----- -- --- ---- -- --- ---- -- ------ ------<br>--- ----- -- ----,119812,119812,119412,119386,119429,119850,,3,to
screen,html.Screen,1_1_0_1_4,2021-04-14T19:33:26.199Z,,,,,,,,,,,,,,,,53,,,,,,,,,,,,,,431,,response,,,,99,,,,,,,Space,keypress(Space),,,,,,,,---- -- ----- -- having - ------- --- ----------<br>------------- ------ ------ ---- ---- ------- ----- -- ----<br>-------- ------- -- ---------- --- - --- ----- ----- ----<br>---- --- --- ----- --- ---- ---- ------- ----- ---- -------<br>--- --- -- ----- -- --- ---- -- --- ---- -- ------ ------<br>--- ----- -- ----,120265,120265,119834,119812,119850,120305,,4,having
screen,html.Screen,1_1_0_1_5,2021-04-14T19:33:26.618Z,,,,,,,,,,,,,,,,53,,,,,,,,,,,,,,395,,response,,,,99,,,,,,,Space,keypress(Space),,,,,,,,---- -- ----- -- ------ a ------- --- ----------<br>------------- ------ ------ ---- ---- ------- ----- -- ----<br>-------- ------- -- ---------- --- - --- ----- ----- ----<br>---- --- --- ----- --- ---- ---- ------- ----- ---- -------<br>--- --- -- ----- -- --- ---- -- --- ---- -- ------ ------<br>--- ----- -- ----,120683,120683,120288,120265,120305,120726,,5,a
screen,html.Screen,1_1_0_1_6,2021-04-14T19:33:27.059Z,,,,,,,,,,,,,,,,53,,,,,,,,,,,,,,416,,response,,,,99,,,,,,,Space,keypress(Space),,,,,,,,---- -- ----- -- ------ - lasting --- ----------<br>------------- ------ ------ ---- ---- ------- ----- -- ----<br>-------- ------- -- ---------- --- - --- ----- ----- ----<br>---- --- --- ----- --- ---- ---- ------- ----- ---- -------<br>--- --- -- ----- -- --- ---- -- --- ---- -- ------ ------<br>--- ----- -- ----,121125,121125,120709,120683,120726,121165,,6,lasting
screen,html.Screen,1_1_0_1_7,2021-04-14T19:33:27.680Z,,,,,,,,,,,,,,,,53,,,,,,,,,,,,,,597,,response,,,,99,,,,,,,Space,keypress(Space),,,,,,,,---- -- ----- -- ------ - ------- and ----------<br>------------- ------ ------ ---- ---- ------- ----- -- ----<br>-------- ------- -- ---------- --- - --- ----- ----- ----<br>---- --- --- ----- --- ---- ---- ------- ----- ---- -------<br>--- --- -- ----- -- --- ---- -- --- ---- -- ------ ------<br>--- ----- -- ----,121745,121745,121148,121125,121165,121785,,7,and
screen,html.Screen,1_1_0_1_8,2021-04-14T19:33:28.375Z,,,,,,,,,,,,,,,,53,,,,,,,,,,,,,,672,,response,,,,99,,,,,,,Space,keypress(Space),,,,,,,,---- -- ----- -- ------ - ------- --- fulfilling<br>------------- ------ ------ ---- ---- ------- ----- -- ----<br>-------- ------- -- ---------- --- - --- ----- ----- ----<br>---- --- --- ----- --- ---- ---- ------- ----- ---- -------<br>--- --- -- ----- -- --- ---- -- --- ---- -- ------ ------<br>--- ----- -- ----,122441,122441,121769,121745,121785,122473,,8,fulfilling
screen,html.Screen,1_1_0_1_9,2021-04-14T19:33:29.588Z,,,,,,,,,,,,,,,,53,,,,,,,,,,,,,,1197,,response,,,,99,,,,,,,Space,keypress(Space),,,,,,,,"---- -- ----- -- ------ - ------- --- ----------<br>relationship, ------ ------ ---- ---- ------- ----- -- ----<br>-------- ------- -- ---------- --- - --- ----- ----- ----<br>---- --- --- ----- --- ---- ---- ------- ----- ---- -------<br>--- --- -- ----- -- --- ---- -- --- ---- -- ------ ------<br>--- ----- -- ----",123654,123654,122457,122441,122473,123695,,9,"relationship,"
screen,html.Screen,1_1_0_1_10,2021-04-14T19:33:30.427Z,,,,,,,,,,,,,,,,53,,,,,,,,,,,,,,814.0000000000146,,response,,,,99,,,,,,,Space,keypress(Space),,,,,,,,---- -- ----- -- ------ - ------- --- ----------<br>------------- common ------ ---- ---- ------- ----- -- ----<br>-------- ------- -- ---------- --- - --- ----- ----- ----<br>---- --- --- ----- --- ---- ---- ------- ----- ---- -------<br>--- --- -- ----- -- --- ---- -- --- ---- -- ------ ------<br>--- ----- -- ----,124493.00000000001,124493.00000000001,123679,123654,123695,124534,,10,common
screen,html.Screen,1_1_0_1_11,2021-04-14T19:33:31.023Z,,,,,,,,,,,,,,,,53,,,,,,,,,,,,,,572,,response,,,,99,,,,,,,Space,keypress(Space),,,,,,,,---- -- ----- -- ------ - ------- --- ----------<br>------------- ------ wisdom ---- ---- ------- ----- -- ----<br>-------- ------- -- ---------- --- - --- ----- ----- ----<br>---- --- --- ----- --- ---- ---- ------- ----- ---- -------<br>--- --- -- ----- -- --- ---- -- --- ---- -- ------ ------<br>--- ----- -- ----,125089,125089,124517,124493.00000000001,124534,125122,,11,wisdom
screen,html.Screen,1_1_0_1_12,2021-04-14T19:33:31.537Z,,,,,,,,,,,,,,,,53,,,,,,,,,,,,,,497.00000000001455,,response,,,,99,,,,,,,Space,keypress(Space),,,,,,,,---- -- ----- -- ------ - ------- --- ----------<br>------------- ------ ------ says ---- ------- ----- -- ----<br>-------- ------- -- ---------- --- - --- ----- ----- ----<br>---- --- --- ----- --- ---- ---- ------- ----- ---- -------<br>--- --- -- ----- -- --- ---- -- --- ---- -- ------ ------<br>--- ----- -- ----,125602,125603.00000000001,125106,125089,125122,125644,,12,says
screen,html.Screen,1_1_0_1_13,2021-04-14T19:33:32.044Z,,,,,,,,,,,,,,,,53,,,,,,,,,,,,,,482,,response,,,,99,,,,,,,Space,keypress(Space),,,,,,,,---- -- ----- -- ------ - ------- --- ----------<br>------------- ------ ------ ---- that ------- ----- -- ----<br>-------- ------- -- ---------- --- - --- ----- ----- ----<br>---- --- --- ----- --- ---- ---- ------- ----- ---- -------<br>--- --- -- ----- -- --- ---- -- --- ---- -- ------ ------<br>--- ----- -- ----,126110,126110,125628,125603.00000000001,125644,126149,,13,that
screen,html.Screen,1_1_0_1_14,2021-04-14T19:33:32.704Z,,,,,,,,,,,,,,,,53,,,,,,,,,,,,,,637,,response,,,,99,,,,,,,Space,keypress(Space),,,,,,,,---- -- ----- -- ------ - ------- --- ----------<br>------------- ------ ------ ---- ---- feeling ----- -- ----<br>-------- ------- -- ---------- --- - --- ----- ----- ----<br>---- --- --- ----- --- ---- ---- ------- ----- ---- -------<br>--- --- -- ----- -- --- ---- -- --- ---- -- ------ ------<br>--- ----- -- ----,126770,126770,126133,126110,126149,126804,,14,feeling
screen,html.Screen,1_1_0_1_15,2021-04-14T19:33:33.387Z,,,,,,,,,,,,,,,,53,,,,,,,,,,,,,,665,,response,,,,99,,,,,,,Space,keypress(Space),,,,,,,,---- -- ----- -- ------ - ------- --- ----------<br>------------- ------ ------ ---- ---- ------- close -- ----<br>-------- ------- -- ---------- --- - --- ----- ----- ----<br>---- --- --- ----- --- ---- ---- ------- ----- ---- -------<br>--- --- -- ----- -- --- ---- -- --- ---- -- ------ ------<br>--- ----- -- ----,127453,127453,126788,126770,126804,127493,,15,close
screen,html.Screen,1_1_0_1_16,2021-04-14T19:33:33.843Z,,,,,,,,,,,,,,,,53,,,,,,,,,,,,,,433,,response,,,,99,,,,,,,Space,keypress(Space),,,,,,,,---- -- ----- -- ------ - ------- --- ----------<br>------------- ------ ------ ---- ---- ------- ----- to ----<br>-------- ------- -- ---------- --- - --- ----- ----- ----<br>---- --- --- ----- --- ---- ---- ------- ----- ---- -------<br>--- --- -- ----- -- --- ---- -- --- ---- -- ------ ------<br>--- ----- -- ----,127909,127909,127476,127453,127493,127948,,16,to
screen,html.Screen,1_1_0_1_17,2021-04-14T19:33:34.496Z,,,,,,,,,,,,,,,,53,,,,,,,,,,,,,,630.0000000000146,,response,,,,99,,,,,,,Space,keypress(Space),,,,,,,,---- -- ----- -- ------ - ------- --- ----------<br>------------- ------ ------ ---- ---- ------- ----- -- your<br>-------- ------- -- ---------- --- - --- ----- ----- ----<br>---- --- --- ----- --- ---- ---- ------- ----- ---- -------<br>--- --- -- ----- -- --- ---- -- --- ---- -- ------ ------<br>--- ----- -- ----,128562.00000000001,128562.00000000001,127932,127909,127948,128602,,17,your
screen,html.Screen,1_1_0_1_18,2021-04-14T19:33:35.133Z,,,,,,,,,,,,,,,,53,,,,,,,,,,,,,,613.9999999999854,,response,,,,99,,,,,,,Space,keypress(Space),,,,,,,,---- -- ----- -- ------ - ------- --- ----------<br>------------- ------ ------ ---- ---- ------- ----- -- ----<br>romantic ------- -- ---------- --- - --- ----- ----- ----<br>---- --- --- ----- --- ---- ---- ------- ----- ---- -------<br>--- --- -- ----- -- --- ---- -- --- ---- -- ------ ------<br>--- ----- -- ----,129199.00000000001,129199.99999999999,128586,128562.00000000001,128602,129242,,18,romantic
screen,html.Screen,1_1_0_1_19,2021-04-14T19:33:35.774Z,,,,,,,,,,,,,,,,53,,,,,,,,,,,,,,616,,response,,,,99,,,,,,,Space,keypress(Space),,,,,,,,---- -- ----- -- ------ - ------- --- ----------<br>------------- ------ ------ ---- ---- ------- ----- -- ----<br>-------- partner -- ---------- --- - --- ----- ----- ----<br>---- --- --- ----- --- ---- ---- ------- ----- ---- -------<br>--- --- -- ----- -- --- ---- -- --- ---- -- ------ ------<br>--- ----- -- ----,129840,129840,129224,129199.00000000001,129242,129879,,19,partner
screen,html.Screen,1_1_0_1_20,2021-04-14T19:33:36.171Z,,,,,,,,,,,,,,,,53,,,,,,,,,,,,,,374,,response,,,,99,,,,,,,Space,keypress(Space),,,,,,,,---- -- ----- -- ------ - ------- --- ----------<br>------------- ------ ------ ---- ---- ------- ----- -- ----<br>-------- ------- is ---------- --- - --- ----- ----- ----<br>---- --- --- ----- --- ---- ---- ------- ----- ---- -------<br>--- --- -- ----- -- --- ---- -- --- ---- -- ------ ------<br>--- ----- -- ----,130237,130237,129863,129840,129879,130268,,20,is
screen,html.Screen,1_1_0_1_21,2021-04-14T19:33:37.601Z,,,,,,,,,,,,,,,,53,,,,,,,,,,,,,,1415,,response,,,,99,,,,,,,Space,keypress(Space),,,,,,,,---- -- ----- -- ------ - ------- --- ----------<br>------------- ------ ------ ---- ---- ------- ----- -- ----<br>-------- ------- -- paramount. --- - --- ----- ----- ----<br>---- --- --- ----- --- ---- ---- ------- ----- ---- -------<br>--- --- -- ----- -- --- ---- -- --- ---- -- ------ ------<br>--- ----- -- ----,131667,131667,130252,130237,130268,131706,,21,paramount.
screen,html.Screen,1_1_0_1_22,2021-04-14T19:33:38.393Z,,,,,,,,,,,,,,,,53,,,,,,,,,,,,,,770,,response,,,,99,,,,,,,Space,keypress(Space),,,,,,,,---- -- ----- -- ------ - ------- --- ----------<br>------------- ------ ------ ---- ---- ------- ----- -- ----<br>-------- ------- -- ---------- But - --- ----- ----- ----<br>---- --- --- ----- --- ---- ---- ------- ----- ---- -------<br>--- --- -- ----- -- --- ---- -- --- ---- -- ------ ------<br>--- ----- -- ----,132459,132460,131690,131667,131706,132495,,22,But
screen,html.Screen,1_1_0_1_23,2021-04-14T19:33:38.946Z,,,,,,,,,,,,,,,,53,,,,,,,,,,,,,,534,,response,,,,99,,,,,,,Space,keypress(Space),,,,,,,,---- -- ----- -- ------ - ------- --- ----------<br>------------- ------ ------ ---- ---- ------- ----- -- ----<br>-------- ------- -- ---------- --- a --- ----- ----- ----<br>---- --- --- ----- --- ---- ---- ------- ----- ---- -------<br>--- --- -- ----- -- --- ---- -- --- ---- -- ------ ------<br>--- ----- -- ----,133012,133012,132478,132459,132495,133050,,23,a
screen,html.Screen,1_1_0_1_24,2021-04-14T19:33:39.586Z,,,,,,,,,,,,,,,,53,,,,,,,,,,,,,,619.0000000000291,,response,,,,99,,,,,,,Space,keypress(Space),,,,,,,,---- -- ----- -- ------ - ------- --- ----------<br>------------- ------ ------ ---- ---- ------- ----- -- ----<br>-------- ------- -- ---------- --- - new ----- ----- ----<br>---- --- --- ----- --- ---- ---- ------- ----- ---- -------<br>--- --- -- ----- -- --- ---- -- --- ---- -- ------ ------<br>--- ----- -- ----,133651,133652.00000000003,133033,133012,133050,133687,,24,new
screen,html.Screen,1_1_0_1_25,2021-04-14T19:33:40.136Z,,,,,,,,,,,,,,,,53,,,,,,,,,,,,,,531,,response,,,,99,,,,,,,Space,keypress(Space),,,,,,,,---- -- ----- -- ------ - ------- --- ----------<br>------------- ------ ------ ---- ---- ------- ----- -- ----<br>-------- ------- -- ---------- --- - --- study ----- ----<br>---- --- --- ----- --- ---- ---- ------- ----- ---- -------<br>--- --- -- ----- -- --- ---- -- --- ---- -- ------ ------<br>--- ----- -- ----,134202,134202,133671,133652.00000000003,133687,134242,,25,study
screen,html.Screen,1_1_0_1_26,2021-04-14T19:33:40.644Z,,,,,,,,,,,,,,,,53,,,,,,,,,,,,,,485,,response,,,,99,,,,,,,Space,keypress(Space),,,,,,,,---- -- ----- -- ------ - ------- --- ----------<br>------------- ------ ------ ---- ---- ------- ----- -- ----<br>-------- ------- -- ---------- --- - --- ----- finds ----<br>---- --- --- ----- --- ---- ---- ------- ----- ---- -------<br>--- --- -- ----- -- --- ---- -- --- ---- -- ------ ------<br>--- ----- -- ----,134710,134711,134226,134202,134242,134748,,26,finds
screen,html.Screen,1_1_0_1_27,2021-04-14T19:33:41.105Z,,,,,,,,,,,,,,,,53,,,,,,,,,,,,,,441,,response,,,,99,,,,,,,Space,keypress(Space),,,,,,,,---- -- ----- -- ------ - ------- --- ----------<br>------------- ------ ------ ---- ---- ------- ----- -- ----<br>-------- ------- -- ---------- --- - --- ----- ----- that<br>---- --- --- ----- --- ---- ---- ------- ----- ---- -------<br>--- --- -- ----- -- --- ---- -- --- ---- -- ------ ------<br>--- ----- -- ----,135171,135172,134731,134710,134748,135203,,27,that
screen,html.Screen,1_1_0_1_28,2021-04-14T19:33:41.579Z,,,,,,,,,,,,,,,,53,,,,,,,,,,,,,,460.0000000000291,,response,,,,99,,,,,,,Space,keypress(Space),,,,,,,,---- -- ----- -- ------ - ------- --- ----------<br>------------- ------ ------ ---- ---- ------- ----- -- ----<br>-------- ------- -- ---------- --- - --- ----- ----- ----<br>it's --- --- ----- --- ---- ---- ------- ----- ---- -------<br>--- --- -- ----- -- --- ---- -- --- ---- -- ------ ------<br>--- ----- -- ----,135645,135646.00000000003,135186,135172,135203,135674,,28,it's
screen,html.Screen,1_1_0_1_29,2021-04-14T19:33:42.053Z,,,,,,,,,,,,,,,,53,,,,,,,,,,,,,,463,,response,,,,99,,,,,,,Space,keypress(Space),,,,,,,,---- -- ----- -- ------ - ------- --- ----------<br>------------- ------ ------ ---- ---- ------- ----- -- ----<br>-------- ------- -- ---------- --- - --- ----- ----- ----<br>---- not --- ----- --- ---- ---- ------- ----- ---- -------<br>--- --- -- ----- -- --- ---- -- --- ---- -- ------ ------<br>--- ----- -- ----,136119,136120,135657,135645,135674,136161,,29,not
screen,html.Screen,1_1_0_1_30,2021-04-14T19:33:42.643Z,,,,,,,,,,,,,,,,53,,,,,,,,,,,,,,564,,response,,,,99,,,,,,,Space,keypress(Space),,,,,,,,---- -- ----- -- ------ - ------- --- ----------<br>------------- ------ ------ ---- ---- ------- ----- -- ----<br>-------- ------- -- ---------- --- - --- ----- ----- ----<br>---- --- how ----- --- ---- ---- ------- ----- ---- -------<br>--- --- -- ----- -- --- ---- -- --- ---- -- ------ ------<br>--- ----- -- ----,136709,136710,136146,136119,136161,136749,,30,how
screen,html.Screen,1_1_0_1_31,2021-04-14T19:33:43.197Z,,,,,,,,,,,,,,,,53,,,,,,,,,,,,,,531,,response,,,,99,,,,,,,Space,keypress(Space),,,,,,,,---- -- ----- -- ------ - ------- --- ----------<br>------------- ------ ------ ---- ---- ------- ----- -- ----<br>-------- ------- -- ---------- --- - --- ----- ----- ----<br>---- --- --- close --- ---- ---- ------- ----- ---- -------<br>--- --- -- ----- -- --- ---- -- --- ---- -- ------ ------<br>--- ----- -- ----,137263,137264,136733,136709,136749,137305,,31,close
screen,html.Screen,1_1_0_1_32,2021-04-14T19:33:43.716Z,,,,,,,,,,,,,,,,53,,,,,,,,,,,,,,495.0000000000291,,response,,,,99,,,,,,,Space,keypress(Space),,,,,,,,---- -- ----- -- ------ - ------- --- ----------<br>------------- ------ ------ ---- ---- ------- ----- -- ----<br>-------- ------- -- ---------- --- - --- ----- ----- ----<br>---- --- --- ----- you ---- ---- ------- ----- ---- -------<br>--- --- -- ----- -- --- ---- -- --- ---- -- ------ ------<br>--- ----- -- ----,137782,137783.00000000003,137288,137263,137305,137810,,32,you
screen,html.Screen,1_1_0_1_33,2021-04-14T19:33:44.297Z,,,,,,,,,,,,,,,,53,,,,,,,,,,,,,,571,,response,,,,99,,,,,,,Space,keypress(Space),,,,,,,,---- -- ----- -- ------ - ------- --- ----------<br>------------- ------ ------ ---- ---- ------- ----- -- ----<br>-------- ------- -- ---------- --- - --- ----- ----- ----<br>---- --- --- ----- --- feel ---- ------- ----- ---- -------<br>--- --- -- ----- -- --- ---- -- --- ---- -- ------ ------<br>--- ----- -- ----,138363,138364,137793,137782,137810,138397,,33,feel
screen,html.Screen,1_1_0_1_34,2021-04-14T19:33:44.895Z,,,,,,,,,,,,,,,,53,,,,,,,,,,,,,,581,,response,,,,99,,,,,,,Space,keypress(Space),,,,,,,,---- -- ----- -- ------ - ------- --- ----------<br>------------- ------ ------ ---- ---- ------- ----- -- ----<br>-------- ------- -- ---------- --- - --- ----- ----- ----<br>---- --- --- ----- --- ---- that ------- ----- ---- -------<br>--- --- -- ----- -- --- ---- -- --- ---- -- ------ ------<br>--- ----- -- ----,138961,138962,138381,138363,138397,139003,,34,that
screen,html.Screen,1_1_0_1_35,2021-04-14T19:33:45.564Z,,,,,,,,,,,,,,,,53,,,,,,,,,,,,,,645,,response,,,,99,,,,,,,Space,keypress(Space),,,,,,,,---- -- ----- -- ------ - ------- --- ----------<br>------------- ------ ------ ---- ---- ------- ----- -- ----<br>-------- ------- -- ---------- --- - --- ----- ----- ----<br>---- --- --- ----- --- ---- ---- matters ----- ---- -------<br>--- --- -- ----- -- --- ---- -- --- ---- -- ------ ------<br>--- ----- -- ----,139630,139631,138986,138962,139003,139658,,35,matters
screen,html.Screen,1_1_0_1_36,2021-04-14T19:33:46.186Z,,,,,,,,,,,,,,,,53,,,,,,,,,,,,,,612,,response,,,,99,,,,,,,Space,keypress(Space),,,,,,,,"---- -- ----- -- ------ - ------- --- ----------<br>------------- ------ ------ ---- ---- ------- ----- -- ----<br>-------- ------- -- ---------- --- - --- ----- ----- ----<br>---- --- --- ----- --- ---- ---- ------- most, ---- -------<br>--- --- -- ----- -- --- ---- -- --- ---- -- ------ ------<br>--- ----- -- ----",140252,140253,139641,139630,139658,140279,,36,"most,"
screen,html.Screen,1_1_0_1_37,2021-04-14T19:33:46.794Z,,,,,,,,,,,,,,,,53,,,,,,,,,,,,,,598,,response,,,,99,,,,,,,Space,keypress(Space),,,,,,,,---- -- ----- -- ------ - ------- --- ----------<br>------------- ------ ------ ---- ---- ------- ----- -- ----<br>-------- ------- -- ---------- --- - --- ----- ----- ----<br>---- --- --- ----- --- ---- ---- ------- ----- it's -------<br>--- --- -- ----- -- --- ---- -- --- ---- -- ------ ------<br>--- ----- -- ----,140860,140861,140263,140252,140279,140901,,37,it's
screen,html.Screen,1_1_0_1_38,2021-04-14T19:33:47.382Z,,,,,,,,,,,,,,,,53,,,,,,,,,,,,,,564,,response,,,,99,,,,,,,Space,keypress(Space),,,,,,,,---- -- ----- -- ------ - ------- --- ----------<br>------------- ------ ------ ---- ---- ------- ----- -- ----<br>-------- ------- -- ---------- --- - --- ----- ----- ----<br>---- --- --- ----- --- ---- ---- ------- ----- ---- whether<br>--- --- -- ----- -- --- ---- -- --- ---- -- ------ ------<br>--- ----- -- ----,141448,141449,140885,140860,140901,141490,,38,whether
screen,html.Screen,1_1_0_1_39,2021-04-14T19:33:47.925Z,,,,,,,,,,,,,,,,53,,,,,,,,,,,,,,519,,response,,,,99,,,,,,,Space,keypress(Space),,,,,,,,---- -- ----- -- ------ - ------- --- ----------<br>------------- ------ ------ ---- ---- ------- ----- -- ----<br>-------- ------- -- ---------- --- - --- ----- ----- ----<br>---- --- --- ----- --- ---- ---- ------- ----- ---- -------<br>you --- -- ----- -- --- ---- -- --- ---- -- ------ ------<br>--- ----- -- ----,141991,141992,141473,141448,141490,142028,,39,you
screen,html.Screen,1_1_0_1_40,2021-04-14T19:33:48.538Z,,,,,,,,,,,,,,,,53,,,,,,,,,,,,,,593,,response,,,,99,,,,,,,Space,keypress(Space),,,,,,,,---- -- ----- -- ------ - ------- --- ----------<br>------------- ------ ------ ---- ---- ------- ----- -- ----<br>-------- ------- -- ---------- --- - --- ----- ----- ----<br>---- --- --- ----- --- ---- ---- ------- ----- ---- -------<br>--- are -- ----- -- --- ---- -- --- ---- -- ------ ------<br>--- ----- -- ----,142605,142605,142012,141992,142028,142633,,40,are
screen,html.Screen,1_1_0_1_41,2021-04-14T19:33:49.121Z,,,,,,,,,,,,,,,,53,,,,,,,,,,,,,,573.0000000000291,,response,,,,99,,,,,,,Space,keypress(Space),,,,,,,,---- -- ----- -- ------ - ------- --- ----------<br>------------- ------ ------ ---- ---- ------- ----- -- ----<br>-------- ------- -- ---------- --- - --- ----- ----- ----<br>---- --- --- ----- --- ---- ---- ------- ----- ---- -------<br>--- --- as ----- -- --- ---- -- --- ---- -- ------ ------<br>--- ----- -- ----,143187,143188.00000000003,142615,142605,142633,143221,,41,as
screen,html.Screen,1_1_0_1_42,2021-04-14T19:33:49.729Z,,,,,,,,,,,,,,,,53,,,,,,,,,,,,,,591,,response,,,,99,,,,,,,Space,keypress(Space),,,,,,,,---- -- ----- -- ------ - ------- --- ----------<br>------------- ------ ------ ---- ---- ------- ----- -- ----<br>-------- ------- -- ---------- --- - --- ----- ----- ----<br>---- --- --- ----- --- ---- ---- ------- ----- ---- -------<br>--- --- -- close -- --- ---- -- --- ---- -- ------ ------<br>--- ----- -- ----,143795.00000000003,143796,143205,143187,143221,143827,,42,close
screen,html.Screen,1_1_0_1_43,2021-04-14T19:33:50.333Z,,,,,,,,,,,,,,,,53,,,,,,,,,,,,,,590,,response,,,,99,,,,,,,Space,keypress(Space),,,,,,,,---- -- ----- -- ------ - ------- --- ----------<br>------------- ------ ------ ---- ---- ------- ----- -- ----<br>-------- ------- -- ---------- --- - --- ----- ----- ----<br>---- --- --- ----- --- ---- ---- ------- ----- ---- -------<br>--- --- -- ----- as --- ---- -- --- ---- -- ------ ------<br>--- ----- -- ----,144399,144400,143810,143795.00000000003,143827,144431,,43,as
screen,html.Screen,1_1_0_1_44,2021-04-14T19:33:51.001Z,,,,,,,,,,,,,,,,53,,,,,,,,,,,,,,653,,response,,,,99,,,,,,,Space,keypress(Space),,,,,,,,---- -- ----- -- ------ - ------- --- ----------<br>------------- ------ ------ ---- ---- ------- ----- -- ----<br>-------- ------- -- ---------- --- - --- ----- ----- ----<br>---- --- --- ----- --- ---- ---- ------- ----- ---- -------<br>--- --- -- ----- -- you ---- -- --- ---- -- ------ ------<br>--- ----- -- ----,145067,145068,144415,144399,144431,145103,,44,you
screen,html.Screen,1_1_0_1_45,2021-04-14T19:33:51.648Z,,,,,,,,,,,,,,,,53,,,,,,,,,,,,,,628,,response,,,,99,,,,,,,Space,keypress(Space),,,,,,,,---- -- ----- -- ------ - ------- --- ----------<br>------------- ------ ------ ---- ---- ------- ----- -- ----<br>-------- ------- -- ---------- --- - --- ----- ----- ----<br>---- --- --- ----- --- ---- ---- ------- ----- ---- -------<br>--- --- -- ----- -- --- want -- --- ---- -- ------ ------<br>--- ----- -- ----,145714,145715,145087,145067,145103,145741,,45,want
screen,html.Screen,1_1_0_1_46,2021-04-14T19:33:52.241Z,,,,,,,,,,,,,,,,53,,,,,,,,,,,,,,583,,response,,,,99,,,,,,,Space,keypress(Space),,,,,,,,---- -- ----- -- ------ - ------- --- ----------<br>------------- ------ ------ ---- ---- ------- ----- -- ----<br>-------- ------- -- ---------- --- - --- ----- ----- ----<br>---- --- --- ----- --- ---- ---- ------- ----- ---- -------<br>--- --- -- ----- -- --- ---- to --- ---- -- ------ ------<br>--- ----- -- ----,146308,146308,145725,145714,145741,146346,,46,to
screen,html.Screen,1_1_0_1_47,2021-04-14T19:33:53.687Z,,,,,,,,,,,,,,,,53,,,,,,,,,,,,,,1424,,response,,,,99,,,,,,,Space,keypress(Space),,,,,,,,"---- -- ----- -- ------ - ------- --- ----------<br>------------- ------ ------ ---- ---- ------- ----- -- ----<br>-------- ------- -- ---------- --- - --- ----- ----- ----<br>---- --- --- ----- --- ---- ---- ------- ----- ---- -------<br>--- --- -- ----- -- --- ---- -- be, ---- -- ------ ------<br>--- ----- -- ----",147753,147754,146330,146308,146346,147784,,47,"be,"
screen,html.Screen,1_1_0_1_48,2021-04-14T19:33:54.397Z,,,,,,,,,,,,,,,,53,,,,,,,,,,,,,,698,,response,,,,99,,,,,,,Space,keypress(Space),,,,,,,,---- -- ----- -- ------ - ------- --- ----------<br>------------- ------ ------ ---- ---- ------- ----- -- ----<br>-------- ------- -- ---------- --- - --- ----- ----- ----<br>---- --- --- ----- --- ---- ---- ------- ----- ---- -------<br>--- --- -- ----- -- --- ---- -- --- even -- ------ ------<br>--- ----- -- ----,148464,148465,147767,147753,147784,148506,,48,even
screen,html.Screen,1_1_0_1_49,2021-04-14T19:33:54.948Z,,,,,,,,,,,,,,,,53,,,,,,,,,,,,,,526,,response,,,,99,,,,,,,Space,keypress(Space),,,,,,,,---- -- ----- -- ------ - ------- --- ----------<br>------------- ------ ------ ---- ---- ------- ----- -- ----<br>-------- ------- -- ---------- --- - --- ----- ----- ----<br>---- --- --- ----- --- ---- ---- ------- ----- ---- -------<br>--- --- -- ----- -- --- ---- -- --- ---- if ------ ------<br>--- ----- -- ----,149015.00000000003,149016,148490,148464,148506,149045,,49,if
screen,html.Screen,1_1_0_1_50,2021-04-14T19:33:55.521Z,,,,,,,,,,,,,,,,53,,,,,,,,,,,,,,560,,response,,,,99,,,,,,,Space,keypress(Space),,,,,,,,---- -- ----- -- ------ - ------- --- ----------<br>------------- ------ ------ ---- ---- ------- ----- -- ----<br>-------- ------- -- ---------- --- - --- ----- ----- ----<br>---- --- --- ----- --- ---- ---- ------- ----- ---- -------<br>--- --- -- ----- -- --- ---- -- --- ---- -- that's ------<br>--- ----- -- ----,149587,149588,149028,149015.00000000003,149045,149617,,50,that's
screen,html.Screen,1_1_0_1_51,2021-04-14T19:33:56.041Z,,,,,,,,,,,,,,,,53,,,,,,,,,,,,,,509,,response,,,,99,,,,,,,Space,keypress(Space),,,,,,,,---- -- ----- -- ------ - ------- --- ----------<br>------------- ------ ------ ---- ---- ------- ----- -- ----<br>-------- ------- -- ---------- --- - --- ----- ----- ----<br>---- --- --- ----- --- ---- ---- ------- ----- ---- -------<br>--- --- -- ----- -- --- ---- -- --- ---- -- ------ really<br>--- ----- -- ----,150107,150108,149599,149587,149617,150138,,51,really
screen,html.Screen,1_1_0_1_52,2021-04-14T19:33:56.502Z,,,,,,,,,,,,,,,,53,,,,,,,,,,,,,,447.0000000000291,,response,,,,99,,,,,,,Space,keypress(Space),,,,,,,,---- -- ----- -- ------ - ------- --- ----------<br>------------- ------ ------ ---- ---- ------- ----- -- ----<br>-------- ------- -- ---------- --- - --- ----- ----- ----<br>---- --- --- ----- --- ---- ---- ------- ----- ---- -------<br>--- --- -- ----- -- --- ---- -- --- ---- -- ------ ------<br>not ----- -- ----,150568,150569.00000000003,150122,150107,150138,150610,,52,not
screen,html.Screen,1_1_0_1_53,2021-04-14T19:33:56.836Z,,,,,,,,,,,,,,,,53,,,,,,,,,,,,,,310,,response,,,,99,,,,,,,Space,keypress(Space),,,,,,,,---- -- ----- -- ------ - ------- --- ----------<br>------------- ------ ------ ---- ---- ------- ----- -- ----<br>-------- ------- -- ---------- --- - --- ----- ----- ----<br>---- --- --- ----- --- ---- ---- ------- ----- ---- -------<br>--- --- -- ----- -- --- ---- -- --- ---- -- ------ ------<br>--- close -- ----,150903,150904,150594,150568,150610,150932,,53,close
screen,html.Screen,1_1_0_1_54,2021-04-14T19:33:57.169Z,,,,,,,,,,,,,,,,53,,,,,,,,,,,,,,323,,response,,,,99,,,,,,,Space,keypress(Space),,,,,,,,---- -- ----- -- ------ - ------- --- ----------<br>------------- ------ ------ ---- ---- ------- ----- -- ----<br>-------- ------- -- ---------- --- - --- ----- ----- ----<br>---- --- --- ----- --- ---- ---- ------- ----- ---- -------<br>--- --- -- ----- -- --- ---- -- --- ---- -- ------ ------<br>--- ----- at ----,151236,151237,150914,150903,150932,151269,,54,at
screen,html.Screen,1_1_0_1_55,2021-04-14T19:33:57.531Z,,,,,,,,,,,,,,,,53,,,,,,,,,,,,,,346,,response,,,,99,,,,,,,Space,keypress(Space),,,,,,,,---- -- ----- -- ------ - ------- --- ----------<br>------------- ------ ------ ---- ---- ------- ----- -- ----<br>-------- ------- -- ---------- --- - --- ----- ----- ----<br>---- --- --- ----- --- ---- ---- ------- ----- ---- -------<br>--- --- -- ----- -- --- ---- -- --- ---- -- ------ ------<br>--- ----- -- all.,151598,151599,151253,151236,151269,151624,,55,all.
Item 99,flow.Loop,1_1_0_1,2021-04-14T19:33:57.532Z,,,,,,,,,,,,,,,,,,,,,,,,,,,,,,34423,,completion,,,,,B,,,,,,,,,,,silence,,,,,151598,151599,117148,117149,117176,151624,,,
Question 1,html.Screen,1_1_0_2,2021-04-14T19:34:02.170Z,,,,,,,,,,,,,,,,,,,,,,,,,,,true,FALSE,,4632,,response,,,,99,B,,,,,,FALSE,click #choice-2,,,,silence,,,,,156237,156239,151607,151598,151624,156258,,,
Question 2,html.Screen,1_1_0_3,2021-04-14T19:34:06.474Z,,,,,,,,,,,,,,,,,,,,,,,,,,,true,TRUE,,4302,,response,,,,99,B,,,,,,TRUE,click #choice-1,,,,silence,,,,,160540,160543,156241,156237,156258,160579,,,
Item 99,flow.Sequence,1_1_0,2021-04-14T19:34:06.474Z,,,,,,,,,,,,,,,,,,,,,,,,,,,,,,53385,,completion,,,,,,,,,,,,,,,,,,,,,160541,160543,107141,107125,107158,160579,,,
Holding screen,html.Screen,1_1_1_0,2021-04-14T19:34:16.493Z,,,,,,,,,,,,,,,,,,,,,,,,,,,,,,9998,,timeout,,,,,,,,,,,,,,,,,,,,,170560,170559,160559,160541,160579,170577,,,
screen,html.Screen,1_1_1_1_0,2021-04-14T19:34:17.671Z,,,,,,,,,,,,,,,,54,,,,,,,,,,,,,,1180,,response,,,,100,,,,,,,Space,keypress(Space),,,,,,,,At --- ---- --- ------ ----- ------- ---- -- --- ------- --<br>------- ---------- ------ -- ----- -- ----- -- ---- ------<br>--- ----- --- --- ------ -------- ----- --- ------ ----- --<br>----- ----- ---------- --- --- ------ ------ ---- -- ------<br>------- --- ------ ----- --- ---- ------- -- ---- --- --<br>------- ------,171738,171739,170559,170560,170577,171764,,0,At
screen,html.Screen,1_1_1_1_1,2021-04-14T19:34:18.134Z,,,,,,,,,,,,,,,,54,,,,,,,,,,,,,,455,,response,,,,100,,,,,,,Space,keypress(Space),,,,,,,,-- the ---- --- ------ ----- ------- ---- -- --- ------- --<br>------- ---------- ------ -- ----- -- ----- -- ---- ------<br>--- ----- --- --- ------ -------- ----- --- ------ ----- --<br>----- ----- ---------- --- --- ------ ------ ---- -- ------<br>------- --- ------ ----- --- ---- ------- -- ---- --- --<br>------- ------,172201,172203,171748,171738,171764,172236,,1,the
screen,html.Screen,1_1_1_1_2,2021-04-14T19:34:18.601Z,,,,,,,,,,,,,,,,54,,,,,,,,,,,,,,450,,response,,,,100,,,,,,,Space,keypress(Space),,,,,,,,-- --- time --- ------ ----- ------- ---- -- --- ------- --<br>------- ---------- ------ -- ----- -- ----- -- ---- ------<br>--- ----- --- --- ------ -------- ----- --- ------ ----- --<br>----- ----- ---------- --- --- ------ ------ ---- -- ------<br>------- --- ------ ----- --- ---- ------- -- ---- --- --<br>------- ------,172668,172669,172219,172201,172236,172707,,2,time
screen,html.Screen,1_1_1_1_3,2021-04-14T19:34:19.072Z,,,,,,,,,,,,,,,,54,,,,,,,,,,,,,,448.0000000000291,,response,,,,100,,,,,,,Space,keypress(Space),,,,,,,,-- --- ---- the ------ ----- ------- ---- -- --- ------- --<br>------- ---------- ------ -- ----- -- ----- -- ---- ------<br>--- ----- --- --- ------ -------- ----- --- ------ ----- --<br>----- ----- ---------- --- --- ------ ------ ---- -- ------<br>------- --- ------ ----- --- ---- ------- -- ---- --- --<br>------- ------,173139,173140.00000000003,172692,172668,172707,173166,,3,the
screen,html.Screen,1_1_1_1_4,2021-04-14T19:34:19.550Z,,,,,,,,,,,,,,,,54,,,,,,,,,,,,,,469,,response,,,,100,,,,,,,Space,keypress(Space),,,,,,,,-- --- ---- --- French ----- ------- ---- -- --- ------- --<br>------- ---------- ------ -- ----- -- ----- -- ---- ------<br>--- ----- --- --- ------ -------- ----- --- ------ ----- --<br>----- ----- ---------- --- --- ------ ------ ---- -- ------<br>------- --- ------ ----- --- ---- ------- -- ---- --- --<br>------- ------,173617,173618,173149,173139,173166,173653,,4,French
screen,html.Screen,1_1_1_1_5,2021-04-14T19:34:19.952Z,,,,,,,,,,,,,,,,54,,,,,,,,,,,,,,385,,response,,,,100,,,,,,,Space,keypress(Space),,,,,,,,-- --- ---- --- ------ crown ------- ---- -- --- ------- --<br>------- ---------- ------ -- ----- -- ----- -- ---- ------<br>--- ----- --- --- ------ -------- ----- --- ------ ----- --<br>----- ----- ---------- --- --- ------ ------ ---- -- ------<br>------- --- ------ ----- --- ---- ------- -- ---- --- --<br>------- ------,174020,174022,173637,173617,173653,174042,,5,crown
screen,html.Screen,1_1_1_1_6,2021-04-14T19:34:20.366Z,,,,,,,,,,,,,,,,54,,,,,,,,,,,,,,408.0000000000291,,response,,,,100,,,,,,,Space,keypress(Space),,,,,,,,-- --- ---- --- ------ ----- secured ---- -- --- ------- --<br>------- ---------- ------ -- ----- -- ----- -- ---- ------<br>--- ----- --- --- ------ -------- ----- --- ------ ----- --<br>----- ----- ---------- --- --- ------ ------ ---- -- ------<br>------- --- ------ ----- --- ---- ------- -- ---- --- --<br>------- ------,174433,174432.00000000003,174024,174020,174042,174463,,6,secured
screen,html.Screen,1_1_1_1_7,2021-04-14T19:34:20.853Z,,,,,,,,,,,,,,,,54,,,,,,,,,,,,,,477,,response,,,,100,,,,,,,Space,keypress(Space),,,,,,,,-- --- ---- --- ------ ----- ------- much -- --- ------- --<br>------- ---------- ------ -- ----- -- ----- -- ---- ------<br>--- ----- --- --- ------ -------- ----- --- ------ ----- --<br>----- ----- ---------- --- --- ------ ------ ---- -- ------<br>------- --- ------ ----- --- ---- ------- -- ---- --- --<br>------- ------,174921,174923,174446,174433,174463,174950,,7,much
screen,html.Screen,1_1_1_1_8,2021-04-14T19:34:21.245Z,,,,,,,,,,,,,,,,54,,,,,,,,,,,,,,376,,response,,,,100,,,,,,,Space,keypress(Space),,,,,,,,-- --- ---- --- ------ ----- ------- ---- of --- ------- --<br>------- ---------- ------ -- ----- -- ----- -- ---- ------<br>--- ----- --- --- ------ -------- ----- --- ------ ----- --<br>----- ----- ---------- --- --- ------ ------ ---- -- ------<br>------- --- ------ ----- --- ---- ------- -- ---- --- --<br>------- ------,175312,175309,174933,174921,174950,175337,,8,of
screen,html.Screen,1_1_1_1_9,2021-04-14T19:34:21.663Z,,,,,,,,,,,,,,,,54,,,,,,,,,,,,,,411,,response,,,,100,,,,,,,Space,keypress(Space),,,,,,,,-- --- ---- --- ------ ----- ------- ---- -- its ------- --<br>------- ---------- ------ -- ----- -- ----- -- ---- ------<br>--- ----- --- --- ------ -------- ----- --- ------ ----- --<br>----- ----- ---------- --- --- ------ ------ ---- -- ------<br>------- --- ------ ----- --- ---- ------- -- ---- --- --<br>------- ------,175730,175732,175321,175312,175337,175759,,9,its
screen,html.Screen,1_1_1_1_10,2021-04-14T19:34:23.088Z,,,,,,,,,,,,,,,,54,,,,,,,,,,,,,,1415,,response,,,,100,,,,,,,Space,keypress(Space),,,,,,,,-- --- ---- --- ------ ----- ------- ---- -- --- revenue --<br>------- ---------- ------ -- ----- -- ----- -- ---- ------<br>--- ----- --- --- ------ -------- ----- --- ------ ----- --<br>----- ----- ---------- --- --- ------ ------ ---- -- ------<br>------- --- ------ ----- --- ---- ------- -- ---- --- --<br>------- ------,177155,177157,175742,175731,175759,177197,,10,revenue
screen,html.Screen,1_1_1_1_11,2021-04-14T19:34:23.781Z,,,,,,,,,,,,,,,,54,,,,,,,,,,,,,,671,,response,,,,100,,,,,,,Space,keypress(Space),,,,,,,,-- --- ---- --- ------ ----- ------- ---- -- --- ------- by<br>------- ---------- ------ -- ----- -- ----- -- ---- ------<br>--- ----- --- --- ------ -------- ----- --- ------ ----- --<br>----- ----- ---------- --- --- ------ ------ ---- -- ------<br>------- --- ------ ----- --- ---- ------- -- ---- --- --<br>------- ------,177848,177851,177180,177156,177197,177885,,11,by
screen,html.Screen,1_1_1_1_12,2021-04-14T19:34:24.406Z,,,,,,,,,,,,,,,,54,,,,,,,,,,,,,,606,,response,,,,100,,,,,,,Space,keypress(Space),,,,,,,,-- --- ---- --- ------ ----- ------- ---- -- --- ------- --<br>issuing ---------- ------ -- ----- -- ----- -- ---- ------<br>--- ----- --- --- ------ -------- ----- --- ------ ----- --<br>----- ----- ---------- --- --- ------ ------ ---- -- ------<br>------- --- ------ ----- --- ---- ------- -- ---- --- --<br>------- ------,178473,178474,177868,177849,177885,178506,,12,issuing
screen,html.Screen,1_1_1_1_13,2021-04-14T19:34:25.053Z,,,,,,,,,,,,,,,,54,,,,,,,,,,,,,,632,,response,,,,100,,,,,,,Space,keypress(Space),,,,,,,,-- --- ---- --- ------ ----- ------- ---- -- --- ------- --<br>------- government ------ -- ----- -- ----- -- ---- ------<br>--- ----- --- --- ------ -------- ----- --- ------ ----- --<br>----- ----- ---------- --- --- ------ ------ ---- -- ------<br>------- --- ------ ----- --- ---- ------- -- ---- --- --<br>------- ------,179120,179122,178490,178473,178506,179161,,13,government
screen,html.Screen,1_1_1_1_14,2021-04-14T19:34:28.227Z,,,,,,,,,,,,,,,,54,,,,,,,,,,,,,,3152,,response,,,,100,,,,,,,Space,keypress(Space),,,,,,,,-- --- ---- --- ------ ----- ------- ---- -- --- ------- --<br>------- ---------- bonds. -- ----- -- ----- -- ---- ------<br>--- ----- --- --- ------ -------- ----- --- ------ ----- --<br>----- ----- ---------- --- --- ------ ------ ---- -- ------<br>------- --- ------ ----- --- ---- ------- -- ---- --- --<br>------- ------,182294,182296,179144,179120,179161,182333,,14,bonds.
screen,html.Screen,1_1_1_1_15,2021-04-14T19:34:28.721Z,,,,,,,,,,,,,,,,54,,,,,,,,,,,,,,474,,response,,,,100,,,,,,,Space,keypress(Space),,,,,,,,-- --- ---- --- ------ ----- ------- ---- -- --- ------- --<br>------- ---------- ------ In ----- -- ----- -- ---- ------<br>--- ----- --- --- ------ -------- ----- --- ------ ----- --<br>----- ----- ---------- --- --- ------ ------ ---- -- ------<br>------- --- ------ ----- --- ---- ------- -- ---- --- --<br>------- ------,182788,182790,182316,182294,182333,182821,,15,In
screen,html.Screen,1_1_1_1_16,2021-04-14T19:34:30.351Z,,,,,,,,,,,,,,,,54,,,,,,,,,,,,,,1615.000000000029,,response,,,,100,,,,,,,Space,keypress(Space),,,,,,,,"-- --- ---- --- ------ ----- ------- ---- -- --- ------- --<br>------- ---------- ------ -- 1727, -- ----- -- ---- ------<br>--- ----- --- --- ------ -------- ----- --- ------ ----- --<br>----- ----- ---------- --- --- ------ ------ ---- -- ------<br>------- --- ------ ----- --- ---- ------- -- ---- --- --<br>------- ------",184418,184420.00000000003,182805,182788,182821,184460,,16,"1727,"
screen,html.Screen,1_1_1_1_17,2021-04-14T19:34:30.903Z,,,,,,,,,,,,,,,,54,,,,,,,,,,,,,,530,,response,,,,100,,,,,,,Space,keypress(Space),,,,,,,,-- --- ---- --- ------ ----- ------- ---- -- --- ------- --<br>------- ---------- ------ -- ----- in ----- -- ---- ------<br>--- ----- --- --- ------ -------- ----- --- ------ ----- --<br>----- ----- ---------- --- --- ------ ------ ---- -- ------<br>------- --- ------ ----- --- ---- ------- -- ---- --- --<br>------- ------,184970,184973,184443,184418,184460,184998,,17,in
screen,html.Screen,1_1_1_1_18,2021-04-14T19:34:31.251Z,,,,,,,,,,,,,,,,54,,,,,,,,,,,,,,340,,response,,,,100,,,,,,,Space,keypress(Space),,,,,,,,-- --- ---- --- ------ ----- ------- ---- -- --- ------- --<br>------- ---------- ------ -- ----- -- order -- ---- ------<br>--- ----- --- --- ------ -------- ----- --- ------ ----- --<br>----- ----- ---------- --- --- ------ ------ ---- -- ------<br>------- --- ------ ----- --- ---- ------- -- ---- --- --<br>------- ------,185319.00000000003,185321,184981,184970,184998,185353,,18,order
screen,html.Screen,1_1_1_1_19,2021-04-14T19:34:31.536Z,,,,,,,,,,,,,,,,54,,,,,,,,,,,,,,270,,response,,,,100,,,,,,,Space,keypress(Space),,,,,,,,-- --- ---- --- ------ ----- ------- ---- -- --- ------- --<br>------- ---------- ------ -- ----- -- ----- to ---- ------<br>--- ----- --- --- ------ -------- ----- --- ------ ----- --<br>----- ----- ---------- --- --- ------ ------ ---- -- ------<br>------- --- ------ ----- --- ---- ------- -- ---- --- --<br>------- ------,185604,185606,185336,185319.00000000003,185353,185625,,19,to
screen,html.Screen,1_1_1_1_20,2021-04-14T19:34:31.868Z,,,,,,,,,,,,,,,,54,,,,,,,,,,,,,,330.0000000000291,,response,,,,100,,,,,,,Space,keypress(Space),,,,,,,,-- --- ---- --- ------ ----- ------- ---- -- --- ------- --<br>------- ---------- ------ -- ----- -- ----- -- save ------<br>--- ----- --- --- ------ -------- ----- --- ------ ----- --<br>----- ----- ---------- --- --- ------ ------ ---- -- ------<br>------- --- ------ ----- --- ---- ------- -- ---- --- --<br>------- ------,185936,185938.00000000003,185608,185604,185625,185962,,20,save
screen,html.Screen,1_1_1_1_21,2021-04-14T19:34:32.739Z,,,,,,,,,,,,,,,,54,,,,,,,,,,,,,,863,,response,,,,100,,,,,,,Space,keypress(Space),,,,,,,,"-- --- ---- --- ------ ----- ------- ---- -- --- ------- --<br>------- ---------- ------ -- ----- -- ----- -- ---- money,<br>--- ----- --- --- ------ -------- ----- --- ------ ----- --<br>----- ----- ---------- --- --- ------ ------ ---- -- ------<br>------- --- ------ ----- --- ---- ------- -- ---- --- --<br>------- ------",186807.00000000003,186809,185946,185936,185962,186850,,21,"money,"
screen,html.Screen,1_1_1_1_22,2021-04-14T19:34:33.673Z,,,,,,,,,,,,,,,,54,,,,,,,,,,,,,,910,,response,,,,100,,,,,,,Space,keypress(Space),,,,,,,,-- --- ---- --- ------ ----- ------- ---- -- --- ------- --<br>------- ---------- ------ -- ----- -- ----- -- ---- ------<br>the ----- --- --- ------ -------- ----- --- ------ ----- --<br>----- ----- ---------- --- --- ------ ------ ---- -- ------<br>------- --- ------ ----- --- ---- ------- -- ---- --- --<br>------- ------,187741,187743,186833,186807.00000000003,186850,187771,,22,the
screen,html.Screen,1_1_1_1_23,2021-04-14T19:34:34.158Z,,,,,,,,,,,,,,,,54,,,,,,,,,,,,,,474,,response,,,,100,,,,,,,Space,keypress(Space),,,,,,,,-- --- ---- --- ------ ----- ------- ---- -- --- ------- --<br>------- ---------- ------ -- ----- -- ----- -- ---- ------<br>--- state --- --- ------ -------- ----- --- ------ ----- --<br>----- ----- ---------- --- --- ------ ------ ---- -- ------<br>------- --- ------ ----- --- ---- ------- -- ---- --- --<br>------- ------,188226,188228,187754,187741,187771,188260,,23,state
screen,html.Screen,1_1_1_1_24,2021-04-14T19:34:34.625Z,,,,,,,,,,,,,,,,54,,,,,,,,,,,,,,453,,response,,,,100,,,,,,,Space,keypress(Space),,,,,,,,-- --- ---- --- ------ ----- ------- ---- -- --- ------- --<br>------- ---------- ------ -- ----- -- ----- -- ---- ------<br>--- ----- cut --- ------ -------- ----- --- ------ ----- --<br>----- ----- ---------- --- --- ------ ------ ---- -- ------<br>------- --- ------ ----- --- ---- ------- -- ---- --- --<br>------- ------,188693,188695,188242,188226,188260,188732,,24,cut
screen,html.Screen,1_1_1_1_25,2021-04-14T19:34:34.988Z,,,,,,,,,,,,,,,,54,,,,,,,,,,,,,,344,,response,,,,100,,,,,,,Space,keypress(Space),,,,,,,,-- --- ---- --- ------ ----- ------- ---- -- --- ------- --<br>------- ---------- ------ -- ----- -- ----- -- ---- ------<br>--- ----- --- the ------ -------- ----- --- ------ ----- --<br>----- ----- ---------- --- --- ------ ------ ---- -- ------<br>------- --- ------ ----- --- ---- ------- -- ---- --- --<br>------- ------,189055,189058,188714,188693,188732,189085,,25,the
screen,html.Screen,1_1_1_1_26,2021-04-14T19:34:35.414Z,,,,,,,,,,,,,,,,54,,,,,,,,,,,,,,415,,response,,,,100,,,,,,,Space,keypress(Space),,,,,,,,-- --- ---- --- ------ ----- ------- ---- -- --- ------- --<br>------- ---------- ------ -- ----- -- ----- -- ---- ------<br>--- ----- --- --- bonds' -------- ----- --- ------ ----- --<br>----- ----- ---------- --- --- ------ ------ ---- -- ------<br>------- --- ------ ----- --- ---- ------- -- ---- --- --<br>------- ------,189481,189484,189069,189055,189085,189524,,26,bonds'
screen,html.Screen,1_1_1_1_27,2021-04-14T19:34:36.167Z,,,,,,,,,,,,,,,,54,,,,,,,,,,,,,,729,,response,,,,100,,,,,,,Space,keypress(Space),,,,,,,,-- --- ---- --- ------ ----- ------- ---- -- --- ------- --<br>------- ---------- ------ -- ----- -- ----- -- ---- ------<br>--- ----- --- --- ------ interest ----- --- ------ ----- --<br>----- ----- ---------- --- --- ------ ------ ---- -- ------<br>------- --- ------ ----- --- ---- ------- -- ---- --- --<br>------- ------,190234,190237,189508,189481,189524,190261,,27,interest
screen,html.Screen,1_1_1_1_28,2021-04-14T19:34:37.916Z,,,,,,,,,,,,,,,,54,,,,,,,,,,,,,,1741,,response,,,,100,,,,,,,Space,keypress(Space),,,,,,,,-- --- ---- --- ------ ----- ------- ---- -- --- ------- --<br>------- ---------- ------ -- ----- -- ----- -- ---- ------<br>--- ----- --- --- ------ -------- rate. --- ------ ----- --<br>----- ----- ---------- --- --- ------ ------ ---- -- ------<br>------- --- ------ ----- --- ---- ------- -- ---- --- --<br>------- ------,191983,191986,190245,190234,190261,192017,,28,rate.
screen,html.Screen,1_1_1_1_29,2021-04-14T19:34:38.522Z,,,,,,,,,,,,,,,,54,,,,,,,,,,,,,,592,,response,,,,100,,,,,,,Space,keypress(Space),,,,,,,,-- --- ---- --- ------ ----- ------- ---- -- --- ------- --<br>------- ---------- ------ -- ----- -- ----- -- ---- ------<br>--- ----- --- --- ------ -------- ----- The ------ ----- --<br>----- ----- ---------- --- --- ------ ------ ---- -- ------<br>------- --- ------ ----- --- ---- ------- -- ---- --- --<br>------- ------,192590,192592,192000,191984,192017,192621,,29,The
screen,html.Screen,1_1_1_1_30,2021-04-14T19:34:39.110Z,,,,,,,,,,,,,,,,54,,,,,,,,,,,,,,576,,response,,,,100,,,,,,,Space,keypress(Space),,,,,,,,-- --- ---- --- ------ ----- ------- ---- -- --- ------- --<br>------- ---------- ------ -- ----- -- ----- -- ---- ------<br>--- ----- --- --- ------ -------- ----- --- market ----- --<br>----- ----- ---------- --- --- ------ ------ ---- -- ------<br>------- --- ------ ----- --- ---- ------- -- ---- --- --<br>------- ------,193178,193181,192605,192590,192621,193209,,30,market
screen,html.Screen,1_1_1_1_31,2021-04-14T19:34:39.674Z,,,,,,,,,,,,,,,,54,,,,,,,,,,,,,,553,,response,,,,100,,,,,,,Space,keypress(Space),,,,,,,,-- --- ---- --- ------ ----- ------- ---- -- --- ------- --<br>------- ---------- ------ -- ----- -- ----- -- ---- ------<br>--- ----- --- --- ------ -------- ----- --- ------ value --<br>----- ----- ---------- --- --- ------ ------ ---- -- ------<br>------- --- ------ ----- --- ---- ------- -- ---- --- --<br>------- ------,193742,193745,193192,193178,193209,193781,,31,value
screen,html.Screen,1_1_1_1_32,2021-04-14T19:34:40.083Z,,,,,,,,,,,,,,,,54,,,,,,,,,,,,,,391,,response,,,,100,,,,,,,Space,keypress(Space),,,,,,,,-- --- ---- --- ------ ----- ------- ---- -- --- ------- --<br>------- ---------- ------ -- ----- -- ----- -- ---- ------<br>--- ----- --- --- ------ -------- ----- --- ------ ----- of<br>----- ----- ---------- --- --- ------ ------ ---- -- ------<br>------- --- ------ ----- --- ---- ------- -- ---- --- --<br>------- ------,194151,194154,193763,193742,193781,194185,,32,of
screen,html.Screen,1_1_1_1_33,2021-04-14T19:34:40.490Z,,,,,,,,,,,,,,,,54,,,,,,,,,,,,,,391,,response,,,,100,,,,,,,Space,keypress(Space),,,,,,,,-- --- ---- --- ------ ----- ------- ---- -- --- ------- --<br>------- ---------- ------ -- ----- -- ----- -- ---- ------<br>--- ----- --- --- ------ -------- ----- --- ------ ----- --<br>these ----- ---------- --- --- ------ ------ ---- -- ------<br>------- --- ------ ----- --- ---- ------- -- ---- --- --<br>------- ------,194558,194560,194169,194151,194185,194589,,33,these
screen,html.Screen,1_1_1_1_34,2021-04-14T19:34:40.827Z,,,,,,,,,,,,,,,,54,,,,,,,,,,,,,,324,,response,,,,100,,,,,,,Space,keypress(Space),,,,,,,,-- --- ---- --- ------ ----- ------- ---- -- --- ------- --<br>------- ---------- ------ -- ----- -- ----- -- ---- ------<br>--- ----- --- --- ------ -------- ----- --- ------ ----- --<br>----- bonds ---------- --- --- ------ ------ ---- -- ------<br>------- --- ------ ----- --- ---- ------- -- ---- --- --<br>------- ------,194894,194897,194573,194558,194589,194927,,34,bonds
screen,html.Screen,1_1_1_1_35,2021-04-14T19:34:42.201Z,,,,,,,,,,,,,,,,54,,,,,,,,,,,,,,1360.000000000029,,response,,,,100,,,,,,,Space,keypress(Space),,,,,,,,"-- --- ---- --- ------ ----- ------- ---- -- --- ------- --<br>------- ---------- ------ -- ----- -- ----- -- ---- ------<br>--- ----- --- --- ------ -------- ----- --- ------ ----- --<br>----- ----- plummeted, --- --- ------ ------ ---- -- ------<br>------- --- ------ ----- --- ---- ------- -- ---- --- --<br>------- ------",196269,196271.00000000003,194911,194895,194927,196298,,35,"plummeted,"
screen,html.Screen,1_1_1_1_36,2021-04-14T19:34:42.673Z,,,,,,,,,,,,,,,,54,,,,,,,,,,,,,,461,,response,,,,100,,,,,,,Space,keypress(Space),,,,,,,,-- --- ---- --- ------ ----- ------- ---- -- --- ------- --<br>------- ---------- ------ -- ----- -- ----- -- ---- ------<br>--- ----- --- --- ------ -------- ----- --- ------ ----- --<br>----- ----- ---------- and --- ------ ------ ---- -- ------<br>------- --- ------ ----- --- ---- ------- -- ---- --- --<br>------- ------,196740,196743,196282,196269,196298,196771,,36,and
screen,html.Screen,1_1_1_1_37,2021-04-14T19:34:43.041Z,,,,,,,,,,,,,,,,54,,,,,,,,,,,,,,358,,response,,,,100,,,,,,,Space,keypress(Space),,,,,,,,-- --- ---- --- ------ ----- ------- ---- -- --- ------- --<br>------- ---------- ------ -- ----- -- ----- -- ---- ------<br>--- ----- --- --- ------ -------- ----- --- ------ ----- --<br>----- ----- ---------- --- the ------ ------ ---- -- ------<br>------- --- ------ ----- --- ---- ------- -- ---- --- --<br>------- ------,197109,197112,196754,196740,196771,197142,,37,the
screen,html.Screen,1_1_1_1_38,2021-04-14T19:34:43.417Z,,,,,,,,,,,,,,,,54,,,,,,,,,,,,,,362,,response,,,,100,,,,,,,Space,keypress(Space),,,,,,,,-- --- ---- --- ------ ----- ------- ---- -- --- ------- --<br>------- ---------- ------ -- ----- -- ----- -- ---- ------<br>--- ----- --- --- ------ -------- ----- --- ------ ----- --<br>----- ----- ---------- --- --- market ------ ---- -- ------<br>------- --- ------ ----- --- ---- ------- -- ---- --- --<br>------- ------,197485,197487,197125,197109,197142,197514,,38,market
screen,html.Screen,1_1_1_1_39,2021-04-14T19:34:43.776Z,,,,,,,,,,,,,,,,54,,,,,,,,,,,,,,350,,response,,,,100,,,,,,,Space,keypress(Space),,,,,,,,-- --- ---- --- ------ ----- ------- ---- -- --- ------- --<br>------- ---------- ------ -- ----- -- ----- -- ---- ------<br>--- ----- --- --- ------ -------- ----- --- ------ ----- --<br>----- ----- ---------- --- --- ------ became ---- -- ------<br>------- --- ------ ----- --- ---- ------- -- ---- --- --<br>------- ------,197844,197847,197497,197485,197514,197869,,39,became
screen,html.Screen,1_1_1_1_40,2021-04-14T19:34:44.163Z,,,,,,,,,,,,,,,,54,,,,,,,,,,,,,,382,,response,,,,100,,,,,,,Space,keypress(Space),,,,,,,,-- --- ---- --- ------ ----- ------- ---- -- --- ------- --<br>------- ---------- ------ -- ----- -- ----- -- ---- ------<br>--- ----- --- --- ------ -------- ----- --- ------ ----- --<br>----- ----- ---------- --- --- ------ ------ wary -- ------<br>------- --- ------ ----- --- ---- ------- -- ---- --- --<br>------- ------,198231,198234,197852,197844,197869,198256,,40,wary
screen,html.Screen,1_1_1_1_41,2021-04-14T19:34:44.531Z,,,,,,,,,,,,,,,,54,,,,,,,,,,,,,,363,,response,,,,100,,,,,,,Space,keypress(Space),,,,,,,,-- --- ---- --- ------ ----- ------- ---- -- --- ------- --<br>------- ---------- ------ -- ----- -- ----- -- ---- ------<br>--- ----- --- --- ------ -------- ----- --- ------ ----- --<br>----- ----- ---------- --- --- ------ ------ ---- of ------<br>------- --- ------ ----- --- ---- ------- -- ---- --- --<br>------- ------,198599.00000000003,198602,198239,198231,198256,198627,,41,of
screen,html.Screen,1_1_1_1_42,2021-04-14T19:34:44.936Z,,,,,,,,,,,,,,,,54,,,,,,,,,,,,,,397,,response,,,,100,,,,,,,Space,keypress(Space),,,,,,,,-- --- ---- --- ------ ----- ------- ---- -- --- ------- --<br>------- ---------- ------ -- ----- -- ----- -- ---- ------<br>--- ----- --- --- ------ -------- ----- --- ------ ----- --<br>----- ----- ---------- --- --- ------ ------ ---- -- French<br>------- --- ------ ----- --- ---- ------- -- ---- --- --<br>------- ------,199003,199007,198610,198599.00000000003,198627,199030,,42,French
screen,html.Screen,1_1_1_1_43,2021-04-14T19:34:45.338Z,,,,,,,,,,,,,,,,54,,,,,,,,,,,,,,396,,response,,,,100,,,,,,,Space,keypress(Space),,,,,,,,-- --- ---- --- ------ ----- ------- ---- -- --- ------- --<br>------- ---------- ------ -- ----- -- ----- -- ---- ------<br>--- ----- --- --- ------ -------- ----- --- ------ ----- --<br>----- ----- ---------- --- --- ------ ------ ---- -- ------<br>credit. --- ------ ----- --- ---- ------- -- ---- --- --<br>------- ------,199406,199410,199014,199004,199030,199434,,43,credit.
screen,html.Screen,1_1_1_1_44,2021-04-14T19:34:45.954Z,,,,,,,,,,,,,,,,54,,,,,,,,,,,,,,607,,response,,,,100,,,,,,,Space,keypress(Space),,,,,,,,-- --- ---- --- ------ ----- ------- ---- -- --- ------- --<br>------- ---------- ------ -- ----- -- ----- -- ---- ------<br>--- ----- --- --- ------ -------- ----- --- ------ ----- --<br>----- ----- ---------- --- --- ------ ------ ---- -- ------<br>------- The ------ ----- --- ---- ------- -- ---- --- --<br>------- ------,200022,200025,199418,199406,199434,200055,,44,The
screen,html.Screen,1_1_1_1_45,2021-04-14T19:34:46.405Z,,,,,,,,,,,,,,,,54,,,,,,,,,,,,,,437,,response,,,,100,,,,,,,Space,keypress(Space),,,,,,,,-- --- ---- --- ------ ----- ------- ---- -- --- ------- --<br>------- ---------- ------ -- ----- -- ----- -- ---- ------<br>--- ----- --- --- ------ -------- ----- --- ------ ----- --<br>----- ----- ---------- --- --- ------ ------ ---- -- ------<br>------- --- French ----- --- ---- ------- -- ---- --- --<br>------- ------,200472,200476,200039,200022,200055,200509,,45,French
screen,html.Screen,1_1_1_1_46,2021-04-14T19:34:46.870Z,,,,,,,,,,,,,,,,54,,,,,,,,,,,,,,449,,response,,,,100,,,,,,,Space,keypress(Space),,,,,,,,-- --- ---- --- ------ ----- ------- ---- -- --- ------- --<br>------- ---------- ------ -- ----- -- ----- -- ---- ------<br>--- ----- --- --- ------ -------- ----- --- ------ ----- --<br>----- ----- ---------- --- --- ------ ------ ---- -- ------<br>------- --- ------ state --- ---- ------- -- ---- --- --<br>------- ------,200938.00000000003,200941,200492,200473,200509,200981,,46,state
screen,html.Screen,1_1_1_1_47,2021-04-14T19:34:47.391Z,,,,,,,,,,,,,,,,54,,,,,,,,,,,,,,498.0000000000291,,response,,,,100,,,,,,,Space,keypress(Space),,,,,,,,-- --- ---- --- ------ ----- ------- ---- -- --- ------- --<br>------- ---------- ------ -- ----- -- ----- -- ---- ------<br>--- ----- --- --- ------ -------- ----- --- ------ ----- --<br>----- ----- ---------- --- --- ------ ------ ---- -- ------<br>------- --- ------ ----- was ---- ------- -- ---- --- --<br>------- ------,201459,201462.00000000003,200964,200938.00000000003,200981,201503,,47,was
screen,html.Screen,1_1_1_1_48,2021-04-14T19:34:47.950Z,,,,,,,,,,,,,,,,54,,,,,,,,,,,,,,535.0000000000291,,response,,,,100,,,,,,,Space,keypress(Space),,,,,,,,-- --- ---- --- ------ ----- ------- ---- -- --- ------- --<br>------- ---------- ------ -- ----- -- ----- -- ---- ------<br>--- ----- --- --- ------ -------- ----- --- ------ ----- --<br>----- ----- ---------- --- --- ------ ------ ---- -- ------<br>------- --- ------ ----- --- left ------- -- ---- --- --<br>------- ------,202018,202021.00000000003,201486,201459,201503,202056,,48,left
screen,html.Screen,1_1_1_1_49,2021-04-14T19:34:48.702Z,,,,,,,,,,,,,,,,54,,,,,,,,,,,,,,734,,response,,,,100,,,,,,,Space,keypress(Space),,,,,,,,-- --- ---- --- ------ ----- ------- ---- -- --- ------- --<br>------- ---------- ------ -- ----- -- ----- -- ---- ------<br>--- ----- --- --- ------ -------- ----- --- ------ ----- --<br>----- ----- ---------- --- --- ------ ------ ---- -- ------<br>------- --- ------ ----- --- ---- without -- ---- --- --<br>------- ------,202770,202773,202039,202018,202056,202813,,49,without
screen,html.Screen,1_1_1_1_50,2021-04-14T19:34:49.232Z,,,,,,,,,,,,,,,,54,,,,,,,,,,,,,,507,,response,,,,100,,,,,,,Space,keypress(Space),,,,,,,,-- --- ---- --- ------ ----- ------- ---- -- --- ------- --<br>------- ---------- ------ -- ----- -- ----- -- ---- ------<br>--- ----- --- --- ------ -------- ----- --- ------ ----- --<br>----- ----- ---------- --- --- ------ ------ ---- -- ------<br>------- --- ------ ----- --- ---- ------- an ---- --- --<br>------- ------,203300,203303,202796,202770,202813,203334,,50,an
screen,html.Screen,1_1_1_1_51,2021-04-14T19:34:49.629Z,,,,,,,,,,,,,,,,54,,,,,,,,,,,,,,383.0000000000291,,response,,,,100,,,,,,,Space,keypress(Space),,,,,,,,-- --- ---- --- ------ ----- ------- ---- -- --- ------- --<br>------- ---------- ------ -- ----- -- ----- -- ---- ------<br>--- ----- --- --- ------ -------- ----- --- ------ ----- --<br>----- ----- ---------- --- --- ------ ------ ---- -- ------<br>------- --- ------ ----- --- ---- ------- -- easy --- --<br>------- ------,203697,203700.00000000003,203317,203300,203334,203722,,51,easy
screen,html.Screen,1_1_1_1_52,2021-04-14T19:34:49.986Z,,,,,,,,,,,,,,,,54,,,,,,,,,,,,,,351.0000000000291,,response,,,,100,,,,,,,Space,keypress(Space),,,,,,,,-- --- ---- --- ------ ----- ------- ---- -- --- ------- --<br>------- ---------- ------ -- ----- -- ----- -- ---- ------<br>--- ----- --- --- ------ -------- ----- --- ------ ----- --<br>----- ----- ---------- --- --- ------ ------ ---- -- ------<br>------- --- ------ ----- --- ---- ------- -- ---- way --<br>------- ------,204054,204057.00000000003,203706,203697,203722,204077,,52,way
screen,html.Screen,1_1_1_1_53,2021-04-14T19:34:50.374Z,,,,,,,,,,,,,,,,54,,,,,,,,,,,,,,384,,response,,,,100,,,,,,,Space,keypress(Space),,,,,,,,-- --- ---- --- ------ ----- ------- ---- -- --- ------- --<br>------- ---------- ------ -- ----- -- ----- -- ---- ------<br>--- ----- --- --- ------ -------- ----- --- ------ ----- --<br>----- ----- ---------- --- --- ------ ------ ---- -- ------<br>------- --- ------ ----- --- ---- ------- -- ---- --- of<br>------- ------,204442,204445,204061,204054,204077,204466,,53,of
screen,html.Screen,1_1_1_1_54,2021-04-14T19:34:50.817Z,,,,,,,,,,,,,,,,54,,,,,,,,,,,,,,440,,response,,,,100,,,,,,,Space,keypress(Space),,,,,,,,-- --- ---- --- ------ ----- ------- ---- -- --- ------- --<br>------- ---------- ------ -- ----- -- ----- -- ---- ------<br>--- ----- --- --- ------ -------- ----- --- ------ ----- --<br>----- ----- ---------- --- --- ------ ------ ---- -- ------<br>------- --- ------ ----- --- ---- ------- -- ---- --- --<br>raising ------,204885,204888,204448,204442,204466,204919,,54,raising
screen,html.Screen,1_1_1_1_55,2021-04-14T19:34:51.229Z,,,,,,,,,,,,,,,,54,,,,,,,,,,,,,,397,,response,,,,100,,,,,,,Space,keypress(Space),,,,,,,,-- --- ---- --- ------ ----- ------- ---- -- --- ------- --<br>------- ---------- ------ -- ----- -- ----- -- ---- ------<br>--- ----- --- --- ------ -------- ----- --- ------ ----- --<br>----- ----- ---------- --- --- ------ ------ ---- -- ------<br>------- --- ------ ----- --- ---- ------- -- ---- --- --<br>------- money.,205297,205300,204903,204885,204919,205340,,55,money.
Item 100,flow.Loop,1_1_1_1,2021-04-14T19:34:51.229Z,,,,,,,,,,,,,,,,,,,,,,,,,,,,,,34723,,completion,,,,,B,,,,,,,,,,,silence,,,,,205297,205300,170559,170560,170577,205340,,,
Question 1,html.Screen,1_1_1_2,2021-04-14T19:34:53.717Z,,,,,,,,,,,,,,,,,,,,,,,,,,,true,TRUE,,2465.000000000029,,response,,,,100,B,,,,,,TRUE,click #choice-1,,,,silence,,,,,207785,207789.00000000003,205324,205298,205340,207810,,,
Question 2,html.Screen,1_1_1_3,2021-04-14T19:34:57.776Z,,,,,,,,,,,,,,,,,,,,,,,,,,,true,FALSE,,4055.000000000029,,response,,,,100,B,,,,,,FALSE,click #choice-2,,,,silence,,,,,211844,211849.00000000003,207794,207786,207810,211872,,,
Item 100,flow.Sequence,1_1_1,2021-04-14T19:34:57.776Z,,,,,,,,,,,,,,,,,,,,,,,,,,,,,,51270.00000000003,,completion,,,,,,,,,,,,,,,,,,,,,211844,211849.00000000003,160559,160541,160579,211872,,,
End of Practice,html.Page,1_1_2,2021-04-14T19:35:00.186Z,,,,,,,,,,,,,,,,,,,,,,,,,,,,,,2382,,form submission,,,,,,,,,,,,,,,,,,,,,214254,214254,211856,211845,211872,214283,,,
Practice,flow.Sequence,1_1,2021-04-14T19:35:00.186Z,,,,,,,,,,,,,,,,,,,,,,,,,,,,,,107096,,completion,,,,,,,,,,,,,,,,,,,,,214254,214254,107141,107125,107158,214283,,,
Trap_instruction,html.Page,1_2_0,2021-04-14T19:35:07.219Z,,,,,,,,,,,,,,,,,,,,,,,,,,,,,,7004,,form submission,,,,,,,,,,,,,,,,,,,,,221287,221287,214266,214254,214283,221306,,,
trap_trial,html.Screen,1_2_1,2021-04-14T19:35:10.658Z,,,,,,,,,,,,,,,,,,,,,,,,,,,true,1,,3432,,response,,,,,,,,,,,1,click #choice-1,,,,,,,,,224726,224731,221299,221287,221306,224767,,,
end of trap trial,html.Page,1_2_2,2021-04-14T19:35:12.674Z,,,,,,,,,,,,,,,,,,,,,,,,,,,,,,1976,,form submission,,,,,,,,,,,,,,,,,,,,,226743,226743,224765,224727,224767,226775,,,
Trap 1,flow.Sequence,1_2,2021-04-14T19:35:12.675Z,,,,,,,,,,,,,,,,,,,,,,,,,,,,,,12460,,completion,,,,,,,,,,,,,,,,,,,,,226743,226743,214266,214254,214283,226775,,,
Standby,html.Page,1_3_0,2021-04-14T19:35:20.694Z,,,,,,,,,,,,,,,,,,,,,,,,,,,,,,8005,,timeout,,,,,,,,,,,,,,,,,,,,,234762,234762,226759,226743,226775,234780,,,
Holding screen,html.Screen,1_3_1_0_0,2021-04-14T19:35:27.698Z,,,,,,,,,,,,,,,,,,,,,,,,,,,,,,7003,,timeout,,,,,,,,,,,,,,,,,,,,,241767,241767,234762,234763,234780,241783,,,
screen,html.Screen,1_3_1_0_1_0,2021-04-14T19:35:28.542Z,,,,,,,,,,,,,,,,15,,,,,,,,,,,,,,847,,response,,,,7,B,,,,,,Space,keypress(Space),,,,lyrical,,,,Greg --------- ---------- - --- ------- -- --- ------------<br>----- -- -------- ------- ---- ------ - -------- ---- -----<br>--- ------- ---- -- --- -------- --- - ----- ------ ---- --<br>-------- --- -------- -------- --- -------- ---- -- ----- -<br>-------- ---- --- ---------- --------- -- ------- ------ -<br>--------- ----- -----,242611.00000000003,242614,241767,241768,241783,242639,,0,Greg
screen,html.Screen,1_3_1_0_1_1,2021-04-14T19:35:29.096Z,,,,,,,,,,,,,,,,15,,,,,,,,,,,,,,548,,response,,,,7,B,,,,,,Space,keypress(Space),,,,lyrical,,,,"---- Anderson, ---------- - --- ------- -- --- ------------<br>----- -- -------- ------- ---- ------ - -------- ---- -----<br>--- ------- ---- -- --- -------- --- - ----- ------ ---- --<br>-------- --- -------- -------- --- -------- ---- -- ----- -<br>-------- ---- --- ---------- --------- -- ------- ------ -<br>--------- ----- -----",243165,243169,242621,242611.00000000003,242639,243194,,1,"Anderson,"
screen,html.Screen,1_3_1_0_1_2,2021-04-14T19:35:29.647Z,,,,,,,,,,,,,,,,15,,,,,,,,,,,,,,545,,response,,,,7,B,,,,,,Space,keypress(Space),,,,lyrical,,,,---- --------- considered - --- ------- -- --- ------------<br>----- -- -------- ------- ---- ------ - -------- ---- -----<br>--- ------- ---- -- --- -------- --- - ----- ------ ---- --<br>-------- --- -------- -------- --- -------- ---- -- ----- -<br>-------- ---- --- ---------- --------- -- ------- ------ -<br>--------- ----- -----,243717,243721,243176,243165,243194,243748,,2,considered
screen,html.Screen,1_3_1_0_1_3,2021-04-14T19:35:30.048Z,,,,,,,,,,,,,,,,15,,,,,,,,,,,,,,390,,response,,,,7,B,,,,,,Space,keypress(Space),,,,lyrical,,,,---- --------- ---------- a --- ------- -- --- ------------<br>----- -- -------- ------- ---- ------ - -------- ---- -----<br>--- ------- ---- -- --- -------- --- - ----- ------ ---- --<br>-------- --- -------- -------- --- -------- ---- -- ----- -<br>-------- ---- --- ---------- --------- -- ------- ------ -<br>--------- ----- -----,244117.00000000003,244122,243732,243717,243748,244136,,3,a
screen,html.Screen,1_3_1_0_1_4,2021-04-14T19:35:30.496Z,,,,,,,,,,,,,,,,15,,,,,,,,,,,,,,451,,response,,,,7,B,,,,,,Space,keypress(Space),,,,lyrical,,,,---- --------- ---------- - key ------- -- --- ------------<br>----- -- -------- ------- ---- ------ - -------- ---- -----<br>--- ------- ---- -- --- -------- --- - ----- ------ ---- --<br>-------- --- -------- -------- --- -------- ---- -- ----- -<br>-------- ---- --- ---------- --------- -- ------- ------ -<br>--------- ----- -----,244565,244570,244119,244117.00000000003,244136,244608,,4,key
screen,html.Screen,1_3_1_0_1_5,2021-04-14T19:35:31.005Z,,,,,,,,,,,,,,,,15,,,,,,,,,,,,,,488,,response,,,,7,B,,,,,,Space,keypress(Space),,,,lyrical,,,,---- --------- ---------- - --- witness -- --- ------------<br>----- -- -------- ------- ---- ------ - -------- ---- -----<br>--- ------- ---- -- --- -------- --- - ----- ------ ---- --<br>-------- --- -------- -------- --- -------- ---- -- ----- -<br>-------- ---- --- ---------- --------- -- ------- ------ -<br>--------- ----- -----,245075.00000000003,245079,244591,244566,244608,245112,,5,witness
screen,html.Screen,1_3_1_0_1_6,2021-04-14T19:35:31.391Z,,,,,,,,,,,,,,,,15,,,,,,,,,,,,,,370,,response,,,,7,B,,,,,,Space,keypress(Space),,,,lyrical,,,,---- --------- ---------- - --- ------- by --- ------------<br>----- -- -------- ------- ---- ------ - -------- ---- -----<br>--- ------- ---- -- --- -------- --- - ----- ------ ---- --<br>-------- --- -------- -------- --- -------- ---- -- ----- -<br>-------- ---- --- ---------- --------- -- ------- ------ -<br>--------- ----- -----,245461,245465,245095,245075.00000000003,245112,245483,,6,by
screen,html.Screen,1_3_1_0_1_7,2021-04-14T19:35:31.753Z,,,,,,,,,,,,,,,,15,,,,,,,,,,,,,,360,,response,,,,7,B,,,,,,Space,keypress(Space),,,,lyrical,,,,---- --------- ---------- - --- ------- -- the ------------<br>----- -- -------- ------- ---- ------ - -------- ---- -----<br>--- ------- ---- -- --- -------- --- - ----- ------ ---- --<br>-------- --- -------- -------- --- -------- ---- -- ----- -<br>-------- ---- --- ---------- --------- -- ------- ------ -<br>--------- ----- -----,245822,245826,245466,245461,245483,245854,,7,the
screen,html.Screen,1_3_1_0_1_8,2021-04-14T19:35:32.197Z,,,,,,,,,,,,,,,,15,,,,,,,,,,,,,,432,,response,,,,7,B,,,,,,Space,keypress(Space),,,,lyrical,,,,"---- --------- ---------- - --- ------- -- --- prosecution,<br>----- -- -------- ------- ---- ------ - -------- ---- -----<br>--- ------- ---- -- --- -------- --- - ----- ------ ---- --<br>-------- --- -------- -------- --- -------- ---- -- ----- -<br>-------- ---- --- ---------- --------- -- ------- ------ -<br>--------- ----- -----",246266,246270,245838,245822,245854,246309,,8,"prosecution,"
screen,html.Screen,1_3_1_0_1_9,2021-04-14T19:35:33.232Z,,,,,,,,,,,,,,,,15,,,,,,,,,,,,,,1014,,response,,,,7,B,,,,,,Space,keypress(Space),,,,lyrical,,,,---- --------- ---------- - --- ------- -- --- ------------<br>vowed -- -------- ------- ---- ------ - -------- ---- -----<br>--- ------- ---- -- --- -------- --- - ----- ------ ---- --<br>-------- --- -------- -------- --- -------- ---- -- ----- -<br>-------- ---- --- ---------- --------- -- ------- ------ -<br>--------- ----- -----,247302,247306,246292,246266,246309,247329,,9,vowed
screen,html.Screen,1_3_1_0_1_10,2021-04-14T19:35:33.831Z,,,,,,,,,,,,,,,,15,,,,,,,,,,,,,,592,,response,,,,7,B,,,,,,Space,keypress(Space),,,,lyrical,,,,---- --------- ---------- - --- ------- -- --- ------------<br>----- he -------- ------- ---- ------ - -------- ---- -----<br>--- ------- ---- -- --- -------- --- - ----- ------ ---- --<br>-------- --- -------- -------- --- -------- ---- -- ----- -<br>-------- ---- --- ---------- --------- -- ------- ------ -<br>--------- ----- -----,247901,247905,247313,247302,247329,247935,,10,he
screen,html.Screen,1_3_1_0_1_11,2021-04-14T19:35:34.288Z,,,,,,,,,,,,,,,,15,,,,,,,,,,,,,,445,,response,,,,7,B,,,,,,Space,keypress(Space),,,,lyrical,,,,---- --------- ---------- - --- ------- -- --- ------------<br>----- -- wouldn't ------- ---- ------ - -------- ---- -----<br>--- ------- ---- -- --- -------- --- - ----- ------ ---- --<br>-------- --- -------- -------- --- -------- ---- -- ----- -<br>-------- ---- --- ---------- --------- -- ------- ------ -<br>--------- ----- -----,248357,248362,247917,247901,247935,248389,,11,wouldn't
screen,html.Screen,1_3_1_0_1_12,2021-04-14T19:35:34.774Z,,,,,,,,,,,,,,,,15,,,,,,,,,,,,,,475,,response,,,,7,B,,,,,,Space,keypress(Space),,,,lyrical,,,,---- --------- ---------- - --- ------- -- --- ------------<br>----- -- -------- testify ---- ------ - -------- ---- -----<br>--- ------- ---- -- --- -------- --- - ----- ------ ---- --<br>-------- --- -------- -------- --- -------- ---- -- ----- -<br>-------- ---- --- ---------- --------- -- ------- ------ -<br>--------- ----- -----,248843.00000000003,248848,248373,248357,248389,248878,,12,testify
screen,html.Screen,1_3_1_0_1_13,2021-04-14T19:35:35.582Z,,,,,,,,,,,,,,,,15,,,,,,,,,,,,,,795,,response,,,,7,B,,,,,,Space,keypress(Space),,,,lyrical,,,,---- --------- ---------- - --- ------- -- --- ------------<br>----- -- -------- ------- when ------ - -------- ---- -----<br>--- ------- ---- -- --- -------- --- - ----- ------ ---- --<br>-------- --- -------- -------- --- -------- ---- -- ----- -<br>-------- ---- --- ---------- --------- -- ------- ------ -<br>--------- ----- -----,249651,249656,248861,248843.00000000003,248878,249682,,13,when
screen,html.Screen,1_3_1_0_1_14,2021-04-14T19:35:36.115Z,,,,,,,,,,,,,,,,15,,,,,,,,,,,,,,523,,response,,,,7,B,,,,,,Space,keypress(Space),,,,lyrical,,,,---- --------- ---------- - --- ------- -- --- ------------<br>----- -- -------- ------- ---- served - -------- ---- -----<br>--- ------- ---- -- --- -------- --- - ----- ------ ---- --<br>-------- --- -------- -------- --- -------- ---- -- ----- -<br>-------- ---- --- ---------- --------- -- ------- ------ -<br>--------- ----- -----,250185,250189,249666,249652.00000000003,249682,250221,,14,served
screen,html.Screen,1_3_1_0_1_15,2021-04-14T19:35:36.658Z,,,,,,,,,,,,,,,,15,,,,,,,,,,,,,,528,,response,,,,7,B,,,,,,Space,keypress(Space),,,,lyrical,,,,---- --------- ---------- - --- ------- -- --- ------------<br>----- -- -------- ------- ---- ------ a -------- ---- -----<br>--- ------- ---- -- --- -------- --- - ----- ------ ---- --<br>-------- --- -------- -------- --- -------- ---- -- ----- -<br>-------- ---- --- ---------- --------- -- ------- ------ -<br>--------- ----- -----,250727,250732,250204,250185,250221,250759,,15,a
screen,html.Screen,1_3_1_0_1_16,2021-04-14T19:35:37.762Z,,,,,,,,,,,,,,,,15,,,,,,,,,,,,,,1093,,response,,,,7,B,,,,,,Space,keypress(Space),,,,lyrical,,,,---- --------- ---------- - --- ------- -- --- ------------<br>----- -- -------- ------- ---- ------ - subpoena ---- -----<br>--- ------- ---- -- --- -------- --- - ----- ------ ---- --<br>-------- --- -------- -------- --- -------- ---- -- ----- -<br>-------- ---- --- ---------- --------- -- ------- ------ -<br>--------- ----- -----,251831.00000000003,251836,250743,250727,250759,251864,,16,subpoena
screen,html.Screen,1_3_1_0_1_17,2021-04-14T19:35:38.105Z,,,,,,,,,,,,,,,,15,,,,,,,,,,,,,,332,,response,,,,7,B,,,,,,Space,keypress(Space),,,,lyrical,,,,---- --------- ---------- - --- ------- -- --- ------------<br>----- -- -------- ------- ---- ------ - -------- last -----<br>--- ------- ---- -- --- -------- --- - ----- ------ ---- --<br>-------- --- -------- -------- --- -------- ---- -- ----- -<br>-------- ---- --- ---------- --------- -- ------- ------ -<br>--------- ----- -----,252174,252179,251847,251832,251864,252202,,17,last
screen,html.Screen,1_3_1_0_1_18,2021-04-14T19:35:39.183Z,,,,,,,,,,,,,,,,15,,,,,,,,,,,,,,1071,,response,,,,7,B,,,,,,Space,keypress(Space),,,,lyrical,,,,---- --------- ---------- - --- ------- -- --- ------------<br>----- -- -------- ------- ---- ------ - -------- ---- week.<br>--- ------- ---- -- --- -------- --- - ----- ------ ---- --<br>-------- --- -------- -------- --- -------- ---- -- ----- -<br>-------- ---- --- ---------- --------- -- ------- ------ -<br>--------- ----- -----,253252,253257,252186,252174,252202,253290,,18,week.
screen,html.Screen,1_3_1_0_1_19,2021-04-14T19:35:39.799Z,,,,,,,,,,,,,,,,15,,,,,,,,,,,,,,599.0000000000291,,response,,,,7,B,,,,,,Space,keypress(Space),,,,lyrical,,,,---- --------- ---------- - --- ------- -- --- ------------<br>----- -- -------- ------- ---- ------ - -------- ---- -----<br>His ------- ---- -- --- -------- --- - ----- ------ ---- --<br>-------- --- -------- -------- --- -------- ---- -- ----- -<br>-------- ---- --- ---------- --------- -- ------- ------ -<br>--------- ----- -----,253868,253873.00000000003,253274,253253,253290,253896,,19,His
screen,html.Screen,1_3_1_0_1_20,2021-04-14T19:35:40.506Z,,,,,,,,,,,,,,,,15,,,,,,,,,,,,,,701,,response,,,,7,B,,,,,,Space,keypress(Space),,,,lyrical,,,,---- --------- ---------- - --- ------- -- --- ------------<br>----- -- -------- ------- ---- ------ - -------- ---- -----<br>--- lawyers ---- -- --- -------- --- - ----- ------ ---- --<br>-------- --- -------- -------- --- -------- ---- -- ----- -<br>-------- ---- --- ---------- --------- -- ------- ------ -<br>--------- ----- -----,254575.00000000003,254580,253879,253869,253896,254617,,20,lawyers
screen,html.Screen,1_3_1_0_1_21,2021-04-14T19:35:41.044Z,,,,,,,,,,,,,,,,15,,,,,,,,,,,,,,517,,response,,,,7,B,,,,,,Space,keypress(Space),,,,lyrical,,,,---- --------- ---------- - --- ------- -- --- ------------<br>----- -- -------- ------- ---- ------ - -------- ---- -----<br>--- ------- said -- --- -------- --- - ----- ------ ---- --<br>-------- --- -------- -------- --- -------- ---- -- ----- -<br>-------- ---- --- ---------- --------- -- ------- ------ -<br>--------- ----- -----,255114,255118,254601,254575.00000000003,254617,255155,,21,said
screen,html.Screen,1_3_1_0_1_22,2021-04-14T19:35:41.537Z,,,,,,,,,,,,,,,,15,,,,,,,,,,,,,,474,,response,,,,7,B,,,,,,Space,keypress(Space),,,,lyrical,,,,---- --------- ---------- - --- ------- -- --- ------------<br>----- -- -------- ------- ---- ------ - -------- ---- -----<br>--- ------- ---- he --- -------- --- - ----- ------ ---- --<br>-------- --- -------- -------- --- -------- ---- -- ----- -<br>-------- ---- --- ---------- --------- -- ------- ------ -<br>--------- ----- -----,255607,255612,255138,255114,255155,255642,,22,he
screen,html.Screen,1_3_1_0_1_23,2021-04-14T19:35:41.952Z,,,,,,,,,,,,,,,,15,,,,,,,,,,,,,,400,,response,,,,7,B,,,,,,Space,keypress(Space),,,,lyrical,,,,---- --------- ---------- - --- ------- -- --- ------------<br>----- -- -------- ------- ---- ------ - -------- ---- -----<br>--- ------- ---- -- was -------- --- - ----- ------ ---- --<br>-------- --- -------- -------- --- -------- ---- -- ----- -<br>-------- ---- --- ---------- --------- -- ------- ------ -<br>--------- ----- -----,256021.00000000003,256026,255626,255607,255642,256064,,23,was
screen,html.Screen,1_3_1_0_1_24,2021-04-14T19:35:42.519Z,,,,,,,,,,,,,,,,15,,,,,,,,,,,,,,547,,response,,,,7,B,,,,,,Space,keypress(Space),,,,lyrical,,,,---- --------- ---------- - --- ------- -- --- ------------<br>----- -- -------- ------- ---- ------ - -------- ---- -----<br>--- ------- ---- -- --- prepared --- - ----- ------ ---- --<br>-------- --- -------- -------- --- -------- ---- -- ----- -<br>-------- ---- --- ---------- --------- -- ------- ------ -<br>--------- ----- -----,256589,256594,256047,256022,256064,256618,,24,prepared
screen,html.Screen,1_3_1_0_1_25,2021-04-14T19:35:43.040Z,,,,,,,,,,,,,,,,15,,,,,,,,,,,,,,514.0000000000291,,response,,,,7,B,,,,,,Space,keypress(Space),,,,lyrical,,,,---- --------- ---------- - --- ------- -- --- ------------<br>----- -- -------- ------- ---- ------ - -------- ---- -----<br>--- ------- ---- -- --- -------- for - ----- ------ ---- --<br>-------- --- -------- -------- --- -------- ---- -- ----- -<br>-------- ---- --- ---------- --------- -- ------- ------ -<br>--------- ----- -----,257108.99999999997,257114.00000000003,256600,256589,256618,257138,,25,for
screen,html.Screen,1_3_1_0_1_26,2021-04-14T19:35:43.508Z,,,,,,,,,,,,,,,,15,,,,,,,,,,,,,,460,,response,,,,7,B,,,,,,Space,keypress(Space),,,,lyrical,,,,---- --------- ---------- - --- ------- -- --- ------------<br>----- -- -------- ------- ---- ------ - -------- ---- -----<br>--- ------- ---- -- --- -------- --- a ----- ------ ---- --<br>-------- --- -------- -------- --- -------- ---- -- ----- -<br>-------- ---- --- ---------- --------- -- ------- ------ -<br>--------- ----- -----,257577,257582,257122,257108.99999999997,257138,257610,,26,a
screen,html.Screen,1_3_1_0_1_27,2021-04-14T19:35:44.098Z,,,,,,,,,,,,,,,,15,,,,,,,,,,,,,,580,,response,,,,7,B,,,,,,Space,keypress(Space),,,,lyrical,,,,---- --------- ---------- - --- ------- -- --- ------------<br>----- -- -------- ------- ---- ------ - -------- ---- -----<br>--- ------- ---- -- --- -------- --- - third ------ ---- --<br>-------- --- -------- -------- --- -------- ---- -- ----- -<br>-------- ---- --- ---------- --------- -- ------- ------ -<br>--------- ----- -----,258167.00000000003,258173,257593,257577,257610,258198,,27,third
screen,html.Screen,1_3_1_0_1_28,2021-04-14T19:35:44.816Z,,,,,,,,,,,,,,,,15,,,,,,,,,,,,,,710.0000000000291,,response,,,,7,B,,,,,,Space,keypress(Space),,,,lyrical,,,,---- --------- ---------- - --- ------- -- --- ------------<br>----- -- -------- ------- ---- ------ - -------- ---- -----<br>--- ------- ---- -- --- -------- --- - ----- prison ---- --<br>-------- --- -------- -------- --- -------- ---- -- ----- -<br>-------- ---- --- ---------- --------- -- ------- ------ -<br>--------- ----- -----,258886.00000000003,258891.00000000003,258181,258168,258198,258919,,28,prison
screen,html.Screen,1_3_1_0_1_29,2021-04-14T19:35:45.701Z,,,,,,,,,,,,,,,,15,,,,,,,,,,,,,,874,,response,,,,7,B,,,,,,Space,keypress(Space),,,,lyrical,,,,---- --------- ---------- - --- ------- -- --- ------------<br>----- -- -------- ------- ---- ------ - -------- ---- -----<br>--- ------- ---- -- --- -------- --- - ----- ------ stay --<br>-------- --- -------- -------- --- -------- ---- -- ----- -<br>-------- ---- --- ---------- --------- -- ------- ------ -<br>--------- ----- -----,259771.00000000003,259776,258902,258886.00000000003,258919,259807,,29,stay
screen,html.Screen,1_3_1_0_1_30,2021-04-14T19:35:46.218Z,,,,,,,,,,,,,,,,15,,,,,,,,,,,,,,503,,response,,,,7,B,,,,,,Space,keypress(Space),,,,lyrical,,,,---- --------- ---------- - --- ------- -- --- ------------<br>----- -- -------- ------- ---- ------ - -------- ---- -----<br>--- ------- ---- -- --- -------- --- - ----- ------ ---- to<br>-------- --- -------- -------- --- -------- ---- -- ----- -<br>-------- ---- --- ---------- --------- -- ------- ------ -<br>--------- ----- -----,260288,260293,259790,259771.00000000003,259807,260328,,30,to
screen,html.Screen,1_3_1_0_1_31,2021-04-14T19:35:46.851Z,,,,,,,,,,,,,,,,15,,,,,,,,,,,,,,615,,response,,,,7,B,,,,,,Space,keypress(Space),,,,lyrical,,,,---- --------- ---------- - --- ------- -- --- ------------<br>----- -- -------- ------- ---- ------ - -------- ---- -----<br>--- ------- ---- -- --- -------- --- - ----- ------ ---- --<br>maintain --- -------- -------- --- -------- ---- -- ----- -<br>-------- ---- --- ---------- --------- -- ------- ------ -<br>--------- ----- -----,260921,260926,260311,260288,260328,260949,,31,maintain
screen,html.Screen,1_3_1_0_1_32,2021-04-14T19:35:47.446Z,,,,,,,,,,,,,,,,15,,,,,,,,,,,,,,586.9999999999709,,response,,,,7,B,,,,,,Space,keypress(Space),,,,lyrical,,,,---- --------- ---------- - --- ------- -- --- ------------<br>----- -- -------- ------- ---- ------ - -------- ---- -----<br>--- ------- ---- -- --- -------- --- - ----- ------ ---- --<br>-------- his -------- -------- --- -------- ---- -- ----- -<br>-------- ---- --- ---------- --------- -- ------- ------ -<br>--------- ----- -----,261515,261519.99999999997,260933,260921,260949,261554,,32,his
screen,html.Screen,1_3_1_0_1_33,2021-04-14T19:35:49.501Z,,,,,,,,,,,,,,,,15,,,,,,,,,,,,,,2038,,response,,,,7,B,,,,,,Space,keypress(Space),,,,lyrical,,,,---- --------- ---------- - --- ------- -- --- ------------<br>----- -- -------- ------- ---- ------ - -------- ---- -----<br>--- ------- ---- -- --- -------- --- - ----- ------ ---- --<br>-------- --- silence. -------- --- -------- ---- -- ----- -<br>-------- ---- --- ---------- --------- -- ------- ------ -<br>--------- ----- -----,263571,263576,261538,261515,261554,263609,,33,silence.
screen,html.Screen,1_3_1_0_1_34,2021-04-14T19:35:50.022Z,,,,,,,,,,,,,,,,15,,,,,,,,,,,,,,504,,response,,,,7,B,,,,,,Space,keypress(Space),,,,lyrical,,,,---- --------- ---------- - --- ------- -- --- ------------<br>----- -- -------- ------- ---- ------ - -------- ---- -----<br>--- ------- ---- -- --- -------- --- - ----- ------ ---- --<br>-------- --- -------- Anderson --- -------- ---- -- ----- -<br>-------- ---- --- ---------- --------- -- ------- ------ -<br>--------- ----- -----,264092,264097,263593,263571,263609,264130,,34,Anderson
screen,html.Screen,1_3_1_0_1_35,2021-04-14T19:35:50.412Z,,,,,,,,,,,,,,,,15,,,,,,,,,,,,,,373,,response,,,,7,B,,,,,,Space,keypress(Space),,,,lyrical,,,,---- --------- ---------- - --- ------- -- --- ------------<br>----- -- -------- ------- ---- ------ - -------- ---- -----<br>--- ------- ---- -- --- -------- --- - ----- ------ ---- --<br>-------- --- -------- -------- was -------- ---- -- ----- -<br>-------- ---- --- ---------- --------- -- ------- ------ -<br>--------- ----- -----,264482,264487,264114,264092,264130,264503,,35,was
screen,html.Screen,1_3_1_0_1_36,2021-04-14T19:35:50.864Z,,,,,,,,,,,,,,,,15,,,,,,,,,,,,,,452,,response,,,,7,B,,,,,,Space,keypress(Space),,,,lyrical,,,,---- --------- ---------- - --- ------- -- --- ------------<br>----- -- -------- ------- ---- ------ - -------- ---- -----<br>--- ------- ---- -- --- -------- --- - ----- ------ ---- --<br>-------- --- -------- -------- --- released ---- -- ----- -<br>-------- ---- --- ---------- --------- -- ------- ------ -<br>--------- ----- -----,264933,264938,264486,264482,264503,264973,,36,released
screen,html.Screen,1_3_1_0_1_37,2021-04-14T19:35:51.286Z,,,,,,,,,,,,,,,,15,,,,,,,,,,,,,,404,,response,,,,7,B,,,,,,Space,keypress(Space),,,,lyrical,,,,---- --------- ---------- - --- ------- -- --- ------------<br>----- -- -------- ------- ---- ------ - -------- ---- -----<br>--- ------- ---- -- --- -------- --- - ----- ------ ---- --<br>-------- --- -------- -------- --- -------- July -- ----- -<br>-------- ---- --- ---------- --------- -- ------- ------ -<br>--------- ----- -----,265356,265361,264957,264933,264973,265394,,37,July
screen,html.Screen,1_3_1_0_1_38,2021-04-14T19:35:51.760Z,,,,,,,,,,,,,,,,15,,,,,,,,,,,,,,457,,response,,,,7,B,,,,,,Space,keypress(Space),,,,lyrical,,,,---- --------- ---------- - --- ------- -- --- ------------<br>----- -- -------- ------- ---- ------ - -------- ---- -----<br>--- ------- ---- -- --- -------- --- - ----- ------ ---- --<br>-------- --- -------- -------- --- -------- ---- 20 ----- -<br>-------- ---- --- ---------- --------- -- ------- ------ -<br>--------- ----- -----,265830,265835,265378,265356,265394,265866,,38,20
screen,html.Screen,1_3_1_0_1_39,2021-04-14T19:35:52.342Z,,,,,,,,,,,,,,,,15,,,,,,,,,,,,,,567,,response,,,,7,B,,,,,,Space,keypress(Space),,,,lyrical,,,,---- --------- ---------- - --- ------- -- --- ------------<br>----- -- -------- ------- ---- ------ - -------- ---- -----<br>--- ------- ---- -- --- -------- --- - ----- ------ ---- --<br>-------- --- -------- -------- --- -------- ---- -- after -<br>-------- ---- --- ---------- --------- -- ------- ------ -<br>--------- ----- -----,266411,266416,265849,265830,265866,266453,,39,after
screen,html.Screen,1_3_1_0_1_40,2021-04-14T19:35:52.736Z,,,,,,,,,,,,,,,,15,,,,,,,,,,,,,,375,,response,,,,7,B,,,,,,Space,keypress(Space),,,,lyrical,,,,---- --------- ---------- - --- ------- -- --- ------------<br>----- -- -------- ------- ---- ------ - -------- ---- -----<br>--- ------- ---- -- --- -------- --- - ----- ------ ---- --<br>-------- --- -------- -------- --- -------- ---- -- ----- a<br>-------- ---- --- ---------- --------- -- ------- ------ -<br>--------- ----- -----,266805,266811,266436,266412,266453,266824,,40,a
screen,html.Screen,1_3_1_0_1_41,2021-04-14T19:35:53.146Z,,,,,,,,,,,,,,,,15,,,,,,,,,,,,,,414,,response,,,,7,B,,,,,,Space,keypress(Space),,,,lyrical,,,,---- --------- ---------- - --- ------- -- --- ------------<br>----- -- -------- ------- ---- ------ - -------- ---- -----<br>--- ------- ---- -- --- -------- --- - ----- ------ ---- --<br>-------- --- -------- -------- --- -------- ---- -- ----- -<br>two-week ---- --- ---------- --------- -- ------- ------ -<br>--------- ----- -----,267216,267221,266807,266805,266824,267247,,41,two-week
screen,html.Screen,1_3_1_0_1_42,2021-04-14T19:35:53.737Z,,,,,,,,,,,,,,,,15,,,,,,,,,,,,,,583,,response,,,,7,B,,,,,,Space,keypress(Space),,,,lyrical,,,,---- --------- ---------- - --- ------- -- --- ------------<br>----- -- -------- ------- ---- ------ - -------- ---- -----<br>--- ------- ---- -- --- -------- --- - ----- ------ ---- --<br>-------- --- -------- -------- --- -------- ---- -- ----- -<br>-------- stay --- ---------- --------- -- ------- ------ -<br>--------- ----- -----,267807,267812,267229,267216,267247,267834,,42,stay
screen,html.Screen,1_3_1_0_1_43,2021-04-14T19:35:54.125Z,,,,,,,,,,,,,,,,15,,,,,,,,,,,,,,382,,response,,,,7,B,,,,,,Space,keypress(Space),,,,lyrical,,,,---- --------- ---------- - --- ------- -- --- ------------<br>----- -- -------- ------- ---- ------ - -------- ---- -----<br>--- ------- ---- -- --- -------- --- - ----- ------ ---- --<br>-------- --- -------- -------- --- -------- ---- -- ----- -<br>-------- ---- for ---------- --------- -- ------- ------ -<br>--------- ----- -----,268195,268200,267818,267807,267834,268223,,43,for
screen,html.Screen,1_3_1_0_1_44,2021-04-14T19:35:54.556Z,,,,,,,,,,,,,,,,15,,,,,,,,,,,,,,425,,response,,,,7,B,,,,,,Space,keypress(Space),,,,lyrical,,,,---- --------- ---------- - --- ------- -- --- ------------<br>----- -- -------- ------- ---- ------ - -------- ---- -----<br>--- ------- ---- -- --- -------- --- - ----- ------ ---- --<br>-------- --- -------- -------- --- -------- ---- -- ----- -<br>-------- ---- --- previously --------- -- ------- ------ -<br>--------- ----- -----,268626.00000000006,268631,268206,268195,268223,268660,,44,previously
screen,html.Screen,1_3_1_0_1_45,2021-04-14T19:35:55.104Z,,,,,,,,,,,,,,,,15,,,,,,,,,,,,,,535.0000000000582,,response,,,,7,B,,,,,,Space,keypress(Space),,,,lyrical,,,,---- --------- ---------- - --- ------- -- --- ------------<br>----- -- -------- ------- ---- ------ - -------- ---- -----<br>--- ------- ---- -- --- -------- --- - ----- ------ ---- --<br>-------- --- -------- -------- --- -------- ---- -- ----- -<br>-------- ---- --- ---------- declining -- ------- ------ -<br>--------- ----- -----,269174,269179.00000000006,268644,268626.00000000006,268660,269214,,45,declining
screen,html.Screen,1_3_1_0_1_46,2021-04-14T19:35:55.514Z,,,,,,,,,,,,,,,,15,,,,,,,,,,,,,,392.0000000000582,,response,,,,7,B,,,,,,Space,keypress(Space),,,,lyrical,,,,---- --------- ---------- - --- ------- -- --- ------------<br>----- -- -------- ------- ---- ------ - -------- ---- -----<br>--- ------- ---- -- --- -------- --- - ----- ------ ---- --<br>-------- --- -------- -------- --- -------- ---- -- ----- -<br>-------- ---- --- ---------- --------- to ------- ------ -<br>--------- ----- -----,269584,269590.00000000006,269198,269174,269214,269618,,46,to
screen,html.Screen,1_3_1_0_1_47,2021-04-14T19:35:55.850Z,,,,,,,,,,,,,,,,15,,,,,,,,,,,,,,323,,response,,,,7,B,,,,,,Space,keypress(Space),,,,lyrical,,,,---- --------- ---------- - --- ------- -- --- ------------<br>----- -- -------- ------- ---- ------ - -------- ---- -----<br>--- ------- ---- -- --- -------- --- - ----- ------ ---- --<br>-------- --- -------- -------- --- -------- ---- -- ----- -<br>-------- ---- --- ---------- --------- -- testify ------ -<br>--------- ----- -----,269920,269925,269602,269584,269618,269939,,47,testify
screen,html.Screen,1_3_1_0_1_48,2021-04-14T19:35:56.268Z,,,,,,,,,,,,,,,,15,,,,,,,,,,,,,,420,,response,,,,7,B,,,,,,Space,keypress(Space),,,,lyrical,,,,---- --------- ---------- - --- ------- -- --- ------------<br>----- -- -------- ------- ---- ------ - -------- ---- -----<br>--- ------- ---- -- --- -------- --- - ----- ------ ---- --<br>-------- --- -------- -------- --- -------- ---- -- ----- -<br>-------- ---- --- ---------- --------- -- ------- before -<br>--------- ----- -----,270338,270343,269923,269920,269939,270378,,48,before
screen,html.Screen,1_3_1_0_1_49,2021-04-14T19:35:56.656Z,,,,,,,,,,,,,,,,15,,,,,,,,,,,,,,370,,response,,,,7,B,,,,,,Space,keypress(Space),,,,lyrical,,,,---- --------- ---------- - --- ------- -- --- ------------<br>----- -- -------- ------- ---- ------ - -------- ---- -----<br>--- ------- ---- -- --- -------- --- - ----- ------ ---- --<br>-------- --- -------- -------- --- -------- ---- -- ----- -<br>-------- ---- --- ---------- --------- -- ------- ------ a<br>--------- ----- -----,270726,270731,270361,270338,270378,270749,,49,a
screen,html.Screen,1_3_1_0_1_50,2021-04-14T19:35:57.219Z,,,,,,,,,,,,,,,,15,,,,,,,,,,,,,,562,,response,,,,7,B,,,,,,Space,keypress(Space),,,,lyrical,,,,---- --------- ---------- - --- ------- -- --- ------------<br>----- -- -------- ------- ---- ------ - -------- ---- -----<br>--- ------- ---- -- --- -------- --- - ----- ------ ---- --<br>-------- --- -------- -------- --- -------- ---- -- ----- -<br>-------- ---- --- ---------- --------- -- ------- ------ -<br>different ----- -----,271289,271294,270732,270726,270749,271320,,50,different
screen,html.Screen,1_3_1_0_1_51,2021-04-14T19:35:57.779Z,,,,,,,,,,,,,,,,15,,,,,,,,,,,,,,551,,response,,,,7,B,,,,,,Space,keypress(Space),,,,lyrical,,,,---- --------- ---------- - --- ------- -- --- ------------<br>----- -- -------- ------- ---- ------ - -------- ---- -----<br>--- ------- ---- -- --- -------- --- - ----- ------ ---- --<br>-------- --- -------- -------- --- -------- ---- -- ----- -<br>-------- ---- --- ---------- --------- -- ------- ------ -<br>--------- grand -----,271849,271854,271303,271289,271320,271890,,51,grand
screen,html.Screen,1_3_1_0_1_52,2021-04-14T19:35:58.316Z,,,,,,,,,,,,,,,,15,,,,,,,,,,,,,,517,,response,,,,7,B,,,,,,Space,keypress(Space),,,,lyrical,,,,---- --------- ---------- - --- ------- -- --- ------------<br>----- -- -------- ------- ---- ------ - -------- ---- -----<br>--- ------- ---- -- --- -------- --- - ----- ------ ---- --<br>-------- --- -------- -------- --- -------- ---- -- ----- -<br>-------- ---- --- ---------- --------- -- ------- ------ -<br>--------- ----- jury.,272386,272391,271874,271849,271890,272429,,52,jury.
Item 7,flow.Loop,1_3_1_0_1,2021-04-14T19:35:58.316Z,,,,,,,,,,,,,,,,,,,,,,,,,,,,,,30608,,completion,,,,,,,,,,,,,,,,,,,,,272386,272391,241767,241768,241783,272429,,,
Question 1,html.Screen,1_3_1_0_2,2021-04-14T19:36:01.311Z,,,,,,,,,,,,,,,,,,,,,,,,,,,true,FALSE,,2974,,response,,,,7,B,,,,,,FALSE,click #choice-2,,,,lyrical,,,,,275382,275387,272413,272386,272429,275403,,,
Question 2,html.Screen,1_3_1_0_3,2021-04-14T19:36:04.088Z,,,,,,,,,,,,,,,,,,,,,,,,,,,true,TRUE,,2777,,response,,,,7,B,,,,,,TRUE,click #choice-1,,,,lyrical,,,,,278158,278163,275386,275382,275403,278178,,,
Item 7,flow.Sequence,1_3_1_0,2021-04-14T19:36:04.088Z,,,,,,,,,,,,,,,,,,,,,,,,,,,,,,43383,,completion,,,,,,,,,,,,,,,,,,,,,278158,278163,234762,234763,234780,278178,,,
Holding screen,html.Screen,1_3_1_1_0,2021-04-14T19:36:11.089Z,,,,,,,,,,,,,,,,,,,,,,,,,,,,,,6998,,timeout,,,,,,,,,,,,,,,,,,,,,285160,285159,278162,278158,278178,285176,,,
screen,html.Screen,1_3_1_1_1_0,2021-04-14T19:36:12.089Z,,,,,,,,,,,,,,,,11,,,,,,,,,,,,,,1006,,response,,,,4,B,,,,,,Space,keypress(Space),,,,lyrical,,,,Known -- ---- --- -- --- -------- ------------ ---------- --<br>- ------- ------ --------- -- ------------ -- --- ---- -----<br>------ ---- ---- ------ ------ ------- --- ----- ---------<br>---- --- -------- -------- --- --- -- ------- --- --- -----<br>-- --- ------ ------- --- --- -------- ---- --------- --<br>---------- -- -------- ----------------,286160,286165,285159,285160,285176,286198,,0,Known
screen,html.Screen,1_3_1_1_1_1,2021-04-14T19:36:12.516Z,,,,,,,,,,,,,,,,11,,,,,,,,,,,,,,411,,response,,,,4,B,,,,,,Space,keypress(Space),,,,lyrical,,,,----- as ---- --- -- --- -------- ------------ ---------- --<br>- ------- ------ --------- -- ------------ -- --- ---- -----<br>------ ---- ---- ------ ------ ------- --- ----- ---------<br>---- --- -------- -------- --- --- -- ------- --- --- -----<br>-- --- ------ ------- --- --- -------- ---- --------- --<br>---------- -- -------- ----------------,286586,286592,286181,286160,286198,286618,,1,as
screen,html.Screen,1_3_1_1_1_2,2021-04-14T19:36:13.417Z,,,,,,,,,,,,,,,,11,,,,,,,,,,,,,,893,,response,,,,4,B,,,,,,Space,keypress(Space),,,,lyrical,,,,----- -- Rapa --- -- --- -------- ------------ ---------- --<br>- ------- ------ --------- -- ------------ -- --- ---- -----<br>------ ---- ---- ------ ------ ------- --- ----- ---------<br>---- --- -------- -------- --- --- -- ------- --- --- -----<br>-- --- ------ ------- --- --- -------- ---- --------- --<br>---------- -- -------- ----------------,287488,287494,286601,286586,286618,287523,,2,Rapa
screen,html.Screen,1_3_1_1_1_3,2021-04-14T19:36:13.871Z,,,,,,,,,,,,,,,,11,,,,,,,,,,,,,,441,,response,,,,4,B,,,,,,Space,keypress(Space),,,,lyrical,,,,----- -- ---- Nui -- --- -------- ------------ ---------- --<br>- ------- ------ --------- -- ------------ -- --- ---- -----<br>------ ---- ---- ------ ------ ------- --- ----- ---------<br>---- --- -------- -------- --- --- -- ------- --- --- -----<br>-- --- ------ ------- --- --- -------- ---- --------- --<br>---------- -- -------- ----------------,287941.00000000006,287947,287506,287488,287523,287980,,3,Nui
screen,html.Screen,1_3_1_1_1_4,2021-04-14T19:36:14.385Z,,,,,,,,,,,,,,,,11,,,,,,,,,,,,,,499,,response,,,,4,B,,,,,,Space,keypress(Space),,,,lyrical,,,,----- -- ---- --- to --- -------- ------------ ---------- --<br>- ------- ------ --------- -- ------------ -- --- ---- -----<br>------ ---- ---- ------ ------ ------- --- ----- ---------<br>---- --- -------- -------- --- --- -- ------- --- --- -----<br>-- --- ------ ------- --- --- -------- ---- --------- --<br>---------- -- -------- ----------------,288455,288461,287962,287942,287980,288485,,4,to
