sender,sender_type,sender_id,timestamp,meta,,Blues,Classical,Country,Dance,Electronic,Folk,Gospel,Hip-Hop,Jazz,Latin,Musical/Film,New-age,Pop,Provo_ID,R&B,Rap,Reggae,Religious,Rock,Soul,Swing,Traditional,age,artist_name,correct,correctResponse,distraction,duration,education,ended_on,familiarity,gender,headphone_check_performance,item,list,music_frequency,offensiveness,pleasantness,position_correct,preference,response,response_action,snippet_file,song_name,song_rating,sound,stimulus_1,stimulus_2,stimulus_3,text,time_commit,time_end,time_render,time_run,time_show,time_switch,url,word,word_ID
Introduction,html.Screen,0_0,2021-04-27T18:21:11.554Z,"{""labjs_version"":""20.2.2"",""labjs_build"":{""flavor"":""production"",""commit"":""a25486e0c714a0ae2ce03ff94b7bb6896854dcfa""},""location"":""https://run.pavlovia.org/mvasilev/music_b/"",""userAgent"":""Mozilla/5.0 (Macintosh; Intel Mac OS X 10_15_7) AppleWebKit/537.36 (KHTML, like Gecko) Chrome/90.0.4430.85 Safari/537.36"",""platform"":""MacIntel"",""language"":""en-GB"",""locale"":""en-GB"",""timeZone"":""Europe/London"",""timezoneOffset"":-60,""screen_width"":1440,""screen_height"":900,""scroll_width"":1120,""scroll_height"":673,""window_innerWidth"":1120,""window_innerHeight"":721,""devicePixelRatio"":2}",,,,,,,,,,,,,,,,,,,,,,,,,,,,,1973.067000008899,,response,,,,,,,,,,,continue,click button,,,,,,,,,5930.959999997867,5925.555000008899,3935.822,3944.985000009183,3952.488,5930.986,{},,
Volume calibration,html.Screen,0_1,2021-04-27T18:21:17.101Z,,,,,,,,,,,,,,,,,,,,,,,,,,,,,,5539.489000009174,,response,,,,,,,,,,,continue,click button,,,,,,,,,11477.524999994785,11470.475000009174,5914.32,5931.445000009262,5930.986,11480.764,,,
Task instructions,html.Screen,0_2,2021-04-27T18:21:23.837Z,,,,,,,,,,,,,,,,,,,,,,,,,,,,,,6729.0460000002895,,response,,,,,,,,,,,continue,click button,,,,,,,,,18213.7800000055,18209.81000000029,11464.098,11477.920000004815,11480.764,18213.828,,,
Sounds,html.Screen,0_3_0_0,2021-04-27T18:21:28.072Z,,,,,,,,,,,,,,,,,,,,,,,,,,,,,,4244.9389999999985,,timeout,,,,,,,,,2,,,,,,,,O,S,I,,22448.64499999676,22442.101,18197.162,18214.294999997946,18213.828,22458.767,,,
Judgement,html.Screen,0_3_0_1,2021-04-27T18:21:28.817Z,,,,,,,,,,,,,,,,,,,,,,,,,,,true,2,,731.4630000074321,,response,,,,,,,,,2,,2,click #choice-2,,,,,O,S,I,,23194.214999995893,23190.230000007432,22442.101,22448.904999997467,22458.767,23208.737,,,
Trial,flow.Sequence,0_3_0,2021-04-27T18:21:28.818Z,,,,,,,,,,,,,,,,,,,,,,,,,,,,,,4976.402000007431,,completion,,,,,,,,,2,,,,,,,,O,S,I,,23195.47999999486,23190.230000007432,18197.162,18214.175000000978,18213.828,23208.737,,,
Sounds,html.Screen,0_3_1_0,2021-04-27T18:21:33.067Z,,,,,,,,,,,,,,,,,,,,,,,,,,,,,,4249.829999999998,,timeout,,,,,,,,,2,,,,,,,,I,S,O,,27443.79000000481,27441.901,23192.071,23195.879999999306,23208.737,27458.567,,,
Judgement,html.Screen,0_3_1_1,2021-04-27T18:21:33.548Z,,,,,,,,,,,,,,,,,,,,,,,,,,,true,2,,463.0130000092722,,response,,,,,,,,,2,,2,click #choice-2,,,,,I,S,O,,27925.45500000415,27921.58000000927,27441.901,27443.92499999958,27458.567,27941.881,,,
Trial,flow.Sequence,0_3_1,2021-04-27T18:21:33.549Z,,,,,,,,,,,,,,,,,,,,,,,,,,,,,,4712.84300000927,,completion,,,,,,,,,2,,,,,,,,I,S,O,,27925.935000006575,27921.58000000927,23192.071,23195.78000000911,23208.737,27941.881,,,
Sounds,html.Screen,0_3_2_0,2021-04-27T18:21:37.800Z,,,,,,,,,,,,,,,,,,,,,,,,,,,,,,4249.829999999998,,timeout,,,,,,,,,1,,,,,,,,S,I,O,,32177.22500000673,32175.045,27925.215,27926.430000006803,27941.881,32191.711,,,
Judgement,html.Screen,0_3_2_1,2021-04-27T18:21:38.376Z,,,,,,,,,,,,,,,,,,,,,,,,,,,true,1,,557.5840000014396,,response,,,,,,,,,1,,1,click #choice-1,,,,,S,I,O,,32753.079999994952,32749.29500000144,32175.045,32177.54000000423,32191.711,32759.73,,,
Trial,flow.Sequence,0_3_2,2021-04-27T18:21:38.376Z,,,,,,,,,,,,,,,,,,,,,,,,,,,,,,4807.414000001438,,completion,,,,,,,,,1,,,,,,,,S,I,O,,32753.55500000296,32749.29500000144,27925.215,27926.30000000645,27941.881,32759.73,,,
Sounds,html.Screen,0_3_3_0,2021-04-27T18:21:42.617Z,,,,,,,,,,,,,,,,,,,,,,,,,,,,,,4249.829999999998,,timeout,,,,,,,,,1,,,,,,,,S,O,I,,36994.55499999749,36992.894,32743.064,32753.89000000723,32759.73,37009.56,,,
Judgement,html.Screen,0_3_3_1,2021-04-27T18:21:43.105Z,,,,,,,,,,,,,,,,,,,,,,,,,,,true,1,,469.69000000396045,,response,,,,,,,,,1,,1,click #choice-1,,,,,S,O,I,,37482.94000000169,37479.25000000396,36992.894,36994.8149999982,37009.56,37492.874,,,
Trial,flow.Sequence,0_3_3,2021-04-27T18:21:43.106Z,,,,,,,,,,,,,,,,,,,,,,,,,,,,,,4719.520000003959,,completion,,,,,,,,,1,,,,,,,,S,O,I,,37483.39000000851,37479.25000000396,32743.064,32753.785000008065,32759.73,37492.874,,,
Sounds,html.Screen,0_3_4_0,2021-04-27T18:21:47.352Z,,,,,,,,,,,,,,,,,,,,,,,,,,,,,,4249.8299999999945,,timeout,,,,,,,,,3,,,,,,,,O,I,S,,41730.01500000828,41726.038,37476.208,37483.640000005835,37492.874,41742.704,,,
Judgement,html.Screen,0_3_4_1,2021-04-27T18:21:47.837Z,,,,,,,,,,,,,,,,,,,,,,,,,,,true,3,,467.91100000360166,,response,,,,,,,,,3,,3,click #choice-3,,,,,O,I,S,,42214.30999999575,42210.6150000036,41726.038,41730.29999999562,41742.704,42226.018,,,
Trial,flow.Sequence,0_3_4,2021-04-27T18:21:47.837Z,,,,,,,,,,,,,,,,,,,,,,,,,,,,,,4717.741000003596,,completion,,,,,,,,,3,,,,,,,,O,I,S,,42214.724999998,42210.6150000036,37476.208,37483.56500000227,37492.874,42226.018,,,
Sounds,html.Screen,0_3_5_0,2021-04-27T18:21:52.076Z,,,,,,,,,,,,,,,,,,,,,,,,,,,,,,4242.292000000001,,timeout,,,,,,,,,3,,,,,,,,I,O,S,,46453.76000000397,46451.644,42209.352,42215.179999999236,42226.018,46468.31,,,
Judgement,html.Screen,0_3_5_1,2021-04-27T18:21:52.536Z,,,,,,,,,,,,,,,,,,,,,,,,,,,true,3,,441.39000000379747,,response,,,,,,,,,3,,3,click #choice-3,,,,,I,O,S,,46913.58500000206,46909.700000003795,46451.644,46454.01000000129,46468.31,46918.292,,,
Trial,flow.Sequence,0_3_5,2021-04-27T18:21:52.536Z,,,,,,,,,,,,,,,,,,,,,,,,,,,,,,4683.682000003799,,completion,,,,,,,,,3,,,,,,,,I,O,S,,46914.0699999989,46909.700000003795,42209.352,42215.085000003455,42226.018,46918.292,,,
Task,flow.Loop,0_3,2021-04-27T18:21:52.544Z,,,,,,,,,,,,,,,,,,,,,,,,,,,,,,28695.872000003794,,completion,,,1,,,,,,,,,,,,,,,,,,46922.139999995125,46909.700000003795,18197.162,18214.065000007395,18213.828,46918.292,,,
Trap,html.Screen,0_4,2021-04-27T18:21:52.546Z,,,,,,,,,,,,,,,,,,,,,,,,,,,,,,NaN,,skipped,,,,,,,,,,,,,,,,,,,,,46923.90500000329,46909.700000003795,,46923.69999999937,,46918.292,,,
Thanks,html.Screen,0_5,2021-04-27T18:21:57.890Z,,,,,,,,,,,,,,,,,,,,,,,,,,,,,,5345.642999995398,,response,,,,,,,,,,,continue,click button,,,,,,,,,52267.699999996694,52263.9349999954,46901.626,46924.06000000483,46918.292,60676.094,,,
Headphone screening,flow.Sequence,0,2021-04-27T18:21:57.890Z,,,,,,,,,,,,,,,,,,,,,,,,,,,,,,48311.4469999954,,completion,,,,,,,,,,,,,,,,,,,,,52268.169999995735,52263.9349999954,3935.822,3944.9600000079954,3952.488,60676.094,,,
Instructions,html.Page,1_0,2021-04-27T18:22:46.209Z,,,,,,,,,,,,,,,,,,,,,,,,,,,,,,39911.82099999643,,form submission,,,,,,,,,,,,,,,,,,,,,100588.58999999939,100587.91499999643,60659.428,60675.82000000402,60676.094,100590.186,,,
Holding screen,html.Screen,1_1_0_0,2021-04-27T18:22:56.196Z,,,,,,,,,,,,,,,,,,,,,,,,,,,,,,9999.599999999991,,timeout,,,,,,,,,,,,,,,,,,,,,110576.44000000437,110573.12,100573.52,100588.87000000686,100590.186,110589.786,,,
screen,html.Screen,1_1_0_1_0,2021-04-27T18:22:57.193Z,,,,,,,,,,,,,,,,53,,,,,,,,,,,,,,970.5990000043239,,response,,,,99,,,,,,,Space,keypress(Space),,,,,,,,When -- ----- -- ------ - ------- --- ----------<br>------------- ------ ------ ---- ---- ------- ----- -- ----<br>-------- ------- -- ---------- --- - --- ----- ----- ----<br>---- --- --- ----- --- ---- ---- ------- ----- ---- -------<br>--- --- -- ----- -- --- ---- -- --- ---- -- ------ ------<br>--- ----- -- ----,111572.96499999939,111560.38500000432,110573.12,110576.84500000323,110589.786,111589.746,,0,When
screen,html.Screen,1_1_0_1_1,2021-04-27T18:22:57.633Z,,,,,,,,,,,,,,,,53,,,,,,,,,,,,,,415.38400000501133,,response,,,,99,,,,,,,Space,keypress(Space),,,,,,,,---- it ----- -- ------ - ------- --- ----------<br>------------- ------ ------ ---- ---- ------- ----- -- ----<br>-------- ------- -- ---------- --- - --- ----- ----- ----<br>---- --- --- ----- --- ---- ---- ------- ----- ---- -------<br>--- --- -- ----- -- --- ---- -- --- ---- -- ------ ------<br>--- ----- -- ----,112012.80500000576,112005.13000000501,111573.08,111573.18000000669,111589.746,112018.503,,1,it
screen,html.Screen,1_1_0_1_2,2021-04-27T18:22:58.033Z,,,,,,,,,,,,,,,,53,,,,,,,,,,,,,,386.68199999598437,,response,,,,99,,,,,,,Space,keypress(Space),,,,,,,,---- -- comes -- ------ - ------- --- ----------<br>------------- ------ ------ ---- ---- ------- ----- -- ----<br>-------- ------- -- ---------- --- - --- ----- ----- ----<br>---- --- --- ----- --- ---- ---- ------- ----- ---- -------<br>--- --- -- ----- -- --- ---- -- --- ---- -- ------ ------<br>--- ----- -- ----,112413.03999999946,112405.18499999598,112001.837,112012.9750000051,112018.503,112418.487,,2,comes
screen,html.Screen,1_1_0_1_3,2021-04-27T18:22:58.403Z,,,,,,,,,,,,,,,,53,,,,,,,,,,,,,,356.66300000131014,,response,,,,99,,,,,,,Space,keypress(Space),,,,,,,,---- -- ----- to ------ - ------- --- ----------<br>------------- ------ ------ ---- ---- ------- ----- -- ----<br>-------- ------- -- ---------- --- - --- ----- ----- ----<br>---- --- --- ----- --- ---- ---- ------- ----- ---- -------<br>--- --- -- ----- -- --- ---- -- --- ---- -- ------ ------<br>--- ----- -- ----,112782.77000000526,112775.1500000013,112401.821,112413.23499999999,112418.487,112785.139,,3,to
screen,html.Screen,1_1_0_1_4,2021-04-27T18:22:58.757Z,,,,,,,,,,,,,,,,53,,,,,,,,,,,,,,344.636000008526,,response,,,,99,,,,,,,Space,keypress(Space),,,,,,,,---- -- ----- -- having - ------- --- ----------<br>------------- ------ ------ ---- ---- ------- ----- -- ----<br>-------- ------- -- ---------- --- - --- ----- ----- ----<br>---- --- --- ----- --- ---- ---- ------- ----- ---- -------<br>--- --- -- ----- -- --- ---- -- --- ---- -- ------ ------<br>--- ----- -- ----,113137.2149999952,113129.77500000852,112768.473,112782.9400000046,112785.139,113151.791,,4,having
screen,html.Screen,1_1_0_1_5,2021-04-27T18:22:59.109Z,,,,,,,,,,,,,,,,53,,,,,,,,,,,,,,329.5540000074252,,response,,,,99,,,,,,,Space,keypress(Space),,,,,,,,---- -- ----- -- ------ a ------- --- ----------<br>------------- ------ ------ ---- ---- ------- ----- -- ----<br>-------- ------- -- ---------- --- - --- ----- ----- ----<br>---- --- --- ----- --- ---- ---- ------- ----- ---- -------<br>--- --- -- ----- -- --- ---- -- --- ---- -- ------ ------<br>--- ----- -- ----,113489.02000000817,113481.34500000742,113135.125,113137.39499999792,113151.791,113501.777,,5,a
screen,html.Screen,1_1_0_1_6,2021-04-27T18:22:59.498Z,,,,,,,,,,,,,,,,53,,,,,,,,,,,,,,368.85300000489224,,response,,,,99,,,,,,,Space,keypress(Space),,,,,,,,---- -- ----- -- ------ - lasting --- ----------<br>------------- ------ ------ ---- ---- ------- ----- -- ----<br>-------- ------- -- ---------- --- - --- ----- ----- ----<br>---- --- --- ----- --- ---- ---- ------- ----- ---- -------<br>--- --- -- ----- -- --- ---- -- --- ---- -- ------ ------<br>--- ----- -- ----,113878.16000000748,113870.6300000049,113485.111,113489.29500000668,113501.777,113885.095,,6,lasting
screen,html.Screen,1_1_0_1_7,2021-04-27T18:22:59.867Z,,,,,,,,,,,,,,,,53,,,,,,,,,,,,,,354.54000000536325,,response,,,,99,,,,,,,Space,keypress(Space),,,,,,,,---- -- ----- -- ------ - ------- and ----------<br>------------- ------ ------ ---- ---- ------- ----- -- ----<br>-------- ------- -- ---------- --- - --- ----- ----- ----<br>---- --- --- ----- --- ---- ---- ------- ----- ---- -------<br>--- --- -- ----- -- --- ---- -- --- ---- -- ------ ------<br>--- ----- -- ----,114246.90500000725,114239.63500000536,113868.429,113878.33000000683,113885.095,114251.747,,7,and
screen,html.Screen,1_1_0_1_8,2021-04-27T18:23:00.284Z,,,,,,,,,,,,,,,,53,,,,,,,,,,,,,,405.3430000078806,,response,,,,99,,,,,,,Space,keypress(Space),,,,,,,,---- -- ----- -- ------ - ------- --- fulfilling<br>------------- ------ ------ ---- ---- ------- ----- -- ----<br>-------- ------- -- ---------- --- - --- ----- ----- ----<br>---- --- --- ----- --- ---- ---- ------- ----- ---- -------<br>--- --- -- ----- -- --- ---- -- --- ---- -- ------ ------<br>--- ----- -- ----,114664.45500000555,114657.09000000788,114235.081,114247.08499999542,114251.747,114668.397,,8,fulfilling
screen,html.Screen,1_1_0_1_9,2021-04-27T18:23:00.781Z,,,,,,,,,,,,,,,,53,,,,,,,,,,,,,,484.75299999827985,,response,,,,99,,,,,,,Space,keypress(Space),,,,,,,,"---- -- ----- -- ------ - ------- --- ----------<br>relationship, ------ ------ ---- ---- ------- ----- -- ----<br>-------- ------- -- ---------- --- - --- ----- ----- ----<br>---- --- --- ----- --- ---- ---- ------- ----- ---- -------<br>--- --- -- ----- -- --- ---- -- --- ---- -- ------ ------<br>--- ----- -- ----",115160.73499999766,115153.14999999828,114651.731,114664.6299999993,114668.397,115168.377,,9,"relationship,"
screen,html.Screen,1_1_0_1_10,2021-04-27T18:23:01.227Z,,,,,,,,,,,,,,,,53,,,,,,,,,,,,,,431.248000002568,,response,,,,99,,,,,,,Space,keypress(Space),,,,,,,,---- -- ----- -- ------ - ------- --- ----------<br>------------- common ------ ---- ---- ------- ----- -- ----<br>-------- ------- -- ---------- --- - --- ----- ----- ----<br>---- --- --- ----- --- ---- ---- ------- ----- ---- -------<br>--- --- -- ----- -- --- ---- -- --- ---- -- ------ ------<br>--- ----- -- ----,115607.19999999856,115599.62500000256,115151.711,115160.9199999948,115168.377,115618.359,,10,common
screen,html.Screen,1_1_0_1_11,2021-04-27T18:23:01.861Z,,,,,,,,,,,,,,,,53,,,,,,,,,,,,,,615.7260000036913,,response,,,,99,,,,,,,Space,keypress(Space),,,,,,,,---- -- ----- -- ------ - ------- --- ----------<br>------------- ------ wisdom ---- ---- ------- ----- -- ----<br>-------- ------- -- ---------- --- - --- ----- ----- ----<br>---- --- --- ----- --- ---- ---- ------- ----- ---- -------<br>--- --- -- ----- -- --- ---- -- --- ---- -- ------ ------<br>--- ----- -- ----,116241.5650000039,116234.08500000369,115601.693,115607.39499999909,115618.359,116251.667,,11,wisdom
screen,html.Screen,1_1_0_1_12,2021-04-27T18:23:02.442Z,,,,,,,,,,,,,,,,53,,,,,,,,,,,,,,564.377999999575,,response,,,,99,,,,,,,Space,keypress(Space),,,,,,,,---- -- ----- -- ------ - ------- --- ----------<br>------------- ------ ------ says ---- ------- ----- -- ----<br>-------- ------- -- ---------- --- - --- ----- ----- ----<br>---- --- --- ----- --- ---- ---- ------- ----- ---- -------<br>--- --- -- ----- -- --- ---- -- --- ---- -- ------ ------<br>--- ----- -- ----,116822.49500000034,116816.04499999958,116235.001,116241.73999999766,116251.667,116834.977,,12,says
screen,html.Screen,1_1_0_1_13,2021-04-27T18:23:02.869Z,,,,,,,,,,,,,,,,53,,,,,,,,,,,,,,406.9479999948089,,response,,,,99,,,,,,,Space,keypress(Space),,,,,,,,---- -- ----- -- ------ - ------- --- ----------<br>------------- ------ ------ ---- that ------- ----- -- ----<br>-------- ------- -- ---------- --- - --- ----- ----- ----<br>---- --- --- ----- --- ---- ---- ------- ----- ---- -------<br>--- --- -- ----- -- --- ---- -- --- ---- -- ------ ------<br>--- ----- -- ----,117248.92500000715,117241.92499999481,116818.311,116822.67500000307,116834.977,117251.627,,13,that
screen,html.Screen,1_1_0_1_14,2021-04-27T18:23:03.219Z,,,,,,,,,,,,,,,,53,,,,,,,,,,,,,,339.37799999477284,,response,,,,99,,,,,,,Space,keypress(Space),,,,,,,,---- -- ----- -- ------ - ------- --- ----------<br>------------- ------ ------ ---- ---- feeling ----- -- ----<br>-------- ------- -- ---------- --- - --- ----- ----- ----<br>---- --- --- ----- --- ---- ---- ------- ----- ---- -------<br>--- --- -- ----- -- --- ---- -- --- ---- -- ------ ------<br>--- ----- -- ----,117598.99500000756,117591.00499999477,117234.961,117249.10000000091,117251.627,117601.613,,14,feeling
screen,html.Screen,1_1_0_1_15,2021-04-27T18:23:03.558Z,,,,,,,,,,,,,,,,53,,,,,,,,,,,,,,329.31700000226556,,response,,,,99,,,,,,,Space,keypress(Space),,,,,,,,---- -- ----- -- ------ - ------- --- ----------<br>------------- ------ ------ ---- ---- ------- close -- ----<br>-------- ------- -- ---------- --- - --- ----- ----- ----<br>---- --- --- ----- --- ---- ---- ------- ----- ---- -------<br>--- --- -- ----- -- --- ---- -- --- ---- -- ------ ------<br>--- ----- -- ----,117938.30500000331,117930.93000000226,117584.947,117599.25500000827,117601.613,117951.599,,15,close
screen,html.Screen,1_1_0_1_16,2021-04-27T18:23:03.908Z,,,,,,,,,,,,,,,,53,,,,,,,,,,,,,,329.30600000689446,,response,,,,99,,,,,,,Space,keypress(Space),,,,,,,,---- -- ----- -- ------ - ------- --- ----------<br>------------- ------ ------ ---- ---- ------- ----- to ----<br>-------- ------- -- ---------- --- - --- ----- ----- ----<br>---- --- --- ----- --- ---- ---- ------- ----- ---- -------<br>--- --- -- ----- -- --- ---- -- --- ---- -- ------ ------<br>--- ----- -- ----,118288.19000000658,118280.9050000069,117934.933,117938.47500000265,117951.599,118301.585,,16,to
screen,html.Screen,1_1_0_1_17,2021-04-27T18:23:04.271Z,,,,,,,,,,,,,,,,53,,,,,,,,,,,,,,342.3750000012369,,response,,,,99,,,,,,,Space,keypress(Space),,,,,,,,---- -- ----- -- ------ - ------- --- ----------<br>------------- ------ ------ ---- ---- ------- ----- -- your<br>-------- ------- -- ---------- --- - --- ----- ----- ----<br>---- --- --- ----- --- ---- ---- ------- ----- ---- -------<br>--- --- -- ----- -- --- ---- -- --- ---- -- ------ ------<br>--- ----- -- ----,118651.67500000098,118643.96000000124,118284.919,118288.37500000373,118301.585,118668.237,,17,your
screen,html.Screen,1_1_0_1_18,2021-04-27T18:23:04.735Z,,,,,,,,,,,,,,,,53,,,,,,,,,,,,,,439.7329999973008,,response,,,,99,,,,,,,Space,keypress(Space),,,,,,,,---- -- ----- -- ------ - ------- --- ----------<br>------------- ------ ------ ---- ---- ------- ----- -- ----<br>romantic ------- -- ---------- --- - --- ----- ----- ----<br>---- --- --- ----- --- ---- ---- ------- ----- ---- -------<br>--- --- -- ----- -- --- ---- -- --- ---- -- ------ ------<br>--- ----- -- ----,119115.35000000731,119107.9699999973,118651.571,118651.85999999812,118668.237,119118.219,,18,romantic
screen,html.Screen,1_1_0_1_19,2021-04-27T18:23:05.067Z,,,,,,,,,,,,,,,,53,,,,,,,,,,,,,,321.8960000048828,,response,,,,99,,,,,,,Space,keypress(Space),,,,,,,,---- -- ----- -- ------ - ------- --- ----------<br>------------- ------ ------ ---- ---- ------- ----- -- ----<br>-------- partner -- ---------- --- - --- ----- ----- ----<br>---- --- --- ----- --- ---- ---- ------- ----- ---- -------<br>--- --- -- ----- -- --- ---- -- --- ---- -- ------ ------<br>--- ----- -- ----,119447.61499999731,119440.11500000488,119101.553,119115.52999999549,119118.219,119451.539,,19,partner
screen,html.Screen,1_1_0_1_20,2021-04-27T18:23:05.411Z,,,,,,,,,,,,,,,,53,,,,,,,,,,,,,,332.3609999948967,,response,,,,99,,,,,,,Space,keypress(Space),,,,,,,,---- -- ----- -- ------ - ------- --- ----------<br>------------- ------ ------ ---- ---- ------- ----- -- ----<br>-------- ------- is ---------- --- - --- ----- ----- ----<br>---- --- --- ----- --- ---- ---- ------- ----- ---- -------<br>--- --- -- ----- -- --- ---- -- --- ---- -- ------ ------<br>--- ----- -- ----,119791.64999999921,119783.8999999949,119434.873,119447.78499999666,119451.539,119801.525,,20,is
screen,html.Screen,1_1_0_1_21,2021-04-27T18:23:05.770Z,,,,,,,,,,,,,,,,53,,,,,,,,,,,,,,341.38499999503256,,response,,,,99,,,,,,,Space,keypress(Space),,,,,,,,---- -- ----- -- ------ - ------- --- ----------<br>------------- ------ ------ ---- ---- ------- ----- -- ----<br>-------- ------- -- paramount. --- - --- ----- ----- ----<br>---- --- --- ----- --- ---- ---- ------- ----- ---- -------<br>--- --- -- ----- -- --- ---- -- --- ---- -- ------ ------<br>--- ----- -- ----,120150.62499999476,120142.90999999503,119784.859,119791.9050000055,119801.525,120168.177,,21,paramount.
screen,html.Screen,1_1_0_1_22,2021-04-27T18:23:06.988Z,,,,,,,,,,,,,,,,53,,,,,,,,,,,,,,1191.6730000080133,,response,,,,99,,,,,,,Space,keypress(Space),,,,,,,,---- -- ----- -- ------ - ------- --- ----------<br>------------- ------ ------ ---- ---- ------- ----- -- ----<br>-------- ------- -- ---------- But - --- ----- ----- ----<br>---- --- --- ----- --- ---- ---- ------- ----- ---- -------<br>--- --- -- ----- -- --- ---- -- --- ---- -- ------ ------<br>--- ----- -- ----,121368.18499999936,121359.85000000801,120151.511,120150.87500000664,120168.177,121384.795,,22,But
screen,html.Screen,1_1_0_1_23,2021-04-27T18:23:07.379Z,,,,,,,,,,,,,,,,53,,,,,,,,,,,,,,366.07500000348955,,response,,,,99,,,,,,,Space,keypress(Space),,,,,,,,---- -- ----- -- ------ - ------- --- ----------<br>------------- ------ ------ ---- ---- ------- ----- -- ----<br>-------- ------- -- ---------- --- a --- ----- ----- ----<br>---- --- --- ----- --- ---- ---- ------- ----- ---- -------<br>--- --- -- ----- -- --- ---- -- --- ---- -- ------ ------<br>--- ----- -- ----,121759.05999999668,121750.87000000349,121368.129,121368.59500000719,121384.795,121768.113,,23,a
screen,html.Screen,1_1_0_1_24,2021-04-27T18:23:07.710Z,,,,,,,,,,,,,,,,53,,,,,,,,,,,,,,314.65700000817014,,response,,,,99,,,,,,,Space,keypress(Space),,,,,,,,---- -- ----- -- ------ - ------- --- ----------<br>------------- ------ ------ ---- ---- ------- ----- -- ----<br>-------- ------- -- ---------- --- - new ----- ----- ----<br>---- --- --- ----- --- ---- ---- ------- ----- ---- -------<br>--- --- -- ----- -- --- ---- -- --- ---- -- ------ ------<br>--- ----- -- ----,122089.99500000209,122082.77000000817,121751.447,121759.23500000499,121768.113,122101.952,,24,new
screen,html.Screen,1_1_0_1_25,2021-04-27T18:23:08.051Z,,,,,,,,,,,,,,,,53,,,,,,,,,,,,,,322.0830000036367,,response,,,,99,,,,,,,Space,keypress(Space),,,,,,,,---- -- ----- -- ------ - ------- --- ----------<br>------------- ------ ------ ---- ---- ------- ----- -- ----<br>-------- ------- -- ---------- --- - --- study ----- ----<br>---- --- --- ----- --- ---- ---- ------- ----- ---- -------<br>--- --- -- ----- -- --- ---- -- --- ---- -- ------ ------<br>--- ----- -- ----,122431.0550000082,122424.03500000364,122085.286,122090.16999999585,122101.952,122435.272,,25,study
screen,html.Screen,1_1_0_1_26,2021-04-27T18:23:08.408Z,,,,,,,,,,,,,,,,53,,,,,,,,,,,,,,345.50300000654534,,response,,,,99,,,,,,,Space,keypress(Space),,,,,,,,---- -- ----- -- ------ - ------- --- ----------<br>------------- ------ ------ ---- ---- ------- ----- -- ----<br>-------- ------- -- ---------- --- - --- ----- finds ----<br>---- --- --- ----- --- ---- ---- ------- ----- ---- -------<br>--- --- -- ----- -- --- ---- -- --- ---- -- ------ ------<br>--- ----- -- ----,122788.11500000302,122780.77500000654,122418.606,122431.23000000196,122435.272,122801.924,,26,finds
screen,html.Screen,1_1_0_1_27,2021-04-27T18:23:08.839Z,,,,,,,,,,,,,,,,53,,,,,,,,,,,,,,410.0060000049416,,response,,,,99,,,,,,,Space,keypress(Space),,,,,,,,---- -- ----- -- ------ - ------- --- ----------<br>------------- ------ ------ ---- ---- ------- ----- -- ----<br>-------- ------- -- ---------- --- - --- ----- ----- that<br>---- --- --- ----- --- ---- ---- ------- ----- ---- -------<br>--- --- -- ----- -- --- ---- -- --- ---- -- ------ ------<br>--- ----- -- ----,123219.38500000397,123211.93000000494,122785.258,122788.28999999678,122801.924,123235.24,,27,that
screen,html.Screen,1_1_0_1_28,2021-04-27T18:23:09.295Z,,,,,,,,,,,,,,,,53,,,,,,,,,,,,,,432.57500000797154,,response,,,,99,,,,,,,Space,keypress(Space),,,,,,,,---- -- ----- -- ------ - ------- --- ----------<br>------------- ------ ------ ---- ---- ------- ----- -- ----<br>-------- ------- -- ---------- --- - --- ----- ----- ----<br>it's --- --- ----- --- ---- ---- ------- ----- ---- -------<br>--- --- -- ----- -- --- ---- -- --- ---- -- ------ ------<br>--- ----- -- ----,123675.51000000094,123667.81500000798,123218.574,123219.63500000129,123235.24,123685.222,,28,it's
screen,html.Screen,1_1_0_1_29,2021-04-27T18:23:09.697Z,,,,,,,,,,,,,,,,53,,,,,,,,,,,,,,384.627999999866,,response,,,,99,,,,,,,Space,keypress(Space),,,,,,,,---- -- ----- -- ------ - ------- --- ----------<br>------------- ------ ------ ---- ---- ------- ----- -- ----<br>-------- ------- -- ---------- --- - --- ----- ----- ----<br>---- not --- ----- --- ---- ---- ------- ----- ---- -------<br>--- --- -- ----- -- --- ---- -- --- ---- -- ------ ------<br>--- ----- -- ----,124077.55499999621,124069.84999999986,123668.556,123675.76500000723,123685.222,124085.206,,29,not
screen,html.Screen,1_1_0_1_30,2021-04-27T18:23:10.038Z,,,,,,,,,,,,,,,,53,,,,,,,,,,,,,,325.58900000341237,,response,,,,99,,,,,,,Space,keypress(Space),,,,,,,,---- -- ----- -- ------ - ------- --- ----------<br>------------- ------ ------ ---- ---- ------- ----- -- ----<br>-------- ------- -- ---------- --- - --- ----- ----- ----<br>---- --- how ----- --- ---- ---- ------- ----- ---- -------<br>--- --- -- ----- -- --- ---- -- --- ---- -- ------ ------<br>--- ----- -- ----,124418.34000000381,124410.79500000342,124068.54,124077.82000000589,124085.206,124435.192,,30,how
screen,html.Screen,1_1_0_1_31,2021-04-27T18:23:10.403Z,,,,,,,,,,,,,,,,53,,,,,,,,,,,,,,340.7330000090151,,response,,,,99,,,,,,,Space,keypress(Space),,,,,,,,---- -- ----- -- ------ - ------- --- ----------<br>------------- ------ ------ ---- ---- ------- ----- -- ----<br>-------- ------- -- ---------- --- - --- ----- ----- ----<br>---- --- --- close --- ---- ---- ------- ----- ---- -------<br>--- --- -- ----- -- --- ---- -- --- ---- -- ------ ------<br>--- ----- -- ----,124783.53000000061,124775.92500000901,124418.526,124418.51000000315,124435.192,124785.178,,31,close
screen,html.Screen,1_1_0_1_32,2021-04-27T18:23:10.749Z,,,,,,,,,,,,,,,,53,,,,,,,,,,,,,,336.5419999955484,,response,,,,99,,,,,,,Space,keypress(Space),,,,,,,,---- -- ----- -- ------ - ------- --- ----------<br>------------- ------ ------ ---- ---- ------- ----- -- ----<br>-------- ------- -- ---------- --- - --- ----- ----- ----<br>---- --- --- ----- you ---- ---- ------- ----- ---- -------<br>--- --- -- ----- -- --- ---- -- --- ---- -- ------ ------<br>--- ----- -- ----,125129.30000000051,125121.71999999555,124768.512,124783.70500000892,124785.178,125135.164,,32,you
screen,html.Screen,1_1_0_1_33,2021-04-27T18:23:11.241Z,,,,,,,,,,,,,,,,53,,,,,,,,,,,,,,478.7310000022262,,response,,,,99,,,,,,,Space,keypress(Space),,,,,,,,---- -- ----- -- ------ - ------- --- ----------<br>------------- ------ ------ ---- ---- ------- ----- -- ----<br>-------- ------- -- ---------- --- - --- ----- ----- ----<br>---- --- --- ----- --- feel ---- ------- ----- ---- -------<br>--- --- -- ----- -- --- ---- -- --- ---- -- ------ ------<br>--- ----- -- ----,125621.5050000028,125613.89500000223,125118.498,125129.48000000324,125135.164,125635.144,,33,feel
screen,html.Screen,1_1_0_1_34,2021-04-27T18:23:11.606Z,,,,,,,,,,,,,,,,53,,,,,,,,,,,,,,344.586000006384,,response,,,,99,,,,,,,Space,keypress(Space),,,,,,,,---- -- ----- -- ------ - ------- --- ----------<br>------------- ------ ------ ---- ---- ------- ----- -- ----<br>-------- ------- -- ---------- --- - --- ----- ----- ----<br>---- --- --- ----- --- ---- that ------- ----- ---- -------<br>--- --- -- ----- -- --- ---- -- --- ---- -- ------ ------<br>--- ----- -- ----,125986.63500000839,125979.73000000638,125618.478,125621.67999999656,125635.144,126001.796,,34,that
screen,html.Screen,1_1_0_1_35,2021-04-27T18:23:11.972Z,,,,,,,,,,,,,,,,53,,,,,,,,,,,,,,343.94400000429596,,response,,,,99,,,,,,,Space,keypress(Space),,,,,,,,---- -- ----- -- ------ - ------- --- ----------<br>------------- ------ ------ ---- ---- ------- ----- -- ----<br>-------- ------- -- ---------- --- - --- ----- ----- ----<br>---- --- --- ----- --- ---- ---- matters ----- ---- -------<br>--- --- -- ----- -- --- ---- -- --- ---- -- ------ ------<br>--- ----- -- ----,126352.84000000684,126345.7400000043,125985.13,125988.24999999488,126001.796,126368.448,,35,matters
screen,html.Screen,1_1_0_1_36,2021-04-27T18:23:12.356Z,,,,,,,,,,,,,,,,53,,,,,,,,,,,,,,360.6620000002149,,response,,,,99,,,,,,,Space,keypress(Space),,,,,,,,"---- -- ----- -- ------ - ------- --- ----------<br>------------- ------ ------ ---- ---- ------- ----- -- ----<br>-------- ------- -- ---------- --- - --- ----- ----- ----<br>---- --- --- ----- --- ---- ---- ------- most, ---- -------<br>--- --- -- ----- -- --- ---- -- --- ---- -- ------ ------<br>--- ----- -- ----",126736.32999999973,126729.11000000022,126351.782,126353.03500000737,126368.448,126751.766,,36,"most,"
screen,html.Screen,1_1_0_1_37,2021-04-27T18:23:12.773Z,,,,,,,,,,,,,,,,53,,,,,,,,,,,,,,394.71399999578716,,response,,,,99,,,,,,,Space,keypress(Space),,,,,,,,---- -- ----- -- ------ - ------- --- ----------<br>------------- ------ ------ ---- ---- ------- ----- -- ----<br>-------- ------- -- ---------- --- - --- ----- ----- ----<br>---- --- --- ----- --- ---- ---- ------- ----- it's -------<br>--- --- -- ----- -- --- ---- -- --- ---- -- ------ ------<br>--- ----- -- ----,127153.94000000379,127146.47999999579,126735.1,126736.50500000804,126751.766,127168.416,,37,it's
screen,html.Screen,1_1_0_1_38,2021-04-27T18:23:13.134Z,,,,,,,,,,,,,,,,53,,,,,,,,,,,,,,339.31900000650785,,response,,,,99,,,,,,,Space,keypress(Space),,,,,,,,---- -- ----- -- ------ - ------- --- ----------<br>------------- ------ ------ ---- ---- ------- ----- -- ----<br>-------- ------- -- ---------- --- - --- ----- ----- ----<br>---- --- --- ----- --- ---- ---- ------- ----- ---- whether<br>--- --- -- ----- -- --- ---- -- --- ---- -- ------ ------<br>--- ----- -- ----,127515.00500000839,127507.7350000065,127151.75,127154.12999999535,127168.416,127518.402,,38,whether
screen,html.Screen,1_1_0_1_39,2021-04-27T18:23:13.500Z,,,,,,,,,,,,,,,,53,,,,,,,,,,,,,,354.39300000295043,,response,,,,99,,,,,,,Space,keypress(Space),,,,,,,,---- -- ----- -- ------ - ------- --- ----------<br>------------- ------ ------ ---- ---- ------- ----- -- ----<br>-------- ------- -- ---------- --- - --- ----- ----- ----<br>---- --- --- ----- --- ---- ---- ------- ----- ---- -------<br>you --- -- ----- -- --- ---- -- --- ---- -- ------ ------<br>--- ----- -- ----,127880.46000000031,127872.79500000295,127501.736,127515.17500000773,127518.402,127885.054,,39,you
screen,html.Screen,1_1_0_1_40,2021-04-27T18:23:13.862Z,,,,,,,,,,,,,,,,53,,,,,,,,,,,,,,349.7009999976726,,response,,,,99,,,,,,,Space,keypress(Space),,,,,,,,---- -- ----- -- ------ - ------- --- ----------<br>------------- ------ ------ ---- ---- ------- ----- -- ----<br>-------- ------- -- ---------- --- - --- ----- ----- ----<br>---- --- --- ----- --- ---- ---- ------- ----- ---- -------<br>--- are -- ----- -- --- ---- -- --- ---- -- ------ ------<br>--- ----- -- ----,128242.28500000027,128234.75499999768,127868.388,127880.70500000322,127885.054,128251.706,,40,are
screen,html.Screen,1_1_0_1_41,2021-04-27T18:23:14.241Z,,,,,,,,,,,,,,,,53,,,,,,,,,,,,,,362.1990000056103,,response,,,,99,,,,,,,Space,keypress(Space),,,,,,,,---- -- ----- -- ------ - ------- --- ----------<br>------------- ------ ------ ---- ---- ------- ----- -- ----<br>-------- ------- -- ---------- --- - --- ----- ----- ----<br>---- --- --- ----- --- ---- ---- ------- ----- ---- -------<br>--- --- as ----- -- --- ---- -- --- ---- -- ------ ------<br>--- ----- -- ----,128621.96499999845,128613.90500000562,128235.04,128242.54000000656,128251.706,128635.024,,41,as
screen,html.Screen,1_1_0_1_42,2021-04-27T18:23:14.560Z,,,,,,,,,,,,,,,,53,,,,,,,,,,,,,,297.87599999978556,,response,,,,99,,,,,,,Space,keypress(Space),,,,,,,,---- -- ----- -- ------ - ------- --- ----------<br>------------- ------ ------ ---- ---- ------- ----- -- ----<br>-------- ------- -- ---------- --- - --- ----- ----- ----<br>---- --- --- ----- --- ---- ---- ------- ----- ---- -------<br>--- --- -- close -- --- ---- -- --- ---- -- ------ ------<br>--- ----- -- ----,128940.69000000309,128932.89999999979,128618.358,128622.18500000017,128635.024,128951.678,,42,close
screen,html.Screen,1_1_0_1_43,2021-04-27T18:23:14.883Z,,,,,,,,,,,,,,,,53,,,,,,,,,,,,,,303.9620000030409,,response,,,,99,,,,,,,Space,keypress(Space),,,,,,,,---- -- ----- -- ------ - ------- --- ----------<br>------------- ------ ------ ---- ---- ------- ----- -- ----<br>-------- ------- -- ---------- --- - --- ----- ----- ----<br>---- --- --- ----- --- ---- ---- ------- ----- ---- -------<br>--- --- -- ----- as --- ---- -- --- ---- -- ------ ------<br>--- ----- -- ----,129263.26999999583,129255.64000000304,128935.012,128940.935000006,128951.678,129268.332,,43,as
screen,html.Screen,1_1_0_1_44,2021-04-27T18:23:15.220Z,,,,,,,,,,,,,,,,53,,,,,,,,,,,,,,324.64300000685034,,response,,,,99,,,,,,,Space,keypress(Space),,,,,,,,---- -- ----- -- ------ - ------- --- ----------<br>------------- ------ ------ ---- ---- ------- ----- -- ----<br>-------- ------- -- ---------- --- - --- ----- ----- ----<br>---- --- --- ----- --- ---- ---- ------- ----- ---- -------<br>--- --- -- ----- -- you ---- -- --- ---- -- ------ ------<br>--- ----- -- ----,129600.26999999536,129592.97500000685,129251.666,129263.51000000432,129268.332,129601.652,,44,you
screen,html.Screen,1_1_0_1_45,2021-04-27T18:23:15.590Z,,,,,,,,,,,,,,,,53,,,,,,,,,,,,,,361.0580000070622,,response,,,,99,,,,,,,Space,keypress(Space),,,,,,,,---- -- ----- -- ------ - ------- --- ----------<br>------------- ------ ------ ---- ---- ------- ----- -- ----<br>-------- ------- -- ---------- --- - --- ----- ----- ----<br>---- --- --- ----- --- ---- ---- ------- ----- ---- -------<br>--- --- -- ----- -- --- want -- --- ---- -- ------ ------<br>--- ----- -- ----,129970.31000000425,129962.71000000706,129584.986,129600.43500000029,129601.652,129984.97,,45,want
screen,html.Screen,1_1_0_1_46,2021-04-27T18:23:15.928Z,,,,,,,,,,,,,,,,53,,,,,,,,,,,,,,316.6350000005623,,response,,,,99,,,,,,,Space,keypress(Space),,,,,,,,---- -- ----- -- ------ - ------- --- ----------<br>------------- ------ ------ ---- ---- ------- ----- -- ----<br>-------- ------- -- ---------- --- - --- ----- ----- ----<br>---- --- --- ----- --- ---- ---- ------- ----- ---- -------<br>--- --- -- ----- -- --- ---- to --- ---- -- ------ ------<br>--- ----- -- ----,130309.07000000298,130301.60500000056,129968.304,129972.34500000195,129984.97,130318.29,,46,to
screen,html.Screen,1_1_0_1_47,2021-04-27T18:23:16.273Z,,,,,,,,,,,,,,,,53,,,,,,,,,,,,,,328.32500000511936,,response,,,,99,,,,,,,Space,keypress(Space),,,,,,,,"---- -- ----- -- ------ - ------- --- ----------<br>------------- ------ ------ ---- ---- ------- ----- -- ----<br>-------- ------- -- ---------- --- - --- ----- ----- ----<br>---- --- --- ----- --- ---- ---- ------- ----- ---- -------<br>--- --- -- ----- -- --- ---- -- be, ---- -- ------ ------<br>--- ----- -- ----",130653.99500000058,130646.61500000511,130301.624,130309.2500000057,130318.29,130668.276,,47,"be,"
screen,html.Screen,1_1_0_1_48,2021-04-27T18:23:16.721Z,,,,,,,,,,,,,,,,53,,,,,,,,,,,,,,425.6290000015433,,response,,,,99,,,,,,,Space,keypress(Space),,,,,,,,---- -- ----- -- ------ - ------- --- ----------<br>------------- ------ ------ ---- ---- ------- ----- -- ----<br>-------- ------- -- ---------- --- - --- ----- ----- ----<br>---- --- --- ----- --- ---- ---- ------- ----- ---- -------<br>--- --- -- ----- -- --- ---- -- --- even -- ------ ------<br>--- ----- -- ----,131101.43500000413,131093.90500000154,130651.61,130654.15499999654,130668.276,131118.258,,48,even
screen,html.Screen,1_1_0_1_49,2021-04-27T18:23:17.085Z,,,,,,,,,,,,,,,,53,,,,,,,,,,,,,,339.4319999956351,,response,,,,99,,,,,,,Space,keypress(Space),,,,,,,,---- -- ----- -- ------ - ------- --- ----------<br>------------- ------ ------ ---- ---- ------- ----- -- ----<br>-------- ------- -- ---------- --- - --- ----- ----- ----<br>---- --- --- ----- --- ---- ---- ------- ----- ---- -------<br>--- --- -- ----- -- --- ---- -- --- ---- if ------ ------<br>--- ----- -- ----,131465.2550000028,131457.68999999564,131101.592,131101.5950000001,131118.258,131468.244,,49,if
screen,html.Screen,1_1_0_1_50,2021-04-27T18:23:17.428Z,,,,,,,,,,,,,,,,53,,,,,,,,,,,,,,332.3609999967157,,response,,,,99,,,,,,,Space,keypress(Space),,,,,,,,---- -- ----- -- ------ - ------- --- ----------<br>------------- ------ ------ ---- ---- ------- ----- -- ----<br>-------- ------- -- ---------- --- - --- ----- ----- ----<br>---- --- --- ----- --- ---- ---- ------- ----- ---- -------<br>--- --- -- ----- -- --- ---- -- --- ---- -- that's ------<br>--- ----- -- ----,131808.4450000024,131800.60499999672,131451.578,131465.4850000079,131468.244,131818.23,,50,that's
screen,html.Screen,1_1_0_1_51,2021-04-27T18:23:17.816Z,,,,,,,,,,,,,,,,53,,,,,,,,,,,,,,371.27500000208966,,response,,,,99,,,,,,,Space,keypress(Space),,,,,,,,---- -- ----- -- ------ - ------- --- ----------<br>------------- ------ ------ ---- ---- ------- ----- -- ----<br>-------- ------- -- ---------- --- - --- ----- ----- ----<br>---- --- --- ----- --- ---- ---- ------- ----- ---- -------<br>--- --- -- ----- -- --- ---- -- --- ---- -- ------ really<br>--- ----- -- ----,132196.98999999673,132189.5050000021,131801.564,131808.60499999835,131818.23,132202.753,,51,really
screen,html.Screen,1_1_0_1_52,2021-04-27T18:23:18.192Z,,,,,,,,,,,,,,,,53,,,,,,,,,,,,,,361.9669999948528,,response,,,,99,,,,,,,Space,keypress(Space),,,,,,,,---- -- ----- -- ------ - ------- --- ----------<br>------------- ------ ------ ---- ---- ------- ----- -- ----<br>-------- ------- -- ---------- --- - --- ----- ----- ----<br>---- --- --- ----- --- ---- ---- ------- ----- ---- -------<br>--- --- -- ----- -- --- ---- -- --- ---- -- ------ ------<br>not ----- -- ----,132572.72999999986,132564.71999999485,132186.087,132197.22499999625,132202.753,132586.071,,52,not
screen,html.Screen,1_1_0_1_53,2021-04-27T18:23:18.529Z,,,,,,,,,,,,,,,,53,,,,,,,,,,,,,,316.753999997396,,response,,,,99,,,,,,,Space,keypress(Space),,,,,,,,---- -- ----- -- ------ - ------- --- ----------<br>------------- ------ ------ ---- ---- ------- ----- -- ----<br>-------- ------- -- ---------- --- - --- ----- ----- ----<br>---- --- --- ----- --- ---- ---- ------- ----- ---- -------<br>--- --- -- ----- -- --- ---- -- --- ---- -- ------ ------<br>--- close -- ----,132909.89500000433,132902.8249999974,132569.405,132572.88999999582,132586.071,132919.391,,53,close
screen,html.Screen,1_1_0_1_54,2021-04-27T18:23:18.888Z,,,,,,,,,,,,,,,,53,,,,,,,,,,,,,,342.03400000423426,,response,,,,99,,,,,,,Space,keypress(Space),,,,,,,,---- -- ----- -- ------ - ------- --- ----------<br>------------- ------ ------ ---- ---- ------- ----- -- ----<br>-------- ------- -- ---------- --- - --- ----- ----- ----<br>---- --- --- ----- --- ---- ---- ------- ----- ---- -------<br>--- --- -- ----- -- --- ---- -- --- ---- -- ------ ------<br>--- ----- at ----,133268.78500000748,133261.42500000424,132902.725,132910.05000000587,132919.391,133286.043,,54,at
screen,html.Screen,1_1_0_1_55,2021-04-27T18:23:19.196Z,,,,,,,,,,,,,,,,53,,,,,,,,,,,,,,282.8270000027842,,response,,,,99,,,,,,,Space,keypress(Space),,,,,,,,---- -- ----- -- ------ - ------- --- ----------<br>------------- ------ ------ ---- ---- ------- ----- -- ----<br>-------- ------- -- ---------- --- - --- ----- ----- ----<br>---- --- --- ----- --- ---- ---- ------- ----- ---- -------<br>--- --- -- ----- -- --- ---- -- --- ---- -- ------ ------<br>--- ----- -- all.,133576.3650000008,133568.8700000028,133269.377,133268.94500000344,133286.043,133586.031,,55,all.
Item 99,flow.Loop,1_1_0_1,2021-04-27T18:23:19.196Z,,,,,,,,,,,,,,,,,,,,,,,,,,,,,,22979.084000002797,,completion,,,,,B,,,,,,,,,,,silence,,,,,133576.6949999961,133568.8700000028,110573.12,110576.73000000068,110589.786,133586.031,,,
Question 1,html.Screen,1_1_0_2,2021-04-27T18:23:25.355Z,,,,,,,,,,,,,,,,,,,,,,,,,,,true,FALSE,,6146.0040000081935,,response,,,,99,B,,,,,,FALSE,click #choice-2,,,,silence,,,,,139735.85500000627,139732.03500000818,133569.365,133576.84999999765,133586.031,139735.785,,,
Question 2,html.Screen,1_1_0_3,2021-04-27T18:23:31.300Z,,,,,,,,,,,,,,,,,,,,,,,,,,,true,TRUE,,5940.964999998716,,response,,,,99,B,,,,,,TRUE,click #choice-1,,,,silence,,,,,145680.7550000085,145676.74999999872,139719.119,139736.1200000014,139735.785,145688.91,,,
Item 99,flow.Sequence,1_1_0,2021-04-27T18:23:31.300Z,,,,,,,,,,,,,,,,,,,,,,,,,,,,,,45086.56399999872,,completion,,,,,,,,,,,,,,,,,,,,,145681.10499999602,145676.74999999872,100573.52,100588.83500000229,100590.186,145688.91,,,
Holding screen,html.Screen,1_1_1_0,2021-04-27T18:23:41.288Z,,,,,,,,,,,,,,,,,,,,,,,,,,,,,,9994.562000000005,,timeout,,,,,,,,,,,,,,,,,,,,,155669.08999999578,155666.806,145672.244,145681.33999999554,145688.91,155683.472,,,
screen,html.Screen,1_1_1_1_0,2021-04-27T18:23:42.016Z,,,,,,,,,,,,,,,,54,,,,,,,,,,,,,,705.2880000016303,,response,,,,100,,,,,,,Space,keypress(Space),,,,,,,,At --- ---- --- ------ ----- ------- ---- -- --- ------- --<br>------- ---------- ------ -- ----- -- ----- -- ---- ------<br>--- ----- --- --- ------ -------- ----- --- ------ ----- --<br>----- ----- ---------- --- --- ------ ------ ---- -- ------<br>------- --- ------ ----- --- ---- ------- -- ---- --- --<br>------- ------,156397.5849999988,156388.76000000164,155666.806,155669.42500000005,155683.472,156400.11,,0,At
screen,html.Screen,1_1_1_1_1,2021-04-27T18:23:42.528Z,,,,,,,,,,,,,,,,54,,,,,,,,,,,,,,505.52500000281725,,response,,,,100,,,,,,,Space,keypress(Space),,,,,,,,-- the ---- --- ------ ----- ------- ---- -- --- ------- --<br>------- ---------- ------ -- ----- -- ----- -- ---- ------<br>--- ----- --- --- ------ -------- ----- --- ------ ----- --<br>----- ----- ---------- --- --- ------ ------ ---- -- ------<br>------- --- ------ ----- --- ---- ------- -- ---- --- --<br>------- ------,156910.05000000587,156905.6350000028,156383.444,156397.74499999476,156400.11,156916.756,,1,the
screen,html.Screen,1_1_1_1_2,2021-04-27T18:23:42.870Z,,,,,,,,,,,,,,,,54,,,,,,,,,,,,,,327.05900000891415,,response,,,,100,,,,,,,Space,keypress(Space),,,,,,,,-- --- time --- ------ ----- ------- ---- -- --- ------- --<br>------- ---------- ------ -- ----- -- ----- -- ---- ------<br>--- ----- --- --- ------ -------- ----- --- ------ ----- --<br>----- ----- ---------- --- --- ------ ------ ---- -- ------<br>------- --- ------ ----- --- ---- ------- -- ---- --- --<br>------- ------,157251.34000000253,157243.8150000089,156900.09,156910.18000000622,156916.756,157266.742,,2,time
screen,html.Screen,1_1_1_1_3,2021-04-27T18:23:43.343Z,,,,,,,,,,,,,,,,54,,,,,,,,,,,,,,449.9529999955266,,response,,,,100,,,,,,,Space,keypress(Space),,,,,,,,-- --- ---- the ------ ----- ------- ---- -- --- ------- --<br>------- ---------- ------ -- ----- -- ----- -- ---- ------<br>--- ----- --- --- ------ -------- ----- --- ------ ----- --<br>----- ----- ---------- --- --- ------ ------ ---- -- ------<br>------- --- ------ ----- --- ---- ------- -- ---- --- --<br>------- ------,157724.2899999983,157716.69499999552,157250.076,157251.50500000746,157266.742,157733.39,,3,the
screen,html.Screen,1_1_1_1_4,2021-04-27T18:23:43.699Z,,,,,,,,,,,,,,,,54,,,,,,,,,,,,,,340.6699999989942,,response,,,,100,,,,,,,Space,keypress(Space),,,,,,,,-- --- ---- --- French ----- ------- ---- -- --- ------- --<br>------- ---------- ------ -- ----- -- ----- -- ---- ------<br>--- ----- --- --- ------ -------- ----- --- ------ ----- --<br>----- ----- ---------- --- --- ------ ------ ---- -- ------<br>------- --- ------ ----- --- ---- ------- -- ---- --- --<br>------- ------,158080.9900000022,158074.059999999,157716.724,157724.4500000088,157733.39,158083.376,,4,French
screen,html.Screen,1_1_1_1_5,2021-04-27T18:23:44.028Z,,,,,,,,,,,,,,,,54,,,,,,,,,,,,,,318.4290000013425,,response,,,,100,,,,,,,Space,keypress(Space),,,,,,,,-- --- ---- --- ------ crown ------- ---- -- --- ------- --<br>------- ---------- ------ -- ----- -- ----- -- ---- ------<br>--- ----- --- --- ------ -------- ----- --- ------ ----- --<br>----- ----- ---------- --- --- ------ ------ ---- -- ------<br>------- --- ------ ----- --- ---- ------- -- ---- --- --<br>------- ------,158409.32000000612,158401.80500000133,158066.71,158081.14999999816,158083.376,158416.696,,5,crown
screen,html.Screen,1_1_1_1_6,2021-04-27T18:23:44.986Z,,,,,,,,,,,,,,,,54,,,,,,,,,,,,,,943.6490000082413,,response,,,,100,,,,,,,Space,keypress(Space),,,,,,,,-- --- ---- --- ------ ----- secured ---- -- --- ------- --<br>------- ---------- ------ -- ----- -- ----- -- ---- ------<br>--- ----- --- --- ------ -------- ----- --- ------ ----- --<br>----- ----- ---------- --- --- ------ ------ ---- -- ------<br>------- --- ------ ----- --- ---- ------- -- ---- --- --<br>------- ------,159367.82500000845,159360.34500000824,158400.03,158409.48000000208,158416.696,159383.324,,6,secured
screen,html.Screen,1_1_1_1_7,2021-04-27T18:23:45.375Z,,,,,,,,,,,,,,,,54,,,,,,,,,,,,,,365.3759999964677,,response,,,,100,,,,,,,Space,keypress(Space),,,,,,,,-- --- ---- --- ------ ----- ------- much -- --- ------- --<br>------- ---------- ------ -- ----- -- ----- -- ---- ------<br>--- ----- --- --- ------ -------- ----- --- ------ ----- --<br>----- ----- ---------- --- --- ------ ------ ---- -- ------<br>------- --- ------ ----- --- ---- ------- -- ---- --- --<br>------- ------,159756.315000006,159748.69999999646,159366.658,159367.97999999544,159383.324,159766.642,,7,much
screen,html.Screen,1_1_1_1_8,2021-04-27T18:23:45.753Z,,,,,,,,,,,,,,,,54,,,,,,,,,,,,,,360.78299999877345,,response,,,,100,,,,,,,Space,keypress(Space),,,,,,,,-- --- ---- --- ------ ----- ------- ---- of --- ------- --<br>------- ---------- ------ -- ----- -- ----- -- ---- ------<br>--- ----- --- --- ------ -------- ----- --- ------ ----- --<br>----- ----- ---------- --- --- ------ ------ ---- -- ------<br>------- --- ------ ----- --- ---- ------- -- ---- --- --<br>------- ------,160134.5949999959,160127.42499999877,159749.976,159756.55000000552,159766.642,160149.96,,8,of
screen,html.Screen,1_1_1_1_9,2021-04-27T18:23:46.089Z,,,,,,,,,,,,,,,,54,,,,,,,,,,,,,,313.6000000037893,,response,,,,100,,,,,,,Space,keypress(Space),,,,,,,,-- --- ---- --- ------ ----- ------- ---- -- its ------- --<br>------- ---------- ------ -- ----- -- ----- -- ---- ------<br>--- ----- --- --- ------ -------- ----- --- ------ ----- --<br>----- ----- ---------- --- --- ------ ------ ---- -- ------<br>------- --- ------ ----- --- ---- ------- -- ---- --- --<br>------- ------,160471.14500000316,160463.56000000378,160133.294,160134.7550000064,160149.96,160483.28,,9,its
screen,html.Screen,1_1_1_1_10,2021-04-27T18:23:46.647Z,,,,,,,,,,,,,,,,54,,,,,,,,,,,,,,537.2950000022829,,response,,,,100,,,,,,,Space,keypress(Space),,,,,,,,-- --- ---- --- ------ ----- ------- ---- -- --- revenue --<br>------- ---------- ------ -- ----- -- ----- -- ---- ------<br>--- ----- --- --- ------ -------- ----- --- ------ ----- --<br>----- ----- ---------- --- --- ------ ------ ---- -- ------<br>------- --- ------ ----- --- ---- ------- -- ---- --- --<br>------- ------,161028.23500000522,161020.57500000228,160466.614,160471.30499999912,160483.28,161033.258,,10,revenue
screen,html.Screen,1_1_1_1_11,2021-04-27T18:23:47.058Z,,,,,,,,,,,,,,,,54,,,,,,,,,,,,,,398.5970000025409,,response,,,,100,,,,,,,Space,keypress(Space),,,,,,,,-- --- ---- --- ------ ----- ------- ---- -- --- ------- by<br>------- ---------- ------ -- ----- -- ----- -- ---- ------<br>--- ----- --- --- ------ -------- ----- --- ------ ----- --<br>----- ----- ---------- --- --- ------ ------ ---- -- ------<br>------- --- ------ ----- --- ---- ------- -- ---- --- --<br>------- ------,161439.65500000922,161431.85500000254,161016.592,161028.39500000118,161033.258,161449.908,,11,by
screen,html.Screen,1_1_1_1_12,2021-04-27T18:23:47.755Z,,,,,,,,,,,,,,,,54,,,,,,,,,,,,,,678.9720000038506,,response,,,,100,,,,,,,Space,keypress(Space),,,,,,,,-- --- ---- --- ------ ----- ------- ---- -- --- ------- --<br>issuing ---------- ------ -- ----- -- ----- -- ---- ------<br>--- ----- --- --- ------ -------- ----- --- ------ ----- --<br>----- ----- ---------- --- --- ------ ------ ---- -- ------<br>------- --- ------ ----- --- ---- ------- -- ---- --- --<br>------- ------,162136.7750000063,162128.88000000385,161433.242,161439.88499999978,161449.908,162149.88,,12,issuing
screen,html.Screen,1_1_1_1_13,2021-04-27T18:23:48.234Z,,,,,,,,,,,,,,,,54,,,,,,,,,,,,,,458.6950000056531,,response,,,,100,,,,,,,Space,keypress(Space),,,,,,,,-- --- ---- --- ------ ----- ------- ---- -- --- ------- --<br>------- government ------ -- ----- -- ----- -- ---- ------<br>--- ----- --- --- ------ -------- ----- --- ------ ----- --<br>----- ----- ---------- --- --- ------ ------ ---- -- ------<br>------- --- ------ ----- --- ---- ------- -- ---- --- --<br>------- ------,162616.0600000003,162608.57500000566,162133.214,162137.00499999686,162149.88,162633.194,,13,government
screen,html.Screen,1_1_1_1_14,2021-04-27T18:23:48.723Z,,,,,,,,,,,,,,,,54,,,,,,,,,,,,,,464.8260000049195,,response,,,,100,,,,,,,Space,keypress(Space),,,,,,,,-- --- ---- --- ------ ----- ------- ---- -- --- ------- --<br>------- ---------- bonds. -- ----- -- ----- -- ---- ------<br>--- ----- --- --- ------ -------- ----- --- ------ ----- --<br>----- ----- ---------- --- --- ------ ------ ---- -- ------<br>------- --- ------ ----- --- ---- ------- -- ---- --- --<br>------- ------,163104.7050000052,163098.0200000049,162616.528,162616.21999999625,162633.194,163116.508,,14,bonds.
screen,html.Screen,1_1_1_1_15,2021-04-27T18:23:49.191Z,,,,,,,,,,,,,,,,54,,,,,,,,,,,,,,449.1069999995234,,response,,,,100,,,,,,,Space,keypress(Space),,,,,,,,-- --- ---- --- ------ ----- ------- ---- -- --- ------- --<br>------- ---------- ------ In ----- -- ----- -- ---- ------<br>--- ----- --- --- ------ -------- ----- --- ------ ----- --<br>----- ----- ---------- --- --- ------ ------ ---- -- ------<br>------- --- ------ ----- --- ---- ------- -- ---- --- --<br>------- ------,163572.71000000765,163565.61499999953,163099.842,163104.86500000115,163116.508,163583.156,,15,In
screen,html.Screen,1_1_1_1_16,2021-04-27T18:23:50.161Z,,,,,,,,,,,,,,,,54,,,,,,,,,,,,,,952.5190000064613,,response,,,,100,,,,,,,Space,keypress(Space),,,,,,,,"-- --- ---- --- ------ ----- ------- ---- -- --- ------- --<br>------- ---------- ------ -- 1727, -- ----- -- ---- ------<br>--- ----- --- --- ------ -------- ----- --- ------ ----- --<br>----- ----- ---------- --- --- ------ ------ ---- -- ------<br>------- --- ------ ----- --- ---- ------- -- ---- --- --<br>------- ------",164543.26500000025,164535.67500000645,163566.49,163572.8650000092,163583.156,164551.385,,16,"1727,"
screen,html.Screen,1_1_1_1_17,2021-04-27T18:23:50.625Z,,,,,,,,,,,,,,,,54,,,,,,,,,,,,,,447.2499999962747,,response,,,,100,,,,,,,Space,keypress(Space),,,,,,,,-- --- ---- --- ------ ----- ------- ---- -- --- ------- --<br>------- ---------- ------ -- ----- in ----- -- ---- ------<br>--- ----- --- --- ------ -------- ----- --- ------ ----- --<br>----- ----- ---------- --- --- ------ ------ ---- -- ------<br>------- --- ------ ----- --- ---- ------- -- ---- --- --<br>------- ------,165006.60999999673,164998.63499999628,164534.719,164543.4249999962,164551.385,165018.033,,17,in
screen,html.Screen,1_1_1_1_18,2021-04-27T18:23:51.031Z,,,,,,,,,,,,,,,,54,,,,,,,,,,,,,,391.4570000054664,,response,,,,100,,,,,,,Space,keypress(Space),,,,,,,,-- --- ---- --- ------ ----- ------- ---- -- --- ------- --<br>------- ---------- ------ -- ----- -- order -- ---- ------<br>--- ----- --- --- ------ -------- ----- --- ------ ----- --<br>----- ----- ---------- --- --- ------ ------ ---- -- ------<br>------- --- ------ ----- --- ---- ------- -- ---- --- --<br>------- ------,165413.31000000355,165409.49000000546,165001.367,165006.77000000724,165018.033,165418.017,,18,order
screen,html.Screen,1_1_1_1_19,2021-04-27T18:23:51.376Z,,,,,,,,,,,,,,,,54,,,,,,,,,,,,,,332.6080000005895,,response,,,,100,,,,,,,Space,keypress(Space),,,,,,,,-- --- ---- --- ------ ----- ------- ---- -- --- ------- --<br>------- ---------- ------ -- ----- -- ----- to ---- ------<br>--- ----- --- --- ------ -------- ----- --- ------ ----- --<br>----- ----- ---------- --- --- ------ ------ ---- -- ------<br>------- --- ------ ----- --- ---- ------- -- ---- --- --<br>------- ------,165758.0200000084,165750.62500000058,165401.351,165413.41999999713,165418.017,165768.003,,19,to
screen,html.Screen,1_1_1_1_20,2021-04-27T18:23:51.766Z,,,,,,,,,,,,,,,,54,,,,,,,,,,,,,,373.5570000036678,,response,,,,100,,,,,,,Space,keypress(Space),,,,,,,,-- --- ---- --- ------ ----- ------- ---- -- --- ------- --<br>------- ---------- ------ -- ----- -- ----- -- save ------<br>--- ----- --- --- ------ -------- ----- --- ------ ----- --<br>----- ----- ---------- --- --- ------ ------ ---- -- ------<br>------- --- ------ ----- --- ---- ------- -- ---- --- --<br>------- ------,166148.1050000002,166141.56000000366,165751.337,165758.18000000436,165768.003,166151.321,,20,save
screen,html.Screen,1_1_1_1_21,2021-04-27T18:23:52.143Z,,,,,,,,,,,,,,,,54,,,,,,,,,,,,,,365.52899999998044,,response,,,,100,,,,,,,Space,keypress(Space),,,,,,,,"-- --- ---- --- ------ ----- ------- ---- -- --- ------- --<br>------- ---------- ------ -- ----- -- ----- -- ---- money,<br>--- ----- --- --- ------ -------- ----- --- ------ ----- --<br>----- ----- ---------- --- --- ------ ------ ---- -- ------<br>------- --- ------ ----- --- ---- ------- -- ---- --- --<br>------- ------",166524.93500000855,166516.84999999998,166134.655,166148.28500000294,166151.321,166534.639,,21,"money,"
screen,html.Screen,1_1_1_1_22,2021-04-27T18:23:52.602Z,,,,,,,,,,,,,,,,54,,,,,,,,,,,,,,440.91100000284496,,response,,,,100,,,,,,,Space,keypress(Space),,,,,,,,-- --- ---- --- ------ ----- ------- ---- -- --- ------- --<br>------- ---------- ------ -- ----- -- ----- -- ---- ------<br>the ----- --- --- ------ -------- ----- --- ------ ----- --<br>----- ----- ---------- --- --- ------ ------ ---- -- ------<br>------- --- ------ ----- --- ---- ------- -- ---- --- --<br>------- ------,166983.42000000412,166975.55000000284,166517.973,166525.0950000045,166534.639,166984.621,,22,the
screen,html.Screen,1_1_1_1_23,2021-04-27T18:23:52.962Z,,,,,,,,,,,,,,,,54,,,,,,,,,,,,,,351.90900000047986,,response,,,,100,,,,,,,Space,keypress(Space),,,,,,,,-- --- ---- --- ------ ----- ------- ---- -- --- ------- --<br>------- ---------- ------ -- ----- -- ----- -- ---- ------<br>--- state --- --- ------ -------- ----- --- ------ ----- --<br>----- ----- ---------- --- --- ------ ------ ---- -- ------<br>------- --- ------ ----- --- ---- ------- -- ---- --- --<br>------- ------,167343.9800000051,167336.5300000005,166967.955,166983.57500000566,166984.621,167351.273,,23,state
screen,html.Screen,1_1_1_1_24,2021-04-27T18:23:53.353Z,,,,,,,,,,,,,,,,54,,,,,,,,,,,,,,376.12700000341283,,response,,,,100,,,,,,,Space,keypress(Space),,,,,,,,-- --- ---- --- ------ ----- ------- ---- -- --- ------- --<br>------- ---------- ------ -- ----- -- ----- -- ---- ------<br>--- ----- cut --- ------ -------- ----- --- ------ ----- --<br>----- ----- ---------- --- --- ------ ------ ---- -- ------<br>------- --- ------ ----- --- ---- ------- -- ---- --- --<br>------- ------,167734.6600000019,167727.4000000034,167334.607,167344.14000000106,167351.273,167751.257,,24,cut
screen,html.Screen,1_1_1_1_25,2021-04-27T18:23:53.689Z,,,,,,,,,,,,,,,,54,,,,,,,,,,,,,,312.1880000070378,,response,,,,100,,,,,,,Space,keypress(Space),,,,,,,,-- --- ---- --- ------ ----- ------- ---- -- --- ------- --<br>------- ---------- ------ -- ----- -- ----- -- ---- ------<br>--- ----- --- the ------ -------- ----- --- ------ ----- --<br>----- ----- ---------- --- --- ------ ------ ---- -- ------<br>------- --- ------ ----- --- ---- ------- -- ---- --- --<br>------- ------,168070.8949999971,168063.44500000705,167734.591,167734.81999999785,167751.257,168084.577,,25,the
screen,html.Screen,1_1_1_1_26,2021-04-27T18:23:54.098Z,,,,,,,,,,,,,,,,54,,,,,,,,,,,,,,388.2080000053975,,response,,,,100,,,,,,,Space,keypress(Space),,,,,,,,-- --- ---- --- ------ ----- ------- ---- -- --- ------- --<br>------- ---------- ------ -- ----- -- ----- -- ---- ------<br>--- ----- --- --- bonds' -------- ----- --- ------ ----- --<br>----- ----- ---------- --- --- ------ ------ ---- -- ------<br>------- --- ------ ----- --- ---- ------- -- ---- --- --<br>------- ------,168480.35500000697,168472.7850000054,168067.911,168071.05500000762,168084.577,168484.561,,26,bonds'
screen,html.Screen,1_1_1_1_27,2021-04-27T18:23:54.563Z,,,,,,,,,,,,,,,,54,,,,,,,,,,,,,,453.5389999994077,,response,,,,100,,,,,,,Space,keypress(Space),,,,,,,,-- --- ---- --- ------ ----- ------- ---- -- --- ------- --<br>------- ---------- ------ -- ----- -- ----- -- ---- ------<br>--- ----- --- --- ------ interest ----- --- ------ ----- --<br>----- ----- ---------- --- --- ------ ------ ---- -- ------<br>------- --- ------ ----- --- ---- ------- -- ---- --- --<br>------- ------,168945.46000000264,168938.0999999994,168467.895,168480.51500000292,168484.561,168951.209,,27,interest
screen,html.Screen,1_1_1_1_28,2021-04-27T18:23:54.958Z,,,,,,,,,,,,,,,,54,,,,,,,,,,,,,,381.48600000460283,,response,,,,100,,,,,,,Space,keypress(Space),,,,,,,,-- --- ---- --- ------ ----- ------- ---- -- --- ------- --<br>------- ---------- ------ -- ----- -- ----- -- ---- ------<br>--- ----- --- --- ------ -------- rate. --- ------ ----- --<br>----- ----- ---------- --- --- ------ ------ ---- -- ------<br>------- --- ------ ----- --- ---- ------- -- ---- --- --<br>------- ------,169340.3399999952,169332.6950000046,168934.543,168945.61500000418,168951.209,169351.193,,28,rate.
screen,html.Screen,1_1_1_1_29,2021-04-27T18:23:55.534Z,,,,,,,,,,,,,,,,54,,,,,,,,,,,,,,557.3870000029856,,response,,,,100,,,,,,,Space,keypress(Space),,,,,,,,-- --- ---- --- ------ ----- ------- ---- -- --- ------- --<br>------- ---------- ------ -- ----- -- ----- -- ---- ------<br>--- ----- --- --- ------ -------- ----- The ------ ----- --<br>----- ----- ---------- --- --- ------ ------ ---- -- ------<br>------- --- ------ ----- --- ---- ------- -- ---- --- --<br>------- ------,169915.7899999991,169908.58000000298,169334.527,169340.49499999674,169351.193,169917.837,,29,The
screen,html.Screen,1_1_1_1_30,2021-04-27T18:23:55.978Z,,,,,,,,,,,,,,,,54,,,,,,,,,,,,,,434.38799999508774,,response,,,,100,,,,,,,Space,keypress(Space),,,,,,,,-- --- ---- --- ------ ----- ------- ---- -- --- ------- --<br>------- ---------- ------ -- ----- -- ----- -- ---- ------<br>--- ----- --- --- ------ -------- ----- --- market ----- --<br>----- ----- ---------- --- --- ------ ------ ---- -- ------<br>------- --- ------ ----- --- ---- ------- -- ---- --- --<br>------- ------,170359.53499999596,170352.2249999951,169901.171,169915.95500000403,169917.837,170367.819,,30,market
screen,html.Screen,1_1_1_1_31,2021-04-27T18:23:56.382Z,,,,,,,,,,,,,,,,54,,,,,,,,,,,,,,388.8260000013106,,response,,,,100,,,,,,,Space,keypress(Space),,,,,,,,-- --- ---- --- ------ ----- ------- ---- -- --- ------- --<br>------- ---------- ------ -- ----- -- ----- -- ---- ------<br>--- ----- --- --- ------ -------- ----- --- ------ value --<br>----- ----- ---------- --- --- ------ ------ ---- -- ------<br>------- --- ------ ----- --- ---- ------- -- ---- --- --<br>------- ------,170763.6449999991,170756.6450000013,170351.153,170359.70000000088,170367.819,170767.803,,31,value
screen,html.Screen,1_1_1_1_32,2021-04-27T18:23:56.737Z,,,,,,,,,,,,,,,,54,,,,,,,,,,,,,,343.67700000683544,,response,,,,100,,,,,,,Space,keypress(Space),,,,,,,,-- --- ---- --- ------ ----- ------- ---- -- --- ------- --<br>------- ---------- ------ -- ----- -- ----- -- ---- ------<br>--- ----- --- --- ------ -------- ----- --- ------ ----- of<br>----- ----- ---------- --- --- ------ ------ ---- -- ------<br>------- --- ------ ----- --- ---- ------- -- ---- --- --<br>------- ------,171118.83500000113,171111.48000000685,170751.137,170763.80499999505,170767.803,171134.455,,32,of
screen,html.Screen,1_1_1_1_33,2021-04-27T18:23:57.091Z,,,,,,,,,,,,,,,,54,,,,,,,,,,,,,,331.3149999952584,,response,,,,100,,,,,,,Space,keypress(Space),,,,,,,,-- --- ---- --- ------ ----- ------- ---- -- --- ------- --<br>------- ---------- ------ -- ----- -- ----- -- ---- ------<br>--- ----- --- --- ------ -------- ----- --- ------ ----- --<br>these ----- ---------- --- --- ------ ------ ---- -- ------<br>------- --- ------ ----- --- ---- ------- -- ---- --- --<br>------- ------,171473.1150000007,171465.76999999525,171117.789,171118.99499999708,171134.455,171484.441,,33,these
screen,html.Screen,1_1_1_1_34,2021-04-27T18:23:57.443Z,,,,,,,,,,,,,,,,54,,,,,,,,,,,,,,333.54899999592453,,response,,,,100,,,,,,,Space,keypress(Space),,,,,,,,-- --- ---- --- ------ ----- ------- ---- -- --- ------- --<br>------- ---------- ------ -- ----- -- ----- -- ---- ------<br>--- ----- --- --- ------ -------- ----- --- ------ ----- --<br>----- bonds ---------- --- --- ------ ------ ---- -- ------<br>------- --- ------ ----- --- ---- ------- -- ---- --- --<br>------- ------,171825.09500000742,171817.98999999592,171467.775,171473.27499999665,171484.441,171834.427,,34,bonds
screen,html.Screen,1_1_1_1_35,2021-04-27T18:23:58.026Z,,,,,,,,,,,,,,,,54,,,,,,,,,,,,,,566.0279999954219,,response,,,,100,,,,,,,Space,keypress(Space),,,,,,,,"-- --- ---- --- ------ ----- ------- ---- -- --- ------- --<br>------- ---------- ------ -- ----- -- ----- -- ---- ------<br>--- ----- --- --- ------ -------- ----- --- ------ ----- --<br>----- ----- plummeted, --- --- ------ ------ ---- -- ------<br>------- --- ------ ----- --- ---- ------- -- ---- --- --<br>------- ------",172407.94499999902,172400.45499999542,171817.761,171825.25500000338,171834.427,172417.737,,35,"plummeted,"
screen,html.Screen,1_1_1_1_36,2021-04-27T18:23:58.447Z,,,,,,,,,,,,,,,,54,,,,,,,,,,,,,,403.0230000023439,,response,,,,100,,,,,,,Space,keypress(Space),,,,,,,,-- --- ---- --- ------ ----- ------- ---- -- --- ------- --<br>------- ---------- ------ -- ----- -- ----- -- ---- ------<br>--- ----- --- --- ------ -------- ----- --- ------ ----- --<br>----- ----- ---------- and --- ------ ------ ---- -- ------<br>------- --- ------ ----- --- ---- ------- -- ---- --- --<br>------- ------,172829.43500000692,172820.76000000234,172401.071,172408.10499999498,172417.737,172834.387,,36,and
screen,html.Screen,1_1_1_1_37,2021-04-27T18:23:58.841Z,,,,,,,,,,,,,,,,54,,,,,,,,,,,,,,381.04299999657087,,response,,,,100,,,,,,,Space,keypress(Space),,,,,,,,-- --- ---- --- ------ ----- ------- ---- -- --- ------- --<br>------- ---------- ------ -- ----- -- ----- -- ---- ------<br>--- ----- --- --- ------ -------- ----- --- ------ ----- --<br>----- ----- ---------- --- the ------ ------ ---- -- ------<br>------- --- ------ ----- --- ---- ------- -- ---- --- --<br>------- ------,173222.85499999998,173215.42999999656,172817.721,172829.66000000306,172834.387,173234.371,,37,the
screen,html.Screen,1_1_1_1_38,2021-04-27T18:23:59.281Z,,,,,,,,,,,,,,,,54,,,,,,,,,,,,,,420.21399999657297,,response,,,,100,,,,,,,Space,keypress(Space),,,,,,,,-- --- ---- --- ------ ----- ------- ---- -- --- ------- --<br>------- ---------- ------ -- ----- -- ----- -- ---- ------<br>--- ----- --- --- ------ -------- ----- --- ------ ----- --<br>----- ----- ---------- --- --- market ------ ---- -- ------<br>------- --- ------ ----- --- ---- ------- -- ---- --- --<br>------- ------,173662.68500000297,173654.5849999966,173217.705,173223.01499999594,173234.371,173667.687,,38,market
screen,html.Screen,1_1_1_1_39,2021-04-27T18:23:59.621Z,,,,,,,,,,,,,,,,54,,,,,,,,,,,,,,327.7279999975872,,response,,,,100,,,,,,,Space,keypress(Space),,,,,,,,-- --- ---- --- ------ ----- ------- ---- -- --- ------- --<br>------- ---------- ------ -- ----- -- ----- -- ---- ------<br>--- ----- --- --- ------ -------- ----- --- ------ ----- --<br>----- ----- ---------- --- --- ------ became ---- -- ------<br>------- --- ------ ----- --- ---- ------- -- ---- --- --<br>------- ------,174003.07000000612,173995.4149999976,173651.021,173663.155000002,173667.687,174019.163,,39,became
screen,html.Screen,1_1_1_1_40,2021-04-27T18:24:00.082Z,,,,,,,,,,,,,,,,54,,,,,,,,,,,,,,437.5270000063465,,response,,,,100,,,,,,,Space,keypress(Space),,,,,,,,-- --- ---- --- ------ ----- ------- ---- -- --- ------- --<br>------- ---------- ------ -- ----- -- ----- -- ---- ------<br>--- ----- --- --- ------ -------- ----- --- ------ ----- --<br>----- ----- ---------- --- --- ------ ------ wary -- ------<br>------- --- ------ ----- --- ---- ------- -- ---- --- --<br>------- ------,174464.30000000692,174456.69000000635,174002.497,174003.25500000326,174019.163,174469.145,,40,wary
screen,html.Screen,1_1_1_1_41,2021-04-27T18:24:00.569Z,,,,,,,,,,,,,,,,54,,,,,,,,,,,,,,474.2599999981758,,response,,,,100,,,,,,,Space,keypress(Space),,,,,,,,-- --- ---- --- ------ ----- ------- ---- -- --- ------- --<br>------- ---------- ------ -- ----- -- ----- -- ---- ------<br>--- ----- --- --- ------ -------- ----- --- ------ ----- --<br>----- ----- ---------- --- --- ------ ------ ---- of ------<br>------- --- ------ ----- --- ---- ------- -- ---- --- --<br>------- ------,174951.20999999926,174943.40499999817,174452.479,174464.54000000085,174469.145,174952.459,,41,of
screen,html.Screen,1_1_1_1_42,2021-04-27T18:24:00.932Z,,,,,,,,,,,,,,,,54,,,,,,,,,,,,,,353.6110000059998,,response,,,,100,,,,,,,Space,keypress(Space),,,,,,,,-- --- ---- --- ------ ----- ------- ---- -- --- ------- --<br>------- ---------- ------ -- ----- -- ----- -- ---- ------<br>--- ----- --- --- ------ -------- ----- --- ------ ----- --<br>----- ----- ---------- --- --- ------ ------ ---- -- French<br>------- --- ------ ----- --- ---- ------- -- ---- --- --<br>------- ------,175313.77500000235,175306.070000006,174935.793,174951.44000000437,174952.459,175319.111,,42,French
screen,html.Screen,1_1_1_1_43,2021-04-27T18:24:01.315Z,,,,,,,,,,,,,,,,54,,,,,,,,,,,,,,370.2990000063146,,response,,,,100,,,,,,,Space,keypress(Space),,,,,,,,-- --- ---- --- ------ ----- ------- ---- -- --- ------- --<br>------- ---------- ------ -- ----- -- ----- -- ---- ------<br>--- ----- --- --- ------ -------- ----- --- ------ ----- --<br>----- ----- ---------- --- --- ------ ------ ---- -- ------<br>credit. --- ------ ----- --- ---- ------- -- ---- --- --<br>------- ------,175696.7399999994,175689.41000000632,175302.445,175313.95500000508,175319.111,175702.429,,43,credit.
screen,html.Screen,1_1_1_1_44,2021-04-27T18:24:01.756Z,,,,,,,,,,,,,,,,54,,,,,,,,,,,,,,428.9410000027856,,response,,,,100,,,,,,,Space,keypress(Space),,,,,,,,-- --- ---- --- ------ ----- ------- ---- -- --- ------- --<br>------- ---------- ------ -- ----- -- ----- -- ---- ------<br>--- ----- --- --- ------ -------- ----- --- ------ ----- --<br>----- ----- ---------- --- --- ------ ------ ---- -- ------<br>------- The ------ ----- --- ---- ------- -- ---- --- --<br>------- ------,176138.44500000414,176131.3700000028,175685.763,175696.97499999893,175702.429,176152.411,,44,The
screen,html.Screen,1_1_1_1_45,2021-04-27T18:24:02.180Z,,,,,,,,,,,,,,,,54,,,,,,,,,,,,,,401.8289999976696,,response,,,,100,,,,,,,Space,keypress(Space),,,,,,,,-- --- ---- --- ------ ----- ------- ---- -- --- ------- --<br>------- ---------- ------ -- ----- -- ----- -- ---- ------<br>--- ----- --- --- ------ -------- ----- --- ------ ----- --<br>----- ----- ---------- --- --- ------ ------ ---- -- ------<br>------- --- French ----- --- ---- ------- -- ---- --- --<br>------- ------,176562.12000000232,176554.23999999766,176135.745,176138.60000000568,176152.411,176569.061,,45,French
screen,html.Screen,1_1_1_1_46,2021-04-27T18:24:02.590Z,,,,,,,,,,,,,,,,54,,,,,,,,,,,,,,395.65400000917725,,response,,,,100,,,,,,,Space,keypress(Space),,,,,,,,-- --- ---- --- ------ ----- ------- ---- -- --- ------- --<br>------- ---------- ------ -- ----- -- ----- -- ---- ------<br>--- ----- --- --- ------ -------- ----- --- ------ ----- --<br>----- ----- ---------- --- --- ------ ------ ---- -- ------<br>------- --- ------ state --- ---- ------- -- ---- --- --<br>------- ------,176972.4450000067,176964.71500000916,176552.395,176562.27500000386,176569.061,176985.711,,46,state
screen,html.Screen,1_1_1_1_47,2021-04-27T18:24:02.950Z,,,,,,,,,,,,,,,,54,,,,,,,,,,,,,,339.58400000235997,,response,,,,100,,,,,,,Space,keypress(Space),,,,,,,,-- --- ---- --- ------ ----- ------- ---- -- --- ------- --<br>------- ---------- ------ -- ----- -- ----- -- ---- ------<br>--- ----- --- --- ------ -------- ----- --- ------ ----- --<br>----- ----- ---------- --- --- ------ ------ ---- -- ------<br>------- --- ------ ----- was ---- ------- -- ---- --- --<br>------- ------,177332.4250000005,177325.29500000237,176969.045,176972.64999999607,176985.711,177335.697,,47,was
screen,html.Screen,1_1_1_1_48,2021-04-27T18:24:03.366Z,,,,,,,,,,,,,,,,54,,,,,,,,,,,,,,405.4829999972717,,response,,,,100,,,,,,,Space,keypress(Space),,,,,,,,-- --- ---- --- ------ ----- ------- ---- -- --- ------- --<br>------- ---------- ------ -- ----- -- ----- -- ---- ------<br>--- ----- --- --- ------ -------- ----- --- ------ ----- --<br>----- ----- ---------- --- --- ------ ------ ---- -- ------<br>------- --- ------ ----- --- left ------- -- ---- --- --<br>------- ------,177748.26000000758,177741.17999999726,177319.031,177332.58499999647,177335.697,177752.347,,48,left
screen,html.Screen,1_1_1_1_49,2021-04-27T18:24:03.794Z,,,,,,,,,,,,,,,,54,,,,,,,,,,,,,,415.9680000026128,,response,,,,100,,,,,,,Space,keypress(Space),,,,,,,,-- --- ---- --- ------ ----- ------- ---- -- --- ------- --<br>------- ---------- ------ -- ----- -- ----- -- ---- ------<br>--- ----- --- --- ------ -------- ----- --- ------ ----- --<br>----- ----- ---------- --- --- ------ ------ ---- -- ------<br>------- --- ------ ----- --- ---- without -- ---- --- --<br>------- ------,178175.9699999966,178168.31500000262,177735.681,177748.41500000912,177752.347,178185.663,,49,without
screen,html.Screen,1_1_1_1_50,2021-04-27T18:24:04.162Z,,,,,,,,,,,,,,,,54,,,,,,,,,,,,,,350.47699999652104,,response,,,,100,,,,,,,Space,keypress(Space),,,,,,,,-- --- ---- --- ------ ----- ------- ---- -- --- ------- --<br>------- ---------- ------ -- ----- -- ----- -- ---- ------<br>--- ----- --- --- ------ -------- ----- --- ------ ----- --<br>----- ----- ---------- --- --- ------ ------ ---- -- ------<br>------- --- ------ ----- --- ---- ------- an ---- --- --<br>------- ------,178544.08999999578,178536.13999999652,178168.997,178176.13500000152,178185.663,178552.315,,50,an
screen,html.Screen,1_1_1_1_51,2021-04-27T18:24:04.515Z,,,,,,,,,,,,,,,,54,,,,,,,,,,,,,,336.9800000008545,,response,,,,100,,,,,,,Space,keypress(Space),,,,,,,,-- --- ---- --- ------ ----- ------- ---- -- --- ------- --<br>------- ---------- ------ -- ----- -- ----- -- ---- ------<br>--- ----- --- --- ------ -------- ----- --- ------ ----- --<br>----- ----- ---------- --- --- ------ ------ ---- -- ------<br>------- --- ------ ----- --- ---- ------- -- easy --- --<br>------- ------,178896.95999999822,178889.29500000086,178535.649,178544.3249999953,178552.315,178902.301,,51,easy
screen,html.Screen,1_1_1_1_52,2021-04-27T18:24:04.889Z,,,,,,,,,,,,,,,,54,,,,,,,,,,,,,,361.56899999521556,,response,,,,100,,,,,,,Space,keypress(Space),,,,,,,,-- --- ---- --- ------ ----- ------- ---- -- --- ------- --<br>------- ---------- ------ -- ----- -- ----- -- ---- ------<br>--- ----- --- --- ------ -------- ----- --- ------ ----- --<br>----- ----- ---------- --- --- ------ ------ ---- -- ------<br>------- --- ------ ----- --- ---- ------- -- ---- way --<br>------- ------,179271.50499999698,179263.86999999522,178885.635,178897.11499999976,178902.301,179285.619,,52,way
screen,html.Screen,1_1_1_1_53,2021-04-27T18:24:05.237Z,,,,,,,,,,,,,,,,54,,,,,,,,,,,,,,325.7810000088648,,response,,,,100,,,,,,,Space,keypress(Space),,,,,,,,-- --- ---- --- ------ ----- ------- ---- -- --- ------- --<br>------- ---------- ------ -- ----- -- ----- -- ---- ------<br>--- ----- --- --- ------ -------- ----- --- ------ ----- --<br>----- ----- ---------- --- --- ------ ------ ---- -- ------<br>------- --- ------ ----- --- ---- ------- -- ---- --- of<br>------- ------,179619.23500000557,179611.40000000887,179268.953,179271.7399999965,179285.619,179635.605,,53,of
screen,html.Screen,1_1_1_1_54,2021-04-27T18:24:05.745Z,,,,,,,,,,,,,,,,54,,,,,,,,,,,,,,487.42000000804546,,response,,,,100,,,,,,,Space,keypress(Space),,,,,,,,-- --- ---- --- ------ ----- ------- ---- -- --- ------- --<br>------- ---------- ------ -- ----- -- ----- -- ---- ------<br>--- ----- --- --- ------ -------- ----- --- ------ ----- --<br>----- ----- ---------- --- --- ------ ------ ---- -- ------<br>------- --- ------ ----- --- ---- ------- -- ---- --- --<br>raising ------,180127.3599999986,180123.02500000806,179618.939,179619.39500000153,179635.605,180135.585,,54,raising
screen,html.Screen,1_1_1_1_55,2021-04-27T18:24:06.146Z,,,,,,,,,,,,,,,,54,,,,,,,,,,,,,,389.24000000042724,,response,,,,100,,,,,,,Space,keypress(Space),,,,,,,,-- --- ---- --- ------ ----- ------- ---- -- --- ------- --<br>------- ---------- ------ -- ----- -- ----- -- ---- ------<br>--- ----- --- --- ------ -------- ----- --- ------ ----- --<br>----- ----- ---------- --- --- ------ ------ ---- -- ------<br>------- --- ------ ----- --- ---- ------- -- ---- --- --<br>------- money.,180528.55499999714,180524.82500000042,180118.919,180127.5100000057,180135.585,180535.569,,55,money.
Item 100,flow.Loop,1_1_1_1,2021-04-27T18:24:06.146Z,,,,,,,,,,,,,,,,,,,,,,,,,,,,,,24841.35300000041,,completion,,,,,B,,,,,,,,,,,silence,,,,,180528.74500000325,180524.82500000042,155666.806,155669.34000000765,155683.472,180535.569,,,
Question 1,html.Screen,1_1_1_2,2021-04-27T18:24:08.863Z,,,,,,,,,,,,,,,,,,,,,,,,,,,true,TRUE,,2705.3860000011337,,response,,,,100,B,,,,,,TRUE,click #choice-1,,,,silence,,,,,183245.02499999653,183240.95500000112,180518.903,180528.82999999565,180535.569,183252.127,,,
Question 2,html.Screen,1_1_1_3,2021-04-27T18:24:10.992Z,,,,,,,,,,,,,,,,,,,,,,,,,,,false,FALSE,,2118.5530000072613,,response,,,,100,B,,,,,,TRUE,click #choice-1,,,,silence,,,,,185374.21999999788,185370.68000000727,183235.461,183245.28000000282,183252.127,185385.321,,,
Item 100,flow.Sequence,1_1_1,2021-04-27T18:24:10.992Z,,,,,,,,,,,,,,,,,,,,,,,,,,,,,,39681.770000007265,,completion,,,,,,,,,,,,,,,,,,,,,185374.56500000553,185370.68000000727,145672.244,145681.27499999537,145688.91,185385.321,,,
End of Practice,html.Page,1_1_2,2021-04-27T18:24:15.578Z,,,,,,,,,,,,,,,,,,,,,,,,,,,,,,4574.373999997741,,form submission,,,,,,,,,,,,,,,,,,,,,189960.56500000122,189959.69499999774,185368.655,185374.7250000015,185385.321,189968.471,,,
Practice,flow.Sequence,1_1,2021-04-27T18:24:15.578Z,,,,,,,,,,,,,,,,,,,,,,,,,,,,,,89369.50899999774,,completion,,,,,,,,,,,,,,,,,,,,,189960.9599999967,189959.69499999774,100573.52,100588.7800000055,100590.186,189968.471,,,
Trap_instruction,html.Page,1_2_0,2021-04-27T18:24:22.256Z,,,,,,,,,,,,,,,,,,,,,,,,,,,,,,6669.534000000713,,form submission,,,,,,,,,,,,,,,,,,,,,196638.67000000027,196638.0050000007,189951.805,189961.1450000084,189968.471,196651.537,,,
trap_trial,html.Screen,1_2_1,2021-04-27T18:24:26.024Z,,,,,,,,,,,,,,,,,,,,,,,,,,,true,1,,3751.077999999048,,response,,,,,,,,,,,1,click #choice-1,,,,,,,,,200406.5499999997,200402.61499999906,196634.871,196638.90000000538,196651.537,200419.559,,,
end of trap trial,html.Page,1_2_2,2021-04-27T18:24:27.959Z,,,,,,,,,,,,,,,,,,,,,,,,,,,,,,1921.4610000071116,,form submission,,,,,,,,,,,,,,,,,,,,,202341.66499999992,202341.02000000712,200402.893,200406.79999999702,200419.559,202352.815,,,
Trap 1,flow.Sequence,1_2,2021-04-27T18:24:27.959Z,,,,,,,,,,,,,,,,,,,,,,,,,,,,,,12372.54900000713,,completion,,,,,,,,,,,,,,,,,,,,,202341.99499999522,202341.02000000712,189951.805,189961.10000000044,189968.471,202352.815,,,
Standby,html.Page,1_3_0,2021-04-27T18:24:35.955Z,,,,,,,,,,,,,,,,,,,,,,,,,,,,,,7999.679999999993,,timeout,,,,,,,,,,,,,,,,,,,,,210338.54500000598,210335.829,202336.149,202342.21499999694,202352.815,210352.495,,,
Holding screen,html.Screen,1_3_1_0_0,2021-04-27T18:24:42.947Z,,,,,,,,,,,,,,,,,,,,,,,,,,,,,,6992.932000000001,,timeout,,,,,,,,,,,,,,,,,,,,,217330.7999999961,217328.761,210335.829,210338.88500000467,210352.495,217345.427,,,
screen,html.Screen,1_3_1_0_1_0,2021-04-27T18:24:43.579Z,,,,,,,,,,,,,,,,2,,,,,,,,,,,,,,609.5229999993753,,response,,,,1,B,,,,,,Space,keypress(Space),,,,lyrical,,,,Two ---- ------ --- ------- ---------- ------- ----------<br>--- --------- --- ----------- ------- ----- ------- ---<br>--------- ---- -- --- ---- -- --------- -- ---- -------<br>-- --------- ------ --- ----- ------ ---- --- --------- --<br>------ - ---- -- --- ----------- ------- ---- ----- -----<br>--- -------- - ------ ---- -- ----- ---- --- --- -----------<br>-- -------,217962.9350000032,217954.94999999937,217328.761,217331.16499999596,217345.427,217978.735,,0,Two
screen,html.Screen,1_3_1_0_1_1,2021-04-27T18:24:44.140Z,,,,,,,,,,,,,,,,2,,,,,,,,,,,,,,537.6050000019604,,response,,,,1,B,,,,,,Space,keypress(Space),,,,lyrical,,,,--- days ------ --- ------- ---------- ------- ----------<br>--- --------- --- ----------- ------- ----- ------- ---<br>--------- ---- -- --- ---- -- --------- -- ---- -------<br>-- --------- ------ --- ----- ------ ---- --- --------- --<br>------ - ---- -- --- ----------- ------- ---- ----- -----<br>--- -------- - ------ ---- -- ----- ---- --- --- -----------<br>-- -------,218523.6450000084,218516.34000000195,217962.069,217963.12000000034,217978.735,218528.713,,1,days
screen,html.Screen,1_3_1_0_1_2,2021-04-27T18:24:44.475Z,,,,,,,,,,,,,,,,2,,,,,,,,,,,,,,322.66700000735,,response,,,,1,B,,,,,,Space,keypress(Space),,,,lyrical,,,,"--- ---- later, --- ------- ---------- ------- ----------<br>--- --------- --- ----------- ------- ----- ------- ---<br>--------- ---- -- --- ---- -- --------- -- ---- -------<br>-- --------- ------ --- ----- ------ ---- --- --------- --<br>------ - ---- -- --- ----------- ------- ---- ----- -----<br>--- -------- - ------ ---- -- ----- ---- --- --- -----------<br>-- -------",218859.08000000927,218851.38000000734,218512.047,218523.88999999675,218528.713,218862.033,,2,"later,"
screen,html.Screen,1_3_1_0_1_3,2021-04-27T18:24:44.884Z,,,,,,,,,,,,,,,,2,,,,,,,,,,,,,,398.43700000835815,,response,,,,1,B,,,,,,Space,keypress(Space),,,,lyrical,,,,--- ---- ------ the ------- ---------- ------- ----------<br>--- --------- --- ----------- ------- ----- ------- ---<br>--------- ---- -- --- ---- -- --------- -- ---- -------<br>-- --------- ------ --- ----- ------ ---- --- --------- --<br>------ - ---- -- --- ----------- ------- ---- ----- -----<br>--- -------- - ------ ---- -- ----- ---- --- --- -----------<br>-- -------,219267.48500000394,219260.47000000835,218845.367,218859.24000000523,218862.033,219278.683,,3,the
screen,html.Screen,1_3_1_0_1_4,2021-04-27T18:24:45.276Z,,,,,,,,,,,,,,,,2,,,,,,,,,,,,,,373.921999995684,,response,,,,1,B,,,,,,Space,keypress(Space),,,,lyrical,,,,--- ---- ------ --- British ---------- ------- ----------<br>--- --------- --- ----------- ------- ----- ------- ---<br>--------- ---- -- --- ---- -- --------- -- ---- -------<br>-- --------- ------ --- ----- ------ ---- --- --------- --<br>------ - ---- -- --- ----------- ------- ---- ----- -----<br>--- -------- - ------ ---- -- ----- ---- --- --- -----------<br>-- -------,219660.15999999945,219652.60499999567,219262.017,219267.6449999999,219278.683,219662.001,,4,British
screen,html.Screen,1_3_1_0_1_5,2021-04-27T18:24:45.664Z,,,,,,,,,,,,,,,,2,,,,,,,,,,,,,,377.58400000591064,,response,,,,1,B,,,,,,Space,keypress(Space),,,,lyrical,,,,--- ---- ------ --- ------- astronomer ------- ----------<br>--- --------- --- ----------- ------- ----- ------- ---<br>--------- ---- -- --- ---- -- --------- -- ---- -------<br>-- --------- ------ --- ----- ------ ---- --- --------- --<br>------ - ---- -- --- ----------- ------- ---- ----- -----<br>--- -------- - ------ ---- -- ----- ---- --- --- -----------<br>-- -------,220047.20000000088,220039.5850000059,219645.335,219660.3199999954,219662.001,220061.985,,5,astronomer
screen,html.Screen,1_3_1_0_1_6,2021-04-27T18:24:45.810Z,,,,,,,,,,,,,,,,2,,,,,,,,,,,,,,124.66500000329688,,response,,,,1,B,,,,,,Space,keypress(Space),,,,lyrical,,,,--- ---- ------ --- ------- ---------- Richard ----------<br>--- --------- --- ----------- ------- ----- ------- ---<br>--------- ---- -- --- ---- -- --------- -- ---- -------<br>-- --------- ------ --- ----- ------ ---- --- --------- --<br>------ - ---- -- --- ----------- ------- ---- ----- -----<br>--- -------- - ------ ---- -- ----- ---- --- --- -----------<br>-- -------,220193.52000000072,220186.65000000328,220045.319,220047.38499999803,220061.985,220195.313,,6,Richard
screen,html.Screen,1_3_1_0_1_7,2021-04-27T18:24:46.717Z,,,,,,,,,,,,,,,,2,,,,,,,,,,,,,,898.202000000485,,response,,,,1,B,,,,,,Space,keypress(Space),,,,lyrical,,,,--- ---- ------ --- ------- ---------- ------- Carrington<br>--- --------- --- ----------- ------- ----- ------- ---<br>--------- ---- -- --- ---- -- --------- -- ---- -------<br>-- --------- ------ --- ----- ------ ---- --- --------- --<br>------ - ---- -- --- ----------- ------- ---- ----- -----<br>--- -------- - ------ ---- -- ----- ---- --- --- -----------<br>-- -------,221100.63499999524,221093.51500000048,220178.647,220193.67500000226,220195.313,221111.943,,7,Carrington
screen,html.Screen,1_3_1_0_1_8,2021-04-27T18:24:47.100Z,,,,,,,,,,,,,,,,2,,,,,,,,,,,,,,364.55199999533943,,response,,,,1,B,,,,,,Space,keypress(Space),,,,lyrical,,,,--- ---- ------ --- ------- ---------- ------- ----------<br>was --------- --- ----------- ------- ----- ------- ---<br>--------- ---- -- --- ---- -- --------- -- ---- -------<br>-- --------- ------ --- ----- ------ ---- --- --------- --<br>------ - ---- -- --- ----------- ------- ---- ----- -----<br>--- -------- - ------ ---- -- ----- ---- --- --- -----------<br>-- -------,221484.06499999692,221476.49499999534,221095.277,221100.78999999678,221111.943,221495.261,,8,was
screen,html.Screen,1_3_1_0_1_9,2021-04-27T18:24:47.586Z,,,,,,,,,,,,,,,,2,,,,,,,,,,,,,,468.1440000022412,,response,,,,1,B,,,,,,Space,keypress(Space),,,,lyrical,,,,--- ---- ------ --- ------- ---------- ------- ----------<br>--- observing --- ----------- ------- ----- ------- ---<br>--------- ---- -- --- ---- -- --------- -- ---- -------<br>-- --------- ------ --- ----- ------ ---- --- --------- --<br>------ - ---- -- --- ----------- ------- ---- ----- -----<br>--- -------- - ------ ---- -- ----- ---- --- --- -----------<br>-- -------,221970.1550000027,221963.40500000224,221478.595,221484.22500000743,221495.261,221978.944,,9,observing
screen,html.Screen,1_3_1_0_1_10,2021-04-27T18:24:47.966Z,,,,,,,,,,,,,,,,2,,,,,,,,,,,,,,363.4909999986703,,response,,,,1,B,,,,,,Space,keypress(Space),,,,lyrical,,,,--- ---- ------ --- ------- ---------- ------- ----------<br>--- --------- the ----------- ------- ----- ------- ---<br>--------- ---- -- --- ---- -- --------- -- ---- -------<br>-- --------- ------ --- ----- ------ ---- --- --------- --<br>------ - ---- -- --- ----------- ------- ---- ----- -----<br>--- -------- - ------ ---- -- ----- ---- --- --- -----------<br>-- -------,222349.97500000463,222342.43499999866,221962.278,221970.32000000763,221978.944,222362.262,,10,the
screen,html.Screen,1_3_1_0_1_11,2021-04-27T18:24:48.472Z,,,,,,,,,,,,,,,,2,,,,,,,,,,,,,,486.1530000003986,,response,,,,1,B,,,,,,Space,keypress(Space),,,,lyrical,,,,--- ---- ------ --- ------- ---------- ------- ----------<br>--- --------- --- interesting ------- ----- ------- ---<br>--------- ---- -- --- ---- -- --------- -- ---- -------<br>-- --------- ------ --- ----- ------ ---- --- --------- --<br>------ - ---- -- --- ----------- ------- ---- ----- -----<br>--- -------- - ------ ---- -- ----- ---- --- --- -----------<br>-- -------,222855.98500000197,222848.4150000004,222345.596,222350.1350000006,222362.262,222862.242,,11,interesting
screen,html.Screen,1_3_1_0_1_12,2021-04-27T18:24:49.528Z,,,,,,,,,,,,,,,,2,,,,,,,,,,,,,,1042.2280000085884,,response,,,,1,B,,,,,,Space,keypress(Space),,,,lyrical,,,,--- ---- ------ --- ------- ---------- ------- ----------<br>--- --------- --- ----------- sunspot ----- ------- ---<br>--------- ---- -- --- ---- -- --------- -- ---- -------<br>-- --------- ------ --- ----- ------ ---- --- --------- --<br>------ - ---- -- --- ----------- ------- ---- ----- -----<br>--- -------- - ------ ---- -- ----- ---- --- --- -----------<br>-- -------,223912.29999999632,223904.4700000086,222845.576,222856.1400000035,222862.242,223928.866,,12,sunspot
screen,html.Screen,1_3_1_0_1_13,2021-04-27T18:24:49.987Z,,,,,,,,,,,,,,,,2,,,,,,,,,,,,,,433.38400000557886,,response,,,,1,B,,,,,,Space,keypress(Space),,,,lyrical,,,,--- ---- ------ --- ------- ---------- ------- ----------<br>--- --------- --- ----------- ------- group ------- ---<br>--------- ---- -- --- ---- -- --------- -- ---- -------<br>-- --------- ------ --- ----- ------ ---- --- --------- --<br>------ - ---- -- --- ----------- ------- ---- ----- -----<br>--- -------- - ------ ---- -- ----- ---- --- --- -----------<br>-- -------,224370.49000000115,224362.2500000056,223912.2,223912.525000007,223928.866,224378.848,,13,group
screen,html.Screen,1_3_1_0_1_14,2021-04-27T18:24:50.419Z,,,,,,,,,,,,,,,,2,,,,,,,,,,,,,,416.5520000027027,,response,,,,1,B,,,,,,Space,keypress(Space),,,,lyrical,,,,--- ---- ------ --- ------- ---------- ------- ----------<br>--- --------- --- ----------- ------- ----- through ---<br>--------- ---- -- --- ---- -- --------- -- ---- -------<br>-- --------- ------ --- ----- ------ ---- --- --------- --<br>------ - ---- -- --- ----------- ------- ---- ----- -----<br>--- -------- - ------ ---- -- ----- ---- --- --- -----------<br>-- -------,224802.72500000137,224795.4000000027,224362.182,224370.71000000287,224378.848,224812.164,,14,through
screen,html.Screen,1_3_1_0_1_15,2021-04-27T18:24:50.815Z,,,,,,,,,,,,,,,,2,,,,,,,,,,,,,,379.20600000047125,,response,,,,1,B,,,,,,Space,keypress(Space),,,,lyrical,,,,--- ---- ------ --- ------- ---------- ------- ----------<br>--- --------- --- ----------- ------- ----- ------- his<br>--------- ---- -- --- ---- -- --------- -- ---- -------<br>-- --------- ------ --- ----- ------ ---- --- --------- --<br>------ - ---- -- --- ----------- ------- ---- ----- -----<br>--- -------- - ------ ---- -- ----- ---- --- --- -----------<br>-- -------,225198.8399999973,225191.37000000046,224795.498,224802.88499999733,224812.164,225212.148,,15,his
screen,html.Screen,1_3_1_0_1_16,2021-04-27T18:24:51.323Z,,,,,,,,,,,,,,,,2,,,,,,,,,,,,,,488.1769999979879,,response,,,,1,B,,,,,,Space,keypress(Space),,,,lyrical,,,,--- ---- ------ --- ------- ---------- ------- ----------<br>--- --------- --- ----------- ------- ----- ------- ---<br>telescope ---- -- --- ---- -- --------- -- ---- -------<br>-- --------- ------ --- ----- ------ ---- --- --------- --<br>------ - ---- -- --- ----------- ------- ---- ----- -----<br>--- -------- - ------ ---- -- ----- ---- --- --- -----------<br>-- -------,225707.1050000086,225700.32499999797,225195.482,225199.00500000222,225212.148,225712.128,,16,telescope
screen,html.Screen,1_3_1_0_1_17,2021-04-27T18:24:51.760Z,,,,,,,,,,,,,,,,2,,,,,,,,,,,,,,424.26199999966775,,response,,,,1,B,,,,,,Space,keypress(Space),,,,lyrical,,,,--- ---- ------ --- ------- ---------- ------- ----------<br>--- --------- --- ----------- ------- ----- ------- ---<br>--------- when -- --- ---- -- --------- -- ---- -------<br>-- --------- ------ --- ----- ------ ---- --- --------- --<br>------ - ---- -- --- ----------- ------- ---- ----- -----<br>--- -------- - ------ ---- -- ----- ---- --- --- -----------<br>-- -------,226144.11500000278,226136.38999999966,225695.462,225707.26999999897,225712.128,226145.444,,17,when
screen,html.Screen,1_3_1_0_1_18,2021-04-27T18:24:52.133Z,,,,,,,,,,,,,,,,2,,,,,,,,,,,,,,363.9259999997739,,response,,,,1,B,,,,,,Space,keypress(Space),,,,lyrical,,,,--- ---- ------ --- ------- ---------- ------- ----------<br>--- --------- --- ----------- ------- ----- ------- ---<br>--------- ---- he --- ---- -- --------- -- ---- -------<br>-- --------- ------ --- ----- ------ ---- --- --------- --<br>------ - ---- -- --- ----------- ------- ---- ----- -----<br>--- -------- - ------ ---- -- ----- ---- --- --- -----------<br>-- -------,226516.96999999695,226509.36999999976,226128.778,226144.27000000433,226145.444,226528.762,,18,he
screen,html.Screen,1_3_1_0_1_19,2021-04-27T18:24:52.561Z,,,,,,,,,,,,,,,,2,,,,,,,,,,,,,,409.5180000021355,,response,,,,1,B,,,,,,Space,keypress(Space),,,,lyrical,,,,--- ---- ------ --- ------- ---------- ------- ----------<br>--- --------- --- ----------- ------- ----- ------- ---<br>--------- ---- -- saw ---- -- --------- -- ---- -------<br>-- --------- ------ --- ----- ------ ---- --- --------- --<br>------ - ---- -- --- ----------- ------- ---- ----- -----<br>--- -------- - ------ ---- -- ----- ---- --- --- -----------<br>-- -------,226944.61999999476,226938.28000000212,226512.096,226517.1249999985,226528.762,226945.412,,19,saw
screen,html.Screen,1_3_1_0_1_20,2021-04-27T18:24:52.974Z,,,,,,,,,,,,,,,,2,,,,,,,,,,,,,,405.92800000833813,,response,,,,1,B,,,,,,Space,keypress(Space),,,,lyrical,,,,--- ---- ------ --- ------- ---------- ------- ----------<br>--- --------- --- ----------- ------- ----- ------- ---<br>--------- ---- -- --- what -- --------- -- ---- -------<br>-- --------- ------ --- ----- ------ ---- --- --------- --<br>------ - ---- -- --- ----------- ------- ---- ----- -----<br>--- -------- - ------ ---- -- ----- ---- --- --- -----------<br>-- -------,227358.32500000834,227351.34000000835,226928.746,226944.78000000527,226945.412,227362.062,,20,what
screen,html.Screen,1_3_1_0_1_21,2021-04-27T18:24:53.352Z,,,,,,,,,,,,,,,,2,,,,,,,,,,,,,,366.31300000604824,,response,,,,1,B,,,,,,Space,keypress(Space),,,,lyrical,,,,--- ---- ------ --- ------- ---------- ------- ----------<br>--- --------- --- ----------- ------- ----- ------- ---<br>--------- ---- -- --- ---- he --------- -- ---- -------<br>-- --------- ------ --- ----- ------ ---- --- --------- --<br>------ - ---- -- --- ----------- ------- ---- ----- -----<br>--- -------- - ------ ---- -- ----- ---- --- --- -----------<br>-- -------,227735.7750000083,227728.37500000605,227345.396,227358.60000000685,227362.062,227745.38,,21,he
screen,html.Screen,1_3_1_0_1_22,2021-04-27T18:24:53.845Z,,,,,,,,,,,,,,,,2,,,,,,,,,,,,,,474.9700000032317,,response,,,,1,B,,,,,,Space,keypress(Space),,,,lyrical,,,,--- ---- ------ --- ------- ---------- ------- ----------<br>--- --------- --- ----------- ------- ----- ------- ---<br>--------- ---- -- --- ---- -- described -- ---- -------<br>-- --------- ------ --- ----- ------ ---- --- --------- --<br>------ - ---- -- --- ----------- ------- ---- ----- -----<br>--- -------- - ------ ---- -- ----- ---- --- --- -----------<br>-- -------,228229.21499999939,228220.35000000324,227728.714,227736.00499999884,227745.38,228245.36,,22,described
screen,html.Screen,1_3_1_0_1_23,2021-04-27T18:24:54.300Z,,,,,,,,,,,,,,,,2,,,,,,,,,,,,,,430.850000005099,,response,,,,1,B,,,,,,Space,keypress(Space),,,,lyrical,,,,--- ---- ------ --- ------- ---------- ------- ----------<br>--- --------- --- ----------- ------- ----- ------- ---<br>--------- ---- -- --- ---- -- --------- as ---- -------<br>-- --------- ------ --- ----- ------ ---- --- --------- --<br>------ - ---- -- --- ----------- ------- ---- ----- -----<br>--- -------- - ------ ---- -- ----- ---- --- --- -----------<br>-- -------,228683.85499999567,228676.21000000509,228228.694,228229.4450000045,228245.36,228695.342,,23,as
screen,html.Screen,1_3_1_0_1_24,2021-04-27T18:24:54.694Z,,,,,,,,,,,,,,,,2,,,,,,,,,,,,,,375.86800000915537,,response,,,,1,B,,,,,,Space,keypress(Space),,,,lyrical,,,,"--- ---- ------ --- ------- ---------- ------- ----------<br>--- --------- --- ----------- ------- ----- ------- ---<br>--------- ---- -- --- ---- -- --------- -- ""two -------<br>-- --------- ------ --- ----- ------ ---- --- --------- --<br>------ - ---- -- --- ----------- ------- ---- ----- -----<br>--- -------- - ------ ---- -- ----- ---- --- --- -----------<br>-- -------",229078.33499999833,229071.21000000916,228678.676,228684.09500000416,228695.342,229095.326,,24,"""two"
screen,html.Screen,1_3_1_0_1_25,2021-04-27T18:24:55.264Z,,,,,,,,,,,,,,,,2,,,,,,,,,,,,,,545.0190000070725,,response,,,,1,B,,,,,,Space,keypress(Space),,,,lyrical,,,,--- ---- ------ --- ------- ---------- ------- ----------<br>--- --------- --- ----------- ------- ----- ------- ---<br>--------- ---- -- --- ---- -- --------- -- ---- patches<br>-- --------- ------ --- ----- ------ ---- --- --------- --<br>------ - ---- -- --- ----------- ------- ---- ----- -----<br>--- -------- - ------ ---- -- ----- ---- --- --- -----------<br>-- -------,229648.18000000378,229640.34500000707,229078.66,229078.49500000884,229095.326,229661.97,,25,patches
screen,html.Screen,1_3_1_0_1_26,2021-04-27T18:24:55.694Z,,,,,,,,,,,,,,,,2,,,,,,,,,,,,,,408.34500000448315,,response,,,,1,B,,,,,,Space,keypress(Space),,,,lyrical,,,,--- ---- ------ --- ------- ---------- ------- ----------<br>--- --------- --- ----------- ------- ----- ------- ---<br>--------- ---- -- --- ---- -- --------- -- ---- -------<br>of --------- ------ --- ----- ------ ---- --- --------- --<br>------ - ---- -- --- ----------- ------- ---- ----- -----<br>--- -------- - ------ ---- -- ----- ---- --- --- -----------<br>-- -------,230078.03000000422,230070.31500000448,229645.304,229648.33500000532,229661.97,230095.286,,26,of
screen,html.Screen,1_3_1_0_1_27,2021-04-27T18:24:56.432Z,,,,,,,,,,,,,,,,2,,,,,,,,,,,,,,713.8640000009618,,response,,,,1,B,,,,,,Space,keypress(Space),,,,lyrical,,,,--- ---- ------ --- ------- ---------- ------- ----------<br>--- --------- --- ----------- ------- ----- ------- ---<br>--------- ---- -- --- ---- -- --------- -- ---- -------<br>-- intensely ------ --- ----- ------ ---- --- --------- --<br>------ - ---- -- --- ----------- ------- ---- ----- -----<br>--- -------- - ------ ---- -- ----- ---- --- --- -----------<br>-- -------,230816.00000000617,230809.15000000095,230078.62,230078.33499999833,230095.286,230828.59,,27,intensely
screen,html.Screen,1_3_1_0_1_28,2021-04-27T18:24:56.887Z,,,,,,,,,,,,,,,,2,,,,,,,,,,,,,,435.65499999848544,,response,,,,1,B,,,,,,Space,keypress(Space),,,,lyrical,,,,--- ---- ------ --- ------- ---------- ------- ----------<br>--- --------- --- ----------- ------- ----- ------- ---<br>--------- ---- -- --- ---- -- --------- -- ---- -------<br>-- --------- bright --- ----- ------ ---- --- --------- --<br>------ - ---- -- --- ----------- ------- ---- ----- -----<br>--- -------- - ------ ---- -- ----- ---- --- --- -----------<br>-- -------,231271.27500000643,231264.24499999848,230811.924,230816.1550000077,230828.59,231278.572,,28,bright
screen,html.Screen,1_3_1_0_1_29,2021-04-27T18:24:57.328Z,,,,,,,,,,,,,,,,2,,,,,,,,,,,,,,425.62800000741845,,response,,,,1,B,,,,,,Space,keypress(Space),,,,lyrical,,,,--- ---- ------ --- ------- ---------- ------- ----------<br>--- --------- --- ----------- ------- ----- ------- ---<br>--------- ---- -- --- ---- -- --------- -- ---- -------<br>-- --------- ------ and ----- ------ ---- --- --------- --<br>------ - ---- -- --- ----------- ------- ---- ----- -----<br>--- -------- - ------ ---- -- ----- ---- --- --- -----------<br>-- -------,231711.75499999663,231704.2000000074,231261.906,231271.44500000577,231278.572,231728.554,,29,and
screen,html.Screen,1_3_1_0_1_30,2021-04-27T18:24:57.745Z,,,,,,,,,,,,,,,,2,,,,,,,,,,,,,,393.50099999981467,,response,,,,1,B,,,,,,Space,keypress(Space),,,,lyrical,,,,--- ---- ------ --- ------- ---------- ------- ----------<br>--- --------- --- ----------- ------- ----- ------- ---<br>--------- ---- -- --- ---- -- --------- -- ---- -------<br>-- --------- ------ --- white ------ ---- --- --------- --<br>------ - ---- -- --- ----------- ------- ---- ----- -----<br>--- -------- - ------ ---- -- ----- ---- --- --- -----------<br>-- -------,232129.49500000104,232122.05499999982,231711.888,231711.91500000714,231728.554,232146.738,,30,white
screen,html.Screen,1_3_1_0_1_31,2021-04-27T18:24:58.200Z,,,,,,,,,,,,,,,,2,,,,,,,,,,,,,,429.62200000637677,,response,,,,1,B,,,,,,Space,keypress(Space),,,,lyrical,,,,"--- ---- ------ --- ------- ---------- ------- ----------<br>--- --------- --- ----------- ------- ----- ------- ---<br>--------- ---- -- --- ---- -- --------- -- ---- -------<br>-- --------- ------ --- ----- light"" ---- --- --------- --<br>------ - ---- -- --- ----------- ------- ---- ----- -----<br>--- -------- - ------ ---- -- ----- ---- --- --- -----------<br>-- -------",232584.06000000832,232576.3600000064,232130.072,232129.654999997,232146.738,232596.72,,31,"light"""
screen,html.Screen,1_3_1_0_1_32,2021-04-27T18:24:58.641Z,,,,,,,,,,,,,,,,2,,,,,,,,,,,,,,421.3250000043481,,response,,,,1,B,,,,,,Space,keypress(Space),,,,lyrical,,,,--- ---- ------ --- ------- ---------- ------- ----------<br>--- --------- --- ----------- ------- ----- ------- ---<br>--------- ---- -- --- ---- -- --------- -- ---- -------<br>-- --------- ------ --- ----- ------ over --- --------- --<br>------ - ---- -- --- ----------- ------- ---- ----- -----<br>--- -------- - ------ ---- -- ----- ---- --- --- -----------<br>-- -------,233025.0950000045,233018.04500000435,232580.054,232584.29500000784,232596.72,233030.036,,32,over
screen,html.Screen,1_3_1_0_1_33,2021-04-27T18:24:59.015Z,,,,,,,,,,,,,,,,2,,,,,,,,,,,,,,362.2189999988477,,response,,,,1,B,,,,,,Space,keypress(Space),,,,lyrical,,,,--- ---- ------ --- ------- ---------- ------- ----------<br>--- --------- --- ----------- ------- ----- ------- ---<br>--------- ---- -- --- ---- -- --------- -- ---- -------<br>-- --------- ------ --- ----- ------ ---- the --------- --<br>------ - ---- -- --- ----------- ------- ---- ----- -----<br>--- -------- - ------ ---- -- ----- ---- --- --- -----------<br>-- -------,233399.43000000494,233392.25499999884,233013.37,233025.25500000047,233030.036,233413.354,,33,the
screen,html.Screen,1_3_1_0_1_34,2021-04-27T18:24:59.785Z,,,,,,,,,,,,,,,,2,,,,,,,,,,,,,,748.6709999978193,,response,,,,1,B,,,,,,Space,keypress(Space),,,,lyrical,,,,--- ---- ------ --- ------- ---------- ------- ----------<br>--- --------- --- ----------- ------- ----- ------- ---<br>--------- ---- -- --- ---- -- --------- -- ---- -------<br>-- --------- ------ --- ----- ------ ---- --- sunspots. --<br>------ - ---- -- --- ----------- ------- ---- ----- -----<br>--- -------- - ------ ---- -- ----- ---- --- --- -----------<br>-- -------,234169.44500000682,234162.0249999978,233396.688,233399.59499999532,233413.354,234179.99,,34,sunspots.
screen,html.Screen,1_3_1_0_1_35,2021-04-27T18:25:00.220Z,,,,,,,,,,,,,,,,2,,,,,,,,,,,,,,417.105000004638,,response,,,,1,B,,,,,,Space,keypress(Space),,,,lyrical,,,,--- ---- ------ --- ------- ---------- ------- ----------<br>--- --------- --- ----------- ------- ----- ------- ---<br>--------- ---- -- --- ---- -- --------- -- ---- -------<br>-- --------- ------ --- ----- ------ ---- --- --------- He<br>------ - ---- -- --- ----------- ------- ---- ----- -----<br>--- -------- - ------ ---- -- ----- ---- --- --- -----------<br>-- -------,234604.3800000043,234597.09500000463,234163.324,234169.60500000278,234179.99,234613.306,,35,He
screen,html.Screen,1_3_1_0_1_36,2021-04-27T18:25:00.719Z,,,,,,,,,,,,,,,,2,,,,,,,,,,,,,,485.0540000035835,,response,,,,1,B,,,,,,Space,keypress(Space),,,,lyrical,,,,--- ---- ------ --- ------- ---------- ------- ----------<br>--- --------- --- ----------- ------- ----- ------- ---<br>--------- ---- -- --- ---- -- --------- -- ---- -------<br>-- --------- ------ --- ----- ------ ---- --- --------- --<br>jotted - ---- -- --- ----------- ------- ---- ----- -----<br>--- -------- - ------ ---- -- ----- ---- --- --- -----------<br>-- -------,235103.5600000032,235098.3600000036,234596.64,234604.54500000924,234613.306,235113.286,,36,jotted
