sender,sender_type,sender_id,timestamp,meta,,Blues,Classical,Country,Dance,Electronic,Folk,Gospel,Hip-Hop,Jazz,Latin,Musical/Film,New-age,Pop,Provo_ID,R&B,Rap,Reggae,Religious,Rock,Soul,Swing,Traditional,age,artist_name,correct,correctResponse,distraction,duration,education,ended_on,familiarity,gender,headphone_check_performance,item,list,music_frequency,offensiveness,pleasantness,position_correct,preference,response,response_action,snippet_file,song_name,song_rating,sound,stimulus_1,stimulus_2,stimulus_3,text,time_commit,time_end,time_render,time_run,time_show,time_switch,url,word,word_ID
Introduction,html.Screen,0_0,2021-04-22T19:46:22.195Z,"{""labjs_version"":""20.2.2"",""labjs_build"":{""flavor"":""production"",""commit"":""a25486e0c714a0ae2ce03ff94b7bb6896854dcfa""},""location"":""https://run.pavlovia.org/mvasilev/music_d/"",""userAgent"":""Mozilla/5.0 (Windows NT 10.0; Win64; x64) AppleWebKit/537.36 (KHTML, like Gecko) Chrome/90.0.4430.72 Safari/537.36 Edg/90.0.818.42"",""platform"":""Win32"",""language"":""en-US"",""locale"":""en-US"",""timeZone"":""Europe/London"",""timezoneOffset"":-60,""screen_width"":1280,""screen_height"":720,""scroll_width"":1280,""scroll_height"":562,""window_innerWidth"":1280,""window_innerHeight"":610,""devicePixelRatio"":1.5}",,,,,,,,,,,,,,,,,,,,,,,,,,,,,7492.173000000388,,response,,,,,,,,,,,continue,click button,,,,,,,,,30198.470000003,30193.60500000039,22684.44,22685.14000000141,22701.432,30200.525,{},,
Volume calibration,html.Screen,0_1,2021-04-22T19:47:04.715Z,,,,,,,,,,,,,,,,,,,,,,,,,,,,,,42513.63000000148,,response,,,,,,,,,,,continue,click button,,,,,,,,,72719.3100000004,72714.15500000148,30184.178,30198.96499999959,30200.525,72728.39,,,
Task instructions,html.Screen,0_2,2021-04-22T19:47:26.004Z,,,,,,,,,,,,,,,,,,,,,,,,,,,,,,21278.590000001932,,response,,,,,,,,,,,continue,click button,,,,,,,,,94008.35999999981,94006.98000000193,72711.899,72719.58500000255,72728.39,94040.303,,,
Sounds,html.Screen,0_3_0_0,2021-04-22T19:47:30.275Z,,,,,,,,,,,,,,,,,,,,,,,,,,,,,,4251.434999999998,,timeout,,,,,,,,,3,,,,,,,,I,O,S,,98279.09999999974,98275.42,93992.296,94008.69000000239,94040.303,98291.738,,,
Judgement,html.Screen,0_3_0_1,2021-04-22T19:47:32.367Z,,,,,,,,,,,,,,,,,,,,,,,,,,,true,3,,2076.972000002468,,response,,,,,,,,,3,,3,click #choice-3,,,,,I,O,S,,100370.76000000161,100368.71000000247,98275.42,98279.3550000024,98291.738,100374.758,,,
Trial,flow.Sequence,0_3_0,2021-04-22T19:47:32.367Z,,,,,,,,,,,,,,,,,,,,,,,,,,,,,,6328.407000002466,,completion,,,,,,,,,3,,,,,,,,I,O,S,,100371.01500000063,100368.71000000247,93992.296,94008.61500000246,94040.303,100374.758,,,
Sounds,html.Screen,0_3_1_0,2021-04-22T19:47:36.605Z,,,,,,,,,,,,,,,,,,,,,,,,,,,,,,4249.718999999997,,timeout,,,,,,,,,2,,,,,,,,I,S,O,,104609.12500000268,104607.966,100358.111,100371.13500000123,100374.758,104624.477,,,
Judgement,html.Screen,0_3_1_1,2021-04-22T19:47:37.790Z,,,,,,,,,,,,,,,,,,,,,,,,,,,true,2,,1167.9530000013328,,response,,,,,,,,,2,,2,click #choice-2,,,,,I,S,O,,105793.6950000003,105792.43000000133,104607.966,104609.35000000245,104624.477,105807.501,,,
Trial,flow.Sequence,0_3_1,2021-04-22T19:47:37.790Z,,,,,,,,,,,,,,,,,,,,,,,,,,,,,,5417.67200000133,,completion,,,,,,,,,2,,,,,,,,I,S,O,,105794.1350000001,105792.43000000133,100358.111,100371.1000000003,100374.758,105807.501,,,
Sounds,html.Screen,0_3_2_0,2021-04-22T19:47:42.037Z,,,,,,,,,,,,,,,,,,,,,,,,,,,,,,4249.645999999993,,timeout,,,,,,,,,1,,,,,,,,S,I,O,,110041.4950000013,110040.525,105791.157,105794.43000000174,105807.501,110057.147,,,
Judgement,html.Screen,0_3_2_1,2021-04-22T19:47:42.919Z,,,,,,,,,,,,,,,,,,,,,,,,,,,true,1,,864.7830000004324,,response,,,,,,,,,1,,1,click #choice-1,,,,,S,I,O,,110923.37000000043,110921.93000000043,110040.525,110041.72500000277,110057.147,110956.469,,,
Trial,flow.Sequence,0_3_2,2021-04-22T19:47:42.920Z,,,,,,,,,,,,,,,,,,,,,,,,,,,,,,5114.429000000426,,completion,,,,,,,,,1,,,,,,,,S,I,O,,110923.740000002,110921.93000000043,105791.157,105794.34500000207,105807.501,110956.469,,,
Sounds,html.Screen,0_3_3_0,2021-04-22T19:47:47.187Z,,,,,,,,,,,,,,,,,,,,,,,,,,,,,,4250.008000000002,,timeout,,,,,,,,,3,,,,,,,,O,I,S,,115190.80000000031,115189.61,110907.075,110924.0400000017,110956.469,115206.477,,,
Judgement,html.Screen,0_3_3_1,2021-04-22T19:47:47.963Z,,,,,,,,,,,,,,,,,,,,,,,,,,,true,3,,759.6230000014621,,response,,,,,,,,,3,,3,click #choice-3,,,,,O,I,S,,115967.24000000177,115966.10000000146,115189.61,115191.01000000228,115206.477,115972.923,,,
Trial,flow.Sequence,0_3_3,2021-04-22T19:47:47.963Z,,,,,,,,,,,,,,,,,,,,,,,,,,,,,,5009.631000001464,,completion,,,,,,,,,3,,,,,,,,O,I,S,,115967.55000000121,115966.10000000146,110907.075,110923.95500000202,110956.469,115972.923,,,
Sounds,html.Screen,0_3_4_0,2021-04-22T19:47:52.203Z,,,,,,,,,,,,,,,,,,,,,,,,,,,,,,4249.324000000008,,timeout,,,,,,,,,1,,,,,,,,S,O,I,,120207.34000000084,120205.878,115956.278,115967.7499999998,115972.923,120222.247,,,
Judgement,html.Screen,0_3_4_1,2021-04-22T19:47:53.077Z,,,,,,,,,,,,,,,,,,,,,,,,,,,true,1,,857.6530000006314,,response,,,,,,,,,1,,1,click #choice-1,,,,,S,O,I,,121081.06000000043,121079.90000000063,120205.878,120207.64500000223,120222.247,121088.878,,,
Trial,flow.Sequence,0_3_4,2021-04-22T19:47:53.077Z,,,,,,,,,,,,,,,,,,,,,,,,,,,,,,5106.977000000639,,completion,,,,,,,,,1,,,,,,,,S,O,I,,121081.35000000038,121079.90000000063,115956.278,115967.695000003,115972.923,121088.878,,,
Sounds,html.Screen,0_3_5_0,2021-04-22T19:47:57.319Z,,,,,,,,,,,,,,,,,,,,,,,,,,,,,,4249.445999999996,,timeout,,,,,,,,,2,,,,,,,,O,S,I,,125322.93500000014,125321.868,121072.525,121081.53000000311,121088.878,125338.324,,,
Judgement,html.Screen,0_3_5_1,2021-04-22T19:47:58.220Z,,,,,,,,,,,,,,,,,,,,,,,,,,,true,2,,885.0410000016564,,response,,,,,,,,,2,,2,click #choice-2,,,,,O,S,I,,126224.36000000016,126223.36500000165,125321.868,125323.16999999966,125338.324,126238.136,,,
Trial,flow.Sequence,0_3_5,2021-04-22T19:47:58.221Z,,,,,,,,,,,,,,,,,,,,,,,,,,,,,,5134.487000001653,,completion,,,,,,,,,2,,,,,,,,O,S,I,,126224.60500000307,126223.36500000165,121072.525,121081.48000000074,121088.878,126238.136,,,
Task,flow.Loop,0_3,2021-04-22T19:47:58.226Z,,,,,,,,,,,,,,,,,,,,,,,,,,,,,,32183.06200000165,,completion,,,1,,,,,,,,,,,,,,,,,,126229.90000000209,126223.36500000165,93992.296,94008.55000000229,94040.303,126238.136,,,
Trap,html.Screen,0_4,2021-04-22T19:47:58.227Z,,,,,,,,,,,,,,,,,,,,,,,,,,,,,,NaN,,skipped,,,,,,,,,,,,,,,,,,,,,126231.40000000058,126223.36500000165,,126231.24000000098,,126238.136,,,
Thanks,html.Screen,0_5,2021-04-22T19:48:03.595Z,,,,,,,,,,,,,,,,,,,,,,,,,,,,,,5359.16400000127,,response,,,,,,,,,,,continue,click button,,,,,,,,,131598.74500000296,131597.30000000127,126221.721,126231.53500000262,126238.136,135320.273,,,
Headphone screening,flow.Sequence,0,2021-04-22T19:48:03.595Z,,,,,,,,,,,,,,,,,,,,,,,,,,,,,,108895.86800000127,,completion,,,,,,,,,,,,,,,,,,,,,131599.06500000216,131597.30000000127,22684.44,22685.115000000224,22701.432,135320.273,,,
Instructions,html.Page,1_0,2021-04-22T19:48:38.241Z,,,,,,,,,,,,,,,,,,,,,,,,,,,,,,30924.81700000036,,form submission,,,,,,,,,,,,,,,,,,,,,166245.43000000267,166245.09000000035,135303.586,135292.67000000254,135320.273,166249.698,,,
Holding screen,html.Screen,1_1_0_0,2021-04-22T19:48:48.230Z,,,,,,,,,,,,,,,,,,,,,,,,,,,,,,10015.380000000005,,timeout,,,,,,,,,,,,,,,,,,,,,176233.8000000018,176231.778,166233.041,166245.72500000068,166249.698,176265.078,,,
screen,html.Screen,1_1_0_1_0,2021-04-22T19:48:49.796Z,,,,,,,,,,,,,,,,53,,,,,,,,,,,,,,1531.96200000128,,response,,,,99,,,,,,,Space,keypress(Space),,,,,,,,When -- ----- -- ------ - ------- --- ----------<br>------------- ------ ------ ---- ---- ------- ----- -- ----<br>-------- ------- -- ---------- --- - --- ----- ----- ----<br>---- --- --- ----- --- ---- ---- ------- ----- ---- -------<br>--- --- -- ----- -- --- ---- -- --- ---- -- ------ ------<br>--- ----- -- ----,177800.1550000008,177797.0400000013,176231.778,176234.10499999954,176265.078,177829.838,,0,When
screen,html.Screen,1_1_0_1_1,2021-04-22T19:48:50.924Z,,,,,,,,,,,,,,,,53,,,,,,,,,,,,,,1097.4870000005758,,response,,,,99,,,,,,,Space,keypress(Space),,,,,,,,---- it ----- -- ------ - ------- --- ----------<br>------------- ------ ------ ---- ---- ------- ----- -- ----<br>-------- ------- -- ---------- --- - --- ----- ----- ----<br>---- --- --- ----- --- ---- ---- ------- ----- ---- -------<br>--- --- -- ----- -- --- ---- -- --- ---- -- ------ ------<br>--- ----- -- ----,178928.00999999963,178927.32500000056,177781.736,177800.35000000134,177829.838,178931.386,,1,it
screen,html.Screen,1_1_0_1_2,2021-04-22T19:48:51.816Z,,,,,,,,,,,,,,,,53,,,,,,,,,,,,,,887.9090000011493,,response,,,,99,,,,,,,Space,keypress(Space),,,,,,,,---- -- comes -- ------ - ------- --- ----------<br>------------- ------ ------ ---- ---- ------- ----- -- ----<br>-------- ------- -- ---------- --- - --- ----- ----- ----<br>---- --- --- ----- --- ---- ---- ------- ----- ---- -------<br>--- --- -- ----- -- --- ---- -- --- ---- -- ------ ------<br>--- ----- -- ----,179820.10000000082,179819.29500000115,178914.836,178928.2149999999,178931.386,179831.308,,2,comes
screen,html.Screen,1_1_0_1_3,2021-04-22T19:48:52.217Z,,,,,,,,,,,,,,,,53,,,,,,,,,,,,,,389.0270000018063,,response,,,,99,,,,,,,Space,keypress(Space),,,,,,,,---- -- ----- to ------ - ------- --- ----------<br>------------- ------ ------ ---- ---- ------- ----- -- ----<br>-------- ------- -- ---------- --- - --- ----- ----- ----<br>---- --- --- ----- --- ---- ---- ------- ----- ---- -------<br>--- --- -- ----- -- --- ---- -- --- ---- -- ------ ------<br>--- ----- -- ----,180221.14000000147,180220.3350000018,179814.712,179820.27500000186,179831.308,180231.594,,3,to
screen,html.Screen,1_1_0_1_4,2021-04-22T19:48:52.633Z,,,,,,,,,,,,,,,,53,,,,,,,,,,,,,,404.96100000094157,,response,,,,99,,,,,,,Space,keypress(Space),,,,,,,,---- -- ----- -- having - ------- --- ----------<br>------------- ------ ------ ---- ---- ------- ----- -- ----<br>-------- ------- -- ---------- --- - --- ----- ----- ----<br>---- --- --- ----- --- ---- ---- ------- ----- ---- -------<br>--- --- -- ----- -- --- ---- -- --- ---- -- ------ ------<br>--- ----- -- ----,180637.3249999997,180636.55500000095,180214.526,180221.34000000005,180231.594,180648.168,,4,having
screen,html.Screen,1_1_0_1_5,2021-04-22T19:48:52.979Z,,,,,,,,,,,,,,,,53,,,,,,,,,,,,,,334.2069999995874,,response,,,,99,,,,,,,Space,keypress(Space),,,,,,,,---- -- ----- -- ------ a ------- --- ----------<br>------------- ------ ------ ---- ---- ------- ----- -- ----<br>-------- ------- -- ---------- --- - --- ----- ----- ----<br>---- --- --- ----- --- ---- ---- ------- ----- ---- -------<br>--- --- -- ----- -- --- ---- -- --- ---- -- ------ ------<br>--- ----- -- ----,180982.92500000025,180982.3749999996,180631.375,180637.5450000014,180648.168,180998.054,,5,a
screen,html.Screen,1_1_0_1_6,2021-04-22T19:48:53.411Z,,,,,,,,,,,,,,,,53,,,,,,,,,,,,,,416.51600000081817,,response,,,,99,,,,,,,Space,keypress(Space),,,,,,,,---- -- ----- -- ------ - lasting --- ----------<br>------------- ------ ------ ---- ---- ------- ----- -- ----<br>-------- ------- -- ---------- --- - --- ----- ----- ----<br>---- --- --- ----- --- ---- ---- ------- ----- ---- -------<br>--- --- -- ----- -- --- ---- -- --- ---- -- ------ ------<br>--- ----- -- ----,181415.315000002,181414.57000000082,180981.361,180983.0800000018,180998.054,181431.304,,6,lasting
screen,html.Screen,1_1_0_1_7,2021-04-22T19:48:53.758Z,,,,,,,,,,,,,,,,53,,,,,,,,,,,,,,329.7760000002163,,response,,,,99,,,,,,,Space,keypress(Space),,,,,,,,---- -- ----- -- ------ - ------- and ----------<br>------------- ------ ------ ---- ---- ------- ----- -- ----<br>-------- ------- -- ---------- --- - --- ----- ----- ----<br>---- --- --- ----- --- ---- ---- ------- ----- ---- -------<br>--- --- -- ----- -- --- ---- -- --- ---- -- ------ ------<br>--- ----- -- ----,181761.81999999972,181761.08000000022,181414.664,181415.4950000011,181431.304,181764.345,,7,and
screen,html.Screen,1_1_0_1_8,2021-04-22T19:48:54.278Z,,,,,,,,,,,,,,,,53,,,,,,,,,,,,,,517.3150000005553,,response,,,,99,,,,,,,Space,keypress(Space),,,,,,,,---- -- ----- -- ------ - ------- --- fulfilling<br>------------- ------ ------ ---- ---- ------- ----- -- ----<br>-------- ------- -- ---------- --- - --- ----- ----- ----<br>---- --- --- ----- --- ---- ---- ------- ----- ---- -------<br>--- --- -- ----- -- --- ---- -- --- ---- -- ------ ------<br>--- ----- -- ----,182282.395000002,182281.66000000056,181747.687,181762.01500000025,181764.345,182297.993,,8,fulfilling
screen,html.Screen,1_1_0_1_9,2021-04-22T19:48:54.779Z,,,,,,,,,,,,,,,,53,,,,,,,,,,,,,,484.12699999986216,,response,,,,99,,,,,,,Space,keypress(Space),,,,,,,,"---- -- ----- -- ------ - ------- --- ----------<br>relationship, ------ ------ ---- ---- ------- ----- -- ----<br>-------- ------- -- ---------- --- - --- ----- ----- ----<br>---- --- --- ----- --- ---- ---- ------- ----- ---- -------<br>--- --- -- ----- -- --- ---- -- --- ---- -- ------ ------<br>--- ----- -- ----",182782.87000000273,182782.11999999985,182281.187,182282.60000000228,182297.993,182797.904,,9,"relationship,"
screen,html.Screen,1_1_0_1_10,2021-04-22T19:48:55.250Z,,,,,,,,,,,,,,,,53,,,,,,,,,,,,,,455.00100000118255,,response,,,,99,,,,,,,Space,keypress(Space),,,,,,,,---- -- ----- -- ------ - ------- --- ----------<br>------------- common ------ ---- ---- ------- ----- -- ----<br>-------- ------- -- ---------- --- - --- ----- ----- ----<br>---- --- --- ----- --- ---- ---- ------- ----- ---- -------<br>--- --- -- ----- -- --- ---- -- --- ---- -- ------ ------<br>--- ----- -- ----,183253.5850000022,183252.9050000012,182781.148,182783.08500000276,182797.904,183264.548,,10,common
screen,html.Screen,1_1_0_1_11,2021-04-22T19:48:55.601Z,,,,,,,,,,,,,,,,53,,,,,,,,,,,,,,340.1670000012964,,response,,,,99,,,,,,,Space,keypress(Space),,,,,,,,---- -- ----- -- ------ - ------- --- ----------<br>------------- ------ wisdom ---- ---- ------- ----- -- ----<br>-------- ------- -- ---------- --- - --- ----- ----- ----<br>---- --- --- ----- --- ---- ---- ------- ----- ---- -------<br>--- --- -- ----- -- --- ---- -- --- ---- -- ------ ------<br>--- ----- -- ----,183605.46500000055,183604.7150000013,183247.699,183253.77500000104,183264.548,183614.189,,11,wisdom
screen,html.Screen,1_1_0_1_12,2021-04-22T19:48:56.028Z,,,,,,,,,,,,,,,,53,,,,,,,,,,,,,,417.54600000046776,,response,,,,99,,,,,,,Space,keypress(Space),,,,,,,,---- -- ----- -- ------ - ------- --- ----------<br>------------- ------ ------ says ---- ------- ----- -- ----<br>-------- ------- -- ---------- --- - --- ----- ----- ----<br>---- --- --- ----- --- ---- ---- ------- ----- ---- -------<br>--- --- -- ----- -- --- ---- -- --- ---- -- ------ ------<br>--- ----- -- ----,184032.33000000182,184031.73500000048,183597.649,183605.66000000108,183614.189,184047.788,,12,says
screen,html.Screen,1_1_0_1_13,2021-04-22T19:48:56.324Z,,,,,,,,,,,,,,,,53,,,,,,,,,,,,,,279.9020000018936,,response,,,,99,,,,,,,Space,keypress(Space),,,,,,,,---- -- ----- -- ------ - ------- --- ----------<br>------------- ------ ------ ---- that ------- ----- -- ----<br>-------- ------- -- ---------- --- - --- ----- ----- ----<br>---- --- --- ----- --- ---- ---- ------- ----- ---- -------<br>--- --- -- ----- -- --- ---- -- --- ---- -- ------ ------<br>--- ----- -- ----,184328.48999999987,184327.6900000019,184031.049,184032.50500000286,184047.788,184330.69,,13,that
screen,html.Screen,1_1_0_1_14,2021-04-22T19:48:56.703Z,,,,,,,,,,,,,,,,53,,,,,,,,,,,,,,375.7200000025041,,response,,,,99,,,,,,,Space,keypress(Space),,,,,,,,---- -- ----- -- ------ - ------- --- ----------<br>------------- ------ ------ ---- ---- feeling ----- -- ----<br>-------- ------- -- ---------- --- - --- ----- ----- ----<br>---- --- --- ----- --- ---- ---- ------- ----- ---- -------<br>--- --- -- ----- -- --- ---- -- --- ---- -- ------ ------<br>--- ----- -- ----,184707.1649999998,184706.4100000025,184314.105,184328.6900000021,184330.69,184713.958,,14,feeling
screen,html.Screen,1_1_0_1_15,2021-04-22T19:48:57.037Z,,,,,,,,,,,,,,,,53,,,,,,,,,,,,,,326.60700000295765,,response,,,,99,,,,,,,Space,keypress(Space),,,,,,,,---- -- ----- -- ------ - ------- --- ----------<br>------------- ------ ------ ---- ---- ------- close -- ----<br>-------- ------- -- ---------- --- - --- ----- ----- ----<br>---- --- --- ----- --- ---- ---- ------- ----- ---- -------<br>--- --- -- ----- -- --- ---- -- --- ---- -- ------ ------<br>--- ----- -- ----,185041.15000000093,185040.56500000297,184697.539,184707.39500000127,184713.958,185047.232,,15,close
screen,html.Screen,1_1_0_1_16,2021-04-22T19:48:57.334Z,,,,,,,,,,,,,,,,53,,,,,,,,,,,,,,290.3730000006326,,response,,,,99,,,,,,,Space,keypress(Space),,,,,,,,---- -- ----- -- ------ - ------- --- ----------<br>------------- ------ ------ ---- ---- ------- ----- to ----<br>-------- ------- -- ---------- --- - --- ----- ----- ----<br>---- --- --- ----- --- ---- ---- ------- ----- ---- -------<br>--- --- -- ----- -- --- ---- -- --- ---- -- ------ ------<br>--- ----- -- ----,185338.24000000095,185337.60500000062,185030.944,185041.30000000077,185047.232,185347.604,,16,to
screen,html.Screen,1_1_0_1_17,2021-04-22T19:48:57.745Z,,,,,,,,,,,,,,,,53,,,,,,,,,,,,,,401.06600000086473,,response,,,,99,,,,,,,Space,keypress(Space),,,,,,,,---- -- ----- -- ------ - ------- --- ----------<br>------------- ------ ------ ---- ---- ------- ----- -- your<br>-------- ------- -- ---------- --- - --- ----- ----- ----<br>---- --- --- ----- --- ---- ---- ------- ----- ---- -------<br>--- --- -- ----- -- --- ---- -- --- ---- -- ------ ------<br>--- ----- -- ----,185749.4399999996,185748.67000000086,185330.615,185338.4100000003,185347.604,185764.233,,17,your
screen,html.Screen,1_1_0_1_18,2021-04-22T19:48:58.474Z,,,,,,,,,,,,,,,,53,,,,,,,,,,,,,,713.0919999998296,,response,,,,99,,,,,,,Space,keypress(Space),,,,,,,,---- -- ----- -- ------ - ------- --- ----------<br>------------- ------ ------ ---- ---- ------- ----- -- ----<br>romantic ------- -- ---------- --- - --- ----- ----- ----<br>---- --- --- ----- --- ---- ---- ------- ----- ---- -------<br>--- --- -- ----- -- --- ---- -- --- ---- -- ------ ------<br>--- ----- -- ----,186478.09000000052,186477.32499999984,185747.166,185749.67500000275,185764.233,186480.405,,18,romantic
screen,html.Screen,1_1_0_1_19,2021-04-22T19:48:58.958Z,,,,,,,,,,,,,,,,53,,,,,,,,,,,,,,480.8950000026671,,response,,,,99,,,,,,,Space,keypress(Space),,,,,,,,---- -- ----- -- ------ - ------- --- ----------<br>------------- ------ ------ ---- ---- ------- ----- -- ----<br>-------- partner -- ---------- --- - --- ----- ----- ----<br>---- --- --- ----- --- ---- ---- ------- ----- ---- -------<br>--- --- -- ----- -- --- ---- -- --- ---- -- ------ ------<br>--- ----- -- ----,186962.02500000072,186961.30000000267,186463.986,186478.3000000025,186480.405,186991.991,,19,partner
screen,html.Screen,1_1_0_1_20,2021-04-22T19:48:59.346Z,,,,,,,,,,,,,,,,53,,,,,,,,,,,,,,357.2240000019956,,response,,,,99,,,,,,,Space,keypress(Space),,,,,,,,---- -- ----- -- ------ - ------- --- ----------<br>------------- ------ ------ ---- ---- ------- ----- -- ----<br>-------- ------- is ---------- --- - --- ----- ----- ----<br>---- --- --- ----- --- ---- ---- ------- ----- ---- -------<br>--- --- -- ----- -- --- ---- -- --- ---- -- ------ ------<br>--- ----- -- ----,187349.94500000175,187349.215000002,186947.092,186962.22500000295,186991.991,187363.933,,20,is
screen,html.Screen,1_1_0_1_21,2021-04-22T19:49:00.538Z,,,,,,,,,,,,,,,,53,,,,,,,,,,,,,,1177.082000002527,,response,,,,99,,,,,,,Space,keypress(Space),,,,,,,,---- -- ----- -- ------ - ------- --- ----------<br>------------- ------ ------ ---- ---- ------- ----- -- ----<br>-------- ------- -- paramount. --- - --- ----- ----- ----<br>---- --- --- ----- --- ---- ---- ------- ----- ---- -------<br>--- --- -- ----- -- --- ---- -- --- ---- -- ------ ------<br>--- ----- -- ----,188541.8000000027,188541.01500000252,187347.213,187350.14000000228,187363.933,188546.856,,21,paramount.
screen,html.Screen,1_1_0_1_22,2021-04-22T19:49:01.102Z,,,,,,,,,,,,,,,,53,,,,,,,,,,,,,,558.7240000031015,,response,,,,99,,,,,,,Space,keypress(Space),,,,,,,,---- -- ----- -- ------ - ------- --- ----------<br>------------- ------ ------ ---- ---- ------- ----- -- ----<br>-------- ------- -- ---------- But - --- ----- ----- ----<br>---- --- --- ----- --- ---- ---- ------- ----- ---- -------<br>--- --- -- ----- -- --- ---- -- --- ---- -- ------ ------<br>--- ----- -- ----,189106.02500000095,189105.5800000031,188530.472,188542.02500000247,188546.856,189113.474,,22,But
screen,html.Screen,1_1_0_1_23,2021-04-22T19:49:01.504Z,,,,,,,,,,,,,,,,53,,,,,,,,,,,,,,394.0760000020964,,response,,,,99,,,,,,,Space,keypress(Space),,,,,,,,---- -- ----- -- ------ - ------- --- ----------<br>------------- ------ ------ ---- ---- ------- ----- -- ----<br>-------- ------- -- ---------- --- a --- ----- ----- ----<br>---- --- --- ----- --- ---- ---- ------- ----- ---- -------<br>--- --- -- ----- -- --- ---- -- --- ---- -- ------ ------<br>--- ----- -- ----,189508.20999999996,189507.55000000208,189096.99,189106.1800000025,189113.474,189513.483,,23,a
screen,html.Screen,1_1_0_1_24,2021-04-22T19:49:01.861Z,,,,,,,,,,,,,,,,53,,,,,,,,,,,,,,350.64200000005076,,response,,,,99,,,,,,,Space,keypress(Space),,,,,,,,---- -- ----- -- ------ - ------- --- ----------<br>------------- ------ ------ ---- ---- ------- ----- -- ----<br>-------- ------- -- ---------- --- - new ----- ----- ----<br>---- --- --- ----- --- ---- ---- ------- ----- ---- -------<br>--- --- -- ----- -- --- ---- -- --- ---- -- ------ ------<br>--- ----- -- ----,189864.77000000014,189864.12500000006,189496.938,189508.40000000244,189513.483,189880.376,,24,new
screen,html.Screen,1_1_0_1_25,2021-04-22T19:49:02.229Z,,,,,,,,,,,,,,,,53,,,,,,,,,,,,,,351.99400000154856,,response,,,,99,,,,,,,Space,keypress(Space),,,,,,,,---- -- ----- -- ------ - ------- --- ----------<br>------------- ------ ------ ---- ---- ------- ----- -- ----<br>-------- ------- -- ---------- --- - --- study ----- ----<br>---- --- --- ----- --- ---- ---- ------- ----- ---- -------<br>--- --- -- ----- -- --- ---- -- --- ---- -- ------ ------<br>--- ----- -- ----,190233.26000000088,190232.37000000154,189863.543,189864.95500000092,189880.376,190246.917,,25,study
screen,html.Screen,1_1_0_1_26,2021-04-22T19:49:02.549Z,,,,,,,,,,,,,,,,53,,,,,,,,,,,,,,305.11800000062794,,response,,,,99,,,,,,,Space,keypress(Space),,,,,,,,---- -- ----- -- ------ - ------- --- ----------<br>------------- ------ ------ ---- ---- ------- ----- -- ----<br>-------- ------- -- ---------- --- - --- ----- finds ----<br>---- --- --- ----- --- ---- ---- ------- ----- ---- -------<br>--- --- -- ----- -- --- ---- -- --- ---- -- ------ ------<br>--- ----- -- ----,190552.77000000206,190552.03500000061,190230.281,190233.4950000004,190246.917,190563.613,,26,finds
screen,html.Screen,1_1_0_1_27,2021-04-22T19:49:02.901Z,,,,,,,,,,,,,,,,53,,,,,,,,,,,,,,340.85700000129873,,response,,,,99,,,,,,,Space,keypress(Space),,,,,,,,---- -- ----- -- ------ - ------- --- ----------<br>------------- ------ ------ ---- ---- ------- ----- -- ----<br>-------- ------- -- ---------- --- - --- ----- ----- that<br>---- --- --- ----- --- ---- ---- ------- ----- ---- -------<br>--- --- -- ----- -- --- ---- -- --- ---- -- ------ ------<br>--- ----- -- ----,190905.2100000008,190904.4700000013,190546.82,190552.9600000009,190563.613,190913.452,,27,that
screen,html.Screen,1_1_0_1_28,2021-04-22T19:49:03.253Z,,,,,,,,,,,,,,,,53,,,,,,,,,,,,,,342.8330000031274,,response,,,,99,,,,,,,Space,keypress(Space),,,,,,,,---- -- ----- -- ------ - ------- --- ----------<br>------------- ------ ------ ---- ---- ------- ----- -- ----<br>-------- ------- -- ---------- --- - --- ----- ----- ----<br>it's --- --- ----- --- ---- ---- ------- ----- ---- -------<br>--- --- -- ----- -- --- ---- -- --- ---- -- ------ ------<br>--- ----- -- ----,191256.945000001,191256.28500000312,190896.723,190905.42500000083,190913.452,191263.192,,28,it's
screen,html.Screen,1_1_0_1_29,2021-04-22T19:49:03.610Z,,,,,,,,,,,,,,,,53,,,,,,,,,,,,,,350.5630000021192,,response,,,,99,,,,,,,Space,keypress(Space),,,,,,,,---- -- ----- -- ------ - ------- --- ----------<br>------------- ------ ------ ---- ---- ------- ----- -- ----<br>-------- ------- -- ---------- --- - --- ----- ----- ----<br>---- not --- ----- --- ---- ---- ------- ----- ---- -------<br>--- --- -- ----- -- --- ---- -- --- ---- -- ------ ------<br>--- ----- -- ----,191614.49500000163,191613.75500000213,191246.661,191257.1250000001,191263.192,191630.071,,29,not
screen,html.Screen,1_1_0_1_30,2021-04-22T19:49:03.932Z,,,,,,,,,,,,,,,,53,,,,,,,,,,,,,,305.13400000159163,,response,,,,99,,,,,,,Space,keypress(Space),,,,,,,,---- -- ----- -- ------ - ------- --- ----------<br>------------- ------ ------ ---- ---- ------- ----- -- ----<br>-------- ------- -- ---------- --- - --- ----- ----- ----<br>---- --- how ----- --- ---- ---- ------- ----- ---- -------<br>--- --- -- ----- -- --- ---- -- --- ---- -- ------ ------<br>--- ----- -- ----,191935.84499999997,191935.2050000016,191613.292,191614.7149999997,191630.071,191946.772,,30,how
screen,html.Screen,1_1_0_1_31,2021-04-22T19:49:04.285Z,,,,,,,,,,,,,,,,53,,,,,,,,,,,,,,341.5630000011006,,response,,,,99,,,,,,,Space,keypress(Space),,,,,,,,---- -- ----- -- ------ - ------- --- ----------<br>------------- ------ ------ ---- ---- ------- ----- -- ----<br>-------- ------- -- ---------- --- - --- ----- ----- ----<br>---- --- --- close --- ---- ---- ------- ----- ---- -------<br>--- --- -- ----- -- --- ---- -- --- ---- -- ------ ------<br>--- ----- -- ----,192288.99000000092,192288.3350000011,191929.931,191936.03000000076,191946.772,192296.397,,31,close
screen,html.Screen,1_1_0_1_32,2021-04-22T19:49:04.647Z,,,,,,,,,,,,,,,,53,,,,,,,,,,,,,,354.09800000168616,,response,,,,99,,,,,,,Space,keypress(Space),,,,,,,,---- -- ----- -- ------ - ------- --- ----------<br>------------- ------ ------ ---- ---- ------- ----- -- ----<br>-------- ------- -- ---------- --- - --- ----- ----- ----<br>---- --- --- ----- you ---- ---- ------- ----- ---- -------<br>--- --- -- ----- -- --- ---- -- --- ---- -- ------ ------<br>--- ----- -- ----,192651.26500000042,192650.49500000168,192279.917,192289.17,192296.397,192663.306,,32,you
screen,html.Screen,1_1_0_1_33,2021-04-22T19:49:05.100Z,,,,,,,,,,,,,,,,53,,,,,,,,,,,,,,439.8490000006859,,response,,,,99,,,,,,,Space,keypress(Space),,,,,,,,---- -- ----- -- ------ - ------- --- ----------<br>------------- ------ ------ ---- ---- ------- ----- -- ----<br>-------- ------- -- ---------- --- - --- ----- ----- ----<br>---- --- --- ----- --- feel ---- ------- ----- ---- -------<br>--- --- -- ----- -- --- ---- -- --- ---- -- ------ ------<br>--- ----- -- ----,193103.90499999994,193103.1550000007,192646.544,192651.48000000045,192663.306,193113.263,,33,feel
screen,html.Screen,1_1_0_1_34,2021-04-22T19:49:05.496Z,,,,,,,,,,,,,,,,53,,,,,,,,,,,,,,385.367000001861,,response,,,,99,,,,,,,Space,keypress(Space),,,,,,,,---- -- ----- -- ------ - ------- --- ----------<br>------------- ------ ------ ---- ---- ------- ----- -- ----<br>-------- ------- -- ---------- --- - --- ----- ----- ----<br>---- --- --- ----- --- ---- that ------- ----- ---- -------<br>--- --- -- ----- -- --- ---- -- --- ---- -- ------ ------<br>--- ----- -- ----,193499.63000000207,193498.63000000187,193096.233,193104.1299999997,193113.263,193513.243,,34,that
screen,html.Screen,1_1_0_1_35,2021-04-22T19:49:05.877Z,,,,,,,,,,,,,,,,53,,,,,,,,,,,,,,366.94200000181445,,response,,,,99,,,,,,,Space,keypress(Space),,,,,,,,---- -- ----- -- ------ - ------- --- ----------<br>------------- ------ ------ ---- ---- ------- ----- -- ----<br>-------- ------- -- ---------- --- - --- ----- ----- ----<br>---- --- --- ----- --- ---- ---- matters ----- ---- -------<br>--- --- -- ----- -- --- ---- -- --- ---- -- ------ ------<br>--- ----- -- ----,193880.93500000105,193880.1850000018,193496.26,193499.88000000303,193513.243,193896.427,,35,matters
screen,html.Screen,1_1_0_1_36,2021-04-22T19:49:06.238Z,,,,,,,,,,,,,,,,53,,,,,,,,,,,,,,345.16300000145566,,response,,,,99,,,,,,,Space,keypress(Space),,,,,,,,"---- -- ----- -- ------ - ------- --- ----------<br>------------- ------ ------ ---- ---- ------- ----- -- ----<br>-------- ------- -- ---------- --- - --- ----- ----- ----<br>---- --- --- ----- --- ---- ---- ------- most, ---- -------<br>--- --- -- ----- -- --- ---- -- --- ---- -- ------ ------<br>--- ----- -- ----",194242.2200000001,194241.59000000145,193879.751,193881.12499999988,193896.427,194246.043,,36,"most,"
screen,html.Screen,1_1_0_1_37,2021-04-22T19:49:06.751Z,,,,,,,,,,,,,,,,53,,,,,,,,,,,,,,507.65200000305776,,response,,,,99,,,,,,,Space,keypress(Space),,,,,,,,---- -- ----- -- ------ - ------- --- ----------<br>------------- ------ ------ ---- ---- ------- ----- -- ----<br>-------- ------- -- ---------- --- - --- ----- ----- ----<br>---- --- --- ----- --- ---- ---- ------- ----- it's -------<br>--- --- -- ----- -- --- ---- -- --- ---- -- ------ ------<br>--- ----- -- ----,194754.69499999963,194753.69500000306,194229.653,194242.41000000256,194246.043,194762.919,,37,it's
screen,html.Screen,1_1_0_1_38,2021-04-22T19:49:07.148Z,,,,,,,,,,,,,,,,53,,,,,,,,,,,,,,388.10600000285194,,response,,,,99,,,,,,,Space,keypress(Space),,,,,,,,---- -- ----- -- ------ - ------- --- ----------<br>------------- ------ ------ ---- ---- ------- ----- -- ----<br>-------- ------- -- ---------- --- - --- ----- ----- ----<br>---- --- --- ----- --- ---- ---- ------- ----- ---- whether<br>--- --- -- ----- -- --- ---- -- --- ---- -- ------ ------<br>--- ----- -- ----,195151.7750000021,195151.02500000285,194746.353,194754.95500000034,194762.919,195163.015,,38,whether
screen,html.Screen,1_1_0_1_39,2021-04-22T19:49:07.563Z,,,,,,,,,,,,,,,,53,,,,,,,,,,,,,,403.55500000267057,,response,,,,99,,,,,,,Space,keypress(Space),,,,,,,,---- -- ----- -- ------ - ------- --- ----------<br>------------- ------ ------ ---- ---- ------- ----- -- ----<br>-------- ------- -- ---------- --- - --- ----- ----- ----<br>---- --- --- ----- --- ---- ---- ------- ----- ---- -------<br>you --- -- ----- -- --- ---- -- --- ---- -- ------ ------<br>--- ----- -- ----,195567.33000000168,195566.57000000268,195146.18,195151.96000000287,195163.015,195579.597,,39,you
screen,html.Screen,1_1_0_1_40,2021-04-22T19:49:07.903Z,,,,,,,,,,,,,,,,53,,,,,,,,,,,,,,326.4580000030983,,response,,,,99,,,,,,,Space,keypress(Space),,,,,,,,---- -- ----- -- ------ - ------- --- ----------<br>------------- ------ ------ ---- ---- ------- ----- -- ----<br>-------- ------- -- ---------- --- - --- ----- ----- ----<br>---- --- --- ----- --- ---- ---- ------- ----- ---- -------<br>--- are -- ----- -- --- ---- -- --- ---- -- ------ ------<br>--- ----- -- ----,195906.8150000021,195906.0550000031,195562.772,195567.53500000195,195579.597,195912.489,,40,are
screen,html.Screen,1_1_0_1_41,2021-04-22T19:49:08.264Z,,,,,,,,,,,,,,,,53,,,,,,,,,,,,,,354.65099999992526,,response,,,,99,,,,,,,Space,keypress(Space),,,,,,,,---- -- ----- -- ------ - ------- --- ----------<br>------------- ------ ------ ---- ---- ------- ----- -- ----<br>-------- ------- -- ---------- --- - --- ----- ----- ----<br>---- --- --- ----- --- ---- ---- ------- ----- ---- -------<br>--- --- as ----- -- --- ---- -- --- ---- -- ------ ------<br>--- ----- -- ----,196267.91500000036,196267.13999999993,195896.148,195907.01500000068,195912.489,196279.192,,41,as
screen,html.Screen,1_1_0_1_42,2021-04-22T19:49:08.696Z,,,,,,,,,,,,,,,,53,,,,,,,,,,,,,,420.4780000017781,,response,,,,99,,,,,,,Space,keypress(Space),,,,,,,,---- -- ----- -- ------ - ------- --- ----------<br>------------- ------ ------ ---- ---- ------- ----- -- ----<br>-------- ------- -- ---------- --- - --- ----- ----- ----<br>---- --- --- ----- --- ---- ---- ------- ----- ---- -------<br>--- --- -- close -- --- ---- -- --- ---- -- ------ ------<br>--- ----- -- ----,196700.3500000028,196699.6700000018,196262.682,196268.10000000114,196279.192,196712.49,,42,close
screen,html.Screen,1_1_0_1_43,2021-04-22T19:49:09.014Z,,,,,,,,,,,,,,,,53,,,,,,,,,,,,,,304.8500000021595,,response,,,,99,,,,,,,Space,keypress(Space),,,,,,,,---- -- ----- -- ------ - ------- --- ----------<br>------------- ------ ------ ---- ---- ------- ----- -- ----<br>-------- ------- -- ---------- --- - --- ----- ----- ----<br>---- --- --- ----- --- ---- ---- ------- ----- ---- -------<br>--- --- -- ----- as --- ---- -- --- ---- -- ------ ------<br>--- ----- -- ----,197018.14000000013,197017.34000000215,196695.81,196700.5250000002,196712.49,197029.46,,43,as
screen,html.Screen,1_1_0_1_44,2021-04-22T19:49:09.345Z,,,,,,,,,,,,,,,,53,,,,,,,,,,,,,,318.8500000012282,,response,,,,99,,,,,,,Space,keypress(Space),,,,,,,,---- -- ----- -- ------ - ------- --- ----------<br>------------- ------ ------ ---- ---- ------- ----- -- ----<br>-------- ------- -- ---------- --- - --- ----- ----- ----<br>---- --- --- ----- --- ---- ---- ------- ----- ---- -------<br>--- --- -- ----- -- you ---- -- --- ---- -- ------ ------<br>--- ----- -- ----,197348.90000000087,197348.31000000122,197012.726,197018.33500000066,197029.46,197362.617,,44,you
screen,html.Screen,1_1_0_1_45,2021-04-22T19:49:09.707Z,,,,,,,,,,,,,,,,53,,,,,,,,,,,,,,347.41800000006333,,response,,,,99,,,,,,,Space,keypress(Space),,,,,,,,---- -- ----- -- ------ - ------- --- ----------<br>------------- ------ ------ ---- ---- ------- ----- -- ----<br>-------- ------- -- ---------- --- - --- ----- ----- ----<br>---- --- --- ----- --- ---- ---- ------- ----- ---- -------<br>--- --- -- ----- -- --- want -- --- ---- -- ------ ------<br>--- ----- -- ----,197710.71500000107,197710.03500000006,197345.898,197349.06000000046,197362.617,197729.357,,45,want
screen,html.Screen,1_1_0_1_46,2021-04-22T19:49:10.034Z,,,,,,,,,,,,,,,,53,,,,,,,,,,,,,,307.52800000135903,,response,,,,99,,,,,,,Space,keypress(Space),,,,,,,,---- -- ----- -- ------ - ------- --- ----------<br>------------- ------ ------ ---- ---- ------- ----- -- ----<br>-------- ------- -- ---------- --- - --- ----- ----- ----<br>---- --- --- ----- --- ---- ---- ------- ----- ---- -------<br>--- --- -- ----- -- --- ---- to --- ---- -- ------ ------<br>--- ----- -- ----,198037.67499999958,198036.88500000135,197712.51,197713.12000000034,197729.357,198045.673,,46,to
screen,html.Screen,1_1_0_1_47,2021-04-22T19:49:10.356Z,,,,,,,,,,,,,,,,53,,,,,,,,,,,,,,313.37200000105076,,response,,,,99,,,,,,,Space,keypress(Space),,,,,,,,"---- -- ----- -- ------ - ------- --- ----------<br>------------- ------ ------ ---- ---- ------- ----- -- ----<br>-------- ------- -- ---------- --- - --- ----- ----- ----<br>---- --- --- ----- --- ---- ---- ------- ----- ---- -------<br>--- --- -- ----- -- --- ---- -- be, ---- -- ------ ------<br>--- ----- -- ----",198359.73500000182,198359.04500000106,198029.258,198037.90500000105,198045.673,198362.205,,47,"be,"
screen,html.Screen,1_1_0_1_48,2021-04-22T19:49:10.754Z,,,,,,,,,,,,,,,,53,,,,,,,,,,,,,,394.8750000030559,,response,,,,99,,,,,,,Space,keypress(Space),,,,,,,,---- -- ----- -- ------ - ------- --- ----------<br>------------- ------ ------ ---- ---- ------- ----- -- ----<br>-------- ------- -- ---------- --- - --- ----- ----- ----<br>---- --- --- ----- --- ---- ---- ------- ----- ---- -------<br>--- --- -- ----- -- --- ---- -- --- even -- ------ ------<br>--- ----- -- ----,198757.76000000042,198757.08000000304,198345.827,198359.9150000009,198362.205,198762.186,,48,even
screen,html.Screen,1_1_0_1_49,2021-04-22T19:49:11.086Z,,,,,,,,,,,,,,,,53,,,,,,,,,,,,,,326.97900000124355,,response,,,,99,,,,,,,Space,keypress(Space),,,,,,,,---- -- ----- -- ------ - ------- --- ----------<br>------------- ------ ------ ---- ---- ------- ----- -- ----<br>-------- ------- -- ---------- --- - --- ----- ----- ----<br>---- --- --- ----- --- ---- ---- ------- ----- ---- -------<br>--- --- -- ----- -- --- ---- -- --- ---- if ------ ------<br>--- ----- -- ----,199089.86500000174,199089.16500000123,198745.53,198757.95500000095,198762.186,199095.543,,49,if
screen,html.Screen,1_1_0_1_50,2021-04-22T19:49:11.432Z,,,,,,,,,,,,,,,,53,,,,,,,,,,,,,,339.6020000030985,,response,,,,99,,,,,,,Space,keypress(Space),,,,,,,,---- -- ----- -- ------ - ------- --- ----------<br>------------- ------ ------ ---- ---- ------- ----- -- ----<br>-------- ------- -- ---------- --- - --- ----- ----- ----<br>---- --- --- ----- --- ---- ---- ------- ----- ---- -------<br>--- --- -- ----- -- --- ---- -- --- ---- -- that's ------<br>--- ----- -- ----,199435.765000002,199435.1450000031,199079.067,199090.05000000252,199095.543,199445.408,,50,that's
screen,html.Screen,1_1_0_1_51,2021-04-22T19:49:11.761Z,,,,,,,,,,,,,,,,53,,,,,,,,,,,,,,319.2970000014175,,response,,,,99,,,,,,,Space,keypress(Space),,,,,,,,---- -- ----- -- ------ - ------- --- ----------<br>------------- ------ ------ ---- ---- ------- ----- -- ----<br>-------- ------- -- ---------- --- - --- ----- ----- ----<br>---- --- --- ----- --- ---- ---- ------- ----- ---- -------<br>--- --- -- ----- -- --- ---- -- --- ---- -- ------ really<br>--- ----- -- ----,199765.4300000031,199764.7050000014,199429.007,199435.9199999999,199445.408,199779.073,,51,really
screen,html.Screen,1_1_0_1_52,2021-04-22T19:49:12.104Z,,,,,,,,,,,,,,,,53,,,,,,,,,,,,,,328.5020000018121,,response,,,,99,,,,,,,Space,keypress(Space),,,,,,,,---- -- ----- -- ------ - ------- --- ----------<br>------------- ------ ------ ---- ---- ------- ----- -- ----<br>-------- ------- -- ---------- --- - --- ----- ----- ----<br>---- --- --- ----- --- ---- ---- ------- ----- ---- -------<br>--- --- -- ----- -- --- ---- -- --- ---- -- ------ ------<br>not ----- -- ----,200108.39500000293,200107.57500000182,199762.286,199765.61500000025,199779.073,200111.982,,52,not
screen,html.Screen,1_1_0_1_53,2021-04-22T19:49:12.410Z,,,,,,,,,,,,,,,,53,,,,,,,,,,,,,,301.79300000090734,,response,,,,99,,,,,,,Space,keypress(Space),,,,,,,,---- -- ----- -- ------ - ------- --- ----------<br>------------- ------ ------ ---- ---- ------- ----- -- ----<br>-------- ------- -- ---------- --- - --- ----- ----- ----<br>---- --- --- ----- --- ---- ---- ------- ----- ---- -------<br>--- --- -- ----- -- --- ---- -- --- ---- -- ------ ------<br>--- close -- ----,200414.45999999996,200413.7750000009,200095.298,200108.58999999982,200111.982,200428.64,,53,close
screen,html.Screen,1_1_0_1_54,2021-04-22T19:49:12.723Z,,,,,,,,,,,,,,,,53,,,,,,,,,,,,,,297.84500000285334,,response,,,,99,,,,,,,Space,keypress(Space),,,,,,,,---- -- ----- -- ------ - ------- --- ----------<br>------------- ------ ------ ---- ---- ------- ----- -- ----<br>-------- ------- -- ---------- --- - --- ----- ----- ----<br>---- --- --- ----- --- ---- ---- ------- ----- ---- -------<br>--- --- -- ----- -- --- ---- -- --- ---- -- ------ ------<br>--- ----- at ----,200727.2499999999,200726.48500000287,200412.158,200414.63000000294,200428.64,200753.966,,54,at
screen,html.Screen,1_1_0_1_55,2021-04-22T19:49:13.074Z,,,,,,,,,,,,,,,,53,,,,,,,,,,,,,,323.12900000056834,,response,,,,99,,,,,,,Space,keypress(Space),,,,,,,,---- -- ----- -- ------ - ------- --- ----------<br>------------- ------ ------ ---- ---- ------- ----- -- ----<br>-------- ------- -- ---------- --- - --- ----- ----- ----<br>---- --- --- ----- --- ---- ---- ------- ----- ---- -------<br>--- --- -- ----- -- --- ---- -- --- ---- -- ------ ------<br>--- ----- -- all.,201077.86000000124,201077.09500000055,200711.942,200727.45000000214,200753.966,201095.32,,55,all.
Item 99,flow.Loop,1_1_0_1,2021-04-22T19:49:13.074Z,,,,,,,,,,,,,,,,,,,,,,,,,,,,,,24812.017000000546,,completion,,,,,D,,,,,,,,,,,silence,,,,,201078.2450000006,201077.09500000055,176231.778,176234.01999999987,176265.078,201095.32,,,
Question 1,html.Screen,1_1_0_2,2021-04-22T19:49:18.273Z,,,,,,,,,,,,,,,,,,,,,,,,,,,false,FALSE,,5180.200000002864,,response,,,,99,D,,,,,,TRUE,click #choice-1,,,,silence,,,,,206276.60000000105,206275.52000000287,201078.77,201078.44000000114,201095.32,206277.831,,,
Question 2,html.Screen,1_1_0_3,2021-04-22T19:49:22.364Z,,,,,,,,,,,,,,,,,,,,,,,,,,,true,TRUE,,4088.839000003063,,response,,,,99,D,,,,,,TRUE,click #choice-1,,,,silence,,,,,210367.85000000236,210366.67000000307,206261.44,206276.79999999964,206277.831,210377.384,,,
Item 99,flow.Sequence,1_1_0,2021-04-22T19:49:22.364Z,,,,,,,,,,,,,,,,,,,,,,,,,,,,,,44116.972000003065,,completion,,,,,,,,,,,,,,,,,,,,,210368.14500000037,210366.67000000307,166233.041,166245.68,166249.698,210377.384,,,
Holding screen,html.Screen,1_1_1_0,2021-04-22T19:49:32.356Z,,,,,,,,,,,,,,,,,,,,,,,,,,,,,,9998.92200000002,,timeout,,,,,,,,,,,,,,,,,,,,,220360.3550000007,220359.657,210360.756,210368.37500000183,210377.384,220376.306,,,
screen,html.Screen,1_1_1_1_0,2021-04-22T19:49:34.095Z,,,,,,,,,,,,,,,,54,,,,,,,,,,,,,,1722.1940000000468,,response,,,,100,,,,,,,Space,keypress(Space),,,,,,,,At --- ---- --- ------ ----- ------- ---- -- --- ------- --<br>------- ---------- ------ -- ----- -- ----- -- ---- ------<br>--- ----- --- --- ------ -------- ----- --- ------ ----- --<br>----- ----- ---------- --- --- ------ ------ ---- -- ------<br>------- --- ------ ----- --- ---- ------- -- ---- --- --<br>------- ------,222099.28500000024,222098.50000000006,220359.657,220360.57500000243,220376.306,222109.164,,0,At
screen,html.Screen,1_1_1_1_1,2021-04-22T19:49:34.483Z,,,,,,,,,,,,,,,,54,,,,,,,,,,,,,,376.7660000025644,,response,,,,100,,,,,,,Space,keypress(Space),,,,,,,,-- the ---- --- ------ ----- ------- ---- -- --- ------- --<br>------- ---------- ------ -- ----- -- ----- -- ---- ------<br>--- ----- --- --- ------ -------- ----- --- ------ ----- --<br>----- ----- ---------- --- --- ------ ------ ---- -- ------<br>------- --- ------ ----- --- ---- ------- -- ---- --- --<br>------- ------,222486.67000000205,222485.93000000255,222092.658,222099.49000000051,222109.164,222492.493,,1,the
screen,html.Screen,1_1_1_1_2,2021-04-22T19:49:35.121Z,,,,,,,,,,,,,,,,54,,,,,,,,,,,,,,631.4270000018296,,response,,,,100,,,,,,,Space,keypress(Space),,,,,,,,-- --- time --- ------ ----- ------- ---- -- --- ------- --<br>------- ---------- ------ -- ----- -- ----- -- ---- ------<br>--- ----- --- --- ------ -------- ----- --- ------ ----- --<br>----- ----- ---------- --- --- ------ ------ ---- -- ------<br>------- --- ------ ----- --- ---- ------- -- ---- --- --<br>------- ------,223124.67500000275,223123.92000000182,222475.768,222486.85500000283,222492.493,223147.647,,2,time
screen,html.Screen,1_1_1_1_3,2021-04-22T19:49:35.809Z,,,,,,,,,,,,,,,,54,,,,,,,,,,,,,,664.7979999995732,,response,,,,100,,,,,,,Space,keypress(Space),,,,,,,,-- --- ---- the ------ ----- ------- ---- -- --- ------- --<br>------- ---------- ------ -- ----- -- ----- -- ---- ------<br>--- ----- --- --- ------ -------- ----- --- ------ ----- --<br>----- ----- ---------- --- --- ------ ------ ---- -- ------<br>------- --- ------ ----- --- ---- ------- -- ---- --- --<br>------- ------,223813.12000000253,223812.44499999957,223109.157,223124.86999999965,223147.647,223825.634,,3,the
screen,html.Screen,1_1_1_1_4,2021-04-22T19:49:36.211Z,,,,,,,,,,,,,,,,54,,,,,,,,,,,,,,389.1910000027565,,response,,,,100,,,,,,,Space,keypress(Space),,,,,,,,-- --- ---- --- French ----- ------- ---- -- --- ------- --<br>------- ---------- ------ -- ----- -- ----- -- ---- ------<br>--- ----- --- --- ------ -------- ----- --- ------ ----- --<br>----- ----- ---------- --- --- ------ ------ ---- -- ------<br>------- --- ------ ----- --- ---- ------- -- ---- --- --<br>------- ------,224215.42000000045,224214.82500000275,223808.967,223813.3250000028,223825.634,224225.96,,4,French
screen,html.Screen,1_1_1_1_5,2021-04-22T19:49:36.635Z,,,,,,,,,,,,,,,,54,,,,,,,,,,,,,,412.6150000008638,,response,,,,100,,,,,,,Space,keypress(Space),,,,,,,,-- --- ---- --- ------ crown ------- ---- -- --- ------- --<br>------- ---------- ------ -- ----- -- ----- -- ---- ------<br>--- ----- --- --- ------ -------- ----- --- ------ ----- --<br>----- ----- ---------- --- --- ------ ------ ---- -- ------<br>------- --- ------ ----- --- ---- ------- -- ---- --- --<br>------- ------,224639.24000000043,224638.57500000086,224209.163,224215.575000002,224225.96,224642.204,,5,crown
screen,html.Screen,1_1_1_1_6,2021-04-22T19:49:37.163Z,,,,,,,,,,,,,,,,54,,,,,,,,,,,,,,524.3010000010545,,response,,,,100,,,,,,,Space,keypress(Space),,,,,,,,-- --- ---- --- ------ ----- secured ---- -- --- ------- --<br>------- ---------- ------ -- ----- -- ----- -- ---- ------<br>--- ----- --- --- ------ -------- ----- --- ------ ----- --<br>----- ----- ---------- --- --- ------ ------ ---- -- ------<br>------- --- ------ ----- --- ---- ------- -- ---- --- --<br>------- ------,225167.2350000008,225166.50500000105,224625.758,224639.40500000172,224642.204,225175.541,,6,secured
screen,html.Screen,1_1_1_1_7,2021-04-22T19:49:37.789Z,,,,,,,,,,,,,,,,54,,,,,,,,,,,,,,616.9540000015113,,response,,,,100,,,,,,,Space,keypress(Space),,,,,,,,-- --- ---- --- ------ ----- ------- much -- --- ------- --<br>------- ---------- ------ -- ----- -- ----- -- ---- ------<br>--- ----- --- --- ------ -------- ----- --- ------ ----- --<br>----- ----- ---------- --- --- ------ ------ ---- -- ------<br>------- --- ------ ----- --- ---- ------- -- ---- --- --<br>------- ------,225793.22500000126,225792.4950000015,225158.845,225167.43000000133,225175.541,225809.063,,7,much
screen,html.Screen,1_1_1_1_8,2021-04-22T19:49:38.217Z,,,,,,,,,,,,,,,,54,,,,,,,,,,,,,,411.93199999968056,,response,,,,100,,,,,,,Space,keypress(Space),,,,,,,,-- --- ---- --- ------ ----- ------- ---- of --- ------- --<br>------- ---------- ------ -- ----- -- ----- -- ---- ------<br>--- ----- --- --- ------ -------- ----- --- ------ ----- --<br>----- ----- ---------- --- --- ------ ------ ---- -- ------<br>------- --- ------ ----- --- ---- ------- -- ---- --- --<br>------- ------,226221.7700000001,226220.99499999968,225792.28,225793.43000000154,225809.063,226225.288,,8,of
screen,html.Screen,1_1_1_1_9,2021-04-22T19:49:38.519Z,,,,,,,,,,,,,,,,54,,,,,,,,,,,,,,296.9070000013744,,response,,,,100,,,,,,,Space,keypress(Space),,,,,,,,-- --- ---- --- ------ ----- ------- ---- -- its ------- --<br>------- ---------- ------ -- ----- -- ----- -- ---- ------<br>--- ----- --- --- ------ -------- ----- --- ------ ----- --<br>----- ----- ---------- --- --- ------ ------ ---- -- ------<br>------- --- ------ ----- --- ---- ------- -- ---- --- --<br>------- ------,226522.97499999986,226522.19500000137,226208.839,226221.9550000009,226225.288,226525.297,,9,its
screen,html.Screen,1_1_1_1_10,2021-04-22T19:49:39.100Z,,,,,,,,,,,,,,,,54,,,,,,,,,,,,,,578.8180000019202,,response,,,,100,,,,,,,Space,keypress(Space),,,,,,,,-- --- ---- --- ------ ----- ------- ---- -- --- revenue --<br>------- ---------- ------ -- ----- -- ----- -- ---- ------<br>--- ----- --- --- ------ -------- ----- --- ------ ----- --<br>----- ----- ---------- --- --- ------ ------ ---- -- ------<br>------- --- ------ ----- --- ---- ------- -- ---- --- --<br>------- ------,227104.8350000019,227104.1150000019,226508.919,226523.18000000014,226525.297,227108.479,,10,revenue
screen,html.Screen,1_1_1_1_11,2021-04-22T19:49:39.545Z,,,,,,,,,,,,,,,,54,,,,,,,,,,,,,,440.5960000026389,,response,,,,100,,,,,,,Space,keypress(Space),,,,,,,,-- --- ---- --- ------ ----- ------- ---- -- --- ------- by<br>------- ---------- ------ -- ----- -- ----- -- ---- ------<br>--- ----- --- --- ------ -------- ----- --- ------ ----- --<br>----- ----- ---------- --- --- ------ ------ ---- -- ------<br>------- --- ------ ----- --- ---- ------- -- ---- --- --<br>------- ------,227549.7200000027,227549.07500000263,227092.071,227105.01000000295,227108.479,227558.831,,11,by
screen,html.Screen,1_1_1_1_12,2021-04-22T19:49:39.908Z,,,,,,,,,,,,,,,,54,,,,,,,,,,,,,,353.1390000010142,,response,,,,100,,,,,,,Space,keypress(Space),,,,,,,,-- --- ---- --- ------ ----- ------- ---- -- --- ------- --<br>issuing ---------- ------ -- ----- -- ----- -- ---- ------<br>--- ----- --- --- ------ -------- ----- --- ------ ----- --<br>----- ----- ---------- --- --- ------ ------ ---- -- ------<br>------- --- ------ ----- --- ---- ------- -- ---- --- --<br>------- ------,227912.66499999983,227911.97000000102,227542.031,227549.88500000036,227558.831,227925.376,,12,issuing
screen,html.Screen,1_1_1_1_13,2021-04-22T19:49:40.304Z,,,,,,,,,,,,,,,,54,,,,,,,,,,,,,,381.82400000293273,,response,,,,100,,,,,,,Space,keypress(Space),,,,,,,,-- --- ---- --- ------ ----- ------- ---- -- --- ------- --<br>------- government ------ -- ----- -- ----- -- ---- ------<br>--- ----- --- --- ------ -------- ----- --- ------ ----- --<br>----- ----- ---------- --- --- ------ ------ ---- -- ------<br>------- --- ------ ----- --- ---- ------- -- ---- --- --<br>------- ------,228307.92000000292,228307.20000000292,227908.799,227912.84500000256,227925.376,228325.076,,13,government
screen,html.Screen,1_1_1_1_14,2021-04-22T19:49:41.072Z,,,,,,,,,,,,,,,,54,,,,,,,,,,,,,,750.5339999998687,,response,,,,100,,,,,,,Space,keypress(Space),,,,,,,,-- --- ---- --- ------ ----- ------- ---- -- --- ------- --<br>------- ---------- bonds. -- ----- -- ----- -- ---- ------<br>--- ----- --- --- ------ -------- ----- --- ------ ----- --<br>----- ----- ---------- --- --- ------ ------ ---- -- ------<br>------- --- ------ ----- --- ---- ------- -- ---- --- --<br>------- ------,229076.2700000014,229075.60999999987,228291.951,228308.1450000027,228325.076,229091.975,,14,bonds.
screen,html.Screen,1_1_1_1_15,2021-04-22T19:49:41.800Z,,,,,,,,,,,,,,,,54,,,,,,,,,,,,,,711.9750000013446,,response,,,,100,,,,,,,Space,keypress(Space),,,,,,,,-- --- ---- --- ------ ----- ------- ---- -- --- ------- --<br>------- ---------- ------ In ----- -- ----- -- ---- ------<br>--- ----- --- --- ------ -------- ----- --- ------ ----- --<br>----- ----- ---------- --- --- ------ ------ ---- -- ------<br>------- --- ------ ----- --- ---- ------- -- ---- --- --<br>------- ------,229804.64500000016,229803.95000000135,229074.981,229076.43500000268,229091.975,229808.171,,15,In
screen,html.Screen,1_1_1_1_16,2021-04-22T19:49:43.400Z,,,,,,,,,,,,,,,,54,,,,,,,,,,,,,,1596.0340000025462,,response,,,,100,,,,,,,Space,keypress(Space),,,,,,,,"-- --- ---- --- ------ ----- ------- ---- -- --- ------- --<br>------- ---------- ------ -- 1727, -- ----- -- ---- ------<br>--- ----- --- --- ------ -------- ----- --- ------ ----- --<br>----- ----- ---------- --- --- ------ ------ ---- -- ------<br>------- --- ------ ----- --- ---- ------- -- ---- --- --<br>------- ------",231404.78000000076,231404.20500000255,229791.73,229804.8200000012,229808.171,231407.909,,16,"1727,"
screen,html.Screen,1_1_1_1_17,2021-04-22T19:49:43.812Z,,,,,,,,,,,,,,,,54,,,,,,,,,,,,,,407.77600000138045,,response,,,,100,,,,,,,Space,keypress(Space),,,,,,,,-- --- ---- --- ------ ----- ------- ---- -- --- ------- --<br>------- ---------- ------ -- ----- in ----- -- ---- ------<br>--- ----- --- --- ------ -------- ----- --- ------ ----- --<br>----- ----- ---------- --- --- ------ ------ ---- -- ------<br>------- --- ------ ----- --- ---- ------- -- ---- --- --<br>------- ------,231816.23000000036,231815.6850000014,231391.495,231404.9300000006,231407.909,231824.669,,17,in
screen,html.Screen,1_1_1_1_18,2021-04-22T19:49:44.315Z,,,,,,,,,,,,,,,,54,,,,,,,,,,,,,,494.071000002441,,response,,,,100,,,,,,,Space,keypress(Space),,,,,,,,-- --- ---- --- ------ ----- ------- ---- -- --- ------- --<br>------- ---------- ------ -- ----- -- order -- ---- ------<br>--- ----- --- --- ------ -------- ----- --- ------ ----- --<br>----- ----- ---------- --- --- ------ ------ ---- -- ------<br>------- --- ------ ----- --- ---- ------- -- ---- --- --<br>------- ------,232319.48000000193,232318.74000000244,231808.336,231816.33000000147,231824.669,232324.549,,18,order
screen,html.Screen,1_1_1_1_19,2021-04-22T19:49:44.647Z,,,,,,,,,,,,,,,,54,,,,,,,,,,,,,,325.75100000115344,,response,,,,100,,,,,,,Space,keypress(Space),,,,,,,,-- --- ---- --- ------ ----- ------- ---- -- --- ------- --<br>------- ---------- ------ -- ----- -- ----- to ---- ------<br>--- ----- --- --- ------ -------- ----- --- ------ ----- --<br>----- ----- ---------- --- --- ------ ------ ---- -- ------<br>------- --- ------ ----- --- ---- ------- -- ---- --- --<br>------- ------,232650.9299999998,232650.30000000115,232308.099,232319.67000000077,232324.549,232657.915,,19,to
screen,html.Screen,1_1_1_1_20,2021-04-22T19:49:44.969Z,,,,,,,,,,,,,,,,54,,,,,,,,,,,,,,314.430000001943,,response,,,,100,,,,,,,Space,keypress(Space),,,,,,,,-- --- ---- --- ------ ----- ------- ---- -- --- ------- --<br>------- ---------- ------ -- ----- -- ----- -- save ------<br>--- ----- --- --- ------ -------- ----- --- ------ ----- --<br>----- ----- ---------- --- --- ------ ------ ---- -- ------<br>------- --- ------ ----- --- ---- ------- -- ---- --- --<br>------- ------,232973.0750000017,232972.34500000195,232641.471,232651.07999999964,232657.915,233002.366,,20,save
screen,html.Screen,1_1_1_1_21,2021-04-22T19:49:45.311Z,,,,,,,,,,,,,,,,54,,,,,,,,,,,,,,312.429000002041,,response,,,,100,,,,,,,Space,keypress(Space),,,,,,,,"-- --- ---- --- ------ ----- ------- ---- -- --- ------- --<br>------- ---------- ------ -- ----- -- ----- -- ---- money,<br>--- ----- --- --- ------ -------- ----- --- ------ ----- --<br>----- ----- ---------- --- --- ------ ------ ---- -- ------<br>------- --- ------ ----- --- ---- ------- -- ---- --- --<br>------- ------",233315.43500000043,233314.79500000205,232957.96,232973.26500000054,233002.366,233324.638,,21,"money,"
screen,html.Screen,1_1_1_1_22,2021-04-22T19:49:45.725Z,,,,,,,,,,,,,,,,54,,,,,,,,,,,,,,404.2920000011218,,response,,,,100,,,,,,,Space,keypress(Space),,,,,,,,-- --- ---- --- ------ ----- ------- ---- -- --- ------- --<br>------- ---------- ------ -- ----- -- ----- -- ---- ------<br>the ----- --- --- ------ -------- ----- --- ------ ----- --<br>----- ----- ---------- --- --- ------ ------ ---- -- ------<br>------- --- ------ ----- --- ---- ------- -- ---- --- --<br>------- ------,233729.62499999994,233728.93000000113,233307.926,233315.6250000029,233324.638,233741.068,,22,the
screen,html.Screen,1_1_1_1_23,2021-04-22T19:49:46.077Z,,,,,,,,,,,,,,,,54,,,,,,,,,,,,,,340.16199999977835,,response,,,,100,,,,,,,Space,keypress(Space),,,,,,,,-- --- ---- --- ------ ----- ------- ---- -- --- ------- --<br>------- ---------- ------ -- ----- -- ----- -- ---- ------<br>--- state --- --- ------ -------- ----- --- ------ ----- --<br>----- ----- ---------- --- --- ------ ------ ---- -- ------<br>------- --- ------ ----- --- ---- ------- -- ---- --- --<br>------- ------,234081.68500000102,234081.22999999978,233724.614,233729.80500000267,233741.068,234091.232,,23,state
screen,html.Screen,1_1_1_1_24,2021-04-22T19:49:46.431Z,,,,,,,,,,,,,,,,54,,,,,,,,,,,,,,343.08300000225427,,response,,,,100,,,,,,,Space,keypress(Space),,,,,,,,-- --- ---- --- ------ ----- ------- ---- -- --- ------- --<br>------- ---------- ------ -- ----- -- ----- -- ---- ------<br>--- ----- cut --- ------ -------- ----- --- ------ ----- --<br>----- ----- ---------- --- --- ------ ------ ---- -- ------<br>------- --- ------ ----- --- ---- ------- -- ---- --- --<br>------- ------,234435.08500000098,234434.31500000224,234074.35,234081.77500000238,234091.232,234440.945,,24,cut
screen,html.Screen,1_1_1_1_25,2021-04-22T19:49:46.772Z,,,,,,,,,,,,,,,,54,,,,,,,,,,,,,,335.19000000006054,,response,,,,100,,,,,,,Space,keypress(Space),,,,,,,,-- --- ---- --- ------ ----- ------- ---- -- --- ------- --<br>------- ---------- ------ -- ----- -- ----- -- ---- ------<br>--- ----- --- the ------ -------- ----- --- ------ ----- --<br>----- ----- ---------- --- --- ------ ------ ---- -- ------<br>------- --- ------ ----- --- ---- ------- -- ---- --- --<br>------- ------,234776.79999999964,234776.13500000007,234424.443,234435.29000000126,234440.945,234791.26,,25,the
screen,html.Screen,1_1_1_1_26,2021-04-22T19:49:47.070Z,,,,,,,,,,,,,,,,54,,,,,,,,,,,,,,282.7699999997567,,response,,,,100,,,,,,,Space,keypress(Space),,,,,,,,-- --- ---- --- ------ ----- ------- ---- -- --- ------- --<br>------- ---------- ------ -- ----- -- ----- -- ---- ------<br>--- ----- --- --- bonds' -------- ----- --- ------ ----- --<br>----- ----- ---------- --- --- ------ ------ ---- -- ------<br>------- --- ------ ----- --- ---- ------- -- ---- --- --<br>------- ------,235074.83000000138,235074.02999999977,234774.286,234776.98500000042,234791.26,235090.861,,26,bonds'
screen,html.Screen,1_1_1_1_27,2021-04-22T19:49:47.504Z,,,,,,,,,,,,,,,,54,,,,,,,,,,,,,,416.4889999998559,,response,,,,100,,,,,,,Space,keypress(Space),,,,,,,,-- --- ---- --- ------ ----- ------- ---- -- --- ------- --<br>------- ---------- ------ -- ----- -- ----- -- ---- ------<br>--- ----- --- --- ------ interest ----- --- ------ ----- --<br>----- ----- ---------- --- --- ------ ------ ---- -- ------<br>------- --- ------ ----- --- ---- ------- -- ---- --- --<br>------- ------,235508.12000000224,235507.34999999986,235074.431,235075.05500000116,235090.861,235524.476,,27,interest
screen,html.Screen,1_1_1_1_28,2021-04-22T19:49:47.851Z,,,,,,,,,,,,,,,,54,,,,,,,,,,,,,,329.76400000057765,,response,,,,100,,,,,,,Space,keypress(Space),,,,,,,,-- --- ---- --- ------ ----- ------- ---- -- --- ------- --<br>------- ---------- ------ -- ----- -- ----- -- ---- ------<br>--- ----- --- --- ------ -------- rate. --- ------ ----- --<br>----- ----- ---------- --- --- ------ ------ ---- -- ------<br>------- --- ------ ----- --- ---- ------- -- ---- --- --<br>------- ------,235854.98999999982,235854.24000000057,235507.454,235508.29499999963,235524.476,235857.428,,28,rate.
screen,html.Screen,1_1_1_1_29,2021-04-22T19:49:48.311Z,,,,,,,,,,,,,,,,54,,,,,,,,,,,,,,457.0320000014035,,response,,,,100,,,,,,,Space,keypress(Space),,,,,,,,-- --- ---- --- ------ ----- ------- ---- -- --- ------- --<br>------- ---------- ------ -- ----- -- ----- -- ---- ------<br>--- ----- --- --- ------ -------- ----- The ------ ----- --<br>----- ----- ---------- --- --- ------ ------ ---- -- ------<br>------- --- ------ ----- --- ---- ------- -- ---- --- --<br>------- ------,236315.2200000004,236314.46000000142,235840.755,235855.19000000204,235857.428,236324.04,,29,The
screen,html.Screen,1_1_1_1_30,2021-04-22T19:49:48.634Z,,,,,,,,,,,,,,,,54,,,,,,,,,,,,,,313.24000000263914,,response,,,,100,,,,,,,Space,keypress(Space),,,,,,,,-- --- ---- --- ------ ----- ------- ---- -- --- ------- --<br>------- ---------- ------ -- ----- -- ----- -- ---- ------<br>--- ----- --- --- ------ -------- ----- --- market ----- --<br>----- ----- ---------- --- --- ------ ------ ---- -- ------<br>------- --- ------ ----- --- ---- ------- -- ---- --- --<br>------- ------,236637.92000000103,236637.28000000265,236307.354,236315.42000000263,236324.04,236640.605,,30,market
screen,html.Screen,1_1_1_1_31,2021-04-22T19:49:48.939Z,,,,,,,,,,,,,,,,54,,,,,,,,,,,,,,302.2550000028277,,response,,,,100,,,,,,,Space,keypress(Space),,,,,,,,-- --- ---- --- ------ ----- ------- ---- -- --- ------- --<br>------- ---------- ------ -- ----- -- ----- -- ---- ------<br>--- ----- --- --- ------ -------- ----- --- ------ value --<br>----- ----- ---------- --- --- ------ ------ ---- -- ------<br>------- --- ------ ----- --- ---- ------- -- ---- --- --<br>------- ------,236943.57500000115,236942.86000000284,236624.225,236638.07500000257,236640.605,236957.509,,31,value
screen,html.Screen,1_1_1_1_32,2021-04-22T19:49:49.252Z,,,,,,,,,,,,,,,,54,,,,,,,,,,,,,,298.31100000214064,,response,,,,100,,,,,,,Space,keypress(Space),,,,,,,,-- --- ---- --- ------ ----- ------- ---- -- --- ------- --<br>------- ---------- ------ -- ----- -- ----- -- ---- ------<br>--- ----- --- --- ------ -------- ----- --- ------ ----- of<br>----- ----- ---------- --- --- ------ ------ ---- -- ------<br>------- --- ------ ----- --- ---- ------- -- ---- --- --<br>------- ------,237256.57500000307,237255.82000000213,236940.675,236943.75500000024,236957.509,237274.167,,32,of
screen,html.Screen,1_1_1_1_33,2021-04-22T19:49:49.571Z,,,,,,,,,,,,,,,,54,,,,,,,,,,,,,,300.5530000005383,,response,,,,100,,,,,,,Space,keypress(Space),,,,,,,,-- --- ---- --- ------ ----- ------- ---- -- --- ------- --<br>------- ---------- ------ -- ----- -- ----- -- ---- ------<br>--- ----- --- --- ------ -------- ----- --- ------ ----- --<br>these ----- ---------- --- --- ------ ------ ---- -- ------<br>------- --- ------ ----- --- ---- ------- -- ---- --- --<br>------- ------,237575.45500000197,237574.72000000053,237240.808,237256.7650000019,237274.167,237590.901,,33,these
screen,html.Screen,1_1_1_1_34,2021-04-22T19:49:49.895Z,,,,,,,,,,,,,,,,54,,,,,,,,,,,,,,308.20400000040536,,response,,,,100,,,,,,,Space,keypress(Space),,,,,,,,-- --- ---- --- ------ ----- ------- ---- -- --- ------- --<br>------- ---------- ------ -- ----- -- ----- -- ---- ------<br>--- ----- --- --- ------ -------- ----- --- ------ ----- --<br>----- bonds ---------- --- --- ------ ------ ---- -- ------<br>------- --- ------ ----- --- ---- ------- -- ---- --- --<br>------- ------,237899.84000000186,237899.10500000042,237574.146,237575.65500000055,237590.901,237907.5,,34,bonds
screen,html.Screen,1_1_1_1_35,2021-04-22T19:49:50.468Z,,,,,,,,,,,,,,,,54,,,,,,,,,,,,,,564.1500000031374,,response,,,,100,,,,,,,Space,keypress(Space),,,,,,,,"-- --- ---- --- ------ ----- ------- ---- -- --- ------- --<br>------- ---------- ------ -- ----- -- ----- -- ---- ------<br>--- ----- --- --- ------ -------- ----- --- ------ ----- --<br>----- ----- plummeted, --- --- ------ ------ ---- -- ------<br>------- --- ------ ----- --- ---- ------- -- ---- --- --<br>------- ------",238472.1900000004,238471.65000000314,237890.496,237900.02000000095,237907.5,238473.651,,35,"plummeted,"
screen,html.Screen,1_1_1_1_36,2021-04-22T19:49:50.900Z,,,,,,,,,,,,,,,,54,,,,,,,,,,,,,,430.0189999996801,,response,,,,100,,,,,,,Space,keypress(Space),,,,,,,,-- --- ---- --- ------ ----- ------- ---- -- --- ------- --<br>------- ---------- ------ -- ----- -- ----- -- ---- ------<br>--- ----- --- --- ------ -------- ----- --- ------ ----- --<br>----- ----- ---------- and --- ------ ------ ---- -- ------<br>------- --- ------ ----- --- ---- ------- -- ---- --- --<br>------- ------,238904.22000000035,238903.6699999997,238457.319,238472.30500000296,238473.651,238923.671,,36,and
screen,html.Screen,1_1_1_1_37,2021-04-22T19:49:51.236Z,,,,,,,,,,,,,,,,54,,,,,,,,,,,,,,315.91400000298745,,response,,,,100,,,,,,,Space,keypress(Space),,,,,,,,-- --- ---- --- ------ ----- ------- ---- -- --- ------- --<br>------- ---------- ------ -- ----- -- ----- -- ---- ------<br>--- ----- --- --- ------ -------- ----- --- ------ ----- --<br>----- ----- ---------- --- the ------ ------ ---- -- ------<br>------- --- ------ ----- --- ---- ------- -- ---- --- --<br>------- ------,239240.4600000009,239239.585000003,238890.32,238904.36000000045,238923.671,239257.201,,37,the
screen,html.Screen,1_1_1_1_38,2021-04-22T19:49:51.539Z,,,,,,,,,,,,,,,,54,,,,,,,,,,,,,,285.8790000031004,,response,,,,100,,,,,,,Space,keypress(Space),,,,,,,,-- --- ---- --- ------ ----- ------- ---- -- --- ------- --<br>------- ---------- ------ -- ----- -- ----- -- ---- ------<br>--- ----- --- --- ------ -------- ----- --- ------ ----- --<br>----- ----- ---------- --- --- market ------ ---- -- ------<br>------- --- ------ ----- --- ---- ------- -- ---- --- --<br>------- ------,239543.700000002,239543.0800000031,239240.615,239240.6950000004,239257.201,239557.29,,38,market
screen,html.Screen,1_1_1_1_39,2021-04-22T19:49:51.933Z,,,,,,,,,,,,,,,,54,,,,,,,,,,,,,,379.2950000030978,,response,,,,100,,,,,,,Space,keypress(Space),,,,,,,,-- --- ---- --- ------ ----- ------- ---- -- --- ------- --<br>------- ---------- ------ -- ----- -- ----- -- ---- ------<br>--- ----- --- --- ------ -------- ----- --- ------ ----- --<br>----- ----- ---------- --- --- ------ became ---- -- ------<br>------- --- ------ ----- --- ---- ------- -- ---- --- --<br>------- ------,239937.28499999997,239936.5850000031,239540.263,239543.85000000184,239557.29,239940.245,,39,became
screen,html.Screen,1_1_1_1_40,2021-04-22T19:49:52.335Z,,,,,,,,,,,,,,,,54,,,,,,,,,,,,,,398.0600000011327,,response,,,,100,,,,,,,Space,keypress(Space),,,,,,,,-- --- ---- --- ------ ----- ------- ---- -- --- ------- --<br>------- ---------- ------ -- ----- -- ----- -- ---- ------<br>--- ----- --- --- ------ -------- ----- --- ------ ----- --<br>----- ----- ---------- --- --- ------ ------ wary -- ------<br>------- --- ------ ----- --- ---- ------- -- ---- --- --<br>------- ------,240339.1100000008,240338.30500000113,239923.736,239937.47000000076,239940.245,240369.705,,40,wary
screen,html.Screen,1_1_1_1_41,2021-04-22T19:49:52.748Z,,,,,,,,,,,,,,,,54,,,,,,,,,,,,,,382.4150000010268,,response,,,,100,,,,,,,Space,keypress(Space),,,,,,,,-- --- ---- --- ------ ----- ------- ---- -- --- ------- --<br>------- ---------- ------ -- ----- -- ----- -- ---- ------<br>--- ----- --- --- ------ -------- ----- --- ------ ----- --<br>----- ----- ---------- --- --- ------ ------ ---- of ------<br>------- --- ------ ----- --- ---- ------- -- ---- --- --<br>------- ------,240752.7050000026,240752.120000001,240323.841,240339.31000000302,240369.705,240756.746,,41,of
screen,html.Screen,1_1_1_1_42,2021-04-22T19:49:53.112Z,,,,,,,,,,,,,,,,54,,,,,,,,,,,,,,359.14400000093156,,response,,,,100,,,,,,,Space,keypress(Space),,,,,,,,-- --- ---- --- ------ ----- ------- ---- -- --- ------- --<br>------- ---------- ------ -- ----- -- ----- -- ---- ------<br>--- ----- --- --- ------ -------- ----- --- ------ ----- --<br>----- ----- ---------- --- --- ------ ------ ---- -- French<br>------- --- ------ ----- --- ---- ------- -- ---- --- --<br>------- ------,241116.61000000095,241115.89000000095,240740.432,240752.84000000102,240756.746,241123.428,,42,French
screen,html.Screen,1_1_1_1_43,2021-04-22T19:49:53.455Z,,,,,,,,,,,,,,,,54,,,,,,,,,,,,,,335.37700000201585,,response,,,,100,,,,,,,Space,keypress(Space),,,,,,,,-- --- ---- --- ------ ----- ------- ---- -- --- ------- --<br>------- ---------- ------ -- ----- -- ----- -- ---- ------<br>--- ----- --- --- ------ -------- ----- --- ------ ----- --<br>----- ----- ---------- --- --- ------ ------ ---- -- ------<br>credit. --- ------ ----- --- ---- ------- -- ---- --- --<br>------- ------,241459.53999999983,241458.80500000203,241106.93,241116.81500000122,241123.428,241473.56,,43,credit.
screen,html.Screen,1_1_1_1_44,2021-04-22T19:49:53.941Z,,,,,,,,,,,,,,,,54,,,,,,,,,,,,,,471.1750000009488,,response,,,,100,,,,,,,Space,keypress(Space),,,,,,,,-- --- ---- --- ------ ----- ------- ---- -- --- ------- --<br>------- ---------- ------ -- ----- -- ----- -- ---- ------<br>--- ----- --- --- ------ -------- ----- --- ------ ----- --<br>----- ----- ---------- --- --- ------ ------ ---- -- ------<br>------- The ------ ----- --- ---- ------- -- ---- --- --<br>------- ------,241945.37000000128,241944.73500000095,241456.905,241459.73500000036,241473.56,241956.974,,44,The
screen,html.Screen,1_1_1_1_45,2021-04-22T19:49:54.318Z,,,,,,,,,,,,,,,,54,,,,,,,,,,,,,,364.9760000013921,,response,,,,100,,,,,,,Space,keypress(Space),,,,,,,,-- --- ---- --- ------ ----- ------- ---- -- --- ------- --<br>------- ---------- ------ -- ----- -- ----- -- ---- ------<br>--- ----- --- --- ------ -------- ----- --- ------ ----- --<br>----- ----- ---------- --- --- ------ ------ ---- -- ------<br>------- --- French ----- --- ---- ------- -- ---- --- --<br>------- ------,242322.68000000113,242321.95000000138,241940.179,241945.54000000062,241956.974,242356.926,,45,French
screen,html.Screen,1_1_1_1_46,2021-04-22T19:49:54.855Z,,,,,,,,,,,,,,,,54,,,,,,,,,,,,,,501.74400000143214,,response,,,,100,,,,,,,Space,keypress(Space),,,,,,,,-- --- ---- --- ------ ----- ------- ---- -- --- ------- --<br>------- ---------- ------ -- ----- -- ----- -- ---- ------<br>--- ----- --- --- ------ -------- ----- --- ------ ----- --<br>----- ----- ---------- --- --- ------ ------ ---- -- ------<br>------- --- ------ state --- ---- ------- -- ---- --- --<br>------- ------,242859.335000001,242858.67000000144,242340.275,242322.8850000014,242356.926,242873.517,,46,state
screen,html.Screen,1_1_1_1_47,2021-04-22T19:49:55.309Z,,,,,,,,,,,,,,,,54,,,,,,,,,,,,,,439.5430000004126,,response,,,,100,,,,,,,Space,keypress(Space),,,,,,,,-- --- ---- --- ------ ----- ------- ---- -- --- ------- --<br>------- ---------- ------ -- ----- -- ----- -- ---- ------<br>--- ----- --- --- ------ -------- ----- --- ------ ----- --<br>----- ----- ---------- --- --- ------ ------ ---- -- ------<br>------- --- ------ ----- was ---- ------- -- ---- --- --<br>------- ------,243313.77500000235,243313.0600000004,242856.763,242859.4950000006,242873.517,243323.429,,47,was
screen,html.Screen,1_1_1_1_48,2021-04-22T19:49:55.678Z,,,,,,,,,,,,,,,,54,,,,,,,,,,,,,,357.8560000023863,,response,,,,100,,,,,,,Space,keypress(Space),,,,,,,,-- --- ---- --- ------ ----- ------- ---- -- --- ------- --<br>------- ---------- ------ -- ----- -- ----- -- ---- ------<br>--- ----- --- --- ------ -------- ----- --- ------ ----- --<br>----- ----- ---------- --- --- ------ ------ ---- -- ------<br>------- --- ------ ----- --- left ------- -- ---- --- --<br>------- ------,243682.01000000045,243681.2850000024,243306.641,243313.97000000288,243323.429,243689.84,,48,left
screen,html.Screen,1_1_1_1_49,2021-04-22T19:49:55.988Z,,,,,,,,,,,,,,,,54,,,,,,,,,,,,,,302.2800000026182,,response,,,,100,,,,,,,Space,keypress(Space),,,,,,,,-- --- ---- --- ------ ----- ------- ---- -- --- ------- --<br>------- ---------- ------ -- ----- -- ----- -- ---- ------<br>--- ----- --- --- ------ -------- ----- --- ------ ----- --<br>----- ----- ---------- --- --- ------ ------ ---- -- ------<br>------- --- ------ ----- --- ---- without -- ---- --- --<br>------- ------,243992.83000000287,243992.12000000261,243673.229,243682.20000000292,243689.84,244006.68,,49,without
screen,html.Screen,1_1_1_1_50,2021-04-22T19:49:56.297Z,,,,,,,,,,,,,,,,54,,,,,,,,,,,,,,293.9250000003667,,response,,,,100,,,,,,,Space,keypress(Space),,,,,,,,-- --- ---- --- ------ ----- ------- ---- -- --- ------- --<br>------- ---------- ------ -- ----- -- ----- -- ---- ------<br>--- ----- --- --- ------ -------- ----- --- ------ ----- --<br>----- ----- ---------- --- --- ------ ------ ---- -- ------<br>------- --- ------ ----- --- ---- ------- an ---- --- --<br>------- ------,244301.30500000087,244300.60500000036,243989.669,243993.01000000196,244006.68,244306.281,,50,an
screen,html.Screen,1_1_1_1_51,2021-04-22T19:49:56.631Z,,,,,,,,,,,,,,,,54,,,,,,,,,,,,,,328.0290000012901,,response,,,,100,,,,,,,Space,keypress(Space),,,,,,,,-- --- ---- --- ------ ----- ------- ---- -- --- ------- --<br>------- ---------- ------ -- ----- -- ----- -- ---- ------<br>--- ----- --- --- ------ -------- ----- --- ------ ----- --<br>----- ----- ---------- --- --- ------ ------ ---- -- ------<br>------- --- ------ ----- --- ---- ------- -- easy --- --<br>------- ------,244634.96000000305,244634.31000000128,244289.923,244301.5000000014,244306.281,244639.582,,51,easy
screen,html.Screen,1_1_1_1_52,2021-04-22T19:49:56.980Z,,,,,,,,,,,,,,,,54,,,,,,,,,,,,,,344.59300000141957,,response,,,,100,,,,,,,Space,keypress(Space),,,,,,,,-- --- ---- --- ------ ----- ------- ---- -- --- ------- --<br>------- ---------- ------ -- ----- -- ----- -- ---- ------<br>--- ----- --- --- ------ -------- ----- --- ------ ----- --<br>----- ----- ---------- --- --- ------ ------ ---- -- ------<br>------- --- ------ ----- --- ---- ------- -- ---- way --<br>------- ------,244984.82499999955,244984.1750000014,244623.273,244635.1250000007,244639.582,244989.61,,52,way
screen,html.Screen,1_1_1_1_53,2021-04-22T19:49:57.342Z,,,,,,,,,,,,,,,,54,,,,,,,,,,,,,,356.08000000193715,,response,,,,100,,,,,,,Space,keypress(Space),,,,,,,,-- --- ---- --- ------ ----- ------- ---- -- --- ------- --<br>------- ---------- ------ -- ----- -- ----- -- ---- ------<br>--- ----- --- --- ------ -------- ----- --- ------ ----- --<br>----- ----- ---------- --- --- ------ ------ ---- -- ------<br>------- --- ------ ----- --- ---- ------- -- ---- --- of<br>------- ------,245346.42499999973,245345.69000000192,244973.072,244985.00000000058,244989.61,245356.566,,53,of
screen,html.Screen,1_1_1_1_54,2021-04-22T19:49:57.744Z,,,,,,,,,,,,,,,,54,,,,,,,,,,,,,,391.36900000306196,,response,,,,100,,,,,,,Space,keypress(Space),,,,,,,,-- --- ---- --- ------ ----- ------- ---- -- --- ------- --<br>------- ---------- ------ -- ----- -- ----- -- ---- ------<br>--- ----- --- --- ------ -------- ----- --- ------ ----- --<br>----- ----- ---------- --- --- ------ ------ ---- -- ------<br>------- --- ------ ----- --- ---- ------- -- ---- --- --<br>raising ------,245748.61000000237,245747.93500000305,245339.664,245346.62000000026,245356.566,245756.215,,54,raising
screen,html.Screen,1_1_1_1_55,2021-04-22T19:49:58.141Z,,,,,,,,,,,,,,,,54,,,,,,,,,,,,,,388.3749999998836,,response,,,,100,,,,,,,Space,keypress(Space),,,,,,,,-- --- ---- --- ------ ----- ------- ---- -- --- ------- --<br>------- ---------- ------ -- ----- -- ----- -- ---- ------<br>--- ----- --- --- ------ -------- ----- --- ------ ----- --<br>----- ----- ---------- --- --- ------ ------ ---- -- ------<br>------- --- ------ ----- --- ---- ------- -- ---- --- --<br>------- money.,246145.34000000276,246144.58999999988,245739.699,245748.77500000002,245756.215,246156.153,,55,money.
Item 100,flow.Loop,1_1_1_1,2021-04-22T19:49:58.141Z,,,,,,,,,,,,,,,,,,,,,,,,,,,,,,25768.28399999987,,completion,,,,,D,,,,,,,,,,,silence,,,,,246145.84000000104,246144.58999999988,220359.657,220360.52500000005,220376.306,246156.153,,,
Question 1,html.Screen,1_1_1_2,2021-04-22T19:50:00.980Z,,,,,,,,,,,,,,,,,,,,,,,,,,,true,TRUE,,2826.931999999855,,response,,,,100,D,,,,,,TRUE,click #choice-1,,,,silence,,,,,248984.38499999975,248983.08499999985,246139.64,246146.05500000107,246156.153,248988.997,,,
Question 2,html.Screen,1_1_1_3,2021-04-22T19:50:03.677Z,,,,,,,,,,,,,,,,,,,,,,,,,,,true,FALSE,,2690.488000000565,,response,,,,100,D,,,,,,FALSE,click #choice-2,,,,silence,,,,,251681.78500000067,251679.48500000057,248972.648,248984.5150000001,248988.997,251688.667,,,
Item 100,flow.Sequence,1_1_1,2021-04-22T19:50:03.678Z,,,,,,,,,,,,,,,,,,,,,,,,,,,,,,41302.10100000058,,completion,,,,,,,,,,,,,,,,,,,,,251682.1000000018,251679.48500000057,210360.756,210368.3200000014,210377.384,251688.667,,,
End of Practice,html.Page,1_1_2,2021-04-22T19:50:09.259Z,,,,,,,,,,,,,,,,,,,,,,,,,,,,,,5574.878000001627,,form submission,,,,,,,,,,,,,,,,,,,,,257263.71500000096,257263.5450000016,251672.131,251682.25000000166,251688.667,257271.369,,,
Practice,flow.Sequence,1_1,2021-04-22T19:50:09.259Z,,,,,,,,,,,,,,,,,,,,,,,,,,,,,,91013.84700000161,,completion,,,,,,,,,,,,,,,,,,,,,257263.85500000106,257263.5450000016,166233.041,166245.62499999956,166249.698,257271.369,,,
Trap_instruction,html.Page,1_2_0,2021-04-22T19:50:15.604Z,,,,,,,,,,,,,,,,,,,,,,,,,,,,,,6337.046000002418,,form submission,,,,,,,,,,,,,,,,,,,,,263608.5950000015,263608.4150000024,257254.966,257263.94000000073,257271.369,263620.422,,,
trap_trial,html.Screen,1_2_1,2021-04-22T19:50:19.384Z,,,,,,,,,,,,,,,,,,,,,,,,,,,true,1,,3766.9930000010645,,response,,,,,,,,,,,1,click #choice-1,,,,,,,,,267388.8200000001,267387.4150000011,263603.846,263608.68500000285,263620.422,267403.575,,,
end of trap trial,html.Page,1_2_2,2021-04-22T19:50:25.274Z,,,,,,,,,,,,,,,,,,,,,,,,,,,,,,5874.1550000016,,form submission,,,,,,,,,,,,,,,,,,,,,273278.1000000032,273277.7300000016,267386.884,267389.09000000055,267403.575,273285.901,,,
Trap 1,flow.Sequence,1_2,2021-04-22T19:50:25.274Z,,,,,,,,,,,,,,,,,,,,,,,,,,,,,,16006.361000001605,,completion,,,,,,,,,,,,,,,,,,,,,273278.4000000029,273277.7300000016,257254.966,257263.9100000015,257271.369,273285.901,,,
Standby,html.Page,1_3_0,2021-04-22T19:50:33.265Z,,,,,,,,,,,,,,,,,,,,,,,,,,,,,,7999.265000000014,,timeout,,,,,,,,,,,,,,,,,,,,,281269.29999999993,281268.501,273269.604,273278.6200000009,273285.901,281285.166,,,
Holding screen,html.Screen,1_3_1_0_0,2021-04-22T19:50:40.264Z,,,,,,,,,,,,,,,,,,,,,,,,,,,,,,6999.034999999974,,timeout,,,,,,,,,,,,,,,,,,,,,288268.45500000124,288267.684,281268.501,281269.5700000004,281285.166,288284.201,,,
screen,html.Screen,1_3_1_0_1_0,2021-04-22T19:50:41.957Z,,,,,,,,,,,,,,,,11,,,,,,,,,,,,,,1676.0340000023134,,response,,,,4,D,,,,,,Space,keypress(Space),,,,silence,,,,Known -- ---- --- -- --- -------- ------------ ---------- --<br>- ------- ------ --------- -- ------------ -- --- ---- -----<br>------ ---- ---- ------ ------ ------- --- ----- ---------<br>---- --- -------- -------- --- --- -- ------- --- --- -----<br>-- --- ------ ------- --- --- -------- ---- --------- --<br>---------- -- -------- ----------------,289961.01500000077,289960.2350000023,288267.684,288268.68500000273,288284.201,289967.077,,0,Known
screen,html.Screen,1_3_1_0_1_1,2021-04-22T19:50:42.330Z,,,,,,,,,,,,,,,,11,,,,,,,,,,,,,,366.91300000279443,,response,,,,4,D,,,,,,Space,keypress(Space),,,,silence,,,,----- as ---- --- -- --- -------- ------------ ---------- --<br>- ------- ------ --------- -- ------------ -- --- ---- -----<br>------ ---- ---- ------ ------ ------- --- ----- ---------<br>---- --- -------- -------- --- --- -- ------- --- --- -----<br>-- --- ------ ------- --- --- -------- ---- --------- --<br>---------- -- -------- ----------------,290334.5900000022,290333.9900000028,289950.628,289961.2000000016,289967.077,290350.798,,1,as
screen,html.Screen,1_3_1_0_1_2,2021-04-22T19:50:43.244Z,,,,,,,,,,,,,,,,11,,,,,,,,,,,,,,896.6869999998598,,response,,,,4,D,,,,,,Space,keypress(Space),,,,silence,,,,----- -- Rapa --- -- --- -------- ------------ ---------- --<br>- ------- ------ --------- -- ------------ -- --- ---- -----<br>------ ---- ---- ------ ------ ------- --- ----- ---------<br>---- --- -------- -------- --- --- -- ------- --- --- -----<br>-- --- ------ ------- --- --- -------- ---- --------- --<br>---------- -- -------- ----------------,291248.3250000005,291247.48499999987,290333.911,290334.7400000021,290350.798,291250.321,,2,Rapa
screen,html.Screen,1_3_1_0_1_3,2021-04-22T19:50:43.668Z,,,,,,,,,,,,,,,,11,,,,,,,,,,,,,,420.5940000024275,,response,,,,4,D,,,,,,Space,keypress(Space),,,,silence,,,,----- -- ---- Nui -- --- -------- ------------ ---------- --<br>- ------- ------ --------- -- ------------ -- --- ---- -----<br>------ ---- ---- ------ ------ ------- --- ----- ---------<br>---- --- -------- -------- --- --- -- ------- --- --- -----<br>-- --- ------ ------- --- --- -------- ---- --------- --<br>---------- -- -------- ----------------,291671.67500000144,291670.9150000024,291233.602,291248.4949999998,291250.321,291683.768,,3,Nui
screen,html.Screen,1_3_1_0_1_4,2021-04-22T19:50:44.106Z,,,,,,,,,,,,,,,,11,,,,,,,,,,,,,,425.7970000025234,,response,,,,4,D,,,,,,Space,keypress(Space),,,,silence,,,,----- -- ---- --- to --- -------- ------------ ---------- --<br>- ------- ------ --------- -- ------------ -- --- ---- -----<br>------ ---- ---- ------ ------ ------- --- ----- ---------<br>---- --- -------- -------- --- --- -- ------- --- --- -----<br>-- --- ------ ------- --- --- -------- ---- --------- --<br>---------- -- -------- ----------------,292110.3199999998,292109.5650000025,291666.839,291671.8650000002,291683.768,292116.91,,4,to
screen,html.Screen,1_3_1_0_1_5,2021-04-22T19:50:44.428Z,,,,,,,,,,,,,,,,11,,,,,,,,,,,,,,315.2250000027707,,response,,,,4,D,,,,,,Space,keypress(Space),,,,silence,,,,----- -- ---- --- -- the -------- ------------ ---------- --<br>- ------- ------ --------- -- ------------ -- --- ---- -----<br>------ ---- ---- ------ ------ ------- --- ----- ---------<br>---- --- -------- -------- --- --- -- ------- --- --- -----<br>-- --- ------ ------- --- --- -------- ---- --------- --<br>---------- -- -------- ----------------,292432.5400000016,292432.13500000275,292100.371,292110.5150000003,292116.91,292461.207,,5,the
screen,html.Screen,1_3_1_0_1_6,2021-04-22T19:50:44.822Z,,,,,,,,,,,,,,,,11,,,,,,,,,,,,,,364.0230000021984,,response,,,,4,D,,,,,,Space,keypress(Space),,,,silence,,,,----- -- ---- --- -- --- island's ------------ ---------- --<br>- ------- ------ --------- -- ------------ -- --- ---- -----<br>------ ---- ---- ------ ------ ------- --- ----- ---------<br>---- --- -------- -------- --- --- -- ------- --- --- -----<br>-- --- ------ ------- --- --- -------- ---- --------- --<br>---------- -- -------- ----------------,292825.7900000026,292825.2300000022,292417.073,292432.6250000013,292461.207,292833.407,,6,island's
screen,html.Screen,1_3_1_0_1_7,2021-04-22T19:50:46.255Z,,,,,,,,,,,,,,,,11,,,,,,,,,,,,,,1425.158000000054,,response,,,,4,D,,,,,,Space,keypress(Space),,,,silence,,,,"----- -- ---- --- -- --- -------- inhabitants, ---------- --<br>- ------- ------ --------- -- ------------ -- --- ---- -----<br>------ ---- ---- ------ ------ ------- --- ----- ---------<br>---- --- -------- -------- --- --- -- ------- --- --- -----<br>-- --- ------ ------- --- --- -------- ---- --------- --<br>---------- -- -------- ----------------",294259.36,294258.56500000006,292816.824,292825.9300000027,292833.407,294266.532,,7,"inhabitants,"
screen,html.Screen,1_3_1_0_1_8,2021-04-22T19:50:46.961Z,,,,,,,,,,,,,,,,11,,,,,,,,,,,,,,697.7030000031227,,response,,,,4,D,,,,,,Space,keypress(Space),,,,silence,,,,----- -- ---- --- -- --- -------- ------------ Rongorongo --<br>- ------- ------ --------- -- ------------ -- --- ---- -----<br>------ ---- ---- ------ ------ ------- --- ----- ---------<br>---- --- -------- -------- --- --- -- ------- --- --- -----<br>-- --- ------ ------- --- --- -------- ---- --------- --<br>---------- -- -------- ----------------,294964.9700000009,294964.23500000313,294249.803,294259.56000000227,294266.532,295000.171,,8,Rongorongo
screen,html.Screen,1_3_1_0_1_9,2021-04-22T19:50:48.441Z,,,,,,,,,,,,,,,,11,,,,,,,,,,,,,,1444.4690000015544,,response,,,,4,D,,,,,,Space,keypress(Space),,,,silence,,,,----- -- ---- --- -- --- -------- ------------ ---------- is<br>- ------- ------ --------- -- ------------ -- --- ---- -----<br>------ ---- ---- ------ ------ ------- --- ----- ---------<br>---- --- -------- -------- --- --- -- ------- --- --- -----<br>-- --- ------ ------- --- --- -------- ---- --------- --<br>---------- -- -------- ----------------,296445.20499999996,296444.6400000015,294950.162,294965.1700000031,295000.171,296449.588,,9,is
screen,html.Screen,1_3_1_0_1_10,2021-04-22T19:50:48.844Z,,,,,,,,,,,,,,,,11,,,,,,,,,,,,,,398.1620000008261,,response,,,,4,D,,,,,,Space,keypress(Space),,,,silence,,,,----- -- ---- --- -- --- -------- ------------ ---------- --<br>a ------- ------ --------- -- ------------ -- --- ---- -----<br>------ ---- ---- ------ ------ ------- --- ----- ---------<br>---- --- -------- -------- --- --- -- ------- --- --- -----<br>-- --- ------ ------- --- --- -------- ---- --------- --<br>---------- -- -------- ----------------,296848.4300000018,296847.7500000008,296433.036,296445.3450000001,296449.588,296869.378,,10,a
screen,html.Screen,1_3_1_0_1_11,2021-04-22T19:50:49.498Z,,,,,,,,,,,,,,,,11,,,,,,,,,,,,,,631.9620000025025,,response,,,,4,D,,,,,,Space,keypress(Space),,,,silence,,,,----- -- ---- --- -- --- -------- ------------ ---------- --<br>- writing ------ --------- -- ------------ -- --- ---- -----<br>------ ---- ---- ------ ------ ------- --- ----- ---------<br>---- --- -------- -------- --- --- -- ------- --- --- -----<br>-- --- ------ ------- --- --- -------- ---- --------- --<br>---------- -- -------- ----------------,297501.97000000114,297501.3400000025,296833.109,296848.60000000114,296869.378,297516.371,,11,writing
screen,html.Screen,1_3_1_0_1_12,2021-04-22T19:50:49.927Z,,,,,,,,,,,,,,,,11,,,,,,,,,,,,,,414.1690000012168,,response,,,,4,D,,,,,,Space,keypress(Space),,,,silence,,,,----- -- ---- --- -- --- -------- ------------ ---------- --<br>- ------- system --------- -- ------------ -- --- ---- -----<br>------ ---- ---- ------ ------ ------- --- ----- ---------<br>---- --- -------- -------- --- --- -- ------- --- --- -----<br>-- --- ------ ------- --- --- -------- ---- --------- --<br>---------- -- -------- ----------------,297931.27000000095,297930.5400000012,297499.716,297502.1250000027,297516.371,297961.444,,12,system
screen,html.Screen,1_3_1_0_1_13,2021-04-22T19:50:50.393Z,,,,,,,,,,,,,,,,11,,,,,,,,,,,,,,434.96600000117905,,response,,,,4,D,,,,,,Space,keypress(Space),,,,silence,,,,----- -- ---- --- -- --- -------- ------------ ---------- --<br>- ------- ------ comprised -- ------------ -- --- ---- -----<br>------ ---- ---- ------ ------ ------- --- ----- ---------<br>---- --- -------- -------- --- --- -- ------- --- --- -----<br>-- --- ------ ------- --- --- -------- ---- --------- --<br>---------- -- -------- ----------------,298397.025000002,298396.4100000012,297916.445,297931.45000000007,297961.444,298399.351,,13,comprised
screen,html.Screen,1_3_1_0_1_14,2021-04-22T19:50:50.812Z,,,,,,,,,,,,,,,,11,,,,,,,,,,,,,,416.27400000288617,,response,,,,4,D,,,,,,Space,keypress(Space),,,,silence,,,,----- -- ---- --- -- --- -------- ------------ ---------- --<br>- ------- ------ --------- of ------------ -- --- ---- -----<br>------ ---- ---- ------ ------ ------- --- ----- ---------<br>---- --- -------- -------- --- --- -- ------- --- --- -----<br>-- --- ------ ------- --- --- -------- ---- --------- --<br>---------- -- -------- ----------------,298816.4800000013,298815.6250000029,298382.953,298397.2100000028,298399.351,298833.013,,14,of
screen,html.Screen,1_3_1_0_1_15,2021-04-22T19:50:52.062Z,,,,,,,,,,,,,,,,11,,,,,,,,,,,,,,1232.1619999997201,,response,,,,4,D,,,,,,Space,keypress(Space),,,,silence,,,,----- -- ---- --- -- --- -------- ------------ ---------- --<br>- ------- ------ --------- -- pictographs. -- --- ---- -----<br>------ ---- ---- ------ ------ ------- --- ----- ---------<br>---- --- -------- -------- --- --- -- ------- --- --- -----<br>-- --- ------ ------- --- --- -------- ---- --------- --<br>---------- -- -------- ----------------,300065.89000000164,300065.1749999997,298816.193,298816.71000000276,298833.013,300082.742,,15,pictographs.
screen,html.Screen,1_3_1_0_1_16,2021-04-22T19:50:52.485Z,,,,,,,,,,,,,,,,11,,,,,,,,,,,,,,405.6030000015744,,response,,,,4,D,,,,,,Space,keypress(Space),,,,silence,,,,----- -- ---- --- -- --- -------- ------------ ---------- --<br>- ------- ------ --------- -- ------------ It --- ---- -----<br>------ ---- ---- ------ ------ ------- --- ----- ---------<br>---- --- -------- -------- --- --- -- ------- --- --- -----<br>-- --- ------ ------- --- --- -------- ---- --------- --<br>---------- -- -------- ----------------,300489.03500000236,300488.3450000016,300066.009,300066.08000000054,300082.742,300499.486,,16,It
screen,html.Screen,1_3_1_0_1_17,2021-04-22T19:50:52.846Z,,,,,,,,,,,,,,,,11,,,,,,,,,,,,,,350.17399999988265,,response,,,,4,D,,,,,,Space,keypress(Space),,,,silence,,,,----- -- ---- --- -- --- -------- ------------ ---------- --<br>- ------- ------ --------- -- ------------ -- has ---- -----<br>------ ---- ---- ------ ------ ------- --- ----- ---------<br>---- --- -------- -------- --- --- -- ------- --- --- -----<br>-- --- ------ ------- --- --- -------- ---- --------- --<br>---------- -- -------- ----------------,300850.3250000031,300849.65999999986,300482.577,300489.2200000031,300499.486,300865.937,,17,has
screen,html.Screen,1_3_1_0_1_18,2021-04-22T19:50:53.239Z,,,,,,,,,,,,,,,,11,,,,,,,,,,,,,,376.53800000279443,,response,,,,4,D,,,,,,Space,keypress(Space),,,,silence,,,,----- -- ---- --- -- --- -------- ------------ ---------- --<br>- ------- ------ --------- -- ------------ -- --- been -----<br>------ ---- ---- ------ ------ ------- --- ----- ---------<br>---- --- -------- -------- --- --- -- ------- --- --- -----<br>-- --- ------ ------- --- --- -------- ---- --------- --<br>---------- -- -------- ----------------,301243.18500000297,301242.47500000277,300849.262,300850.48500000266,300865.937,301248.986,,18,been
screen,html.Screen,1_3_1_0_1_19,2021-04-22T19:50:53.595Z,,,,,,,,,,,,,,,,11,,,,,,,,,,,,,,349.22900000185473,,response,,,,4,D,,,,,,Space,keypress(Space),,,,silence,,,,----- -- ---- --- -- --- -------- ------------ ---------- --<br>- ------- ------ --------- -- ------------ -- --- ---- found<br>------ ---- ---- ------ ------ ------- --- ----- ---------<br>---- --- -------- -------- --- --- -- ------- --- --- -----<br>-- --- ------ ------- --- --- -------- ---- --------- --<br>---------- -- -------- ----------------,301598.81000000314,301598.21500000183,301232.56,301243.3500000007,301248.986,301615.824,,19,found
screen,html.Screen,1_3_1_0_1_20,2021-04-22T19:50:54.040Z,,,,,,,,,,,,,,,,11,,,,,,,,,,,,,,427.1059999995632,,response,,,,4,D,,,,,,Space,keypress(Space),,,,silence,,,,----- -- ---- --- -- --- -------- ------------ ---------- --<br>- ------- ------ --------- -- ------------ -- --- ---- -----<br>carved ---- ---- ------ ------ ------- --- ----- ---------<br>---- --- -------- -------- --- --- -- ------- --- --- -----<br>-- --- ------ ------- --- --- -------- ---- --------- --<br>---------- -- -------- ----------------,302043.660000003,302042.9299999996,301599.014,301598.9499999996,301615.824,302049.03,,20,carved
screen,html.Screen,1_3_1_0_1_21,2021-04-22T19:50:54.408Z,,,,,,,,,,,,,,,,11,,,,,,,,,,,,,,363.1000000005588,,response,,,,4,D,,,,,,Space,keypress(Space),,,,silence,,,,----- -- ---- --- -- --- -------- ------------ ---------- --<br>- ------- ------ --------- -- ------------ -- --- ---- -----<br>------ into ---- ------ ------ ------- --- ----- ---------<br>---- --- -------- -------- --- --- -- ------- --- --- -----<br>-- --- ------ ------- --- --- -------- ---- --------- --<br>---------- -- -------- ----------------,302412.5350000031,302412.1300000006,302032.476,302043.85000000184,302049.03,302415.519,,21,into
screen,html.Screen,1_3_1_0_1_22,2021-04-22T19:50:54.793Z,,,,,,,,,,,,,,,,11,,,,,,,,,,,,,,380.5059999997029,,response,,,,4,D,,,,,,Space,keypress(Space),,,,silence,,,,----- -- ---- --- -- --- -------- ------------ ---------- --<br>- ------- ------ --------- -- ------------ -- --- ---- -----<br>------ ---- many ------ ------ ------- --- ----- ---------<br>---- --- -------- -------- --- --- -- ------- --- --- -----<br>-- --- ------ ------- --- --- -------- ---- --------- --<br>---------- -- -------- ----------------,302796.6800000031,302796.0249999997,302399.016,302412.6150000011,302415.519,302798.818,,22,many
screen,html.Screen,1_3_1_0_1_23,2021-04-22T19:50:55.635Z,,,,,,,,,,,,,,,,11,,,,,,,,,,,,,,839.4270000018878,,response,,,,4,D,,,,,,Space,keypress(Space),,,,silence,,,,----- -- ---- --- -- --- -------- ------------ ---------- --<br>- ------- ------ --------- -- ------------ -- --- ---- -----<br>------ ---- ---- oblong ------ ------- --- ----- ---------<br>---- --- -------- -------- --- --- -- ------- --- --- -----<br>-- --- ------ ------- --- --- -------- ---- --------- --<br>---------- -- -------- ----------------,303638.9450000024,303638.2450000019,302782.353,302796.8450000008,302798.818,303648.724,,23,oblong
screen,html.Screen,1_3_1_0_1_24,2021-04-22T19:50:56.057Z,,,,,,,,,,,,,,,,11,,,,,,,,,,,,,,412.2160000030417,,response,,,,4,D,,,,,,Space,keypress(Space),,,,silence,,,,----- -- ---- --- -- --- -------- ------------ ---------- --<br>- ------- ------ --------- -- ------------ -- --- ---- -----<br>------ ---- ---- ------ wooden ------- --- ----- ---------<br>---- --- -------- -------- --- --- -- ------- --- --- -----<br>-- --- ------ ------- --- --- -------- ---- --------- --<br>---------- -- -------- ----------------,304061.40000000235,304060.94000000303,303632.257,303639.1100000001,303648.724,304065.273,,24,wooden
screen,html.Screen,1_3_1_0_1_25,2021-04-22T19:50:56.650Z,,,,,,,,,,,,,,,,11,,,,,,,,,,,,,,588.0520000029937,,response,,,,4,D,,,,,,Space,keypress(Space),,,,silence,,,,----- -- ---- --- -- --- -------- ------------ ---------- --<br>- ------- ------ --------- -- ------------ -- --- ---- -----<br>------ ---- ---- ------ ------ tablets --- ----- ---------<br>---- --- -------- -------- --- --- -- ------- --- --- -----<br>-- --- ------ ------- --- --- -------- ---- --------- --<br>---------- -- -------- ----------------,304654.09999999974,304653.325000003,304048.706,304061.49500000174,304065.273,304665.217,,25,tablets
screen,html.Screen,1_3_1_0_1_26,2021-04-22T19:50:57.056Z,,,,,,,,,,,,,,,,11,,,,,,,,,,,,,,393.842999999586,,response,,,,4,D,,,,,,Space,keypress(Space),,,,silence,,,,----- -- ---- --- -- --- -------- ------------ ---------- --<br>- ------- ------ --------- -- ------------ -- --- ---- -----<br>------ ---- ---- ------ ------ ------- and ----- ---------<br>---- --- -------- -------- --- --- -- ------- --- --- -----<br>-- --- ------ ------- --- --- -------- ---- --------- --<br>---------- -- -------- ----------------,305059.8250000003,305059.0599999996,304648.798,304654.32000000146,304665.217,305065.209,,26,and
screen,html.Screen,1_3_1_0_1_27,2021-04-22T19:50:57.528Z,,,,,,,,,,,,,,,,11,,,,,,,,,,,,,,466.4960000012652,,response,,,,4,D,,,,,,Space,keypress(Space),,,,silence,,,,----- -- ---- --- -- --- -------- ------------ ---------- --<br>- ------- ------ --------- -- ------------ -- --- ---- -----<br>------ ---- ---- ------ ------ ------- --- other ---------<br>---- --- -------- -------- --- --- -- ------- --- --- -----<br>-- --- ------ ------- --- --- -------- ---- --------- --<br>---------- -- -------- ----------------,305532.20500000316,305531.70500000124,305048.886,305060.02500000247,305065.209,305548.501,,27,other
screen,html.Screen,1_3_1_0_1_28,2021-04-22T19:50:59.308Z,,,,,,,,,,,,,,,,11,,,,,,,,,,,,,,1762.9540000027628,,response,,,,4,D,,,,,,Space,keypress(Space),,,,silence,,,,----- -- ---- --- -- --- -------- ------------ ---------- --<br>- ------- ------ --------- -- ------------ -- --- ---- -----<br>------ ---- ---- ------ ------ ------- --- ----- artifacts<br>---- --- -------- -------- --- --- -- ------- --- --- -----<br>-- --- ------ ------- --- --- -------- ---- --------- --<br>---------- -- -------- ----------------,307312.245000001,307311.45500000275,305532.08,305532.29500000086,305548.501,307314.879,,28,artifacts
screen,html.Screen,1_3_1_0_1_29,2021-04-22T19:50:59.762Z,,,,,,,,,,,,,,,,11,,,,,,,,,,,,,,450.43100000248523,,response,,,,4,D,,,,,,Space,keypress(Space),,,,silence,,,,----- -- ---- --- -- --- -------- ------------ ---------- --<br>- ------- ------ --------- -- ------------ -- --- ---- -----<br>------ ---- ---- ------ ------ ------- --- ----- ---------<br>from --- -------- -------- --- --- -- ------- --- --- -----<br>-- --- ------ ------- --- --- -------- ---- --------- --<br>---------- -- -------- ----------------,307766.01000000304,307765.3100000025,307298.238,307312.4400000015,307314.879,307781.523,,29,from
screen,html.Screen,1_3_1_0_1_30,2021-04-22T19:51:00.073Z,,,,,,,,,,,,,,,,11,,,,,,,,,,,,,,294.6170000010752,,response,,,,4,D,,,,,,Space,keypress(Space),,,,silence,,,,----- -- ---- --- -- --- -------- ------------ ---------- --<br>- ------- ------ --------- -- ------------ -- --- ---- -----<br>------ ---- ---- ------ ------ ------- --- ----- ---------<br>---- the -------- -------- --- --- -- ------- --- --- -----<br>-- --- ------ ------- --- --- -------- ---- --------- --<br>---------- -- -------- ----------------,308076.81500000035,308076.14000000106,307765.193,307766.1800000024,307781.523,308081.433,,30,the
screen,html.Screen,1_3_1_0_1_31,2021-04-22T19:51:00.468Z,,,,,,,,,,,,,,,,11,,,,,,,,,,,,,,390.4320000031148,,response,,,,4,D,,,,,,Space,keypress(Space),,,,silence,,,,----- -- ---- --- -- --- -------- ------------ ---------- --<br>- ------- ------ --------- -- ------------ -- --- ---- -----<br>------ ---- ---- ------ ------ ------- --- ----- ---------<br>---- --- island's -------- --- --- -- ------- --- --- -----<br>-- --- ------ ------- --- --- -------- ---- --------- --<br>---------- -- -------- ----------------,308472.560000002,308471.86500000313,308065.151,308077.00000000116,308081.433,308481.768,,31,island's
screen,html.Screen,1_3_1_0_1_32,2021-04-22T19:51:00.997Z,,,,,,,,,,,,,,,,11,,,,,,,,,,,,,,518.427000000549,,response,,,,4,D,,,,,,Space,keypress(Space),,,,silence,,,,----- -- ---- --- -- --- -------- ------------ ---------- --<br>- ------- ------ --------- -- ------------ -- --- ---- -----<br>------ ---- ---- ------ ------ ------- --- ----- ---------<br>---- --- -------- history. --- --- -- ------- --- --- -----<br>-- --- ------ ------- --- --- -------- ---- --------- --<br>---------- -- -------- ----------------,309000.9150000005,309000.19500000053,308464.783,308472.7450000028,308481.768,309015.031,,32,history.
screen,html.Screen,1_3_1_0_1_33,2021-04-22T19:51:01.402Z,,,,,,,,,,,,,,,,11,,,,,,,,,,,,,,390.65899999957765,,response,,,,4,D,,,,,,Space,keypress(Space),,,,silence,,,,----- -- ---- --- -- --- -------- ------------ ---------- --<br>- ------- ------ --------- -- ------------ -- --- ---- -----<br>------ ---- ---- ------ ------ ------- --- ----- ---------<br>---- --- -------- -------- The --- -- ------- --- --- -----<br>-- --- ------ ------- --- --- -------- ---- --------- --<br>---------- -- -------- ----------------,309406.38500000205,309405.6899999996,308997.99,309001.1000000013,309015.031,309414.885,,33,The
screen,html.Screen,1_3_1_0_1_34,2021-04-22T19:51:01.782Z,,,,,,,,,,,,,,,,11,,,,,,,,,,,,,,370.7599999998929,,response,,,,4,D,,,,,,Space,keypress(Space),,,,silence,,,,----- -- ---- --- -- --- -------- ------------ ---------- --<br>- ------- ------ --------- -- ------------ -- --- ---- -----<br>------ ---- ---- ------ ------ ------- --- ----- ---------<br>---- --- -------- -------- --- art -- ------- --- --- -----<br>-- --- ------ ------- --- --- -------- ---- --------- --<br>---------- -- -------- ----------------,309786.37499999965,309785.6449999999,309398.181,309406.6000000021,309414.885,309798.25,,34,art
screen,html.Screen,1_3_1_0_1_35,2021-04-22T19:51:02.118Z,,,,,,,,,,,,,,,,11,,,,,,,,,,,,,,323.3900000011781,,response,,,,4,D,,,,,,Space,keypress(Space),,,,silence,,,,----- -- ---- --- -- --- -------- ------------ ---------- --<br>- ------- ------ --------- -- ------------ -- --- ---- -----<br>------ ---- ---- ------ ------ ------- --- ----- ---------<br>---- --- -------- -------- --- --- of ------- --- --- -----<br>-- --- ------ ------- --- --- -------- ---- --------- --<br>---------- -- -------- ----------------,310122.3000000027,310121.6400000012,309781.334,309786.5700000002,309798.25,310131.552,,35,of
screen,html.Screen,1_3_1_0_1_36,2021-04-22T19:51:02.494Z,,,,,,,,,,,,,,,,11,,,,,,,,,,,,,,365.35800000163727,,response,,,,4,D,,,,,,Space,keypress(Space),,,,silence,,,,----- -- ---- --- -- --- -------- ------------ ---------- --<br>- ------- ------ --------- -- ------------ -- --- ---- -----<br>------ ---- ---- ------ ------ ------- --- ----- ---------<br>---- --- -------- -------- --- --- -- writing --- --- -----<br>-- --- ------ ------- --- --- -------- ---- --------- --<br>---------- -- -------- ----------------,310497.6650000026,310496.91000000166,310114.542,310122.4750000001,310131.552,310514.881,,36,writing
screen,html.Screen,1_3_1_0_1_37,2021-04-22T19:51:02.884Z,,,,,,,,,,,,,,,,11,,,,,,,,,,,,,,373.1340000004857,,response,,,,4,D,,,,,,Space,keypress(Space),,,,silence,,,,----- -- ---- --- -- --- -------- ------------ ---------- --<br>- ------- ------ --------- -- ------------ -- --- ---- -----<br>------ ---- ---- ------ ------ ------- --- ----- ---------<br>---- --- -------- -------- --- --- -- ------- was --- -----<br>-- --- ------ ------- --- --- -------- ---- --------- --<br>---------- -- -------- ----------------,310888.5900000023,310888.0150000005,310497.998,310497.9200000016,310514.881,310898.04,,37,was
screen,html.Screen,1_3_1_0_1_38,2021-04-22T19:51:03.270Z,,,,,,,,,,,,,,,,11,,,,,,,,,,,,,,375.3649999999325,,response,,,,4,D,,,,,,Space,keypress(Space),,,,silence,,,,----- -- ---- --- -- --- -------- ------------ ---------- --<br>- ------- ------ --------- -- ------------ -- --- ---- -----<br>------ ---- ---- ------ ------ ------- --- ----- ---------<br>---- --- -------- -------- --- --- -- ------- --- not -----<br>-- --- ------ ------- --- --- -------- ---- --------- --<br>---------- -- -------- ----------------,311274.1249999999,311273.4049999999,310881.36,310888.7450000002,310898.04,311281.142,,38,not
