sender,sender_type,sender_id,timestamp,meta,,Blues,Classical,Country,Dance,Electronic,Folk,Gospel,Hip-Hop,Jazz,Latin,Musical/Film,New-age,Pop,Provo_ID,R&B,Rap,Reggae,Religious,Rock,Soul,Swing,Traditional,age,artist_name,correct,correctResponse,distraction,duration,education,ended_on,familiarity,gender,headphone_check_performance,item,list,music_frequency,offensiveness,pleasantness,position_correct,preference,response,response_action,snippet_file,song_name,song_rating,sound,stimulus_1,stimulus_2,stimulus_3,text,time_commit,time_end,time_render,time_run,time_show,time_switch,url,word,word_ID
Introduction,html.Screen,0_0,2021-04-19T10:14:46.838Z,"{""labjs_version"":""20.2.2"",""labjs_build"":{""flavor"":""production"",""commit"":""a25486e0c714a0ae2ce03ff94b7bb6896854dcfa""},""location"":""https://run.pavlovia.org/mvasilev/music_e/"",""userAgent"":""Mozilla/5.0 (Windows NT 10.0; Win64; x64) AppleWebKit/537.36 (KHTML, like Gecko) Chrome/89.0.4389.128 Safari/537.36"",""platform"":""Win32"",""language"":""en-GB"",""locale"":""en-GB"",""timeZone"":""Europe/London"",""timezoneOffset"":-60,""screen_width"":1366,""screen_height"":768,""scroll_width"":1366,""scroll_height"":609,""window_innerWidth"":1366,""window_innerHeight"":657,""devicePixelRatio"":1}",,,,,,,,,,,,,,,,,,,,,,,,,,,,,8575.685999991349,,response,,,,,,,,,,,continue,click button,,,,,,,,,17074.234999978216,17070.834999991348,8461.855,8469.119999994291,8495.149,17074.092,{},,
Volume calibration,html.Screen,0_1,2021-04-19T10:14:54.778Z,,,,,,,,,,,,,,,,,,,,,,,,,,,,,,7934.677999985815,,response,,,,,,,,,,,continue,click button,,,,,,,,,25013.7349999859,25008.769999985816,17057.445,17074.5449999813,17074.092,25022.005,,,
Task instructions,html.Screen,0_2,2021-04-19T10:14:56.237Z,,,,,,,,,,,,,,,,,,,,,,,,,,,,,,1450.2599999894192,,response,,,,,,,,,,,continue,click button,,,,,,,,,26473.239999992074,26472.26499998942,25005.358,25013.974999979837,25022.005,26477.87,,,
Sounds,html.Screen,0_3_0_0,2021-04-19T10:15:00.474Z,,,,,,,,,,,,,,,,,,,,,,,,,,,,,,4245.504000000001,,timeout,,,,,,,,,1,,,,,,,,S,O,I,,30710.13999998104,30706.727,26461.223,26473.609999986365,26477.87,30723.374,,,
Judgement,html.Screen,0_3_0_1,2021-04-19T10:15:01.955Z,,,,,,,,,,,,,,,,,,,,,,,,,,,true,1,,1466.0509999895694,,response,,,,,,,,,1,,1,click #choice-1,,,,,S,O,I,,32190.434999996796,32189.42499998957,30706.727,30710.35499998834,30723.374,32200.545,,,
Trial,flow.Sequence,0_3_0,2021-04-19T10:15:01.955Z,,,,,,,,,,,,,,,,,,,,,,,,,,,,,,5711.55499998957,,completion,,,,,,,,,1,,,,,,,,S,O,I,,32190.849999984493,32189.42499998957,26461.223,26473.529999988386,26477.87,32200.545,,,
Sounds,html.Screen,0_3_1_0,2021-04-19T10:15:06.194Z,,,,,,,,,,,,,,,,,,,,,,,,,,,,,,4245.016000000003,,timeout,,,,,,,,,3,,,,,,,,O,I,S,,36429.704999987734,36428.914,32183.898,32191.059999982826,32200.545,36445.561,,,
Judgement,html.Screen,0_3_1_1,2021-04-19T10:15:07.028Z,,,,,,,,,,,,,,,,,,,,,,,,,,,true,3,,817.8439999760449,,response,,,,,,,,,3,,3,click #choice-3,,,,,O,I,S,,37264.314999978524,37263.40499997605,36428.914,36429.87500000163,36445.561,37270.455,,,
Trial,flow.Sequence,0_3_1,2021-04-19T10:15:07.029Z,,,,,,,,,,,,,,,,,,,,,,,,,,,,,,5062.859999976048,,completion,,,,,,,,,3,,,,,,,,O,I,S,,37264.609999983804,37263.40499997605,32183.898,32190.999999991618,32200.545,37270.455,,,
Sounds,html.Screen,0_3_2_0,2021-04-19T10:15:11.264Z,,,,,,,,,,,,,,,,,,,,,,,,,,,,,,4245.101999999999,,timeout,,,,,,,,,1,,,,,,,,S,I,O,,41500.024999986636,41498.91,37253.808,37264.81999998214,37270.455,41515.557,,,
Judgement,html.Screen,0_3_2_1,2021-04-19T10:15:12.413Z,,,,,,,,,,,,,,,,,,,,,,,,,,,true,1,,1132.1280000035476,,response,,,,,,,,,1,,1,click #choice-1,,,,,S,I,O,,42648.71499998844,42647.68500000355,41498.91,41500.18499998259,41515.557,42658.485,,,
Trial,flow.Sequence,0_3_2,2021-04-19T10:15:12.413Z,,,,,,,,,,,,,,,,,,,,,,,,,,,,,,5377.230000003547,,completion,,,,,,,,,1,,,,,,,,S,I,O,,42648.97999999812,42647.68500000355,37253.808,37264.75499998196,37270.455,42658.485,,,
Sounds,html.Screen,0_3_3_0,2021-04-19T10:15:16.655Z,,,,,,,,,,,,,,,,,,,,,,,,,,,,,,4247.652000000002,,timeout,,,,,,,,,2,,,,,,,,I,S,O,,46890.474999992875,46889.49,42641.838,42649.16499998071,42658.485,46906.137,,,
Judgement,html.Screen,0_3_3_1,2021-04-19T10:15:17.527Z,,,,,,,,,,,,,,,,,,,,,,,,,,,true,2,,856.2930000024935,,response,,,,,,,,,2,,2,click #choice-2,,,,,I,S,O,,47763.32499997807,47762.430000002496,46889.49,46890.64499997767,46906.137,47778.649,,,
Trial,flow.Sequence,0_3_3,2021-04-19T10:15:17.528Z,,,,,,,,,,,,,,,,,,,,,,,,,,,,,,5103.945000002495,,completion,,,,,,,,,2,,,,,,,,I,S,O,,47763.57499998994,47762.430000002496,42641.838,42649.099999980535,42658.485,47778.649,,,
Sounds,html.Screen,0_3_4_0,2021-04-19T10:15:21.772Z,,,,,,,,,,,,,,,,,,,,,,,,,,,,,,4245.327000000005,,timeout,,,,,,,,,2,,,,,,,,O,S,I,,52008.05999999284,52007.329,47762.002,47763.74500000384,47778.649,52023.976,,,
Judgement,html.Screen,0_3_4_1,2021-04-19T10:15:22.559Z,,,,,,,,,,,,,,,,,,,,,,,,,,,true,2,,770.4089999865027,,response,,,,,,,,,2,,2,click #choice-2,,,,,O,S,I,,52795.329999993555,52794.384999986505,52007.329,52008.224999997765,52023.976,52798.446,,,
Trial,flow.Sequence,0_3_4,2021-04-19T10:15:22.560Z,,,,,,,,,,,,,,,,,,,,,,,,,,,,,,5015.7359999865075,,completion,,,,,,,,,2,,,,,,,,O,S,I,,52795.579999976326,52794.384999986505,47762.002,47763.68999999249,47778.649,52798.446,,,
Sounds,html.Screen,0_3_5_0,2021-04-19T10:15:26.792Z,,,,,,,,,,,,,,,,,,,,,,,,,,,,,,4245.431999999993,,timeout,,,,,,,,,3,,,,,,,,I,O,S,,57028.25999999186,57027.231,52781.799,52795.76499998802,52798.446,57043.878,,,
Judgement,html.Screen,0_3_5_1,2021-04-19T10:15:27.434Z,,,,,,,,,,,,,,,,,,,,,,,,,,,true,3,,624.6869999999471,,response,,,,,,,,,3,,3,click #choice-3,,,,,I,O,S,,57669.46000000462,57668.564999999944,57027.231,57028.404999990016,57043.878,57684.396,,,
Trial,flow.Sequence,0_3_5,2021-04-19T10:15:27.434Z,,,,,,,,,,,,,,,,,,,,,,,,,,,,,,4870.118999999941,,completion,,,,,,,,,3,,,,,,,,I,O,S,,57669.69999999856,57668.564999999944,52781.799,52795.699999987846,52798.446,57684.396,,,
Task,flow.Loop,0_3,2021-04-19T10:15:27.439Z,,,,,,,,,,,,,,,,,,,,,,,,,,,,,,31190.694999999945,,completion,,,1,,,,,,,,,,,,,,,,,,57675.13499999768,57668.564999999944,26461.223,26473.45999997924,26477.87,57684.396,,,
Trap,html.Screen,0_4,2021-04-19T10:15:27.441Z,,,,,,,,,,,,,,,,,,,,,,,,,,,,,,NaN,,skipped,,,,,,,,,,,,,,,,,,,,,57676.66999998619,57668.564999999944,,57676.485000003595,,57684.396,,,
Thanks,html.Screen,0_5,2021-04-19T10:15:30.470Z,,,,,,,,,,,,,,,,,,,,,,,,,,,,,,3020.9939999882554,,response,,,,,,,,,,,continue,click button,,,,,,,,,60706.239999999525,60705.389999988256,57667.749,57676.834999991115,57684.396,65682.386,,,
Headphone screening,flow.Sequence,0,2021-04-19T10:15:30.471Z,,,,,,,,,,,,,,,,,,,,,,,,,,,,,,52210.24099998826,,completion,,,,,,,,,,,,,,,,,,,,,60706.47000000463,60705.389999988256,8461.855,8469.064999982947,8495.149,65682.386,,,
Instructions,html.Page,1_0,2021-04-19T10:16:00.902Z,,,,,,,,,,,,,,,,,,,,,,,,,,,,,,25455.11399998254,,form submission,,,,,,,,,,,,,,,,,,,,,91137.90000000154,91137.49999998254,65649.092,65670.7999999926,65682.386,91147.332,,,
Holding screen,html.Screen,1_1_0_0,2021-04-19T10:16:10.894Z,,,,,,,,,,,,,,,,,,,,,,,,,,,,,,10065.444000000003,,timeout,,,,,,,,,,,,,,,,,,,,,101130.34999999218,101129.541,91130.685,91138.16999999108,91147.332,101212.776,,,
screen,html.Screen,1_1_0_1_0,2021-04-19T10:16:12.797Z,,,,,,,,,,,,,,,,53,,,,,,,,,,,,,,1817.68899998891,,response,,,,99,,,,,,,Space,keypress(Space),,,,,,,,When -- ----- -- ------ - ------- --- ----------<br>------------- ------ ------ ---- ---- ------- ----- -- ----<br>-------- ------- -- ---------- --- - --- ----- ----- ----<br>---- --- --- ----- --- ---- ---- ------- ----- ---- -------<br>--- --- -- ----- -- --- ---- -- --- ---- -- ------ ------<br>--- ----- -- ----,103032.98999997787,103030.46499998891,101129.541,101130.58499997715,101212.776,103037.955,,0,When
screen,html.Screen,1_1_0_1_1,2021-04-19T10:16:14.676Z,,,,,,,,,,,,,,,,53,,,,,,,,,,,,,,1873.6249999854044,,response,,,,99,,,,,,,Space,keypress(Space),,,,,,,,---- it ----- -- ------ - ------- --- ----------<br>------------- ------ ------ ---- ---- ------- ----- -- ----<br>-------- ------- -- ---------- --- - --- ----- ----- ----<br>---- --- --- ----- --- ---- ---- ------- ----- ---- -------<br>--- --- -- ----- -- --- ---- -- --- ---- -- ------ ------<br>--- ----- -- ----,104912.18499999377,104911.5799999854,103021.308,103033.1699999806,103037.955,104925.991,,1,it
screen,html.Screen,1_1_0_1_2,2021-04-19T10:16:15.880Z,,,,,,,,,,,,,,,,53,,,,,,,,,,,,,,1188.77399997662,,response,,,,99,,,,,,,Space,keypress(Space),,,,,,,,---- -- comes -- ------ - ------- --- ----------<br>------------- ------ ------ ---- ---- ------- ----- -- ----<br>-------- ------- -- ---------- --- - --- ----- ----- ----<br>---- --- --- ----- --- ---- ---- ------- ----- ---- -------<br>--- --- -- ----- -- --- ---- -- --- ---- -- ------ ------<br>--- ----- -- ----,106115.44500000309,106114.76499997661,104909.344,104912.33999998076,104925.991,106119.861,,2,comes
screen,html.Screen,1_1_0_1_3,2021-04-19T10:16:16.666Z,,,,,,,,,,,,,,,,53,,,,,,,,,,,,,,781.3940000043076,,response,,,,99,,,,,,,Space,keypress(Space),,,,,,,,---- -- ----- to ------ - ------- --- ----------<br>------------- ------ ------ ---- ---- ------- ----- -- ----<br>-------- ------- -- ---------- --- - --- ----- ----- ----<br>---- --- --- ----- --- ---- ---- ------- ----- ---- -------<br>--- --- -- ----- -- --- ---- -- --- ---- -- ------ ------<br>--- ----- -- ----,106901.89499998814,106901.25500000431,106103.214,106115.61499998788,106119.861,106918.996,,3,to
screen,html.Screen,1_1_0_1_4,2021-04-19T10:16:17.476Z,,,,,,,,,,,,,,,,53,,,,,,,,,,,,,,792.5990000006714,,response,,,,99,,,,,,,Space,keypress(Space),,,,,,,,---- -- ----- -- having - ------- --- ----------<br>------------- ------ ------ ---- ---- ------- ----- -- ----<br>-------- ------- -- ---------- --- - --- ----- ----- ----<br>---- --- --- ----- --- ---- ---- ------- ----- ---- -------<br>--- --- -- ----- -- --- ---- -- --- ---- -- ------ ------<br>--- ----- -- ----,107712.27999997791,107711.59500000067,106902.349,106903.01999999792,106918.996,107724.394,,4,having
screen,html.Screen,1_1_0_1_5,2021-04-19T10:16:17.992Z,,,,,,,,,,,,,,,,53,,,,,,,,,,,,,,502.65099997780635,,response,,,,99,,,,,,,Space,keypress(Space),,,,,,,,---- -- ----- -- ------ a ------- --- ----------<br>------------- ------ ------ ---- ---- ------- ----- -- ----<br>-------- ------- -- ---------- --- - --- ----- ----- ----<br>---- --- --- ----- --- ---- ---- ------- ----- ---- -------<br>--- --- -- ----- -- --- ---- -- --- ---- -- ------ ------<br>--- ----- -- ----,108227.74999999092,108227.0449999778,107707.747,107712.434999994,107724.394,108244.317,,5,a
screen,html.Screen,1_1_0_1_6,2021-04-19T10:16:19.355Z,,,,,,,,,,,,,,,,53,,,,,,,,,,,,,,1346.3229999803443,,response,,,,99,,,,,,,Space,keypress(Space),,,,,,,,---- -- ----- -- ------ - lasting --- ----------<br>------------- ------ ------ ---- ---- ------- ----- -- ----<br>-------- ------- -- ---------- --- - --- ----- ----- ----<br>---- --- --- ----- --- ---- ---- ------- ----- ---- -------<br>--- --- -- ----- -- --- ---- -- --- ---- -- ------ ------<br>--- ----- -- ----,109591.32499998668,109590.63999998034,108227.67,108227.95000000042,108244.317,109599.361,,6,lasting
screen,html.Screen,1_1_0_1_7,2021-04-19T10:16:20.087Z,,,,,,,,,,,,,,,,53,,,,,,,,,,,,,,723.2039999803819,,response,,,,99,,,,,,,Space,keypress(Space),,,,,,,,---- -- ----- -- ------ - ------- and ----------<br>------------- ------ ------ ---- ---- ------- ----- -- ----<br>-------- ------- -- ---------- --- - --- ----- ----- ----<br>---- --- --- ----- --- ---- ---- ------- ----- ---- -------<br>--- --- -- ----- -- --- ---- -- --- ---- -- ------ ------<br>--- ----- -- ----,110323.27500000247,110322.56499998039,109582.714,109591.48000000278,109599.361,110331.965,,7,and
screen,html.Screen,1_1_0_1_8,2021-04-19T10:16:20.687Z,,,,,,,,,,,,,,,,53,,,,,,,,,,,,,,590.2350000008882,,response,,,,99,,,,,,,Space,keypress(Space),,,,,,,,---- -- ----- -- ------ - ------- --- fulfilling<br>------------- ------ ------ ---- ---- ------- ----- -- ----<br>-------- ------- -- ---------- --- - --- ----- ----- ----<br>---- --- --- ----- --- ---- ---- ------- ----- ---- -------<br>--- --- -- ----- -- --- ---- -- --- ---- -- ------ ------<br>--- ----- -- ----,110922.86999998032,110922.20000000088,110315.318,110323.470000003,110331.965,110938.281,,8,fulfilling
screen,html.Screen,1_1_0_1_9,2021-04-19T10:16:21.361Z,,,,,,,,,,,,,,,,53,,,,,,,,,,,,,,657.4739999875455,,response,,,,99,,,,,,,Space,keypress(Space),,,,,,,,"---- -- ----- -- ------ - ------- --- ----------<br>relationship, ------ ------ ---- ---- ------- ----- -- ----<br>-------- ------- -- ---------- --- - --- ----- ----- ----<br>---- --- --- ----- --- ---- ---- ------- ----- ---- -------<br>--- --- -- ----- -- --- ---- -- --- ---- -- ------ ------<br>--- ----- -- ----",111596.50499999407,111595.75499998755,110921.634,110923.02499999641,110938.281,111607.926,,9,"relationship,"
screen,html.Screen,1_1_0_1_10,2021-04-19T10:16:21.981Z,,,,,,,,,,,,,,,,53,,,,,,,,,,,,,,608.1239999881655,,response,,,,99,,,,,,,Space,keypress(Space),,,,,,,,---- -- ----- -- ------ - ------- --- ----------<br>------------- common ------ ---- ---- ------- ----- -- ----<br>-------- ------- -- ---------- --- - --- ----- ----- ----<br>---- --- --- ----- --- ---- ---- ------- ----- ---- -------<br>--- --- -- ----- -- --- ---- -- --- ---- -- ------ ------<br>--- ----- -- ----,112216.71999999671,112216.04999998817,111591.279,111596.7299999902,111607.926,112226.965,,10,common
screen,html.Screen,1_1_0_1_11,2021-04-19T10:16:22.835Z,,,,,,,,,,,,,,,,53,,,,,,,,,,,,,,843.5350000016333,,response,,,,99,,,,,,,Space,keypress(Space),,,,,,,,---- -- ----- -- ------ - ------- --- ----------<br>------------- ------ wisdom ---- ---- ------- ----- -- ----<br>-------- ------- -- ---------- --- - --- ----- ----- ----<br>---- --- --- ----- --- ---- ---- ------- ----- ---- -------<br>--- --- -- ----- -- --- ---- -- --- ---- -- ------ ------<br>--- ----- -- ----,113071.15499998326,113070.50000000163,112210.318,112216.93999998388,112226.965,113079.344,,11,wisdom
screen,html.Screen,1_1_0_1_12,2021-04-19T10:16:23.522Z,,,,,,,,,,,,,,,,53,,,,,,,,,,,,,,677.7059999856137,,response,,,,99,,,,,,,Space,keypress(Space),,,,,,,,---- -- ----- -- ------ - ------- --- ----------<br>------------- ------ ------ says ---- ------- ----- -- ----<br>-------- ------- -- ---------- --- - --- ----- ----- ----<br>---- --- --- ----- --- ---- ---- ------- ----- ---- -------<br>--- --- -- ----- -- --- ---- -- --- ---- -- ------ ------<br>--- ----- -- ----,113757.70499999635,113757.04999998561,113062.697,113071.31499997922,113079.344,113765.077,,12,says
screen,html.Screen,1_1_0_1_13,2021-04-19T10:16:23.962Z,,,,,,,,,,,,,,,,53,,,,,,,,,,,,,,432.4929999893502,,response,,,,99,,,,,,,Space,keypress(Space),,,,,,,,---- -- ----- -- ------ - ------- --- ----------<br>------------- ------ ------ ---- that ------- ----- -- ----<br>-------- ------- -- ---------- --- - --- ----- ----- ----<br>---- --- --- ----- --- ---- ---- ------- ----- ---- -------<br>--- --- -- ----- -- --- ---- -- --- ---- -- ------ ------<br>--- ----- -- ----,114198.23499998893,114197.56999998935,113748.43,113757.87499998114,113765.077,114202.281,,13,that
screen,html.Screen,1_1_0_1_14,2021-04-19T10:16:24.367Z,,,,,,,,,,,,,,,,53,,,,,,,,,,,,,,399.9139999849285,,response,,,,99,,,,,,,Space,keypress(Space),,,,,,,,---- -- ----- -- ------ - ------- --- ----------<br>------------- ------ ------ ---- ---- feeling ----- -- ----<br>-------- ------- -- ---------- --- - --- ----- ----- ----<br>---- --- --- ----- --- ---- ---- ------- ----- ---- -------<br>--- --- -- ----- -- --- ---- -- --- ---- -- ------ ------<br>--- ----- -- ----,114602.86499999347,114602.19499998493,114185.634,114198.39000000502,114202.281,114605.307,,14,feeling
screen,html.Screen,1_1_0_1_15,2021-04-19T10:16:24.843Z,,,,,,,,,,,,,,,,53,,,,,,,,,,,,,,472.8229999798641,,response,,,,99,,,,,,,Space,keypress(Space),,,,,,,,---- -- ----- -- ------ - ------- --- ----------<br>------------- ------ ------ ---- ---- ------- close -- ----<br>-------- ------- -- ---------- --- - --- ----- ----- ----<br>---- --- --- ----- --- ---- ---- ------- ----- ---- -------<br>--- --- -- ----- -- --- ---- -- --- ---- -- ------ ------<br>--- ----- -- ----,115078.77999998163,115078.12999997986,114588.66,114603.0150000006,114605.307,115092.272,,15,close
screen,html.Screen,1_1_0_1_16,2021-04-19T10:16:25.173Z,,,,,,,,,,,,,,,,53,,,,,,,,,,,,,,315.9079999985406,,response,,,,99,,,,,,,Space,keypress(Space),,,,,,,,---- -- ----- -- ------ - ------- --- ----------<br>------------- ------ ------ ---- ---- ------- ----- to ----<br>-------- ------- -- ---------- --- - --- ----- ----- ----<br>---- --- --- ----- --- ---- ---- ------- ----- ---- -------<br>--- --- -- ----- -- --- ---- -- --- ---- -- ------ ------<br>--- ----- -- ----,115408.88499998255,115408.17999999854,115075.625,115079.00499997777,115092.272,115425.267,,16,to
screen,html.Screen,1_1_0_1_17,2021-04-19T10:16:25.584Z,,,,,,,,,,,,,,,,53,,,,,,,,,,,,,,393.70299999298004,,response,,,,99,,,,,,,Space,keypress(Space),,,,,,,,---- -- ----- -- ------ - ------- --- ----------<br>------------- ------ ------ ---- ---- ------- ----- -- your<br>-------- ------- -- ---------- --- - --- ----- ----- ----<br>---- --- --- ----- --- ---- ---- ------- ----- ---- -------<br>--- --- -- ----- -- --- ---- -- --- ---- -- ------ ------<br>--- ----- -- ----,115819.68499999493,115818.96999999299,115408.62,115409.09999998985,115425.267,115827.303,,17,your
screen,html.Screen,1_1_0_1_18,2021-04-19T10:16:26.189Z,,,,,,,,,,,,,,,,53,,,,,,,,,,,,,,596.7369999835064,,response,,,,99,,,,,,,Space,keypress(Space),,,,,,,,---- -- ----- -- ------ - ------- --- ----------<br>------------- ------ ------ ---- ---- ------- ----- -- ----<br>romantic ------- -- ---------- --- - --- ----- ----- ----<br>---- --- --- ----- --- ---- ---- ------- ----- ---- -------<br>--- --- -- ----- -- --- ---- -- --- ---- -- ------ ------<br>--- ----- -- ----,116424.69499999424,116424.0399999835,115810.656,115819.9049999821,115827.303,116428.323,,18,romantic
screen,html.Screen,1_1_0_1_19,2021-04-19T10:16:26.625Z,,,,,,,,,,,,,,,,53,,,,,,,,,,,,,,432.3020000011602,,response,,,,99,,,,,,,Space,keypress(Space),,,,,,,,---- -- ----- -- ------ - ------- --- ----------<br>------------- ------ ------ ---- ---- ------- ----- -- ----<br>-------- partner -- ---------- --- - --- ----- ----- ----<br>---- --- --- ----- --- ---- ---- ------- ----- ---- -------<br>--- --- -- ----- -- --- ---- -- --- ---- -- ------ ------<br>--- ----- -- ----,116861.27500000293,116860.62500000116,116411.676,116424.86499997904,116428.323,116863.122,,19,partner
screen,html.Screen,1_1_0_1_20,2021-04-19T10:16:27.014Z,,,,,,,,,,,,,,,,53,,,,,,,,,,,,,,386.4279999786231,,response,,,,99,,,,,,,Space,keypress(Space),,,,,,,,---- -- ----- -- ------ - ------- --- ----------<br>------------- ------ ------ ---- ---- ------- ----- -- ----<br>-------- ------- is ---------- --- - --- ----- ----- ----<br>---- --- --- ----- --- ---- ---- ------- ----- ---- -------<br>--- --- -- ----- -- --- ---- -- --- ---- -- ------ ------<br>--- ----- -- ----,117250.1999999804,117249.54999997863,116846.475,116861.42999998992,116863.122,117265.832,,20,is
screen,html.Screen,1_1_0_1_21,2021-04-19T10:16:27.417Z,,,,,,,,,,,,,,,,53,,,,,,,,,,,,,,386.5679999917629,,response,,,,99,,,,,,,Space,keypress(Space),,,,,,,,---- -- ----- -- ------ - ------- --- ----------<br>------------- ------ ------ ---- ---- ------- ----- -- ----<br>-------- ------- -- paramount. --- - --- ----- ----- ----<br>---- --- --- ----- --- ---- ---- ------- ----- ---- -------<br>--- --- -- ----- -- --- ---- -- --- ---- -- ------ ------<br>--- ----- -- ----,117653.0550000025,117652.39999999176,117249.185,117250.34999998752,117265.832,117667.577,,21,paramount.
screen,html.Screen,1_1_0_1_22,2021-04-19T10:16:27.861Z,,,,,,,,,,,,,,,,53,,,,,,,,,,,,,,428.4679999838554,,response,,,,99,,,,,,,Space,keypress(Space),,,,,,,,---- -- ----- -- ------ - ------- --- ----------<br>------------- ------ ------ ---- ---- ------- ----- -- ----<br>-------- ------- -- ---------- But - --- ----- ----- ----<br>---- --- --- ----- --- ---- ---- ------- ----- ---- -------<br>--- --- -- ----- -- --- ---- -- --- ---- -- ------ ------<br>--- ----- -- ----,118096.72499998123,118096.04499998386,117650.93,117653.22999999626,117667.577,118102.424,,22,But
screen,html.Screen,1_1_0_1_23,2021-04-19T10:16:28.187Z,,,,,,,,,,,,,,,,53,,,,,,,,,,,,,,319.54599999578204,,response,,,,99,,,,,,,Space,keypress(Space),,,,,,,,---- -- ----- -- ------ - ------- --- ----------<br>------------- ------ ------ ---- ---- ------- ----- -- ----<br>-------- ------- -- ---------- --- a --- ----- ----- ----<br>---- --- --- ----- --- ---- ---- ------- ----- ---- -------<br>--- --- -- ----- -- --- ---- -- --- ---- -- ------ ------<br>--- ----- -- ----,118422.59999999078,118421.96999999578,118085.777,118096.87499998836,118102.424,118438.414,,23,a
screen,html.Screen,1_1_0_1_24,2021-04-19T10:16:28.553Z,,,,,,,,,,,,,,,,53,,,,,,,,,,,,,,349.4309999843681,,response,,,,99,,,,,,,Space,keypress(Space),,,,,,,,---- -- ----- -- ------ - ------- --- ----------<br>------------- ------ ------ ---- ---- ------- ----- -- ----<br>-------- ------- -- ---------- --- - new ----- ----- ----<br>---- --- --- ----- --- ---- ---- ------- ----- ---- -------<br>--- --- -- ----- -- --- ---- -- --- ---- -- ------ ------<br>--- ----- -- ----,118788.49999999511,118787.84499998437,118421.767,118422.75499997777,118438.414,118789.258,,24,new
screen,html.Screen,1_1_0_1_25,2021-04-19T10:16:28.948Z,,,,,,,,,,,,,,,,53,,,,,,,,,,,,,,393.80199998119497,,response,,,,99,,,,,,,Space,keypress(Space),,,,,,,,---- -- ----- -- ------ - ------- --- ----------<br>------------- ------ ------ ---- ---- ------- ----- -- ----<br>-------- ------- -- ---------- --- - --- study ----- ----<br>---- --- --- ----- --- ---- ---- ------- ----- ---- -------<br>--- --- -- ----- -- --- ---- -- --- ---- -- ------ ------<br>--- ----- -- ----,119183.77499998314,119183.0599999812,118772.611,118788.67999999784,118789.258,119190.532,,25,study
screen,html.Screen,1_1_0_1_26,2021-04-19T10:16:29.327Z,,,,,,,,,,,,,,,,53,,,,,,,,,,,,,,371.2129999845056,,response,,,,99,,,,,,,Space,keypress(Space),,,,,,,,---- -- ----- -- ------ - ------- --- ----------<br>------------- ------ ------ ---- ---- ------- ----- -- ----<br>-------- ------- -- ---------- --- - --- ----- finds ----<br>---- --- --- ----- --- ---- ---- ------- ----- ---- -------<br>--- --- -- ----- -- --- ---- -- --- ---- -- ------ ------<br>--- ----- -- ----,119562.39499998628,119561.74499998451,119173.885,119183.99499999941,119190.532,119575.612,,26,finds
screen,html.Screen,1_1_0_1_27,2021-04-19T10:16:29.704Z,,,,,,,,,,,,,,,,53,,,,,,,,,,,,,,363.01799998965,,response,,,,99,,,,,,,Space,keypress(Space),,,,,,,,---- -- ----- -- ------ - ------- --- ----------<br>------------- ------ ------ ---- ---- ------- ----- -- ----<br>-------- ------- -- ---------- --- - --- ----- ----- that<br>---- --- --- ----- --- ---- ---- ------- ----- ---- -------<br>--- --- -- ----- -- --- ---- -- --- ---- -- ------ ------<br>--- ----- -- ----,119939.35000000056,119938.62999998964,119558.965,119562.5449999934,119575.612,119943.489,,27,that
screen,html.Screen,1_1_0_1_28,2021-04-19T10:16:30.326Z,,,,,,,,,,,,,,,,53,,,,,,,,,,,,,,617.4560000047204,,response,,,,99,,,,,,,Space,keypress(Space),,,,,,,,---- -- ----- -- ------ - ------- --- ----------<br>------------- ------ ------ ---- ---- ------- ----- -- ----<br>-------- ------- -- ---------- --- - --- ----- ----- ----<br>it's --- --- ----- --- ---- ---- ------- ----- ---- -------<br>--- --- -- ----- -- --- ---- -- --- ---- -- ------ ------<br>--- ----- -- ----,120561.6100000043,120560.94500000472,119926.842,119939.56999998773,119943.489,120578.021,,28,it's
screen,html.Screen,1_1_0_1_29,2021-04-19T10:16:30.725Z,,,,,,,,,,,,,,,,53,,,,,,,,,,,,,,382.3789999817527,,response,,,,99,,,,,,,Space,keypress(Space),,,,,,,,---- -- ----- -- ------ - ------- --- ----------<br>------------- ------ ------ ---- ---- ------- ----- -- ----<br>-------- ------- -- ---------- --- - --- ----- ----- ----<br>---- not --- ----- --- ---- ---- ------- ----- ---- -------<br>--- --- -- ----- -- --- ---- -- --- ---- -- ------ ------<br>--- ----- -- ----,120961.06000000145,120960.39999998175,120561.374,120561.76499999128,120578.021,120962.714,,29,not
screen,html.Screen,1_1_0_1_30,2021-04-19T10:16:31.104Z,,,,,,,,,,,,,,,,53,,,,,,,,,,,,,,376.6560000015015,,response,,,,99,,,,,,,Space,keypress(Space),,,,,,,,---- -- ----- -- ------ - ------- --- ----------<br>------------- ------ ------ ---- ---- ------- ----- -- ----<br>-------- ------- -- ---------- --- - --- ----- ----- ----<br>---- --- how ----- --- ---- ---- ------- ----- ---- -------<br>--- --- -- ----- -- --- ---- -- --- ---- -- ------ ------<br>--- ----- -- ----,121340.07999999449,121339.37000000151,120946.067,120961.25500000198,120962.714,121350.774,,30,how
screen,html.Screen,1_1_0_1_31,2021-04-19T10:16:31.534Z,,,,,,,,,,,,,,,,53,,,,,,,,,,,,,,418.34599998264457,,response,,,,99,,,,,,,Space,keypress(Space),,,,,,,,---- -- ----- -- ------ - ------- --- ----------<br>------------- ------ ------ ---- ---- ------- ----- -- ----<br>-------- ------- -- ---------- --- - --- ----- ----- ----<br>---- --- --- close --- ---- ---- ------- ----- ---- -------<br>--- --- -- ----- -- --- ---- -- --- ---- -- ------ ------<br>--- ----- -- ----,121769.83000000473,121769.11999998265,121334.127,121341.46500000497,121350.774,121783.718,,31,close
screen,html.Screen,1_1_0_1_32,2021-04-19T10:16:31.884Z,,,,,,,,,,,,,,,,53,,,,,,,,,,,,,,335.1170000011334,,response,,,,99,,,,,,,Space,keypress(Space),,,,,,,,---- -- ----- -- ------ - ------- --- ----------<br>------------- ------ ------ ---- ---- ------- ----- -- ----<br>-------- ------- -- ---------- --- - --- ----- ----- ----<br>---- --- --- ----- you ---- ---- ------- ----- ---- -------<br>--- --- -- ----- -- --- ---- -- --- ---- -- ------ ------<br>--- ----- -- ----,122119.5149999985,122118.83500000113,121767.071,121770.0349999941,121783.718,122135.296,,32,you
screen,html.Screen,1_1_0_1_33,2021-04-19T10:16:32.228Z,,,,,,,,,,,,,,,,53,,,,,,,,,,,,,,328.1439999922586,,response,,,,99,,,,,,,Space,keypress(Space),,,,,,,,---- -- ----- -- ------ - ------- --- ----------<br>------------- ------ ------ ---- ---- ------- ----- -- ----<br>-------- ------- -- ---------- --- - --- ----- ----- ----<br>---- --- --- ----- --- feel ---- ------- ----- ---- -------<br>--- --- -- ----- -- --- ---- -- --- ---- -- ------ ------<br>--- ----- -- ----,122464.0799999761,122463.43999999226,122118.649,122119.72499999683,122135.296,122470.451,,33,feel
screen,html.Screen,1_1_0_1_34,2021-04-19T10:16:32.547Z,,,,,,,,,,,,,,,,53,,,,,,,,,,,,,,311.6639999799663,,response,,,,99,,,,,,,Space,keypress(Space),,,,,,,,---- -- ----- -- ------ - ------- --- ----------<br>------------- ------ ------ ---- ---- ------- ----- -- ----<br>-------- ------- -- ---------- --- - --- ----- ----- ----<br>---- --- --- ----- --- ---- that ------- ----- ---- -------<br>--- --- -- ----- -- --- ---- -- --- ---- -- ------ ------<br>--- ----- -- ----,122782.7549999929,122782.11499997997,122453.804,122464.24499998102,122470.451,122790.143,,34,that
screen,html.Screen,1_1_0_1_35,2021-04-19T10:16:32.910Z,,,,,,,,,,,,,,,,53,,,,,,,,,,,,,,354.6719999778288,,response,,,,99,,,,,,,Space,keypress(Space),,,,,,,,---- -- ----- -- ------ - ------- --- ----------<br>------------- ------ ------ ---- ---- ------- ----- -- ----<br>-------- ------- -- ---------- --- - --- ----- ----- ----<br>---- --- --- ----- --- ---- ---- matters ----- ---- -------<br>--- --- -- ----- -- --- ---- -- --- ---- -- ------ ------<br>--- ----- -- ----,123145.52999997977,123144.81499997783,122773.496,122782.91499998886,122790.143,123156.506,,35,matters
screen,html.Screen,1_1_0_1_36,2021-04-19T10:16:33.261Z,,,,,,,,,,,,,,,,53,,,,,,,,,,,,,,339.16400000388967,,response,,,,99,,,,,,,Space,keypress(Space),,,,,,,,"---- -- ----- -- ------ - ------- --- ----------<br>------------- ------ ------ ---- ---- ------- ----- -- ----<br>-------- ------- -- ---------- --- - --- ----- ----- ----<br>---- --- --- ----- --- ---- ---- ------- most, ---- -------<br>--- --- -- ----- -- --- ---- -- --- ---- -- ------ ------<br>--- ----- -- ----",123496.38499997673,123495.67000000388,123139.859,123145.72999998927,123156.506,123507.705,,36,"most,"
screen,html.Screen,1_1_0_1_37,2021-04-19T10:16:33.603Z,,,,,,,,,,,,,,,,53,,,,,,,,,,,,,,330.65499999427993,,response,,,,99,,,,,,,Space,keypress(Space),,,,,,,,---- -- ----- -- ------ - ------- --- ----------<br>------------- ------ ------ ---- ---- ------- ----- -- ----<br>-------- ------- -- ---------- --- - --- ----- ----- ----<br>---- --- --- ----- --- ---- ---- ------- ----- it's -------<br>--- --- -- ----- -- --- ---- -- --- ---- -- ------ ------<br>--- ----- -- ----,123839.03499998269,123838.35999999428,123491.058,123496.53000000399,123507.705,123842.531,,37,it's
screen,html.Screen,1_1_0_1_38,2021-04-19T10:16:33.946Z,,,,,,,,,,,,,,,,53,,,,,,,,,,,,,,338.29399998854205,,response,,,,99,,,,,,,Space,keypress(Space),,,,,,,,---- -- ----- -- ------ - ------- --- ----------<br>------------- ------ ------ ---- ---- ------- ----- -- ----<br>-------- ------- -- ---------- --- - --- ----- ----- ----<br>---- --- --- ----- --- ---- ---- ------- ----- ---- whether<br>--- --- -- ----- -- --- ---- -- --- ---- -- ------ ------<br>--- ----- -- ----,124181.49999997695,124180.82499998854,123825.884,123839.18499998981,123842.531,124195.508,,38,whether
screen,html.Screen,1_1_0_1_39,2021-04-19T10:16:34.292Z,,,,,,,,,,,,,,,,53,,,,,,,,,,,,,,331.21700000335113,,response,,,,99,,,,,,,Space,keypress(Space),,,,,,,,---- -- ----- -- ------ - ------- --- ----------<br>------------- ------ ------ ---- ---- ------- ----- -- ----<br>-------- ------- -- ---------- --- - --- ----- ----- ----<br>---- --- --- ----- --- ---- ---- ------- ----- ---- -------<br>you --- -- ----- -- --- ---- -- --- ---- -- ------ ------<br>--- ----- -- ----,124527.35499999835,124526.72500000335,124178.861,124181.64999998407,124195.508,124528.577,,39,you
screen,html.Screen,1_1_0_1_40,2021-04-19T10:16:34.580Z,,,,,,,,,,,,,,,,53,,,,,,,,,,,,,,286.8479999788542,,response,,,,99,,,,,,,Space,keypress(Space),,,,,,,,---- -- ----- -- ------ - ------- --- ----------<br>------------- ------ ------ ---- ---- ------- ----- -- ----<br>-------- ------- -- ---------- --- - --- ----- ----- ----<br>---- --- --- ----- --- ---- ---- ------- ----- ---- -------<br>--- are -- ----- -- --- ---- -- --- ---- -- ------ ------<br>--- ----- -- ----,124816.0649999918,124815.42499997886,124511.93,124527.50999998534,124528.577,124830.029,,40,are
screen,html.Screen,1_1_0_1_41,2021-04-19T10:16:34.884Z,,,,,,,,,,,,,,,,53,,,,,,,,,,,,,,289.1009999773087,,response,,,,99,,,,,,,Space,keypress(Space),,,,,,,,---- -- ----- -- ------ - ------- --- ----------<br>------------- ------ ------ ---- ---- ------- ----- -- ----<br>-------- ------- -- ---------- --- - --- ----- ----- ----<br>---- --- --- ----- --- ---- ---- ------- ----- ---- -------<br>--- --- as ----- -- --- ---- -- --- ---- -- ------ ------<br>--- ----- -- ----,125119.77499999921,125119.1299999773,124813.382,124816.2799999991,124830.029,125131.466,,41,as
screen,html.Screen,1_1_0_1_42,2021-04-19T10:16:35.203Z,,,,,,,,,,,,,,,,53,,,,,,,,,,,,,,306.94400000247697,,response,,,,99,,,,,,,Space,keypress(Space),,,,,,,,---- -- ----- -- ------ - ------- --- ----------<br>------------- ------ ------ ---- ---- ------- ----- -- ----<br>-------- ------- -- ---------- --- - --- ----- ----- ----<br>---- --- --- ----- --- ---- ---- ------- ----- ---- -------<br>--- --- -- close -- --- ---- -- --- ---- -- ------ ------<br>--- ----- -- ----,125439.13499999326,125438.41000000248,125114.819,125119.92499997723,125131.466,125449.182,,42,close
screen,html.Screen,1_1_0_1_43,2021-04-19T10:16:35.511Z,,,,,,,,,,,,,,,,53,,,,,,,,,,,,,,297.0429999807675,,response,,,,99,,,,,,,Space,keypress(Space),,,,,,,,---- -- ----- -- ------ - ------- --- ----------<br>------------- ------ ------ ---- ---- ------- ----- -- ----<br>-------- ------- -- ---------- --- - --- ----- ----- ----<br>---- --- --- ----- --- ---- ---- ------- ----- ---- -------<br>--- --- -- ----- as --- ---- -- --- ---- -- ------ ------<br>--- ----- -- ----,125746.95499998052,125746.22499998077,125432.535,125440.8499999845,125449.182,125750.415,,43,as
screen,html.Screen,1_1_0_1_44,2021-04-19T10:16:35.840Z,,,,,,,,,,,,,,,,53,,,,,,,,,,,,,,324.3749999842112,,response,,,,99,,,,,,,Space,keypress(Space),,,,,,,,---- -- ----- -- ------ - ------- --- ----------<br>------------- ------ ------ ---- ---- ------- ----- -- ----<br>-------- ------- -- ---------- --- - --- ----- ----- ----<br>---- --- --- ----- --- ---- ---- ------- ----- ---- -------<br>--- --- -- ----- -- you ---- -- --- ---- -- ------ ------<br>--- ----- -- ----,126075.3899999836,126074.7899999842,125733.768,125747.14999998105,125750.415,126086.392,,44,you
screen,html.Screen,1_1_0_1_45,2021-04-19T10:16:36.140Z,,,,,,,,,,,,,,,,53,,,,,,,,,,,,,,288.4630000018369,,response,,,,99,,,,,,,Space,keypress(Space),,,,,,,,---- -- ----- -- ------ - ------- --- ----------<br>------------- ------ ------ ---- ---- ------- ----- -- ----<br>-------- ------- -- ---------- --- - --- ----- ----- ----<br>---- --- --- ----- --- ---- ---- ------- ----- ---- -------<br>--- --- -- ----- -- --- want -- --- ---- -- ------ ------<br>--- ----- -- ----,126375.58500000159,126374.85500000184,126069.745,126075.53499998176,126086.392,126386.151,,45,want
screen,html.Screen,1_1_0_1_46,2021-04-19T10:16:36.463Z,,,,,,,,,,,,,,,,53,,,,,,,,,,,,,,311.9439999997412,,response,,,,99,,,,,,,Space,keypress(Space),,,,,,,,---- -- ----- -- ------ - ------- --- ----------<br>------------- ------ ------ ---- ---- ------- ----- -- ----<br>-------- ------- -- ---------- --- - --- ----- ----- ----<br>---- --- --- ----- --- ---- ---- ------- ----- ---- -------<br>--- --- -- ----- -- --- ---- to --- ---- -- ------ ------<br>--- ----- -- ----,126698.81000000169,126698.09499999974,126369.504,126375.77499999315,126386.151,126704.174,,46,to
screen,html.Screen,1_1_0_1_47,2021-04-19T10:16:36.762Z,,,,,,,,,,,,,,,,53,,,,,,,,,,,,,,292.86599998746533,,response,,,,99,,,,,,,Space,keypress(Space),,,,,,,,"---- -- ----- -- ------ - ------- --- ----------<br>------------- ------ ------ ---- ---- ------- ----- -- ----<br>-------- ------- -- ---------- --- - --- ----- ----- ----<br>---- --- --- ----- --- ---- ---- ------- ----- ---- -------<br>--- --- -- ----- -- --- ---- -- be, ---- -- ------ ------<br>--- ----- -- ----",126997.68999998923,126997.03999998746,126687.527,126699.05500000459,126704.174,127005.355,,47,"be,"
screen,html.Screen,1_1_0_1_48,2021-04-19T10:16:37.080Z,,,,,,,,,,,,,,,,53,,,,,,,,,,,,,,309.56500000435335,,response,,,,99,,,,,,,Space,keypress(Space),,,,,,,,---- -- ----- -- ------ - ------- --- ----------<br>------------- ------ ------ ---- ---- ------- ----- -- ----<br>-------- ------- -- ---------- --- - --- ----- ----- ----<br>---- --- --- ----- --- ---- ---- ------- ----- ---- -------<br>--- --- -- ----- -- --- ---- -- --- even -- ------ ------<br>--- ----- -- ----,127315.61499999953,127314.92000000435,126988.708,126997.82999997842,127005.355,127323.296,,48,even
screen,html.Screen,1_1_0_1_49,2021-04-19T10:16:37.384Z,,,,,,,,,,,,,,,,53,,,,,,,,,,,,,,295.7789999950619,,response,,,,99,,,,,,,Space,keypress(Space),,,,,,,,---- -- ----- -- ------ - ------- --- ----------<br>------------- ------ ------ ---- ---- ------- ----- -- ----<br>-------- ------- -- ---------- --- - --- ----- ----- ----<br>---- --- --- ----- --- ---- ---- ------- ----- ---- -------<br>--- --- -- ----- -- --- ---- -- --- ---- if ------ ------<br>--- ----- -- ----,127619.80499999481,127619.07499999506,127306.649,127315.81000000006,127323.296,127624.473,,49,if
screen,html.Screen,1_1_0_1_50,2021-04-19T10:16:37.672Z,,,,,,,,,,,,,,,,53,,,,,,,,,,,,,,282.4169999838341,,response,,,,99,,,,,,,Space,keypress(Space),,,,,,,,---- -- ----- -- ------ - ------- --- ----------<br>------------- ------ ------ ---- ---- ------- ----- -- ----<br>-------- ------- -- ---------- --- - --- ----- ----- ----<br>---- --- --- ----- --- ---- ---- ------- ----- ---- -------<br>--- --- -- ----- -- --- ---- -- --- ---- -- that's ------<br>--- ----- -- ----,127907.53499997663,127906.88999998383,127607.826,127620.00500000431,127624.473,127909.108,,50,that's
screen,html.Screen,1_1_0_1_51,2021-04-19T10:16:37.992Z,,,,,,,,,,,,,,,,53,,,,,,,,,,,,,,318.08199997596967,,response,,,,99,,,,,,,Space,keypress(Space),,,,,,,,---- -- ----- -- ------ - ------- --- ----------<br>------------- ------ ------ ---- ---- ------- ----- -- ----<br>-------- ------- -- ---------- --- - --- ----- ----- ----<br>---- --- --- ----- --- ---- ---- ------- ----- ---- -------<br>--- --- -- ----- -- --- ---- -- --- ---- -- ------ really<br>--- ----- -- ----,128227.87000000244,128227.18999997596,127892.461,127907.67499999492,127909.108,128243.595,,51,really
screen,html.Screen,1_1_0_1_52,2021-04-19T10:16:38.306Z,,,,,,,,,,,,,,,,53,,,,,,,,,,,,,,297.48499999541673,,response,,,,99,,,,,,,Space,keypress(Space),,,,,,,,---- -- ----- -- ------ - ------- --- ----------<br>------------- ------ ------ ---- ---- ------- ----- -- ----<br>-------- ------- -- ---------- --- - --- ----- ----- ----<br>---- --- --- ----- --- ---- ---- ------- ----- ---- -------<br>--- --- -- ----- -- --- ---- -- --- ---- -- ------ ------<br>not ----- -- ----,128541.65999998804,128541.07999999542,128226.948,128228.059999994,128243.595,128544.765,,52,not
screen,html.Screen,1_1_0_1_53,2021-04-19T10:16:38.624Z,,,,,,,,,,,,,,,,53,,,,,,,,,,,,,,314.8349999961356,,response,,,,99,,,,,,,Space,keypress(Space),,,,,,,,---- -- ----- -- ------ - ------- --- ----------<br>------------- ------ ------ ---- ---- ------- ----- -- ----<br>-------- ------- -- ---------- --- - --- ----- ----- ----<br>---- --- --- ----- --- ---- ---- ------- ----- ---- -------<br>--- --- -- ----- -- --- ---- -- --- ---- -- ------ ------<br>--- close -- ----,128860.27499998454,128859.59999999614,128528.118,128541.79999997723,128544.765,128864.122,,53,close
screen,html.Screen,1_1_0_1_54,2021-04-19T10:16:39.025Z,,,,,,,,,,,,,,,,53,,,,,,,,,,,,,,396.42299999736133,,response,,,,99,,,,,,,Space,keypress(Space),,,,,,,,---- -- ----- -- ------ - ------- --- ----------<br>------------- ------ ------ ---- ---- ------- ----- -- ----<br>-------- ------- -- ---------- --- - --- ----- ----- ----<br>---- --- --- ----- --- ---- ---- ------- ----- ---- -------<br>--- --- -- ----- -- --- ---- -- --- ---- -- ------ ------<br>--- ----- at ----,129261.20499998797,129260.54499999736,128847.475,128860.43000000063,128864.122,129263.76,,54,at
screen,html.Screen,1_1_0_1_55,2021-04-19T10:16:39.365Z,,,,,,,,,,,,,,,,53,,,,,,,,,,,,,,336.45499998402374,,response,,,,99,,,,,,,Space,keypress(Space),,,,,,,,---- -- ----- -- ------ - ------- --- ----------<br>------------- ------ ------ ---- ---- ------- ----- -- ----<br>-------- ------- -- ---------- --- - --- ----- ----- ----<br>---- --- --- ----- --- ---- ---- ------- ----- ---- -------<br>--- --- -- ----- -- --- ---- -- --- ---- -- ------ ------<br>--- ----- -- all.,129600.924999977,129600.21499998402,129247.113,129261.33999999729,129263.76,129616.899,,55,all.
Item 99,flow.Loop,1_1_0_1,2021-04-19T10:16:39.366Z,,,,,,,,,,,,,,,,,,,,,,,,,,,,,,28387.43899998402,,completion,,,,,E,,,,,,,,,,,silence,,,,,129601.30499998922,129600.21499998402,101129.541,101130.51999997697,101212.776,129616.899,,,
Question 1,html.Screen,1_1_0_2,2021-04-19T10:16:47.656Z,,,,,,,,,,,,,,,,,,,,,,,,,,,true,FALSE,,8273.600999979506,,response,,,,99,E,,,,,,FALSE,click #choice-2,,,,silence,,,,,137891.47499998217,137890.4999999795,129600.252,129601.43999999855,129616.899,137900.074,,,
Question 2,html.Screen,1_1_0_3,2021-04-19T10:16:51.666Z,,,,,,,,,,,,,,,,,,,,,,,,,,,true,TRUE,,4000.8809999900695,,response,,,,99,E,,,,,,TRUE,click #choice-1,,,,silence,,,,,141902.14500000002,141900.95499999006,137883.427,137891.62999999826,137900.074,141917.007,,,
Item 99,flow.Sequence,1_1_0,2021-04-19T10:16:51.667Z,,,,,,,,,,,,,,,,,,,,,,,,,,,,,,50753.62299999007,,completion,,,,,,,,,,,,,,,,,,,,,141902.36499998719,141900.95499999006,91130.685,91138.12499999767,91147.332,141917.007,,,
Holding screen,html.Screen,1_1_1_0,2021-04-19T10:17:01.664Z,,,,,,,,,,,,,,,,,,,,,,,,,,,,,,9998.638999999996,,timeout,,,,,,,,,,,,,,,,,,,,,151899.60499998415,151898.999,141900.36,141902.5149999943,141917.007,151915.646,,,
screen,html.Screen,1_1_1_1_0,2021-04-19T10:17:03.051Z,,,,,,,,,,,,,,,,54,,,,,,,,,,,,,,1370.308999999368,,response,,,,100,,,,,,,Space,keypress(Space),,,,,,,,At --- ---- --- ------ ----- ------- ---- -- --- ------- --<br>------- ---------- ------ -- ----- -- ----- -- ---- ------<br>--- ----- --- --- ------ -------- ----- --- ------ ----- --<br>----- ----- ---------- --- --- ------ ------ ---- -- ------<br>------- --- ------ ----- --- ---- ------- -- ---- --- --<br>------- ------,153286.50999997626,153285.95499999938,151898.999,151899.78499998688,151915.646,153300.098,,0,At
screen,html.Screen,1_1_1_1_1,2021-04-19T10:17:03.452Z,,,,,,,,,,,,,,,,54,,,,,,,,,,,,,,386.9469999987632,,response,,,,100,,,,,,,Space,keypress(Space),,,,,,,,-- the ---- --- ------ ----- ------- ---- -- --- ------- --<br>------- ---------- ------ -- ----- -- ----- -- ---- ------<br>--- ----- --- --- ------ -------- ----- --- ------ ----- --<br>----- ----- ---------- --- --- ------ ------ ---- -- ------<br>------- --- ------ ----- --- ---- ------- -- ---- --- --<br>------- ------,153687.60000000475,153687.04499999876,153283.451,153286.65500000352,153300.098,153693.598,,1,the
screen,html.Screen,1_1_1_1_2,2021-04-19T10:17:03.804Z,,,,,,,,,,,,,,,,54,,,,,,,,,,,,,,345.4319999853615,,response,,,,100,,,,,,,Space,keypress(Space),,,,,,,,-- --- time --- ------ ----- ------- ---- -- --- ------- --<br>------- ---------- ------ -- ----- -- ----- -- ---- ------<br>--- ----- --- --- ------ -------- ----- --- ------ ----- --<br>----- ----- ---------- --- --- ------ ------ ---- -- ------<br>------- --- ------ ----- --- ---- ------- -- ---- --- --<br>------- ------,154039.57999998238,154039.02999998536,153676.951,153687.73999999394,153693.598,154044.745,,2,time
screen,html.Screen,1_1_1_1_3,2021-04-19T10:17:04.218Z,,,,,,,,,,,,,,,,54,,,,,,,,,,,,,,408.09999999252614,,response,,,,100,,,,,,,Space,keypress(Space),,,,,,,,-- --- ---- the ------ ----- ------- ---- -- --- ------- --<br>------- ---------- ------ -- ----- -- ----- -- ---- ------<br>--- ----- --- --- ------ -------- ----- --- ------ ----- --<br>----- ----- ---------- --- --- ------ ------ ---- -- ------<br>------- --- ------ ----- --- ---- ------- -- ---- --- --<br>------- ------,154453.41999997618,154452.84499999252,154028.098,154039.72000000067,154044.745,154462.945,,3,the
screen,html.Screen,1_1_1_1_4,2021-04-19T10:17:05.737Z,,,,,,,,,,,,,,,,54,,,,,,,,,,,,,,1509.7149999994435,,response,,,,100,,,,,,,Space,keypress(Space),,,,,,,,-- --- ---- --- French ----- ------- ---- -- --- ------- --<br>------- ---------- ------ -- ----- -- ----- -- ---- ------<br>--- ----- --- --- ------ -------- ----- --- ------ ----- --<br>----- ----- ---------- --- --- ------ ------ ---- -- ------<br>------- --- ------ ----- --- ---- ------- -- ---- --- --<br>------- ------,155973.22499999427,155972.65999999945,154446.298,154453.55999999447,154462.945,155979.608,,4,French
screen,html.Screen,1_1_1_1_5,2021-04-19T10:17:06.168Z,,,,,,,,,,,,,,,,54,,,,,,,,,,,,,,423.45699999132194,,response,,,,100,,,,,,,Space,keypress(Space),,,,,,,,-- --- ---- --- ------ crown ------- ---- -- --- ------- --<br>------- ---------- ------ -- ----- -- ----- -- ---- ------<br>--- ----- --- --- ------ -------- ----- --- ------ ----- --<br>----- ----- ---------- --- --- ------ ------ ---- -- ------<br>------- --- ------ ----- --- ---- ------- -- ---- --- --<br>------- ------,156403.73999997973,156403.06499999133,155962.961,155973.36499998346,155979.608,156419.832,,5,crown
screen,html.Screen,1_1_1_1_6,2021-04-19T10:17:06.563Z,,,,,,,,,,,,,,,,54,,,,,,,,,,,,,,377.9829999980866,,response,,,,100,,,,,,,Space,keypress(Space),,,,,,,,-- --- ---- --- ------ ----- secured ---- -- --- ------- --<br>------- ---------- ------ -- ----- -- ----- -- ---- ------<br>--- ----- --- --- ------ -------- ----- --- ------ ----- --<br>----- ----- ---------- --- --- ------ ------ ---- -- ------<br>------- --- ------ ----- --- ---- ------- -- ---- --- --<br>------- ------,156798.5349999799,156797.81499999808,156403.185,156403.87999999803,156419.832,156805.26,,6,secured
screen,html.Screen,1_1_1_1_7,2021-04-19T10:17:06.909Z,,,,,,,,,,,,,,,,54,,,,,,,,,,,,,,338.539999990724,,response,,,,100,,,,,,,Space,keypress(Space),,,,,,,,-- --- ---- --- ------ ----- ------- much -- --- ------- --<br>------- ---------- ------ -- ----- -- ----- -- ---- ------<br>--- ----- --- --- ------ -------- ----- --- ------ ----- --<br>----- ----- ---------- --- --- ------ ------ ---- -- ------<br>------- --- ------ ----- --- ---- ------- -- ---- --- --<br>------- ------,157144.4499999925,157143.79999999073,156788.613,156798.7049999938,156805.26,157157.104,,7,much
screen,html.Screen,1_1_1_1_8,2021-04-19T10:17:07.261Z,,,,,,,,,,,,,,,,54,,,,,,,,,,,,,,338.68599998630816,,response,,,,100,,,,,,,Space,keypress(Space),,,,,,,,-- --- ---- --- ------ ----- ------- ---- of --- ------- --<br>------- ---------- ------ -- ----- -- ----- -- ---- ------<br>--- ----- --- --- ------ -------- ----- --- ------ ----- --<br>----- ----- ---------- --- --- ------ ------ ---- -- ------<br>------- --- ------ ----- --- ---- ------- -- ---- --- --<br>------- ------,157496.4349999791,157495.7899999863,157140.457,157144.5899999817,157157.104,157508.617,,8,of
screen,html.Screen,1_1_1_1_9,2021-04-19T10:17:07.664Z,,,,,,,,,,,,,,,,54,,,,,,,,,,,,,,390.89799999733805,,response,,,,100,,,,,,,Space,keypress(Space),,,,,,,,-- --- ---- --- ------ ----- ------- ---- -- its ------- --<br>------- ---------- ------ -- ----- -- ----- -- ---- ------<br>--- ----- --- --- ------ -------- ----- --- ------ ----- --<br>----- ----- ---------- --- --- ------ ------ ---- -- ------<br>------- --- ------ ----- --- ---- ------- -- ---- --- --<br>------- ------,157900.20000000368,157899.51499999734,157491.97,157496.56999998842,157508.617,157909.996,,9,its
screen,html.Screen,1_1_1_1_10,2021-04-19T10:17:08.226Z,,,,,,,,,,,,,,,,54,,,,,,,,,,,,,,550.8289999873668,,response,,,,100,,,,,,,Space,keypress(Space),,,,,,,,-- --- ---- --- ------ ----- ------- ---- -- --- revenue --<br>------- ---------- ------ -- ----- -- ----- -- ---- ------<br>--- ----- --- --- ------ -------- ----- --- ------ ----- --<br>----- ----- ---------- --- --- ------ ------ ---- -- ------<br>------- --- ------ ----- --- ---- ------- -- ---- --- --<br>------- ------,158461.46999998018,158460.82499998738,157893.349,157900.3950000042,157909.996,158477.775,,10,revenue
screen,html.Screen,1_1_1_1_11,2021-04-19T10:17:08.630Z,,,,,,,,,,,,,,,,54,,,,,,,,,,,,,,387.5099999780359,,response,,,,100,,,,,,,Space,keypress(Space),,,,,,,,-- --- ---- --- ------ ----- ------- ---- -- --- ------- by<br>------- ---------- ------ -- ----- -- ----- -- ---- ------<br>--- ----- --- --- ------ -------- ----- --- ------ ----- --<br>----- ----- ---------- --- --- ------ ------ ---- -- ------<br>------- --- ------ ----- --- ---- ------- -- ---- --- --<br>------- ------,158865.8899999864,158865.28499997803,158461.128,158461.60999999847,158477.775,158879.368,,11,by
screen,html.Screen,1_1_1_1_12,2021-04-19T10:17:09.195Z,,,,,,,,,,,,,,,,54,,,,,,,,,,,,,,550.8170000047248,,response,,,,100,,,,,,,Space,keypress(Space),,,,,,,,-- --- ---- --- ------ ----- ------- ---- -- --- ------- --<br>issuing ---------- ------ -- ----- -- ----- -- ---- ------<br>--- ----- --- --- ------ -------- ----- --- ------ ----- --<br>----- ----- ---------- --- --- ------ ------ ---- -- ------<br>------- --- ------ ----- --- ---- ------- -- ---- --- --<br>------- ------,159430.83999998635,159430.1850000047,158862.721,158866.03000000468,158879.368,159431.65,,12,issuing
screen,html.Screen,1_1_1_1_13,2021-04-19T10:17:09.629Z,,,,,,,,,,,,,,,,54,,,,,,,,,,,,,,432.7599999801314,,response,,,,100,,,,,,,Space,keypress(Space),,,,,,,,-- --- ---- --- ------ ----- ------- ---- -- --- ------- --<br>------- government ------ -- ----- -- ----- -- ---- ------<br>--- ----- --- --- ------ -------- ----- --- ------ ----- --<br>----- ----- ---------- --- --- ------ ------ ---- -- ------<br>------- --- ------ ----- --- ---- ------- -- ---- --- --<br>------- ------,159865.1200000022,159864.40999998013,159415.003,159430.99500000244,159431.65,159866.514,,13,government
screen,html.Screen,1_1_1_1_14,2021-04-19T10:17:10.011Z,,,,,,,,,,,,,,,,54,,,,,,,,,,,,,,379.43599998226273,,response,,,,100,,,,,,,Space,keypress(Space),,,,,,,,-- --- ---- --- ------ ----- ------- ---- -- --- ------- --<br>------- ---------- bonds. -- ----- -- ----- -- ---- ------<br>--- ----- --- --- ------ -------- ----- --- ------ ----- --<br>----- ----- ---------- --- --- ------ ------ ---- -- ------<br>------- --- ------ ----- --- ---- ------- -- ---- --- --<br>------- ------,160246.61000000197,160245.94999998226,159849.867,159865.31500000274,159866.514,160254.358,,14,bonds.
screen,html.Screen,1_1_1_1_15,2021-04-19T10:17:10.394Z,,,,,,,,,,,,,,,,54,,,,,,,,,,,,,,374.2770000009332,,response,,,,100,,,,,,,Space,keypress(Space),,,,,,,,-- --- ---- --- ------ ----- ------- ---- -- --- ------- --<br>------- ---------- ------ In ----- -- ----- -- ---- ------<br>--- ----- --- --- ------ -------- ----- --- ------ ----- --<br>----- ----- ---------- --- --- ------ ------ ---- -- ------<br>------- --- ------ ----- --- ---- ------- -- ---- --- --<br>------- ------,160629.32999999612,160628.63500000094,160237.711,160246.81499999133,160254.358,160637.256,,15,In
screen,html.Screen,1_1_1_1_16,2021-04-19T10:17:10.722Z,,,,,,,,,,,,,,,,54,,,,,,,,,,,,,,320.21900000289315,,response,,,,100,,,,,,,Space,keypress(Space),,,,,,,,"-- --- ---- --- ------ ----- ------- ---- -- --- ------- --<br>------- ---------- ------ -- 1727, -- ----- -- ---- ------<br>--- ----- --- --- ------ -------- ----- --- ------ ----- --<br>----- ----- ---------- --- --- ------ ------ ---- -- ------<br>------- --- ------ ----- --- ---- ------- -- ---- --- --<br>------- ------",160958.09499997995,160957.4750000029,160620.609,160629.51999998768,160637.256,160972.245,,16,"1727,"
screen,html.Screen,1_1_1_1_17,2021-04-19T10:17:11.695Z,,,,,,,,,,,,,,,,54,,,,,,,,,,,,,,957.7249999974156,,response,,,,100,,,,,,,Space,keypress(Space),,,,,,,,-- --- ---- --- ------ ----- ------- ---- -- --- ------- --<br>------- ---------- ------ -- ----- in ----- -- ---- ------<br>--- ----- --- --- ------ -------- ----- --- ------ ----- --<br>----- ----- ---------- --- --- ------ ------ ---- -- ------<br>------- --- ------ ----- --- ---- ------- -- ---- --- --<br>------- ------,161930.65500000375,161929.9699999974,160955.598,160958.23499999824,160972.245,161939.75,,17,in
screen,html.Screen,1_1_1_1_18,2021-04-19T10:17:12.486Z,,,,,,,,,,,,,,,,54,,,,,,,,,,,,,,781.554999984568,,response,,,,100,,,,,,,Space,keypress(Space),,,,,,,,-- --- ---- --- ------ ----- ------- ---- -- --- ------- --<br>------- ---------- ------ -- ----- -- order -- ---- ------<br>--- ----- --- --- ------ -------- ----- --- ------ ----- --<br>----- ----- ---------- --- --- ------ ------ ---- -- ------<br>------- --- ------ ----- --- ---- ------- -- ---- --- --<br>------- ------,162721.9449999975,162721.30499998457,161923.103,161930.85999999312,161939.75,162723.859,,18,order
screen,html.Screen,1_1_1_1_19,2021-04-19T10:17:12.822Z,,,,,,,,,,,,,,,,54,,,,,,,,,,,,,,333.0659999825875,,response,,,,100,,,,,,,Space,keypress(Space),,,,,,,,-- --- ---- --- ------ ----- ------- ---- -- --- ------- --<br>------- ---------- ------ -- ----- -- ----- to ---- ------<br>--- ----- --- --- ------ -------- ----- --- ------ ----- --<br>----- ----- ---------- --- --- ------ ------ ---- -- ------<br>------- --- ------ ----- --- ---- ------- -- ---- --- --<br>------- ------,163057.59499999112,163056.92499998258,162707.212,162722.08999999566,162723.859,163061.755,,19,to
screen,html.Screen,1_1_1_1_20,2021-04-19T10:17:13.154Z,,,,,,,,,,,,,,,,54,,,,,,,,,,,,,,327.31500000471715,,response,,,,100,,,,,,,Space,keypress(Space),,,,,,,,-- --- ---- --- ------ ----- ------- ---- -- --- ------- --<br>------- ---------- ------ -- ----- -- ----- -- save ------<br>--- ----- --- --- ------ -------- ----- --- ------ ----- --<br>----- ----- ---------- --- --- ------ ------ ---- -- ------<br>------- --- ------ ----- --- ---- ------- -- ---- --- --<br>------- ------,163389.73999998416,163389.07000000472,163045.108,163057.78999999166,163061.755,163398.73,,20,save
screen,html.Screen,1_1_1_1_21,2021-04-19T10:17:13.523Z,,,,,,,,,,,,,,,,54,,,,,,,,,,,,,,359.2849999994214,,response,,,,100,,,,,,,Space,keypress(Space),,,,,,,,"-- --- ---- --- ------ ----- ------- ---- -- --- ------- --<br>------- ---------- ------ -- ----- -- ----- -- ---- money,<br>--- ----- --- --- ------ -------- ----- --- ------ ----- --<br>----- ----- ---------- --- --- ------ ------ ---- -- ------<br>------- --- ------ ----- --- ---- ------- -- ---- --- --<br>------- ------",163758.6349999765,163758.01499999943,163382.083,163389.90499998908,163398.73,163766.7,,21,"money,"
screen,html.Screen,1_1_1_1_22,2021-04-19T10:17:13.859Z,,,,,,,,,,,,,,,,54,,,,,,,,,,,,,,327.34999998513376,,response,,,,100,,,,,,,Space,keypress(Space),,,,,,,,-- --- ---- --- ------ ----- ------- ---- -- --- ------- --<br>------- ---------- ------ -- ----- -- ----- -- ---- ------<br>the ----- --- --- ------ -------- ----- --- ------ ----- --<br>----- ----- ---------- --- --- ------ ------ ---- -- ------<br>------- --- ------ ----- --- ---- ------- -- ---- --- --<br>------- ------,164094.67999998014,164094.04999998515,163750.053,163758.77499999478,163766.7,164101.343,,22,the
screen,html.Screen,1_1_1_1_23,2021-04-19T10:17:14.200Z,,,,,,,,,,,,,,,,54,,,,,,,,,,,,,,333.40699998580385,,response,,,,100,,,,,,,Space,keypress(Space),,,,,,,,-- --- ---- --- ------ ----- ------- ---- -- --- ------- --<br>------- ---------- ------ -- ----- -- ----- -- ---- ------<br>--- state --- --- ------ -------- ----- --- ------ ----- --<br>----- ----- ---------- --- --- ------ ------ ---- -- ------<br>------- --- ------ ----- --- ---- ------- -- ---- --- --<br>------- ------,164435.42999998317,164434.7499999858,164084.696,164094.81999999844,164101.343,164437.755,,23,state
screen,html.Screen,1_1_1_1_24,2021-04-19T10:17:14.547Z,,,,,,,,,,,,,,,,54,,,,,,,,,,,,,,344.5099999870872,,response,,,,100,,,,,,,Space,keypress(Space),,,,,,,,-- --- ---- --- ------ ----- ------- ---- -- --- ------- --<br>------- ---------- ------ -- ----- -- ----- -- ---- ------<br>--- ----- cut --- ------ -------- ----- --- ------ ----- --<br>----- ----- ---------- --- --- ------ ------ ---- -- ------<br>------- --- ------ ----- --- ---- ------- -- ---- --- --<br>------- ------,164782.94999999343,164782.2649999871,164421.108,164435.6249999837,164437.755,164787.472,,24,cut
screen,html.Screen,1_1_1_1_25,2021-04-19T10:17:14.905Z,,,,,,,,,,,,,,,,54,,,,,,,,,,,,,,353.0679999930435,,response,,,,100,,,,,,,Space,keypress(Space),,,,,,,,-- --- ---- --- ------ ----- ------- ---- -- --- ------- --<br>------- ---------- ------ -- ----- -- ----- -- ---- ------<br>--- ----- --- the ------ -------- ----- --- ------ ----- --<br>----- ----- ---------- --- --- ------ ------ ---- -- ------<br>------- --- ------ ----- --- ---- ------- -- ---- --- --<br>------- ------,165141.21499998146,165140.53999999305,164770.825,164783.15000000293,164787.472,165155.511,,25,the
screen,html.Screen,1_1_1_1_26,2021-04-19T10:17:15.280Z,,,,,,,,,,,,,,,,54,,,,,,,,,,,,,,359.60899999638787,,response,,,,100,,,,,,,Space,keypress(Space),,,,,,,,-- --- ---- --- ------ ----- ------- ---- -- --- ------- --<br>------- ---------- ------ -- ----- -- ----- -- ---- ------<br>--- ----- --- --- bonds' -------- ----- --- ------ ----- --<br>----- ----- ---------- --- --- ------ ------ ---- -- ------<br>------- --- ------ ----- --- ---- ------- -- ---- --- --<br>------- ------,165515.75999998022,165515.1199999964,165138.864,165141.35499999975,165155.511,165523.442,,26,bonds'
screen,html.Screen,1_1_1_1_27,2021-04-19T10:17:15.650Z,,,,,,,,,,,,,,,,54,,,,,,,,,,,,,,361.28799999065814,,response,,,,100,,,,,,,Space,keypress(Space),,,,,,,,-- --- ---- --- ------ ----- ------- ---- -- --- ------- --<br>------- ---------- ------ -- ----- -- ----- -- ---- ------<br>--- ----- --- --- ------ interest ----- --- ------ ----- --<br>----- ----- ---------- --- --- ------ ------ ---- -- ------<br>------- --- ------ ----- --- ---- ------- -- ---- --- --<br>------- ------,165885.3999999992,165884.72999999067,165506.795,165515.8999999985,165523.442,165891.57,,27,interest
screen,html.Screen,1_1_1_1_28,2021-04-19T10:17:16.023Z,,,,,,,,,,,,,,,,54,,,,,,,,,,,,,,366.95499998290325,,response,,,,100,,,,,,,Space,keypress(Space),,,,,,,,-- --- ---- --- ------ ----- ------- ---- -- --- ------- --<br>------- ---------- ------ -- ----- -- ----- -- ---- ------<br>--- ----- --- --- ------ -------- rate. --- ------ ----- --<br>----- ----- ---------- --- --- ------ ------ ---- -- ------<br>------- --- ------ ----- --- ---- ------- -- ---- --- --<br>------- ------,166259.1399999801,166258.5249999829,165874.923,165885.54999997723,165891.57,166259.702,,28,rate.
screen,html.Screen,1_1_1_1_29,2021-04-19T10:17:16.405Z,,,,,,,,,,,,,,,,54,,,,,,,,,,,,,,380.6129999969271,,response,,,,100,,,,,,,Space,keypress(Space),,,,,,,,-- --- ---- --- ------ ----- ------- ---- -- --- ------- --<br>------- ---------- ------ -- ----- -- ----- -- ---- ------<br>--- ----- --- --- ------ -------- ----- The ------ ----- --<br>----- ----- ---------- --- --- ------ ------ ---- -- ------<br>------- --- ------ ----- --- ---- ------- -- ---- --- --<br>------- ------,166640.9299999941,166640.31499999692,166243.055,166259.28999998723,166259.702,166644.463,,29,The
screen,html.Screen,1_1_1_1_30,2021-04-19T10:17:16.764Z,,,,,,,,,,,,,,,,54,,,,,,,,,,,,,,354.90199999604374,,response,,,,100,,,,,,,Space,keypress(Space),,,,,,,,-- --- ---- --- ------ ----- ------- ---- -- --- ------- --<br>------- ---------- ------ -- ----- -- ----- -- ---- ------<br>--- ----- --- --- ------ -------- ----- --- market ----- --<br>----- ----- ---------- --- --- ------ ------ ---- -- ------<br>------- --- ------ ----- --- ---- ------- -- ---- --- --<br>------- ------,166999.9549999775,166999.36499999603,166627.816,166641.07499999227,166644.463,167012.567,,30,market
screen,html.Screen,1_1_1_1_31,2021-04-19T10:17:17.100Z,,,,,,,,,,,,,,,,54,,,,,,,,,,,,,,322.8930000020482,,response,,,,100,,,,,,,Space,keypress(Space),,,,,,,,-- --- ---- --- ------ ----- ------- ---- -- --- ------- --<br>------- ---------- ------ -- ----- -- ----- -- ---- ------<br>--- ----- --- --- ------ -------- ----- --- ------ value --<br>----- ----- ---------- --- --- ------ ------ ---- -- ------<br>------- --- ------ ----- --- ---- ------- -- ---- --- --<br>------- ------,167336.16999999504,167335.46000000206,166995.92,167000.09499999578,167012.567,167347.485,,31,value
screen,html.Screen,1_1_1_1_32,2021-04-19T10:17:17.418Z,,,,,,,,,,,,,,,,54,,,,,,,,,,,,,,305.5649999935413,,response,,,,100,,,,,,,Space,keypress(Space),,,,,,,,-- --- ---- --- ------ ----- ------- ---- -- --- ------- --<br>------- ---------- ------ -- ----- -- ----- -- ---- ------<br>--- ----- --- --- ------ -------- ----- --- ------ ----- of<br>----- ----- ---------- --- --- ------ ------ ---- -- ------<br>------- --- ------ ----- --- ---- ------- -- ---- --- --<br>------- ------,167653.73499999987,167653.04999999353,167330.838,167336.36499999557,167347.485,167665.672,,32,of
screen,html.Screen,1_1_1_1_33,2021-04-19T10:17:17.774Z,,,,,,,,,,,,,,,,54,,,,,,,,,,,,,,343.55299998706323,,response,,,,100,,,,,,,Space,keypress(Space),,,,,,,,-- --- ---- --- ------ ----- ------- ---- -- --- ------- --<br>------- ---------- ------ -- ----- -- ----- -- ---- ------<br>--- ----- --- --- ------ -------- ----- --- ------ ----- --<br>these ----- ---------- --- --- ------ ------ ---- -- ------<br>------- --- ------ ----- --- ---- ------- -- ---- --- --<br>------- ------,168009.93000000017,168009.22499998705,167649.025,167653.93499998027,167665.672,168016.988,,33,these
screen,html.Screen,1_1_1_1_34,2021-04-19T10:17:18.111Z,,,,,,,,,,,,,,,,54,,,,,,,,,,,,,,328.7469999807654,,response,,,,100,,,,,,,Space,keypress(Space),,,,,,,,-- --- ---- --- ------ ----- ------- ---- -- --- ------- --<br>------- ---------- ------ -- ----- -- ----- -- ---- ------<br>--- ----- --- --- ------ -------- ----- --- ------ ----- --<br>----- bonds ---------- --- --- ------ ------ ---- -- ------<br>------- --- ------ ----- --- ---- ------- -- ---- --- --<br>------- ------,168346.43499998492,168345.73499998078,168000.341,168010.11999999173,168016.988,168351.534,,34,bonds
screen,html.Screen,1_1_1_1_35,2021-04-19T10:17:18.518Z,,,,,,,,,,,,,,,,54,,,,,,,,,,,,,,401.6359999817505,,response,,,,100,,,,,,,Space,keypress(Space),,,,,,,,"-- --- ---- --- ------ ----- ------- ---- -- --- ------- --<br>------- ---------- ------ -- ----- -- ----- -- ---- ------<br>--- ----- --- --- ------ -------- ----- --- ------ ----- --<br>----- ----- plummeted, --- --- ------ ------ ---- -- ------<br>------- --- ------ ----- --- ---- ------- -- ---- --- --<br>------- ------",168753.8099999947,168753.16999998176,168334.887,168346.56999999424,168351.534,168769.457,,35,"plummeted,"
screen,html.Screen,1_1_1_1_36,2021-04-19T10:17:18.877Z,,,,,,,,,,,,,,,,54,,,,,,,,,,,,,,343.01299999275943,,response,,,,100,,,,,,,Space,keypress(Space),,,,,,,,-- --- ---- --- ------ ----- ------- ---- -- --- ------- --<br>------- ---------- ------ -- ----- -- ----- -- ---- ------<br>--- ----- --- --- ------ -------- ----- --- ------ ----- --<br>----- ----- ---------- and --- ------ ------ ---- -- ------<br>------- --- ------ ----- --- ---- ------- -- ---- --- --<br>------- ------,169113.1549999991,169112.46999999275,168752.81,168753.99999998626,168769.457,169120.803,,36,and
screen,html.Screen,1_1_1_1_37,2021-04-19T10:17:19.204Z,,,,,,,,,,,,,,,,54,,,,,,,,,,,,,,318.3569999798783,,response,,,,100,,,,,,,Space,keypress(Space),,,,,,,,-- --- ---- --- ------ ----- ------- ---- -- --- ------- --<br>------- ---------- ------ -- ----- -- ----- -- ---- ------<br>--- ----- --- --- ------ -------- ----- --- ------ ----- --<br>----- ----- ---------- --- the ------ ------ ---- -- ------<br>------- --- ------ ----- --- ---- ------- -- ---- --- --<br>------- ------,169439.864999993,169439.1599999799,169104.156,169113.34499999066,169120.803,169440.937,,37,the
screen,html.Screen,1_1_1_1_38,2021-04-19T10:17:19.546Z,,,,,,,,,,,,,,,,54,,,,,,,,,,,,,,339.7379999872355,,response,,,,100,,,,,,,Space,keypress(Space),,,,,,,,-- --- ---- --- ------ ----- ------- ---- -- --- ------- --<br>------- ---------- ------ -- ----- -- ----- -- ---- ------<br>--- ----- --- --- ------ -------- ----- --- ------ ----- --<br>----- ----- ---------- --- --- market ------ ---- -- ------<br>------- --- ------ ----- --- ---- ------- -- ---- --- --<br>------- ------,169781.40999999596,169780.67499998724,169424.29,169440.05999999354,169440.937,169790.643,,38,market
screen,html.Screen,1_1_1_1_39,2021-04-19T10:17:19.858Z,,,,,,,,,,,,,,,,54,,,,,,,,,,,,,,302.546999985032,,response,,,,100,,,,,,,Space,keypress(Space),,,,,,,,-- --- ---- --- ------ ----- ------- ---- -- --- ------- --<br>------- ---------- ------ -- ----- -- ----- -- ---- ------<br>--- ----- --- --- ------ -------- ----- --- ------ ----- --<br>----- ----- ---------- --- --- ------ became ---- -- ------<br>------- --- ------ ----- --- ---- ------- -- ---- --- --<br>------- ------,170093.8399999868,170093.18999998504,169773.996,169781.62999998312,169790.643,170108.622,,39,became
screen,html.Screen,1_1_1_1_40,2021-04-19T10:17:20.218Z,,,,,,,,,,,,,,,,54,,,,,,,,,,,,,,345.31799997758935,,response,,,,100,,,,,,,Space,keypress(Space),,,,,,,,-- --- ---- --- ------ ----- ------- ---- -- --- ------- --<br>------- ---------- ------ -- ----- -- ----- -- ---- ------<br>--- ----- --- --- ------ -------- ----- --- ------ ----- --<br>----- ----- ---------- --- --- ------ ------ wary -- ------<br>------- --- ------ ----- --- ---- ------- -- ---- --- --<br>------- ------,170454.71999997972,170453.9399999776,170091.975,170093.979999976,170108.622,170459.939,,40,wary
screen,html.Screen,1_1_1_1_41,2021-04-19T10:17:20.512Z,,,,,,,,,,,,,,,,54,,,,,,,,,,,,,,288.0660000012722,,response,,,,100,,,,,,,Space,keypress(Space),,,,,,,,-- --- ---- --- ------ ----- ------- ---- -- --- ------- --<br>------- ---------- ------ -- ----- -- ----- -- ---- ------<br>--- ----- --- --- ------ -------- ----- --- ------ ----- --<br>----- ----- ---------- --- --- ------ ------ ---- of ------<br>------- --- ------ ----- --- ---- ------- -- ---- --- --<br>------- ------,170748.60500000068,170748.00500000129,170443.292,170454.91499998025,170459.939,170761.237,,41,of
screen,html.Screen,1_1_1_1_42,2021-04-19T10:17:20.841Z,,,,,,,,,,,,,,,,54,,,,,,,,,,,,,,315.62799998090486,,response,,,,100,,,,,,,Space,keypress(Space),,,,,,,,-- --- ---- --- ------ ----- ------- ---- -- --- ------- --<br>------- ---------- ------ -- ----- -- ----- -- ---- ------<br>--- ----- --- --- ------ -------- ----- --- ------ ----- --<br>----- ----- ---------- --- --- ------ ------ ---- -- French<br>------- --- ------ ----- --- ---- ------- -- ---- --- --<br>------- ------,171077.47499999823,171076.8649999809,170744.59,170748.74499998987,170761.237,171079.304,,42,French
screen,html.Screen,1_1_1_1_43,2021-04-19T10:17:21.233Z,,,,,,,,,,,,,,,,54,,,,,,,,,,,,,,389.05099998996593,,response,,,,100,,,,,,,Space,keypress(Space),,,,,,,,-- --- ---- --- ------ ----- ------- ---- -- --- ------- --<br>------- ---------- ------ -- ----- -- ----- -- ---- ------<br>--- ----- --- --- ------ -------- ----- --- ------ ----- --<br>----- ----- ---------- --- --- ------ ------ ---- -- ------<br>credit. --- ------ ----- --- ---- ------- -- ---- --- --<br>------- ------,171468.97499999614,171468.35499998997,171062.657,171077.61499998742,171079.304,171480.372,,43,credit.
screen,html.Screen,1_1_1_1_44,2021-04-19T10:17:21.618Z,,,,,,,,,,,,,,,,54,,,,,,,,,,,,,,373.22299999321694,,response,,,,100,,,,,,,Space,keypress(Space),,,,,,,,-- --- ---- --- ------ ----- ------- ---- -- --- ------- --<br>------- ---------- ------ -- ----- -- ----- -- ---- ------<br>--- ----- --- --- ------ -------- ----- --- ------ ----- --<br>----- ----- ---------- --- --- ------ ------ ---- -- ------<br>------- The ------ ----- --- ---- ------- -- ---- --- --<br>------- ------,171854.21499999939,171853.59499999322,171463.725,171469.11499998532,171480.372,171864.987,,44,The
screen,html.Screen,1_1_1_1_45,2021-04-19T10:17:21.962Z,,,,,,,,,,,,,,,,54,,,,,,,,,,,,,,333.1629999819852,,response,,,,100,,,,,,,Space,keypress(Space),,,,,,,,-- --- ---- --- ------ ----- ------- ---- -- --- ------- --<br>------- ---------- ------ -- ----- -- ----- -- ---- ------<br>--- ----- --- --- ------ -------- ----- --- ------ ----- --<br>----- ----- ---------- --- --- ------ ------ ---- -- ------<br>------- --- French ----- --- ---- ------- -- ---- --- --<br>------- ------,172198.78499998595,172198.14999998198,171848.34,171854.35499998857,171864.987,172199.891,,45,French
screen,html.Screen,1_1_1_1_46,2021-04-19T10:17:22.297Z,,,,,,,,,,,,,,,,54,,,,,,,,,,,,,,333.1839999848162,,response,,,,100,,,,,,,Space,keypress(Space),,,,,,,,-- --- ---- --- ------ ----- ------- ---- -- --- ------- --<br>------- ---------- ------ -- ----- -- ----- -- ---- ------<br>--- ----- --- --- ------ -------- ----- --- ------ ----- --<br>----- ----- ---------- --- --- ------ ------ ---- -- ------<br>------- --- ------ state --- ---- ------- -- ---- --- --<br>------- ------,172533.71999997762,172533.07499998482,172183.244,172198.92500000424,172199.891,172534.804,,46,state
screen,html.Screen,1_1_1_1_47,2021-04-19T10:17:22.657Z,,,,,,,,,,,,,,,,54,,,,,,,,,,,,,,357.55599999800324,,response,,,,100,,,,,,,Space,keypress(Space),,,,,,,,-- --- ---- --- ------ ----- ------- ---- -- --- ------- --<br>------- ---------- ------ -- ----- -- ----- -- ---- ------<br>--- ----- --- --- ------ -------- ----- --- ------ ----- --<br>----- ----- ---------- --- --- ------ ------ ---- -- ------<br>------- --- ------ ----- was ---- ------- -- ---- --- --<br>------- ------,172893.0499999842,172892.359999998,172518.157,172533.86500000488,172534.804,172902.781,,47,was
screen,html.Screen,1_1_1_1_48,2021-04-19T10:17:22.999Z,,,,,,,,,,,,,,,,54,,,,,,,,,,,,,,331.6189999866474,,response,,,,100,,,,,,,Space,keypress(Space),,,,,,,,-- --- ---- --- ------ ----- ------- ---- -- --- ------- --<br>------- ---------- ------ -- ----- -- ----- -- ---- ------<br>--- ----- --- --- ------ -------- ----- --- ------ ----- --<br>----- ----- ---------- --- --- ------ ------ ---- -- ------<br>------- --- ------ ----- --- left ------- -- ---- --- --<br>------- ------,173235.0349999906,173234.39999998664,172886.134,172893.24499998474,172902.781,173237.491,,48,left
screen,html.Screen,1_1_1_1_49,2021-04-19T10:17:23.375Z,,,,,,,,,,,,,,,,54,,,,,,,,,,,,,,372.75899999789544,,response,,,,100,,,,,,,Space,keypress(Space),,,,,,,,-- --- ---- --- ------ ----- ------- ---- -- --- ------- --<br>------- ---------- ------ -- ----- -- ----- -- ---- ------<br>--- ----- --- --- ------ -------- ----- --- ------ ----- --<br>----- ----- ---------- --- --- ------ ------ ---- -- ------<br>------- --- ------ ----- --- ---- without -- ---- --- --<br>------- ------,173610.91999997734,173610.2499999979,173220.844,173235.1749999798,173237.491,173622.186,,49,without
screen,html.Screen,1_1_1_1_50,2021-04-19T10:17:23.722Z,,,,,,,,,,,,,,,,54,,,,,,,,,,,,,,335.23900000052527,,response,,,,100,,,,,,,Space,keypress(Space),,,,,,,,-- --- ---- --- ------ ----- ------- ---- -- --- ------- --<br>------- ---------- ------ -- ----- -- ----- -- ---- ------<br>--- ----- --- --- ------ -------- ----- --- ------ ----- --<br>----- ----- ---------- --- --- ------ ------ ---- -- ------<br>------- --- ------ ----- --- ---- ------- an ---- --- --<br>------- ------,173958.11499998672,173957.4250000005,173605.539,173611.09999998007,173622.186,173973.553,,50,an
screen,html.Screen,1_1_1_1_51,2021-04-19T10:17:24.063Z,,,,,,,,,,,,,,,,54,,,,,,,,,,,,,,324.80699998611817,,response,,,,100,,,,,,,Space,keypress(Space),,,,,,,,-- --- ---- --- ------ ----- ------- ---- -- --- ------- --<br>------- ---------- ------ -- ----- -- ----- -- ---- ------<br>--- ----- --- --- ------ -------- ----- --- ------ ----- --<br>----- ----- ---------- --- --- ------ ------ ---- -- ------<br>------- --- ------ ----- --- ---- ------- -- easy --- --<br>------- ------,174298.98500000127,174298.35999998613,173956.906,173958.29999999842,173973.553,174308.389,,51,easy
screen,html.Screen,1_1_1_1_52,2021-04-19T10:17:24.402Z,,,,,,,,,,,,,,,,54,,,,,,,,,,,,,,329.1959999894898,,response,,,,100,,,,,,,Space,keypress(Space),,,,,,,,-- --- ---- --- ------ ----- ------- ---- -- --- ------- --<br>------- ---------- ------ -- ----- -- ----- -- ---- ------<br>--- ----- --- --- ------ -------- ----- --- ------ ----- --<br>----- ----- ---------- --- --- ------ ------ ---- -- ------<br>------- --- ------ ----- --- ---- ------- -- ---- way --<br>------- ------,174638.2599999779,174637.58499998949,174291.742,174299.11999998149,174308.389,174643.113,,52,way
screen,html.Screen,1_1_1_1_53,2021-04-19T10:17:24.717Z,,,,,,,,,,,,,,,,54,,,,,,,,,,,,,,309.1069999773754,,response,,,,100,,,,,,,Space,keypress(Space),,,,,,,,-- --- ---- --- ------ ----- ------- ---- -- --- ------- --<br>------- ---------- ------ -- ----- -- ----- -- ---- ------<br>--- ----- --- --- ------ -------- ----- --- ------ ----- --<br>----- ----- ---------- --- --- ------ ------ ---- -- ------<br>------- --- ------ ----- --- ---- ------- -- ---- --- of<br>------- ------,174952.81999997678,174952.2199999774,174626.466,174638.44999999856,174643.113,174961.142,,53,of
screen,html.Screen,1_1_1_1_54,2021-04-19T10:17:25.086Z,,,,,,,,,,,,,,,,54,,,,,,,,,,,,,,360.1629999903962,,response,,,,100,,,,,,,Space,keypress(Space),,,,,,,,-- --- ---- --- ------ ----- ------- ---- -- --- ------- --<br>------- ---------- ------ -- ----- -- ----- -- ---- ------<br>--- ----- --- --- ------ -------- ----- --- ------ ----- --<br>----- ----- ---------- --- --- ------ ------ ---- -- ------<br>------- --- ------ ----- --- ---- ------- -- ---- --- --<br>raising ------,175321.92499999655,175321.3049999904,174944.495,174952.9549999861,174961.142,175330.594,,54,raising
screen,html.Screen,1_1_1_1_55,2021-04-19T10:17:25.556Z,,,,,,,,,,,,,,,,54,,,,,,,,,,,,,,460.6559999801975,,response,,,,100,,,,,,,Space,keypress(Space),,,,,,,,-- --- ---- --- ------ ----- ------- ---- -- --- ------- --<br>------- ---------- ------ -- ----- -- ----- -- ---- ------<br>--- ----- --- --- ------ -------- ----- --- ------ ----- --<br>----- ----- ---------- --- --- ------ ------ ---- -- ------<br>------- --- ------ ----- --- ---- ------- -- ---- --- --<br>------- money.,175791.88999999315,175791.2499999802,175313.947,175322.0699999947,175330.594,175796.816,,55,money.
Item 100,flow.Loop,1_1_1_1,2021-04-19T10:17:25.556Z,,,,,,,,,,,,,,,,,,,,,,,,,,,,,,23875.6039999802,,completion,,,,,E,,,,,,,,,,,silence,,,,,175792.13499999605,175791.2499999802,151898.999,151899.73999999347,151915.646,175796.816,,,
Question 1,html.Screen,1_1_1_2,2021-04-19T10:17:28.852Z,,,,,,,,,,,,,,,,,,,,,,,,,,,true,TRUE,,3290.568999991636,,response,,,,100,E,,,,,,TRUE,click #choice-1,,,,silence,,,,,179088.27499998733,179087.38499999163,175780.169,175792.23999998067,175796.816,179096.856,,,
Question 2,html.Screen,1_1_1_3,2021-04-19T10:17:32.411Z,,,,,,,,,,,,,,,,,,,,,,,,,,,true,FALSE,,3549.2390000036976,,response,,,,100,E,,,,,,FALSE,click #choice-2,,,,silence,,,,,182647.02499998384,182646.0950000037,179080.209,179088.41499997652,179096.856,182660.833,,,
Item 100,flow.Sequence,1_1_1,2021-04-19T10:17:32.411Z,,,,,,,,,,,,,,,,,,,,,,,,,,,,,,40729.088000003685,,completion,,,,,,,,,,,,,,,,,,,,,182647.23999999114,182646.0950000037,141900.36,141902.4700000009,141917.007,182660.833,,,
End of Practice,html.Page,1_1_2,2021-04-19T10:17:34.754Z,,,,,,,,,,,,,,,,,,,,,,,,,,,,,,2329.5369999849645,,form submission,,,,,,,,,,,,,,,,,,,,,184990.6749999791,184990.36999998498,182644.186,182647.34999998473,182660.833,185003.492,,,
Practice,flow.Sequence,1_1,2021-04-19T10:17:34.755Z,,,,,,,,,,,,,,,,,,,,,,,,,,,,,,93843.03799998498,,completion,,,,,,,,,,,,,,,,,,,,,184990.90000000433,184990.36999998498,91130.685,91138.06499997736,91147.332,185003.492,,,
Trap_instruction,html.Page,1_2_0,2021-04-19T10:17:36.776Z,,,,,,,,,,,,,,,,,,,,,,,,,,,,,,2008.562999999238,,form submission,,,,,,,,,,,,,,,,,,,,,187012.42499999353,187012.05499999924,184986.845,184991.04999998235,185003.492,187026.972,,,
trap_trial,html.Screen,1_2_1,2021-04-19T10:17:40.055Z,,,,,,,,,,,,,,,,,,,,,,,,,,,true,1,,3263.0929999792133,,response,,,,,,,,,,,1,click #choice-1,,,,,,,,,190291.035000002,190290.06499997922,187010.325,187012.56000000285,187026.972,190291.013,,,
end of trap trial,html.Page,1_2_2,2021-04-19T10:17:41.345Z,,,,,,,,,,,,,,,,,,,,,,,,,,,,,,1289.677000002499,,form submission,,,,,,,,,,,,,,,,,,,,,191581.03499998106,191580.6900000025,190274.366,190291.19999997783,190291.013,191596.178,,,
Trap 1,flow.Sequence,1_2,2021-04-19T10:17:41.345Z,,,,,,,,,,,,,,,,,,,,,,,,,,,,,,6577.198000002507,,completion,,,,,,,,,,,,,,,,,,,,,191581.30999997957,191580.6900000025,184986.845,184991.0099999979,185003.492,191596.178,,,
Standby,html.Page,1_3_0,2021-04-19T10:17:49.352Z,,,,,,,,,,,,,,,,,,,,,,,,,,,,,,8007.651999999973,,timeout,,,,,,,,,,,,,,,,,,,,,199588.42499999446,199587.183,191579.531,191581.48500000243,191596.178,199603.83,,,
Holding screen,html.Screen,1_3_1_0_0,2021-04-19T10:17:56.349Z,,,,,,,,,,,,,,,,,,,,,,,,,,,,,,6996.880000000005,,timeout,,,,,,,,,,,,,,,,,,,,,206585.40999999968,206584.063,199587.183,199588.67499997723,199603.83,206600.71,,,
screen,html.Screen,1_3_1_0_1_0,2021-04-19T10:17:57.344Z,,,,,,,,,,,,,,,,11,,,,,,,,,,,,,,978.9199999929115,,response,,,,4,E,,,,,,Space,keypress(Space),,,,lyrical,,,,Known -- ---- --- -- --- -------- ------------ ---------- --<br>- ------- ------ --------- -- ------------ -- --- ---- -----<br>------ ---- ---- ------ ------ ------- --- ----- ---------<br>---- --- -------- -------- --- --- -- ------- --- --- -----<br>-- --- ------ ------- --- --- -------- ---- --------- --<br>---------- -- -------- ----------------,207580.48499998404,207579.6299999929,206584.063,206585.62999998685,206600.71,207583.064,,0,Known
screen,html.Screen,1_3_1_0_1_1,2021-04-19T10:17:57.918Z,,,,,,,,,,,,,,,,11,,,,,,,,,,,,,,570.7360000000335,,response,,,,4,E,,,,,,Space,keypress(Space),,,,lyrical,,,,----- as ---- --- -- --- -------- ------------ ---------- --<br>- ------- ------ --------- -- ------------ -- --- ---- -----<br>------ ---- ---- ------ ------ ------- --- ----- ---------<br>---- --- -------- -------- --- --- -- ------- --- --- -----<br>-- --- ------ ------- --- --- -------- ---- --------- --<br>---------- -- -------- ----------------,208154.37999999267,208153.80000000005,207566.417,207580.64499998,207583.064,208170.833,,1,as
screen,html.Screen,1_3_1_0_1_2,2021-04-19T10:17:58.375Z,,,,,,,,,,,,,,,,11,,,,,,,,,,,,,,439.6119999984221,,response,,,,4,E,,,,,,Space,keypress(Space),,,,lyrical,,,,----- -- Rapa --- -- --- -------- ------------ ---------- --<br>- ------- ------ --------- -- ------------ -- --- ---- -----<br>------ ---- ---- ------ ------ ------- --- ----- ---------<br>---- --- -------- -------- --- --- -- ------- --- --- -----<br>-- --- ------ ------- --- --- -------- ---- --------- --<br>---------- -- -------- ----------------,208610.98499997752,208610.44499999844,208154.186,208154.51999998186,208170.833,208611.519,,2,Rapa
screen,html.Screen,1_3_1_0_1_3,2021-04-19T10:17:58.905Z,,,,,,,,,,,,,,,,11,,,,,,,,,,,,,,529.4259999919159,,response,,,,4,E,,,,,,Space,keypress(Space),,,,lyrical,,,,----- -- ---- Nui -- --- -------- ------------ ---------- --<br>- ------- ------ --------- -- ------------ -- --- ---- -----<br>------ ---- ---- ------ ------ ------- --- ----- ---------<br>---- --- -------- -------- --- --- -- ------- --- --- -----<br>-- --- ------ ------- --- --- -------- ---- --------- --<br>---------- -- -------- ----------------,209141.53500000248,209140.94499999192,208594.872,208611.11999998684,208611.519,209144.311,,3,Nui
screen,html.Screen,1_3_1_0_1_4,2021-04-19T10:17:59.395Z,,,,,,,,,,,,,,,,11,,,,,,,,,,,,,,486.46899997768924,,response,,,,4,E,,,,,,Space,keypress(Space),,,,lyrical,,,,----- -- ---- --- to --- -------- ------------ ---------- --<br>- ------- ------ --------- -- ------------ -- --- ---- -----<br>------ ---- ---- ------ ------ ------- --- ----- ---------<br>---- --- -------- -------- --- --- -- ------- --- --- -----<br>-- --- ------ ------- --- --- -------- ---- --------- --<br>---------- -- -------- ----------------,209631.3599999994,209630.77999997768,209127.664,209141.67499999166,209144.311,209646.142,,4,to
screen,html.Screen,1_3_1_0_1_5,2021-04-19T10:17:59.769Z,,,,,,,,,,,,,,,,11,,,,,,,,,,,,,,358.2579999761656,,response,,,,4,E,,,,,,Space,keypress(Space),,,,lyrical,,,,----- -- ---- --- -- the -------- ------------ ---------- --<br>- ------- ------ --------- -- ------------ -- --- ---- -----<br>------ ---- ---- ------ ------ ------- --- ----- ---------<br>---- --- -------- -------- --- --- -- ------- --- --- -----<br>-- --- ------ ------- --- --- -------- ---- --------- --<br>---------- -- -------- ----------------,210004.96500000008,210004.39999997616,209629.495,209631.50499999756,209646.142,210015.039,,5,the
screen,html.Screen,1_3_1_0_1_6,2021-04-19T10:18:00.150Z,,,,,,,,,,,,,,,,11,,,,,,,,,,,,,,370.5959999841871,,response,,,,4,E,,,,,,Space,keypress(Space),,,,lyrical,,,,----- -- ---- --- -- --- island's ------------ ---------- --<br>- ------- ------ --------- -- ------------ -- --- ---- -----<br>------ ---- ---- ------ ------ ------- --- ----- ---------<br>---- --- -------- -------- --- --- -- ------- --- --- -----<br>-- --- ------ ------- --- --- -------- ---- --------- --<br>---------- -- -------- ----------------,210386.18000000133,210385.63499998418,209998.392,210005.10499998927,210015.039,210400.464,,6,island's
screen,html.Screen,1_3_1_0_1_7,2021-04-19T10:18:00.736Z,,,,,,,,,,,,,,,,11,,,,,,,,,,,,,,571.1260000010079,,response,,,,4,E,,,,,,Space,keypress(Space),,,,lyrical,,,,"----- -- ---- --- -- --- -------- inhabitants, ---------- --<br>- ------- ------ --------- -- ------------ -- --- ---- -----<br>------ ---- ---- ------ ------ ------- --- ----- ---------<br>---- --- -------- -------- --- --- -- ------- --- --- -----<br>-- --- ------ ------- --- --- -------- ---- --------- --<br>---------- -- -------- ----------------",210972.2550000006,210971.59000000102,210383.817,210386.31499998155,210400.464,210986.908,,7,"inhabitants,"
screen,html.Screen,1_3_1_0_1_8,2021-04-19T10:18:01.178Z,,,,,,,,,,,,,,,,11,,,,,,,,,,,,,,427.1569999899366,,response,,,,4,E,,,,,,Space,keypress(Space),,,,lyrical,,,,----- -- ---- --- -- --- -------- ------------ Rongorongo --<br>- ------- ------ --------- -- ------------ -- --- ---- -----<br>------ ---- ---- ------ ------ ------- --- ----- ---------<br>---- --- -------- -------- --- --- -- ------- --- --- -----<br>-- --- ------ ------- --- --- -------- ---- --------- --<br>---------- -- -------- ----------------,211414.74999999627,211414.06499998993,210970.261,210972.3899999808,210986.908,211419.814,,8,Rongorongo
screen,html.Screen,1_3_1_0_1_9,2021-04-19T10:18:01.929Z,,,,,,,,,,,,,,,,11,,,,,,,,,,,,,,744.9609999828972,,response,,,,4,E,,,,,,Space,keypress(Space),,,,lyrical,,,,----- -- ---- --- -- --- -------- ------------ ---------- is<br>- ------- ------ --------- -- ------------ -- --- ---- -----<br>------ ---- ---- ------ ------ ------- --- ----- ---------<br>---- --- -------- -------- --- --- -- ------- --- --- -----<br>-- --- ------ ------- --- --- -------- ---- --------- --<br>---------- -- -------- ----------------,212165.48999998486,212164.7749999829,211403.167,211414.89499999443,211419.814,212171.866,,9,is
screen,html.Screen,1_3_1_0_1_10,2021-04-19T10:18:02.338Z,,,,,,,,,,,,,,,,11,,,,,,,,,,,,,,401.83899998795823,,response,,,,4,E,,,,,,Space,keypress(Space),,,,lyrical,,,,----- -- ---- --- -- --- -------- ------------ ---------- --<br>a ------- ------ --------- -- ------------ -- --- ---- -----<br>------ ---- ---- ------ ------ ------- --- ----- ---------<br>---- --- -------- -------- --- --- -- ------- --- --- -----<br>-- --- ------ ------- --- --- -------- ---- --------- --<br>---------- -- -------- ----------------,212574.34999998077,212573.70499998797,212155.219,212165.65499998978,212171.866,212590.922,,10,a
screen,html.Screen,1_3_1_0_1_11,2021-04-19T10:18:02.758Z,,,,,,,,,,,,,,,,11,,,,,,,,,,,,,,402.7429999872402,,response,,,,4,E,,,,,,Space,keypress(Space),,,,lyrical,,,,----- -- ---- --- -- --- -------- ------------ ---------- --<br>- writing ------ --------- -- ------------ -- --- ---- -----<br>------ ---- ---- ------ ------ ------- --- ----- ---------<br>---- --- -------- -------- --- --- -- ------- --- --- -----<br>-- --- ------ ------- --- --- -------- ---- --------- --<br>---------- -- -------- ----------------,212994.37999998918,212993.66499998723,212574.275,212574.4849999901,212590.922,213010.382,,11,writing
screen,html.Screen,1_3_1_0_1_12,2021-04-19T10:18:03.160Z,,,,,,,,,,,,,,,,11,,,,,,,,,,,,,,385.00299998160335,,response,,,,4,E,,,,,,Space,keypress(Space),,,,lyrical,,,,----- -- ---- --- -- --- -------- ------------ ---------- --<br>- ------- system --------- -- ------------ -- --- ---- -----<br>------ ---- ---- ------ ------ ------- --- ----- ---------<br>---- --- -------- -------- --- --- -- ------- --- --- -----<br>-- --- ------ ------- --- --- -------- ---- --------- --<br>---------- -- -------- ----------------,213396.08999999473,213395.38499998162,212993.735,212994.56500000088,213010.382,213412.036,,12,system
screen,html.Screen,1_3_1_0_1_13,2021-04-19T10:18:03.588Z,,,,,,,,,,,,,,,,11,,,,,,,,,,,,,,411.4739999874437,,response,,,,4,E,,,,,,Space,keypress(Space),,,,lyrical,,,,----- -- ---- --- -- --- -------- ------------ ---------- --<br>- ------- ------ comprised -- ------------ -- --- ---- -----<br>------ ---- ---- ------ ------ ------- --- ----- ---------<br>---- --- -------- -------- --- --- -- ------- --- --- -----<br>-- --- ------ ------- --- --- -------- ---- --------- --<br>---------- -- -------- ----------------,213824.20999999158,213823.50999998744,213395.389,213396.2799999863,213412.036,213830.368,,13,comprised
screen,html.Screen,1_3_1_0_1_14,2021-04-19T10:18:03.922Z,,,,,,,,,,,,,,,,11,,,,,,,,,,,,,,327.40199999071774,,response,,,,4,E,,,,,,Space,keypress(Space),,,,lyrical,,,,----- -- ---- --- -- --- -------- ------------ ---------- --<br>- ------- ------ --------- of ------------ -- --- ---- -----<br>------ ---- ---- ------ ------ ------- --- ----- ---------<br>---- --- -------- -------- --- --- -- ------- --- --- -----<br>-- --- ------ ------- --- --- -------- ---- --------- --<br>---------- -- -------- ----------------,214158.4299999813,214157.7699999907,213813.721,213824.39999998314,213830.368,214167.375,,14,of
screen,html.Screen,1_3_1_0_1_15,2021-04-19T10:18:04.963Z,,,,,,,,,,,,,,,,11,,,,,,,,,,,,,,1031.0499999804888,,response,,,,4,E,,,,,,Space,keypress(Space),,,,lyrical,,,,----- -- ---- --- -- --- -------- ------------ ---------- --<br>- ------- ------ --------- -- pictographs. -- --- ---- -----<br>------ ---- ---- ------ ------ ------- --- ----- ---------<br>---- --- -------- -------- --- --- -- ------- --- --- -----<br>-- --- ------ ------- --- --- -------- ---- --------- --<br>---------- -- -------- ----------------,215199.09499998903,215198.4249999805,214150.728,214158.62000000197,214167.375,215216.259,,15,pictographs.
screen,html.Screen,1_3_1_0_1_16,2021-04-19T10:18:05.356Z,,,,,,,,,,,,,,,,11,,,,,,,,,,,,,,375.52599999689846,,response,,,,4,E,,,,,,Space,keypress(Space),,,,lyrical,,,,----- -- ---- --- -- --- -------- ------------ ---------- --<br>- ------- ------ --------- -- ------------ It --- ---- -----<br>------ ---- ---- ------ ------ ------- --- ----- ---------<br>---- --- -------- -------- --- --- -- ------- --- --- -----<br>-- --- ------ ------- --- --- -------- ---- --------- --<br>---------- -- -------- ----------------,215592.49999999884,215591.7849999969,215199.612,215199.24999997602,215216.259,215605.989,,16,It
screen,html.Screen,1_3_1_0_1_17,2021-04-19T10:18:05.641Z,,,,,,,,,,,,,,,,11,,,,,,,,,,,,,,271.0059999987134,,response,,,,4,E,,,,,,Space,keypress(Space),,,,lyrical,,,,----- -- ---- --- -- --- -------- ------------ ---------- --<br>- ------- ------ --------- -- ------------ -- has ---- -----<br>------ ---- ---- ------ ------ ------- --- ----- ---------<br>---- --- -------- -------- --- --- -- ------- --- --- -----<br>-- --- ------ ------- --- --- -------- ---- --------- --<br>---------- -- -------- ----------------,215877.60499998694,215876.99499999871,215589.342,215592.68499998143,215605.989,215889.082,,17,has
screen,html.Screen,1_3_1_0_1_18,2021-04-19T10:18:05.935Z,,,,,,,,,,,,,,,,11,,,,,,,,,,,,,,281.9579999865382,,response,,,,4,E,,,,,,Space,keypress(Space),,,,lyrical,,,,----- -- ---- --- -- --- -------- ------------ ---------- --<br>- ------- ------ --------- -- ------------ -- --- been -----<br>------ ---- ---- ------ ------ ------- --- ----- ---------<br>---- --- -------- -------- --- --- -- ------- --- --- -----<br>-- --- ------ ------- --- --- -------- ---- --------- --<br>---------- -- -------- ----------------,216171.65000000386,216171.03999998653,215872.435,215877.7649999829,215889.082,216174.236,,18,been
screen,html.Screen,1_3_1_0_1_19,2021-04-19T10:18:06.359Z,,,,,,,,,,,,,,,,11,,,,,,,,,,,,,,420.54899999385816,,response,,,,4,E,,,,,,Space,keypress(Space),,,,lyrical,,,,----- -- ---- --- -- --- -------- ------------ ---------- --<br>- ------- ------ --------- -- ------------ -- --- ---- found<br>------ ---- ---- ------ ------ ------- --- ----- ---------<br>---- --- -------- -------- --- --- -- ------- --- --- -----<br>-- --- ------ ------- --- --- -------- ---- --------- --<br>---------- -- -------- ----------------,216595.44499998447,216594.78499999386,216157.589,216171.78499998408,216174.236,216609.926,,19,found
screen,html.Screen,1_3_1_0_1_20,2021-04-19T10:18:06.988Z,,,,,,,,,,,,,,,,11,,,,,,,,,,,,,,613.7839999911084,,response,,,,4,E,,,,,,Space,keypress(Space),,,,lyrical,,,,----- -- ---- --- -- --- -------- ------------ ---------- --<br>- ------- ------ --------- -- ------------ -- --- ---- -----<br>carved ---- ---- ------ ------ ------- --- ----- ---------<br>---- --- -------- -------- --- --- -- ------- --- --- -----<br>-- --- ------ ------- --- --- -------- ---- --------- --<br>---------- -- -------- ----------------,217224.32999999728,217223.70999999112,216593.279,216595.58500000276,216609.926,217225.984,,20,carved
screen,html.Screen,1_3_1_0_1_21,2021-04-19T10:18:07.424Z,,,,,,,,,,,,,,,,11,,,,,,,,,,,,,,433.6459999801009,,response,,,,4,E,,,,,,Space,keypress(Space),,,,lyrical,,,,----- -- ---- --- -- --- -------- ------------ ---------- --<br>- ------- ------ --------- -- ------------ -- --- ---- -----<br>------ into ---- ------ ------ ------- --- ----- ---------<br>---- --- -------- -------- --- --- -- ------- --- --- -----<br>-- --- ------ ------- --- --- -------- ---- --------- --<br>---------- -- -------- ----------------,217660.3349999932,217659.6299999801,217209.337,217224.4649999775,217225.984,217664.024,,21,into
screen,html.Screen,1_3_1_0_1_22,2021-04-19T10:18:07.843Z,,,,,,,,,,,,,,,,11,,,,,,,,,,,,,,414.8609999953478,,response,,,,4,E,,,,,,Space,keypress(Space),,,,lyrical,,,,----- -- ---- --- -- --- -------- ------------ ---------- --<br>- ------- ------ --------- -- ------------ -- --- ---- -----<br>------ ---- many ------ ------ ------- --- ----- ---------<br>---- --- -------- -------- --- --- -- ------- --- --- -----<br>-- --- ------ ------- --- --- -------- ---- --------- --<br>---------- -- -------- ----------------,218079.58999997936,218078.88499999535,217647.377,217660.52499998477,217664.024,218080.194,,22,many
screen,html.Screen,1_3_1_0_1_23,2021-04-19T10:18:08.234Z,,,,,,,,,,,,,,,,11,,,,,,,,,,,,,,389.1659999882395,,response,,,,4,E,,,,,,Space,keypress(Space),,,,lyrical,,,,----- -- ---- --- -- --- -------- ------------ ---------- --<br>- ------- ------ --------- -- ------------ -- --- ---- -----<br>------ ---- ---- oblong ------ ------- --- ----- ---------<br>---- --- -------- -------- --- --- -- ------- --- --- -----<br>-- --- ------ ------- --- --- -------- ---- --------- --<br>---------- -- -------- ----------------,218470.07499999017,218469.35999998823,218063.547,218079.78000000003,218080.194,218482.128,,23,oblong
screen,html.Screen,1_3_1_0_1_24,2021-04-19T10:18:08.739Z,,,,,,,,,,,,,,,,11,,,,,,,,,,,,,,492.4719999868248,,response,,,,4,E,,,,,,Space,keypress(Space),,,,lyrical,,,,----- -- ---- --- -- --- -------- ------------ ---------- --<br>- ------- ------ --------- -- ------------ -- --- ---- -----<br>------ ---- ---- ------ wooden ------- --- ----- ---------<br>---- --- -------- -------- --- --- -- ------- --- --- -----<br>-- --- ------ ------- --- --- -------- ---- --------- --<br>---------- -- -------- ----------------,218975.294999982,218974.59999998682,218465.481,218470.26000000187,218482.128,218983.675,,24,wooden
screen,html.Screen,1_3_1_0_1_25,2021-04-19T10:18:09.190Z,,,,,,,,,,,,,,,,11,,,,,,,,,,,,,,441.9749999901396,,response,,,,4,E,,,,,,Space,keypress(Space),,,,lyrical,,,,----- -- ---- --- -- --- -------- ------------ ---------- --<br>- ------- ------ --------- -- ------------ -- --- ---- -----<br>------ ---- ---- ------ ------ tablets --- ----- ---------<br>---- --- -------- -------- --- --- -- ------- --- --- -----<br>-- --- ------ ------- --- --- -------- ---- --------- --<br>---------- -- -------- ----------------,219426.2699999963,219425.64999999013,218967.028,218975.4649999959,218983.675,219435.076,,25,tablets
screen,html.Screen,1_3_1_0_1_26,2021-04-19T10:18:09.641Z,,,,,,,,,,,,,,,,11,,,,,,,,,,,,,,441.1889999989653,,response,,,,4,E,,,,,,Space,keypress(Space),,,,lyrical,,,,----- -- ---- --- -- --- -------- ------------ ---------- --<br>- ------- ------ --------- -- ------------ -- --- ---- -----<br>------ ---- ---- ------ ------ ------- and ----- ---------<br>---- --- -------- -------- --- --- -- ------- --- --- -----<br>-- --- ------ ------- --- --- -------- ---- --------- --<br>---------- -- -------- ----------------,219876.99499999871,219876.26499999897,219418.429,219426.4049999765,219435.076,219887.182,,26,and
screen,html.Screen,1_3_1_0_1_27,2021-04-19T10:18:09.987Z,,,,,,,,,,,,,,,,11,,,,,,,,,,,,,,334.9979999824718,,response,,,,4,E,,,,,,Space,keypress(Space),,,,lyrical,,,,----- -- ---- --- -- --- -------- ------------ ---------- --<br>- ------- ------ --------- -- ------------ -- --- ---- -----<br>------ ---- ---- ------ ------ ------- --- other ---------<br>---- --- -------- -------- --- --- -- ------- --- --- -----<br>-- --- ------ ------- --- --- -------- ---- --------- --<br>---------- -- -------- ----------------,220222.85999997985,220222.17999998247,219870.535,219877.18999999925,219887.182,220239.06,,27,other
screen,html.Screen,1_3_1_0_1_28,2021-04-19T10:18:10.703Z,,,,,,,,,,,,,,,,11,,,,,,,,,,,,,,699.6999999899999,,response,,,,4,E,,,,,,Space,keypress(Space),,,,lyrical,,,,----- -- ---- --- -- --- -------- ------------ ---------- --<br>- ------- ------ --------- -- ------------ -- --- ---- -----<br>------ ---- ---- ------ ------ ------- --- ----- artifacts<br>---- --- -------- -------- --- --- -- ------- --- --- -----<br>-- --- ------ ------- --- --- -------- ---- --------- --<br>---------- -- -------- ----------------,220939.4199999806,220938.75999999,220222.413,220223.004999978,220239.06,220940.501,,28,artifacts
screen,html.Screen,1_3_1_0_1_29,2021-04-19T10:18:11.198Z,,,,,,,,,,,,,,,,11,,,,,,,,,,,,,,493.4489999769139,,response,,,,4,E,,,,,,Space,keypress(Space),,,,lyrical,,,,----- -- ---- --- -- --- -------- ------------ ---------- --<br>- ------- ------ --------- -- ------------ -- --- ---- -----<br>------ ---- ---- ------ ------ ------- --- ----- ---------<br>from --- -------- -------- --- --- -- ------- --- --- -----<br>-- --- ------ ------- --- --- -------- ---- --------- --<br>---------- -- -------- ----------------,221434.64999998105,221433.9499999769,220923.854,220939.56499997876,220940.501,221445.261,,29,from
screen,html.Screen,1_3_1_0_1_30,2021-04-19T10:18:11.524Z,,,,,,,,,,,,,,,,11,,,,,,,,,,,,,,314.7239999824087,,response,,,,4,E,,,,,,Space,keypress(Space),,,,lyrical,,,,----- -- ---- --- -- --- -------- ------------ ---------- --<br>- ------- ------ --------- -- ------------ -- --- ---- -----<br>------ ---- ---- ------ ------ ------- --- ----- ---------<br>---- the -------- -------- --- --- -- ------- --- --- -----<br>-- --- ------ ------- --- --- -------- ---- --------- --<br>---------- -- -------- ----------------,221760.68499998655,221759.9849999824,221428.614,221434.8400000017,221445.261,221761.685,,30,the
screen,html.Screen,1_3_1_0_1_31,2021-04-19T10:18:11.955Z,,,,,,,,,,,,,,,,11,,,,,,,,,,,,,,428.6049999986426,,response,,,,4,E,,,,,,Space,keypress(Space),,,,lyrical,,,,----- -- ---- --- -- --- -------- ------------ ---------- --<br>- ------- ------ --------- -- ------------ -- --- ---- -----<br>------ ---- ---- ------ ------ ------- --- ----- ---------<br>---- --- island's -------- --- --- -- ------- --- --- -----<br>-- --- ------ ------- --- --- -------- ---- --------- --<br>---------- -- -------- ----------------,222191.78999998257,222190.28999999864,221745.038,221760.8749999781,221761.685,222197.053,,31,island's
screen,html.Screen,1_3_1_0_1_32,2021-04-19T10:18:12.349Z,,,,,,,,,,,,,,,,11,,,,,,,,,,,,,,387.8169999914826,,response,,,,4,E,,,,,,Space,keypress(Space),,,,lyrical,,,,----- -- ---- --- -- --- -------- ------------ ---------- --<br>- ------- ------ --------- -- ------------ -- --- ---- -----<br>------ ---- ---- ------ ------ ------- --- ----- ---------<br>---- --- -------- history. --- --- -- ------- --- --- -----<br>-- --- ------ ------- --- --- -------- ---- --------- --<br>---------- -- -------- ----------------,222585.51999999327,222584.8699999915,222180.406,222191.91999998293,222197.053,222598.258,,32,history.
screen,html.Screen,1_3_1_0_1_33,2021-04-19T10:18:12.716Z,,,,,,,,,,,,,,,,11,,,,,,,,,,,,,,353.06700000181445,,response,,,,4,E,,,,,,Space,keypress(Space),,,,lyrical,,,,----- -- ---- --- -- --- -------- ------------ ---------- --<br>- ------- ------ --------- -- ------------ -- --- ---- -----<br>------ ---- ---- ------ ------ ------- --- ----- ---------<br>---- --- -------- -------- The --- -- ------- --- --- -----<br>-- --- ------ ------- --- --- -------- ---- --------- --<br>---------- -- -------- ----------------,222951.96999999462,222951.32500000182,222581.611,222585.6700000004,222598.258,222966.579,,33,The
screen,html.Screen,1_3_1_0_1_34,2021-04-19T10:18:13.050Z,,,,,,,,,,,,,,,,11,,,,,,,,,,,,,,319.27599999462836,,response,,,,4,E,,,,,,Space,keypress(Space),,,,lyrical,,,,----- -- ---- --- -- --- -------- ------------ ---------- --<br>- ------- ------ --------- -- ------------ -- --- ---- -----<br>------ ---- ---- ------ ------ ------- --- ----- ---------<br>---- --- -------- -------- --- art -- ------- --- --- -----<br>-- --- ------ ------- --- --- -------- ---- --------- --<br>---------- -- -------- ----------------,223286.5649999876,223285.85499999463,222949.932,222952.1099999838,222966.579,223301.678,,34,art
screen,html.Screen,1_3_1_0_1_35,2021-04-19T10:18:13.344Z,,,,,,,,,,,,,,,,11,,,,,,,,,,,,,,277.6069999852334,,response,,,,4,E,,,,,,Space,keypress(Space),,,,lyrical,,,,----- -- ---- --- -- --- -------- ------------ ---------- --<br>- ------- ------ --------- -- ------------ -- --- ---- -----<br>------ ---- ---- ------ ------ ------- --- ----- ---------<br>---- --- -------- -------- --- --- of ------- --- --- -----<br>-- --- ------ ------- --- --- -------- ---- --------- --<br>---------- -- -------- ----------------,223580.00499999616,223579.28499998525,223285.031,223286.78999998374,223301.678,223586.506,,35,of
screen,html.Screen,1_3_1_0_1_36,2021-04-19T10:18:13.592Z,,,,,,,,,,,,,,,,11,,,,,,,,,,,,,,241.058999985049,,response,,,,4,E,,,,,,Space,keypress(Space),,,,lyrical,,,,----- -- ---- --- -- --- -------- ------------ ---------- --<br>- ------- ------ --------- -- ------------ -- --- ---- -----<br>------ ---- ---- ------ ------ ------- --- ----- ---------<br>---- --- -------- -------- --- --- -- writing --- --- -----<br>-- --- ------ ------- --- --- -------- ---- --------- --<br>---------- -- -------- ----------------,223828.27499997802,223827.56499998504,223569.859,223580.1999999967,223586.506,223837.977,,36,writing
screen,html.Screen,1_3_1_0_1_37,2021-04-19T10:18:14.016Z,,,,,,,,,,,,,,,,11,,,,,,,,,,,,,,413.3429999811924,,response,,,,4,E,,,,,,Space,keypress(Space),,,,lyrical,,,,----- -- ---- --- -- --- -------- ------------ ---------- --<br>- ------- ------ --------- -- ------------ -- --- ---- -----<br>------ ---- ---- ------ ------ ------- --- ----- ---------<br>---- --- -------- -------- --- --- -- ------- was --- -----<br>-- --- ------ ------- --- --- -------- ---- --------- --<br>---------- -- -------- ----------------,224251.97499999194,224251.3199999812,223821.33,223828.4649999987,223837.977,224255.604,,37,was
screen,html.Screen,1_3_1_0_1_38,2021-04-19T10:18:14.270Z,,,,,,,,,,,,,,,,11,,,,,,,,,,,,,,250.36099998938153,,response,,,,4,E,,,,,,Space,keypress(Space),,,,lyrical,,,,----- -- ---- --- -- --- -------- ------------ ---------- --<br>- ------- ------ --------- -- ------------ -- --- ---- -----<br>------ ---- ---- ------ ------ ------- --- ----- ---------<br>---- --- -------- -------- --- --- -- ------- --- not -----<br>-- --- ------ ------- --- --- -------- ---- --------- --<br>---------- -- -------- ----------------,224506.65999998455,224505.96499998937,224238.957,224252.1199999901,224255.604,224508.61,,38,not
