sender,sender_type,sender_id,timestamp,meta,,Blues,Classical,Country,Dance,Electronic,Folk,Gospel,Hip-Hop,Jazz,Latin,Musical/Film,New-age,Pop,Provo_ID,R&B,Rap,Reggae,Religious,Rock,Soul,Swing,Traditional,age,artist_name,correct,correctResponse,distraction,duration,education,ended_on,familiarity,gender,headphone_check_performance,item,list,music_frequency,offensiveness,pleasantness,position_correct,preference,response,response_action,snippet_file,song_name,song_rating,sound,stimulus_1,stimulus_2,stimulus_3,text,time_commit,time_end,time_render,time_run,time_show,time_switch,url,word,word_ID
Introduction,html.Screen,0_0,2021-04-27T16:32:43.964Z,"{""labjs_version"":""20.2.2"",""labjs_build"":{""flavor"":""production"",""commit"":""a25486e0c714a0ae2ce03ff94b7bb6896854dcfa""},""location"":""https://run.pavlovia.org/mvasilev/music_a/"",""userAgent"":""Mozilla/5.0 (Windows NT 10.0; Win64; x64) AppleWebKit/537.36 (KHTML, like Gecko) Chrome/90.0.4430.85 Safari/537.36"",""platform"":""Win32"",""language"":""en-GB"",""locale"":""en-GB"",""timeZone"":""Europe/London"",""timezoneOffset"":-60,""screen_width"":1536,""screen_height"":864,""scroll_width"":1522,""scroll_height"":658,""window_innerWidth"":1522,""window_innerHeight"":706,""devicePixelRatio"":1.25}",,,,,,,,,,,,,,,,,,,,,,,,,,,,,5858.8029999907985,,response,,,,,,,,,,,continue,click button,,,,,,,,,10169.355000020005,10168.494999990799,4276.37,4286.399999982677,4309.692,10176.451,{},,
Volume calibration,html.Screen,0_1,2021-04-27T16:32:49.160Z,,,,,,,,,,,,,,,,,,,,,,,,,,,,,,5187.553999981263,,response,,,,,,,,,,,continue,click button,,,,,,,,,15365.865000057966,15364.004999981262,10159.834,10169.495000038296,10176.451,15376.513,,,
Task instructions,html.Screen,0_2,2021-04-27T16:32:51.187Z,,,,,,,,,,,,,,,,,,,,,,,,,,,,,,2014.71700006657,,response,,,,,,,,,,,continue,click button,,,,,,,,,17392.860000021756,17391.23000006657,15359.943,15365.965000004508,15376.513,17409.909,,,
Sounds,html.Screen,0_3_0_0,2021-04-27T16:32:55.454Z,,,,,,,,,,,,,,,,,,,,,,,,,,,,,,4266.785,,timeout,,,,,,,,,2,,,,,,,,I,S,O,,21659.74000003189,21643.351,17376.639,17393.615000066347,17409.909,21676.694,,,
Judgement,html.Screen,0_3_0_1,2021-04-27T16:32:56.969Z,,,,,,,,,,,,,,,,,,,,,,,,,,,true,2,,1495.8460000577797,,response,,,,,,,,,2,,2,click #choice-2,,,,,I,S,O,,23174.390000058338,23172.54000005778,21643.351,21660.275000031106,21676.694,23176.708,,,
Trial,flow.Sequence,0_3_0,2021-04-27T16:32:56.970Z,,,,,,,,,,,,,,,,,,,,,,,,,,,,,,5762.63100005778,,completion,,,,,,,,,2,,,,,,,,I,S,O,,23175.675000064075,23172.54000005778,17376.639,17393.415000056848,17409.909,23176.708,,,
Sounds,html.Screen,0_3_1_0,2021-04-27T16:33:01.206Z,,,,,,,,,,,,,,,,,,,,,,,,,,,,,,4250.091,,timeout,,,,,,,,,3,,,,,,,,O,I,S,,27411.674999981187,27410.398,23160.041,23176.145000034012,23176.708,27426.799,,,
Judgement,html.Screen,0_3_1_1,2021-04-27T16:33:01.769Z,,,,,,,,,,,,,,,,,,,,,,,,,,,true,3,,545.6710000369931,,response,,,,,,,,,3,,3,click #choice-3,,,,,O,I,S,,27974.280000082217,27972.470000036992,27410.398,27411.994999973103,27426.799,27976.781,,,
Trial,flow.Sequence,0_3_1,2021-04-27T16:33:01.769Z,,,,,,,,,,,,,,,,,,,,,,,,,,,,,,4795.762000036993,,completion,,,,,,,,,3,,,,,,,,O,I,S,,27974.820000003092,27972.470000036992,23160.041,23176.025000051595,23176.708,27976.781,,,
Sounds,html.Screen,0_3_2_0,2021-04-27T16:33:06.006Z,,,,,,,,,,,,,,,,,,,,,,,,,,,,,,4250.067999999999,,timeout,,,,,,,,,1,,,,,,,,S,I,O,,32211.375000071712,32210.242,27960.072,27975.190000026487,27976.781,32226.849,,,
Judgement,html.Screen,0_3_2_1,2021-04-27T16:33:08.909Z,,,,,,,,,,,,,,,,,,,,,,,,,,,false,1,,2885.9809999982135,,response,,,,,,,,,1,,3,click #choice-3,,,,,S,I,O,,35114.13500003982,35112.82999999821,32210.242,32211.705000023358,32226.849,35126.933,,,
Trial,flow.Sequence,0_3_2,2021-04-27T16:33:08.909Z,,,,,,,,,,,,,,,,,,,,,,,,,,,,,,7136.048999998213,,completion,,,,,,,,,1,,,,,,,,S,I,O,,35114.56500005443,35112.82999999821,27960.072,27975.0800000038,27976.781,35126.933,,,
Sounds,html.Screen,0_3_3_0,2021-04-27T16:33:13.156Z,,,,,,,,,,,,,,,,,,,,,,,,,,,,,,4250.027000000002,,timeout,,,,,,,,,1,,,,,,,,S,O,I,,39361.36500001885,39360.415,35110.543,35114.86500001047,35126.933,39376.96,,,
Judgement,html.Screen,0_3_3_1,2021-04-27T16:33:14.537Z,,,,,,,,,,,,,,,,,,,,,,,,,,,true,1,,1363.514999998697,,response,,,,,,,,,1,,1,click #choice-1,,,,,S,O,I,,40742.459999979474,40740.474999998696,39360.415,39361.57000006642,39376.96,40743.636,,,
Trial,flow.Sequence,0_3_3,2021-04-27T16:33:14.537Z,,,,,,,,,,,,,,,,,,,,,,,,,,,,,,5613.541999998699,,completion,,,,,,,,,1,,,,,,,,S,O,I,,40742.92500002775,40740.474999998696,35110.543,35114.765000063926,35126.933,40743.636,,,
Sounds,html.Screen,0_3_4_0,2021-04-27T16:33:18.773Z,,,,,,,,,,,,,,,,,,,,,,,,,,,,,,4250.077000000005,,timeout,,,,,,,,,2,,,,,,,,O,S,I,,44978.415000019595,44977.12,40727.303,40743.23000002187,40743.636,44993.713,,,
Judgement,html.Screen,0_3_4_1,2021-04-27T16:33:20.003Z,,,,,,,,,,,,,,,,,,,,,,,,,,,true,2,,1212.8470000787493,,response,,,,,,,,,2,,2,click #choice-2,,,,,O,S,I,,46208.75500002876,46206.56000007875,44977.12,44978.73500001151,44993.713,46210.432,,,
Trial,flow.Sequence,0_3_4,2021-04-27T16:33:20.004Z,,,,,,,,,,,,,,,,,,,,,,,,,,,,,,5462.924000078754,,completion,,,,,,,,,2,,,,,,,,O,S,I,,46209.210000000894,46206.56000007875,40727.303,40743.13499999698,40743.636,46210.432,,,
Sounds,html.Screen,0_3_5_0,2021-04-27T16:33:24.240Z,,,,,,,,,,,,,,,,,,,,,,,,,,,,,,4250.0610000000015,,timeout,,,,,,,,,3,,,,,,,,I,O,S,,50445.155000081286,50443.86,46193.906,46209.50500003528,46210.432,50460.493,,,
Judgement,html.Screen,0_3_5_1,2021-04-27T16:33:25.146Z,,,,,,,,,,,,,,,,,,,,,,,,,,,true,3,,890.5769999751501,,response,,,,,,,,,3,,3,click #choice-3,,,,,I,O,S,,51352.100000018254,51351.06999997515,50443.86,50445.47000003513,50460.493,51360.457,,,
Trial,flow.Sequence,0_3_5,2021-04-27T16:33:25.147Z,,,,,,,,,,,,,,,,,,,,,,,,,,,,,,5140.637999975152,,completion,,,,,,,,,3,,,,,,,,I,O,S,,51352.41000005044,51351.06999997515,46193.906,46209.41999997012,46210.432,51360.457,,,
Task,flow.Loop,0_3,2021-04-27T16:33:25.154Z,,,,,,,,,,,,,,,,,,,,,,,,,,,,,,33941.16099997515,,completion,,,0.8333333333333334,,,,,,,,,,,,,,,,,,51359.24000001978,51351.06999997515,17376.639,17393.245000042953,17409.909,51360.457,,,
Trap,html.Screen,0_4,2021-04-27T16:33:25.156Z,,,,,,,,,,,,,,,,,,,,,,,,,,,,,,NaN,,skipped,,,,,,,,,,,,,,,,,,,,,51361.35999998078,51351.06999997515,,51361.10500001814,,51360.457,,,
Thanks,html.Screen,0_5,2021-04-27T16:33:33.844Z,,,,,,,,,,,,,,,,,,,,,,,,,,,,,,8688.993000049544,,response,,,,,,,,,,,continue,click button,,,,,,,,,60050.984999979846,60049.450000049546,51344.037,51361.55500006862,51360.457,72560.73,,,
Headphone screening,flow.Sequence,0,2021-04-27T16:33:33.845Z,,,,,,,,,,,,,,,,,,,,,,,,,,,,,,55739.75800004954,,completion,,,,,,,,,,,,,,,,,,,,,60051.525000017136,60049.450000049546,4276.37,4286.380000063218,4309.692,72560.73,,,
Instructions,html.Page,1_0,2021-04-27T16:35:05.596Z,,,,,,,,,,,,,,,,,,,,,,,,,,,,,,79241.42500004124,,form submission,,,,,,,,,,,,,,,,,,,,,151802.44500003755,151802.15500004124,72544.038,72553.6200000206,72560.73,151795.464,,,
Holding screen,html.Screen,1_1_0_0,2021-04-27T16:35:15.574Z,,,,,,,,,,,,,,,,,,,,,,,,,,,,,,10033.353000000003,,timeout,,,,,,,,,,,,,,,,,,,,,161780.32999997959,161779.125,151778.604,151802.60000005364,151795.464,161828.817,,,
screen,html.Screen,1_1_0_1_0,2021-04-27T16:35:16.989Z,,,,,,,,,,,,,,,,53,,,,,,,,,,,,,,1357.393000072596,,response,,,,99,,,,,,,Space,keypress(Space),,,,,,,,When -- ----- -- ------ - ------- --- ----------<br>------------- ------ ------ ---- ---- ------- ----- -- ----<br>-------- ------- -- ---------- --- - --- ----- ----- ----<br>---- --- --- ----- --- ---- ---- ------- ----- ---- -------<br>--- --- -- ----- -- --- ---- -- --- ---- -- ------ ------<br>--- ----- -- ----,163195.1700000791,163186.2100000726,161779.125,161780.8349999832,161828.817,163195.518,,0,When
screen,html.Screen,1_1_0_1_1,2021-04-27T16:35:17.485Z,,,,,,,,,,,,,,,,53,,,,,,,,,,,,,,494.9919999857957,,response,,,,99,,,,,,,Space,keypress(Space),,,,,,,,---- it ----- -- ------ - ------- --- ----------<br>------------- ------ ------ ---- ---- ------- ----- -- ----<br>-------- ------- -- ---------- --- - --- ----- ----- ----<br>---- --- --- ----- --- ---- ---- ------- ----- ---- -------<br>--- --- -- ----- -- --- ---- -- --- ---- -- ------ ------<br>--- ----- -- ----,163691.6050000582,163690.5099999858,163178.724,163195.5050000688,163195.518,163695.531,,1,it
screen,html.Screen,1_1_0_1_2,2021-04-27T16:35:18.005Z,,,,,,,,,,,,,,,,53,,,,,,,,,,,,,,514.1590000469878,,response,,,,99,,,,,,,Space,keypress(Space),,,,,,,,---- -- comes -- ------ - ------- --- ----------<br>------------- ------ ------ ---- ---- ------- ----- -- ----<br>-------- ------- -- ---------- --- - --- ----- ----- ----<br>---- --- --- ----- --- ---- ---- ------- ----- ---- -------<br>--- --- -- ----- -- --- ---- -- --- ---- -- ------ ------<br>--- ----- -- ----,164210.8550000703,164209.69000004698,163678.868,163691.91499997396,163695.531,164240.579,,2,comes
screen,html.Screen,1_1_0_1_3,2021-04-27T16:35:18.534Z,,,,,,,,,,,,,,,,53,,,,,,,,,,,,,,498.176000056701,,response,,,,99,,,,,,,Space,keypress(Space),,,,,,,,---- -- ----- to ------ - ------- --- ----------<br>------------- ------ ------ ---- ---- ------- ----- -- ----<br>-------- ------- -- ---------- --- - --- ----- ----- ----<br>---- --- --- ----- --- ---- ---- ------- ----- ---- -------<br>--- --- -- ----- -- --- ---- -- --- ---- -- ------ ------<br>--- ----- -- ----,164739.89500000607,164738.7550000567,164195.75,164211.16499998607,164240.579,164745.516,,3,to
screen,html.Screen,1_1_0_1_4,2021-04-27T16:35:19.070Z,,,,,,,,,,,,,,,,53,,,,,,,,,,,,,,529.3889999983949,,response,,,,99,,,,,,,Space,keypress(Space),,,,,,,,---- -- ----- -- having - ------- --- ----------<br>------------- ------ ------ ---- ---- ------- ----- -- ----<br>-------- ------- -- ---------- --- - --- ----- ----- ----<br>---- --- --- ----- --- ---- ---- ------- ----- ---- -------<br>--- --- -- ----- -- --- ---- -- --- ---- -- ------ ------<br>--- ----- -- ----,165275.9800000349,165274.9049999984,164728.912,164740.22500007413,164745.516,165278.887,,4,having
screen,html.Screen,1_1_0_1_5,2021-04-27T16:35:19.568Z,,,,,,,,,,,,,,,,53,,,,,,,,,,,,,,494.37800008349586,,response,,,,99,,,,,,,Space,keypress(Space),,,,,,,,---- -- ----- -- ------ a ------- --- ----------<br>------------- ------ ------ ---- ---- ------- ----- -- ----<br>-------- ------- -- ---------- --- - --- ----- ----- ----<br>---- --- --- ----- --- ---- ---- ------- ----- ---- -------<br>--- --- -- ----- -- --- ---- -- --- ---- -- ------ ------<br>--- ----- -- ----,165774.53000005335,165773.26500008348,165262.159,165276.29499998875,165278.887,165778.825,,5,a
screen,html.Screen,1_1_0_1_6,2021-04-27T16:35:20.155Z,,,,,,,,,,,,,,,,53,,,,,,,,,,,,,,580.9800000145915,,response,,,,99,,,,,,,Space,keypress(Space),,,,,,,,---- -- ----- -- ------ - lasting --- ----------<br>------------- ------ ------ ---- ---- ------- ----- -- ----<br>-------- ------- -- ---------- --- - --- ----- ----- ----<br>---- --- --- ----- --- ---- ---- ------- ----- ---- -------<br>--- --- -- ----- -- --- ---- -- --- ---- -- ------ ------<br>--- ----- -- ----,166360.8500000555,166359.8050000146,165762.306,165774.8450000072,165778.825,166383.744,,6,lasting
screen,html.Screen,1_1_0_1_7,2021-04-27T16:35:20.723Z,,,,,,,,,,,,,,,,53,,,,,,,,,,,,,,544.9459999715327,,response,,,,99,,,,,,,Space,keypress(Space),,,,,,,,---- -- ----- -- ------ - ------- and ----------<br>------------- ------ ------ ---- ---- ------- ----- -- ----<br>-------- ------- -- ---------- --- - --- ----- ----- ----<br>---- --- --- ----- --- ---- ---- ------- ----- ---- -------<br>--- --- -- ----- -- --- ---- -- --- ---- -- ------ ------<br>--- ----- -- ----,166929.390000063,166928.68999997154,166345.655,166361.15999997128,166383.744,166945.609,,7,and
screen,html.Screen,1_1_0_1_8,2021-04-27T16:35:21.314Z,,,,,,,,,,,,,,,,53,,,,,,,,,,,,,,573.6260000143084,,response,,,,99,,,,,,,Space,keypress(Space),,,,,,,,---- -- ----- -- ------ - ------- --- fulfilling<br>------------- ------ ------ ---- ---- ------- ----- -- ----<br>-------- ------- -- ---------- --- - --- ----- ----- ----<br>---- --- --- ----- --- ---- ---- ------- ----- ---- -------<br>--- --- -- ----- -- --- ---- -- --- ---- -- ------ ------<br>--- ----- -- ----,167520.17999999225,167519.2350000143,166928.936,166929.56499999855,166945.609,167528.93,,8,fulfilling
screen,html.Screen,1_1_0_1_9,2021-04-27T16:35:21.860Z,,,,,,,,,,,,,,,,53,,,,,,,,,,,,,,536.2749999916996,,response,,,,99,,,,,,,Space,keypress(Space),,,,,,,,"---- -- ----- -- ------ - ------- --- ----------<br>relationship, ------ ------ ---- ---- ------- ----- -- ----<br>-------- ------- -- ---------- --- - --- ----- ----- ----<br>---- --- --- ----- --- ---- ---- ------- ----- ---- -------<br>--- --- -- ----- -- --- ---- -- --- ---- -- ------ ------<br>--- ----- -- ----",168066.10499997623,168065.2049999917,167512.495,167520.47500002664,167528.93,168078.934,,9,"relationship,"
screen,html.Screen,1_1_0_1_10,2021-04-27T16:35:22.470Z,,,,,,,,,,,,,,,,53,,,,,,,,,,,,,,596.1460000736406,,response,,,,99,,,,,,,Space,keypress(Space),,,,,,,,---- -- ----- -- ------ - ------- --- ----------<br>------------- common ------ ---- ---- ------- ----- -- ----<br>-------- ------- -- ---------- --- - --- ----- ----- ----<br>---- --- --- ----- --- ---- ---- ------- ----- ---- -------<br>--- --- -- ----- -- --- ---- -- --- ---- -- ------ ------<br>--- ----- -- ----,168676.0250000516,168675.08000007365,168062.328,168066.3900000509,168078.934,168678.969,,10,common
screen,html.Screen,1_1_0_1_11,2021-04-27T16:35:23.471Z,,,,,,,,,,,,,,,,53,,,,,,,,,,,,,,997.5059999856458,,response,,,,99,,,,,,,Space,keypress(Space),,,,,,,,---- -- ----- -- ------ - ------- --- ----------<br>------------- ------ wisdom ---- ---- ------- ----- -- ----<br>-------- ------- -- ---------- --- - --- ----- ----- ----<br>---- --- --- ----- --- ---- ---- ------- ----- ---- -------<br>--- --- -- ----- -- --- ---- -- --- ---- -- ------ ------<br>--- ----- -- ----,169677.61000001337,169676.47499998566,168662.551,168676.3300000457,168678.969,169708.77,,11,wisdom
screen,html.Screen,1_1_0_1_12,2021-04-27T16:35:24.173Z,,,,,,,,,,,,,,,,53,,,,,,,,,,,,,,669.1750000729517,,response,,,,99,,,,,,,Space,keypress(Space),,,,,,,,---- -- ----- -- ------ - ------- --- ----------<br>------------- ------ ------ says ---- ------- ----- -- ----<br>-------- ------- -- ---------- --- - --- ----- ----- ----<br>---- --- --- ----- --- ---- ---- ------- ----- ---- -------<br>--- --- -- ----- -- --- ---- -- --- ---- -- ------ ------<br>--- ----- -- ----,170378.8400000194,170377.94500007294,169662.198,169677.92000004556,169708.77,170395.929,,12,says
screen,html.Screen,1_1_0_1_13,2021-04-27T16:35:24.747Z,,,,,,,,,,,,,,,,53,,,,,,,,,,,,,,556.7160000703298,,response,,,,99,,,,,,,Space,keypress(Space),,,,,,,,---- -- ----- -- ------ - ------- --- ----------<br>------------- ------ ------ ---- that ------- ----- -- ----<br>-------- ------- -- ---------- --- - --- ----- ----- ----<br>---- --- --- ----- --- ---- ---- ------- ----- ---- -------<br>--- --- -- ----- -- --- ---- -- --- ---- -- ------ ------<br>--- ----- -- ----,170953.70000007097,170952.64500007033,170379.146,170379.120000056,170395.929,170962.449,,13,that
screen,html.Screen,1_1_0_1_14,2021-04-27T16:35:25.297Z,,,,,,,,,,,,,,,,53,,,,,,,,,,,,,,540.5560000641563,,response,,,,99,,,,,,,Space,keypress(Space),,,,,,,,---- -- ----- -- ------ - ------- --- ----------<br>------------- ------ ------ ---- ---- feeling ----- -- ----<br>-------- ------- -- ---------- --- - --- ----- ----- ----<br>---- --- --- ----- --- ---- ---- ------- ----- ---- -------<br>--- --- -- ----- -- --- ---- -- --- ---- -- ------ ------<br>--- ----- -- ----,171503.52999998722,171503.00500006415,170945.799,170954.02499998454,170962.449,171512.463,,14,feeling
screen,html.Screen,1_1_0_1_15,2021-04-27T16:35:25.918Z,,,,,,,,,,,,,,,,53,,,,,,,,,,,,,,611.232000074815,,response,,,,99,,,,,,,Space,keypress(Space),,,,,,,,---- -- ----- -- ------ - ------- --- ----------<br>------------- ------ ------ ---- ---- ------- close -- ----<br>-------- ------- -- ---------- --- - --- ----- ----- ----<br>---- --- --- ----- --- ---- ---- ------- ----- ---- -------<br>--- --- -- ----- -- --- ---- -- --- ---- -- ------ ------<br>--- ----- -- ----,172124.6299999766,172123.6950000748,171495.814,171503.68500000332,171512.463,172128.968,,15,close
screen,html.Screen,1_1_0_1_16,2021-04-27T16:35:26.383Z,,,,,,,,,,,,,,,,53,,,,,,,,,,,,,,459.67700001073536,,response,,,,99,,,,,,,Space,keypress(Space),,,,,,,,---- -- ----- -- ------ - ------- --- ----------<br>------------- ------ ------ ---- ---- ------- ----- to ----<br>-------- ------- -- ---------- --- - --- ----- ----- ----<br>---- --- --- ----- --- ---- ---- ------- ----- ---- -------<br>--- --- -- ----- -- --- ---- -- --- ---- -- ------ ------<br>--- ----- -- ----,172589.510000078,172588.64500001073,172112.437,172124.925000011,172128.968,172595.655,,16,to
screen,html.Screen,1_1_0_1_17,2021-04-27T16:35:27.117Z,,,,,,,,,,,,,,,,53,,,,,,,,,,,,,,726.6800000334915,,response,,,,99,,,,,,,Space,keypress(Space),,,,,,,,---- -- ----- -- ------ - ------- --- ----------<br>------------- ------ ------ ---- ---- ------- ----- -- your<br>-------- ------- -- ---------- --- - --- ----- ----- ----<br>---- --- --- ----- --- ---- ---- ------- ----- ---- -------<br>--- --- -- ----- -- --- ---- -- --- ---- -- ------ ------<br>--- ----- -- ----,173323.39000003412,173322.3350000335,172579.149,172589.76500004064,172595.655,173328.925,,17,your
screen,html.Screen,1_1_0_1_18,2021-04-27T16:35:27.729Z,,,,,,,,,,,,,,,,53,,,,,,,,,,,,,,605.6950000727666,,response,,,,99,,,,,,,Space,keypress(Space),,,,,,,,---- -- ----- -- ------ - ------- --- ----------<br>------------- ------ ------ ---- ---- ------- ----- -- ----<br>romantic ------- -- ---------- --- - --- ----- ----- ----<br>---- --- --- ----- --- ---- ---- ------- ----- ---- -------<br>--- --- -- ----- -- --- ---- -- --- ---- -- ------ ------<br>--- ----- -- ----,173935.68500003312,173934.62000007275,173312.464,173323.7000000663,173328.925,173945.683,,18,romantic
screen,html.Screen,1_1_0_1_19,2021-04-27T16:35:28.279Z,,,,,,,,,,,,,,,,53,,,,,,,,,,,,,,538.1820000747393,,response,,,,99,,,,,,,Space,keypress(Space),,,,,,,,---- -- ----- -- ------ - ------- --- ----------<br>------------- ------ ------ ---- ---- ------- ----- -- ----<br>-------- partner -- ---------- --- - --- ----- ----- ----<br>---- --- --- ----- --- ---- ---- ------- ----- ---- -------<br>--- --- -- ----- -- --- ---- -- --- ---- -- ------ ------<br>--- ----- -- ----,174484.81000005268,174483.86500007473,173929.016,173935.99999998696,173945.683,174496.084,,19,partner
screen,html.Screen,1_1_0_1_20,2021-04-27T16:35:28.773Z,,,,,,,,,,,,,,,,53,,,,,,,,,,,,,,481.87600004745764,,response,,,,99,,,,,,,Space,keypress(Space),,,,,,,,---- -- ----- -- ------ - ------- --- ----------<br>------------- ------ ------ ---- ---- ------- ----- -- ----<br>-------- ------- is ---------- --- - --- ----- ----- ----<br>---- --- --- ----- --- ---- ---- ------- ----- ---- -------<br>--- --- -- ----- -- --- ---- -- --- ---- -- ------ ------<br>--- ----- -- ----,174979.02500000782,174977.96000004746,174479.134,174485.08999997284,174496.084,174995.78,,20,is
screen,html.Screen,1_1_0_1_21,2021-04-27T16:35:29.561Z,,,,,,,,,,,,,,,,53,,,,,,,,,,,,,,770.7350000248116,,response,,,,99,,,,,,,Space,keypress(Space),,,,,,,,---- -- ----- -- ------ - ------- --- ----------<br>------------- ------ ------ ---- ---- ------- ----- -- ----<br>-------- ------- -- paramount. --- - --- ----- ----- ----<br>---- --- --- ----- --- ---- ---- ------- ----- ---- -------<br>--- --- -- ----- -- --- ---- -- --- ---- -- ------ ------<br>--- ----- -- ----,175767.6849999698,175766.5150000248,174979.16,174979.34499999974,174995.78,175779.276,,21,paramount.
screen,html.Screen,1_1_0_1_22,2021-04-27T16:35:30.239Z,,,,,,,,,,,,,,,,53,,,,,,,,,,,,,,664.5690000015893,,response,,,,99,,,,,,,Space,keypress(Space),,,,,,,,---- -- ----- -- ------ - ------- --- ----------<br>------------- ------ ------ ---- ---- ------- ----- -- ----<br>-------- ------- -- ---------- But - --- ----- ----- ----<br>---- --- --- ----- --- ---- ---- ------- ----- ---- -------<br>--- --- -- ----- -- --- ---- -- --- ---- -- ------ ------<br>--- ----- -- ----,176444.77499998175,176443.8450000016,175762.523,175768.03000003565,175779.276,176462.668,,22,But
screen,html.Screen,1_1_0_1_23,2021-04-27T16:35:30.730Z,,,,,,,,,,,,,,,,53,,,,,,,,,,,,,,473.0220000711852,,response,,,,99,,,,,,,Space,keypress(Space),,,,,,,,---- -- ----- -- ------ - ------- --- ----------<br>------------- ------ ------ ---- ---- ------- ----- -- ----<br>-------- ------- -- ---------- --- a --- ----- ----- ----<br>---- --- --- ----- --- ---- ---- ------- ----- ---- -------<br>--- --- -- ----- -- --- ---- -- --- ---- -- ------ ------<br>--- ----- -- ----,176936.5949999774,176935.6900000712,176429.313,176445.0450000586,176462.668,176946.055,,23,a
screen,html.Screen,1_1_0_1_24,2021-04-27T16:35:31.239Z,,,,,,,,,,,,,,,,53,,,,,,,,,,,,,,498.47499997884734,,response,,,,99,,,,,,,Space,keypress(Space),,,,,,,,---- -- ----- -- ------ - ------- --- ----------<br>------------- ------ ------ ---- ---- ------- ----- -- ----<br>-------- ------- -- ---------- --- - new ----- ----- ----<br>---- --- --- ----- --- ---- ---- ------- ----- ---- -------<br>--- --- -- ----- -- --- ---- -- --- ---- -- ------ ------<br>--- ----- -- ----,177445.59000001755,177444.52999997884,176929.048,176936.86000001617,176946.055,177462.494,,24,new
screen,html.Screen,1_1_0_1_25,2021-04-27T16:35:31.775Z,,,,,,,,,,,,,,,,53,,,,,,,,,,,,,,518.3609999725013,,response,,,,99,,,,,,,Space,keypress(Space),,,,,,,,---- -- ----- -- ------ - ------- --- ----------<br>------------- ------ ------ ---- ---- ------- ----- -- ----<br>-------- ------- -- ---------- --- - --- study ----- ----<br>---- --- --- ----- --- ---- ---- ------- ----- ---- -------<br>--- --- -- ----- -- --- ---- -- --- ---- -- ------ ------<br>--- ----- -- ----,177981.32500005886,177980.8549999725,177445.826,177446.04499998968,177462.494,177995.646,,25,study
screen,html.Screen,1_1_0_1_26,2021-04-27T16:35:32.242Z,,,,,,,,,,,,,,,,53,,,,,,,,,,,,,,452.36899997264845,,response,,,,99,,,,,,,Space,keypress(Space),,,,,,,,---- -- ----- -- ------ - ------- --- ----------<br>------------- ------ ------ ---- ---- ------- ----- -- ----<br>-------- ------- -- ---------- --- - --- ----- finds ----<br>---- --- --- ----- --- ---- ---- ------- ----- ---- -------<br>--- --- -- ----- -- --- ---- -- --- ---- -- ------ ------<br>--- ----- -- ----,178448.41499999166,178448.01499997266,177979.075,177981.40000004787,177995.646,178462.345,,26,finds
screen,html.Screen,1_1_0_1_27,2021-04-27T16:35:32.599Z,,,,,,,,,,,,,,,,53,,,,,,,,,,,,,,342.0550000227231,,response,,,,99,,,,,,,Space,keypress(Space),,,,,,,,---- -- ----- -- ------ - ------- --- ----------<br>------------- ------ ------ ---- ---- ------- ----- -- ----<br>-------- ------- -- ---------- --- - --- ----- ----- that<br>---- --- --- ----- --- ---- ---- ------- ----- ---- -------<br>--- --- -- ----- -- --- ---- -- --- ---- -- ------ ------<br>--- ----- -- ----,178804.82499999925,178804.40000002272,178445.623,178448.5000000568,178462.345,178812.3,,27,that
screen,html.Screen,1_1_0_1_28,2021-04-27T16:35:33.129Z,,,,,,,,,,,,,,,,53,,,,,,,,,,,,,,522.2550000667688,,response,,,,99,,,,,,,Space,keypress(Space),,,,,,,,---- -- ----- -- ------ - ------- --- ----------<br>------------- ------ ------ ---- ---- ------- ----- -- ----<br>-------- ------- -- ---------- --- - --- ----- ----- ----<br>it's --- --- ----- --- ---- ---- ------- ----- ---- -------<br>--- --- -- ----- -- --- ---- -- --- ---- -- ------ ------<br>--- ----- -- ----,179334.9600000074,179334.55500006676,178795.664,178804.92999998387,178812.3,179345.676,,28,it's
screen,html.Screen,1_1_0_1_29,2021-04-27T16:35:33.628Z,,,,,,,,,,,,,,,,53,,,,,,,,,,,,,,487.6889999694831,,response,,,,99,,,,,,,Space,keypress(Space),,,,,,,,---- -- ----- -- ------ - ------- --- ----------<br>------------- ------ ------ ---- ---- ------- ----- -- ----<br>-------- ------- -- ---------- --- - --- ----- ----- ----<br>---- not --- ----- --- ---- ---- ------- ----- ---- -------<br>--- --- -- ----- -- --- ---- -- --- ---- -- ------ ------<br>--- ----- -- ----,179833.7799999863,179833.3649999695,179328.942,179335.03499999642,179345.676,179845.677,,29,not
screen,html.Screen,1_1_0_1_30,2021-04-27T16:35:34.098Z,,,,,,,,,,,,,,,,53,,,,,,,,,,,,,,457.767999968637,,response,,,,99,,,,,,,Space,keypress(Space),,,,,,,,---- -- ----- -- ------ - ------- --- ----------<br>------------- ------ ------ ---- ---- ------- ----- -- ----<br>-------- ------- -- ---------- --- - --- ----- ----- ----<br>---- --- how ----- --- ---- ---- ------- ----- ---- -------<br>--- --- -- ----- -- --- ---- -- --- ---- -- ------ ------<br>--- ----- -- ----,180303.85999998543,180303.44499996863,179828.969,179833.8549999753,179845.677,180312.36,,30,how
screen,html.Screen,1_1_0_1_31,2021-04-27T16:35:34.543Z,,,,,,,,,,,,,,,,53,,,,,,,,,,,,,,436.52500000817236,,response,,,,99,,,,,,,Space,keypress(Space),,,,,,,,---- -- ----- -- ------ - ------- --- ----------<br>------------- ------ ------ ---- ---- ------- ----- -- ----<br>-------- ------- -- ---------- --- - --- ----- ----- ----<br>---- --- --- close --- ---- ---- ------- ----- ---- -------<br>--- --- -- ----- -- --- ---- -- --- ---- -- ------ ------<br>--- ----- -- ----,180749.3249999825,180748.88500000816,180295.65,180303.94000001252,180312.36,180762.371,,31,close
screen,html.Screen,1_1_0_1_32,2021-04-27T16:35:35.611Z,,,,,,,,,,,,,,,,53,,,,,,,,,,,,,,1054.1990000244987,,response,,,,99,,,,,,,Space,keypress(Space),,,,,,,,---- -- ----- -- ------ - ------- --- ----------<br>------------- ------ ------ ---- ---- ------- ----- -- ----<br>-------- ------- -- ---------- --- - --- ----- ----- ----<br>---- --- --- ----- you ---- ---- ------- ----- ---- -------<br>--- --- -- ----- -- --- ---- -- --- ---- -- ------ ------<br>--- ----- -- ----,181816.98000000324,181816.5700000245,180745.706,180749.40500000957,180762.371,181829.02,,32,you
screen,html.Screen,1_1_0_1_33,2021-04-27T16:35:36.135Z,,,,,,,,,,,,,,,,53,,,,,,,,,,,,,,512.150000028807,,response,,,,99,,,,,,,Space,keypress(Space),,,,,,,,---- -- ----- -- ------ - ------- --- ----------<br>------------- ------ ------ ---- ---- ------- ----- -- ----<br>-------- ------- -- ---------- --- - --- ----- ----- ----<br>---- --- --- ----- --- feel ---- ------- ----- ---- -------<br>--- --- -- ----- -- --- ---- -- --- ---- -- ------ ------<br>--- ----- -- ----,182341.58000000753,182341.1700000288,181812.285,181817.05499999225,181829.02,182345.864,,33,feel
screen,html.Screen,1_1_0_1_34,2021-04-27T16:35:36.710Z,,,,,,,,,,,,,,,,53,,,,,,,,,,,,,,569.7910000188858,,response,,,,99,,,,,,,Space,keypress(Space),,,,,,,,---- -- ----- -- ------ - ------- --- ----------<br>------------- ------ ------ ---- ---- ------- ----- -- ----<br>-------- ------- -- ---------- --- - --- ----- ----- ----<br>---- --- --- ----- --- ---- that ------- ----- ---- -------<br>--- --- -- ----- -- --- ---- -- --- ---- -- ------ ------<br>--- ----- -- ----,182916.09000007156,182915.6550000189,182329.018,182341.65499999654,182345.864,182929.061,,34,that
screen,html.Screen,1_1_0_1_35,2021-04-27T16:35:37.232Z,,,,,,,,,,,,,,,,53,,,,,,,,,,,,,,508.30400001979433,,response,,,,99,,,,,,,Space,keypress(Space),,,,,,,,---- -- ----- -- ------ - ------- --- ----------<br>------------- ------ ------ ---- ---- ------- ----- -- ----<br>-------- ------- -- ---------- --- - --- ----- ----- ----<br>---- --- --- ----- --- ---- ---- matters ----- ---- -------<br>--- --- -- ----- -- --- ---- -- --- ---- -- ------ ------<br>--- ----- -- ----,183437.78500007465,183437.36500001978,182912.359,182916.8200000422,182929.061,183445.734,,35,matters
screen,html.Screen,1_1_0_1_36,2021-04-27T16:35:37.808Z,,,,,,,,,,,,,,,,53,,,,,,,,,,,,,,567.7360000053304,,response,,,,99,,,,,,,Space,keypress(Space),,,,,,,,"---- -- ----- -- ------ - ------- --- ----------<br>------------- ------ ------ ---- ---- ------- ----- -- ----<br>-------- ------- -- ---------- --- - --- ----- ----- ----<br>---- --- --- ----- --- ---- ---- ------- most, ---- -------<br>--- --- -- ----- -- --- ---- -- --- ---- -- ------ ------<br>--- ----- -- ----",184014.03500000015,184013.47000000533,183429.044,183437.86000006367,183445.734,184029.099,,36,"most,"
screen,html.Screen,1_1_0_1_37,2021-04-27T16:35:38.233Z,,,,,,,,,,,,,,,,53,,,,,,,,,,,,,,409.2559999911464,,response,,,,99,,,,,,,Space,keypress(Space),,,,,,,,---- -- ----- -- ------ - ------- --- ----------<br>------------- ------ ------ ---- ---- ------- ----- -- ----<br>-------- ------- -- ---------- --- - --- ----- ----- ----<br>---- --- --- ----- --- ---- ---- ------- ----- it's -------<br>--- --- -- ----- -- --- ---- -- --- ---- -- ------ ------<br>--- ----- -- ----,184439.25499997567,184438.35499999113,184012.381,184014.11500002723,184029.099,184445.973,,37,it's
screen,html.Screen,1_1_0_1_38,2021-04-27T16:35:38.792Z,,,,,,,,,,,,,,,,53,,,,,,,,,,,,,,551.7520000229124,,response,,,,99,,,,,,,Space,keypress(Space),,,,,,,,---- -- ----- -- ------ - ------- --- ----------<br>------------- ------ ------ ---- ---- ------- ----- -- ----<br>-------- ------- -- ---------- --- - --- ----- ----- ----<br>---- --- --- ----- --- ---- ---- ------- ----- ---- whether<br>--- --- -- ----- -- --- ---- -- --- ---- -- ------ ------<br>--- ----- -- ----,184998.18500003312,184997.7250000229,184429.116,184439.52500005253,184445.973,185012.625,,38,whether
screen,html.Screen,1_1_0_1_39,2021-04-27T16:35:39.340Z,,,,,,,,,,,,,,,,53,,,,,,,,,,,,,,533.1500000059605,,response,,,,99,,,,,,,Space,keypress(Space),,,,,,,,---- -- ----- -- ------ - ------- --- ----------<br>------------- ------ ------ ---- ---- ------- ----- -- ----<br>-------- ------- -- ---------- --- - --- ----- ----- ----<br>---- --- --- ----- --- ---- ---- ------- ----- ---- -------<br>you --- -- ----- -- --- ---- -- --- ---- -- ------ ------<br>--- ----- -- ----,185546.6749999905,185545.77500000596,184995.737,184998.27500001993,185012.625,185562.593,,39,you
screen,html.Screen,1_1_0_1_40,2021-04-27T16:35:39.844Z,,,,,,,,,,,,,,,,53,,,,,,,,,,,,,,487.08200001658406,,response,,,,99,,,,,,,Space,keypress(Space),,,,,,,,---- -- ----- -- ------ - ------- --- ----------<br>------------- ------ ------ ---- ---- ------- ----- -- ----<br>-------- ------- -- ---------- --- - --- ----- ----- ----<br>---- --- --- ----- --- ---- ---- ------- ----- ---- -------<br>--- are -- ----- -- --- ---- -- --- ---- -- ------ ------<br>--- ----- -- ----,186050.57500000112,186049.67500001658,185546.075,185546.9649999868,185562.593,186062.826,,40,are
screen,html.Screen,1_1_0_1_41,2021-04-27T16:35:40.353Z,,,,,,,,,,,,,,,,53,,,,,,,,,,,,,,494.94899999385234,,response,,,,99,,,,,,,Space,keypress(Space),,,,,,,,---- -- ----- -- ------ - ------- --- ----------<br>------------- ------ ------ ---- ---- ------- ----- -- ----<br>-------- ------- -- ---------- --- - --- ----- ----- ----<br>---- --- --- ----- --- ---- ---- ------- ----- ---- -------<br>--- --- as ----- -- --- ---- -- --- ---- -- ------ ------<br>--- ----- -- ----,186558.79000003915,186557.77499999385,186046.05,186050.83000008017,186062.826,186562.543,,41,as
screen,html.Screen,1_1_0_1_42,2021-04-27T16:35:40.848Z,,,,,,,,,,,,,,,,53,,,,,,,,,,,,,,490.1620000382536,,response,,,,99,,,,,,,Space,keypress(Space),,,,,,,,---- -- ----- -- ------ - ------- --- ----------<br>------------- ------ ------ ---- ---- ------- ----- -- ----<br>-------- ------- -- ---------- --- - --- ----- ----- ----<br>---- --- --- ----- --- ---- ---- ------- ----- ---- -------<br>--- --- -- close -- --- ---- -- --- ---- -- ------ ------<br>--- ----- -- ----,187053.72000008356,187052.70500003826,186545.928,186559.09500003327,186562.543,187062.682,,42,close
screen,html.Screen,1_1_0_1_43,2021-04-27T16:35:41.280Z,,,,,,,,,,,,,,,,53,,,,,,,,,,,,,,422.17300004608114,,response,,,,99,,,,,,,Space,keypress(Space),,,,,,,,---- -- ----- -- ------ - ------- --- ----------<br>------------- ------ ------ ---- ---- ------- ----- -- ----<br>-------- ------- -- ---------- --- - --- ----- ----- ----<br>---- --- --- ----- --- ---- ---- ------- ----- ---- -------<br>--- --- -- ----- as --- ---- -- --- ---- -- ------ ------<br>--- ----- -- ----,187485.7300000731,187484.85500004608,187046.036,187054.02500007767,187062.682,187495.926,,43,as
screen,html.Screen,1_1_0_1_44,2021-04-27T16:35:41.721Z,,,,,,,,,,,,,,,,53,,,,,,,,,,,,,,429.94400003549526,,response,,,,99,,,,,,,Space,keypress(Space),,,,,,,,---- -- ----- -- ------ - ------- --- ----------<br>------------- ------ ------ ---- ---- ------- ----- -- ----<br>-------- ------- -- ---------- --- - --- ----- ----- ----<br>---- --- --- ----- --- ---- ---- ------- ----- ---- -------<br>--- --- -- ----- -- you ---- -- --- ---- -- ------ ------<br>--- ----- -- ----,187926.77999997977,187925.8700000355,187479.45,187485.9900000738,187495.926,187929.208,,44,you
screen,html.Screen,1_1_0_1_45,2021-04-27T16:35:42.153Z,,,,,,,,,,,,,,,,53,,,,,,,,,,,,,,429.3770000381337,,response,,,,99,,,,,,,Space,keypress(Space),,,,,,,,---- -- ----- -- ------ - ------- --- ----------<br>------------- ------ ------ ---- ---- ------- ----- -- ----<br>-------- ------- -- ---------- --- - --- ----- ----- ----<br>---- --- --- ----- --- ---- ---- ------- ----- ---- -------<br>--- --- -- ----- -- --- want -- --- ---- -- ------ ------<br>--- ----- -- ----,188359.50999998022,188358.58500003815,187912.807,187927.03999998048,187929.208,188379.191,,45,want
screen,html.Screen,1_1_0_1_46,2021-04-27T16:35:42.630Z,,,,,,,,,,,,,,,,53,,,,,,,,,,,,,,456.3290000805864,,response,,,,99,,,,,,,Space,keypress(Space),,,,,,,,---- -- ----- -- ------ - ------- --- ----------<br>------------- ------ ------ ---- ---- ------- ----- -- ----<br>-------- ------- -- ---------- --- - --- ----- ----- ----<br>---- --- --- ----- --- ---- ---- ------- ----- ---- -------<br>--- --- -- ----- -- --- ---- to --- ---- -- ------ ------<br>--- ----- -- ----,188836.11000003293,188835.52000008058,188362.58,188362.5400000019,188379.191,188846.13,,46,to
screen,html.Screen,1_1_0_1_47,2021-04-27T16:35:43.219Z,,,,,,,,,,,,,,,,53,,,,,,,,,,,,,,578.3900000004796,,response,,,,99,,,,,,,Space,keypress(Space),,,,,,,,"---- -- ----- -- ------ - ------- --- ----------<br>------------- ------ ------ ---- ---- ------- ----- -- ----<br>-------- ------- -- ---------- --- - --- ----- ----- ----<br>---- --- --- ----- --- ---- ---- ------- ----- ---- -------<br>--- --- -- ----- -- --- ---- -- be, ---- -- ------ ------<br>--- ----- -- ----",189425.40499998722,189424.52000000048,188829.302,188836.26999997068,188846.13,189429.203,,47,"be,"
screen,html.Screen,1_1_0_1_48,2021-04-27T16:35:43.880Z,,,,,,,,,,,,,,,,53,,,,,,,,,,,,,,656.5469999692577,,response,,,,99,,,,,,,Space,keypress(Space),,,,,,,,---- -- ----- -- ------ - ------- --- ----------<br>------------- ------ ------ ---- ---- ------- ----- -- ----<br>-------- ------- -- ---------- --- - --- ----- ----- ----<br>---- --- --- ----- --- ---- ---- ------- ----- ---- -------<br>--- --- -- ----- -- --- ---- -- --- even -- ------ ------<br>--- ----- -- ----,190086.1450000666,190085.74999996927,189412.584,189425.64999999013,189429.203,190096.106,,48,even
screen,html.Screen,1_1_0_1_49,2021-04-27T16:35:44.315Z,,,,,,,,,,,,,,,,53,,,,,,,,,,,,,,424.9240000617283,,response,,,,99,,,,,,,Space,keypress(Space),,,,,,,,---- -- ----- -- ------ - ------- --- ----------<br>------------- ------ ------ ---- ---- ------- ----- -- ----<br>-------- ------- -- ---------- --- - --- ----- ----- ----<br>---- --- --- ----- --- ---- ---- ------- ----- ---- -------<br>--- --- -- ----- -- --- ---- -- --- ---- if ------ ------<br>--- ----- -- ----,190521.4949999936,190521.03000006173,190079.476,190086.23500005342,190096.106,190529.357,,49,if
screen,html.Screen,1_1_0_1_50,2021-04-27T16:35:44.925Z,,,,,,,,,,,,,,,,53,,,,,,,,,,,,,,600.8630000500416,,response,,,,99,,,,,,,Space,keypress(Space),,,,,,,,---- -- ----- -- ------ - ------- --- ----------<br>------------- ------ ------ ---- ---- ------- ----- -- ----<br>-------- ------- -- ---------- --- - --- ----- ----- ----<br>---- --- --- ----- --- ---- ---- ------- ----- ---- -------<br>--- --- -- ----- -- --- ---- -- --- ---- -- that's ------<br>--- ----- -- ----,191131.20000006165,191130.22000005003,190512.56,190521.61000005435,190529.357,191146.165,,50,that's
screen,html.Screen,1_1_0_1_51,2021-04-27T16:35:45.445Z,,,,,,,,,,,,,,,,53,,,,,,,,,,,,,,504.3049999932118,,response,,,,99,,,,,,,Space,keypress(Space),,,,,,,,---- -- ----- -- ------ - ------- --- ----------<br>------------- ------ ------ ---- ---- ------- ----- -- ----<br>-------- ------- -- ---------- --- - --- ----- ----- ----<br>---- --- --- ----- --- ---- ---- ------- ----- ---- -------<br>--- --- -- ----- -- --- ---- -- --- ---- -- ------ really<br>--- ----- -- ----,191651.42999996897,191650.46999999322,191129.2,191131.44999998622,191146.165,191662.672,,51,really
screen,html.Screen,1_1_0_1_52,2021-04-27T16:35:45.901Z,,,,,,,,,,,,,,,,53,,,,,,,,,,,,,,443.6729999783274,,response,,,,99,,,,,,,Space,keypress(Space),,,,,,,,---- -- ----- -- ------ - ------- --- ----------<br>------------- ------ ------ ---- ---- ------- ----- -- ----<br>-------- ------- -- ---------- --- - --- ----- ----- ----<br>---- --- --- ----- --- ---- ---- ------- ----- ---- -------<br>--- --- -- ----- -- --- ---- -- --- ---- -- ------ ------<br>not ----- -- ----,192107.23000008147,192106.34499997832,191645.995,191651.68000000995,191662.672,192112.613,,52,not
screen,html.Screen,1_1_0_1_53,2021-04-27T16:35:46.604Z,,,,,,,,,,,,,,,,53,,,,,,,,,,,,,,696.5770000581397,,response,,,,99,,,,,,,Space,keypress(Space),,,,,,,,---- -- ----- -- ------ - ------- --- ----------<br>------------- ------ ------ ---- ---- ------- ----- -- ----<br>-------- ------- -- ---------- --- - --- ----- ----- ----<br>---- --- --- ----- --- ---- ---- ------- ----- ---- -------<br>--- --- -- ----- -- --- ---- -- --- ---- -- ------ ------<br>--- close -- ----,192810.08500000462,192809.19000005815,192096.093,192107.48000000603,192112.613,192812.613,,53,close
screen,html.Screen,1_1_0_1_54,2021-04-27T16:35:47.093Z,,,,,,,,,,,,,,,,53,,,,,,,,,,,,,,485.7370000554947,,response,,,,99,,,,,,,Space,keypress(Space),,,,,,,,---- -- ----- -- ------ - ------- --- ----------<br>------------- ------ ------ ---- ---- ------- ----- -- ----<br>-------- ------- -- ---------- --- - --- ----- ----- ----<br>---- --- --- ----- --- ---- ---- ------- ----- ---- -------<br>--- --- -- ----- -- --- ---- -- --- ---- -- ------ ------<br>--- ----- at ----,193299.30499999318,193298.3500000555,192795.944,192810.3350000456,192812.613,193312.757,,54,at
screen,html.Screen,1_1_0_1_55,2021-04-27T16:35:47.662Z,,,,,,,,,,,,,,,,53,,,,,,,,,,,,,,555.3680000372406,,response,,,,99,,,,,,,Space,keypress(Space),,,,,,,,---- -- ----- -- ------ - ------- --- ----------<br>------------- ------ ------ ---- ---- ------- ----- -- ----<br>-------- ------- -- ---------- --- - --- ----- ----- ----<br>---- --- --- ----- --- ---- ---- ------- ----- ---- -------<br>--- --- -- ----- -- --- ---- -- --- ---- -- ------ ------<br>--- ----- -- all.,193868.52000001818,193868.12500003725,193296.067,193299.57000003196,193312.757,193879.478,,55,all.
Item 99,flow.Loop,1_1_0_1,2021-04-27T16:35:47.662Z,,,,,,,,,,,,,,,,,,,,,,,,,,,,,,32039.308000037243,,completion,,,,,A,,,,,,,,,,,silence,,,,,193868.68000007235,193868.12500003725,161779.125,161780.68500000518,161828.817,193879.478,,,
Question 1,html.Screen,1_1_0_2,2021-04-27T16:36:01.481Z,,,,,,,,,,,,,,,,,,,,,,,,,,,false,FALSE,,13806.611999973771,,response,,,,99,A,,,,,,TRUE,click #choice-1,,,,silence,,,,,207686.76000006963,207686.08999997377,193862.52,193868.73500002548,193879.478,207696.22,,,
Question 2,html.Screen,1_1_0_3,2021-04-27T16:36:07.028Z,,,,,,,,,,,,,,,,,,,,,,,,,,,true,TRUE,,5536.03000000093,,response,,,,99,A,,,,,,TRUE,click #choice-1,,,,silence,,,,,213233.78500004765,213232.25000000093,207679.614,207686.8699999759,207696.22,213246.235,,,
Item 99,flow.Sequence,1_1_0,2021-04-27T16:36:07.028Z,,,,,,,,,,,,,,,,,,,,,,,,,,,,,,61436.786000000924,,completion,,,,,,,,,,,,,,,,,,,,,213234.2349999817,213232.25000000093,151778.604,151802.58000001777,151795.464,213246.235,,,
Holding screen,html.Screen,1_1_1_0,2021-04-27T16:36:17.025Z,,,,,,,,,,,,,,,,,,,,,,,,,,,,,,10000.340000000026,,timeout,,,,,,,,,,,,,,,,,,,,,223231.12999997102,223230,213229.554,213234.50999998022,213246.235,223246.575,,,
screen,html.Screen,1_1_1_1_0,2021-04-27T16:36:19.040Z,,,,,,,,,,,,,,,,54,,,,,,,,,,,,,,1998.1400000370922,,response,,,,100,,,,,,,Space,keypress(Space),,,,,,,,At --- ---- --- ------ ----- ------- ---- -- --- ------- --<br>------- ---------- ------ -- ----- -- ----- -- ---- ------<br>--- ----- --- --- ------ -------- ----- --- ------ ----- --<br>----- ----- ---------- --- --- ------ ------ ---- -- ------<br>------- --- ------ ----- --- ---- ------- -- ---- --- --<br>------- ------,225245.60000002384,225244.7150000371,223230,223231.49500007275,223246.575,225279.849,,0,At
screen,html.Screen,1_1_1_1_1,2021-04-27T16:36:19.751Z,,,,,,,,,,,,,,,,54,,,,,,,,,,,,,,675.840999973414,,response,,,,100,,,,,,,Space,keypress(Space),,,,,,,,-- the ---- --- ------ ----- ------- ---- -- --- ------- --<br>------- ---------- ------ -- ----- -- ----- -- ---- ------<br>--- ----- --- --- ------ -------- ----- --- ------ ----- --<br>----- ----- ---------- --- --- ------ ------ ---- -- ------<br>------- --- ------ ----- --- ---- ------- -- ---- --- --<br>------- ------,225956.594999996,225955.6899999734,225263.297,225245.86500006262,225279.849,225963.063,,1,the
screen,html.Screen,1_1_1_1_2,2021-04-27T16:36:20.421Z,,,,,,,,,,,,,,,,54,,,,,,,,,,,,,,662.3420000570768,,response,,,,100,,,,,,,Space,keypress(Space),,,,,,,,-- --- time --- ------ ----- ------- ---- -- --- ------- --<br>------- ---------- ------ -- ----- -- ----- -- ---- ------<br>--- ----- --- --- ------ -------- ----- --- ------ ----- --<br>----- ----- ---------- --- --- ------ ------ ---- -- ------<br>------- --- ------ ----- --- ---- ------- -- ---- --- --<br>------- ------,226626.41000002623,226625.40500005707,225946.568,225956.83999999892,225963.063,226629.824,,2,time
screen,html.Screen,1_1_1_1_3,2021-04-27T16:36:20.984Z,,,,,,,,,,,,,,,,54,,,,,,,,,,,,,,558.9860000796907,,response,,,,100,,,,,,,Space,keypress(Space),,,,,,,,-- --- ---- the ------ ----- ------- ---- -- --- ------- --<br>------- ---------- ------ -- ----- -- ----- -- ---- ------<br>--- ----- --- --- ------ -------- ----- --- ------ ----- --<br>----- ----- ---------- --- --- ------ ------ ---- -- ------<br>------- --- ------ ----- --- ---- ------- -- ---- --- --<br>------- ------,227189.67500003055,227188.81000007968,226613.126,226626.7050000606,226629.824,227196.534,,3,the
screen,html.Screen,1_1_1_1_4,2021-04-27T16:36:21.578Z,,,,,,,,,,,,,,,,54,,,,,,,,,,,,,,586.5210000071384,,response,,,,100,,,,,,,Space,keypress(Space),,,,,,,,-- --- ---- --- French ----- ------- ---- -- --- ------- --<br>------- ---------- ------ -- ----- -- ----- -- ---- ------<br>--- ----- --- --- ------ -------- ----- --- ------ ----- --<br>----- ----- ---------- --- --- ------ ------ ---- -- ------<br>------- --- ------ ----- --- ---- ------- -- ---- --- --<br>------- ------,227784.169999999,227783.05500000715,227180.024,227189.93500003126,227196.534,227796.777,,4,French
screen,html.Screen,1_1_1_1_5,2021-04-27T16:36:22.222Z,,,,,,,,,,,,,,,,54,,,,,,,,,,,,,,630.2430000610184,,response,,,,100,,,,,,,Space,keypress(Space),,,,,,,,-- --- ---- --- ------ crown ------- ---- -- --- ------- --<br>------- ---------- ------ -- ----- -- ----- -- ---- ------<br>--- ----- --- --- ------ -------- ----- --- ------ ----- --<br>----- ----- ---------- --- --- ------ ------ ---- -- ------<br>------- --- ------ ----- --- ---- ------- -- ---- --- --<br>------- ------,228427.43500007782,228427.02000006102,227779.802,227784.4899999909,227796.777,228429.707,,5,crown
screen,html.Screen,1_1_1_1_6,2021-04-27T16:36:23.065Z,,,,,,,,,,,,,,,,54,,,,,,,,,,,,,,840.4080000793911,,response,,,,100,,,,,,,Space,keypress(Space),,,,,,,,-- --- ---- --- ------ ----- secured ---- -- --- ------- --<br>------- ---------- ------ -- ----- -- ----- -- ---- ------<br>--- ----- --- --- ------ -------- ----- --- ------ ----- --<br>----- ----- ---------- --- --- ------ ------ ---- -- ------<br>------- --- ------ ----- --- ---- ------- -- ---- --- --<br>------- ------,229271.01999998558,229270.1150000794,228413.145,228427.52000002656,228429.707,229279.836,,6,secured
screen,html.Screen,1_1_1_1_7,2021-04-27T16:36:23.637Z,,,,,,,,,,,,,,,,54,,,,,,,,,,,,,,561.7890000009211,,response,,,,100,,,,,,,Space,keypress(Space),,,,,,,,-- --- ---- --- ------ ----- ------- much -- --- ------- --<br>------- ---------- ------ -- ----- -- ----- -- ---- ------<br>--- ----- --- --- ------ -------- ----- --- ------ ----- --<br>----- ----- ---------- --- --- ------ ------ ---- -- ------<br>------- --- ------ ----- --- ---- ------- -- ---- --- --<br>------- ------,229842.505000066,229841.62500000093,229263.045,229271.2649999885,229279.836,229846.473,,7,much
screen,html.Screen,1_1_1_1_8,2021-04-27T16:36:24.207Z,,,,,,,,,,,,,,,,54,,,,,,,,,,,,,,565.476999979699,,response,,,,100,,,,,,,Space,keypress(Space),,,,,,,,-- --- ---- --- ------ ----- ------- ---- of --- ------- --<br>------- ---------- ------ -- ----- -- ----- -- ---- ------<br>--- ----- --- --- ------ -------- ----- --- ------ ----- --<br>----- ----- ---------- --- --- ------ ------ ---- -- ------<br>------- --- ------ ----- --- ---- ------- -- ---- --- --<br>------- ------,230412.8550000023,230411.9499999797,229830.012,229842.78000006452,229846.473,230430.196,,8,of
screen,html.Screen,1_1_1_1_9,2021-04-27T16:36:24.954Z,,,,,,,,,,,,,,,,54,,,,,,,,,,,,,,728.4989999909885,,response,,,,100,,,,,,,Space,keypress(Space),,,,,,,,-- --- ---- --- ------ ----- ------- ---- -- its ------- --<br>------- ---------- ------ -- ----- -- ----- -- ---- ------<br>--- ----- --- --- ------ -------- ----- --- ------ ----- --<br>----- ----- ---------- --- --- ------ ------ ---- -- ------<br>------- --- ------ ----- --- ---- ------- -- ---- --- --<br>------- ------,231159.69500003848,231158.69499999098,230413.237,230413.11500000302,230430.196,231163.204,,9,its
screen,html.Screen,1_1_1_1_10,2021-04-27T16:36:26.309Z,,,,,,,,,,,,,,,,54,,,,,,,,,,,,,,1350.926000025036,,response,,,,100,,,,,,,Space,keypress(Space),,,,,,,,-- --- ---- --- ------ ----- ------- ---- -- --- revenue --<br>------- ---------- ------ -- ----- -- ----- -- ---- ------<br>--- ----- --- --- ------ -------- ----- --- ------ ----- --<br>----- ----- ---------- --- --- ------ ------ ---- -- ------<br>------- --- ------ ----- --- ---- ------- -- ---- --- --<br>------- ------,232514.94000002276,232514.13000002503,231146.494,231159.9850000348,231163.204,232529.909,,10,revenue
screen,html.Screen,1_1_1_1_11,2021-04-27T16:36:26.832Z,,,,,,,,,,,,,,,,54,,,,,,,,,,,,,,507.03100001995335,,response,,,,100,,,,,,,Space,keypress(Space),,,,,,,,-- --- ---- --- ------ ----- ------- ---- -- --- ------- by<br>------- ---------- ------ -- ----- -- ----- -- ---- ------<br>--- ----- --- --- ------ -------- ----- --- ------ ----- --<br>----- ----- ---------- --- --- ------ ------ ---- -- ------<br>------- --- ------ ----- --- ---- ------- -- ---- --- --<br>------- ------,233037.89999999572,233036.94000001997,232513.313,232515.03500004765,232529.909,233046.593,,11,by
screen,html.Screen,1_1_1_1_12,2021-04-27T16:36:27.468Z,,,,,,,,,,,,,,,,54,,,,,,,,,,,,,,626.6269999969518,,response,,,,100,,,,,,,Space,keypress(Space),,,,,,,,-- --- ---- --- ------ ----- ------- ---- -- --- ------- --<br>issuing ---------- ------ -- ----- -- ----- -- ---- ------<br>--- ----- --- --- ------ -------- ----- --- ------ ----- --<br>----- ----- ---------- --- --- ------ ------ ---- -- ------<br>------- --- ------ ----- --- ---- ------- -- ---- --- --<br>------- ------,233674.17500005104,233673.21999999695,233029.783,233038.15500007477,233046.593,233679.918,,12,issuing
screen,html.Screen,1_1_1_1_13,2021-04-27T16:36:28.231Z,,,,,,,,,,,,,,,,54,,,,,,,,,,,,,,756.1119999825605,,response,,,,100,,,,,,,Space,keypress(Space),,,,,,,,-- --- ---- --- ------ ----- ------- ---- -- --- ------- --<br>------- government ------ -- ----- -- ----- -- ---- ------<br>--- ----- --- --- ------ -------- ----- --- ------ ----- --<br>----- ----- ---------- --- --- ------ ------ ---- -- ------<br>------- --- ------ ----- --- ---- ------- -- ---- --- --<br>------- ------,234436.9949999964,234436.02999998257,233663.352,233674.43000001367,233679.918,234446.995,,13,government
screen,html.Screen,1_1_1_1_14,2021-04-27T16:36:28.972Z,,,,,,,,,,,,,,,,54,,,,,,,,,,,,,,730.2449999899836,,response,,,,100,,,,,,,Space,keypress(Space),,,,,,,,-- --- ---- --- ------ ----- ------- ---- -- --- ------- --<br>------- ---------- bonds. -- ----- -- ----- -- ---- ------<br>--- ----- --- --- ------ -------- ----- --- ------ ----- --<br>----- ----- ---------- --- --- ------ ------ ---- -- ------<br>------- --- ------ ----- --- ---- ------- -- ---- --- --<br>------- ------,235178.1450000126,235177.23999998998,234430.047,234437.26000003517,234446.995,235204.391,,14,bonds.
screen,html.Screen,1_1_1_1_15,2021-04-27T16:36:29.506Z,,,,,,,,,,,,,,,,54,,,,,,,,,,,,,,506.95899999776157,,response,,,,100,,,,,,,Space,keypress(Space),,,,,,,,-- --- ---- --- ------ ----- ------- ---- -- --- ------- --<br>------- ---------- ------ In ----- -- ----- -- ---- ------<br>--- ----- --- --- ------ -------- ----- --- ------ ----- --<br>----- ----- ---------- --- --- ------ ------ ---- -- ------<br>------- --- ------ ----- --- ---- ------- -- ---- --- --<br>------- ------,235711.89500007313,235711.34999999776,235163.231,235178.4050000133,235204.391,235737.827,,15,In
screen,html.Screen,1_1_1_1_16,2021-04-27T16:36:30.316Z,,,,,,,,,,,,,,,,54,,,,,,,,,,,,,,783.3629999994882,,response,,,,100,,,,,,,Space,keypress(Space),,,,,,,,"-- --- ---- --- ------ ----- ------- ---- -- --- ------- --<br>------- ---------- ------ -- 1727, -- ----- -- ---- ------<br>--- ----- --- --- ------ -------- ----- --- ------ ----- --<br>----- ----- ---------- --- --- ------ ------ ---- -- ------<br>------- --- ------ ----- --- ---- ------- -- ---- --- --<br>------- ------",236522.2150000045,236521.18999999948,235696.64,235711.9899999816,235737.827,236529.991,,16,"1727,"
screen,html.Screen,1_1_1_1_17,2021-04-27T16:36:31.191Z,,,,,,,,,,,,,,,,54,,,,,,,,,,,,,,865.5640000537096,,response,,,,100,,,,,,,Space,keypress(Space),,,,,,,,-- --- ---- --- ------ ----- ------- ---- -- --- ------- --<br>------- ---------- ------ -- ----- in ----- -- ---- ------<br>--- ----- --- --- ------ -------- ----- --- ------ ----- --<br>----- ----- ---------- --- --- ------ ------ ---- -- ------<br>------- --- ------ ----- --- ---- ------- -- ---- --- --<br>------- ------,237396.41000004485,237395.55500005372,236513.365,236522.50000007916,236529.991,237413.67,,17,in
screen,html.Screen,1_1_1_1_18,2021-04-27T16:36:31.860Z,,,,,,,,,,,,,,,,54,,,,,,,,,,,,,,650.90000004592,,response,,,,100,,,,,,,Space,keypress(Space),,,,,,,,-- --- ---- --- ------ ----- ------- ---- -- --- ------- --<br>------- ---------- ------ -- ----- -- order -- ---- ------<br>--- ----- --- --- ------ -------- ----- --- ------ ----- --<br>----- ----- ---------- --- --- ------ ------ ---- -- ------<br>------- --- ------ ----- --- ---- ------- -- ---- --- --<br>------- ------,238065.54500001948,238064.57000004593,237396.713,237396.65999996942,237413.67,238080.157,,18,order
screen,html.Screen,1_1_1_1_19,2021-04-27T16:36:32.468Z,,,,,,,,,,,,,,,,54,,,,,,,,,,,,,,592.6479999801377,,response,,,,100,,,,,,,Space,keypress(Space),,,,,,,,-- --- ---- --- ------ ----- ------- ---- -- --- ------- --<br>------- ---------- ------ -- ----- -- ----- to ---- ------<br>--- ----- --- --- ------ -------- ----- --- ------ ----- --<br>----- ----- ---------- --- --- ------ ------ ---- -- ------<br>------- --- ------ ----- --- ---- ------- -- ---- --- --<br>------- ------,238673.30000002403,238672.80499998014,238063.395,238065.81000005826,238080.157,238679.888,,19,to
screen,html.Screen,1_1_1_1_20,2021-04-27T16:36:33.720Z,,,,,,,,,,,,,,,,54,,,,,,,,,,,,,,1245.142000042164,,response,,,,100,,,,,,,Space,keypress(Space),,,,,,,,-- --- ---- --- ------ ----- ------- ---- -- --- ------- --<br>------- ---------- ------ -- ----- -- ----- -- save ------<br>--- ----- --- --- ------ -------- ----- --- ------ ----- --<br>----- ----- ---------- --- --- ------ ------ ---- -- ------<br>------- --- ------ ----- --- ---- ------- -- ---- --- --<br>------- ------,239925.90999999084,239925.03000004217,238663.315,238673.41000004672,238679.888,239929.951,,20,save
screen,html.Screen,1_1_1_1_21,2021-04-27T16:36:34.194Z,,,,,,,,,,,,,,,,54,,,,,,,,,,,,,,469.244000063627,,response,,,,100,,,,,,,Space,keypress(Space),,,,,,,,"-- --- ---- --- ------ ----- ------- ---- -- --- ------- --<br>------- ---------- ------ -- ----- -- ----- -- ---- money,<br>--- ----- --- --- ------ -------- ----- --- ------ ----- --<br>----- ----- ---------- --- --- ------ ------ ---- -- ------<br>------- --- ------ ----- --- ---- ------- -- ---- --- --<br>------- ------",240400.17500007525,240399.19500006363,239913.543,239926.18499998935,239929.951,240413.561,,21,"money,"
screen,html.Screen,1_1_1_1_22,2021-04-27T16:36:34.791Z,,,,,,,,,,,,,,,,54,,,,,,,,,,,,,,582.2189999974798,,response,,,,100,,,,,,,Space,keypress(Space),,,,,,,,-- --- ---- --- ------ ----- ------- ---- -- --- ------- --<br>------- ---------- ------ -- ----- -- ----- -- ---- ------<br>the ----- --- --- ------ -------- ----- --- ------ ----- --<br>----- ----- ---------- --- --- ------ ------ ---- -- ------<br>------- --- ------ ----- --- ---- ------- -- ---- --- --<br>------- ------,240996.67000002228,240995.77999999747,240396.625,240400.4450000357,240413.561,241013.665,,22,the
screen,html.Screen,1_1_1_1_23,2021-04-27T16:36:35.507Z,,,,,,,,,,,,,,,,54,,,,,,,,,,,,,,698.1850000797131,,response,,,,100,,,,,,,Space,keypress(Space),,,,,,,,-- --- ---- --- ------ ----- ------- ---- -- --- ------- --<br>------- ---------- ------ -- ----- -- ----- -- ---- ------<br>--- state --- --- ------ -------- ----- --- ------ ----- --<br>----- ----- ---------- --- --- ------ ------ ---- -- ------<br>------- --- ------ ----- --- ---- ------- -- ---- --- --<br>------- ------,241712.36500004306,241711.85000007972,240996.712,240996.93500006106,241013.665,241744.99,,23,state
screen,html.Screen,1_1_1_1_24,2021-04-27T16:36:36.127Z,,,,,,,,,,,,,,,,54,,,,,,,,,,,,,,586.6499999894295,,response,,,,100,,,,,,,Space,keypress(Space),,,,,,,,-- --- ---- --- ------ ----- ------- ---- -- --- ------- --<br>------- ---------- ------ -- ----- -- ----- -- ---- ------<br>--- ----- cut --- ------ -------- ----- --- ------ ----- --<br>----- ----- ---------- --- --- ------ ------ ---- -- ------<br>------- --- ------ ----- --- ---- ------- -- ---- --- --<br>------- ------,242332.720000064,242331.63999998942,241696.772,241712.49000006355,241744.99,242346.994,,24,cut
screen,html.Screen,1_1_1_1_25,2021-04-27T16:36:36.616Z,,,,,,,,,,,,,,,,54,,,,,,,,,,,,,,473.42600000364473,,response,,,,100,,,,,,,Space,keypress(Space),,,,,,,,-- --- ---- --- ------ ----- ------- ---- -- --- ------- --<br>------- ---------- ------ -- ----- -- ----- -- ---- ------<br>--- ----- --- the ------ -------- ----- --- ------ ----- --<br>----- ----- ---------- --- --- ------ ------ ---- -- ------<br>------- --- ------ ----- --- ---- ------- -- ---- --- --<br>------- ------,242821.4549999684,242820.42000000365,242330.007,242333.0100000603,242346.994,242830.148,,25,the
screen,html.Screen,1_1_1_1_26,2021-04-27T16:36:37.427Z,,,,,,,,,,,,,,,,54,,,,,,,,,,,,,,801.6570000118227,,response,,,,100,,,,,,,Space,keypress(Space),,,,,,,,-- --- ---- --- ------ ----- ------- ---- -- --- ------- --<br>------- ---------- ------ -- ----- -- ----- -- ---- ------<br>--- ----- --- --- bonds' -------- ----- --- ------ ----- --<br>----- ----- ---------- --- --- ------ ------ ---- -- ------<br>------- --- ------ ----- --- ---- ------- -- ---- --- --<br>------- ------,243632.86500005051,243631.8050000118,242813.383,242821.75500004087,242830.148,243646.95,,26,bonds'
screen,html.Screen,1_1_1_1_27,2021-04-27T16:36:38.027Z,,,,,,,,,,,,,,,,54,,,,,,,,,,,,,,584.9650000112015,,response,,,,100,,,,,,,Space,keypress(Space),,,,,,,,-- --- ---- --- ------ ----- ------- ---- -- --- ------- --<br>------- ---------- ------ -- ----- -- ----- -- ---- ------<br>--- ----- --- --- ------ interest ----- --- ------ ----- --<br>----- ----- ---------- --- --- ------ ------ ---- -- ------<br>------- --- ------ ----- --- ---- ------- -- ---- --- --<br>------- ------,244232.91999998037,244231.9150000112,243630.166,243633.1900000805,243646.95,244246.836,,27,interest
screen,html.Screen,1_1_1_1_28,2021-04-27T16:36:38.583Z,,,,,,,,,,,,,,,,54,,,,,,,,,,,,,,541.4090000615688,,response,,,,100,,,,,,,Space,keypress(Space),,,,,,,,-- --- ---- --- ------ ----- ------- ---- -- --- ------- --<br>------- ---------- ------ -- ----- -- ----- -- ---- ------<br>--- ----- --- --- ------ -------- rate. --- ------ ----- --<br>----- ----- ---------- --- --- ------ ------ ---- -- ------<br>------- --- ------ ----- --- ---- ------- -- ---- --- --<br>------- ------,244788.7200000696,244788.24500006158,244230.054,244233.22499997448,244246.836,244796.8,,28,rate.
screen,html.Screen,1_1_1_1_29,2021-04-27T16:36:39.127Z,,,,,,,,,,,,,,,,54,,,,,,,,,,,,,,534.8150000319001,,response,,,,100,,,,,,,Space,keypress(Space),,,,,,,,-- --- ---- --- ------ ----- ------- ---- -- --- ------- --<br>------- ---------- ------ -- ----- -- ----- -- ---- ------<br>--- ----- --- --- ------ -------- ----- The ------ ----- --<br>----- ----- ---------- --- --- ------ ------ ---- -- ------<br>------- --- ------ ----- --- ---- ------- -- ---- --- --<br>------- ------,245332.645000075,245331.6150000319,244780.23,244788.840000052,244796.8,245346.991,,29,The
screen,html.Screen,1_1_1_1_30,2021-04-27T16:36:39.878Z,,,,,,,,,,,,,,,,54,,,,,,,,,,,,,,735.9789999885543,,response,,,,100,,,,,,,Space,keypress(Space),,,,,,,,-- --- ---- --- ------ ----- ------- ---- -- --- ------- --<br>------- ---------- ------ -- ----- -- ----- -- ---- ------<br>--- ----- --- --- ------ -------- ----- --- market ----- --<br>----- ----- ---------- --- --- ------ ------ ---- -- ------<br>------- --- ------ ----- --- ---- ------- -- ---- --- --<br>------- ------,246083.28999998048,246082.96999998856,245330.235,245332.93999999296,245346.991,246096.733,,30,market
screen,html.Screen,1_1_1_1_31,2021-04-27T16:36:40.434Z,,,,,,,,,,,,,,,,54,,,,,,,,,,,,,,542.0170000419021,,response,,,,100,,,,,,,Space,keypress(Space),,,,,,,,-- --- ---- --- ------ ----- ------- ---- -- --- ------- --<br>------- ---------- ------ -- ----- -- ----- -- ---- ------<br>--- ----- --- --- ------ -------- ----- --- ------ value --<br>----- ----- ---------- --- --- ------ ------ ---- -- ------<br>------- --- ------ ----- --- ---- ------- -- ---- --- --<br>------- ------,246639.70000005793,246638.7500000419,246080.242,246083.35500000976,246096.733,246646.808,,31,value
screen,html.Screen,1_1_1_1_32,2021-04-27T16:36:40.945Z,,,,,,,,,,,,,,,,54,,,,,,,,,,,,,,504.0470000144269,,response,,,,100,,,,,,,Space,keypress(Space),,,,,,,,-- --- ---- --- ------ ----- ------- ---- -- --- ------- --<br>------- ---------- ------ -- ----- -- ----- -- ---- ------<br>--- ----- --- --- ------ -------- ----- --- ------ ----- of<br>----- ----- ---------- --- --- ------ ------ ---- -- ------<br>------- --- ------ ----- --- ---- ------- -- ---- --- --<br>------- ------,247151.2400000356,247150.85500001442,246630.192,246639.9799999781,246646.808,247163.292,,32,of
screen,html.Screen,1_1_1_1_33,2021-04-27T16:36:41.450Z,,,,,,,,,,,,,,,,54,,,,,,,,,,,,,,491.6780000323488,,response,,,,100,,,,,,,Space,keypress(Space),,,,,,,,-- --- ---- --- ------ ----- ------- ---- -- --- ------- --<br>------- ---------- ------ -- ----- -- ----- -- ---- ------<br>--- ----- --- --- ------ -------- ----- --- ------ ----- --<br>these ----- ---------- --- --- ------ ------ ---- -- ------<br>------- --- ------ ----- --- ---- ------- -- ---- --- --<br>------- ------,247655.9600000037,247654.97000003234,247146.936,247151.30999998655,247163.292,247663.634,,33,these
screen,html.Screen,1_1_1_1_34,2021-04-27T16:36:41.980Z,,,,,,,,,,,,,,,,54,,,,,,,,,,,,,,521.2710000310035,,response,,,,100,,,,,,,Space,keypress(Space),,,,,,,,-- --- ---- --- ------ ----- ------- ---- -- --- ------- --<br>------- ---------- ------ -- ----- -- ----- -- ---- ------<br>--- ----- --- --- ------ -------- ----- --- ------ ----- --<br>----- bonds ---------- --- --- ------ ------ ---- -- ------<br>------- --- ------ ----- --- ---- ------- -- ---- --- --<br>------- ------,248185.54500001483,248184.905000031,247646.708,247656.2649999978,247663.634,248196.992,,34,bonds
screen,html.Screen,1_1_1_1_35,2021-04-27T16:36:42.631Z,,,,,,,,,,,,,,,,54,,,,,,,,,,,,,,639.0179999699758,,response,,,,100,,,,,,,Space,keypress(Space),,,,,,,,"-- --- ---- --- ------ ----- ------- ---- -- --- ------- --<br>------- ---------- ------ -- ----- -- ----- -- ---- ------<br>--- ----- --- --- ------ -------- ----- --- ------ ----- --<br>----- ----- plummeted, --- --- ------ ------ ---- -- ------<br>------- --- ------ ----- --- ---- ------- -- ---- --- --<br>------- ------",248836.67500002775,248836.00999996997,248180.247,248185.7350000646,248196.992,248846.781,,35,"plummeted,"
screen,html.Screen,1_1_1_1_36,2021-04-27T16:36:43.862Z,,,,,,,,,,,,,,,,54,,,,,,,,,,,,,,1219.9140000450134,,response,,,,100,,,,,,,Space,keypress(Space),,,,,,,,-- --- ---- --- ------ ----- ------- ---- -- --- ------- --<br>------- ---------- ------ -- ----- -- ----- -- ---- ------<br>--- ----- --- --- ------ -------- ----- --- ------ ----- --<br>----- ----- ---------- and --- ------ ------ ---- -- ------<br>------- --- ------ ----- --- ---- ------- -- ---- --- --<br>------- ------,250067.5850000698,250066.695000045,248830.109,248836.84500004165,248846.781,250080.115,,36,and
screen,html.Screen,1_1_1_1_37,2021-04-27T16:36:45.036Z,,,,,,,,,,,,,,,,54,,,,,,,,,,,,,,1160.1149999957997,,response,,,,100,,,,,,,Space,keypress(Space),,,,,,,,-- --- ---- --- ------ ----- ------- ---- -- --- ------- --<br>------- ---------- ------ -- ----- -- ----- -- ---- ------<br>--- ----- --- --- ------ -------- ----- --- ------ ----- --<br>----- ----- ---------- --- the ------ ------ ---- -- ------<br>------- --- ------ ----- --- ---- ------- -- ---- --- --<br>------- ------,251241.26500007696,251240.2299999958,250063.597,250067.84000003245,250080.115,251246.814,,37,the
screen,html.Screen,1_1_1_1_38,2021-04-27T16:36:45.526Z,,,,,,,,,,,,,,,,54,,,,,,,,,,,,,,483.40600002673455,,response,,,,100,,,,,,,Space,keypress(Space),,,,,,,,-- --- ---- --- ------ ----- ------- ---- -- --- ------- --<br>------- ---------- ------ -- ----- -- ----- -- ---- ------<br>--- ----- --- --- ------ -------- ----- --- ------ ----- --<br>----- ----- ---------- --- --- market ------ ---- -- ------<br>------- --- ------ ----- --- ---- ------- -- ---- --- --<br>------- ------,251731.38500005007,251730.22000002675,251230.229,251241.6250000242,251246.814,251747.18,,38,market
screen,html.Screen,1_1_1_1_39,2021-04-27T16:36:46.229Z,,,,,,,,,,,,,,,,54,,,,,,,,,,,,,,686.6450000728364,,response,,,,100,,,,,,,Space,keypress(Space),,,,,,,,-- --- ---- --- ------ ----- ------- ---- -- --- ------- --<br>------- ---------- ------ -- ----- -- ----- -- ---- ------<br>--- ----- --- --- ------ -------- ----- --- ------ ----- --<br>----- ----- ---------- --- --- ------ became ---- -- ------<br>------- --- ------ ----- --- ---- ------- -- ---- --- --<br>------- ------,252434.88000007346,252433.82500007283,251730.312,251731.6850000061,251747.18,252447.043,,39,became
screen,html.Screen,1_1_1_1_40,2021-04-27T16:36:46.980Z,,,,,,,,,,,,,,,,54,,,,,,,,,,,,,,737.4419999761158,,response,,,,100,,,,,,,Space,keypress(Space),,,,,,,,-- --- ---- --- ------ ----- ------- ---- -- --- ------- --<br>------- ---------- ------ -- ----- -- ----- -- ---- ------<br>--- ----- --- --- ------ -------- ----- --- ------ ----- --<br>----- ----- ---------- --- --- ------ ------ wary -- ------<br>------- --- ------ ----- --- ---- ------- -- ---- --- --<br>------- ------,253185.50000002142,253184.48499997612,252430.205,252435.18500006758,252447.043,253196.95,,40,wary
screen,html.Screen,1_1_1_1_41,2021-04-27T16:36:47.668Z,,,,,,,,,,,,,,,,54,,,,,,,,,,,,,,675.7600000250968,,response,,,,100,,,,,,,Space,keypress(Space),,,,,,,,-- --- ---- --- ------ ----- ------- ---- -- --- ------- --<br>------- ---------- ------ -- ----- -- ----- -- ---- ------<br>--- ----- --- --- ------ -------- ----- --- ------ ----- --<br>----- ----- ---------- --- --- ------ ------ ---- of ------<br>------- --- ------ ----- --- ---- ------- -- ---- --- --<br>------- ------,253873.65500000305,253872.7100000251,253180.357,253185.7950000558,253196.95,253880.274,,41,of
screen,html.Screen,1_1_1_1_42,2021-04-27T16:36:48.250Z,,,,,,,,,,,,,,,,54,,,,,,,,,,,,,,575.226000040042,,response,,,,100,,,,,,,Space,keypress(Space),,,,,,,,-- --- ---- --- ------ ----- ------- ---- -- --- ------- --<br>------- ---------- ------ -- ----- -- ----- -- ---- ------<br>--- ----- --- --- ------ -------- ----- --- ------ ----- --<br>----- ----- ---------- --- --- ------ ------ ---- -- French<br>------- --- ------ ----- --- ---- ------- -- ---- --- --<br>------- ------,254456.11500006635,254455.50000004005,253863.575,253873.9250000799,253880.274,254463.695,,42,French
screen,html.Screen,1_1_1_1_43,2021-04-27T16:36:48.793Z,,,,,,,,,,,,,,,,54,,,,,,,,,,,,,,534.5250000667875,,response,,,,100,,,,,,,Space,keypress(Space),,,,,,,,-- --- ---- --- ------ ----- ------- ---- -- --- ------- --<br>------- ---------- ------ -- ----- -- ----- -- ---- ------<br>--- ----- --- --- ------ -------- ----- --- ------ ----- --<br>----- ----- ---------- --- --- ------ ------ ---- -- ------<br>credit. --- ------ ----- --- ---- ------- -- ---- --- --<br>------- ------,254998.61000000965,254998.2200000668,254446.797,254456.26500004437,254463.695,255013.62,,43,credit.
screen,html.Screen,1_1_1_1_44,2021-04-27T16:36:49.353Z,,,,,,,,,,,,,,,,54,,,,,,,,,,,,,,544.3450000436278,,response,,,,100,,,,,,,Space,keypress(Space),,,,,,,,-- --- ---- --- ------ ----- ------- ---- -- --- ------- --<br>------- ---------- ------ -- ----- -- ----- -- ---- ------<br>--- ----- --- --- ------ -------- ----- --- ------ ----- --<br>----- ----- ---------- --- --- ------ ------ ---- -- ------<br>------- The ------ ----- --- ---- ------- -- ---- --- --<br>------- ------,255558.38000006042,255557.96500004362,254997.03,254998.67500003893,255013.62,255563.556,,44,The
screen,html.Screen,1_1_1_1_45,2021-04-27T16:36:49.982Z,,,,,,,,,,,,,,,,54,,,,,,,,,,,,,,623.6290000461449,,response,,,,100,,,,,,,Space,keypress(Space),,,,,,,,-- --- ---- --- ------ ----- ------- ---- -- --- ------- --<br>------- ---------- ------ -- ----- -- ----- -- ---- ------<br>--- ----- --- --- ------ -------- ----- --- ------ ----- --<br>----- ----- ---------- --- --- ------ ------ ---- -- ------<br>------- --- French ----- --- ---- ------- -- ---- --- --<br>------- ------,256187.57000006735,256187.18500004616,255546.981,255558.47000004724,255563.556,256197.096,,45,French
screen,html.Screen,1_1_1_1_46,2021-04-27T16:36:51.290Z,,,,,,,,,,,,,,,,54,,,,,,,,,,,,,,1297.503999976354,,response,,,,100,,,,,,,Space,keypress(Space),,,,,,,,-- --- ---- --- ------ ----- ------- ---- -- --- ------- --<br>------- ---------- ------ -- ----- -- ----- -- ---- ------<br>--- ----- --- --- ------ -------- ----- --- ------ ----- --<br>----- ----- ---------- --- --- ------ ------ ---- -- ------<br>------- --- ------ state --- ---- ------- -- ---- --- --<br>------- ------,257495.50499999896,257494.59999997634,256180.368,256187.64999997802,256197.096,257520.177,,46,state
screen,html.Screen,1_1_1_1_47,2021-04-27T16:36:51.874Z,,,,,,,,,,,,,,,,54,,,,,,,,,,,,,,558.7130000043253,,response,,,,100,,,,,,,Space,keypress(Space),,,,,,,,-- --- ---- --- ------ ----- ------- ---- -- --- ------- --<br>------- ---------- ------ -- ----- -- ----- -- ---- ------<br>--- ----- --- --- ------ -------- ----- --- ------ ----- --<br>----- ----- ---------- --- --- ------ ------ ---- -- ------<br>------- --- ------ ----- was ---- ------- -- ---- --- --<br>------- ------,258079.3850000482,258078.89000000432,257480.325,257495.75500003994,257520.177,258099.958,,47,was
screen,html.Screen,1_1_1_1_48,2021-04-27T16:36:52.435Z,,,,,,,,,,,,,,,,54,,,,,,,,,,,,,,540.0069999802799,,response,,,,100,,,,,,,Space,keypress(Space),,,,,,,,-- --- ---- --- ------ ----- ------- ---- -- --- ------- --<br>------- ---------- ------ -- ----- -- ----- -- ---- ------<br>--- ----- --- --- ------ -------- ----- --- ------ ----- --<br>----- ----- ---------- --- --- ------ ------ ---- -- ------<br>------- --- ------ ----- --- left ------- -- ---- --- --<br>------- ------,258640.95000003,258639.9649999803,258063.605,258079.49999999255,258099.958,258646.919,,48,left
screen,html.Screen,1_1_1_1_49,2021-04-27T16:36:52.926Z,,,,,,,,,,,,,,,,54,,,,,,,,,,,,,,484.225999992108,,response,,,,100,,,,,,,Space,keypress(Space),,,,,,,,-- --- ---- --- ------ ----- ------- ---- -- --- ------- --<br>------- ---------- ------ -- ----- -- ----- -- ---- ------<br>--- ----- --- --- ------ -------- ----- --- ------ ----- --<br>----- ----- ---------- --- --- ------ ------ ---- -- ------<br>------- --- ------ ----- --- ---- without -- ---- --- --<br>------- ------,259131.7300000228,259131.1449999921,258630.502,258641.2550000241,258646.919,259147.142,,49,without
screen,html.Screen,1_1_1_1_50,2021-04-27T16:36:53.629Z,,,,,,,,,,,,,,,,54,,,,,,,,,,,,,,686.4580000126734,,response,,,,100,,,,,,,Space,keypress(Space),,,,,,,,-- --- ---- --- ------ ----- ------- ---- -- --- ------- --<br>------- ---------- ------ -- ----- -- ----- -- ---- ------<br>--- ----- --- --- ------ -------- ----- --- ------ ----- --<br>----- ----- ---------- --- --- ------ ------ ---- -- ------<br>------- --- ------ ----- --- ---- ------- an ---- --- --<br>------- ------,259834.61500005797,259833.60000001267,259130.299,259131.9150000345,259147.142,259847.141,,50,an
screen,html.Screen,1_1_1_1_51,2021-04-27T16:36:54.059Z,,,,,,,,,,,,,,,,54,,,,,,,,,,,,,,417.46900007111253,,response,,,,100,,,,,,,Space,keypress(Space),,,,,,,,-- --- ---- --- ------ ----- ------- ---- -- --- ------- --<br>------- ---------- ------ -- ----- -- ----- -- ---- ------<br>--- ----- --- --- ------ -------- ----- --- ------ ----- --<br>----- ----- ---------- --- --- ------ ------ ---- -- ------<br>------- --- ------ ----- --- ---- ------- -- easy --- --<br>------- ------,260265.11500007473,260264.61000007112,259830.301,259834.90999997593,259847.141,260280.467,,51,easy
screen,html.Screen,1_1_1_1_52,2021-04-27T16:36:54.458Z,,,,,,,,,,,,,,,,54,,,,,,,,,,,,,,381.99800005945144,,response,,,,100,,,,,,,Space,keypress(Space),,,,,,,,-- --- ---- --- ------ ----- ------- ---- -- --- ------- --<br>------- ---------- ------ -- ----- -- ----- -- ---- ------<br>--- ----- --- --- ------ -------- ----- --- ------ ----- --<br>----- ----- ---------- --- --- ------ ------ ---- -- ------<br>------- --- ------ ----- --- ---- ------- -- ---- way --<br>------- ------,260663.35499996785,260662.46500005946,260263.761,260265.24500001688,260280.467,260680.578,,52,way
screen,html.Screen,1_1_1_1_53,2021-04-27T16:36:54.869Z,,,,,,,,,,,,,,,,54,,,,,,,,,,,,,,393.41699998427066,,response,,,,100,,,,,,,Space,keypress(Space),,,,,,,,-- --- ---- --- ------ ----- ------- ---- -- --- ------- --<br>------- ---------- ------ -- ----- -- ----- -- ---- ------<br>--- ----- --- --- ------ -------- ----- --- ------ ----- --<br>----- ----- ---------- --- --- ------ ------ ---- -- ------<br>------- --- ------ ----- --- ---- ------- -- ---- --- of<br>------- ------,261074.64000000618,261073.99499998428,260663.829,260663.6100000469,260680.578,261080.292,,53,of
screen,html.Screen,1_1_1_1_54,2021-04-27T16:36:55.295Z,,,,,,,,,,,,,,,,54,,,,,,,,,,,,,,419.6429999707325,,response,,,,100,,,,,,,Space,keypress(Space),,,,,,,,-- --- ---- --- ------ ----- ------- ---- -- --- ------- --<br>------- ---------- ------ -- ----- -- ----- -- ---- ------<br>--- ----- --- --- ------ -------- ----- --- ------ ----- --<br>----- ----- ---------- --- --- ------ ------ ---- -- ------<br>------- --- ------ ----- --- ---- ------- -- ---- --- --<br>raising ------,261501.21999997646,261499.93499997072,261063.654,261074.8199999798,261080.292,261513.806,,54,raising
screen,html.Screen,1_1_1_1_55,2021-04-27T16:36:55.720Z,,,,,,,,,,,,,,,,54,,,,,,,,,,,,,,410.7140000004729,,response,,,,100,,,,,,,Space,keypress(Space),,,,,,,,-- --- ---- --- ------ ----- ------- ---- -- --- ------- --<br>------- ---------- ------ -- ----- -- ----- -- ---- ------<br>--- ----- --- --- ------ -------- ----- --- ------ ----- --<br>----- ----- ---------- --- --- ------ ------ ---- -- ------<br>------- --- ------ ----- --- ---- ------- -- ---- --- --<br>------- money.,261925.60499999672,261924.52000000048,261497.18,261501.56500004232,261513.806,261930.349,,55,money.
Item 100,flow.Loop,1_1_1_1,2021-04-27T16:36:55.720Z,,,,,,,,,,,,,,,,,,,,,,,,,,,,,,38677.94500000047,,completion,,,,,A,,,,,,,,,,,silence,,,,,261926.10500007868,261924.52000000048,223230,223231.40499996953,223246.575,261930.349,,,
Question 1,html.Screen,1_1_1_2,2021-04-27T16:36:59.161Z,,,,,,,,,,,,,,,,,,,,,,,,,,,true,TRUE,,3434.656000028772,,response,,,,100,A,,,,,,TRUE,click #choice-1,,,,silence,,,,,265366.7950000381,265365.00500002876,261913.764,261926.3300000457,261930.349,265380.551,,,
Question 2,html.Screen,1_1_1_3,2021-04-27T16:37:01.801Z,,,,,,,,,,,,,,,,,,,,,,,,,,,true,FALSE,,2624.3040000647306,,response,,,,100,A,,,,,,FALSE,click #choice-2,,,,silence,,,,,268006.640000036,268004.8550000647,265363.701,265367.06499999855,265380.551,268013.769,,,
Item 100,flow.Sequence,1_1_1,2021-04-27T16:37:01.801Z,,,,,,,,,,,,,,,,,,,,,,,,,,,,,,54758.62000006472,,completion,,,,,,,,,,,,,,,,,,,,,268007.1100000059,268004.8550000647,213229.554,213234.44000002928,213246.235,268013.769,,,
End of Practice,html.Page,1_1_2,2021-04-27T16:37:18.718Z,,,,,,,,,,,,,,,,,,,,,,,,,,,,,,16909.66100008262,,form submission,,,,,,,,,,,,,,,,,,,,,284924.20500004664,284923.4300000826,267997.042,268007.33499997295,268013.769,284930.677,,,
Practice,flow.Sequence,1_1,2021-04-27T16:37:18.719Z,,,,,,,,,,,,,,,,,,,,,,,,,,,,,,133127.96600008258,,completion,,,,,,,,,,,,,,,,,,,,,284924.6549999807,284923.4300000826,151778.604,151802.55000002217,151795.464,284930.677,,,
Trap_instruction,html.Page,1_2_0,2021-04-27T16:37:36.451Z,,,,,,,,,,,,,,,,,,,,,,,,,,,,,,17725.013000043225,,form submission,,,,,,,,,,,,,,,,,,,,,302656.4350000117,302655.69000004325,284914.14,284924.95500005316,284930.677,302680.873,,,
trap_trial,html.Screen,1_2_1,2021-04-27T16:37:42.540Z,,,,,,,,,,,,,,,,,,,,,,,,,,,true,1,,6062.572000029148,,response,,,,,,,,,,,1,click #choice-1,,,,,,,,,308745.5750000663,308743.44500002917,302647.591,302656.6800000146,302680.873,308747.732,,,
end of trap trial,html.Page,1_2_2,2021-04-27T16:37:45.600Z,,,,,,,,,,,,,,,,,,,,,,,,,,,,,,3056.9379999831435,,form submission,,,,,,,,,,,,,,,,,,,,,311805.4300000658,311804.66999998316,308731.141,308745.8950000582,308747.732,311814.45,,,
Trap 1,flow.Sequence,1_2,2021-04-27T16:37:45.600Z,,,,,,,,,,,,,,,,,,,,,,,,,,,,,,26873.992999983137,,completion,,,,,,,,,,,,,,,,,,,,,311805.8650000021,311804.66999998316,284914.14,284924.8750000261,284930.677,311814.45,,,
Standby,html.Page,1_3_0,2021-04-27T16:37:53.594Z,,,,,,,,,,,,,,,,,,,,,,,,,,,,,,8000.087999999989,,timeout,,,,,,,,,,,,,,,,,,,,,319799.3150000693,319798.107,311797.766,311806.15000007674,311814.45,319814.538,,,
Holding screen,html.Screen,1_3_1_0_0,2021-04-27T16:38:00.593Z,,,,,,,,,,,,,,,,,,,,,,,,,,,,,,7000.277999999991,,timeout,,,,,,,,,,,,,,,,,,,,,326799.23500004224,326797.976,319798.107,319799.75500004366,319814.538,326814.816,,,
screen,html.Screen,1_3_1_0_1_0,2021-04-27T16:38:01.383Z,,,,,,,,,,,,,,,,2,,,,,,,,,,,,,,772.2740000445629,,response,,,,1,A,,,,,,Space,keypress(Space),,,,silence,,,,Two ---- ------ --- ------- ---------- ------- ----------<br>--- --------- --- ----------- ------- ----- ------- ---<br>--------- ---- -- --- ---- -- --------- -- ---- -------<br>-- --------- ------ --- ----- ------ ---- --- --------- --<br>------ - ---- -- --- ----------- ------- ---- ----- -----<br>--- -------- - ------ ---- -- ----- ---- --- --- -----------<br>-- -------,327588.310000021,327587.09000004455,326797.976,326799.8900000239,326814.816,327597.985,,0,Two
screen,html.Screen,1_3_1_0_1_1,2021-04-27T16:38:01.930Z,,,,,,,,,,,,,,,,2,,,,,,,,,,,,,,536.6250000664731,,response,,,,1,A,,,,,,Space,keypress(Space),,,,silence,,,,--- days ------ --- ------- ---------- ------- ----------<br>--- --------- --- ----------- ------- ----- ------- ---<br>--------- ---- -- --- ---- -- --------- -- ---- -------<br>-- --------- ------ --- ----- ------ ---- --- --------- --<br>------ - ---- -- --- ----------- ------- ---- ----- -----<br>--- -------- - ------ ---- -- ----- ---- --- --- -----------<br>-- -------,328135.63999999315,328134.61000006646,327581.432,327588.635000051,327597.985,328148.028,,1,days
screen,html.Screen,1_3_1_0_1_2,2021-04-27T16:38:02.374Z,,,,,,,,,,,,,,,,2,,,,,,,,,,,,,,430.55700001021614,,response,,,,1,A,,,,,,Space,keypress(Space),,,,silence,,,,"--- ---- later, --- ------- ---------- ------- ----------<br>--- --------- --- ----------- ------- ----- ------- ---<br>--------- ---- -- --- ---- -- --------- -- ---- -------<br>-- --------- ------ --- ----- ------ ---- --- --------- --<br>------ - ---- -- --- ----------- ------- ---- ----- -----<br>--- -------- - ------ ---- -- ----- ---- --- --- -----------<br>-- -------",328579.58000001963,328578.5850000102,328131.511,328135.9250000678,328148.028,328600.706,,2,"later,"
screen,html.Screen,1_3_1_0_1_3,2021-04-27T16:38:02.890Z,,,,,,,,,,,,,,,,2,,,,,,,,,,,,,,495.04900001664646,,response,,,,1,A,,,,,,Space,keypress(Space),,,,silence,,,,--- ---- ------ the ------- ---------- ------- ----------<br>--- --------- --- ----------- ------- ----- ------- ---<br>--------- ---- -- --- ---- -- --------- -- ---- -------<br>-- --------- ------ --- ----- ------ ---- --- --------- --<br>------ - ---- -- --- ----------- ------- ---- ----- -----<br>--- -------- - ------ ---- -- ----- ---- --- --- -----------<br>-- -------,329096.1600000737,329095.75500001665,328564.783,328579.875000054,328600.706,329097.914,,3,the
screen,html.Screen,1_3_1_0_1_4,2021-04-27T16:38:03.406Z,,,,,,,,,,,,,,,,2,,,,,,,,,,,,,,513.0360000020592,,response,,,,1,A,,,,,,Space,keypress(Space),,,,silence,,,,--- ---- ------ --- British ---------- ------- ----------<br>--- --------- --- ----------- ------- ----- ------- ---<br>--------- ---- -- --- ---- -- --------- -- ---- -------<br>-- --------- ------ --- ----- ------ ---- --- --------- --<br>------ - ---- -- --- ----------- ------- ---- ----- -----<br>--- -------- - ------ ---- -- ----- ---- --- --- -----------<br>-- -------,329611.9549999712,329610.95000000205,329081.545,329096.2399999844,329097.914,329614.696,,4,British
screen,html.Screen,1_3_1_0_1_5,2021-04-27T16:38:04.429Z,,,,,,,,,,,,,,,,2,,,,,,,,,,,,,,1018.9839999699034,,response,,,,1,A,,,,,,Space,keypress(Space),,,,silence,,,,--- ---- ------ --- ------- astronomer ------- ----------<br>--- --------- --- ----------- ------- ----- ------- ---<br>--------- ---- -- --- ---- -- --------- -- ---- -------<br>-- --------- ------ --- ----- ------ ---- --- --------- --<br>------ - ---- -- --- ----------- ------- ---- ----- -----<br>--- -------- - ------ ---- -- ----- ---- --- --- -----------<br>-- -------,330634.68500005547,330633.6799999699,329597.951,329612.2350000078,329614.696,330648.376,,5,astronomer
screen,html.Screen,1_3_1_0_1_6,2021-04-27T16:38:05.039Z,,,,,,,,,,,,,,,,2,,,,,,,,,,,,,,596.2239999763551,,response,,,,1,A,,,,,,Space,keypress(Space),,,,silence,,,,--- ---- ------ --- ------- ---------- Richard ----------<br>--- --------- --- ----------- ------- ----- ------- ---<br>--------- ---- -- --- ---- -- --------- -- ---- -------<br>-- --------- ------ --- ----- ------ ---- --- --------- --<br>------ - ---- -- --- ----------- ------- ---- ----- -----<br>--- -------- - ------ ---- -- ----- ---- --- --- -----------<br>-- -------,331244.98499999754,331244.59999997634,330631.245,330634.9700000137,330648.376,331248.075,,6,Richard
screen,html.Screen,1_3_1_0_1_7,2021-04-27T16:38:05.438Z,,,,,,,,,,,,,,,,2,,,,,,,,,,,,,,395.0800000561285,,response,,,,1,A,,,,,,Space,keypress(Space),,,,silence,,,,--- ---- ------ --- ------- ---------- ------- Carrington<br>--- --------- --- ----------- ------- ----- ------- ---<br>--------- ---- -- --- ---- -- --------- -- ---- -------<br>-- --------- ------ --- ----- ------ ---- --- --------- --<br>------ - ---- -- --- ----------- ------- ---- ----- -----<br>--- -------- - ------ ---- -- ----- ---- --- --- -----------<br>-- -------,331643.66000005975,331643.15500005614,331231.492,331245.0650000246,331248.075,331648.054,,7,Carrington
screen,html.Screen,1_3_1_0_1_8,2021-04-27T16:38:06.029Z,,,,,,,,,,,,,,,,2,,,,,,,,,,,,,,585.37600002205,,response,,,,1,A,,,,,,Space,keypress(Space),,,,silence,,,,--- ---- ------ --- ------- ---------- ------- ----------<br>was --------- --- ----------- ------- ----- ------- ---<br>--------- ---- -- --- ---- -- --------- -- ---- -------<br>-- --------- ------ --- ----- ------ ---- --- --------- --<br>------ - ---- -- --- ----------- ------- ---- ----- -----<br>--- -------- - ------ ---- -- ----- ---- --- --- -----------<br>-- -------,332234.6949999919,332233.43000002205,331631.422,331643.8049999997,331648.054,332248.207,,8,was
screen,html.Screen,1_3_1_0_1_9,2021-04-27T16:38:06.691Z,,,,,,,,,,,,,,,,2,,,,,,,,,,,,,,647.8030000258586,,response,,,,1,A,,,,,,Space,keypress(Space),,,,silence,,,,--- ---- ------ --- ------- ---------- ------- ----------<br>--- observing --- ----------- ------- ----- ------- ---<br>--------- ---- -- --- ---- -- --------- -- ---- -------<br>-- --------- ------ --- ----- ------ ---- --- --------- --<br>------ - ---- -- --- ----------- ------- ---- ----- -----<br>--- -------- - ------ ---- -- ----- ---- --- --- -----------<br>-- -------,332896.9250000082,332896.01000002585,332231.53,332234.9900000263,332248.207,332923.655,,9,observing
screen,html.Screen,1_3_1_0_1_10,2021-04-27T16:38:07.197Z,,,,,,,,,,,,,,,,2,,,,,,,,,,,,,,477.52000000630505,,response,,,,1,A,,,,,,Space,keypress(Space),,,,silence,,,,--- ---- ------ --- ------- ---------- ------- ----------<br>--- --------- the ----------- ------- ----- ------- ---<br>--------- ---- -- --- ---- -- --------- -- ---- -------<br>-- --------- ------ --- ----- ------ ---- --- --------- --<br>------ - ---- -- --- ----------- ------- ---- ----- -----<br>--- -------- - ------ ---- -- ----- ---- --- --- -----------<br>-- -------,333402.34000002965,333401.17500000633,332881.507,332897.1850000089,332923.655,333414.689,,10,the
screen,html.Screen,1_3_1_0_1_11,2021-04-27T16:38:08.150Z,,,,,,,,,,,,,,,,2,,,,,,,,,,,,,,940.9160000479314,,response,,,,1,A,,,,,,Space,keypress(Space),,,,silence,,,,--- ---- ------ --- ------- ---------- ------- ----------<br>--- --------- --- interesting ------- ----- ------- ---<br>--------- ---- -- --- ---- -- --------- -- ---- -------<br>-- --------- ------ --- ----- ------ ---- --- --------- --<br>------ - ---- -- --- ----------- ------- ---- ----- -----<br>--- -------- - ------ ---- -- ----- ---- --- --- -----------<br>-- -------,334356.1500000069,334355.60500004794,333398.044,333402.62000006624,333414.689,334364.917,,11,interesting
screen,html.Screen,1_3_1_0_1_12,2021-04-27T16:38:08.644Z,,,,,,,,,,,,,,,,2,,,,,,,,,,,,,,483.42800006398465,,response,,,,1,A,,,,,,Space,keypress(Space),,,,silence,,,,--- ---- ------ --- ------- ---------- ------- ----------<br>--- --------- --- ----------- sunspot ----- ------- ---<br>--------- ---- -- --- ---- -- --------- -- ---- -------<br>-- --------- ------ --- ----- ------ ---- --- --------- --<br>------ - ---- -- --- ----------- ------- ---- ----- -----<br>--- -------- - ------ ---- -- ----- ---- --- --- -----------<br>-- -------,334849.38500006683,334848.345000064,334348.167,334356.29500006326,334364.917,334864.735,,12,sunspot
screen,html.Screen,1_3_1_0_1_13,2021-04-27T16:38:09.467Z,,,,,,,,,,,,,,,,2,,,,,,,,,,,,,,807.334999971441,,response,,,,1,A,,,,,,Space,keypress(Space),,,,silence,,,,--- ---- ------ --- ------- ---------- ------- ----------<br>--- --------- --- ----------- ------- group ------- ---<br>--------- ---- -- --- ---- -- --------- -- ---- -------<br>-- --------- ------ --- ----- ------ ---- --- --------- --<br>------ - ---- -- --- ----------- ------- ---- ----- -----<br>--- -------- - ------ ---- -- ----- ---- --- --- -----------<br>-- -------,335672.9800000321,335672.0699999714,334848.215,334849.6700000251,334864.735,335681.433,,13,group
screen,html.Screen,1_3_1_0_1_14,2021-04-27T16:38:10.048Z,,,,,,,,,,,,,,,,2,,,,,,,,,,,,,,571.6669999726,,response,,,,1,A,,,,,,Space,keypress(Space),,,,silence,,,,--- ---- ------ --- ------- ---------- ------- ----------<br>--- --------- --- ----------- ------- ----- through ---<br>--------- ---- -- --- ---- -- --------- -- ---- -------<br>-- --------- ------ --- ----- ------ ---- --- --------- --<br>------ - ---- -- --- ----------- ------- ---- ----- -----<br>--- -------- - ------ ---- -- ----- ---- --- --- -----------<br>-- -------,336253.4849999938,336253.0999999726,335664.674,335673.23499999475,335681.433,336264.892,,14,through
screen,html.Screen,1_3_1_0_1_15,2021-04-27T16:38:10.544Z,,,,,,,,,,,,,,,,2,,,,,,,,,,,,,,483.648000058718,,response,,,,1,A,,,,,,Space,keypress(Space),,,,silence,,,,--- ---- ------ --- ------- ---------- ------- ----------<br>--- --------- --- ----------- ------- ----- ------- his<br>--------- ---- -- --- ---- -- --------- -- ---- -------<br>-- --------- ------ --- ----- ------ ---- --- --------- --<br>------ - ---- -- --- ----------- ------- ---- ----- -----<br>--- -------- - ------ ---- -- ----- ---- --- --- -----------<br>-- -------,336749.65500005055,336748.5400000587,336248.12,336253.55500006117,336264.892,336764.9,,15,his
screen,html.Screen,1_3_1_0_1_16,2021-04-27T16:38:11.210Z,,,,,,,,,,,,,,,,2,,,,,,,,,,,,,,649.690000058501,,response,,,,1,A,,,,,,Space,keypress(Space),,,,silence,,,,--- ---- ------ --- ------- ---------- ------- ----------<br>--- --------- --- ----------- ------- ----- ------- ---<br>telescope ---- -- --- ---- -- --------- -- ---- -------<br>-- --------- ------ --- ----- ------ ---- --- --------- --<br>------ - ---- -- --- ----------- ------- ---- ----- -----<br>--- -------- - ------ ---- -- ----- ---- --- --- -----------<br>-- -------,337415.60000006575,337414.5900000585,336748.179,336749.9400000088,336764.9,337431.547,,16,telescope
screen,html.Screen,1_3_1_0_1_17,2021-04-27T16:38:12.085Z,,,,,,,,,,,,,,,,2,,,,,,,,,,,,,,858.4230000416283,,response,,,,1,A,,,,,,Space,keypress(Space),,,,silence,,,,--- ---- ------ --- ------- ---------- ------- ----------<br>--- --------- --- ----------- ------- ----- ------- ---<br>--------- when -- --- ---- -- --------- -- ---- -------<br>-- --------- ------ --- ----- ------ ---- --- --------- --<br>------ - ---- -- --- ----------- ------- ---- ----- -----<br>--- -------- - ------ ---- -- ----- ---- --- --- -----------<br>-- -------,338290.8550000284,338289.97000004165,337414.755,337415.8550000284,337431.547,338298.209,,17,when
screen,html.Screen,1_3_1_0_1_18,2021-04-27T16:38:12.556Z,,,,,,,,,,,,,,,,2,,,,,,,,,,,,,,463.03600005974295,,response,,,,1,A,,,,,,Space,keypress(Space),,,,silence,,,,--- ---- ------ --- ------- ---------- ------- ----------<br>--- --------- --- ----------- ------- ----- ------- ---<br>--------- ---- he --- ---- -- --------- -- ---- -------<br>-- --------- ------ --- ----- ------ ---- --- --------- --<br>------ - ---- -- --- ----------- ------- ---- ----- -----<br>--- -------- - ------ ---- -- ----- ---- --- --- -----------<br>-- -------,338762.2599999886,338761.2450000597,338281.609,338291.13500006497,338298.209,338764.836,,18,he
screen,html.Screen,1_3_1_0_1_19,2021-04-27T16:38:13.021Z,,,,,,,,,,,,,,,,2,,,,,,,,,,,,,,462.2640000182437,,response,,,,1,A,,,,,,Space,keypress(Space),,,,silence,,,,--- ---- ------ --- ------- ---------- ------- ----------<br>--- --------- --- ----------- ------- ----- ------- ---<br>--------- ---- -- saw ---- -- --------- -- ---- -------<br>-- --------- ------ --- ----- ------ ---- --- --------- --<br>------ - ---- -- --- ----------- ------- ---- ----- -----<br>--- -------- - ------ ---- -- ----- ---- --- --- -----------<br>-- -------,339227.62000001967,339227.10000001825,338748.291,338762.5400000252,338764.836,339231.389,,19,saw
screen,html.Screen,1_3_1_0_1_20,2021-04-27T16:38:13.520Z,,,,,,,,,,,,,,,,2,,,,,,,,,,,,,,493.7560000330559,,response,,,,1,A,,,,,,Space,keypress(Space),,,,silence,,,,--- ---- ------ --- ------- ---------- ------- ----------<br>--- --------- --- ----------- ------- ----- ------- ---<br>--------- ---- -- --- what -- --------- -- ---- -------<br>-- --------- ------ --- ----- ------ ---- --- --------- --<br>------ - ---- -- --- ----------- ------- ---- ----- -----<br>--- -------- - ------ ---- -- ----- ---- --- --- -----------<br>-- -------,339726.08499997295,339725.1450000331,339214.951,339227.7350000804,339231.389,339731.45,,20,what
screen,html.Screen,1_3_1_0_1_21,2021-04-27T16:38:13.977Z,,,,,,,,,,,,,,,,2,,,,,,,,,,,,,,450.45500000490574,,response,,,,1,A,,,,,,Space,keypress(Space),,,,silence,,,,--- ---- ------ --- ------- ---------- ------- ----------<br>--- --------- --- ----------- ------- ----- ------- ---<br>--------- ---- -- --- ---- he --------- -- ---- -------<br>-- --------- ------ --- ----- ------ ---- --- --------- --<br>------ - ---- -- --- ----------- ------- ---- ----- -----<br>--- -------- - ------ ---- -- ----- ---- --- --- -----------<br>-- -------,340183.11500002164,340181.9050000049,339714.947,339726.33500001393,339731.45,340198.255,,21,he
screen,html.Screen,1_3_1_0_1_22,2021-04-27T16:38:14.470Z,,,,,,,,,,,,,,,,2,,,,,,,,,,,,,,477.3400000369875,,response,,,,1,A,,,,,,Space,keypress(Space),,,,silence,,,,--- ---- ------ --- ------- ---------- ------- ----------<br>--- --------- --- ----------- ------- ----- ------- ---<br>--------- ---- -- --- ---- -- described -- ---- -------<br>-- --------- ------ --- ----- ------ ---- --- --------- --<br>------ - ---- -- --- ----------- ------- ---- ----- -----<br>--- -------- - ------ ---- -- ----- ---- --- --- -----------<br>-- -------,340676.51999997906,340675.595000037,340181.515,340183.4149999777,340198.255,340681.462,,22,described
screen,html.Screen,1_3_1_0_1_23,2021-04-27T16:38:14.931Z,,,,,,,,,,,,,,,,2,,,,,,,,,,,,,,455.21300007432,,response,,,,1,A,,,,,,Space,keypress(Space),,,,silence,,,,--- ---- ------ --- ------- ---------- ------- ----------<br>--- --------- --- ----------- ------- ----- ------- ---<br>--------- ---- -- --- ---- -- --------- as ---- -------<br>-- --------- ------ --- ----- ------ ---- --- --------- --<br>------ - ---- -- --- ----------- ------- ---- ----- -----<br>--- -------- - ------ ---- -- ----- ---- --- --- -----------<br>-- -------,341137.5949999783,341136.6750000743,340664.885,340676.77000002004,340681.462,341148.224,,23,as
screen,html.Screen,1_3_1_0_1_24,2021-04-27T16:38:15.351Z,,,,,,,,,,,,,,,,2,,,,,,,,,,,,,,407.69100003357744,,response,,,,1,A,,,,,,Space,keypress(Space),,,,silence,,,,"--- ---- ------ --- ------- ---------- ------- ----------<br>--- --------- --- ----------- ------- ----- ------- ---<br>--------- ---- -- --- ---- -- --------- -- ""two -------<br>-- --------- ------ --- ----- ------ ---- --- --------- --<br>------ - ---- -- --- ----------- ------- ---- ----- -----<br>--- -------- - ------ ---- -- ----- ---- --- --- -----------<br>-- -------",341556.8950000452,341555.91500003356,341131.655,341137.8450000193,341148.224,341565.023,,24,"""two"
screen,html.Screen,1_3_1_0_1_25,2021-04-27T16:38:15.821Z,,,,,,,,,,,,,,,,2,,,,,,,,,,,,,,460.5819999734522,,response,,,,1,A,,,,,,Space,keypress(Space),,,,silence,,,,--- ---- ------ --- ------- ---------- ------- ----------<br>--- --------- --- ----------- ------- ----- ------- ---<br>--------- ---- -- --- ---- -- --------- -- ---- patches<br>-- --------- ------ --- ----- ------ ---- --- --------- --<br>------ - ---- -- --- ----------- ------- ---- ----- -----<br>--- -------- - ------ ---- -- ----- ---- --- --- -----------<br>-- -------,342026.7000000458,342025.60499997344,341548.248,341557.14499996975,341565.023,342031.474,,25,patches
screen,html.Screen,1_3_1_0_1_26,2021-04-27T16:38:16.301Z,,,,,,,,,,,,,,,,2,,,,,,,,,,,,,,474.65100007265573,,response,,,,1,A,,,,,,Space,keypress(Space),,,,silence,,,,--- ---- ------ --- ------- ---------- ------- ----------<br>--- --------- --- ----------- ------- ----- ------- ---<br>--------- ---- -- --- ---- -- --------- -- ---- -------<br>of --------- ------ --- ----- ------ ---- --- --------- --<br>------ - ---- -- --- ----------- ------- ---- ----- -----<br>--- -------- - ------ ---- -- ----- ---- --- --- -----------<br>-- -------,342507.0700000506,342506.12500007264,342015.087,342027.03500003554,342031.474,342515.059,,26,of
screen,html.Screen,1_3_1_0_1_27,2021-04-27T16:38:16.881Z,,,,,,,,,,,,,,,,2,,,,,,,,,,,,,,571.311000033631,,response,,,,1,A,,,,,,Space,keypress(Space),,,,silence,,,,--- ---- ------ --- ------- ---------- ------- ----------<br>--- --------- --- ----------- ------- ----- ------- ---<br>--------- ---- -- --- ---- -- --------- -- ---- -------<br>-- intensely ------ --- ----- ------ ---- --- --------- --<br>------ - ---- -- --- ----------- ------- ---- ----- -----<br>--- -------- - ------ ---- -- ----- ---- --- --- -----------<br>-- -------,343087.38000004087,343086.37000003364,342498.299,342507.3300000513,342515.059,343098.497,,27,intensely
screen,html.Screen,1_3_1_0_1_28,2021-04-27T16:38:17.435Z,,,,,,,,,,,,,,,,2,,,,,,,,,,,,,,542.318000049796,,response,,,,1,A,,,,,,Space,keypress(Space),,,,silence,,,,--- ---- ------ --- ------- ---------- ------- ----------<br>--- --------- --- ----------- ------- ----- ------- ---<br>--------- ---- -- --- ---- -- --------- -- ---- -------<br>-- --------- bright --- ----- ------ ---- --- --------- --<br>------ - ---- -- --- ----------- ------- ---- ----- -----<br>--- -------- - ------ ---- -- ----- ---- --- --- -----------<br>-- -------,343641.2199999904,343640.81500004977,343081.502,343087.6649999991,343098.497,343648.19,,28,bright
screen,html.Screen,1_3_1_0_1_29,2021-04-27T16:38:17.886Z,,,,,,,,,,,,,,,,2,,,,,,,,,,,,,,443.4250000411994,,response,,,,1,A,,,,,,Space,keypress(Space),,,,silence,,,,--- ---- ------ --- ------- ---------- ------- ----------<br>--- --------- --- ----------- ------- ----- ------- ---<br>--------- ---- -- --- ---- -- --------- -- ---- -------<br>-- --------- ------ and ----- ------ ---- --- --------- --<br>------ - ---- -- --- ----------- ------- ---- ----- -----<br>--- -------- - ------ ---- -- ----- ---- --- --- -----------<br>-- -------,344092.5249999855,344091.6150000412,343631.781,343641.3150000153,343648.19,344098.186,,29,and
screen,html.Screen,1_3_1_0_1_30,2021-04-27T16:38:18.348Z,,,,,,,,,,,,,,,,2,,,,,,,,,,,,,,454.8840000235941,,response,,,,1,A,,,,,,Space,keypress(Space),,,,silence,,,,--- ---- ------ --- ------- ---------- ------- ----------<br>--- --------- --- ----------- ------- ----- ------- ---<br>--------- ---- -- --- ---- -- --------- -- ---- -------<br>-- --------- ------ --- white ------ ---- --- --------- --<br>------ - ---- -- --- ----------- ------- ---- ----- -----<br>--- -------- - ------ ---- -- ----- ---- --- --- -----------<br>-- -------,344553.99500008207,344553.0700000236,344081.469,344092.7800000645,344098.186,344564.91,,30,white
screen,html.Screen,1_3_1_0_1_31,2021-04-27T16:38:18.831Z,,,,,,,,,,,,,,,,2,,,,,,,,,,,,,,471.2050000244635,,response,,,,1,A,,,,,,Space,keypress(Space),,,,silence,,,,"--- ---- ------ --- ------- ---------- ------- ----------<br>--- --------- --- ----------- ------- ----- ------- ---<br>--------- ---- -- --- ---- -- --------- -- ---- -------<br>-- --------- ------ --- ----- light"" ---- --- --------- --<br>------ - ---- -- --- ----------- ------- ---- ----- -----<br>--- -------- - ------ ---- -- ----- ---- --- --- -----------<br>-- -------",345037.0249999687,345036.11500002444,344548.259,344554.2500000447,344564.91,345048.445,,31,"light"""
screen,html.Screen,1_3_1_0_1_32,2021-04-27T16:38:19.404Z,,,,,,,,,,,,,,,,2,,,,,,,,,,,,,,560.6800000754301,,response,,,,1,A,,,,,,Space,keypress(Space),,,,silence,,,,--- ---- ------ --- ------- ---------- ------- ----------<br>--- --------- --- ----------- ------- ----- ------- ---<br>--------- ---- -- --- ---- -- --------- -- ---- -------<br>-- --------- ------ --- ----- ------ over --- --------- --<br>------ - ---- -- --- ----------- ------- ---- ----- -----<br>--- -------- - ------ ---- -- ----- ---- --- --- -----------<br>-- -------,345609.73500006367,345609.12500007544,345031.643,345037.2750000097,345048.445,345614.965,,32,over
screen,html.Screen,1_3_1_0_1_33,2021-04-27T16:38:19.899Z,,,,,,,,,,,,,,,,2,,,,,,,,,,,,,,488.9349999873084,,response,,,,1,A,,,,,,Space,keypress(Space),,,,silence,,,,--- ---- ------ --- ------- ---------- ------- ----------<br>--- --------- --- ----------- ------- ----- ------- ---<br>--------- ---- -- --- ---- -- --------- -- ---- -------<br>-- --------- ------ --- ----- ------ ---- the --------- --<br>------ - ---- -- --- ----------- ------- ---- ----- -----<br>--- -------- - ------ ---- -- ----- ---- --- --- -----------<br>-- -------,346104.9050000729,346103.89999998733,345598.189,345609.89000007976,345614.965,346115.044,,33,the
screen,html.Screen,1_3_1_0_1_34,2021-04-27T16:38:20.504Z,,,,,,,,,,,,,,,,2,,,,,,,,,,,,,,594.2060000726487,,response,,,,1,A,,,,,,Space,keypress(Space),,,,silence,,,,--- ---- ------ --- ------- ---------- ------- ----------<br>--- --------- --- ----------- ------- ----- ------- ---<br>--------- ---- -- --- ---- -- --------- -- ---- -------<br>-- --------- ------ --- ----- ------ ---- --- sunspots. --<br>------ - ---- -- --- ----------- ------- ---- ----- -----<br>--- -------- - ------ ---- -- ----- ---- --- --- -----------<br>-- -------,346710.3450000286,346709.25000007264,346098.415,346105.1950000692,346115.044,346714.963,,34,sunspots.
screen,html.Screen,1_3_1_0_1_35,2021-04-27T16:38:21.111Z,,,,,,,,,,,,,,,,2,,,,,,,,,,,,,,600.8870000136085,,response,,,,1,A,,,,,,Space,keypress(Space),,,,silence,,,,--- ---- ------ --- ------- ---------- ------- ----------<br>--- --------- --- ----------- ------- ----- ------- ---<br>--------- ---- -- --- ---- -- --------- -- ---- -------<br>-- --------- ------ --- ----- ------ ---- --- --------- He<br>------ - ---- -- --- ----------- ------- ---- ----- -----<br>--- -------- - ------ ---- -- ----- ---- --- --- -----------<br>-- -------,347316.62499997765,347315.8500000136,346698.229,346710.6350000249,346714.963,347331.63,,35,He
screen,html.Screen,1_3_1_0_1_36,2021-04-27T16:38:21.765Z,,,,,,,,,,,,,,,,2,,,,,,,,,,,,,,637.8900000423891,,response,,,,1,A,,,,,,Space,keypress(Space),,,,silence,,,,--- ---- ------ --- ------- ---------- ------- ----------<br>--- --------- --- ----------- ------- ----- ------- ---<br>--------- ---- -- --- ---- -- --------- -- ---- -------<br>-- --------- ------ --- ----- ------ ---- --- --------- --<br>jotted - ---- -- --- ----------- ------- ---- ----- -----<br>--- -------- - ------ ---- -- ----- ---- --- --- -----------<br>-- -------,347970.6400000723,347969.5200000424,347315.123,347316.82499998715,347331.63,347981.702,,36,jotted
screen,html.Screen,1_3_1_0_1_37,2021-04-27T16:38:22.294Z,,,,,,,,,,,,,,,,2,,,,,,,,,,,,,,517.0579999876791,,response,,,,1,A,,,,,,Space,keypress(Space),,,,silence,,,,--- ---- ------ --- ------- ---------- ------- ----------<br>--- --------- --- ----------- ------- ----- ------- ---<br>--------- ---- -- --- ---- -- --------- -- ---- -------<br>-- --------- ------ --- ----- ------ ---- --- --------- --<br>------ a ---- -- --- ----------- ------- ---- ----- -----<br>--- -------- - ------ ---- -- ----- ---- --- --- -----------<br>-- -------,348499.7549999971,348498.75999998767,347965.055,347970.9199999925,347981.702,348514.927,,37,a
