sender,sender_type,sender_id,timestamp,meta,,Blues,Classical,Country,Dance,Electronic,Folk,Gospel,Hip-Hop,Jazz,Latin,Musical/Film,New-age,Pop,Provo_ID,R&B,Rap,Reggae,Religious,Rock,Soul,Swing,Traditional,age,artist_name,correct,correctResponse,distraction,duration,education,ended_on,familiarity,gender,headphone_check_performance,item,list,music_frequency,offensiveness,pleasantness,position_correct,preference,response,response_action,snippet_file,song_name,song_rating,sound,stimulus_1,stimulus_2,stimulus_3,text,time_commit,time_end,time_render,time_run,time_show,time_switch,url,word,word_ID
Introduction,html.Screen,0_0,2021-04-19T10:17:52.264Z,"{""labjs_version"":""20.2.2"",""labjs_build"":{""flavor"":""production"",""commit"":""a25486e0c714a0ae2ce03ff94b7bb6896854dcfa""},""location"":""https://run.pavlovia.org/mvasilev/music_f/"",""userAgent"":""Mozilla/5.0 (Windows NT 10.0; Win64; x64) AppleWebKit/537.36 (KHTML, like Gecko) Chrome/89.0.4389.128 Safari/537.36"",""platform"":""Win32"",""language"":""en-US"",""locale"":""en-GB"",""timeZone"":""Europe/London"",""timezoneOffset"":-60,""screen_width"":1366,""screen_height"":768,""scroll_width"":1366,""scroll_height"":577,""window_innerWidth"":1366,""window_innerHeight"":625,""devicePixelRatio"":1}",,,,,,,,,,,,,,,,,,,,,,,,,,,,,67550.31400009239,,response,,,,,,,,,,,continue,click button,,,,,,,,,88681.95499991998,88670.45000009239,20837.023,20837.75500021875,21120.136,88737.317,{},,
Volume calibration,html.Screen,0_1,2021-04-19T10:18:21.502Z,,,,,,,,,,,,,,,,,,,,,,,,,,,,,,29169.273000260626,,response,,,,,,,,,,,continue,click button,,,,,,,,,117920.44000001624,117906.59000026062,88670.726,88683.36000014096,88737.317,118009.149,,,
Task instructions,html.Screen,0_2,2021-04-19T10:18:29.372Z,,,,,,,,,,,,,,,,,,,,,,,,,,,,,,7778.735999997909,,response,,,,,,,,,,,continue,click button,,,,,,,,,125790.70000024512,125787.88499999791,117927.124,117921.06000008062,118009.149,125801.032,,,
Sounds,html.Screen,0_3_0_0,2021-04-19T10:18:33.620Z,,,,,,,,,,,,,,,,,,,,,,,,,,,,,,4245.8169999999955,,timeout,,,,,,,,,1,,,,,,,,S,O,I,,130038.31000020728,130030.222,125784.54,125791.65000002831,125801.032,130046.849,,,
Judgement,html.Screen,0_3_0_1,2021-04-19T10:18:35.918Z,,,,,,,,,,,,,,,,,,,,,,,,,,,true,1,,2286.331000074206,,response,,,,,,,,,1,,1,click #choice-1,,,,,S,O,I,,132335.9449999407,132333.1800000742,130030.222,130039.0750002116,130046.849,132344.623,,,
Trial,flow.Sequence,0_3_0,2021-04-19T10:18:35.919Z,,,,,,,,,,,,,,,,,,,,,,,,,,,,,,6532.148000074201,,completion,,,,,,,,,1,,,,,,,,S,O,I,,132337.23000017926,132333.1800000742,125784.54,125791.39999998733,125801.032,132344.623,,,
Sounds,html.Screen,0_3_1_0,2021-04-19T10:18:40.157Z,,,,,,,,,,,,,,,,,,,,,,,,,,,,,,4245.847999999998,,timeout,,,,,,,,,2,,,,,,,,O,S,I,,136575.530000031,136573.846,132329.374,132337.954999879,132344.623,136590.471,,,
Judgement,html.Screen,0_3_1_1,2021-04-19T10:18:41.245Z,,,,,,,,,,,,,,,,,,,,,,,,,,,true,2,,1070.8540002265072,,response,,,,,,,,,2,,2,click #choice-2,,,,,O,S,I,,137663.81500009447,137661.3250002265,136573.846,136576.00500015542,136590.471,137672.747,,,
Trial,flow.Sequence,0_3_1,2021-04-19T10:18:41.246Z,,,,,,,,,,,,,,,,,,,,,,,,,,,,,,5316.702000226505,,completion,,,,,,,,,2,,,,,,,,O,S,I,,137664.61500013247,137661.3250002265,132329.374,132337.760000024,132344.623,137672.747,,,
Sounds,html.Screen,0_3_2_0,2021-04-19T10:18:45.485Z,,,,,,,,,,,,,,,,,,,,,,,,,,,,,,4245.90400000001,,timeout,,,,,,,,,2,,,,,,,,I,S,O,,141903.88000011444,141901.982,137656.09,137665.2999999933,137672.747,141918.651,,,
Judgement,html.Screen,0_3_2_1,2021-04-19T10:18:48.062Z,,,,,,,,,,,,,,,,,,,,,,,,,,,false,2,,2559.6240001177066,,response,,,,,,,,,2,,1,click #choice-1,,,,,I,S,O,,144481.08999989927,144478.27500011772,141901.982,141904.34500016272,141918.651,144482.733,,,
Trial,flow.Sequence,0_3_2,2021-04-19T10:18:48.063Z,,,,,,,,,,,,,,,,,,,,,,,,,,,,,,6805.528000117716,,completion,,,,,,,,,2,,,,,,,,I,S,O,,144481.8199998699,144478.27500011772,137656.09,137665.09999986738,137672.747,144482.733,,,
Sounds,html.Screen,0_3_3_0,2021-04-19T10:18:52.297Z,,,,,,,,,,,,,,,,,,,,,,,,,,,,,,4245.812000000005,,timeout,,,,,,,,,3,,,,,,,,O,I,S,,148715.70000005886,148711.985,144466.138,144482.47000016272,144482.733,148728.545,,,
Judgement,html.Screen,0_3_3_1,2021-04-19T10:18:53.507Z,,,,,,,,,,,,,,,,,,,,,,,,,,,true,3,,1194.3300001639,,response,,,,,,,,,3,,3,click #choice-3,,,,,O,I,S,,149925.44999998063,149922.8750001639,148711.985,148716.1400001496,148728.545,149928.832,,,
Trial,flow.Sequence,0_3_3,2021-04-19T10:18:53.507Z,,,,,,,,,,,,,,,,,,,,,,,,,,,,,,5440.142000163905,,completion,,,,,,,,,3,,,,,,,,O,I,S,,149926.17500014603,149922.8750001639,144466.138,144482.27499984205,144482.733,149928.832,,,
Sounds,html.Screen,0_3_4_0,2021-04-19T10:18:57.741Z,,,,,,,,,,,,,,,,,,,,,,,,,,,,,,4244.963000000018,,timeout,,,,,,,,,1,,,,,,,,S,I,O,,154159.9349998869,154157.771,149910.919,149926.7299999483,149928.832,154173.795,,,
Judgement,html.Screen,0_3_4_1,2021-04-19T10:18:58.810Z,,,,,,,,,,,,,,,,,,,,,,,,,,,true,1,,1052.6699998396507,,response,,,,,,,,,1,,1,click #choice-1,,,,,S,I,O,,155228.8800003007,155226.46499983966,154157.771,154160.37499997765,154173.795,155238.802,,,
Trial,flow.Sequence,0_3_4,2021-04-19T10:18:58.810Z,,,,,,,,,,,,,,,,,,,,,,,,,,,,,,5297.632999839669,,completion,,,,,,,,,1,,,,,,,,S,I,O,,155229.12999987602,155226.46499983966,149910.919,149926.55500024557,149928.832,155238.802,,,
Sounds,html.Screen,0_3_5_0,2021-04-19T10:19:03.051Z,,,,,,,,,,,,,,,,,,,,,,,,,,,,,,4247.754000000015,,timeout,,,,,,,,,3,,,,,,,,I,O,S,,159469.87000014633,159468.078,155222.234,155229.33500027284,155238.802,159486.556,,,
Judgement,html.Screen,0_3_5_1,2021-04-19T10:19:04.034Z,,,,,,,,,,,,,,,,,,,,,,,,,,,true,3,,963.1289998831635,,response,,,,,,,,,3,,3,click #choice-3,,,,,I,O,S,,160453.07500008494,160449.68499988317,159468.078,159470.42000014335,159486.556,160483.747,,,
Trial,flow.Sequence,0_3_5,2021-04-19T10:19:04.035Z,,,,,,,,,,,,,,,,,,,,,,,,,,,,,,5210.882999883179,,completion,,,,,,,,,3,,,,,,,,I,O,S,,160453.7700000219,160449.68499988317,155222.234,155229.2650002055,155238.802,160483.747,,,
Task,flow.Loop,0_3,2021-04-19T10:19:04.054Z,,,,,,,,,,,,,,,,,,,,,,,,,,,,,,34648.65299988317,,completion,,,0.8333333333333334,,,,,,,,,,,,,,,,,,160472.5200003013,160449.68499988317,125784.54,125791.17499990389,125801.032,160483.747,,,
Trap,html.Screen,0_4,2021-04-19T10:19:04.062Z,,,,,,,,,,,,,,,,,,,,,,,,,,,,,,NaN,,skipped,,,,,,,,,,,,,,,,,,,,,160480.8450001292,160449.68499988317,,160480.22999987006,,160483.747,,,
Thanks,html.Screen,0_5,2021-04-19T10:19:10.674Z,,,,,,,,,,,,,,,,,,,,,,,,,,,,,,6607.893000231561,,response,,,,,,,,,,,continue,click button,,,,,,,,,167092.8000002168,167091.64000023156,160451.131,160481.40500020236,160483.747,168975.354,,,
Headphone screening,flow.Sequence,0,2021-04-19T10:19:10.674Z,,,,,,,,,,,,,,,,,,,,,,,,,,,,,,145971.50400023157,,completion,,,,,,,,,,,,,,,,,,,,,167093.0449999869,167091.64000023156,20837.023,20837.62999996543,21120.136,168975.354,,,
Instructions,html.Page,1_0,2021-04-19T10:19:32.938Z,,,,,,,,,,,,,,,,,,,,,,,,,,,,,,20374.79599983833,,form submission,,,,,,,,,,,,,,,,,,,,,189356.4750002697,189350.14999983832,168725.639,168897.5499998778,168975.354,189372.103,,,
Holding screen,html.Screen,1_1_0_0,2021-04-19T10:19:42.944Z,,,,,,,,,,,,,,,,,,,,,,,,,,,,,,10023.476999999984,,timeout,,,,,,,,,,,,,,,,,,,,,199362.96499986202,199362.312,189322.127,189356.7650001496,189372.103,199395.58,,,
screen,html.Screen,1_1_0_1_0,2021-04-19T10:19:45.012Z,,,,,,,,,,,,,,,,53,,,,,,,,,,,,,,2031.5199999717006,,response,,,,99,,,,,,,Space,keypress(Space),,,,,,,,When -- ----- -- ------ - ------- --- ----------<br>------------- ------ ------ ---- ---- ------- ----- -- ----<br>-------- ------- -- ---------- --- - --- ----- ----- ----<br>---- --- --- ----- --- ---- ---- ------- ----- ---- -------<br>--- --- -- ----- -- --- ---- -- --- ---- -- ------ ------<br>--- ----- -- ----,201431.2149998732,201427.0999999717,199362.312,199363.214999903,199395.58,201443.561,,0,When
screen,html.Screen,1_1_0_1_1,2021-04-19T10:19:46.108Z,,,,,,,,,,,,,,,,53,,,,,,,,,,,,,,1082.563999858452,,response,,,,99,,,,,,,Space,keypress(Space),,,,,,,,---- it ----- -- ------ - ------- --- ----------<br>------------- ------ ------ ---- ---- ------- ----- -- ----<br>-------- ------- -- ---------- --- - --- ----- ----- ----<br>---- --- --- ----- --- ---- ---- ------- ----- ---- -------<br>--- --- -- ----- -- --- ---- -- --- ---- -- ------ ------<br>--- ----- -- ----,202527.10000006482,202526.12499985844,201426.909,201431.40499992296,201443.561,202542.503,,1,it
screen,html.Screen,1_1_0_1_2,2021-04-19T10:19:47.058Z,,,,,,,,,,,,,,,,53,,,,,,,,,,,,,,932.172000179562,,response,,,,99,,,,,,,Space,keypress(Space),,,,,,,,---- -- comes -- ------ - ------- --- ----------<br>------------- ------ ------ ---- ---- ------- ----- -- ----<br>-------- ------- -- ---------- --- - --- ----- ----- ----<br>---- --- --- ----- --- ---- ---- ------- ----- ---- -------<br>--- --- -- ----- -- --- ---- -- --- ---- -- ------ ------<br>--- ----- -- ----,203476.59499989823,203474.67500017956,202525.817,202527.24500000477,202542.503,203491.774,,2,comes
screen,html.Screen,1_1_0_1_3,2021-04-19T10:19:48.502Z,,,,,,,,,,,,,,,,53,,,,,,,,,,,,,,1426.66099988317,,response,,,,99,,,,,,,Space,keypress(Space),,,,,,,,---- -- ----- to ------ - ------- --- ----------<br>------------- ------ ------ ---- ---- ------- ----- -- ----<br>-------- ------- -- ---------- --- - --- ----- ----- ----<br>---- --- --- ----- --- ---- ---- ------- ----- ---- -------<br>--- --- -- ----- -- --- ---- -- --- ---- -- ------ ------<br>--- ----- -- ----,204920.3550000675,204918.43499988317,203474.919,203477.03499998897,203491.774,204941.079,,3,to
screen,html.Screen,1_1_0_1_4,2021-04-19T10:19:49.515Z,,,,,,,,,,,,,,,,53,,,,,,,,,,,,,,990.6959999463579,,response,,,,99,,,,,,,Space,keypress(Space),,,,,,,,---- -- ----- -- having - ------- --- ----------<br>------------- ------ ------ ---- ---- ------- ----- -- ----<br>-------- ------- -- ---------- --- - --- ----- ----- ----<br>---- --- --- ----- --- ---- ---- ------- ----- ---- -------<br>--- --- -- ----- -- --- ---- -- --- ---- -- ------ ------<br>--- ----- -- ----,205933.54499991983,205931.77499994636,204907.409,204920.97999993712,204941.079,205940.174,,4,having
screen,html.Screen,1_1_0_1_5,2021-04-19T10:19:50.302Z,,,,,,,,,,,,,,,,53,,,,,,,,,,,,,,779.4009999955306,,response,,,,99,,,,,,,Space,keypress(Space),,,,,,,,---- -- ----- -- ------ a ------- --- ----------<br>------------- ------ ------ ---- ---- ------- ----- -- ----<br>-------- ------- -- ---------- --- - --- ----- ----- ----<br>---- --- --- ----- --- ---- ---- ------- ----- ---- -------<br>--- --- -- ----- -- --- ---- -- --- ---- -- ------ ------<br>--- ----- -- ----,206720.45999998227,206719.57499999553,205922.529,205933.99999989197,205940.174,206739.303,,5,a
screen,html.Screen,1_1_0_1_6,2021-04-19T10:19:50.982Z,,,,,,,,,,,,,,,,53,,,,,,,,,,,,,,659.5670001500403,,response,,,,99,,,,,,,Space,keypress(Space),,,,,,,,---- -- ----- -- ------ - lasting --- ----------<br>------------- ------ ------ ---- ---- ------- ----- -- ----<br>-------- ------- -- ---------- --- - --- ----- ----- ----<br>---- --- --- ----- --- ---- ---- ------- ----- ---- -------<br>--- --- -- ----- -- --- ---- -- --- ---- -- ------ ------<br>--- ----- -- ----,207399.90000007674,207398.87000015005,206705.638,206720.61499999836,206739.303,207404.392,,6,lasting
screen,html.Screen,1_1_0_1_7,2021-04-19T10:19:51.562Z,,,,,,,,,,,,,,,,53,,,,,,,,,,,,,,574.4029998863116,,response,,,,99,,,,,,,Space,keypress(Space),,,,,,,,---- -- ----- -- ------ - ------- and ----------<br>------------- ------ ------ ---- ---- ------- ----- -- ----<br>-------- ------- -- ---------- --- - --- ----- ----- ----<br>---- --- --- ----- --- ---- ---- ------- ----- ---- -------<br>--- --- -- ----- -- --- ---- -- --- ---- -- ------ ------<br>--- ----- -- ----,207980.36500019953,207978.7949998863,207387.75,207400.05999989808,207404.392,207987.951,,7,and
screen,html.Screen,1_1_0_1_8,2021-04-19T10:19:52.187Z,,,,,,,,,,,,,,,,53,,,,,,,,,,,,,,613.043999986141,,response,,,,99,,,,,,,Space,keypress(Space),,,,,,,,---- -- ----- -- ------ - ------- --- fulfilling<br>------------- ------ ------ ---- ---- ------- ----- -- ----<br>-------- ------- -- ---------- --- - --- ----- ----- ----<br>---- --- --- ----- --- ---- ---- ------- ----- ---- -------<br>--- --- -- ----- -- --- ---- -- --- ---- -- ------ ------<br>--- ----- -- ----,208605.16999987885,208600.99499998614,207970.939,207980.77999986708,207987.951,208619.913,,8,fulfilling
screen,html.Screen,1_1_0_1_9,2021-04-19T10:19:52.976Z,,,,,,,,,,,,,,,,53,,,,,,,,,,,,,,772.3120000759955,,response,,,,99,,,,,,,Space,keypress(Space),,,,,,,,"---- -- ----- -- ------ - ------- --- ----------<br>relationship, ------ ------ ---- ---- ------- ----- -- ----<br>-------- ------- -- ---------- --- - --- ----- ----- ----<br>---- --- --- ----- --- ---- ---- ------- ----- ---- -------<br>--- --- -- ----- -- --- ---- -- --- ---- -- ------ ------<br>--- ----- -- ----",209394.54000024125,209392.225000076,208603.442,208606.1350000091,208619.913,209402.531,,9,"relationship,"
screen,html.Screen,1_1_0_1_10,2021-04-19T10:19:53.556Z,,,,,,,,,,,,,,,,53,,,,,,,,,,,,,,570.3240002910316,,response,,,,99,,,,,,,Space,keypress(Space),,,,,,,,---- -- ----- -- ------ - ------- --- ----------<br>------------- common ------ ---- ---- ------- ----- -- ----<br>-------- ------- -- ---------- --- - --- ----- ----- ----<br>---- --- --- ----- --- ---- ---- ------- ----- ---- -------<br>--- --- -- ----- -- --- ---- -- --- ---- -- ------ ------<br>--- ----- -- ----,209974.75000005215,209972.85500029102,209385.976,209394.98999994248,209402.531,209985.65,,10,common
screen,html.Screen,1_1_0_1_11,2021-04-19T10:19:54.189Z,,,,,,,,,,,,,,,,53,,,,,,,,,,,,,,619.9849999271391,,response,,,,99,,,,,,,Space,keypress(Space),,,,,,,,---- -- ----- -- ------ - ------- --- ----------<br>------------- ------ wisdom ---- ---- ------- ----- -- ----<br>-------- ------- -- ---------- --- - --- ----- ----- ----<br>---- --- --- ----- --- ---- ---- ------- ----- ---- -------<br>--- --- -- ----- -- --- ---- -- --- ---- -- ------ ------<br>--- ----- -- ----,210607.45000001043,210605.63499992713,209968.64,209975.19499994814,209985.65,210618.306,,11,wisdom
screen,html.Screen,1_1_0_1_12,2021-04-19T10:19:54.707Z,,,,,,,,,,,,,,,,53,,,,,,,,,,,,,,505.53400001474074,,response,,,,99,,,,,,,Space,keypress(Space),,,,,,,,---- -- ----- -- ------ - ------- --- ----------<br>------------- ------ ------ says ---- ------- ----- -- ----<br>-------- ------- -- ---------- --- - --- ----- ----- ----<br>---- --- --- ----- --- ---- ---- ------- ----- ---- -------<br>--- --- -- ----- -- --- ---- -- --- ---- -- ------ ------<br>--- ----- -- ----,211125.59500010684,211123.84000001475,210601.317,210607.97500004992,210618.306,211134.062,,12,says
screen,html.Screen,1_1_0_1_13,2021-04-19T10:19:55.458Z,,,,,,,,,,,,,,,,53,,,,,,,,,,,,,,740.4729999517149,,response,,,,99,,,,,,,Space,keypress(Space),,,,,,,,---- -- ----- -- ------ - ------- --- ----------<br>------------- ------ ------ ---- that ------- ----- -- ----<br>-------- ------- -- ---------- --- - --- ----- ----- ----<br>---- --- --- ----- --- ---- ---- ------- ----- ---- -------<br>--- --- -- ----- -- --- ---- -- --- ---- -- ------ ------<br>--- ----- -- ----,211876.73000013456,211874.53499995172,211117.479,211125.76000019908,211134.062,211883.426,,13,that
screen,html.Screen,1_1_0_1_14,2021-04-19T10:19:56.114Z,,,,,,,,,,,,,,,,53,,,,,,,,,,,,,,645.3940001232259,,response,,,,99,,,,,,,Space,keypress(Space),,,,,,,,---- -- ----- -- ------ - ------- --- ----------<br>------------- ------ ------ ---- ---- feeling ----- -- ----<br>-------- ------- -- ---------- --- - --- ----- ----- ----<br>---- --- --- ----- --- ---- ---- ------- ----- ---- -------<br>--- --- -- ----- -- --- ---- -- --- ---- -- ------ ------<br>--- ----- -- ----,212532.5600001961,212528.82000012323,211866.683,211877.1700002253,211883.426,212549.478,,14,feeling
screen,html.Screen,1_1_0_1_15,2021-04-19T10:19:56.755Z,,,,,,,,,,,,,,,,53,,,,,,,,,,,,,,596.8519999013515,,response,,,,99,,,,,,,Space,keypress(Space),,,,,,,,---- -- ----- -- ------ - ------- --- ----------<br>------------- ------ ------ ---- ---- ------- close -- ----<br>-------- ------- -- ---------- --- - --- ----- ----- ----<br>---- --- --- ----- --- ---- ---- ------- ----- ---- -------<br>--- --- -- ----- -- --- ---- -- --- ---- -- ------ ------<br>--- ----- -- ----,213173.57000010088,213146.32999990135,212532.915,212532.97499986365,212549.478,213182.093,,15,close
screen,html.Screen,1_1_0_1_16,2021-04-19T10:19:57.230Z,,,,,,,,,,,,,,,,53,,,,,,,,,,,,,,464.1220001898473,,response,,,,99,,,,,,,Space,keypress(Space),,,,,,,,---- -- ----- -- ------ - ------- --- ----------<br>------------- ------ ------ ---- ---- ------- ----- to ----<br>-------- ------- -- ---------- --- - --- ----- ----- ----<br>---- --- --- ----- --- ---- ---- ------- ----- ---- -------<br>--- --- -- ----- -- --- ---- -- --- ---- -- ------ ------<br>--- ----- -- ----,213648.27999984846,213646.21500018984,213165.556,213174.11000002176,213182.093,213665.385,,16,to
screen,html.Screen,1_1_0_1_17,2021-04-19T10:19:57.838Z,,,,,,,,,,,,,,,,53,,,,,,,,,,,,,,589.6749998794403,,response,,,,99,,,,,,,Space,keypress(Space),,,,,,,,---- -- ----- -- ------ - ------- --- ----------<br>------------- ------ ------ ---- ---- ------- ----- -- your<br>-------- ------- -- ---------- --- - --- ----- ----- ----<br>---- --- --- ----- --- ---- ---- ------- ----- ---- -------<br>--- --- -- ----- -- --- ---- -- --- ---- -- ------ ------<br>--- ----- -- ----,214255.91999990866,214255.05999987945,213648.278,213648.7799999304,213665.385,214264.475,,17,your
screen,html.Screen,1_1_0_1_18,2021-04-19T10:19:58.335Z,,,,,,,,,,,,,,,,53,,,,,,,,,,,,,,485.6699999399425,,response,,,,99,,,,,,,Space,keypress(Space),,,,,,,,---- -- ----- -- ------ - ------- --- ----------<br>------------- ------ ------ ---- ---- ------- ----- -- ----<br>romantic ------- -- ---------- --- - --- ----- ----- ----<br>---- --- --- ----- --- ---- ---- ------- ----- ---- -------<br>--- --- -- ----- -- --- ---- -- --- ---- -- ------ ------<br>--- ----- -- ----,214753.08499997482,214750.14499993995,214247.764,214256.09999988228,214264.475,214764.16,,18,romantic
screen,html.Screen,1_1_0_1_19,2021-04-19T10:19:58.798Z,,,,,,,,,,,,,,,,53,,,,,,,,,,,,,,449.77000008538016,,response,,,,99,,,,,,,Space,keypress(Space),,,,,,,,---- -- ----- -- ------ - ------- --- ----------<br>------------- ------ ------ ---- ---- ------- ----- -- ----<br>-------- partner -- ---------- --- - --- ----- ----- ----<br>---- --- --- ----- --- ---- ---- ------- ----- ---- -------<br>--- --- -- ----- -- --- ---- -- --- ---- -- ------ ------<br>--- ----- -- ----,215215.9199998714,215213.93000008538,214747.252,214753.52500006557,214764.16,215230.088,,19,partner
screen,html.Screen,1_1_0_1_20,2021-04-19T10:19:59.197Z,,,,,,,,,,,,,,,,53,,,,,,,,,,,,,,383.41700024856254,,response,,,,99,,,,,,,Space,keypress(Space),,,,,,,,---- -- ----- -- ------ - ------- --- ----------<br>------------- ------ ------ ---- ---- ------- ----- -- ----<br>-------- ------- is ---------- --- - --- ----- ----- ----<br>---- --- --- ----- --- ---- ---- ------- ----- ---- -------<br>--- --- -- ----- -- --- ---- -- --- ---- -- ------ ------<br>--- ----- -- ----,215615.56999990717,215613.50500024855,215213.621,215216.39499999583,215230.088,215663.084,,20,is
screen,html.Screen,1_1_0_1_21,2021-04-19T10:20:00.147Z,,,,,,,,,,,,,,,,53,,,,,,,,,,,,,,900.8210002209817,,response,,,,99,,,,,,,Space,keypress(Space),,,,,,,,---- -- ----- -- ------ - ------- --- ----------<br>------------- ------ ------ ---- ---- ------- ----- -- ----<br>-------- ------- -- paramount. --- - --- ----- ----- ----<br>---- --- --- ----- --- ---- ---- ------- ----- ---- -------<br>--- --- -- ----- -- --- ---- -- --- ---- -- ------ ------<br>--- ----- -- ----,216564.9800002575,216563.90500022098,215613.052,215616.02000007406,215663.084,216578.96,,21,paramount.
screen,html.Screen,1_1_0_1_22,2021-04-19T10:20:00.721Z,,,,,,,,,,,,,,,,53,,,,,,,,,,,,,,558.4399998904846,,response,,,,99,,,,,,,Space,keypress(Space),,,,,,,,---- -- ----- -- ------ - ------- --- ----------<br>------------- ------ ------ ---- ---- ------- ----- -- ----<br>-------- ------- -- ---------- But - --- ----- ----- ----<br>---- --- --- ----- --- ---- ---- ------- ----- ---- -------<br>--- --- -- ----- -- --- ---- -- --- ---- -- ------ ------<br>--- ----- -- ----,217139.6099999547,217137.39999989048,216562.087,216565.13500027359,216578.96,217144.928,,22,But
screen,html.Screen,1_1_0_1_23,2021-04-19T10:20:01.140Z,,,,,,,,,,,,,,,,53,,,,,,,,,,,,,,411.797000031278,,response,,,,99,,,,,,,Space,keypress(Space),,,,,,,,---- -- ----- -- ------ - ------- --- ----------<br>------------- ------ ------ ---- ---- ------- ----- -- ----<br>-------- ------- -- ---------- --- a --- ----- ----- ----<br>---- --- --- ----- --- ---- ---- ------- ----- ---- -------<br>--- --- -- ----- -- --- ---- -- --- ---- -- ------ ------<br>--- ----- -- ----,217558.7949999608,217556.7250000313,217128.423,217140.08500007913,217144.928,217561.141,,23,a
screen,html.Screen,1_1_0_1_24,2021-04-19T10:20:01.524Z,,,,,,,,,,,,,,,,53,,,,,,,,,,,,,,379.514000042167,,response,,,,99,,,,,,,Space,keypress(Space),,,,,,,,---- -- ----- -- ------ - ------- --- ----------<br>------------- ------ ------ ---- ---- ------- ----- -- ----<br>-------- ------- -- ---------- --- - new ----- ----- ----<br>---- --- --- ----- --- ---- ---- ------- ----- ---- -------<br>--- --- -- ----- -- --- ---- -- --- ---- -- ------ ------<br>--- ----- -- ----,217942.64500029385,217940.65500004217,217544.659,217559.2450001277,217561.141,217977.551,,24,new
screen,html.Screen,1_1_0_1_25,2021-04-19T10:20:01.984Z,,,,,,,,,,,,,,,,53,,,,,,,,,,,,,,422.4040002627007,,response,,,,99,,,,,,,Space,keypress(Space),,,,,,,,---- -- ----- -- ------ - ------- --- ----------<br>------------- ------ ------ ---- ---- ------- ----- -- ----<br>-------- ------- -- ---------- --- - --- study ----- ----<br>---- --- --- ----- --- ---- ---- ------- ----- ---- -------<br>--- --- -- ----- -- --- ---- -- --- ---- -- ------ ------<br>--- ----- -- ----,218401.9599999301,218399.9550002627,217960.858,217943.100000266,217977.551,218410.458,,25,study
screen,html.Screen,1_1_0_1_26,2021-04-19T10:20:02.423Z,,,,,,,,,,,,,,,,53,,,,,,,,,,,,,,428.99700012485846,,response,,,,99,,,,,,,Space,keypress(Space),,,,,,,,---- -- ----- -- ------ - ------- --- ----------<br>------------- ------ ------ ---- ---- ------- ----- -- ----<br>-------- ------- -- ---------- --- - --- ----- finds ----<br>---- --- --- ----- --- ---- ---- ------- ----- ---- -------<br>--- --- -- ----- -- --- ---- -- --- ---- -- ------ ------<br>--- ----- -- ----,218841.4099998772,218839.45500012487,218393.847,218402.44999993593,218410.458,218860.863,,26,finds
screen,html.Screen,1_1_0_1_27,2021-04-19T10:20:03.002Z,,,,,,,,,,,,,,,,53,,,,,,,,,,,,,,557.3919999095378,,response,,,,99,,,,,,,Space,keypress(Space),,,,,,,,---- -- ----- -- ------ - ------- --- ----------<br>------------- ------ ------ ---- ---- ------- ----- -- ----<br>-------- ------- -- ---------- --- - --- ----- ----- that<br>---- --- --- ----- --- ---- ---- ------- ----- ---- -------<br>--- --- -- ----- -- --- ---- -- --- ---- -- ------ ------<br>--- ----- -- ----,219420.64000014216,219418.25499990955,218826.757,218841.8600000441,218860.863,219426.036,,27,that
screen,html.Screen,1_1_0_1_28,2021-04-19T10:20:03.507Z,,,,,,,,,,,,,,,,53,,,,,,,,,,,,,,496.8439999691618,,response,,,,99,,,,,,,Space,keypress(Space),,,,,,,,---- -- ----- -- ------ - ------- --- ----------<br>------------- ------ ------ ---- ---- ------- ----- -- ----<br>-------- ------- -- ---------- --- - --- ----- ----- ----<br>it's --- --- ----- --- ---- ---- ------- ----- ---- -------<br>--- --- -- ----- -- --- ---- -- --- ---- -- ------ ------<br>--- ----- -- ----,219924.92499994114,219922.87999996915,219409.406,219421.0950001143,219426.036,220108.848,,28,it's
screen,html.Screen,1_1_0_1_29,2021-04-19T10:20:04.113Z,,,,,,,,,,,,,,,,53,,,,,,,,,,,,,,419.04200002667494,,response,,,,99,,,,,,,Space,keypress(Space),,,,,,,,---- -- ----- -- ------ - ------- --- ----------<br>------------- ------ ------ ---- ---- ------- ----- -- ----<br>-------- ------- -- ---------- --- - --- ----- ----- ----<br>---- not --- ----- --- ---- ---- ------- ----- ---- -------<br>--- --- -- ----- -- --- ---- -- --- ---- -- ------ ------<br>--- ----- -- ----,220531.71000024304,220527.89000002667,219925.583,219925.3700003028,220108.848,220541.849,,29,not
screen,html.Screen,1_1_0_1_30,2021-04-19T10:20:04.571Z,,,,,,,,,,,,,,,,53,,,,,,,,,,,,,,445.32100009493297,,response,,,,99,,,,,,,Space,keypress(Space),,,,,,,,---- -- ----- -- ------ - ------- --- ----------<br>------------- ------ ------ ---- ---- ------- ----- -- ----<br>-------- ------- -- ---------- --- - --- ----- ----- ----<br>---- --- how ----- --- ---- ---- ------- ----- ---- -------<br>--- --- -- ----- -- --- ---- -- --- ---- -- ------ ------<br>--- ----- -- ----,220989.28500013426,220987.17000009492,220525.093,220532.20999985933,220541.849,221008.622,,30,how
screen,html.Screen,1_1_0_1_31,2021-04-19T10:20:05.053Z,,,,,,,,,,,,,,,,53,,,,,,,,,,,,,,458.19800020518596,,response,,,,99,,,,,,,Space,keypress(Space),,,,,,,,---- -- ----- -- ------ - ------- --- ----------<br>------------- ------ ------ ---- ---- ------- ----- -- ----<br>-------- ------- -- ---------- --- - --- ----- ----- ----<br>---- --- --- close --- ---- ---- ------- ----- ---- -------<br>--- --- -- ----- -- --- ---- -- --- ---- -- ------ ------<br>--- ----- -- ----,221470.94999998808,221466.8200002052,220974.656,220989.73000003025,221008.622,221573.919,,31,close
screen,html.Screen,1_1_0_1_32,2021-04-19T10:20:05.700Z,,,,,,,,,,,,,,,,53,,,,,,,,,,,,,,541.8460002278443,,response,,,,99,,,,,,,Space,keypress(Space),,,,,,,,---- -- ----- -- ------ - ------- --- ----------<br>------------- ------ ------ ---- ---- ------- ----- -- ----<br>-------- ------- -- ---------- --- - --- ----- ----- ----<br>---- --- --- ----- you ---- ---- ------- ----- ---- -------<br>--- --- -- ----- -- --- ---- -- --- ---- -- ------ ------<br>--- ----- -- ----,222118.31999989226,222115.76500022784,221457.415,221471.39499988407,221573.919,222123.355,,32,you
screen,html.Screen,1_1_0_1_33,2021-04-19T10:20:06.118Z,,,,,,,,,,,,,,,,53,,,,,,,,,,,,,,411.48499986200477,,response,,,,99,,,,,,,Space,keypress(Space),,,,,,,,---- -- ----- -- ------ - ------- --- ----------<br>------------- ------ ------ ---- ---- ------- ----- -- ----<br>-------- ------- -- ---------- --- - --- ----- ----- ----<br>---- --- --- ----- --- feel ---- ------- ----- ---- -------<br>--- --- -- ----- -- --- ---- -- --- ---- -- ------ ------<br>--- ----- -- ----,222536.8099999614,222534.83999986202,222106.866,222118.74000029638,222123.355,222539.66,,33,feel
screen,html.Screen,1_1_0_1_34,2021-04-19T10:20:06.573Z,,,,,,,,,,,,,,,,53,,,,,,,,,,,,,,449.5500002616609,,response,,,,99,,,,,,,Space,keypress(Space),,,,,,,,---- -- ----- -- ------ - ------- --- ----------<br>------------- ------ ------ ---- ---- ------- ----- -- ----<br>-------- ------- -- ---------- --- - --- ----- ----- ----<br>---- --- --- ----- --- ---- that ------- ----- ---- -------<br>--- --- -- ----- -- --- ---- -- --- ---- -- ------ ------<br>--- ----- -- ----,222991.30999995396,222989.21000026166,222523.133,222537.2600001283,222539.66,223005.926,,34,that
screen,html.Screen,1_1_0_1_35,2021-04-19T10:20:07.063Z,,,,,,,,,,,,,,,,53,,,,,,,,,,,,,,473.1740001132421,,response,,,,99,,,,,,,Space,keypress(Space),,,,,,,,---- -- ----- -- ------ - ------- --- ----------<br>------------- ------ ------ ---- ---- ------- ----- -- ----<br>-------- ------- -- ---------- --- - --- ----- ----- ----<br>---- --- --- ----- --- ---- ---- matters ----- ---- -------<br>--- --- -- ----- -- --- ---- -- --- ---- -- ------ ------<br>--- ----- -- ----,223481.15999996662,223479.10000011325,222989.163,222991.72000028193,223005.926,223489.411,,35,matters
screen,html.Screen,1_1_0_1_36,2021-04-19T10:20:07.634Z,,,,,,,,,,,,,,,,53,,,,,,,,,,,,,,562.4289998545719,,response,,,,99,,,,,,,Space,keypress(Space),,,,,,,,"---- -- ----- -- ------ - ------- --- ----------<br>------------- ------ ------ ---- ---- ------- ----- -- ----<br>-------- ------- -- ---------- --- - --- ----- ----- ----<br>---- --- --- ----- --- ---- ---- ------- most, ---- -------<br>--- --- -- ----- -- --- ---- -- --- ---- -- ------ ------<br>--- ----- -- ----",224052.8049999848,224051.83999985456,223472.213,223481.57500009984,223489.411,224054.805,,36,"most,"
screen,html.Screen,1_1_0_1_37,2021-04-19T10:20:08.218Z,,,,,,,,,,,,,,,,53,,,,,,,,,,,,,,580.7850000780891,,response,,,,99,,,,,,,Space,keypress(Space),,,,,,,,---- -- ----- -- ------ - ------- --- ----------<br>------------- ------ ------ ---- ---- ------- ----- -- ----<br>-------- ------- -- ---------- --- - --- ----- ----- ----<br>---- --- --- ----- --- ---- ---- ------- ----- it's -------<br>--- --- -- ----- -- --- ---- -- --- ---- -- ------ ------<br>--- ----- -- ----,224636.4500001073,224635.59000007808,224038.317,224052.9450001195,224054.805,224654.722,,37,it's
screen,html.Screen,1_1_0_1_38,2021-04-19T10:20:08.837Z,,,,,,,,,,,,,,,,53,,,,,,,,,,,,,,600.1180000668974,,response,,,,99,,,,,,,Space,keypress(Space),,,,,,,,---- -- ----- -- ------ - ------- --- ----------<br>------------- ------ ------ ---- ---- ------- ----- -- ----<br>-------- ------- -- ---------- --- - --- ----- ----- ----<br>---- --- --- ----- --- ---- ---- ------- ----- ---- whether<br>--- --- -- ----- -- --- ---- -- --- ---- -- ------ ------<br>--- ----- -- ----,225255.78500004485,225254.8400000669,224621.087,224636.60500012338,224654.722,225270.302,,38,whether
screen,html.Screen,1_1_0_1_39,2021-04-19T10:20:09.866Z,,,,,,,,,,,,,,,,53,,,,,,,,,,,,,,1013.1029998782615,,response,,,,99,,,,,,,Space,keypress(Space),,,,,,,,---- -- ----- -- ------ - ------- --- ----------<br>------------- ------ ------ ---- ---- ------- ----- -- ----<br>-------- ------- -- ---------- --- - --- ----- ----- ----<br>---- --- --- ----- --- ---- ---- ------- ----- ---- -------<br>you --- -- ----- -- --- ---- -- --- ---- -- ------ ------<br>--- ----- -- ----,226284.25000002608,226283.40499987826,225253.586,225255.95499994233,225270.302,226285.892,,39,you
screen,html.Screen,1_1_0_1_40,2021-04-19T10:20:10.593Z,,,,,,,,,,,,,,,,53,,,,,,,,,,,,,,722.713000097312,,response,,,,99,,,,,,,Space,keypress(Space),,,,,,,,---- -- ----- -- ------ - ------- --- ----------<br>------------- ------ ------ ---- ---- ------- ----- -- ----<br>-------- ------- -- ---------- --- - --- ----- ----- ----<br>---- --- --- ----- --- ---- ---- ------- ----- ---- -------<br>--- are -- ----- -- --- ---- -- --- ---- -- ------ ------<br>--- ----- -- ----,227010.98999986425,227008.6050000973,226269.349,226284.4299999997,226285.892,227018.622,,40,are
screen,html.Screen,1_1_0_1_41,2021-04-19T10:20:11.115Z,,,,,,,,,,,,,,,,53,,,,,,,,,,,,,,513.9079999676615,,response,,,,99,,,,,,,Space,keypress(Space),,,,,,,,---- -- ----- -- ------ - ------- --- ----------<br>------------- ------ ------ ---- ---- ------- ----- -- ----<br>-------- ------- -- ---------- --- - --- ----- ----- ----<br>---- --- --- ----- --- ---- ---- ------- ----- ---- -------<br>--- --- as ----- -- --- ---- -- --- ---- -- ------ ------<br>--- ----- -- ----,227533.3600002341,227532.52999996766,227001.885,227011.41999987885,227018.622,227552.681,,41,as
screen,html.Screen,1_1_0_1_42,2021-04-19T10:20:11.798Z,,,,,,,,,,,,,,,,53,,,,,,,,,,,,,,663.124000159878,,response,,,,99,,,,,,,Space,keypress(Space),,,,,,,,---- -- ----- -- ------ - ------- --- ----------<br>------------- ------ ------ ---- ---- ------- ----- -- ----<br>-------- ------- -- ---------- --- - --- ----- ----- ----<br>---- --- --- ----- --- ---- ---- ------- ----- ---- -------<br>--- --- -- close -- --- ---- -- --- ---- -- ------ ------<br>--- ----- -- ----,228216.66999999434,228215.8050001599,227518.225,227533.50500017405,227552.681,228234.497,,42,close
screen,html.Screen,1_1_0_1_43,2021-04-19T10:20:12.363Z,,,,,,,,,,,,,,,,53,,,,,,,,,,,,,,545.8530001318722,,response,,,,99,,,,,,,Space,keypress(Space),,,,,,,,---- -- ----- -- ------ - ------- --- ----------<br>------------- ------ ------ ---- ---- ------- ----- -- ----<br>-------- ------- -- ---------- --- - --- ----- ----- ----<br>---- --- --- ----- --- ---- ---- ------- ----- ---- -------<br>--- --- -- ----- as --- ---- -- --- ---- -- ------ ------<br>--- ----- -- ----,228781.27499995753,228780.35000013188,228200.752,228216.83000028133,228234.497,228800.347,,43,as
screen,html.Screen,1_1_0_1_44,2021-04-19T10:20:12.975Z,,,,,,,,,,,,,,,,53,,,,,,,,,,,,,,590.4980002781958,,response,,,,99,,,,,,,Space,keypress(Space),,,,,,,,---- -- ----- -- ------ - ------- --- ----------<br>------------- ------ ------ ---- ---- ------- ----- -- ----<br>-------- ------- -- ---------- --- - --- ----- ----- ----<br>---- --- --- ----- --- ---- ---- ------- ----- ---- -------<br>--- --- -- ----- -- you ---- -- --- ---- -- ------ ------<br>--- ----- -- ----,229393.05499987677,229390.8450002782,228783.625,228784.10999989137,228800.347,229400.968,,44,you
screen,html.Screen,1_1_0_1_45,2021-04-19T10:20:13.439Z,,,,,,,,,,,,,,,,53,,,,,,,,,,,,,,453.9019999228185,,response,,,,99,,,,,,,Space,keypress(Space),,,,,,,,---- -- ----- -- ------ - ------- --- ----------<br>------------- ------ ------ ---- ---- ------- ----- -- ----<br>-------- ------- -- ---------- --- - --- ----- ----- ----<br>---- --- --- ----- --- ---- ---- ------- ----- ---- -------<br>--- --- -- ----- -- --- want -- --- ---- -- ------ ------<br>--- ----- -- ----,229856.9000000134,229854.8699999228,229383.096,229393.48000008613,229400.968,229865.943,,45,want
screen,html.Screen,1_1_0_1_46,2021-04-19T10:20:13.877Z,,,,,,,,,,,,,,,,53,,,,,,,,,,,,,,427.73700011891196,,response,,,,99,,,,,,,Space,keypress(Space),,,,,,,,---- -- ----- -- ------ - ------- --- ----------<br>------------- ------ ------ ---- ---- ------- ----- -- ----<br>-------- ------- -- ---------- --- - --- ----- ----- ----<br>---- --- --- ----- --- ---- ---- ------- ----- ---- -------<br>--- --- -- ----- -- --- ---- to --- ---- -- ------ ------<br>--- ----- -- ----,230295.71500001475,230293.6800001189,229849.322,229857.31500014663,229865.943,230298.718,,46,to
screen,html.Screen,1_1_0_1_47,2021-04-19T10:20:14.440Z,,,,,,,,,,,,,,,,53,,,,,,,,,,,,,,558.6570001378423,,response,,,,99,,,,,,,Space,keypress(Space),,,,,,,,"---- -- ----- -- ------ - ------- --- ----------<br>------------- ------ ------ ---- ---- ------- ----- -- ----<br>-------- ------- -- ---------- --- - --- ----- ----- ----<br>---- --- --- ----- --- ---- ---- ------- ----- ---- -------<br>--- --- -- ----- -- --- ---- -- be, ---- -- ------ ------<br>--- ----- -- ----",230858.27500000596,230857.37500013784,230282.148,230296.12000007182,230298.718,230864.771,,47,"be,"
screen,html.Screen,1_1_0_1_48,2021-04-19T10:20:15.406Z,,,,,,,,,,,,,,,,53,,,,,,,,,,,,,,957.3089998380165,,response,,,,99,,,,,,,Space,keypress(Space),,,,,,,,---- -- ----- -- ------ - ------- --- ----------<br>------------- ------ ------ ---- ---- ------- ----- -- ----<br>-------- ------- -- ---------- --- - --- ----- ----- ----<br>---- --- --- ----- --- ---- ---- ------- ----- ---- -------<br>--- --- -- ----- -- --- ---- -- --- even -- ------ ------<br>--- ----- -- ----,231824.3800001219,231822.07999983802,230848.135,230858.5000000894,230864.771,231830.532,,48,even
screen,html.Screen,1_1_0_1_49,2021-04-19T10:20:15.956Z,,,,,,,,,,,,,,,,53,,,,,,,,,,,,,,541.2280000090832,,response,,,,99,,,,,,,Space,keypress(Space),,,,,,,,---- -- ----- -- ------ - ------- --- ----------<br>------------- ------ ------ ---- ---- ------- ----- -- ----<br>-------- ------- -- ---------- --- - --- ----- ----- ----<br>---- --- --- ----- --- ---- ---- ------- ----- ---- -------<br>--- --- -- ----- -- --- ---- -- --- ---- if ------ ------<br>--- ----- -- ----,232374.8500002548,232371.7600000091,231813.846,231824.76500002667,231830.532,232380.034,,49,if
screen,html.Screen,1_1_0_1_50,2021-04-19T10:20:16.604Z,,,,,,,,,,,,,,,,53,,,,,,,,,,,,,,640.2510000932671,,response,,,,99,,,,,,,Space,keypress(Space),,,,,,,,---- -- ----- -- ------ - ------- --- ----------<br>------------- ------ ------ ---- ---- ------- ----- -- ----<br>-------- ------- -- ---------- --- - --- ----- ----- ----<br>---- --- --- ----- --- ---- ---- ------- ----- ---- -------<br>--- --- -- ----- -- --- ---- -- --- ---- -- that's ------<br>--- ----- -- ----,233022.23999984562,233020.28500009328,232363.36,232375.27000019327,232380.034,233029.364,,50,that's
screen,html.Screen,1_1_0_1_51,2021-04-19T10:20:17.173Z,,,,,,,,,,,,,,,,53,,,,,,,,,,,,,,560.2210001834319,,response,,,,99,,,,,,,Space,keypress(Space),,,,,,,,---- -- ----- -- ------ - ------- --- ----------<br>------------- ------ ------ ---- ---- ------- ----- -- ----<br>-------- ------- -- ---------- --- - --- ----- ----- ----<br>---- --- --- ----- --- ---- ---- ------- ----- ---- -------<br>--- --- -- ----- -- --- ---- -- --- ---- -- ------ really<br>--- ----- -- ----,233591.61000000313,233589.58500018343,233012.869,233022.6350002922,233029.364,233595.477,,51,really
screen,html.Screen,1_1_0_1_52,2021-04-19T10:20:17.748Z,,,,,,,,,,,,,,,,53,,,,,,,,,,,,,,568.4930001105531,,response,,,,99,,,,,,,Space,keypress(Space),,,,,,,,---- -- ----- -- ------ - ------- --- ----------<br>------------- ------ ------ ---- ---- ------- ----- -- ----<br>-------- ------- -- ---------- --- - --- ----- ----- ----<br>---- --- --- ----- --- ---- ---- ------- ----- ---- -------<br>--- --- -- ----- -- --- ---- -- --- ---- -- ------ ------<br>not ----- -- ----,234165.97500024363,234163.97000011057,233578.955,233592.4249999225,233595.477,234178.707,,52,not
screen,html.Screen,1_1_0_1_53,2021-04-19T10:20:18.272Z,,,,,,,,,,,,,,,,53,,,,,,,,,,,,,,509.5729998857132,,response,,,,99,,,,,,,Space,keypress(Space),,,,,,,,---- -- ----- -- ------ - ------- --- ----------<br>------------- ------ ------ ---- ---- ------- ----- -- ----<br>-------- ------- -- ---------- --- - --- ----- ----- ----<br>---- --- --- ----- --- ---- ---- ------- ----- ---- -------<br>--- --- -- ----- -- --- ---- -- --- ---- -- ------ ------<br>--- close -- ----,234690.23000029847,234688.2799998857,234161.652,234166.37000022456,234178.707,234694.403,,53,close
screen,html.Screen,1_1_0_1_54,2021-04-19T10:20:18.776Z,,,,,,,,,,,,,,,,53,,,,,,,,,,,,,,498.21200006542495,,response,,,,99,,,,,,,Space,keypress(Space),,,,,,,,---- -- ----- -- ------ - ------- --- ----------<br>------------- ------ ------ ---- ---- ------- ----- -- ----<br>-------- ------- -- ---------- --- - --- ----- ----- ----<br>---- --- --- ----- --- ---- ---- ------- ----- ---- -------<br>--- --- -- ----- -- --- ---- -- --- ---- -- ------ ------<br>--- ----- at ----,235194.55499993637,235192.61500006542,234678.186,234690.64000016078,234694.403,235210.736,,54,at
screen,html.Screen,1_1_0_1_55,2021-04-19T10:20:19.618Z,,,,,,,,,,,,,,,,53,,,,,,,,,,,,,,824.6840000874654,,response,,,,99,,,,,,,Space,keypress(Space),,,,,,,,---- -- ----- -- ------ - ------- --- ----------<br>------------- ------ ------ ---- ---- ------- ----- -- ----<br>-------- ------- -- ---------- --- - --- ----- ----- ----<br>---- --- --- ----- --- ---- ---- ------- ----- ---- -------<br>--- --- -- ----- -- --- ---- -- --- ---- -- ------ ------<br>--- ----- -- all.,236036.29499999806,236035.42000008747,235194.054,235194.9499999173,235210.736,236043.039,,55,all.
Item 99,flow.Loop,1_1_0_1,2021-04-19T10:20:19.618Z,,,,,,,,,,,,,,,,,,,,,,,,,,,,,,36639.84000008748,,completion,,,,,F,,,,,,,,,,,silence,,,,,236036.61000030115,236035.42000008747,199362.312,199363.1450003013,199395.58,236043.039,,,
Question 1,html.Screen,1_1_0_2,2021-04-19T10:20:24.863Z,,,,,,,,,,,,,,,,,,,,,,,,,,,true,FALSE,,5234.751000196557,,response,,,,99,F,,,,,,FALSE,click #choice-2,,,,silence,,,,,241281.04999987409,241277.79000019655,236026.424,236036.73999989405,236043.039,241287.978,,,
Question 2,html.Screen,1_1_0_3,2021-04-19T10:20:29.626Z,,,,,,,,,,,,,,,,,,,,,,,,,,,true,TRUE,,4754.137000076589,,response,,,,99,F,,,,,,TRUE,click #choice-1,,,,silence,,,,,246044.60499994457,246042.1150000766,241271.367,241281.5300002694,241287.978,246066.628,,,
Item 99,flow.Sequence,1_1_0,2021-04-19T10:20:29.627Z,,,,,,,,,,,,,,,,,,,,,,,,,,,,,,56670.01200007659,,completion,,,,,,,,,,,,,,,,,,,,,246045.2350000851,246042.1150000766,189322.127,189356.7200000398,189372.103,246066.628,,,
Holding screen,html.Screen,1_1_1_0,2021-04-19T10:20:39.642Z,,,,,,,,,,,,,,,,,,,,,,,,,,,,,,10007.619999999995,,timeout,,,,,,,,,,,,,,,,,,,,,256060.7449999079,256056.856,246033.46,246045.70000013337,246066.628,256074.248,,,
screen,html.Screen,1_1_1_1_0,2021-04-19T10:20:41.032Z,,,,,,,,,,,,,,,,54,,,,,,,,,,,,,,1374.1819998730498,,response,,,,100,,,,,,,Space,keypress(Space),,,,,,,,At --- ---- --- ------ ----- ------- ---- -- --- ------- --<br>------- ---------- ------ -- ----- -- ----- -- ---- ------<br>--- ----- --- --- ------ -------- ----- --- ------ ----- --<br>----- ----- ---------- --- --- ------ ------ ---- -- ------<br>------- --- ------ ----- --- ---- ------- -- ---- --- --<br>------- ------,257450.15500020236,257448.42999987304,256056.856,256061.30000017583,256074.248,257455.449,,0,At
screen,html.Screen,1_1_1_1_1,2021-04-19T10:20:41.879Z,,,,,,,,,,,,,,,,54,,,,,,,,,,,,,,840.3310002768703,,response,,,,100,,,,,,,Space,keypress(Space),,,,,,,,-- the ---- --- ------ ----- ------- ---- -- --- ------- --<br>------- ---------- ------ -- ----- -- ----- -- ---- ------<br>--- ----- --- --- ------ -------- ----- --- ------ ----- --<br>----- ----- ---------- --- --- ------ ------ ---- -- ------<br>------- --- ------ ----- --- ---- ------- -- ---- --- --<br>------- ------,258297.49999986961,258295.78000027686,257438.859,257450.57500014082,257455.449,258304.643,,1,the
screen,html.Screen,1_1_1_1_2,2021-04-19T10:20:42.679Z,,,,,,,,,,,,,,,,54,,,,,,,,,,,,,,790.5820002883265,,response,,,,100,,,,,,,Space,keypress(Space),,,,,,,,-- --- time --- ------ ----- ------- ---- -- --- ------- --<br>------- ---------- ------ -- ----- -- ----- -- ---- ------<br>--- ----- --- --- ------ -------- ----- --- ------ ----- --<br>----- ----- ---------- --- --- ------ ------ ---- -- ------<br>------- --- ------ ----- --- ---- ------- -- ---- --- --<br>------- ------,259097.0700001344,259095.22500028834,258288.025,258297.88500024006,258304.643,259103.822,,2,time
screen,html.Screen,1_1_1_1_3,2021-04-19T10:20:43.283Z,,,,,,,,,,,,,,,,54,,,,,,,,,,,,,,595.3229999623145,,response,,,,100,,,,,,,Space,keypress(Space),,,,,,,,-- --- ---- the ------ ----- ------- ---- -- --- ------- --<br>------- ---------- ------ -- ----- -- ----- -- ---- ------<br>--- ----- --- --- ------ -------- ----- --- ------ ----- --<br>----- ----- ---------- --- --- ------ ------ ---- -- ------<br>------- --- ------ ----- --- ---- ------- -- ---- --- --<br>------- ------,259700.885000173,259699.1449999623,259087.322,259097.45999984443,259103.822,259703.237,,3,the
screen,html.Screen,1_1_1_1_4,2021-04-19T10:20:44.042Z,,,,,,,,,,,,,,,,54,,,,,,,,,,,,,,755.6380000111822,,response,,,,100,,,,,,,Space,keypress(Space),,,,,,,,-- --- ---- --- French ----- ------- ---- -- --- ------- --<br>------- ---------- ------ -- ----- -- ----- -- ---- ------<br>--- ----- --- --- ------ -------- ----- --- ------ ----- --<br>----- ----- ---------- --- --- ------ ------ ---- -- ------<br>------- --- ------ ----- --- ---- ------- -- ---- --- --<br>------- ------,260460.77999984846,260458.87500001118,259686.622,259701.28499995917,259703.237,260469.331,,4,French
screen,html.Screen,1_1_1_1_5,2021-04-19T10:20:44.605Z,,,,,,,,,,,,,,,,54,,,,,,,,,,,,,,552.7139999906067,,response,,,,100,,,,,,,Space,keypress(Space),,,,,,,,-- --- ---- --- ------ crown ------- ---- -- --- ------- --<br>------- ---------- ------ -- ----- -- ----- -- ---- ------<br>--- ----- --- --- ------ -------- ----- --- ------ ----- --<br>----- ----- ---------- --- --- ------ ------ ---- -- ------<br>------- --- ------ ----- --- ---- ------- -- ---- --- --<br>------- ------,261023.76000024378,261022.0449999906,260452.578,260461.19000017643,260469.331,261035.295,,5,crown
screen,html.Screen,1_1_1_1_6,2021-04-19T10:20:45.087Z,,,,,,,,,,,,,,,,54,,,,,,,,,,,,,,468.6800002324453,,response,,,,100,,,,,,,Space,keypress(Space),,,,,,,,-- --- ---- --- ------ ----- secured ---- -- --- ------- --<br>------- ---------- ------ -- ----- -- ----- -- ---- ------<br>--- ----- --- --- ------ -------- ----- --- ------ ----- --<br>----- ----- ---------- --- --- ------ ------ ---- -- ------<br>------- --- ------ ----- --- ---- ------- -- ---- --- --<br>------- ------,261505.8150002733,261503.97500023246,261018.693,261024.1550002247,261035.295,261518.351,,6,secured
screen,html.Screen,1_1_1_1_7,2021-04-19T10:20:45.644Z,,,,,,,,,,,,,,,,54,,,,,,,,,,,,,,542.1789999006141,,response,,,,100,,,,,,,Space,keypress(Space),,,,,,,,-- --- ---- --- ------ ----- ------- much -- --- ------- --<br>------- ---------- ------ -- ----- -- ----- -- ---- ------<br>--- ----- --- --- ------ -------- ----- --- ------ ----- --<br>----- ----- ---------- --- --- ------ ------ ---- -- ------<br>------- --- ------ ----- --- ---- ------- -- ---- --- --<br>------- ------,262062.26000003517,262060.5299999006,261501.644,261506.21500005946,261518.351,262067.609,,7,much
screen,html.Screen,1_1_1_1_8,2021-04-19T10:20:46.409Z,,,,,,,,,,,,,,,,54,,,,,,,,,,,,,,757.4660000588628,,response,,,,100,,,,,,,Space,keypress(Space),,,,,,,,-- --- ---- --- ------ ----- ------- ---- of --- ------- --<br>------- ---------- ------ -- ----- -- ----- -- ---- ------<br>--- ----- --- --- ------ -------- ----- --- ------ ----- --<br>----- ----- ---------- --- --- ------ ------ ---- -- ------<br>------- --- ------ ----- --- ---- ------- -- ---- --- --<br>------- ------,262826.91000029445,262825.07500005886,262051.103,262062.66999989748,262067.609,262833.519,,8,of
screen,html.Screen,1_1_1_1_9,2021-04-19T10:20:46.818Z,,,,,,,,,,,,,,,,54,,,,,,,,,,,,,,400.7310002123704,,response,,,,100,,,,,,,Space,keypress(Space),,,,,,,,-- --- ---- --- ------ ----- ------- ---- -- its ------- --<br>------- ---------- ------ -- ----- -- ----- -- ---- ------<br>--- ----- --- --- ------ -------- ----- --- ------ ----- --<br>----- ----- ---------- --- --- ------ ------ ---- -- ------<br>------- --- ------ ----- --- ---- ------- -- ---- --- --<br>------- ------,263236.6349999793,263234.25000021234,262816.912,262827.3100000806,262833.519,263250.025,,9,its
screen,html.Screen,1_1_1_1_10,2021-04-19T10:20:47.447Z,,,,,,,,,,,,,,,,54,,,,,,,,,,,,,,613.4149999864167,,response,,,,100,,,,,,,Space,keypress(Space),,,,,,,,-- --- ---- --- ------ ----- ------- ---- -- --- revenue --<br>------- ---------- ------ -- ----- -- ----- -- ---- ------<br>--- ----- --- --- ------ -------- ----- --- ------ ----- --<br>----- ----- ---------- --- --- ------ ------ ---- -- ------<br>------- --- ------ ----- --- ---- ------- -- ---- --- --<br>------- ------,263865.2699999511,263863.43999998644,263233.268,263237.0350002311,263250.025,263882.661,,10,revenue
screen,html.Screen,1_1_1_1_11,2021-04-19T10:20:48.042Z,,,,,,,,,,,,,,,,54,,,,,,,,,,,,,,575.498999921896,,response,,,,100,,,,,,,Space,keypress(Space),,,,,,,,-- --- ---- --- ------ ----- ------- ---- -- --- ------- by<br>------- ---------- ------ -- ----- -- ----- -- ---- ------<br>--- ----- --- --- ------ -------- ----- --- ------ ----- --<br>----- ----- ---------- --- --- ------ ------ ---- -- ------<br>------- --- ------ ----- --- ---- ------- -- ---- --- --<br>------- ------,264460.28999984264,264458.1599999219,263865.872,263865.6800002791,263882.661,264465.265,,11,by
screen,html.Screen,1_1_1_1_12,2021-04-19T10:20:48.750Z,,,,,,,,,,,,,,,,54,,,,,,,,,,,,,,701.2400000883499,,response,,,,100,,,,,,,Space,keypress(Space),,,,,,,,-- --- ---- --- ------ ----- ------- ---- -- --- ------- --<br>issuing ---------- ------ -- ----- -- ----- -- ---- ------<br>--- ----- --- --- ------ -------- ----- --- ------ ----- --<br>----- ----- ---------- --- --- ------ ------ ---- -- ------<br>------- --- ------ ----- --- ---- ------- -- ---- --- --<br>------- ------,265168.4850002639,265166.50500008836,264448.673,264460.7000001706,264465.265,265181.324,,12,issuing
screen,html.Screen,1_1_1_1_13,2021-04-19T10:20:49.409Z,,,,,,,,,,,,,,,,54,,,,,,,,,,,,,,644.5710002491251,,response,,,,100,,,,,,,Space,keypress(Space),,,,,,,,-- --- ---- --- ------ ----- ------- ---- -- --- ------- --<br>------- government ------ -- ----- -- ----- -- ---- ------<br>--- ----- --- --- ------ -------- ----- --- ------ ----- --<br>----- ----- ---------- --- --- ------ ------ ---- -- ------<br>------- --- ------ ----- --- ---- ------- -- ---- --- --<br>------- ------,265827.88500003517,265825.89500024915,265164.64,265168.88500005007,265181.324,265830.581,,13,government
screen,html.Screen,1_1_1_1_14,2021-04-19T10:20:50.189Z,,,,,,,,,,,,,,,,54,,,,,,,,,,,,,,773.78899984085,,response,,,,100,,,,,,,Space,keypress(Space),,,,,,,,-- --- ---- --- ------ ----- ------- ---- -- --- ------- --<br>------- ---------- bonds. -- ----- -- ----- -- ---- ------<br>--- ----- --- --- ------ -------- ----- --- ------ ----- --<br>----- ----- ---------- --- --- ------ ------ ---- -- ------<br>------- --- ------ ----- --- ---- ------- -- ---- --- --<br>------- ------,266607.6000002213,266604.36999984086,265813.954,265828.2800000161,265830.581,266613.139,,14,bonds.
screen,html.Screen,1_1_1_1_15,2021-04-19T10:20:51.008Z,,,,,,,,,,,,,,,,54,,,,,,,,,,,,,,811.4460001461557,,response,,,,100,,,,,,,Space,keypress(Space),,,,,,,,-- --- ---- --- ------ ----- ------- ---- -- --- ------- --<br>------- ---------- ------ In ----- -- ----- -- ---- ------<br>--- ----- --- --- ------ -------- ----- --- ------ ----- --<br>----- ----- ---------- --- --- ------ ------ ---- -- ------<br>------- --- ------ ----- --- ---- ------- -- ---- --- --<br>------- ------,267426.7600001767,267424.5850001462,266596.644,266607.9899999313,266613.139,267446.135,,15,In
screen,html.Screen,1_1_1_1_16,2021-04-19T10:20:52.850Z,,,,,,,,,,,,,,,,54,,,,,,,,,,,,,,1820.4900001639035,,response,,,,100,,,,,,,Space,keypress(Space),,,,,,,,"-- --- ---- --- ------ ----- ------- ---- -- --- ------- --<br>------- ---------- ------ -- 1727, -- ----- -- ---- ------<br>--- ----- --- --- ------ -------- ----- --- ------ ----- --<br>----- ----- ---------- --- --- ------ ------ ---- -- ------<br>------- --- ------ ----- --- ---- ------- -- ---- --- --<br>------- ------",269269.3000002764,269266.6250001639,267412.524,267427.17000003904,267446.135,269277.227,,16,"1727,"
screen,html.Screen,1_1_1_1_17,2021-04-19T10:20:53.359Z,,,,,,,,,,,,,,,,54,,,,,,,,,,,,,,498.38800016598543,,response,,,,100,,,,,,,Space,keypress(Space),,,,,,,,-- --- ---- --- ------ ----- ------- ---- -- --- ------- --<br>------- ---------- ------ -- ----- in ----- -- ---- ------<br>--- ----- --- --- ------ -------- ----- --- ------ ----- --<br>----- ----- ---------- --- --- ------ ------ ---- -- ------<br>------- --- ------ ----- --- ---- ------- -- ---- --- --<br>------- ------,269778.105000034,269775.615000166,269260.592,269269.7600000538,269277.227,269793.471,,17,in
screen,html.Screen,1_1_1_1_18,2021-04-19T10:20:53.888Z,,,,,,,,,,,,,,,,54,,,,,,,,,,,,,,511.6040000402136,,response,,,,100,,,,,,,Space,keypress(Space),,,,,,,,-- --- ---- --- ------ ----- ------- ---- -- --- ------- --<br>------- ---------- ------ -- ----- -- order -- ---- ------<br>--- ----- --- --- ------ -------- ----- --- ------ ----- --<br>----- ----- ---------- --- --- ------ ------ ---- -- ------<br>------- --- ------ ----- --- ---- ------- -- ---- --- --<br>------- ------,270307.2350001894,270305.07500004023,269776.752,269778.5050002858,269793.471,270309.495,,18,order
screen,html.Screen,1_1_1_1_19,2021-04-19T10:20:54.287Z,,,,,,,,,,,,,,,,54,,,,,,,,,,,,,,394.7299999940442,,response,,,,100,,,,,,,Space,keypress(Space),,,,,,,,-- --- ---- --- ------ ----- ------- ---- -- --- ------- --<br>------- ---------- ------ -- ----- -- ----- to ---- ------<br>--- ----- --- --- ------ -------- ----- --- ------ ----- --<br>----- ----- ---------- --- --- ------ ------ ---- -- ------<br>------- --- ------ ----- --- ---- ------- -- ---- --- --<br>------- ------,270706.2750002369,270704.22499999404,270293.034,270307.63499997556,270309.495,270709.138,,19,to
screen,html.Screen,1_1_1_1_20,2021-04-19T10:20:54.682Z,,,,,,,,,,,,,,,,54,,,,,,,,,,,,,,389.7769999805023,,response,,,,100,,,,,,,Space,keypress(Space),,,,,,,,-- --- ---- --- ------ ----- ------- ---- -- --- ------- --<br>------- ---------- ------ -- ----- -- ----- -- save ------<br>--- ----- --- --- ------ -------- ----- --- ------ ----- --<br>----- ----- ---------- --- --- ------ ------ ---- -- ------<br>------- --- ------ ----- --- ---- ------- -- ---- --- --<br>------- ------,271101.04000009596,271098.9149999805,270692.559,270706.6600001417,270709.138,271109.101,,20,save
screen,html.Screen,1_1_1_1_21,2021-04-19T10:20:55.047Z,,,,,,,,,,,,,,,,54,,,,,,,,,,,,,,355.21900026104413,,response,,,,100,,,,,,,Space,keypress(Space),,,,,,,,"-- --- ---- --- ------ ----- ------- ---- -- --- ------- --<br>------- ---------- ------ -- ----- -- ----- -- ---- money,<br>--- ----- --- --- ------ -------- ----- --- ------ ----- --<br>----- ----- ---------- --- --- ------ ------ ---- -- ------<br>------- --- ------ ----- --- ---- ------- -- ---- --- --<br>------- ------",271466.2500000559,271464.32000026107,271092.133,271101.44500015303,271109.101,271475.563,,21,"money,"
screen,html.Screen,1_1_1_1_22,2021-04-19T10:20:55.556Z,,,,,,,,,,,,,,,,54,,,,,,,,,,,,,,497.3119999776245,,response,,,,100,,,,,,,Space,keypress(Space),,,,,,,,-- --- ---- --- ------ ----- ------- ---- -- --- ------- --<br>------- ---------- ------ -- ----- -- ----- -- ---- ------<br>the ----- --- --- ------ -------- ----- --- ------ ----- --<br>----- ----- ---------- --- --- ------ ------ ---- -- ------<br>------- --- ------ ----- --- ---- ------- -- ---- --- --<br>------- ------,271974.8350000009,271972.87499997765,271458.438,271467.0750000514,271475.563,271991.399,,22,the
screen,html.Screen,1_1_1_1_23,2021-04-19T10:20:55.966Z,,,,,,,,,,,,,,,,54,,,,,,,,,,,,,,390.95599989243783,,response,,,,100,,,,,,,Space,keypress(Space),,,,,,,,-- --- ---- --- ------ ----- ------- ---- -- --- ------- --<br>------- ---------- ------ -- ----- -- ----- -- ---- ------<br>--- state --- --- ------ -------- ----- --- ------ ----- --<br>----- ----- ---------- --- --- ------ ------ ---- -- ------<br>------- --- ------ ----- --- ---- ------- -- ---- --- --<br>------- ------,272384.39500005916,272382.3549998924,271974.672,271975.2299999818,271991.399,272390.818,,23,state
screen,html.Screen,1_1_1_1_24,2021-04-19T10:20:56.350Z,,,,,,,,,,,,,,,,54,,,,,,,,,,,,,,375.91700007015606,,response,,,,100,,,,,,,Space,keypress(Space),,,,,,,,-- --- ---- --- ------ ----- ------- ---- -- --- ------- --<br>------- ---------- ------ -- ----- -- ----- -- ---- ------<br>--- ----- cut --- ------ -------- ----- --- ------ ----- --<br>----- ----- ---------- --- --- ------ ------ ---- -- ------<br>------- --- ------ ----- --- ---- ------- -- ---- --- --<br>------- ------,272768.6499999836,272766.7350000702,272374.253,272384.7900000401,272390.818,272773.811,,24,cut
screen,html.Screen,1_1_1_1_25,2021-04-19T10:20:56.754Z,,,,,,,,,,,,,,,,54,,,,,,,,,,,,,,397.44399993564,,response,,,,100,,,,,,,Space,keypress(Space),,,,,,,,-- --- ---- --- ------ ----- ------- ---- -- --- ------- --<br>------- ---------- ------ -- ----- -- ----- -- ---- ------<br>--- ----- --- the ------ -------- ----- --- ------ ----- --<br>----- ----- ---------- --- --- ------ ------ ---- -- ------<br>------- --- ------ ----- --- ---- ------- -- ---- --- --<br>------- ------,273173.1799999252,273171.2549999356,272757.292,272769.0550000407,272773.811,273190.136,,25,the
screen,html.Screen,1_1_1_1_26,2021-04-19T10:20:57.203Z,,,,,,,,,,,,,,,,54,,,,,,,,,,,,,,430.28899985546013,,response,,,,100,,,,,,,Space,keypress(Space),,,,,,,,-- --- ---- --- ------ ----- ------- ---- -- --- ------- --<br>------- ---------- ------ -- ----- -- ----- -- ---- ------<br>--- ----- --- --- bonds' -------- ----- --- ------ ----- --<br>----- ----- ---------- --- --- ------ ------ ---- -- ------<br>------- --- ------ ----- --- ---- ------- -- ---- --- --<br>------- ------,273622.30500020087,273620.42499985546,273173.55,273173.58499998227,273190.136,273639.782,,26,bonds'
screen,html.Screen,1_1_1_1_27,2021-04-19T10:20:57.723Z,,,,,,,,,,,,,,,,54,,,,,,,,,,,,,,499.85299991222564,,response,,,,100,,,,,,,Space,keypress(Space),,,,,,,,-- --- ---- --- ------ ----- ------- ---- -- --- ------- --<br>------- ---------- ------ -- ----- -- ----- -- ---- ------<br>--- ----- --- --- ------ interest ----- --- ------ ----- --<br>----- ----- ---------- --- --- ------ ------ ---- -- ------<br>------- --- ------ ----- --- ---- ------- -- ---- --- --<br>------- ------,274142.0350000262,274139.63499991223,273623.131,273622.7250001393,273639.782,274155.755,,27,interest
screen,html.Screen,1_1_1_1_28,2021-04-19T10:20:58.208Z,,,,,,,,,,,,,,,,54,,,,,,,,,,,,,,468.70999988436233,,response,,,,100,,,,,,,Space,keypress(Space),,,,,,,,-- --- ---- --- ------ ----- ------- ---- -- --- ------- --<br>------- ---------- ------ -- ----- -- ----- -- ---- ------<br>--- ----- --- --- ------ -------- rate. --- ------ ----- --<br>----- ----- ---------- --- --- ------ ------ ---- -- ------<br>------- --- ------ ----- --- ---- ------- -- ---- --- --<br>------- ------,274626.51500012726,274624.46499988437,274139.115,274142.4250002019,274155.755,274638.65,,28,rate.
screen,html.Screen,1_1_1_1_29,2021-04-19T10:20:58.707Z,,,,,,,,,,,,,,,,54,,,,,,,,,,,,,,484.85000021976884,,response,,,,100,,,,,,,Space,keypress(Space),,,,,,,,-- --- ---- --- ------ ----- ------- ---- -- --- ------- --<br>------- ---------- ------ -- ----- -- ----- -- ---- ------<br>--- ----- --- --- ------ -------- ----- The ------ ----- --<br>----- ----- ---------- --- --- ------ ------ ---- -- ------<br>------- --- ------ ----- --- ---- ------- -- ---- --- --<br>------- ------,275125.3900001757,275123.5000002198,274622.136,274626.9300002605,274638.65,275138.266,,29,The
screen,html.Screen,1_1_1_1_30,2021-04-19T10:20:59.186Z,,,,,,,,,,,,,,,,54,,,,,,,,,,,,,,464.90400001668604,,response,,,,100,,,,,,,Space,keypress(Space),,,,,,,,-- --- ---- --- ------ ----- ------- ---- -- --- ------- --<br>------- ---------- ------ -- ----- -- ----- -- ---- ------<br>--- ----- --- --- ------ -------- ----- --- market ----- --<br>----- ----- ---------- --- --- ------ ------ ---- -- ------<br>------- --- ------ ----- --- ---- ------- -- ---- --- --<br>------- ------,275605.17500014976,275603.1700000167,275121.601,275125.800000038,275138.266,275621.205,,30,market
screen,html.Screen,1_1_1_1_31,2021-04-19T10:21:00.248Z,,,,,,,,,,,,,,,,54,,,,,,,,,,,,,,1044.5250000078813,,response,,,,100,,,,,,,Space,keypress(Space),,,,,,,,-- --- ---- --- ------ ----- ------- ---- -- --- ------- --<br>------- ---------- ------ -- ----- -- ----- -- ---- ------<br>--- ----- --- --- ------ -------- ----- --- ------ value --<br>----- ----- ---------- --- --- ------ ------ ---- -- ------<br>------- --- ------ ----- --- ---- ------- -- ---- --- --<br>------- ------,276666.6049999185,276665.7300000079,275604.522,275605.5749999359,275621.205,276670.134,,31,value
screen,html.Screen,1_1_1_1_32,2021-04-19T10:21:00.659Z,,,,,,,,,,,,,,,,54,,,,,,,,,,,,,,406.03099997673417,,response,,,,100,,,,,,,Space,keypress(Space),,,,,,,,-- --- ---- --- ------ ----- ------- ---- -- --- ------- --<br>------- ---------- ------ -- ----- -- ----- -- ---- ------<br>--- ----- --- --- ------ -------- ----- --- ------ ----- of<br>----- ----- ---------- --- --- ------ ------ ---- -- ------<br>------- --- ------ ----- --- ---- ------- -- ---- --- --<br>------- ------,277077.7900000103,277076.16499997675,276653.429,276666.74999985844,276670.134,277086.412,,32,of
screen,html.Screen,1_1_1_1_33,2021-04-19T10:21:01.205Z,,,,,,,,,,,,,,,,54,,,,,,,,,,,,,,533.9629999403842,,response,,,,100,,,,,,,Space,keypress(Space),,,,,,,,-- --- ---- --- ------ ----- ------- ---- -- --- ------- --<br>------- ---------- ------ -- ----- -- ----- -- ---- ------<br>--- ----- --- --- ------ -------- ----- --- ------ ----- --<br>these ----- ---------- --- --- ------ ------ ---- -- ------<br>------- --- ------ ----- --- ---- ------- -- ---- --- --<br>------- ------,277623.38999984786,277620.3749999404,277069.671,277078.0950002372,277086.412,277635.92,,33,these
screen,html.Screen,1_1_1_1_34,2021-04-19T10:21:01.683Z,,,,,,,,,,,,,,,,54,,,,,,,,,,,,,,463.83000005217036,,response,,,,100,,,,,,,Space,keypress(Space),,,,,,,,-- --- ---- --- ------ ----- ------- ---- -- --- ------- --<br>------- ---------- ------ -- ----- -- ----- -- ---- ------<br>--- ----- --- --- ------ -------- ----- --- ------ ----- --<br>----- bonds ---------- --- --- ------ ------ ---- -- ------<br>------- --- ------ ----- --- ---- ------- -- ---- --- --<br>------- ------,278101.66000016034,278099.75000005215,277619.214,277623.7900000997,277635.92,278118.728,,34,bonds
screen,html.Screen,1_1_1_1_35,2021-04-19T10:21:02.457Z,,,,,,,,,,,,,,,,54,,,,,,,,,,,,,,754.9870002270909,,response,,,,100,,,,,,,Space,keypress(Space),,,,,,,,"-- --- ---- --- ------ ----- ------- ---- -- --- ------- --<br>------- ---------- ------ -- ----- -- ----- -- ---- ------<br>--- ----- --- --- ------ -------- ----- --- ------ ----- --<br>----- ----- plummeted, --- --- ------ ------ ---- -- ------<br>------- --- ------ ----- --- ---- ------- -- ---- --- --<br>------- ------",278875.9800000116,278873.7150002271,278102.018,278102.1000002511,278118.728,278884.463,,35,"plummeted,"
screen,html.Screen,1_1_1_1_36,2021-04-19T10:21:02.937Z,,,,,,,,,,,,,,,,54,,,,,,,,,,,,,,469.59700027434155,,response,,,,100,,,,,,,Space,keypress(Space),,,,,,,,-- --- ---- --- ------ ----- ------- ---- -- --- ------- --<br>------- ---------- ------ -- ----- -- ----- -- ---- ------<br>--- ----- --- --- ------ -------- ----- --- ------ ----- --<br>----- ----- ---------- and --- ------ ------ ---- -- ------<br>------- --- ------ ----- --- ---- ------- -- ---- --- --<br>------- ------,279355.99000006914,279354.06000027433,278867.848,278876.38000026345,278884.463,279367.481,,36,and
screen,html.Screen,1_1_1_1_37,2021-04-19T10:21:03.386Z,,,,,,,,,,,,,,,,54,,,,,,,,,,,,,,434.99400026595686,,response,,,,100,,,,,,,Space,keypress(Space),,,,,,,,-- --- ---- --- ------ ----- ------- ---- -- --- ------- --<br>------- ---------- ------ -- ----- -- ----- -- ---- ------<br>--- ----- --- --- ------ -------- ----- --- ------ ----- --<br>----- ----- ---------- --- the ------ ------ ---- -- ------<br>------- --- ------ ----- --- ---- ------- -- ---- --- --<br>------- ------,279804.40999986604,279802.475000266,279350.84,279356.3800002448,279367.481,279817.011,,37,the
screen,html.Screen,1_1_1_1_38,2021-04-19T10:21:03.856Z,,,,,,,,,,,,,,,,54,,,,,,,,,,,,,,454.94900004187366,,response,,,,100,,,,,,,Space,keypress(Space),,,,,,,,-- --- ---- --- ------ ----- ------- ---- -- --- ------- --<br>------- ---------- ------ -- ----- -- ----- -- ---- ------<br>--- ----- --- --- ------ -------- ----- --- ------ ----- --<br>----- ----- ---------- --- --- market ------ ---- -- ------<br>------- --- ------ ----- --- ---- ------- -- ---- --- --<br>------- ------,280274.9950001016,280271.9600000419,279800.261,279804.8149999231,279817.011,280283.095,,38,market
screen,html.Screen,1_1_1_1_39,2021-04-19T10:21:04.285Z,,,,,,,,,,,,,,,,54,,,,,,,,,,,,,,418.79999994742684,,response,,,,100,,,,,,,Space,keypress(Space),,,,,,,,-- --- ---- --- ------ ----- ------- ---- -- --- ------- --<br>------- ---------- ------ -- ----- -- ----- -- ---- ------<br>--- ----- --- --- ------ -------- ----- --- ------ ----- --<br>----- ----- ---------- --- --- ------ became ---- -- ------<br>------- --- ------ ----- --- ---- ------- -- ---- --- --<br>------- ------,280703.79499997944,280701.8949999474,280266.551,280275.41000023484,280283.095,280716.477,,39,became
screen,html.Screen,1_1_1_1_40,2021-04-19T10:21:04.754Z,,,,,,,,,,,,,,,,54,,,,,,,,,,,,,,454.18800009967526,,response,,,,100,,,,,,,Space,keypress(Space),,,,,,,,-- --- ---- --- ------ ----- ------- ---- -- --- ------- --<br>------- ---------- ------ -- ----- -- ----- -- ---- ------<br>--- ----- --- --- ------ -------- ----- --- ------ ----- --<br>----- ----- ---------- --- --- ------ ------ wary -- ------<br>------- --- ------ ----- --- ---- ------- -- ---- --- --<br>------- ------,281172.61999985203,281170.6650000997,280699.437,280704.2149999179,280716.477,281182.425,,40,wary
screen,html.Screen,1_1_1_1_41,2021-04-19T10:21:05.174Z,,,,,,,,,,,,,,,,54,,,,,,,,,,,,,,407.83000016288133,,response,,,,100,,,,,,,Space,keypress(Space),,,,,,,,-- --- ---- --- ------ ----- ------- ---- -- --- ------- --<br>------- ---------- ------ -- ----- -- ----- -- ---- ------<br>--- ----- --- --- ------ -------- ----- --- ------ ----- --<br>----- ----- ---------- --- --- ------ ------ ---- of ------<br>------- --- ------ ----- --- ---- ------- -- ---- --- --<br>------- ------,281592.7750002593,281590.25500016287,281165.601,281173.0150002986,281182.425,281598.479,,41,of
screen,html.Screen,1_1_1_1_42,2021-04-19T10:21:05.548Z,,,,,,,,,,,,,,,,54,,,,,,,,,,,,,,366.1609999037464,,response,,,,100,,,,,,,Space,keypress(Space),,,,,,,,-- --- ---- --- ------ ----- ------- ---- -- --- ------- --<br>------- ---------- ------ -- ----- -- ----- -- ---- ------<br>--- ----- --- --- ------ -------- ----- --- ------ ----- --<br>----- ----- ---------- --- --- ------ ------ ---- -- French<br>------- --- ------ ----- --- ---- ------- -- ---- --- --<br>------- ------,281966.6650001891,281964.63999990374,281581.979,281593.1700002402,281598.479,281981.61,,42,French
screen,html.Screen,1_1_1_1_43,2021-04-19T10:21:05.953Z,,,,,,,,,,,,,,,,54,,,,,,,,,,,,,,387.7050002509495,,response,,,,100,,,,,,,Space,keypress(Space),,,,,,,,-- --- ---- --- ------ ----- ------- ---- -- --- ------- --<br>------- ---------- ------ -- ----- -- ----- -- ---- ------<br>--- ----- --- --- ------ -------- ----- --- ------ ----- --<br>----- ----- ---------- --- --- ------ ------ ---- -- ------<br>credit. --- ------ ----- --- ---- ------- -- ---- --- --<br>------- ------,282371.4149999432,282369.31500025094,281964.949,281967.06000017,281981.61,282381.068,,43,credit.
screen,html.Screen,1_1_1_1_44,2021-04-19T10:21:06.407Z,,,,,,,,,,,,,,,,54,,,,,,,,,,,,,,442.68199998134514,,response,,,,100,,,,,,,Space,keypress(Space),,,,,,,,-- --- ---- --- ------ ----- ------- ---- -- --- ------- --<br>------- ---------- ------ -- ----- -- ----- -- ---- ------<br>--- ----- --- --- ------ -------- ----- --- ------ ----- --<br>----- ----- ---------- --- --- ------ ------ ---- -- ------<br>------- The ------ ----- --- ---- ------- -- ---- --- --<br>------- ------,282825.73499996215,282823.7499999814,282364.476,282371.83000007644,282381.068,282830.618,,44,The
screen,html.Screen,1_1_1_1_45,2021-04-19T10:21:06.796Z,,,,,,,,,,,,,,,,54,,,,,,,,,,,,,,382.501999971224,,response,,,,100,,,,,,,Space,keypress(Space),,,,,,,,-- --- ---- --- ------ ----- ------- ---- -- --- ------- --<br>------- ---------- ------ -- ----- -- ----- -- ---- ------<br>--- ----- --- --- ------ -------- ----- --- ------ ----- --<br>----- ----- ---------- --- --- ------ ------ ---- -- ------<br>------- --- French ----- --- ---- ------- -- ---- --- --<br>------- ------,283215.1850000955,283213.11999997124,282814.023,282826.1299999431,282830.618,283230.412,,45,French
screen,html.Screen,1_1_1_1_46,2021-04-19T10:21:07.261Z,,,,,,,,,,,,,,,,54,,,,,,,,,,,,,,446.9680002410896,,response,,,,100,,,,,,,Space,keypress(Space),,,,,,,,-- --- ---- --- ------ ----- ------- ---- -- --- ------- --<br>------- ---------- ------ -- ----- -- ----- -- ---- ------<br>--- ----- --- --- ------ -------- ----- --- ------ ----- --<br>----- ----- ---------- --- --- ------ ------ ---- -- ------<br>------- --- ------ state --- ---- ------- -- ---- --- --<br>------- ------,283679.3700000271,283677.3800002411,283213.653,283215.58000007644,283230.412,283696.53,,46,state
screen,html.Screen,1_1_1_1_47,2021-04-19T10:21:07.810Z,,,,,,,,,,,,,,,,54,,,,,,,,,,,,,,530.1949999567587,,response,,,,100,,,,,,,Space,keypress(Space),,,,,,,,-- --- ---- --- ------ ----- ------- ---- -- --- ------- --<br>------- ---------- ------ -- ----- -- ----- -- ---- ------<br>--- ----- --- --- ------ -------- ----- --- ------ ----- --<br>----- ----- ---------- --- --- ------ ------ ---- -- ------<br>------- --- ------ ----- was ---- ------- -- ---- --- --<br>------- ------,284228.63500006497,284226.7249999568,283679.938,283679.7600002028,283696.53,284246.075,,47,was
screen,html.Screen,1_1_1_1_48,2021-04-19T10:21:08.214Z,,,,,,,,,,,,,,,,54,,,,,,,,,,,,,,385.3050001516822,,response,,,,100,,,,,,,Space,keypress(Space),,,,,,,,-- --- ---- --- ------ ----- ------- ---- -- --- ------- --<br>------- ---------- ------ -- ----- -- ----- -- ---- ------<br>--- ----- --- --- ------ -------- ----- --- ------ ----- --<br>----- ----- ---------- --- --- ------ ------ ---- -- ------<br>------- --- ------ ----- --- left ------- -- ---- --- --<br>------- ------,284633.29999987036,284631.3800001517,284229.397,284229.03499985114,284246.075,284645.672,,48,left
screen,html.Screen,1_1_1_1_49,2021-04-19T10:21:08.652Z,,,,,,,,,,,,,,,,54,,,,,,,,,,,,,,419.0130001066718,,response,,,,100,,,,,,,Space,keypress(Space),,,,,,,,-- --- ---- --- ------ ----- ------- ---- -- --- ------- --<br>------- ---------- ------ -- ----- -- ----- -- ---- ------<br>--- ----- --- --- ------ -------- ----- --- ------ ----- --<br>----- ----- ---------- --- --- ------ ------ ---- -- ------<br>------- --- ------ ----- --- ---- without -- ---- --- --<br>------- ------,285070.96000015736,285064.6850001067,284629.004,284633.70499992743,284645.672,285078.336,,49,without
screen,html.Screen,1_1_1_1_50,2021-04-19T10:21:09.056Z,,,,,,,,,,,,,,,,54,,,,,,,,,,,,,,394.6690000361996,,response,,,,100,,,,,,,Space,keypress(Space),,,,,,,,-- --- ---- --- ------ ----- ------- ---- -- --- ------- --<br>------- ---------- ------ -- ----- -- ----- -- ---- ------<br>--- ----- --- --- ------ -------- ----- --- ------ ----- --<br>----- ----- ---------- --- --- ------ ------ ---- -- ------<br>------- --- ------ ----- --- ---- ------- an ---- --- --<br>------- ------,285474.9099998735,285473.0050000362,285061.783,285071.1050000973,285078.336,285477.989,,50,an
screen,html.Screen,1_1_1_1_51,2021-04-19T10:21:09.516Z,,,,,,,,,,,,,,,,54,,,,,,,,,,,,,,455.6310002580867,,response,,,,100,,,,,,,Space,keypress(Space),,,,,,,,-- --- ---- --- ------ ----- ------- ---- -- --- ------- --<br>------- ---------- ------ -- ----- -- ----- -- ---- ------<br>--- ----- --- --- ------ -------- ----- --- ------ ----- --<br>----- ----- ---------- --- --- ------ ------ ---- -- ------<br>------- --- ------ ----- --- ---- ------- -- easy --- --<br>------- ------,285934.4899998978,285933.6200002581,285461.34,285475.3100001253,285477.989,285944.26,,51,easy
screen,html.Screen,1_1_1_1_52,2021-04-19T10:21:09.978Z,,,,,,,,,,,,,,,,54,,,,,,,,,,,,,,450.66500014602207,,response,,,,100,,,,,,,Space,keypress(Space),,,,,,,,-- --- ---- --- ------ ----- ------- ---- -- --- ------- --<br>------- ---------- ------ -- ----- -- ----- -- ---- ------<br>--- ----- --- --- ------ -------- ----- --- ------ ----- --<br>----- ----- ---------- --- --- ------ ------ ---- -- ------<br>------- --- ------ ----- --- ---- ------- -- ---- way --<br>------- ------,286396.87500009313,286394.92500014603,285927.653,285934.6349998377,285944.26,286410.613,,52,way
screen,html.Screen,1_1_1_1_53,2021-04-19T10:21:10.292Z,,,,,,,,,,,,,,,,54,,,,,,,,,,,,,,298.077000232297,,response,,,,100,,,,,,,Space,keypress(Space),,,,,,,,-- --- ---- --- ------ ----- ------- ---- -- --- ------- --<br>------- ---------- ------ -- ----- -- ----- -- ---- ------<br>--- ----- --- --- ------ -------- ----- --- ------ ----- --<br>----- ----- ---------- --- --- ------ ------ ---- -- ------<br>------- --- ------ ----- --- ---- ------- -- ---- --- of<br>------- ------,286710.65999986604,286708.6900002323,286393.736,286397.29000022635,286410.613,286726.973,,53,of
screen,html.Screen,1_1_1_1_54,2021-04-19T10:21:10.876Z,,,,,,,,,,,,,,,,54,,,,,,,,,,,,,,565.7020001497585,,response,,,,100,,,,,,,Space,keypress(Space),,,,,,,,-- --- ---- --- ------ ----- ------- ---- -- --- ------- --<br>------- ---------- ------ -- ----- -- ----- -- ---- ------<br>--- ----- --- --- ------ -------- ----- --- ------ ----- --<br>----- ----- ---------- --- --- ------ ------ ---- -- ------<br>------- --- ------ ----- --- ---- ------- -- ---- --- --<br>raising ------,287294.5949998684,287292.67500014976,286710.299,286711.05499984697,286726.973,287309.73,,54,raising
screen,html.Screen,1_1_1_1_55,2021-04-19T10:21:11.281Z,,,,,,,,,,,,,,,,54,,,,,,,,,,,,,,387.67500021727756,,response,,,,100,,,,,,,Space,keypress(Space),,,,,,,,-- --- ---- --- ------ ----- ------- ---- -- --- ------- --<br>------- ---------- ------ -- ----- -- ----- -- ---- ------<br>--- ----- --- --- ------ -------- ----- --- ------ ----- --<br>----- ----- ---------- --- --- ------ ------ ---- -- ------<br>------- --- ------ ----- --- ---- ------- -- ---- --- --<br>------- money.,287699.3599999696,287697.40500021726,287292.947,287294.99500012025,287309.73,287709.176,,55,money.
Item 100,flow.Loop,1_1_1_1,2021-04-19T10:21:11.281Z,,,,,,,,,,,,,,,,,,,,,,,,,,,,,,31623.157000217267,,completion,,,,,F,,,,,,,,,,,silence,,,,,287700.0649999827,287697.40500021726,256056.856,256061.14999996498,256074.248,287709.176,,,
Question 1,html.Screen,1_1_1_2,2021-04-19T10:21:14.805Z,,,,,,,,,,,,,,,,,,,,,,,,,,,true,TRUE,,3511.2440001433715,,response,,,,100,F,,,,,,TRUE,click #choice-1,,,,silence,,,,,291223.86999987066,291220.42000014335,287692.511,287700.4100000486,287709.176,291240.143,,,
Question 2,html.Screen,1_1_1_3,2021-04-19T10:21:17.371Z,,,,,,,,,,,,,,,,,,,,,,,,,,,true,FALSE,,2547.481999880809,,response,,,,100,F,,,,,,FALSE,click #choice-2,,,,silence,,,,,293790.2049999684,293787.6249998808,291205.782,291224.47500005364,291240.143,293803.226,,,
Item 100,flow.Sequence,1_1_1,2021-04-19T10:21:17.372Z,,,,,,,,,,,,,,,,,,,,,,,,,,,,,,47720.996999880794,,completion,,,,,,,,,,,,,,,,,,,,,293790.8900002949,293787.6249998808,246033.46,246045.55999999866,246066.628,293803.226,,,
End of Practice,html.Page,1_1_2,2021-04-19T10:21:20.643Z,,,,,,,,,,,,,,,,,,,,,,,,,,,,,,3257.7939999063965,,form submission,,,,,,,,,,,,,,,,,,,,,297062.29500006884,297061.0199999064,293786.678,293791.25000024214,293803.226,297066.694,,,
Practice,flow.Sequence,1_1,2021-04-19T10:21:20.644Z,,,,,,,,,,,,,,,,,,,,,,,,,,,,,,107688.91699990642,,completion,,,,,,,,,,,,,,,,,,,,,297062.9500001669,297061.0199999064,189322.127,189356.66499985382,189372.103,297066.694,,,
Trap_instruction,html.Page,1_2_0,2021-04-19T10:21:23.992Z,,,,,,,,,,,,,,,,,,,,,,,,,,,,,,3343.1410000567557,,form submission,,,,,,,,,,,,,,,,,,,,,300410.7949999161,300409.8350000568,297050.171,297063.3950000629,297066.694,300513.278,,,
trap_trial,html.Screen,1_2_1,2021-04-19T10:21:29.241Z,,,,,,,,,,,,,,,,,,,,,,,,,,,true,1,,5142.237000224122,,response,,,,,,,,,,,1,click #choice-1,,,,,,,,,305659.48500018567,305655.5150002241,300396.861,300411.2050002441,300513.278,305675.626,,,
end of trap trial,html.Page,1_2_2,2021-04-19T10:21:31.918Z,,,,,,,,,,,,,,,,,,,,,,,,,,,,,,2660.6340002437937,,form submission,,,,,,,,,,,,,,,,,,,,,308337.22499990836,308336.2600002438,305641.644,305659.9550000392,305675.626,308339.375,,,
Trap 1,flow.Sequence,1_2,2021-04-19T10:21:31.919Z,,,,,,,,,,,,,,,,,,,,,,,,,,,,,,11269.566000243765,,completion,,,,,,,,,,,,,,,,,,,,,308337.8050001338,308336.2600002438,297050.171,297063.25000012293,297066.694,308339.375,,,
Standby,html.Page,1_3_0,2021-04-19T10:21:39.914Z,,,,,,,,,,,,,,,,,,,,,,,,,,,,,,8008.837999999989,,timeout,,,,,,,,,,,,,,,,,,,,,316332.64000015333,316331.186,308322.562,308338.27499998733,308339.375,316348.213,,,
Holding screen,html.Screen,1_3_1_0_0,2021-04-19T10:21:46.908Z,,,,,,,,,,,,,,,,,,,,,,,,,,,,,,6992.765000000014,,timeout,,,,,,,,,,,,,,,,,,,,,323326.4299998991,323324.33,316331.186,316333.28500017524,316348.213,323340.978,,,
screen,html.Screen,1_3_1_0_1_0,2021-04-19T10:21:47.799Z,,,,,,,,,,,,,,,,51,,,,,,,,,,,,,,873.6520002932521,,response,,,,13,F,,,,,,Space,keypress(Space),,,,instrumental,,,,American -------- --- --- ---- --- --- ------ -- --------<br>---- --------- --- ------- ------------ ---------- ---------<br>--- ---------- ------- ---------- ------- -- -------- ----<br>---- --- ------ ----- ------ -- ---- --- ----- -- - -------<br>-------- -- --- --- -- ----- ----------- ----- -----------<br>---- --- ---------- --- ---- --- -- ----------,324217.7949999459,324214.63000029325,323324.33,323327.04500015825,323340.978,324223.447,,0,American
screen,html.Screen,1_3_1_0_1_1,2021-04-19T10:21:48.337Z,,,,,,,,,,,,,,,,51,,,,,,,,,,,,,,530.022999879613,,response,,,,13,F,,,,,,Space,keypress(Space),,,,instrumental,,,,-------- industry --- --- ---- --- --- ------ -- --------<br>---- --------- --- ------- ------------ ---------- ---------<br>--- ---------- ------- ---------- ------- -- -------- ----<br>---- --- ------ ----- ------ -- ---- --- ----- -- - -------<br>-------- -- --- --- -- ----- ----------- ----- -----------<br>---- --- ---------- --- ---- --- -- ----------,324756.1800000258,324753.4699998796,324206.787,324218.23500003666,324223.447,324772.962,,1,industry
screen,html.Screen,1_3_1_0_1_2,2021-04-19T10:21:49.025Z,,,,,,,,,,,,,,,,51,,,,,,,,,,,,,,669.1280000259285,,response,,,,13,F,,,,,,Space,keypress(Space),,,,instrumental,,,,-------- -------- may --- ---- --- --- ------ -- --------<br>---- --------- --- ------- ------------ ---------- ---------<br>--- ---------- ------- ---------- ------- -- -------- ----<br>---- --- ------ ----- ------ -- ---- --- ----- -- - -------<br>-------- -- --- --- -- ----- ----------- ----- -----------<br>---- --- ---------- --- ---- --- -- ----------,325443.9550000243,325442.0900000259,324756.246,324756.56499993056,324772.962,325455.614,,2,may
screen,html.Screen,1_3_1_0_1_3,2021-04-19T10:21:49.455Z,,,,,,,,,,,,,,,,51,,,,,,,,,,,,,,416.41099993145326,,response,,,,13,F,,,,,,Space,keypress(Space),,,,instrumental,,,,-------- -------- --- not ---- --- --- ------ -- --------<br>---- --------- --- ------- ------------ ---------- ---------<br>--- ---------- ------- ---------- ------- -- -------- ----<br>---- --- ------ ----- ------ -- ---- --- ----- -- - -------<br>-------- -- --- --- -- ----- ----------- ----- -----------<br>---- --- ---------- --- ---- --- -- ----------,325873.85499989614,325872.02499993145,325439.033,325444.45500010625,325455.614,325888.626,,3,not
screen,html.Screen,1_3_1_0_1_4,2021-04-19T10:21:50.099Z,,,,,,,,,,,,,,,,51,,,,,,,,,,,,,,627.3290001844871,,response,,,,13,F,,,,,,Space,keypress(Space),,,,instrumental,,,,-------- -------- --- --- know --- --- ------ -- --------<br>---- --------- --- ------- ------------ ---------- ---------<br>--- ---------- ------- ---------- ------- -- -------- ----<br>---- --- ------ ----- ------ -- ---- --- ----- -- - -------<br>-------- -- --- --- -- ----- ----------- ----- -----------<br>---- --- ---------- --- ---- --- -- ----------,326518.11000006273,326515.9550001845,325871.965,325874.27000002936,325888.626,326521.171,,4,know
screen,html.Screen,1_3_1_0_1_5,2021-04-19T10:21:50.519Z,,,,,,,,,,,,,,,,51,,,,,,,,,,,,,,414.3939999343129,,response,,,,13,F,,,,,,Space,keypress(Space),,,,instrumental,,,,"-------- -------- --- --- ---- it, --- ------ -- --------<br>---- --------- --- ------- ------------ ---------- ---------<br>--- ---------- ------- ---------- ------- -- -------- ----<br>---- --- ------ ----- ------ -- ---- --- ----- -- - -------<br>-------- -- --- --- -- ----- ----------- ----- -----------<br>---- --- ---------- --- ---- --- -- ----------",326937.4049999751,326935.5649999343,326504.671,326518.51999992505,326521.171,326954.247,,5,"it,"
screen,html.Screen,1_3_1_0_1_6,2021-04-19T10:21:51.288Z,,,,,,,,,,,,,,,,51,,,,,,,,,,,,,,750.1330000101589,,response,,,,13,F,,,,,,Space,keypress(Space),,,,instrumental,,,,-------- -------- --- --- ---- --- but ------ -- --------<br>---- --------- --- ------- ------------ ---------- ---------<br>--- ---------- ------- ---------- ------- -- -------- ----<br>---- --- ------ ----- ------ -- ---- --- ----- -- - -------<br>-------- -- --- --- -- ----- ----------- ----- -----------<br>---- --- ---------- --- ---- --- -- ----------,327706.6750000231,327704.38000001013,326937.456,326937.7899998799,326954.247,327720.035,,6,but
screen,html.Screen,1_3_1_0_1_7,2021-04-19T10:21:51.728Z,,,,,,,,,,,,,,,,51,,,,,,,,,,,,,,424.09499991330085,,response,,,,13,F,,,,,,Space,keypress(Space),,,,instrumental,,,,-------- -------- --- --- ---- --- --- debate -- --------<br>---- --------- --- ------- ------------ ---------- ---------<br>--- ---------- ------- ---------- ------- -- -------- ----<br>---- --- ------ ----- ------ -- ---- --- ----- -- - -------<br>-------- -- --- --- -- ----- ----------- ----- -----------<br>---- --- ---------- --- ---- --- -- ----------,328146.60499989986,328144.1299999133,327703.434,327707.070000004,327720.035,328152.908,,7,debate
screen,html.Screen,1_3_1_0_1_8,2021-04-19T10:21:52.192Z,,,,,,,,,,,,,,,,51,,,,,,,,,,,,,,455.66699996200623,,response,,,,13,F,,,,,,Space,keypress(Space),,,,instrumental,,,,-------- -------- --- --- ---- --- --- ------ in --------<br>---- --------- --- ------- ------------ ---------- ---------<br>--- ---------- ------- ---------- ------- -- -------- ----<br>---- --- ------ ----- ------ -- ---- --- ----- -- - -------<br>-------- -- --- --- -- ----- ----------- ----- -----------<br>---- --- ---------- --- ---- --- -- ----------,328610.3750001639,328608.574999962,328136.451,328146.9900002703,328152.908,328619.644,,8,in
screen,html.Screen,1_3_1_0_1_9,2021-04-19T10:21:52.756Z,,,,,,,,,,,,,,,,51,,,,,,,,,,,,,,552.8510000644019,,response,,,,13,F,,,,,,Space,keypress(Space),,,,instrumental,,,,-------- -------- --- --- ---- --- --- ------ -- Congress<br>---- --------- --- ------- ------------ ---------- ---------<br>--- ---------- ------- ---------- ------- -- -------- ----<br>---- --- ------ ----- ------ -- ---- --- ----- -- - -------<br>-------- -- --- --- -- ----- ----------- ----- -----------<br>---- --- ---------- --- ---- --- -- ----------,329174.3700001389,329172.4950000644,328602.54,328610.780000221,328619.644,329186.205,,9,Congress
screen,html.Screen,1_3_1_0_1_10,2021-04-19T10:21:53.215Z,,,,,,,,,,,,,,,,51,,,,,,,,,,,,,,445.91500019846717,,response,,,,13,F,,,,,,Space,keypress(Space),,,,instrumental,,,,-------- -------- --- --- ---- --- --- ------ -- --------<br>over --------- --- ------- ------------ ---------- ---------<br>--- ---------- ------- ---------- ------- -- -------- ----<br>---- --- ------ ----- ------ -- ---- --- ----- -- - -------<br>-------- -- --- --- -- ----- ----------- ----- -----------<br>---- --- ---------- --- ---- --- -- ----------,329633.9549999684,329632.1200001985,329168.73,329174.76999992505,329186.205,329651.593,,10,over
screen,html.Screen,1_3_1_0_1_11,2021-04-19T10:21:53.819Z,,,,,,,,,,,,,,,,51,,,,,,,,,,,,,,584.4770001008874,,response,,,,13,F,,,,,,Space,keypress(Space),,,,instrumental,,,,-------- -------- --- --- ---- --- --- ------ -- --------<br>---- reforming --- ------- ------------ ---------- ---------<br>--- ---------- ------- ---------- ------- -- -------- ----<br>---- --- ------ ----- ------ -- ---- --- ----- -- - -------<br>-------- -- --- --- -- ----- ----------- ----- -----------<br>---- --- ---------- --- ---- --- -- ----------,330237.7499998547,330236.0700001009,329634.815,329634.34999994934,329651.593,330250.984,,11,reforming
screen,html.Screen,1_3_1_0_1_12,2021-04-19T10:21:53.916Z,,,,,,,,,,,,,,,,51,,,,,,,,,,,,,,80.9010002251598,,response,,,,13,F,,,,,,Space,keypress(Space),,,,instrumental,,,,-------- -------- --- --- ---- --- --- ------ -- --------<br>---- --------- the ------- ------------ ---------- ---------<br>--- ---------- ------- ---------- ------- -- -------- ----<br>---- --- ------ ----- ------ -- ---- --- ----- -- - -------<br>-------- -- --- --- -- ----- ----------- ----- -----------<br>---- --- ---------- --- ---- --- -- ----------,330334.1500000097,330331.88500022516,330235.403,330238.1450003013,330250.984,330350.907,,12,the
screen,html.Screen,1_3_1_0_1_13,2021-04-19T10:21:54.854Z,,,,,,,,,,,,,,,,51,,,,,,,,,,,,,,919.1230002470547,,response,,,,13,F,,,,,,Space,keypress(Space),,,,instrumental,,,,-------- -------- --- --- ---- --- --- ------ -- --------<br>---- --------- --- federal ------------ ---------- ---------<br>--- ---------- ------- ---------- ------- -- -------- ----<br>---- --- ------ ----- ------ -- ---- --- ----- -- - -------<br>-------- -- --- --- -- ----- ----------- ----- -----------<br>---- --- ---------- --- ---- --- -- ----------,331272.1549998969,331270.03000024706,330334.851,330334.5500002615,330350.907,331283.194,,13,federal
screen,html.Screen,1_3_1_0_1_14,2021-04-19T10:21:55.468Z,,,,,,,,,,,,,,,,51,,,,,,,,,,,,,,601.4209998716833,,response,,,,13,F,,,,,,Space,keypress(Space),,,,instrumental,,,,-------- -------- --- --- ---- --- --- ------ -- --------<br>---- --------- --- ------- government's ---------- ---------<br>--- ---------- ------- ---------- ------- -- -------- ----<br>---- --- ------ ----- ------ -- ---- --- ----- -- - -------<br>-------- -- --- --- -- ----- ----------- ----- -----------<br>---- --- ---------- --- ---- --- -- ----------,331886.90999988467,331884.6149998717,331266.513,331272.62500021607,331283.194,331899.313,,14,government's
screen,html.Screen,1_3_1_0_1_15,2021-04-19T10:21:56.352Z,,,,,,,,,,,,,,,,51,,,,,,,,,,,,,,868.9770000363351,,response,,,,13,F,,,,,,Space,keypress(Space),,,,instrumental,,,,-------- -------- --- --- ---- --- --- ------ -- --------<br>---- --------- --- ------- ------------ regulatory ---------<br>--- ---------- ------- ---------- ------- -- -------- ----<br>---- --- ------ ----- ------ -- ---- --- ----- -- - -------<br>-------- -- --- --- -- ----- ----------- ----- -----------<br>---- --- ---------- --- ---- --- -- ----------,332770.2299999073,332768.29000003636,331882.687,331887.3049998656,331899.313,332781.859,,15,regulatory
screen,html.Screen,1_3_1_0_1_16,2021-04-19T10:21:57.026Z,,,,,,,,,,,,,,,,51,,,,,,,,,,,,,,660.6010000493261,,response,,,,13,F,,,,,,Space,keypress(Space),,,,instrumental,,,,-------- -------- --- --- ---- --- --- ------ -- --------<br>---- --------- --- ------- ------------ ---------- apparatus<br>--- ---------- ------- ---------- ------- -- -------- ----<br>---- --- ------ ----- ------ -- ---- --- ----- -- - -------<br>-------- -- --- --- -- ----- ----------- ----- -----------<br>---- --- ---------- --- ---- --- -- ----------,333444.84500028193,333442.4600000493,332765.088,332770.6650001928,332781.859,333447.724,,16,apparatus
screen,html.Screen,1_3_1_0_1_17,2021-04-19T10:21:57.495Z,,,,,,,,,,,,,,,,51,,,,,,,,,,,,,,464.1760001810617,,response,,,,13,F,,,,,,Space,keypress(Space),,,,instrumental,,,,-------- -------- --- --- ---- --- --- ------ -- --------<br>---- --------- --- ------- ------------ ---------- ---------<br>may ---------- ------- ---------- ------- -- -------- ----<br>---- --- ------ ----- ------ -- ---- --- ----- -- - -------<br>-------- -- --- --- -- ----- ----------- ----- -----------<br>---- --- ---------- --- ---- --- -- ----------,333913.9499999583,333911.90000018105,333431.83,333445.3500001691,333447.724,333930.759,,17,may
screen,html.Screen,1_3_1_0_1_18,2021-04-19T10:21:58.060Z,,,,,,,,,,,,,,,,51,,,,,,,,,,,,,,545.8410001691082,,response,,,,13,F,,,,,,Space,keypress(Space),,,,instrumental,,,,-------- -------- --- --- ---- --- --- ------ -- --------<br>---- --------- --- ------- ------------ ---------- ---------<br>--- profoundly ------- ---------- ------- -- -------- ----<br>---- --- ------ ----- ------ -- ---- --- ----- -- - -------<br>-------- -- --- --- -- ----- ----------- ----- -----------<br>---- --- ---------- --- ---- --- -- ----------,334478.57500007376,334476.6000001691,333913.951,333914.3500002101,333930.759,334498.078,,18,profoundly
screen,html.Screen,1_3_1_0_1_19,2021-04-19T10:21:58.509Z,,,,,,,,,,,,,,,,51,,,,,,,,,,,,,,427.28200022666715,,response,,,,13,F,,,,,,Space,keypress(Space),,,,instrumental,,,,-------- -------- --- --- ---- --- --- ------ -- --------<br>---- --------- --- ------- ------------ ---------- ---------<br>--- ---------- improve ---------- ------- -- -------- ----<br>---- --- ------ ----- ------ -- ---- --- ----- -- - -------<br>-------- -- --- --- -- ----- ----------- ----- -----------<br>---- --- ---------- --- ---- --- -- ----------,334927.3000000976,334925.36000022665,334463.395,334478.96500024945,334498.078,334929.574,,19,improve
screen,html.Screen,1_3_1_0_1_20,2021-04-19T10:21:58.969Z,,,,,,,,,,,,,,,,51,,,,,,,,,,,,,,456.1509999418631,,response,,,,13,F,,,,,,Space,keypress(Space),,,,instrumental,,,,-------- -------- --- --- ---- --- --- ------ -- --------<br>---- --------- --- ------- ------------ ---------- ---------<br>--- ---------- ------- companies' ------- -- -------- ----<br>---- --- ------ ----- ------ -- ---- --- ----- -- - -------<br>-------- -- --- --- -- ----- ----------- ----- -----------<br>---- --- ---------- --- ---- --- -- ----------,335387.82500009984,335385.7249999419,334913.003,334927.6850000024,334929.574,335395.801,,20,companies'
screen,html.Screen,1_3_1_0_1_21,2021-04-19T10:21:59.403Z,,,,,,,,,,,,,,,,51,,,,,,,,,,,,,,423.77400008868426,,response,,,,13,F,,,,,,Space,keypress(Space),,,,instrumental,,,,-------- -------- --- --- ---- --- --- ------ -- --------<br>---- --------- --- ------- ------------ ---------- ---------<br>--- ---------- ------- ---------- ability -- -------- ----<br>---- --- ------ ----- ------ -- ---- --- ----- -- - -------<br>-------- -- --- --- -- ----- ----------- ----- -----------<br>---- --- ---------- --- ---- --- -- ----------,335821.47999992594,335819.57500008866,335379.222,335388.2300001569,335395.801,335828.757,,21,ability
screen,html.Screen,1_3_1_0_1_22,2021-04-19T10:22:00.008Z,,,,,,,,,,,,,,,,51,,,,,,,,,,,,,,594.6279998563696,,response,,,,13,F,,,,,,Space,keypress(Space),,,,instrumental,,,,-------- -------- --- --- ---- --- --- ------ -- --------<br>---- --------- --- ------- ------------ ---------- ---------<br>--- ---------- ------- ---------- ------- to -------- ----<br>---- --- ------ ----- ------ -- ---- --- ----- -- - -------<br>-------- -- --- --- -- ----- ----------- ----- -----------<br>---- --- ---------- --- ---- --- -- ----------,336426.56499985605,336423.38499985635,335812.097,335821.940000169,335828.757,336445.348,,22,to
screen,html.Screen,1_3_1_0_1_23,2021-04-19T10:22:00.607Z,,,,,,,,,,,,,,,,51,,,,,,,,,,,,,,577.6569998499472,,response,,,,13,F,,,,,,Space,keypress(Space),,,,instrumental,,,,-------- -------- --- --- ---- --- --- ------ -- --------<br>---- --------- --- ------- ------------ ---------- ---------<br>--- ---------- ------- ---------- ------- -- survive. ----<br>---- --- ------ ----- ------ -- ---- --- ----- -- - -------<br>-------- -- --- --- -- ----- ----------- ----- -----------<br>---- --- ---------- --- ---- --- -- ----------,337025.9850001894,337023.00499984995,336411.643,336426.97500018403,336445.348,337045.593,,23,survive.
screen,html.Screen,1_3_1_0_1_24,2021-04-19T10:22:01.021Z,,,,,,,,,,,,,,,,51,,,,,,,,,,,,,,391.9020001947647,,response,,,,13,F,,,,,,Space,keypress(Space),,,,instrumental,,,,-------- -------- --- --- ---- --- --- ------ -- --------<br>---- --------- --- ------- ------------ ---------- ---------<br>--- ---------- ------- ---------- ------- -- -------- This<br>---- --- ------ ----- ------ -- ---- --- ----- -- - -------<br>-------- -- --- --- -- ----- ----------- ----- -----------<br>---- --- ---------- --- ---- --- -- ----------,337439.4200001843,337437.49500019476,337010.863,337026.38499997556,337045.593,337443.816,,24,This
screen,html.Screen,1_3_1_0_1_25,2021-04-19T10:22:01.450Z,,,,,,,,,,,,,,,,51,,,,,,,,,,,,,,422.65400024096016,,response,,,,13,F,,,,,,Space,keypress(Space),,,,instrumental,,,,-------- -------- --- --- ---- --- --- ------ -- --------<br>---- --------- --- ------- ------------ ---------- ---------<br>--- ---------- ------- ---------- ------- -- -------- ----<br>week --- ------ ----- ------ -- ---- --- ----- -- - -------<br>-------- -- --- --- -- ----- ----------- ----- -----------<br>---- --- ---------- --- ---- --- -- ----------,337868.36000019684,337866.47000024095,337427.197,337439.8199999705,337443.816,337876.746,,25,week
screen,html.Screen,1_3_1_0_1_26,2021-04-19T10:22:01.870Z,,,,,,,,,,,,,,,,51,,,,,,,,,,,,,,410.0539998852764,,response,,,,13,F,,,,,,Space,keypress(Space),,,,instrumental,,,,-------- -------- --- --- ---- --- --- ------ -- --------<br>---- --------- --- ------- ------------ ---------- ---------<br>--- ---------- ------- ---------- ------- -- -------- ----<br>---- the ------ ----- ------ -- ---- --- ----- -- - -------<br>-------- -- --- --- -- ----- ----------- ----- -----------<br>---- --- ---------- --- ---- --- -- ----------,338288.72499987483,338286.79999988526,337860.215,337868.77000005916,337876.746,338292.983,,26,the
screen,html.Screen,1_3_1_0_1_27,2021-04-19T10:22:02.594Z,,,,,,,,,,,,,,,,51,,,,,,,,,,,,,,717.4970001718029,,response,,,,13,F,,,,,,Space,keypress(Space),,,,instrumental,,,,-------- -------- --- --- ---- --- --- ------ -- --------<br>---- --------- --- ------- ------------ ---------- ---------<br>--- ---------- ------- ---------- ------- -- -------- ----<br>---- --- Senate ----- ------ -- ---- --- ----- -- - -------<br>-------- -- --- --- -- ----- ----------- ----- -----------<br>---- --- ---------- --- ---- --- -- ----------,339012.46999995783,339010.4800001718,338276.379,338289.12500012666,338292.983,339025.582,,27,Senate
screen,html.Screen,1_3_1_0_1_28,2021-04-19T10:22:03.031Z,,,,,,,,,,,,,,,,51,,,,,,,,,,,,,,423.55800015706336,,response,,,,13,F,,,,,,Space,keypress(Space),,,,instrumental,,,,-------- -------- --- --- ---- --- --- ------ -- --------<br>---- --------- --- ------- ------------ ---------- ---------<br>--- ---------- ------- ---------- ------- -- -------- ----<br>---- --- ------ seems ------ -- ---- --- ----- -- - -------<br>-------- -- --- --- -- ----- ----------- ----- -----------<br>---- --- ---------- --- ---- --- -- ----------,339449.9900001101,339449.14000015706,339009.088,339012.8950001672,339025.582,339458.673,,28,seems
screen,html.Screen,1_3_1_0_1_29,2021-04-19T10:22:03.488Z,,,,,,,,,,,,,,,,51,,,,,,,,,,,,,,445.4169998508296,,response,,,,13,F,,,,,,Space,keypress(Space),,,,instrumental,,,,-------- -------- --- --- ---- --- --- ------ -- --------<br>---- --------- --- ------- ------------ ---------- ---------<br>--- ---------- ------- ---------- ------- -- -------- ----<br>---- --- ------ ----- poised -- ---- --- ----- -- - -------<br>-------- -- --- --- -- ----- ----------- ----- -----------<br>---- --- ---------- --- ---- --- -- ----------,339907.09999995306,339904.08999985084,339442.018,339450.1300002448,339458.673,339924.891,,29,poised
screen,html.Screen,1_3_1_0_1_30,2021-04-19T10:22:04.053Z,,,,,,,,,,,,,,,,51,,,,,,,,,,,,,,543.8090000849334,,response,,,,13,F,,,,,,Space,keypress(Space),,,,instrumental,,,,-------- -------- --- --- ---- --- --- ------ -- --------<br>---- --------- --- ------- ------------ ---------- ---------<br>--- ---------- ------- ---------- ------- -- -------- ----<br>---- --- ------ ----- ------ to ---- --- ----- -- - -------<br>-------- -- --- --- -- ----- ----------- ----- -----------<br>---- --- ---------- --- ---- --- -- ----------,340471.1899999529,340468.70000008494,339908.136,339907.4800000526,339924.891,340474.15,,30,to
screen,html.Screen,1_3_1_0_1_31,2021-04-19T10:22:04.448Z,,,,,,,,,,,,,,,,51,,,,,,,,,,,,,,389.0450002163416,,response,,,,13,F,,,,,,Space,keypress(Space),,,,instrumental,,,,-------- -------- --- --- ---- --- --- ------ -- --------<br>---- --------- --- ------- ------------ ---------- ---------<br>--- ---------- ------- ---------- ------- -- -------- ----<br>---- --- ------ ----- ------ -- join --- ----- -- - -------<br>-------- -- --- --- -- ----- ----------- ----- -----------<br>---- --- ---------- --- ---- --- -- ----------,340866.18999997154,340863.19500021636,340457.715,340471.58499993384,340474.15,340875.168,,31,join
screen,html.Screen,1_3_1_0_1_32,2021-04-19T10:22:05.010Z,,,,,,,,,,,,,,,,51,,,,,,,,,,,,,,551.8820000566193,,response,,,,13,F,,,,,,Space,keypress(Space),,,,instrumental,,,,-------- -------- --- --- ---- --- --- ------ -- --------<br>---- --------- --- ------- ------------ ---------- ---------<br>--- ---------- ------- ---------- ------- -- -------- ----<br>---- --- ------ ----- ------ -- ---- the ----- -- - -------<br>-------- -- --- --- -- ----- ----------- ----- -----------<br>---- --- ---------- --- ---- --- -- ----------,341429.0000000037,341427.0500000566,340857.27,340866.5800001472,340875.168,341440.106,,32,the
screen,html.Screen,1_3_1_0_1_33,2021-04-19T10:22:05.565Z,,,,,,,,,,,,,,,,51,,,,,,,,,,,,,,541.448999947519,,response,,,,13,F,,,,,,Space,keypress(Space),,,,instrumental,,,,-------- -------- --- --- ---- --- --- ------ -- --------<br>---- --------- --- ------- ------------ ---------- ---------<br>--- ---------- ------- ---------- ------- -- -------- ----<br>---- --- ------ ----- ------ -- ---- --- House -- - -------<br>-------- -- --- --- -- ----- ----------- ----- -----------<br>---- --- ---------- --- ---- --- -- ----------,341983.5450001992,341981.55499994755,341423.406,341429.3900001794,341440.106,341989.381,,33,House
screen,html.Screen,1_3_1_0_1_34,2021-04-19T10:22:06.014Z,,,,,,,,,,,,,,,,51,,,,,,,,,,,,,,441.73899984831223,,response,,,,13,F,,,,,,Space,keypress(Space),,,,instrumental,,,,-------- -------- --- --- ---- --- --- ------ -- --------<br>---- --------- --- ------- ------------ ---------- ---------<br>--- ---------- ------- ---------- ------- -- -------- ----<br>---- --- ------ ----- ------ -- ---- --- ----- in - -------<br>-------- -- --- --- -- ----- ----------- ----- -----------<br>---- --- ---------- --- ---- --- -- ----------,342433.0950002186,342431.1199998483,341972.886,341983.98500029,341989.381,342438.935,,34,in
screen,html.Screen,1_3_1_0_1_35,2021-04-19T10:22:06.404Z,,,,,,,,,,,,,,,,51,,,,,,,,,,,,,,381.810000150057,,response,,,,13,F,,,,,,Space,keypress(Space),,,,instrumental,,,,-------- -------- --- --- ---- --- --- ------ -- --------<br>---- --------- --- ------- ------------ ---------- ---------<br>--- ---------- ------- ---------- ------- -- -------- ----<br>---- --- ------ ----- ------ -- ---- --- ----- -- a -------<br>-------- -- --- --- -- ----- ----------- ----- -----------<br>---- --- ---------- --- ---- --- -- ----------,342822.7450000122,342820.74500015005,342422.352,342433.5250002332,342438.935,342838.698,,35,a
screen,html.Screen,1_3_1_0_1_36,2021-04-19T10:22:06.808Z,,,,,,,,,,,,,,,,51,,,,,,,,,,,,,,386.20200026303064,,response,,,,13,F,,,,,,Space,keypress(Space),,,,instrumental,,,,-------- -------- --- --- ---- --- --- ------ -- --------<br>---- --------- --- ------- ------------ ---------- ---------<br>--- ---------- ------- ---------- ------- -- -------- ----<br>---- --- ------ ----- ------ -- ---- --- ----- -- - massive<br>-------- -- --- --- -- ----- ----------- ----- -----------<br>---- --- ---------- --- ---- --- -- ----------,343227.01000003144,343224.900000263,342822.011,342823.1649999507,342838.698,343238.307,,36,massive
screen,html.Screen,1_3_1_0_1_37,2021-04-19T10:22:07.363Z,,,,,,,,,,,,,,,,51,,,,,,,,,,,,,,541.1529998742626,,response,,,,13,F,,,,,,Space,keypress(Space),,,,instrumental,,,,-------- -------- --- --- ---- --- --- ------ -- --------<br>---- --------- --- ------- ------------ ---------- ---------<br>--- ---------- ------- ---------- ------- -- -------- ----<br>---- --- ------ ----- ------ -- ---- --- ----- -- - -------<br>overhaul -- --- --- -- ----- ----------- ----- -----------<br>---- --- ---------- --- ---- --- -- ----------,343781.4050000161,343779.45999987423,343221.555,343227.4000002071,343238.307,343787.625,,37,overhaul
