sender,sender_type,sender_id,timestamp,meta,,Blues,Classical,Country,Dance,Electronic,Folk,Gospel,Hip-Hop,Jazz,Latin,Musical/Film,New-age,Pop,Provo_ID,R&B,Rap,Reggae,Religious,Rock,Soul,Swing,Traditional,age,artist_name,correct,correctResponse,distraction,duration,education,ended_on,familiarity,gender,headphone_check_performance,item,list,music_frequency,offensiveness,pleasantness,position_correct,preference,response,response_action,snippet_file,song_name,song_rating,sound,stimulus_1,stimulus_2,stimulus_3,text,time_commit,time_end,time_render,time_run,time_show,time_switch,url,word,word_ID
Introduction,html.Screen,0_0,2021-04-10T18:31:30.342Z,"{""labjs_version"":""20.2.2"",""labjs_build"":{""flavor"":""production"",""commit"":""a25486e0c714a0ae2ce03ff94b7bb6896854dcfa""},""location"":""https://run.pavlovia.org/mvasilev/music_c/"",""userAgent"":""Mozilla/5.0 (Windows NT 10.0; Win64; x64) AppleWebKit/537.36 (KHTML, like Gecko) Chrome/89.0.4389.114 Safari/537.36"",""platform"":""Win32"",""language"":""en-GB"",""locale"":""en-GB"",""timeZone"":""Europe/London"",""timezoneOffset"":-60,""screen_width"":1600,""screen_height"":900,""scroll_width"":1583,""scroll_height"":708,""window_innerWidth"":1583,""window_innerHeight"":756,""devicePixelRatio"":1}",,,,,,,,,,,,,,,,,,,,,,,,,,,,,9051.714999898002,,response,,,,,,,,,,,continue,click button,,,,,,,,,51222.20499999821,51213.354999898,42078.107,42086.32000000216,42161.64,51243.877,{},,
Volume calibration,html.Screen,0_1,2021-04-10T18:31:57.200Z,,,,,,,,,,,,,,,,,,,,,,,,,,,,,,26832.012999978244,,response,,,,,,,,,,,continue,click button,,,,,,,,,78079.48500011116,78075.88999997824,51210.683,51223.76500000246,51243.877,78090.563,,,
Task instructions,html.Screen,0_2,2021-04-10T18:32:15.003Z,,,,,,,,,,,,,,,,,,,,,,,,,,,,,,17789.65699993362,,response,,,,,,,,,,,continue,click button,,,,,,,,,95882.85499997437,95880.21999993362,78073.923,78079.73000011407,78090.563,95888.393,,,
Sounds,html.Screen,0_3_0_0,2021-04-10T18:32:19.240Z,,,,,,,,,,,,,,,,,,,,,,,,,,,,,,4249.5090000000055,,timeout,,,,,,,,,1,,,,,,,,S,O,I,,100119.7899999097,100109.798,95871.875,95883.80499999039,95888.393,100137.902,,,
Judgement,html.Screen,0_3_0_1,2021-04-10T18:32:21.188Z,,,,,,,,,,,,,,,,,,,,,,,,,,,true,1,,1926.3430000159424,,response,,,,,,,,,1,,1,click #choice-1,,,,,S,O,I,,102067.8149999585,102064.24500001594,100109.798,100120.49000011757,100137.902,102070.927,,,
Trial,flow.Sequence,0_3_0,2021-04-10T18:32:21.189Z,,,,,,,,,,,,,,,,,,,,,,,,,,,,,,6175.852000015948,,completion,,,,,,,,,1,,,,,,,,S,O,I,,102069.13499999791,102064.24500001594,95871.875,95883.54999991134,95888.393,102070.927,,,
Sounds,html.Screen,0_3_1_0,2021-04-10T18:32:25.426Z,,,,,,,,,,,,,,,,,,,,,,,,,,,,,,4249.494000000006,,timeout,,,,,,,,,1,,,,,,,,S,I,O,,106305.67499995232,106304.019,102054.429,102070.01999998465,102070.927,106320.421,,,
Judgement,html.Screen,0_3_1_1,2021-04-10T18:32:26.239Z,,,,,,,,,,,,,,,,,,,,,,,,,,,true,1,,795.4889999349543,,response,,,,,,,,,1,,1,click #choice-1,,,,,S,I,O,,107118.80999989808,107115.90999993496,106304.019,106306.23500002548,106320.421,107120.324,,,
Trial,flow.Sequence,0_3_1,2021-04-10T18:32:26.240Z,,,,,,,,,,,,,,,,,,,,,,,,,,,,,,5044.98299993496,,completion,,,,,,,,,1,,,,,,,,S,I,O,,107119.63999993168,107115.90999993496,102054.429,102069.76000010036,102070.927,107120.324,,,
Sounds,html.Screen,0_3_2_0,2021-04-10T18:32:30.478Z,,,,,,,,,,,,,,,,,,,,,,,,,,,,,,4251.028000000006,,timeout,,,,,,,,,2,,,,,,,,I,S,O,,111357.53999999724,111353.072,107103.723,107122.08000011742,107120.324,111371.352,,,
Judgement,html.Screen,0_3_2_1,2021-04-10T18:32:31.252Z,,,,,,,,,,,,,,,,,,,,,,,,,,,true,2,,758.0580000523041,,response,,,,,,,,,2,,2,click #choice-2,,,,,I,S,O,,112132.29000009596,112129.4100000523,111353.072,111357.73000004701,111371.352,112140.068,,,
Trial,flow.Sequence,0_3_2,2021-04-10T18:32:31.253Z,,,,,,,,,,,,,,,,,,,,,,,,,,,,,,5009.08600005231,,completion,,,,,,,,,2,,,,,,,,I,S,O,,112133.12999997288,112129.4100000523,107103.723,107120.0850000605,107120.324,112140.068,,,
Sounds,html.Screen,0_3_3_0,2021-04-10T18:32:35.491Z,,,,,,,,,,,,,,,,,,,,,,,,,,,,,,4245.744000000006,,timeout,,,,,,,,,2,,,,,,,,O,S,I,,116371.03000003844,116369.237,112119.854,112133.78000003286,112140.068,116385.812,,,
Judgement,html.Screen,0_3_3_1,2021-04-10T18:32:36.109Z,,,,,,,,,,,,,,,,,,,,,,,,,,,true,2,,599.232999979431,,response,,,,,,,,,2,,2,click #choice-2,,,,,O,S,I,,116989.01999997906,116985.04499997944,116369.237,116371.49000004865,116385.812,117003.057,,,
Trial,flow.Sequence,0_3_3,2021-04-10T18:32:36.110Z,,,,,,,,,,,,,,,,,,,,,,,,,,,,,,4844.976999979437,,completion,,,,,,,,,2,,,,,,,,O,S,I,,116989.83499989845,116985.04499997944,112119.854,112133.55999998748,112140.068,117003.057,,,
Sounds,html.Screen,0_3_4_0,2021-04-10T18:32:40.357Z,,,,,,,,,,,,,,,,,,,,,,,,,,,,,,4249.072,,timeout,,,,,,,,,3,,,,,,,,O,I,S,,121236.5900001023,121235.238,116986.373,116990.54499994963,117003.057,121252.129,,,
Judgement,html.Screen,0_3_4_1,2021-04-10T18:32:41.618Z,,,,,,,,,,,,,,,,,,,,,,,,,,,true,3,,1243.481000099986,,response,,,,,,,,,3,,3,click #choice-3,,,,,O,I,S,,122498.50500002503,122495.61000009999,121235.238,121236.74500011839,121252.129,122518.472,,,
Trial,flow.Sequence,0_3_4,2021-04-10T18:32:41.619Z,,,,,,,,,,,,,,,,,,,,,,,,,,,,,,5492.553000099986,,completion,,,,,,,,,3,,,,,,,,O,I,S,,122499.2299999576,122495.61000009999,116986.373,116990.32000009902,117003.057,122518.472,,,
Sounds,html.Screen,0_3_5_0,2021-04-10T18:32:45.873Z,,,,,,,,,,,,,,,,,,,,,,,,,,,,,,4252.6340000000055,,timeout,,,,,,,,,3,,,,,,,,I,O,S,,126752.95000011101,126751.512,122501.775,122499.85000002198,122518.472,126771.106,,,
Judgement,html.Screen,0_3_5_1,2021-04-10T18:32:46.660Z,,,,,,,,,,,,,,,,,,,,,,,,,,,true,3,,766.4939999232593,,response,,,,,,,,,3,,3,click #choice-3,,,,,I,O,S,,127540.25000007823,127537.59999992326,126751.512,126753.41000012122,126771.106,127567.822,,,
Trial,flow.Sequence,0_3_5,2021-04-10T18:32:46.661Z,,,,,,,,,,,,,,,,,,,,,,,,,,,,,,5019.127999923265,,completion,,,,,,,,,3,,,,,,,,I,O,S,,127540.95999989659,127537.59999992326,122501.775,122499.60500001907,122518.472,127567.822,,,
Task,flow.Loop,0_3,2021-04-10T18:32:46.679Z,,,,,,,,,,,,,,,,,,,,,,,,,,,,,,31649.206999923263,,completion,,,1,,,,,,,,,,,,,,,,,,127558.82499995641,127537.59999992326,95871.875,95883.34499998018,95888.393,127567.822,,,
Trap,html.Screen,0_4,2021-04-10T18:32:46.689Z,,,,,,,,,,,,,,,,,,,,,,,,,,,,,,NaN,,skipped,,,,,,,,,,,,,,,,,,,,,127568.57499992475,127537.59999992326,,127567.37500010058,,127567.822,,,
Thanks,html.Screen,0_5,2021-04-10T18:32:50.540Z,,,,,,,,,,,,,,,,,,,,,,,,,,,,,,3850.007999933019,,response,,,,,,,,,,,continue,click button,,,,,,,,,131420.29000003822,131417.82999993302,127534.534,127569.11500007845,127567.822,137616.532,,,
Headphone screening,flow.Sequence,0,2021-04-10T18:32:50.541Z,,,,,,,,,,,,,,,,,,,,,,,,,,,,,,89256.18999993302,,completion,,,,,,,,,,,,,,,,,,,,,131420.99000001326,131417.82999993302,42078.107,42086.265000049025,42161.64,137616.532,,,
Instructions,html.Page,1_0,2021-04-10T18:33:25.212Z,,,,,,,,,,,,,,,,,,,,,,,,,,,,,,28473.283000072115,,form submission,,,,,,,,,,,,,,,,,,,,,166091.66499995627,166089.81500007212,137566.762,137609.59500004537,137616.532,166096.615,,,
Holding screen,html.Screen,1_1_0_0,2021-04-10T18:33:35.200Z,,,,,,,,,,,,,,,,,,,,,,,,,,,,,,10115.179000000004,,timeout,,,,,,,,,,,,,,,,,,,,,176080.03999991342,176078.707,166079.859,166092.48000010848,166096.615,176211.794,,,
screen,html.Screen,1_1_0_1_0,2021-04-10T18:33:36.263Z,,,,,,,,,,,,,,,,53,,,,,,,,,,,,,,924.2160000165459,,response,,,,99,,,,,,,Space,keypress(Space),,,,,,,,When -- ----- -- ------ - ------- --- ----------<br>------------- ------ ------ ---- ---- ------- ----- -- ----<br>-------- ------- -- ---------- --- - --- ----- ----- ----<br>---- --- --- ----- --- ---- ---- ------- ----- ---- -------<br>--- --- -- ----- -- --- ---- -- --- ---- -- ------ ------<br>--- ----- -- ----,177143.39499990456,177136.01000001654,176078.707,176080.72500000708,176211.794,177178.591,,0,When
screen,html.Screen,1_1_0_1_1,2021-04-10T18:33:37.007Z,,,,,,,,,,,,,,,,53,,,,,,,,,,,,,,706.9139998965256,,response,,,,99,,,,,,,Space,keypress(Space),,,,,,,,---- it ----- -- ------ - ------- --- ----------<br>------------- ------ ------ ---- ---- ------- ----- -- ----<br>-------- ------- -- ---------- --- - --- ----- ----- ----<br>---- --- --- ----- --- ---- ---- ------- ----- ---- -------<br>--- --- -- ----- -- --- ---- -- --- ---- -- ------ ------<br>--- ----- -- ----,177887.30500009842,177885.5049998965,177161.928,177143.97000009194,177178.591,177895.316,,1,it
screen,html.Screen,1_1_0_1_2,2021-04-10T18:33:37.663Z,,,,,,,,,,,,,,,,53,,,,,,,,,,,,,,645.4840000752592,,response,,,,99,,,,,,,Space,keypress(Space),,,,,,,,---- -- comes -- ------ - ------- --- ----------<br>------------- ------ ------ ---- ---- ------- ----- -- ----<br>-------- ------- -- ---------- --- - --- ----- ----- ----<br>---- --- --- ----- --- ---- ---- ------- ----- ---- -------<br>--- --- -- ----- -- --- ---- -- --- ---- -- ------ ------<br>--- ----- -- ----,178542.7600000985,178540.80000007525,177878.474,177887.76000007056,177895.316,178562.012,,2,comes
screen,html.Screen,1_1_0_1_3,2021-04-10T18:33:38.223Z,,,,,,,,,,,,,,,,53,,,,,,,,,,,,,,539.0280000959756,,response,,,,99,,,,,,,Space,keypress(Space),,,,,,,,---- -- ----- to ------ - ------- --- ----------<br>------------- ------ ------ ---- ---- ------- ----- -- ----<br>-------- ------- -- ---------- --- - --- ----- ----- ----<br>---- --- --- ----- --- ---- ---- ------- ----- ---- -------<br>--- --- -- ----- -- --- ---- -- --- ---- -- ------ ------<br>--- ----- -- ----,179102.84500010312,179101.04000009596,178528.325,178543.2200001087,178562.012,179111.392,,3,to
screen,html.Screen,1_1_0_1_4,2021-04-10T18:33:38.763Z,,,,,,,,,,,,,,,,53,,,,,,,,,,,,,,529.8979999413714,,response,,,,99,,,,,,,Space,keypress(Space),,,,,,,,---- -- ----- -- having - ------- --- ----------<br>------------- ------ ------ ---- ---- ------- ----- -- ----<br>-------- ------- -- ---------- --- - --- ----- ----- ----<br>---- --- --- ----- --- ---- ---- ------- ----- ---- -------<br>--- --- -- ----- -- --- ---- -- --- ---- -- ------ ------<br>--- ----- -- ----,179643.10500002466,179641.28999994136,179095.012,179103.30000007525,179111.392,179668.505,,4,having
screen,html.Screen,1_1_0_1_5,2021-04-10T18:33:39.299Z,,,,,,,,,,,,,,,,53,,,,,,,,,,,,,,508.03499989851844,,response,,,,99,,,,,,,Space,keypress(Space),,,,,,,,---- -- ----- -- ------ a ------- --- ----------<br>------------- ------ ------ ---- ---- ------- ----- -- ----<br>-------- ------- -- ---------- --- - --- ----- ----- ----<br>---- --- --- ----- --- ---- ---- ------- ----- ---- -------<br>--- --- -- ----- -- --- ---- -- --- ---- -- ------ ------<br>--- ----- -- ----,180178.52500011213,180176.53999989852,179628.274,179643.54999992065,179668.505,180194.693,,5,a
screen,html.Screen,1_1_0_1_6,2021-04-10T18:33:39.783Z,,,,,,,,,,,,,,,,53,,,,,,,,,,,,,,466.9069999921776,,response,,,,99,,,,,,,Space,keypress(Space),,,,,,,,---- -- ----- -- ------ - lasting --- ----------<br>------------- ------ ------ ---- ---- ------- ----- -- ----<br>-------- ------- -- ---------- --- - --- ----- ----- ----<br>---- --- --- ----- --- ---- ---- ------- ----- ---- -------<br>--- --- -- ----- -- --- ---- -- --- ---- -- ------ ------<br>--- ----- -- ----,180663.40499999933,180661.59999999218,180178.088,180178.98999992758,180194.693,180678.031,,6,lasting
screen,html.Screen,1_1_0_1_7,2021-04-10T18:33:40.229Z,,,,,,,,,,,,,,,,53,,,,,,,,,,,,,,428.8490000939637,,response,,,,99,,,,,,,Space,keypress(Space),,,,,,,,---- -- ----- -- ------ - ------- and ----------<br>------------- ------ ------ ---- ---- ------- ----- -- ----<br>-------- ------- -- ---------- --- - --- ----- ----- ----<br>---- --- --- ----- --- ---- ---- ------- ----- ---- -------<br>--- --- -- ----- -- --- ---- -- --- ---- -- ------ ------<br>--- ----- -- ----,181108.74999989755,181106.88000009395,180661.406,180663.8549999334,180678.031,181111.148,,7,and
screen,html.Screen,1_1_0_1_8,2021-04-10T18:33:40.694Z,,,,,,,,,,,,,,,,53,,,,,,,,,,,,,,460.971999909787,,response,,,,99,,,,,,,Space,keypress(Space),,,,,,,,---- -- ----- -- ------ - ------- --- fulfilling<br>------------- ------ ------ ---- ---- ------- ----- -- ----<br>-------- ------- -- ---------- --- - --- ----- ----- ----<br>---- --- --- ----- --- ---- ---- ------- ----- ---- -------<br>--- --- -- ----- -- --- ---- -- --- ---- -- ------ ------<br>--- ----- -- ----,181573.929999955,181572.11999990977,181094.844,181109.20500010252,181111.148,181577.798,,8,fulfilling
screen,html.Screen,1_1_0_1_9,2021-04-10T18:33:41.139Z,,,,,,,,,,,,,,,,53,,,,,,,,,,,,,,439.5019999485812,,response,,,,99,,,,,,,Space,keypress(Space),,,,,,,,"---- -- ----- -- ------ - ------- --- ----------<br>relationship, ------ ------ ---- ---- ------- ----- -- ----<br>-------- ------- -- ---------- --- - --- ----- ----- ----<br>---- --- --- ----- --- ---- ---- ------- ----- ---- -------<br>--- --- -- ----- -- --- ---- -- --- ---- -- ------ ------<br>--- ----- -- ----",182019.19499994256,182017.2999999486,181561.375,181574.37500008382,181577.798,182027.857,,9,"relationship,"
screen,html.Screen,1_1_0_1_10,2021-04-10T18:33:41.589Z,,,,,,,,,,,,,,,,53,,,,,,,,,,,,,,439.5880000748148,,response,,,,99,,,,,,,Space,keypress(Space),,,,,,,,---- -- ----- -- ------ - ------- --- ----------<br>------------- common ------ ---- ---- ------- ----- -- ----<br>-------- ------- -- ---------- --- - --- ----- ----- ----<br>---- --- --- ----- --- ---- ---- ------- ----- ---- -------<br>--- --- -- ----- -- --- ---- -- --- ---- -- ------ ------<br>--- ----- -- ----,182469.3650000263,182467.4450000748,182011.113,182019.65499995276,182027.857,182477.678,,10,common
screen,html.Screen,1_1_0_1_11,2021-04-10T18:33:42.040Z,,,,,,,,,,,,,,,,53,,,,,,,,,,,,,,440.0619999461924,,response,,,,99,,,,,,,Space,keypress(Space),,,,,,,,---- -- ----- -- ------ - ------- --- ----------<br>------------- ------ wisdom ---- ---- ------- ----- -- ----<br>-------- ------- -- ---------- --- - --- ----- ----- ----<br>---- --- --- ----- --- ---- ---- ------- ----- ---- -------<br>--- --- -- ----- -- --- ---- -- --- ---- -- ------ ------<br>--- ----- -- ----,182919.57999998704,182917.7399999462,182461.163,182469.81499996036,182477.678,182927.579,,11,wisdom
screen,html.Screen,1_1_0_1_12,2021-04-10T18:33:42.526Z,,,,,,,,,,,,,,,,53,,,,,,,,,,,,,,476.22099997094483,,response,,,,99,,,,,,,Space,keypress(Space),,,,,,,,---- -- ----- -- ------ - ------- --- ----------<br>------------- ------ ------ says ---- ------- ----- -- ----<br>-------- ------- -- ---------- --- - --- ----- ----- ----<br>---- --- --- ----- --- ---- ---- ------- ----- ---- -------<br>--- --- -- ----- -- --- ---- -- --- ---- -- ------ ------<br>--- ----- -- ----,183405.58500005864,183403.79999997094,182911.014,182920.03999999724,182927.579,183410.878,,12,says
screen,html.Screen,1_1_0_1_13,2021-04-10T18:33:42.945Z,,,,,,,,,,,,,,,,53,,,,,,,,,,,,,,412.20700004001264,,response,,,,99,,,,,,,Space,keypress(Space),,,,,,,,---- -- ----- -- ------ - ------- --- ----------<br>------------- ------ ------ ---- that ------- ----- -- ----<br>-------- ------- -- ---------- --- - --- ----- ----- ----<br>---- --- --- ----- --- ---- ---- ------- ----- ---- -------<br>--- --- -- ----- -- --- ---- -- --- ---- -- ------ ------<br>--- ----- -- ----,183825.1600000076,183823.08500004,183394.436,183406.05000010692,183410.878,183827.478,,13,that
screen,html.Screen,1_1_0_1_14,2021-04-10T18:33:43.405Z,,,,,,,,,,,,,,,,53,,,,,,,,,,,,,,455.77699990023393,,response,,,,99,,,,,,,Space,keypress(Space),,,,,,,,---- -- ----- -- ------ - ------- --- ----------<br>------------- ------ ------ ---- ---- feeling ----- -- ----<br>-------- ------- -- ---------- --- - --- ----- ----- ----<br>---- --- --- ----- --- ---- ---- ------- ----- ---- -------<br>--- --- -- ----- -- --- ---- -- --- ---- -- ------ ------<br>--- ----- -- ----,184285.2300000377,184283.25499990024,183811.098,183825.63000009395,183827.478,184294.728,,14,feeling
screen,html.Screen,1_1_0_1_15,2021-04-10T18:33:43.850Z,,,,,,,,,,,,,,,,53,,,,,,,,,,,,,,433.6920000576647,,response,,,,99,,,,,,,Space,keypress(Space),,,,,,,,---- -- ----- -- ------ - ------- --- ----------<br>------------- ------ ------ ---- ---- ------- close -- ----<br>-------- ------- -- ---------- --- - --- ----- ----- ----<br>---- --- --- ----- --- ---- ---- ------- ----- ---- -------<br>--- --- -- ----- -- --- ---- -- --- ---- -- ------ ------<br>--- ----- -- ----,184730.37500004284,184728.42000005767,184277.688,184285.6900000479,184294.728,184744.136,,15,close
screen,html.Screen,1_1_0_1_16,2021-04-10T18:33:44.285Z,,,,,,,,,,,,,,,,53,,,,,,,,,,,,,,419.32899999053916,,response,,,,99,,,,,,,Space,keypress(Space),,,,,,,,---- -- ----- -- ------ - ------- --- ----------<br>------------- ------ ------ ---- ---- ------- ----- to ----<br>-------- ------- -- ---------- --- - --- ----- ----- ----<br>---- --- --- ----- --- ---- ---- ------- ----- ---- -------<br>--- --- -- ----- -- --- ---- -- --- ---- -- ------ ------<br>--- ----- -- ----,185165.47499992885,185163.46499999054,184727.619,184730.86500004865,184744.136,185177.316,,16,to
screen,html.Screen,1_1_0_1_17,2021-04-10T18:33:44.741Z,,,,,,,,,,,,,,,,53,,,,,,,,,,,,,,441.52899993176106,,response,,,,99,,,,,,,Space,keypress(Space),,,,,,,,---- -- ----- -- ------ - ------- --- ----------<br>------------- ------ ------ ---- ---- ------- ----- -- your<br>-------- ------- -- ---------- --- - --- ----- ----- ----<br>---- --- --- ----- --- ---- ---- ------- ----- ---- -------<br>--- --- -- ----- -- --- ---- -- --- ---- -- ------ ------<br>--- ----- -- ----,185620.760000078,185618.84499993175,185160.758,185165.95000005327,185177.316,185627.252,,17,your
screen,html.Screen,1_1_0_1_18,2021-04-10T18:33:45.156Z,,,,,,,,,,,,,,,,53,,,,,,,,,,,,,,407.0930000509543,,response,,,,99,,,,,,,Space,keypress(Space),,,,,,,,---- -- ----- -- ------ - ------- --- ----------<br>------------- ------ ------ ---- ---- ------- ----- -- ----<br>romantic ------- -- ---------- --- - --- ----- ----- ----<br>---- --- --- ----- --- ---- ---- ------- ----- ---- -------<br>--- --- -- ----- -- --- ---- -- --- ---- -- ------ ------<br>--- ----- -- ----,186036.33000003174,186034.34500005096,185610.691,185621.25000008382,185627.252,186043.966,,18,romantic
screen,html.Screen,1_1_0_1_19,2021-04-10T18:33:45.596Z,,,,,,,,,,,,,,,,53,,,,,,,,,,,,,,430.22900001707603,,response,,,,99,,,,,,,Space,keypress(Space),,,,,,,,---- -- ----- -- ------ - ------- --- ----------<br>------------- ------ ------ ---- ---- ------- ----- -- ----<br>-------- partner -- ---------- --- - --- ----- ----- ----<br>---- --- --- ----- --- ---- ---- ------- ----- ---- -------<br>--- --- -- ----- -- --- ---- -- --- ---- -- ------ ------<br>--- ----- -- ----,186476.2299999129,186474.19500001706,186027.274,186036.79000004195,186043.966,186494.121,,19,partner
screen,html.Screen,1_1_0_1_20,2021-04-10T18:33:45.987Z,,,,,,,,,,,,,,,,53,,,,,,,,,,,,,,370.28400011666236,,response,,,,99,,,,,,,Space,keypress(Space),,,,,,,,---- -- ----- -- ------ - ------- --- ----------<br>------------- ------ ------ ---- ---- ------- ----- -- ----<br>-------- ------- is ---------- --- - --- ----- ----- ----<br>---- --- --- ----- --- ---- ---- ------- ----- ---- -------<br>--- --- -- ----- -- --- ---- -- --- ---- -- ------ ------<br>--- ----- -- ----,186866.8849999085,186864.40500011668,186477.243,186476.69499996118,186494.121,186877.126,,20,is
screen,html.Screen,1_1_0_1_21,2021-04-10T18:33:46.508Z,,,,,,,,,,,,,,,,53,,,,,,,,,,,,,,509.1789999345201,,response,,,,99,,,,,,,Space,keypress(Space),,,,,,,,---- -- ----- -- ------ - ------- --- ----------<br>------------- ------ ------ ---- ---- ------- ----- -- ----<br>-------- ------- -- paramount. --- - --- ----- ----- ----<br>---- --- --- ----- --- ---- ---- ------- ----- ---- -------<br>--- --- -- ----- -- --- ---- -- --- ---- -- ------ ------<br>--- ----- -- ----,187388.28500011005,187386.3049999345,186860.655,186867.3499999568,186877.126,187393.717,,21,paramount.
screen,html.Screen,1_1_0_1_22,2021-04-10T18:33:46.941Z,,,,,,,,,,,,,,,,53,,,,,,,,,,,,,,425.83799993636785,,response,,,,99,,,,,,,Space,keypress(Space),,,,,,,,---- -- ----- -- ------ - ------- --- ----------<br>------------- ------ ------ ---- ---- ------- ----- -- ----<br>-------- ------- -- ---------- But - --- ----- ----- ----<br>---- --- --- ----- --- ---- ---- ------- ----- ---- -------<br>--- --- -- ----- -- --- ---- -- --- ---- -- ------ ------<br>--- ----- -- ----,187821.4900000021,187819.55499993637,187377.143,187388.74500012025,187393.717,187826.992,,22,But
screen,html.Screen,1_1_0_1_23,2021-04-10T18:33:47.459Z,,,,,,,,,,,,,,,,53,,,,,,,,,,,,,,510.0630000108795,,response,,,,99,,,,,,,Space,keypress(Space),,,,,,,,---- -- ----- -- ------ - ------- --- ----------<br>------------- ------ ------ ---- ---- ------- ----- -- ----<br>-------- ------- -- ---------- --- a --- ----- ----- ----<br>---- --- --- ----- --- ---- ---- ------- ----- ---- -------<br>--- --- -- ----- -- --- ---- -- --- ---- -- ------ ------<br>--- ----- -- ----,188339.09999998286,188337.05500001088,187810.832,187821.96499989368,187826.992,188343.589,,23,a
screen,html.Screen,1_1_0_1_24,2021-04-10T18:33:47.927Z,,,,,,,,,,,,,,,,53,,,,,,,,,,,,,,461.62599994210177,,response,,,,99,,,,,,,Space,keypress(Space),,,,,,,,---- -- ----- -- ------ - ------- --- ----------<br>------------- ------ ------ ---- ---- ------- ----- -- ----<br>-------- ------- -- ---------- --- - new ----- ----- ----<br>---- --- --- ----- --- ---- ---- ------- ----- ---- -------<br>--- --- -- ----- -- --- ---- -- --- ---- -- ------ ------<br>--- ----- -- ----,188807.1850000415,188805.2149999421,188326.996,188339.57999991253,188343.589,188810.195,,24,new
screen,html.Screen,1_1_0_1_25,2021-04-10T18:33:48.357Z,,,,,,,,,,,,,,,,53,,,,,,,,,,,,,,425.149999935471,,response,,,,99,,,,,,,Space,keypress(Space),,,,,,,,---- -- ----- -- ------ - ------- --- ----------<br>------------- ------ ------ ---- ---- ------- ----- -- ----<br>-------- ------- -- ---------- --- - --- study ----- ----<br>---- --- --- ----- --- ---- ---- ------- ----- ---- -------<br>--- --- -- ----- -- --- ---- -- --- ---- -- ------ ------<br>--- ----- -- ----,189237.2800000012,189235.34499993548,188793.821,188807.65000008978,188810.195,189243.489,,25,study
screen,html.Screen,1_1_0_1_26,2021-04-10T18:33:48.772Z,,,,,,,,,,,,,,,,53,,,,,,,,,,,,,,406.8060000576661,,response,,,,99,,,,,,,Space,keypress(Space),,,,,,,,---- -- ----- -- ------ - ------- --- ----------<br>------------- ------ ------ ---- ---- ------- ----- -- ----<br>-------- ------- -- ---------- --- - --- ----- finds ----<br>---- --- --- ----- --- ---- ---- ------- ----- ---- -------<br>--- --- -- ----- -- --- ---- -- --- ---- -- ------ ------<br>--- ----- -- ----,189652.26499992423,189650.29500005767,189227.104,189237.74500004947,189243.489,189660.758,,26,finds
screen,html.Screen,1_1_0_1_27,2021-04-10T18:33:49.188Z,,,,,,,,,,,,,,,,53,,,,,,,,,,,,,,404.94199991915957,,response,,,,99,,,,,,,Space,keypress(Space),,,,,,,,---- -- ----- -- ------ - ------- --- ----------<br>------------- ------ ------ ---- ---- ------- ----- -- ----<br>-------- ------- -- ---------- --- - --- ----- ----- that<br>---- --- --- ----- --- ---- ---- ------- ----- ---- -------<br>--- --- -- ----- -- --- ---- -- --- ---- -- ------ ------<br>--- ----- -- ----,190067.83000007272,190065.69999991916,189643.698,189652.7299999725,189660.758,190077.288,,27,that
screen,html.Screen,1_1_0_1_28,2021-04-10T18:33:49.653Z,,,,,,,,,,,,,,,,53,,,,,,,,,,,,,,453.61199989606394,,response,,,,99,,,,,,,Space,keypress(Space),,,,,,,,---- -- ----- -- ------ - ------- --- ----------<br>------------- ------ ------ ---- ---- ------- ----- -- ----<br>-------- ------- -- ---------- --- - --- ----- ----- ----<br>it's --- --- ----- --- ---- ---- ------- ----- ---- -------<br>--- --- -- ----- -- --- ---- -- --- ---- -- ------ ------<br>--- ----- -- ----,190532.90500002913,190530.89999989606,190060.265,190068.31000000238,190077.288,190544.035,,28,it's
screen,html.Screen,1_1_0_1_29,2021-04-10T18:33:50.068Z,,,,,,,,,,,,,,,,53,,,,,,,,,,,,,,401.9949999918754,,response,,,,99,,,,,,,Space,keypress(Space),,,,,,,,---- -- ----- -- ------ - ------- --- ----------<br>------------- ------ ------ ---- ---- ------- ----- -- ----<br>-------- ------- -- ---------- --- - --- ----- ----- ----<br>---- not --- ----- --- ---- ---- ------- ----- ---- -------<br>--- --- -- ----- -- --- ---- -- --- ---- -- ------ ------<br>--- ----- -- ----,190948.0550000444,190946.02999999188,190526.935,190533.36500003934,190544.035,190959.978,,29,not
screen,html.Screen,1_1_0_1_30,2021-04-10T18:33:50.479Z,,,,,,,,,,,,,,,,53,,,,,,,,,,,,,,397.2020000499906,,response,,,,99,,,,,,,Space,keypress(Space),,,,,,,,---- -- ----- -- ------ - ------- --- ----------<br>------------- ------ ------ ---- ---- ------- ----- -- ----<br>-------- ------- -- ---------- --- - --- ----- ----- ----<br>---- --- how ----- --- ---- ---- ------- ----- ---- -------<br>--- --- -- ----- -- --- ---- -- --- ---- -- ------ ------<br>--- ----- -- ----,191359.12499995902,191357.18000005,190943.541,190948.50499997847,190959.978,191376.502,,30,how
screen,html.Screen,1_1_0_1_31,2021-04-10T18:33:50.899Z,,,,,,,,,,,,,,,,53,,,,,,,,,,,,,,399.8880000136269,,response,,,,99,,,,,,,Space,keypress(Space),,,,,,,,---- -- ----- -- ------ - ------- --- ----------<br>------------- ------ ------ ---- ---- ------- ----- -- ----<br>-------- ------- -- ---------- --- - --- ----- ----- ----<br>---- --- --- close --- ---- ---- ------- ----- ---- -------<br>--- --- -- ----- -- --- ---- -- --- ---- -- ------ ------<br>--- ----- -- ----,191778.8400000427,191776.39000001363,191360.167,191359.59500004537,191376.502,191793.185,,31,close
screen,html.Screen,1_1_0_1_32,2021-04-10T18:33:51.319Z,,,,,,,,,,,,,,,,53,,,,,,,,,,,,,,403.41000010311836,,response,,,,99,,,,,,,Space,keypress(Space),,,,,,,,---- -- ----- -- ------ - ------- --- ----------<br>------------- ------ ------ ---- ---- ------- ----- -- ----<br>-------- ------- -- ---------- --- - --- ----- ----- ----<br>---- --- --- ----- you ---- ---- ------- ----- ---- -------<br>--- --- -- ----- -- --- ---- -- --- ---- -- ------ ------<br>--- ----- -- ----,192198.71999998577,192196.59500010312,191776.529,191779.38500000164,191793.185,192209.904,,32,you
screen,html.Screen,1_1_0_1_33,2021-04-10T18:33:51.791Z,,,,,,,,,,,,,,,,53,,,,,,,,,,,,,,446.57100008343696,,response,,,,99,,,,,,,Space,keypress(Space),,,,,,,,---- -- ----- -- ------ - ------- --- ----------<br>------------- ------ ------ ---- ---- ------- ----- -- ----<br>-------- ------- -- ---------- --- - --- ----- ----- ----<br>---- --- --- ----- --- feel ---- ------- ----- ---- -------<br>--- --- -- ----- -- --- ---- -- --- ---- -- ------ ------<br>--- ----- -- ----,192670.69999990053,192656.47500008345,192193.185,192199.17999999598,192209.904,192676.316,,33,feel
screen,html.Screen,1_1_0_1_34,2021-04-10T18:33:52.174Z,,,,,,,,,,,,,,,,53,,,,,,,,,,,,,,375.63900003174786,,response,,,,99,,,,,,,Space,keypress(Space),,,,,,,,---- -- ----- -- ------ - ------- --- ----------<br>------------- ------ ------ ---- ---- ------- ----- -- ----<br>-------- ------- -- ---------- --- - --- ----- ----- ----<br>---- --- --- ----- --- ---- that ------- ----- ---- -------<br>--- --- -- ----- -- --- ---- -- --- ---- -- ------ ------<br>--- ----- -- ----,193053.9549998939,193051.95500003174,192659.8,192670.8599999547,192676.316,193059.693,,34,that
screen,html.Screen,1_1_0_1_35,2021-04-10T18:33:52.585Z,,,,,,,,,,,,,,,,53,,,,,,,,,,,,,,402.316999901057,,response,,,,99,,,,,,,Space,keypress(Space),,,,,,,,---- -- ----- -- ------ - ------- --- ----------<br>------------- ------ ------ ---- ---- ------- ----- -- ----<br>-------- ------- -- ---------- --- - --- ----- ----- ----<br>---- --- --- ----- --- ---- ---- matters ----- ---- -------<br>--- --- -- ----- -- --- ---- -- --- ---- -- ------ ------<br>--- ----- -- ----,193465.20500001498,193462.00999990106,193042.992,193054.41000009887,193059.693,193476.266,,35,matters
screen,html.Screen,1_1_0_1_36,2021-04-10T18:33:53.034Z,,,,,,,,,,,,,,,,53,,,,,,,,,,,,,,436.0339999672142,,response,,,,99,,,,,,,Space,keypress(Space),,,,,,,,"---- -- ----- -- ------ - ------- --- ----------<br>------------- ------ ------ ---- ---- ------- ----- -- ----<br>-------- ------- -- ---------- --- - --- ----- ----- ----<br>---- --- --- ----- --- ---- ---- ------- most, ---- -------<br>--- --- -- ----- -- --- ---- -- --- ---- -- ------ ------<br>--- ----- -- ----",193914.24999991432,193912.29999996722,193459.934,193465.64999991097,193476.266,193926.235,,36,"most,"
screen,html.Screen,1_1_0_1_37,2021-04-10T18:33:53.450Z,,,,,,,,,,,,,,,,53,,,,,,,,,,,,,,402.1599999604514,,response,,,,99,,,,,,,Space,keypress(Space),,,,,,,,---- -- ----- -- ------ - ------- --- ----------<br>------------- ------ ------ ---- ---- ------- ----- -- ----<br>-------- ------- -- ---------- --- - --- ----- ----- ----<br>---- --- --- ----- --- ---- ---- ------- ----- it's -------<br>--- --- -- ----- -- --- ---- -- --- ---- -- ------ ------<br>--- ----- -- ----,194330.2899999544,194328.39499996044,193909.84,193914.69500004314,193926.235,194342.835,,37,it's
screen,html.Screen,1_1_0_1_38,2021-04-10T18:33:53.815Z,,,,,,,,,,,,,,,,53,,,,,,,,,,,,,,349.47000003323774,,response,,,,99,,,,,,,Space,keypress(Space),,,,,,,,---- -- ----- -- ------ - ------- --- ----------<br>------------- ------ ------ ---- ---- ------- ----- -- ----<br>-------- ------- -- ---------- --- - --- ----- ----- ----<br>---- --- --- ----- --- ---- ---- ------- ----- ---- whether<br>--- --- -- ----- -- --- ---- -- --- ---- -- ------ ------<br>--- ----- -- ----,194694.61499992758,194692.30500003323,194326.196,194333.02000002004,194342.835,194709.746,,38,whether
screen,html.Screen,1_1_0_1_39,2021-04-10T18:33:54.270Z,,,,,,,,,,,,,,,,53,,,,,,,,,,,,,,438.0990000285965,,response,,,,99,,,,,,,Space,keypress(Space),,,,,,,,---- -- ----- -- ------ - ------- --- ----------<br>------------- ------ ------ ---- ---- ------- ----- -- ----<br>-------- ------- -- ---------- --- - --- ----- ----- ----<br>---- --- --- ----- --- ---- ---- ------- ----- ---- -------<br>you --- -- ----- -- --- ---- -- --- ---- -- ------ ------<br>--- ----- -- ----,195149.77500005625,195147.8450000286,194693.086,194695.03500009887,194709.746,195159.427,,39,you
screen,html.Screen,1_1_0_1_40,2021-04-10T18:33:54.685Z,,,,,,,,,,,,,,,,53,,,,,,,,,,,,,,403.6030000775645,,response,,,,99,,,,,,,Space,keypress(Space),,,,,,,,---- -- ----- -- ------ - ------- --- ----------<br>------------- ------ ------ ---- ---- ------- ----- -- ----<br>-------- ------- -- ---------- --- - --- ----- ----- ----<br>---- --- --- ----- --- ---- ---- ------- ----- ---- -------<br>--- are -- ----- -- --- ---- -- --- ---- -- ------ ------<br>--- ----- -- ----,195565.1750001125,195563.03000007756,195143.021,195150.20500007086,195159.427,195576.148,,40,are
screen,html.Screen,1_1_0_1_41,2021-04-10T18:33:55.105Z,,,,,,,,,,,,,,,,53,,,,,,,,,,,,,,406.6019999664859,,response,,,,99,,,,,,,Space,keypress(Space),,,,,,,,---- -- ----- -- ------ - ------- --- ----------<br>------------- ------ ------ ---- ---- ------- ----- -- ----<br>-------- ------- -- ---------- --- - --- ----- ----- ----<br>---- --- --- ----- --- ---- ---- ------- ----- ---- -------<br>--- --- as ----- -- --- ---- -- --- ---- -- ------ ------<br>--- ----- -- ----,195984.75500009954,195982.74999996647,195559.649,195565.58499997482,195576.148,195993.224,,41,as
screen,html.Screen,1_1_0_1_42,2021-04-10T18:33:55.507Z,,,,,,,,,,,,,,,,53,,,,,,,,,,,,,,391.01600004307693,,response,,,,99,,,,,,,Space,keypress(Space),,,,,,,,---- -- ----- -- ------ - ------- --- ----------<br>------------- ------ ------ ---- ---- ------- ----- -- ----<br>-------- ------- -- ---------- --- - --- ----- ----- ----<br>---- --- --- ----- --- ---- ---- ------- ----- ---- -------<br>--- --- -- close -- --- ---- -- --- ---- -- ------ ------<br>--- ----- -- ----,196387.0000001043,196384.24000004306,195976.337,195985.175000038,195993.224,196392.608,,42,close
screen,html.Screen,1_1_0_1_43,2021-04-10T18:33:55.961Z,,,,,,,,,,,,,,,,53,,,,,,,,,,,,,,446.5070000970736,,response,,,,99,,,,,,,Space,keypress(Space),,,,,,,,---- -- ----- -- ------ - ------- --- ----------<br>------------- ------ ------ ---- ---- ------- ----- -- ----<br>-------- ------- -- ---------- --- - --- ----- ----- ----<br>---- --- --- ----- --- ---- ---- ------- ----- ---- -------<br>--- --- -- ----- as --- ---- -- --- ---- -- ------ ------<br>--- ----- -- ----,196841.02499997243,196839.11500009708,196376.055,196387.37999997102,196392.608,196868.393,,43,as
screen,html.Screen,1_1_0_1_44,2021-04-10T18:33:56.341Z,,,,,,,,,,,,,,,,53,,,,,,,,,,,,,,350.4119999531249,,response,,,,99,,,,,,,Space,keypress(Space),,,,,,,,---- -- ----- -- ------ - ------- --- ----------<br>------------- ------ ------ ---- ---- ------- ----- -- ----<br>-------- ------- -- ---------- --- - --- ----- ----- ----<br>---- --- --- ----- --- ---- ---- ------- ----- ---- -------<br>--- --- -- ----- -- you ---- -- --- ---- -- ------ ------<br>--- ----- -- ----,197220.75499990024,197218.80499995314,196826.157,196841.41999995336,196868.393,197225.828,,44,you
screen,html.Screen,1_1_0_1_45,2021-04-10T18:33:56.776Z,,,,,,,,,,,,,,,,53,,,,,,,,,,,,,,428.7470000514004,,response,,,,99,,,,,,,Space,keypress(Space),,,,,,,,---- -- ----- -- ------ - ------- --- ----------<br>------------- ------ ------ ---- ---- ------- ----- -- ----<br>-------- ------- -- ---------- --- - --- ----- ----- ----<br>---- --- --- ----- --- ---- ---- ------- ----- ---- -------<br>--- --- -- ----- -- --- want -- --- ---- -- ------ ------<br>--- ----- -- ----,197656.50500007905,197654.5750000514,197209.446,197221.14000003785,197225.828,197659.254,,45,want
screen,html.Screen,1_1_0_1_46,2021-04-10T18:33:57.186Z,,,,,,,,,,,,,,,,53,,,,,,,,,,,,,,404.7160000174481,,response,,,,99,,,,,,,Space,keypress(Space),,,,,,,,---- -- ----- -- ------ - ------- --- ----------<br>------------- ------ ------ ---- ---- ------- ----- -- ----<br>-------- ------- -- ---------- --- - --- ----- ----- ----<br>---- --- --- ----- --- ---- ---- ------- ----- ---- -------<br>--- --- -- ----- -- --- ---- to --- ---- -- ------ ------<br>--- ----- -- ----,198066.07499998063,198063.97000001743,197642.553,197656.88999998383,197659.254,198075.708,,46,to
screen,html.Screen,1_1_0_1_47,2021-04-10T18:33:57.841Z,,,,,,,,,,,,,,,,53,,,,,,,,,,,,,,643.1619999824034,,response,,,,99,,,,,,,Space,keypress(Space),,,,,,,,"---- -- ----- -- ------ - ------- --- ----------<br>------------- ------ ------ ---- ---- ------- ----- -- ----<br>-------- ------- -- ---------- --- - --- ----- ----- ----<br>---- --- --- ----- --- ---- ---- ------- ----- ---- -------<br>--- --- -- ----- -- --- ---- -- be, ---- -- ------ ------<br>--- ----- -- ----",198720.76499997638,198718.86999998242,198059.5,198066.4800000377,198075.708,198725.647,,47,"be,"
screen,html.Screen,1_1_0_1_48,2021-04-10T18:33:58.321Z,,,,,,,,,,,,,,,,53,,,,,,,,,,,,,,473.4329999330221,,response,,,,99,,,,,,,Space,keypress(Space),,,,,,,,---- -- ----- -- ------ - ------- --- ----------<br>------------- ------ ------ ---- ---- ------- ----- -- ----<br>-------- ------- -- ---------- --- - --- ----- ----- ----<br>---- --- --- ----- --- ---- ---- ------- ----- ---- -------<br>--- --- -- ----- -- --- ---- -- --- even -- ------ ------<br>--- ----- -- ----,199201.00000011735,199199.07999993302,198709.153,198721.1599999573,198725.647,199209.222,,48,even
screen,html.Screen,1_1_0_1_49,2021-04-10T18:33:58.786Z,,,,,,,,,,,,,,,,53,,,,,,,,,,,,,,455.23300007829675,,response,,,,99,,,,,,,Space,keypress(Space),,,,,,,,---- -- ----- -- ------ - ------- --- ----------<br>------------- ------ ------ ---- ---- ------- ----- -- ----<br>-------- ------- -- ---------- --- - --- ----- ----- ----<br>---- --- --- ----- --- ---- ---- ------- ----- ---- -------<br>--- --- -- ----- -- --- ---- -- --- ---- if ------ ------<br>--- ----- -- ----,199666.36999999173,199664.4550000783,199192.403,199201.39999990351,199209.222,199675.541,,49,if
screen,html.Screen,1_1_0_1_50,2021-04-10T18:33:59.222Z,,,,,,,,,,,,,,,,53,,,,,,,,,,,,,,423.9290000155743,,response,,,,99,,,,,,,Space,keypress(Space),,,,,,,,---- -- ----- -- ------ - ------- --- ----------<br>------------- ------ ------ ---- ---- ------- ----- -- ----<br>-------- ------- -- ---------- --- - --- ----- ----- ----<br>---- --- --- ----- --- ---- ---- ------- ----- ---- -------<br>--- --- -- ----- -- --- ---- -- --- ---- -- that's ------<br>--- ----- -- ----,200101.6599999275,200099.47000001557,199659.168,199666.77000001073,199675.541,200108.781,,50,that's
screen,html.Screen,1_1_0_1_51,2021-04-10T18:33:59.742Z,,,,,,,,,,,,,,,,53,,,,,,,,,,,,,,511.404000123468,,response,,,,99,,,,,,,Space,keypress(Space),,,,,,,,---- -- ----- -- ------ - ------- --- ----------<br>------------- ------ ------ ---- ---- ------- ----- -- ----<br>-------- ------- -- ---------- --- - --- ----- ----- ----<br>---- --- --- ----- --- ---- ---- ------- ----- ---- -------<br>--- --- -- ----- -- --- ---- -- --- ---- -- ------ really<br>--- ----- -- ----,200622.10500007495,200620.18500012346,200092.41,200102.0500001032,200108.781,200625.401,,51,really
screen,html.Screen,1_1_0_1_52,2021-04-10T18:34:00.207Z,,,,,,,,,,,,,,,,53,,,,,,,,,,,,,,459.60900003887946,,response,,,,99,,,,,,,Space,keypress(Space),,,,,,,,---- -- ----- -- ------ - ------- --- ----------<br>------------- ------ ------ ---- ---- ------- ----- -- ----<br>-------- ------- -- ---------- --- - --- ----- ----- ----<br>---- --- --- ----- --- ---- ---- ------- ----- ---- -------<br>--- --- -- ----- -- --- ---- -- --- ---- -- ------ ------<br>not ----- -- ----,201086.94999990985,201085.0100000389,200609.006,200622.50000005588,200625.401,201092.024,,52,not
screen,html.Screen,1_1_0_1_53,2021-04-10T18:34:00.638Z,,,,,,,,,,,,,,,,53,,,,,,,,,,,,,,423.36100003516185,,response,,,,99,,,,,,,Space,keypress(Space),,,,,,,,---- -- ----- -- ------ - ------- --- ----------<br>------------- ------ ------ ---- ---- ------- ----- -- ----<br>-------- ------- -- ---------- --- - --- ----- ----- ----<br>---- --- --- ----- --- ---- ---- ------- ----- ---- -------<br>--- --- -- ----- -- --- ---- -- --- ---- -- ------ ------<br>--- close -- ----,201517.83500006422,201515.38500003517,201075.416,201087.34000008553,201092.024,201525.274,,53,close
screen,html.Screen,1_1_0_1_54,2021-04-10T18:34:01.097Z,,,,,,,,,,,,,,,,53,,,,,,,,,,,,,,450.08600004037726,,response,,,,99,,,,,,,Space,keypress(Space),,,,,,,,---- -- ----- -- ------ - ------- --- ----------<br>------------- ------ ------ ---- ---- ------- ----- -- ----<br>-------- ------- -- ---------- --- - --- ----- ----- ----<br>---- --- --- ----- --- ---- ---- ------- ----- ---- -------<br>--- --- -- ----- -- --- ---- -- --- ---- -- ------ ------<br>--- ----- at ----,201977.29000006802,201975.36000004038,201508.668,201518.24499992654,201525.274,201991.951,,54,at
screen,html.Screen,1_1_0_1_55,2021-04-10T18:34:01.747Z,,,,,,,,,,,,,,,,53,,,,,,,,,,,,,,633.5840001156321,,response,,,,99,,,,,,,Space,keypress(Space),,,,,,,,---- -- ----- -- ------ - ------- --- ----------<br>------------- ------ ------ ---- ---- ------- ----- -- ----<br>-------- ------- -- ---------- --- - --- ----- ----- ----<br>---- --- --- ----- --- ---- ---- ------- ----- ---- -------<br>--- --- -- ----- -- --- ---- -- --- ---- -- ------ ------<br>--- ----- -- all.,202627.49499990605,202625.53500011563,201975.314,201977.6749999728,201991.951,202641.843,,55,all.
Item 99,flow.Loop,1_1_0_1,2021-04-10T18:34:01.748Z,,,,,,,,,,,,,,,,,,,,,,,,,,,,,,26413.74100011564,,completion,,,,,C,,,,,,,,,,,silence,,,,,202628.31000005826,202625.53500011563,176078.707,176080.51500003785,176211.794,202641.843,,,
Question 1,html.Screen,1_1_0_2,2021-04-10T18:34:08.239Z,,,,,,,,,,,,,,,,,,,,,,,,,,,true,FALSE,,6475.071999904118,,response,,,,99,C,,,,,,FALSE,click #choice-2,,,,silence,,,,,209119.05999993905,209116.9149999041,202625.413,202628.70000000112,202641.843,209141.056,,,
Question 2,html.Screen,1_1_0_3,2021-04-10T18:34:16.247Z,,,,,,,,,,,,,,,,,,,,,,,,,,,true,TRUE,,7983.344000087905,,response,,,,99,C,,,,,,TRUE,click #choice-1,,,,silence,,,,,217126.98499998078,217124.40000008792,209124.353,209119.39999996684,209141.056,217140.02,,,
Item 99,flow.Sequence,1_1_0,2021-04-10T18:34:16.248Z,,,,,,,,,,,,,,,,,,,,,,,,,,,,,,51027.785000087926,,completion,,,,,,,,,,,,,,,,,,,,,217127.60500004515,217124.40000008792,166079.859,166092.3250000924,166096.615,217140.02,,,
Holding screen,html.Screen,1_1_1_0,2021-04-10T18:34:26.243Z,,,,,,,,,,,,,,,,,,,,,,,,,,,,,,9998.928000000014,,timeout,,,,,,,,,,,,,,,,,,,,,227123.81000001915,227122.395,217123.612,217128.10999993235,217140.02,227138.948,,,
screen,html.Screen,1_1_1_1_0,2021-04-10T18:34:27.839Z,,,,,,,,,,,,,,,,54,,,,,,,,,,,,,,1577.5019999489596,,response,,,,100,,,,,,,Space,keypress(Space),,,,,,,,At --- ---- --- ------ ----- ------- ---- -- --- ------- --<br>------- ---------- ------ -- ----- -- ----- -- ---- ------<br>--- ----- --- --- ------ -------- ----- --- ------ ----- --<br>----- ----- ---------- --- --- ------ ------ ---- -- ------<br>------- --- ------ ----- --- ---- ------- -- ---- --- --<br>------- ------,228718.92999997362,228716.44999994896,227122.395,227124.31999994442,227138.948,228721.934,,0,At
screen,html.Screen,1_1_1_1_1,2021-04-10T18:34:28.307Z,,,,,,,,,,,,,,,,54,,,,,,,,,,,,,,464.0059999957448,,response,,,,100,,,,,,,Space,keypress(Space),,,,,,,,-- the ---- --- ------ ----- ------- ---- -- --- ------- --<br>------- ---------- ------ -- ----- -- ----- -- ---- ------<br>--- ----- --- --- ------ -------- ----- --- ------ ----- --<br>----- ----- ---------- --- --- ------ ------ ---- -- ------<br>------- --- ------ ----- --- ---- ------- -- ---- --- --<br>------- ------,229187.66500009224,229185.93999999575,228705.252,228719.34500010684,228721.934,229221.911,,1,the
screen,html.Screen,1_1_1_1_2,2021-04-10T18:34:28.898Z,,,,,,,,,,,,,,,,54,,,,,,,,,,,,,,554.5589999243093,,response,,,,100,,,,,,,Space,keypress(Space),,,,,,,,-- --- time --- ------ ----- ------- ---- -- --- ------- --<br>------- ---------- ------ -- ----- -- ----- -- ---- ------<br>--- ----- --- --- ------ -------- ----- --- ------ ----- --<br>----- ----- ---------- --- --- ------ ------ ---- -- ------<br>------- --- ------ ----- --- ---- ------- -- ---- --- --<br>------- ------,229778.20999990217,229776.4699999243,229205.476,229188.06000007316,229221.911,229788.462,,2,time
screen,html.Screen,1_1_1_1_3,2021-04-10T18:34:30.258Z,,,,,,,,,,,,,,,,54,,,,,,,,,,,,,,1348.1330000472371,,response,,,,100,,,,,,,Space,keypress(Space),,,,,,,,-- --- ---- the ------ ----- ------- ---- -- --- ------- --<br>------- ---------- ------ -- ----- -- ----- -- ---- ------<br>--- ----- --- --- ------ -------- ----- --- ------ ----- --<br>----- ----- ---------- --- --- ------ ------ ---- -- ------<br>------- --- ------ ----- --- ---- ------- -- ---- --- --<br>------- ------,231138.4000000544,231136.59500004724,229772.047,229778.60500011593,229788.462,231155.253,,3,the
screen,html.Screen,1_1_1_1_4,2021-04-10T18:34:30.948Z,,,,,,,,,,,,,,,,54,,,,,,,,,,,,,,671.6169999898702,,response,,,,100,,,,,,,Space,keypress(Space),,,,,,,,-- --- ---- --- French ----- ------- ---- -- --- ------- --<br>------- ---------- ------ -- ----- -- ----- -- ---- ------<br>--- ----- --- --- ------ -------- ----- --- ------ ----- --<br>----- ----- ---------- --- --- ------ ------ ---- -- ------<br>------- --- ------ ----- --- ---- ------- -- ---- --- --<br>------- ------,231828.64500000142,231826.86999998987,231138.3,231138.78499995917,231155.253,231838.219,,4,French
screen,html.Screen,1_1_1_1_5,2021-04-10T18:34:31.484Z,,,,,,,,,,,,,,,,54,,,,,,,,,,,,,,524.78099989568,,response,,,,100,,,,,,,Space,keypress(Space),,,,,,,,-- --- ---- --- ------ crown ------- ---- -- --- ------- --<br>------- ---------- ------ -- ----- -- ----- -- ---- ------<br>--- ----- --- --- ------ -------- ----- --- ------ ----- --<br>----- ----- ---------- --- --- ------ ------ ---- -- ------<br>------- --- ------ ----- --- ---- ------- -- ---- --- --<br>------- ------,232364.7400001064,232362.9999998957,231821.592,231829.02500010096,231838.219,232371.757,,5,crown
screen,html.Screen,1_1_1_1_6,2021-04-10T18:34:32.052Z,,,,,,,,,,,,,,,,54,,,,,,,,,,,,,,559.8480000488635,,response,,,,100,,,,,,,Space,keypress(Space),,,,,,,,-- --- ---- --- ------ ----- secured ---- -- --- ------- --<br>------- ---------- ------ -- ----- -- ----- -- ---- ------<br>--- ----- --- --- ------ -------- ----- --- ------ ----- --<br>----- ----- ---------- --- --- ------ ------ ---- -- ------<br>------- --- ------ ----- --- ---- ------- -- ---- --- --<br>------- ------,232932.47000011615,232931.60500004888,232355.077,232365.12500001118,232371.757,232938.065,,6,secured
screen,html.Screen,1_1_1_1_7,2021-04-10T18:34:32.794Z,,,,,,,,,,,,,,,,54,,,,,,,,,,,,,,734.5049999369658,,response,,,,100,,,,,,,Space,keypress(Space),,,,,,,,-- --- ---- --- ------ ----- ------- much -- --- ------- --<br>------- ---------- ------ -- ----- -- ----- -- ---- ------<br>--- ----- --- --- ------ -------- ----- --- ------ ----- --<br>----- ----- ---------- --- --- ------ ------ ---- -- ------<br>------- --- ------ ----- --- ---- ------- -- ---- --- --<br>------- ------,233674.31999999098,233672.56999993697,232921.473,232932.6150000561,232938.065,233688.09,,7,much
screen,html.Screen,1_1_1_1_8,2021-04-10T18:34:33.309Z,,,,,,,,,,,,,,,,54,,,,,,,,,,,,,,499.70999995604507,,response,,,,100,,,,,,,Space,keypress(Space),,,,,,,,-- --- ---- --- ------ ----- ------- ---- of --- ------- --<br>------- ---------- ------ -- ----- -- ----- -- ---- ------<br>--- ----- --- --- ------ -------- ----- --- ------ ----- --<br>----- ----- ---------- --- --- ------ ------ ---- -- ------<br>------- --- ------ ----- --- ---- ------- -- ---- --- --<br>------- ------,234189.68000006862,234187.79999995604,233671.288,233674.72000000998,233688.09,234204.846,,8,of
screen,html.Screen,1_1_1_1_9,2021-04-10T18:34:33.774Z,,,,,,,,,,,,,,,,54,,,,,,,,,,,,,,448.0740000222868,,response,,,,100,,,,,,,Space,keypress(Space),,,,,,,,-- --- ---- --- ------ ----- ------- ---- -- its ------- --<br>------- ---------- ------ -- ----- -- ----- -- ---- ------<br>--- ----- --- --- ------ -------- ----- --- ------ ----- --<br>----- ----- ---------- --- --- ------ ------ ---- -- ------<br>------- --- ------ ----- --- ---- ------- -- ---- --- --<br>------- ------,234654.66500003822,234652.92000002228,234188.625,234190.07000001147,234204.846,234671.487,,9,its
screen,html.Screen,1_1_1_1_10,2021-04-10T18:34:34.319Z,,,,,,,,,,,,,,,,54,,,,,,,,,,,,,,526.5080000532034,,response,,,,100,,,,,,,Space,keypress(Space),,,,,,,,-- --- ---- --- ------ ----- ------- ---- -- --- revenue --<br>------- ---------- ------ -- ----- -- ----- -- ---- ------<br>--- ----- --- --- ------ -------- ----- --- ------ ----- --<br>----- ----- ---------- --- --- ------ ------ ---- -- ------<br>------- --- ------ ----- --- ---- ------- -- ---- --- --<br>------- ------,235199.71999991685,235197.9950000532,234654.591,234655.05499998108,234671.487,235204.42,,10,revenue
screen,html.Screen,1_1_1_1_11,2021-04-10T18:34:34.780Z,,,,,,,,,,,,,,,,54,,,,,,,,,,,,,,453.7499999514839,,response,,,,100,,,,,,,Space,keypress(Space),,,,,,,,-- --- ---- --- ------ ----- ------- ---- -- --- ------- by<br>------- ---------- ------ -- ----- -- ----- -- ---- ------<br>--- ----- --- --- ------ -------- ----- --- ------ ----- --<br>----- ----- ---------- --- --- ------ ------ ---- -- ------<br>------- --- ------ ----- --- ---- ------- -- ---- --- --<br>------- ------,235660.00499995425,235658.1699999515,235188.035,235200.11499989778,235204.42,235671.077,,11,by
screen,html.Screen,1_1_1_1_12,2021-04-10T18:34:35.320Z,,,,,,,,,,,,,,,,54,,,,,,,,,,,,,,527.7229998964467,,response,,,,100,,,,,,,Space,keypress(Space),,,,,,,,-- --- ---- --- ------ ----- ------- ---- -- --- ------- --<br>issuing ---------- ------ -- ----- -- ----- -- ---- ------<br>--- ----- --- --- ------ -------- ----- --- ------ ----- --<br>----- ----- ---------- --- --- ------ ------ ---- -- ------<br>------- --- ------ ----- --- ---- ------- -- ---- --- --<br>------- ------,236200.6649998948,236198.79999989644,235654.357,235660.41000001132,235671.077,236204.332,,12,issuing
screen,html.Screen,1_1_1_1_13,2021-04-10T18:34:35.950Z,,,,,,,,,,,,,,,,54,,,,,,,,,,,,,,624.4780000936589,,response,,,,100,,,,,,,Space,keypress(Space),,,,,,,,-- --- ---- --- ------ ----- ------- ---- -- --- ------- --<br>------- government ------ -- ----- -- ----- -- ---- ------<br>--- ----- --- --- ------ -------- ----- --- ------ ----- --<br>----- ----- ---------- --- --- ------ ------ ---- -- ------<br>------- --- ------ ----- --- ---- ------- -- ---- --- --<br>------- ------,236830.56999999098,236828.81000009365,236187.742,236201.07499998994,236204.332,236837.572,,13,government
screen,html.Screen,1_1_1_1_14,2021-04-10T18:34:36.466Z,,,,,,,,,,,,,,,,54,,,,,,,,,,,,,,507.4380000482197,,response,,,,100,,,,,,,Space,keypress(Space),,,,,,,,-- --- ---- --- ------ ----- ------- ---- -- --- ------- --<br>------- ---------- bonds. -- ----- -- ----- -- ---- ------<br>--- ----- --- --- ------ -------- ----- --- ------ ----- --<br>----- ----- ---------- --- --- ------ ------ ---- -- ------<br>------- --- ------ ----- --- ---- ------- -- ---- --- --<br>------- ------,237346.81000001729,237345.0100000482,236821.157,236830.95499989577,236837.572,237354.173,,14,bonds.
screen,html.Screen,1_1_1_1_15,2021-04-10T18:34:36.939Z,,,,,,,,,,,,,,,,54,,,,,,,,,,,,,,464.3469999716035,,response,,,,100,,,,,,,Space,keypress(Space),,,,,,,,-- --- ---- --- ------ ----- ------- ---- -- --- ------- --<br>------- ---------- ------ In ----- -- ----- -- ---- ------<br>--- ----- --- --- ------ -------- ----- --- ------ ----- --<br>----- ----- ---------- --- --- ------ ------ ---- -- ------<br>------- --- ------ ----- --- ---- ------- -- ---- --- --<br>------- ------,237819.5799998939,237818.5199999716,237337.797,237347.19499992207,237354.173,237849.002,,15,In
screen,html.Screen,1_1_1_1_16,2021-04-10T18:34:37.880Z,,,,,,,,,,,,,,,,54,,,,,,,,,,,,,,909.9229999727977,,response,,,,100,,,,,,,Space,keypress(Space),,,,,,,,"-- --- ---- --- ------ ----- ------- ---- -- --- ------- --<br>------- ---------- ------ -- 1727, -- ----- -- ---- ------<br>--- ----- --- --- ------ -------- ----- --- ------ ----- --<br>----- ----- ---------- --- --- ------ ------ ---- -- ------<br>------- --- ------ ----- --- ---- ------- -- ---- --- --<br>------- ------",238759.89499990828,238758.9249999728,237804.45,237819.73000010476,237849.002,238771.051,,16,"1727,"
screen,html.Screen,1_1_1_1_17,2021-04-10T18:34:38.701Z,,,,,,,,,,,,,,,,54,,,,,,,,,,,,,,808.6040000086359,,response,,,,100,,,,,,,Space,keypress(Space),,,,,,,,-- --- ---- --- ------ ----- ------- ---- -- --- ------- --<br>------- ---------- ------ -- ----- in ----- -- ---- ------<br>--- ----- --- --- ------ -------- ----- --- ------ ----- --<br>----- ----- ---------- --- --- ------ ------ ---- -- ------<br>------- --- ------ ----- --- ---- ------- -- ---- --- --<br>------- ------,239581.59000007436,239579.65500000864,238753.931,238760.04999992438,238771.051,239587.233,,17,in
screen,html.Screen,1_1_1_1_18,2021-04-10T18:34:39.385Z,,,,,,,,,,,,,,,,54,,,,,,,,,,,,,,676.9270000206307,,response,,,,100,,,,,,,Space,keypress(Space),,,,,,,,-- --- ---- --- ------ ----- ------- ---- -- --- ------- --<br>------- ---------- ------ -- ----- -- order -- ---- ------<br>--- ----- --- --- ------ -------- ----- --- ------ ----- --<br>----- ----- ---------- --- --- ------ ------ ---- -- ------<br>------- --- ------ ----- --- ---- ------- -- ---- --- --<br>------- ------,240265.0900001172,240264.16000002064,239570.523,239581.96999994107,239587.233,240270.423,,18,order
screen,html.Screen,1_1_1_1_19,2021-04-10T18:34:40.193Z,,,,,,,,,,,,,,,,54,,,,,,,,,,,,,,800.0769999143085,,response,,,,100,,,,,,,Space,keypress(Space),,,,,,,,-- --- ---- --- ------ ----- ------- ---- -- --- ------- --<br>------- ---------- ------ -- ----- -- ----- to ---- ------<br>--- ----- --- --- ------ -------- ----- --- ------ ----- --<br>----- ----- ---------- --- --- ------ ------ ---- -- ------<br>------- --- ------ ----- --- ---- ------- -- ---- --- --<br>------- ------,241073.6100000795,241070.49999991432,240253.885,240265.24000009522,240270.423,241086.97,,19,to
screen,html.Screen,1_1_1_1_20,2021-04-10T18:34:40.687Z,,,,,,,,,,,,,,,,54,,,,,,,,,,,,,,478.73999999530497,,response,,,,100,,,,,,,Space,keypress(Space),,,,,,,,-- --- ---- --- ------ ----- ------- ---- -- --- ------- --<br>------- ---------- ------ -- ----- -- ----- -- save ------<br>--- ----- --- --- ------ -------- ----- --- ------ ----- --<br>----- ----- ---------- --- --- ------ ------ ---- -- ------<br>------- --- ------ ----- --- ---- ------- -- ---- --- --<br>------- ------,241567.7249999717,241565.7099999953,241070.341,241074.04499989934,241086.97,241570.299,,20,save
screen,html.Screen,1_1_1_1_21,2021-04-10T18:34:41.158Z,,,,,,,,,,,,,,,,54,,,,,,,,,,,,,,465.71099992340896,,response,,,,100,,,,,,,Space,keypress(Space),,,,,,,,"-- --- ---- --- ------ ----- ------- ---- -- --- ------- --<br>------- ---------- ------ -- ----- -- ----- -- ---- money,<br>--- ----- --- --- ------ -------- ----- --- ------ ----- --<br>----- ----- ---------- --- --- ------ ------ ---- -- ------<br>------- --- ------ ----- --- ---- ------- -- ---- --- --<br>------- ------",242037.98500006087,242036.0099999234,241553.578,241568.10000003316,241570.299,242053.941,,21,"money,"
screen,html.Screen,1_1_1_1_22,2021-04-10T18:34:41.638Z,,,,,,,,,,,,,,,,54,,,,,,,,,,,,,,462.29399998823646,,response,,,,100,,,,,,,Space,keypress(Space),,,,,,,,-- --- ---- --- ------ ----- ------- ---- -- --- ------- --<br>------- ---------- ------ -- ----- -- ----- -- ---- ------<br>the ----- --- --- ------ -------- ----- --- ------ ----- --<br>----- ----- ---------- --- --- ------ ------ ---- -- ------<br>------- --- ------ ----- --- ---- ------- -- ---- --- --<br>------- ------,242518.4049999807,242516.23499998823,242037.02,242038.36999996565,242053.941,242550.035,,22,the
screen,html.Screen,1_1_1_1_23,2021-04-10T18:34:42.153Z,,,,,,,,,,,,,,,,54,,,,,,,,,,,,,,481.1900000424648,,response,,,,100,,,,,,,Space,keypress(Space),,,,,,,,-- --- ---- --- ------ ----- ------- ---- -- --- ------- --<br>------- ---------- ------ -- ----- -- ----- -- ---- ------<br>--- state --- --- ------ -------- ----- --- ------ ----- --<br>----- ----- ---------- --- --- ------ ------ ---- -- ------<br>------- --- ------ ----- --- ---- ------- -- ---- --- --<br>------- ------,243033.1900001038,243031.22500004247,242503.77,242518.8049999997,242550.035,243036.817,,23,state
screen,html.Screen,1_1_1_1_24,2021-04-10T18:34:42.618Z,,,,,,,,,,,,,,,,54,,,,,,,,,,,,,,459.69800000617397,,response,,,,100,,,,,,,Space,keypress(Space),,,,,,,,-- --- ---- --- ------ ----- ------- ---- -- --- ------- --<br>------- ---------- ------ -- ----- -- ----- -- ---- ------<br>--- ----- cut --- ------ -------- ----- --- ------ ----- --<br>----- ----- ---------- --- --- ------ ------ ---- -- ------<br>------- --- ------ ----- --- ---- ------- -- ---- --- --<br>------- ------,243498.43499995768,243496.51500000618,243020.436,243033.61500008032,243036.817,243503.441,,24,cut
screen,html.Screen,1_1_1_1_25,2021-04-10T18:34:43.028Z,,,,,,,,,,,,,,,,54,,,,,,,,,,,,,,403.27400004828814,,response,,,,100,,,,,,,Space,keypress(Space),,,,,,,,-- --- ---- --- ------ ----- ------- ---- -- --- ------- --<br>------- ---------- ------ -- ----- -- ----- -- ---- ------<br>--- ----- --- the ------ -------- ----- --- ------ ----- --<br>----- ----- ---------- --- --- ------ ------ ---- -- ------<br>------- --- ------ ----- --- ---- ------- -- ---- --- --<br>------- ------,243908.64000003785,243906.71500004828,243487.027,243498.8200000953,243503.441,243920.04,,25,the
screen,html.Screen,1_1_1_1_26,2021-04-10T18:34:43.524Z,,,,,,,,,,,,,,,,54,,,,,,,,,,,,,,482.75500000178,,response,,,,100,,,,,,,Space,keypress(Space),,,,,,,,-- --- ---- --- ------ ----- ------- ---- -- --- ------- --<br>------- ---------- ------ -- ----- -- ----- -- ---- ------<br>--- ----- --- --- bonds' -------- ----- --- ------ ----- --<br>----- ----- ---------- --- --- ------ ------ ---- -- ------<br>------- --- ------ ----- --- ---- ------- -- ---- --- --<br>------- ------,244404.82999989763,244402.7950000018,243903.66,243909.0299999807,243920.04,244420.196,,26,bonds'
screen,html.Screen,1_1_1_1_27,2021-04-10T18:34:43.974Z,,,,,,,,,,,,,,,,54,,,,,,,,,,,,,,431.8140000314452,,response,,,,100,,,,,,,Space,keypress(Space),,,,,,,,-- --- ---- --- ------ ----- ------- ---- -- --- ------- --<br>------- ---------- ------ -- ----- -- ----- -- ---- ------<br>--- ----- --- --- ------ interest ----- --- ------ ----- --<br>----- ----- ---------- --- --- ------ ------ ---- -- ------<br>------- --- ------ ----- --- ---- ------- -- ---- --- --<br>------- ------,244854.01499993168,244852.01000003144,244403.595,244405.23999999277,244420.196,244870.199,,27,interest
screen,html.Screen,1_1_1_1_28,2021-04-10T18:34:44.449Z,,,,,,,,,,,,,,,,54,,,,,,,,,,,,,,457.0659999708005,,response,,,,100,,,,,,,Space,keypress(Space),,,,,,,,-- --- ---- --- ------ ----- ------- ---- -- --- ------- --<br>------- ---------- ------ -- ----- -- ----- -- ---- ------<br>--- ----- --- --- ------ -------- rate. --- ------ ----- --<br>----- ----- ---------- --- --- ------ ------ ---- -- ------<br>------- --- ------ ----- --- ---- ------- -- ---- --- --<br>------- ------,245329.33999993838,245327.2649999708,244853.523,244854.40500010736,244870.199,245336.516,,28,rate.
screen,html.Screen,1_1_1_1_29,2021-04-10T18:34:44.924Z,,,,,,,,,,,,,,,,54,,,,,,,,,,,,,,465.95399999507936,,response,,,,100,,,,,,,Space,keypress(Space),,,,,,,,-- --- ---- --- ------ ----- ------- ---- -- --- ------- --<br>------- ---------- ------ -- ----- -- ----- -- ---- ------<br>--- ----- --- --- ------ -------- ----- The ------ ----- --<br>----- ----- ---------- --- --- ------ ------ ---- -- ------<br>------- --- ------ ----- --- ---- ------- -- ---- --- --<br>------- ------,245804.50500012375,245802.46999999508,245320.13,245329.73000011407,245336.516,245819.974,,29,The
screen,html.Screen,1_1_1_1_30,2021-04-10T18:34:45.399Z,,,,,,,,,,,,,,,,54,,,,,,,,,,,,,,457.56100011750823,,response,,,,100,,,,,,,Space,keypress(Space),,,,,,,,-- --- ---- --- ------ ----- ------- ---- -- --- ------- --<br>------- ---------- ------ -- ----- -- ----- -- ---- ------<br>--- ----- --- --- ------ -------- ----- --- market ----- --<br>----- ----- ---------- --- --- ------ ------ ---- -- ------<br>------- --- ------ ----- --- ---- ------- -- ---- --- --<br>------- ------,246279.4949999079,246277.5350001175,245803.505,245804.90000010468,245819.974,246286.434,,30,market
screen,html.Screen,1_1_1_1_31,2021-04-10T18:34:45.860Z,,,,,,,,,,,,,,,,54,,,,,,,,,,,,,,451.30099997331854,,response,,,,100,,,,,,,Space,keypress(Space),,,,,,,,-- --- ---- --- ------ ----- ------- ---- -- --- ------- --<br>------- ---------- ------ -- ----- -- ----- -- ---- ------<br>--- ----- --- --- ------ -------- ----- --- ------ value --<br>----- ----- ---------- --- --- ------ ------ ---- -- ------<br>------- --- ------ ----- --- ---- ------- -- ---- --- --<br>------- ------,246740.4000000097,246737.73499997333,246270.072,246279.88000004552,246286.434,246753.136,,31,value
screen,html.Screen,1_1_1_1_32,2021-04-10T18:34:46.300Z,,,,,,,,,,,,,,,,54,,,,,,,,,,,,,,424.7839999291464,,response,,,,100,,,,,,,Space,keypress(Space),,,,,,,,-- --- ---- --- ------ ----- ------- ---- -- --- ------- --<br>------- ---------- ------ -- ----- -- ----- -- ---- ------<br>--- ----- --- --- ------ -------- ----- --- ------ ----- of<br>----- ----- ---------- --- --- ------ ------ ---- -- ------<br>------- --- ------ ----- --- ---- ------- -- ---- --- --<br>------- ------,247179.9399999436,247177.91999992914,246736.646,246740.80500006676,246753.136,247186.285,,32,of
screen,html.Screen,1_1_1_1_33,2021-04-10T18:34:46.758Z,,,,,,,,,,,,,,,,54,,,,,,,,,,,,,,451.2999999021704,,response,,,,100,,,,,,,Space,keypress(Space),,,,,,,,-- --- ---- --- ------ ----- ------- ---- -- --- ------- --<br>------- ---------- ------ -- ----- -- ----- -- ---- ------<br>--- ----- --- --- ------ -------- ----- --- ------ ----- --<br>these ----- ---------- --- --- ------ ------ ---- -- ------<br>------- --- ------ ----- --- ---- ------- -- ---- --- --<br>------- ------,247638.45500000753,247637.58499990217,247169.807,247180.33499992453,247186.285,247653.176,,33,these
screen,html.Screen,1_1_1_1_34,2021-04-10T18:34:47.175Z,,,,,,,,,,,,,,,,54,,,,,,,,,,,,,,400.08899999500136,,response,,,,100,,,,,,,Space,keypress(Space),,,,,,,,-- --- ---- --- ------ ----- ------- ---- -- --- ------- --<br>------- ---------- ------ -- ----- -- ----- -- ---- ------<br>--- ----- --- --- ------ -------- ----- --- ------ ----- --<br>----- bonds ---------- --- --- ------ ------ ---- -- ------<br>------- --- ------ ----- --- ---- ------- -- ---- --- --<br>------- ------,248055.20999990404,248053.264999995,247636.609,247638.5949999094,247653.176,248069.566,,34,bonds
screen,html.Screen,1_1_1_1_35,2021-04-10T18:34:47.640Z,,,,,,,,,,,,,,,,54,,,,,,,,,,,,,,448.9340000055963,,response,,,,100,,,,,,,Space,keypress(Space),,,,,,,,"-- --- ---- --- ------ ----- ------- ---- -- --- ------- --<br>------- ---------- ------ -- ----- -- ----- -- ---- ------<br>--- ----- --- --- ------ -------- ----- --- ------ ----- --<br>----- ----- plummeted, --- --- ------ ------ ---- -- ------<br>------- --- ------ ----- --- ---- ------- -- ---- --- --<br>------- ------",248520.41999995708,248518.5000000056,248052.991,248055.6050001178,248069.566,248537.132,,35,"plummeted,"
screen,html.Screen,1_1_1_1_36,2021-04-10T18:34:48.061Z,,,,,,,,,,,,,,,,54,,,,,,,,,,,,,,402.3429999046202,,response,,,,100,,,,,,,Space,keypress(Space),,,,,,,,-- --- ---- --- ------ ----- ------- ---- -- --- ------- --<br>------- ---------- ------ -- ----- -- ----- -- ---- ------<br>--- ----- --- --- ------ -------- ----- --- ------ ----- --<br>----- ----- ---------- and --- ------ ------ ---- -- ------<br>------- --- ------ ----- --- ---- ------- -- ---- --- --<br>------- ------,248941.36500009336,248939.47499990463,248519.758,248520.80999989994,248537.132,248952.776,,36,and
screen,html.Screen,1_1_1_1_37,2021-04-10T18:34:48.521Z,,,,,,,,,,,,,,,,54,,,,,,,,,,,,,,446.97899990394944,,response,,,,100,,,,,,,Space,keypress(Space),,,,,,,,-- --- ---- --- ------ ----- ------- ---- -- --- ------- --<br>------- ---------- ------ -- ----- -- ----- -- ---- ------<br>--- ----- --- --- ------ -------- ----- --- ------ ----- --<br>----- ----- ---------- --- the ------ ------ ---- -- ------<br>------- --- ------ ----- --- ---- ------- -- ---- --- --<br>------- ------,249401.654999936,249399.75499990396,248936.356,248941.74999999814,248952.776,249436.094,,37,the
screen,html.Screen,1_1_1_1_38,2021-04-10T18:34:48.981Z,,,,,,,,,,,,,,,,54,,,,,,,,,,,,,,422.89600009520655,,response,,,,100,,,,,,,Space,keypress(Space),,,,,,,,-- --- ---- --- ------ ----- ------- ---- -- --- ------- --<br>------- ---------- ------ -- ----- -- ----- -- ---- ------<br>--- ----- --- --- ------ -------- ----- --- ------ ----- --<br>----- ----- ---------- --- --- market ------ ---- -- ------<br>------- --- ------ ----- --- ---- ------- -- ---- --- --<br>------- ------,249860.9150000848,249858.99000009522,249419.647,249402.04500011168,249436.094,249869.935,,38,market
screen,html.Screen,1_1_1_1_39,2021-04-10T18:34:49.507Z,,,,,,,,,,,,,,,,54,,,,,,,,,,,,,,515.2800000166171,,response,,,,100,,,,,,,Space,keypress(Space),,,,,,,,-- --- ---- --- ------ ----- ------- ---- -- --- ------- --<br>------- ---------- ------ -- ----- -- ----- -- ---- ------<br>--- ----- --- --- ------ -------- ----- --- ------ ----- --<br>----- ----- ---------- --- --- ------ became ---- -- ------<br>------- --- ------ ----- --- ---- ------- -- ---- --- --<br>------- ------,250387.15000008233,250385.21500001661,249852.904,249861.3100000657,249869.935,250402.849,,39,became
screen,html.Screen,1_1_1_1_40,2021-04-10T18:34:49.921Z,,,,,,,,,,,,,,,,54,,,,,,,,,,,,,,396.4909999104566,,response,,,,100,,,,,,,Space,keypress(Space),,,,,,,,-- --- ---- --- ------ ----- ------- ---- -- --- ------- --<br>------- ---------- ------ -- ----- -- ----- -- ---- ------<br>--- ----- --- --- ------ -------- ----- --- ------ ----- --<br>----- ----- ---------- --- --- ------ ------ wary -- ------<br>------- --- ------ ----- --- ---- ------- -- ---- --- --<br>------- ------,250801.27499997616,250799.33999991044,250386.192,250387.54000002518,250402.849,250835.922,,40,wary
screen,html.Screen,1_1_1_1_41,2021-04-10T18:34:50.371Z,,,,,,,,,,,,,,,,54,,,,,,,,,,,,,,413.69300009522703,,response,,,,100,,,,,,,Space,keypress(Space),,,,,,,,-- --- ---- --- ------ ----- ------- ---- -- --- ------- --<br>------- ---------- ------ -- ----- -- ----- -- ---- ------<br>--- ----- --- --- ------ -------- ----- --- ------ ----- --<br>----- ----- ---------- --- --- ------ ------ ---- of ------<br>------- --- ------ ----- --- ---- ------- -- ---- --- --<br>------- ------,251251.56000000425,251249.61500009522,250819.473,250801.66999995708,250835.922,251285.786,,41,of
screen,html.Screen,1_1_1_1_42,2021-04-10T18:34:50.841Z,,,,,,,,,,,,,,,,54,,,,,,,,,,,,,,433.7990000716818,,response,,,,100,,,,,,,Space,keypress(Space),,,,,,,,-- --- ---- --- ------ ----- ------- ---- -- --- ------- --<br>------- ---------- ------ -- ----- -- ----- -- ---- ------<br>--- ----- --- --- ------ -------- ----- --- ------ ----- --<br>----- ----- ---------- --- --- ------ ------ ---- -- French<br>------- --- ------ ----- --- ---- ------- -- ---- --- --<br>------- ------,251721.51500009932,251719.58500007167,251269.414,251251.95499998517,251285.786,251735.877,,42,French
screen,html.Screen,1_1_1_1_43,2021-04-10T18:34:51.306Z,,,,,,,,,,,,,,,,54,,,,,,,,,,,,,,448.86299993874854,,response,,,,100,,,,,,,Space,keypress(Space),,,,,,,,-- --- ---- --- ------ ----- ------- ---- -- --- ------- --<br>------- ---------- ------ -- ----- -- ----- -- ---- ------<br>--- ----- --- --- ------ -------- ----- --- ------ ----- --<br>----- ----- ---------- --- --- ------ ------ ---- -- ------<br>credit. --- ------ ----- --- ---- ------- -- ---- --- --<br>------- ------,252186.68500008062,252184.73999993876,251719.076,251721.91500011832,251735.877,252202.647,,43,credit.
screen,html.Screen,1_1_1_1_44,2021-04-10T18:34:51.747Z,,,,,,,,,,,,,,,,54,,,,,,,,,,,,,,422.4729999824194,,response,,,,100,,,,,,,Space,keypress(Space),,,,,,,,-- --- ---- --- ------ ----- ------- ---- -- --- ------- --<br>------- ---------- ------ -- ----- -- ----- -- ---- ------<br>--- ----- --- --- ------ -------- ----- --- ------ ----- --<br>----- ----- ---------- --- --- ------ ------ ---- -- ------<br>------- The ------ ----- --- ---- ------- -- ---- --- --<br>------- ------,252627.06500012428,252625.11999998242,252185.972,252187.08999990486,252202.647,252668.906,,44,The
screen,html.Screen,1_1_1_1_45,2021-04-10T18:34:52.182Z,,,,,,,,,,,,,,,,54,,,,,,,,,,,,,,391.1240000514954,,response,,,,100,,,,,,,Space,keypress(Space),,,,,,,,-- --- ---- --- ------ ----- ------- ---- -- --- ------- --<br>------- ---------- ------ -- ----- -- ----- -- ---- ------<br>--- ----- --- --- ------ -------- ----- --- ------ ----- --<br>----- ----- ---------- --- --- ------ ------ ---- -- ------<br>------- --- French ----- --- ---- ------- -- ---- --- --<br>------- ------,253061.9350001216,253060.03000005148,252619.178,252627.46499991044,252668.906,253068.889,,45,French
screen,html.Screen,1_1_1_1_46,2021-04-10T18:34:52.617Z,,,,,,,,,,,,,,,,54,,,,,,,,,,,,,,426.5209999740764,,response,,,,100,,,,,,,Space,keypress(Space),,,,,,,,-- --- ---- --- ------ ----- ------- ---- -- --- ------- --<br>------- ---------- ------ -- ----- -- ----- -- ---- ------<br>--- ----- --- --- ------ -------- ----- --- ------ ----- --<br>----- ----- ---------- --- --- ------ ------ ---- -- ------<br>------- --- ------ state --- ---- ------- -- ---- --- --<br>------- ------,253497.33499996364,253495.40999997407,253052.211,253062.32500006445,253068.889,253502.199,,46,state
screen,html.Screen,1_1_1_1_47,2021-04-10T18:34:53.028Z,,,,,,,,,,,,,,,,54,,,,,,,,,,,,,,403.4009999400296,,response,,,,100,,,,,,,Space,keypress(Space),,,,,,,,-- --- ---- --- ------ ----- ------- ---- -- --- ------- --<br>------- ---------- ------ -- ----- -- ----- -- ---- ------<br>--- ----- --- --- ------ -------- ----- --- ------ ----- --<br>----- ----- ---------- --- --- ------ ------ ---- -- ------<br>------- --- ------ ----- was ---- ------- -- ---- --- --<br>------- ------,253907.9549999442,253905.59999994002,253485.811,253497.72000010125,253502.199,253919.003,,47,was
screen,html.Screen,1_1_1_1_48,2021-04-10T18:34:53.473Z,,,,,,,,,,,,,,,,54,,,,,,,,,,,,,,432.7070000754029,,response,,,,100,,,,,,,Space,keypress(Space),,,,,,,,-- --- ---- --- ------ ----- ------- ---- -- --- ------- --<br>------- ---------- ------ -- ----- -- ----- -- ---- ------<br>--- ----- --- --- ------ -------- ----- --- ------ ----- --<br>----- ----- ---------- --- --- ------ ------ ---- -- ------<br>------- --- ------ ----- --- left ------- -- ---- --- --<br>------- ------,254353.63500006497,254351.7100000754,253902.212,253908.36500003934,253919.003,254368.83,,48,left
screen,html.Screen,1_1_1_1_49,2021-04-10T18:34:53.883Z,,,,,,,,,,,,,,,,54,,,,,,,,,,,,,,392.1200000253448,,response,,,,100,,,,,,,Space,keypress(Space),,,,,,,,-- --- ---- --- ------ ----- ------- ---- -- --- ------- --<br>------- ---------- ------ -- ----- -- ----- -- ---- ------<br>--- ----- --- --- ------ -------- ----- --- ------ ----- --<br>----- ----- ---------- --- --- ------ ------ ---- -- ------<br>------- --- ------ ----- --- ---- without -- ---- --- --<br>------- ------,254762.92499992996,254760.95000002533,254352.167,254354.0300000459,254368.83,254768.72,,49,without
screen,html.Screen,1_1_1_1_50,2021-04-10T18:34:54.298Z,,,,,,,,,,,,,,,,54,,,,,,,,,,,,,,407.39499992199126,,response,,,,100,,,,,,,Space,keypress(Space),,,,,,,,-- --- ---- --- ------ ----- ------- ---- -- --- ------- --<br>------- ---------- ------ -- ----- -- ----- -- ---- ------<br>--- ----- --- --- ------ -------- ----- --- ------ ----- --<br>----- ----- ---------- --- --- ------ ------ ---- -- ------<br>------- --- ------ ----- --- ---- ------- an ---- --- --<br>------- ------,255178.13999997452,255176.114999922,254752.299,254763.3199999109,254768.72,255185.367,,50,an
screen,html.Screen,1_1_1_1_51,2021-04-10T18:34:54.713Z,,,,,,,,,,,,,,,,54,,,,,,,,,,,,,,405.8780000178085,,response,,,,100,,,,,,,Space,keypress(Space),,,,,,,,-- --- ---- --- ------ ----- ------- ---- -- --- ------- --<br>------- ---------- ------ -- ----- -- ----- -- ---- ------<br>--- ----- --- --- ------ -------- ----- --- ------ ----- --<br>----- ----- ---------- --- --- ------ ------ ---- -- ------<br>------- --- ------ ----- --- ---- ------- -- easy --- --<br>------- ------,255593.1850001216,255591.2450000178,255168.887,255178.52500011213,255185.367,255601.905,,51,easy
screen,html.Screen,1_1_1_1_52,2021-04-10T18:34:55.138Z,,,,,,,,,,,,,,,,54,,,,,,,,,,,,,,414.49500008046743,,response,,,,100,,,,,,,Space,keypress(Space),,,,,,,,-- --- ---- --- ------ ----- ------- ---- -- --- ------- --<br>------- ---------- ------ -- ----- -- ----- -- ---- ------<br>--- ----- --- --- ------ -------- ----- --- ------ ----- --<br>----- ----- ---------- --- --- ------ ------ ---- -- ------<br>------- --- ------ ----- --- ---- ------- -- ---- way --<br>------- ------,256018.36999994703,256016.40000008047,255585.338,255593.57500006445,255601.905,256035.512,,52,way
screen,html.Screen,1_1_1_1_53,2021-04-10T18:34:55.539Z,,,,,,,,,,,,,,,,54,,,,,,,,,,,,,,382.00300009560306,,response,,,,100,,,,,,,Space,keypress(Space),,,,,,,,-- --- ---- --- ------ ----- ------- ---- -- --- ------- --<br>------- ---------- ------ -- ----- -- ----- -- ---- ------<br>--- ----- --- --- ------ -------- ----- --- ------ ----- --<br>----- ----- ---------- --- --- ------ ------ ---- -- ------<br>------- --- ------ ----- --- ---- ------- -- ---- --- of<br>------- ------,256419.44500012323,256417.5150000956,256018.828,256018.76499992795,256035.512,256435.433,,53,of
screen,html.Screen,1_1_1_1_54,2021-04-10T18:34:55.973Z,,,,,,,,,,,,,,,,54,,,,,,,,,,,,,,416.24700007980573,,response,,,,100,,,,,,,Space,keypress(Space),,,,,,,,-- --- ---- --- ------ ----- ------- ---- -- --- ------- --<br>------- ---------- ------ -- ----- -- ----- -- ---- ------<br>--- ----- --- --- ------ -------- ----- --- ------ ----- --<br>----- ----- ---------- --- --- ------ ------ ---- -- ------<br>------- --- ------ ----- --- ---- ------- -- ---- --- --<br>raising ------,256853.61000010744,256851.6800000798,256418.635,256419.8449999094,256435.433,256868.705,,54,raising
screen,html.Screen,1_1_1_1_55,2021-04-10T18:34:56.574Z,,,,,,,,,,,,,,,,54,,,,,,,,,,,,,,583.2400000953057,,response,,,,100,,,,,,,Space,keypress(Space),,,,,,,,-- --- ---- --- ------ ----- ------- ---- -- --- ------- --<br>------- ---------- ------ -- ----- -- ----- -- ---- ------<br>--- ----- --- --- ------ -------- ----- --- ------ ----- --<br>----- ----- ---------- --- --- ------ ------ ---- -- ------<br>------- --- ------ ----- --- ---- ------- -- ---- --- --<br>------- money.,257454.2449999135,257451.9450000953,256852.043,256854.00500008836,256868.705,257468.389,,55,money.
Item 100,flow.Loop,1_1_1_1,2021-04-10T18:34:56.575Z,,,,,,,,,,,,,,,,,,,,,,,,,,,,,,30312.99700009529,,completion,,,,,C,,,,,,,,,,,silence,,,,,257454.93000000715,257451.9450000953,227122.395,227124.18500008062,227138.948,257468.389,,,
Question 1,html.Screen,1_1_1_2,2021-04-10T18:34:59.313Z,,,,,,,,,,,,,,,,,,,,,,,,,,,true,TRUE,,2722.756000047986,,response,,,,100,C,,,,,,TRUE,click #choice-1,,,,silence,,,,,260193.71000002138,260191.14500004798,257451.749,257455.26499999687,257468.389,260201.38,,,
Question 2,html.Screen,1_1_1_3,2021-04-10T18:35:02.777Z,,,,,,,,,,,,,,,,,,,,,,,,,,,true,FALSE,,3453.064999992843,,response,,,,100,C,,,,,,FALSE,click #choice-2,,,,silence,,,,,263656.88999998383,263654.44499999285,260184.691,260194.11000004038,260201.38,263667.626,,,
Item 100,flow.Sequence,1_1_1,2021-04-10T18:35:02.777Z,,,,,,,,,,,,,,,,,,,,,,,,,,,,,,46514.42499999286,,completion,,,,,,,,,,,,,,,,,,,,,263657.5450000819,263654.44499999285,217123.612,217127.9649999924,217140.02,263667.626,,,
End of Practice,html.Page,1_1_2,2021-04-10T18:35:07.657Z,,,,,,,,,,,,,,,,,,,,,,,,,,,,,,4868.383999923419,,form submission,,,,,,,,,,,,,,,,,,,,,268537.5449999701,268536.0099999234,263651.101,263657.8649999574,263667.626,268567.226,,,
Practice,flow.Sequence,1_1,2021-04-10T18:35:07.658Z,,,,,,,,,,,,,,,,,,,,,,,,,,,,,,102439.39499992342,,completion,,,,,,,,,,,,,,,,,,,,,268538.18499995396,268536.0099999234,166079.859,166092.149999924,166096.615,268567.226,,,
Trap_instruction,html.Page,1_2_0,2021-04-10T18:35:14.327Z,,,,,,,,,,,,,,,,,,,,,,,,,,,,,,6638.453999897232,,form submission,,,,,,,,,,,,,,,,,,,,,275207.0150000509,275205.67999989726,268550.355,268538.64499996416,268567.226,275249.466,,,
trap_trial,html.Screen,1_2_1,2021-04-10T18:35:17.897Z,,,,,,,,,,,,,,,,,,,,,,,,,,,true,1,,3524.909000037238,,response,,,,,,,,,,,1,click #choice-1,,,,,,,,,278776.8850000575,278774.37500003725,275199.88,275207.3850000743,275249.466,278802.725,,,
end of trap trial,html.Page,1_2_2,2021-04-10T18:35:20.242Z,,,,,,,,,,,,,,,,,,,,,,,,,,,,,,2318.2700000047917,,form submission,,,,,,,,,,,,,,,,,,,,,281122.30499996804,281120.99500000477,278782.42,278777.3200001102,278802.725,281134.709,,,
Trap 1,flow.Sequence,1_2,2021-04-10T18:35:20.243Z,,,,,,,,,,,,,,,,,,,,,,,,,,,,,,12553.769000004744,,completion,,,,,,,,,,,,,,,,,,,,,281122.9300000705,281120.99500000477,268550.355,268538.5050000623,268567.226,281134.709,,,
Standby,html.Page,1_3_0,2021-04-10T18:35:28.236Z,,,,,,,,,,,,,,,,,,,,,,,,,,,,,,7996.402000000002,,timeout,,,,,,,,,,,,,,,,,,,,,289115.5850000214,289114.721,281115.593,281123.5549999401,281134.709,289131.111,,,
Holding screen,html.Screen,1_3_1_0_0,2021-04-10T18:35:35.235Z,,,,,,,,,,,,,,,,,,,,,,,,,,,,,,6999.343000000052,,timeout,,,,,,,,,,,,,,,,,,,,,296115.04999990575,296113.648,289114.721,289115.8149999101,289131.111,296130.454,,,
screen,html.Screen,1_3_1_0_1_0,2021-04-10T18:35:36.702Z,,,,,,,,,,,,,,,,11,,,,,,,,,,,,,,1447.9709999560146,,response,,,,4,C,,,,,,Space,keypress(Space),,,,instrumental,,,,Known -- ---- --- -- --- -------- ------------ ---------- --<br>- ------- ------ --------- -- ------------ -- --- ---- -----<br>------ ---- ---- ------ ------ ------- --- ----- ---------<br>---- --- -------- -------- --- --- -- ------- --- --- -----<br>-- --- ------ ------- --- --- -------- ---- --------- --<br>---------- -- -------- ----------------,297581.71500009485,297578.42499995604,296113.648,296115.6699999701,296130.454,297613.437,,0,Known
screen,html.Screen,1_3_1_0_1_1,2021-04-10T18:35:37.436Z,,,,,,,,,,,,,,,,11,,,,,,,,,,,,,,699.5280000483035,,response,,,,4,C,,,,,,Space,keypress(Space),,,,instrumental,,,,----- as ---- --- -- --- -------- ------------ ---------- --<br>- ------- ------ --------- -- ------------ -- --- ---- -----<br>------ ---- ---- ------ ------ ------- --- ----- ---------<br>---- --- -------- -------- --- --- -- ------- --- --- -----<br>-- --- ------ ------- --- --- -------- ---- --------- --<br>---------- -- -------- ----------------,298315.6149999704,298312.9650000483,297597.011,297582.15499995276,297613.437,298329.955,,1,as
screen,html.Screen,1_3_1_0_1_2,2021-04-10T18:35:38.119Z,,,,,,,,,,,,,,,,11,,,,,,,,,,,,,,668.1600000821636,,response,,,,4,C,,,,,,Space,keypress(Space),,,,instrumental,,,,----- -- Rapa --- -- --- -------- ------------ ---------- --<br>- ------- ------ --------- -- ------------ -- --- ---- -----<br>------ ---- ---- ------ ------ ------- --- ----- ---------<br>---- --- -------- -------- --- --- -- ------- --- --- -----<br>-- --- ------ ------- --- --- -------- ---- --------- --<br>---------- -- -------- ----------------,298999.3199999444,298998.1150000822,298313.353,298316.00999995135,298329.955,299013.22,,2,Rapa
screen,html.Screen,1_3_1_0_1_3,2021-04-10T18:35:38.731Z,,,,,,,,,,,,,,,,11,,,,,,,,,,,,,,595.3000000088941,,response,,,,4,C,,,,,,Space,keypress(Space),,,,instrumental,,,,----- -- ---- Nui -- --- -------- ------------ ---------- --<br>- ------- ------ --------- -- ------------ -- --- ---- -----<br>------ ---- ---- ------ ------ ------- --- ----- ---------<br>---- --- -------- -------- --- --- -- ------- --- --- -----<br>-- --- ------ ------- --- --- -------- ---- --------- --<br>---------- -- -------- ----------------,299610.769999912,299608.52000000887,298996.83,298999.45500004105,299013.22,299613.138,,3,Nui
screen,html.Screen,1_3_1_0_1_4,2021-04-10T18:35:39.311Z,,,,,,,,,,,,,,,,11,,,,,,,,,,,,,,575.8219999413122,,response,,,,4,C,,,,,,Space,keypress(Space),,,,instrumental,,,,----- -- ---- --- to --- -------- ------------ ---------- --<br>- ------- ------ --------- -- ------------ -- --- ---- -----<br>------ ---- ---- ------ ------ ------- --- ----- ---------<br>---- --- -------- -------- --- --- -- ------- --- --- -----<br>-- --- ------ ------- --- --- -------- ---- --------- --<br>---------- -- -------- ----------------,300191.18000008166,300188.9599999413,299596.725,299611.1749999691,299613.138,300196.415,,4,to
screen,html.Screen,1_3_1_0_1_5,2021-04-10T18:35:39.811Z,,,,,,,,,,,,,,,,11,,,,,,,,,,,,,,492.5199999837787,,response,,,,4,C,,,,,,Space,keypress(Space),,,,instrumental,,,,----- -- ---- --- -- the -------- ------------ ---------- --<br>- ------- ------ --------- -- ------------ -- --- ---- -----<br>------ ---- ---- ------ ------ ------- --- ----- ---------<br>---- --- -------- -------- --- --- -- ------- --- --- -----<br>-- --- ------ ------- --- --- -------- ---- --------- --<br>---------- -- -------- ----------------,300691.1550001241,300688.93499998376,300180.019,300191.56499998644,300196.415,300696.354,,5,the
screen,html.Screen,1_3_1_0_1_6,2021-04-10T18:35:40.371Z,,,,,,,,,,,,,,,,11,,,,,,,,,,,,,,552.7209999415209,,response,,,,4,C,,,,,,Space,keypress(Space),,,,instrumental,,,,----- -- ---- --- -- --- island's ------------ ---------- --<br>- ------- ------ --------- -- ------------ -- --- ---- -----<br>------ ---- ---- ------ ------ ------- --- ----- ---------<br>---- --- -------- -------- --- --- -- ------- --- --- -----<br>-- --- ------ ------- --- --- -------- ---- --------- --<br>---------- -- -------- ----------------,301251.3200000394,301249.0749999415,300680.342,300691.55000010505,300696.354,301262.915,,6,island's
screen,html.Screen,1_3_1_0_1_7,2021-04-10T18:35:40.886Z,,,,,,,,,,,,,,,,11,,,,,,,,,,,,,,501.33500000747154,,response,,,,4,C,,,,,,Space,keypress(Space),,,,instrumental,,,,"----- -- ---- --- -- --- -------- inhabitants, ---------- --<br>- ------- ------ --------- -- ------------ -- --- ---- -----<br>------ ---- ---- ------ ------ ------- --- ----- ---------<br>---- --- -------- -------- --- --- -- ------- --- --- -----<br>-- --- ------ ------- --- --- -------- ---- --------- --<br>---------- -- -------- ----------------",301766.025000019,301764.25000000745,301246.27,301251.7049999442,301262.915,301779.923,,7,"inhabitants,"
screen,html.Screen,1_3_1_0_1_8,2021-04-10T18:35:41.587Z,,,,,,,,,,,,,,,,11,,,,,,,,,,,,,,684.7519999374053,,response,,,,4,C,,,,,,Space,keypress(Space),,,,instrumental,,,,----- -- ---- --- -- --- -------- ------------ Rongorongo --<br>- ------- ------ --------- -- ------------ -- --- ---- -----<br>------ ---- ---- ------ ------ ------- --- ----- ---------<br>---- --- -------- -------- --- --- -- ------- --- --- -----<br>-- --- ------ ------- --- --- -------- ---- --------- --<br>---------- -- -------- ----------------,302466.4600000251,302464.6749999374,301763.162,301766.4099999238,301779.923,302479.475,,8,Rongorongo
screen,html.Screen,1_3_1_0_1_9,2021-04-10T18:35:42.118Z,,,,,,,,,,,,,,,,11,,,,,,,,,,,,,,515.6450000941986,,response,,,,4,C,,,,,,Space,keypress(Space),,,,instrumental,,,,----- -- ---- --- -- --- -------- ------------ ---------- is<br>- ------- ------ --------- -- ------------ -- --- ---- -----<br>------ ---- ---- ------ ------ ------- --- ----- ---------<br>---- --- -------- -------- --- --- -- ------- --- --- -----<br>-- --- ------ ------- --- --- -------- ---- --------- --<br>---------- -- -------- ----------------,302997.60999996215,302995.1200000942,302463.144,302466.84000012465,302479.475,303013.367,,9,is
screen,html.Screen,1_3_1_0_1_10,2021-04-10T18:35:42.607Z,,,,,,,,,,,,,,,,11,,,,,,,,,,,,,,471.64799998380477,,response,,,,4,C,,,,,,Space,keypress(Space),,,,instrumental,,,,----- -- ---- --- -- --- -------- ------------ ---------- --<br>a ------- ------ --------- -- ------------ -- --- ---- -----<br>------ ---- ---- ------ ------ ------- --- ----- ---------<br>---- --- -------- -------- --- --- -- ------- --- --- -----<br>-- --- ------ ------- --- --- -------- ---- --------- --<br>---------- -- -------- ----------------,303486.79500003345,303485.01499998383,302996.34,302998.0599998962,303013.367,303495.978,,10,a
screen,html.Screen,1_3_1_0_1_11,2021-04-10T18:35:43.117Z,,,,,,,,,,,,,,,,11,,,,,,,,,,,,,,499.25200000044424,,response,,,,4,C,,,,,,Space,keypress(Space),,,,instrumental,,,,----- -- ---- --- -- --- -------- ------------ ---------- --<br>- writing ------ --------- -- ------------ -- --- ---- -----<br>------ ---- ---- ------ ------ ------- --- ----- ---------<br>---- --- -------- -------- --- --- -- ------- --- --- -----<br>-- --- ------ ------- --- --- -------- ---- --------- --<br>---------- -- -------- ----------------,303996.98500009254,303995.23000000045,303479.622,303487.17499990016,303495.978,304012.877,,11,writing
screen,html.Screen,1_3_1_0_1_12,2021-04-10T18:35:43.637Z,,,,,,,,,,,,,,,,11,,,,,,,,,,,,,,502.562999988324,,response,,,,4,C,,,,,,Space,keypress(Space),,,,instrumental,,,,----- -- ---- --- -- --- -------- ------------ ---------- --<br>- ------- system --------- -- ------------ -- --- ---- -----<br>------ ---- ---- ------ ------ ------- --- ----- ---------<br>---- --- -------- -------- --- --- -- ------- --- --- -----<br>-- --- ------ ------- --- --- -------- ---- --------- --<br>---------- -- -------- ----------------,304517.20000011846,304515.4399999883,303996.668,303997.36499995925,304012.877,304529.32,,12,system
screen,html.Screen,1_3_1_0_1_13,2021-04-10T18:35:44.203Z,,,,,,,,,,,,,,,,11,,,,,,,,,,,,,,551.9900000377675,,response,,,,4,C,,,,,,Space,keypress(Space),,,,instrumental,,,,----- -- ---- --- -- --- -------- ------------ ---------- --<br>- ------- ------ comprised -- ------------ -- --- ---- -----<br>------ ---- ---- ------ ------ ------- --- ----- ---------<br>---- --- -------- -------- --- --- -- ------- --- --- -----<br>-- --- ------ ------- --- --- -------- ---- --------- --<br>---------- -- -------- ----------------,305083.2100000698,305081.3100000378,304512.796,304517.5799999852,304529.32,305095.734,,13,comprised
screen,html.Screen,1_3_1_0_1_14,2021-04-10T18:35:44.673Z,,,,,,,,,,,,,,,,11,,,,,,,,,,,,,,455.7859999790671,,response,,,,4,C,,,,,,Space,keypress(Space),,,,instrumental,,,,----- -- ---- --- -- --- -------- ------------ ---------- --<br>- ------- ------ --------- of ------------ -- --- ---- -----<br>------ ---- ---- ------ ------ ------- --- ----- ---------<br>---- --- -------- -------- --- --- -- ------- --- --- -----<br>-- --- ------ ------- --- --- -------- ---- --------- --<br>---------- -- -------- ----------------,305553.2949999906,305551.51999997906,305079.417,305083.6199999321,305095.734,305562.396,,14,of
screen,html.Screen,1_3_1_0_1_15,2021-04-10T18:35:45.748Z,,,,,,,,,,,,,,,,11,,,,,,,,,,,,,,1063.5489999779384,,response,,,,4,C,,,,,,Space,keypress(Space),,,,instrumental,,,,----- -- ---- --- -- --- -------- ------------ ---------- --<br>- ------- ------ --------- -- pictographs. -- --- ---- -----<br>------ ---- ---- ------ ------ ------- --- ----- ---------<br>---- --- -------- -------- --- --- -- ------- --- --- -----<br>-- --- ------ ------- --- --- -------- ---- --------- --<br>---------- -- -------- ----------------,306627.98999994993,306625.94499997795,305546.085,305553.6700000521,305562.396,306645.88,,15,pictographs.
screen,html.Screen,1_3_1_0_1_16,2021-04-10T18:35:46.279Z,,,,,,,,,,,,,,,,11,,,,,,,,,,,,,,510.6850000702543,,response,,,,4,C,,,,,,Space,keypress(Space),,,,instrumental,,,,----- -- ---- --- -- --- -------- ------------ ---------- --<br>- ------- ------ --------- -- ------------ It --- ---- -----<br>------ ---- ---- ------ ------ ------- --- ----- ---------<br>---- --- -------- -------- --- --- -- ------- --- --- -----<br>-- --- ------ ------- --- --- -------- ---- --------- --<br>---------- -- -------- ----------------,307158.6899999529,307156.56500007026,306629.205,306628.3800001256,306645.88,307162.211,,16,It
screen,html.Screen,1_3_1_0_1_17,2021-04-10T18:35:46.755Z,,,,,,,,,,,,,,,,11,,,,,,,,,,,,,,470.39899997145403,,response,,,,4,C,,,,,,Space,keypress(Space),,,,instrumental,,,,----- -- ---- --- -- --- -------- ------------ ---------- --<br>- ------- ------ --------- -- ------------ -- has ---- -----<br>------ ---- ---- ------ ------ ------- --- ----- ---------<br>---- --- -------- -------- --- --- -- ------- --- --- -----<br>-- --- ------ ------- --- --- -------- ---- --------- --<br>---------- -- -------- ----------------,307634.58999991417,307632.60999997146,307145.74,307159.244999988,307162.211,307645.512,,17,has
screen,html.Screen,1_3_1_0_1_18,2021-04-10T18:35:47.224Z,,,,,,,,,,,,,,,,11,,,,,,,,,,,,,,456.06299997877795,,response,,,,4,C,,,,,,Space,keypress(Space),,,,instrumental,,,,----- -- ---- --- -- --- -------- ------------ ---------- --<br>- ------- ------ --------- -- ------------ -- --- been -----<br>------ ---- ---- ------ ------ ------- --- ----- ---------<br>---- --- -------- -------- --- --- -- ------- --- --- -----<br>-- --- ------ ------- --- --- -------- ---- --------- --<br>---------- -- -------- ----------------,308103.54500007816,308101.57499997877,307629.105,307634.98000008985,307645.512,308112.076,,18,been
screen,html.Screen,1_3_1_0_1_19,2021-04-10T18:35:47.686Z,,,,,,,,,,,,,,,,11,,,,,,,,,,,,,,451.7140000438085,,response,,,,4,C,,,,,,Space,keypress(Space),,,,instrumental,,,,----- -- ---- --- -- --- -------- ------------ ---------- --<br>- ------- ------ --------- -- ------------ -- --- ---- found<br>------ ---- ---- ------ ------ ------- --- ----- ---------<br>---- --- -------- -------- --- --- -- ------- --- --- -----<br>-- --- ------ ------- --- --- -------- ---- --------- --<br>---------- -- -------- ----------------,308565.7550001051,308563.7900000438,308096.273,308103.92999998294,308112.076,308578.763,,19,found
screen,html.Screen,1_3_1_0_1_20,2021-04-10T18:35:48.170Z,,,,,,,,,,,,,,,,11,,,,,,,,,,,,,,468.5969999677618,,response,,,,4,C,,,,,,Space,keypress(Space),,,,instrumental,,,,----- -- ---- --- -- --- -------- ------------ ---------- --<br>- ------- ------ --------- -- ------------ -- --- ---- -----<br>carved ---- ---- ------ ------ ------- --- ----- ---------<br>---- --- -------- -------- --- --- -- ------- --- --- -----<br>-- --- ------ ------- --- --- -------- ---- --------- --<br>---------- -- -------- ----------------,309049.619999947,309047.35999996774,308562.323,308566.15000008605,308578.763,309062.085,,20,carved
screen,html.Screen,1_3_1_0_1_21,2021-04-10T18:35:48.625Z,,,,,,,,,,,,,,,,11,,,,,,,,,,,,,,440.48500001145294,,response,,,,4,C,,,,,,Space,keypress(Space),,,,instrumental,,,,----- -- ---- --- -- --- -------- ------------ ---------- --<br>- ------- ------ --------- -- ------------ -- --- ---- -----<br>------ into ---- ------ ------ ------- --- ----- ---------<br>---- --- -------- -------- --- --- -- ------- --- --- -----<br>-- --- ------ ------- --- --- -------- ---- --------- --<br>---------- -- -------- ----------------,309504.4750000816,309502.5700000115,309045.593,309050.01499992795,309062.085,309511.962,,21,into
screen,html.Screen,1_3_1_0_1_22,2021-04-10T18:35:49.070Z,,,,,,,,,,,,,,,,11,,,,,,,,,,,,,,435.73799990239786,,response,,,,4,C,,,,,,Space,keypress(Space),,,,instrumental,,,,----- -- ---- --- -- --- -------- ------------ ---------- --<br>- ------- ------ --------- -- ------------ -- --- ---- -----<br>------ ---- many ------ ------ ------- --- ----- ---------<br>---- --- -------- -------- --- --- -- ------- --- --- -----<br>-- --- ------ ------- --- --- -------- ---- --------- --<br>---------- -- -------- ----------------,309950.01500006765,309947.6999999024,309495.541,309504.8799999058,309511.962,309961.98,,22,many
screen,html.Screen,1_3_1_0_1_23,2021-04-10T18:35:49.695Z,,,,,,,,,,,,,,,,11,,,,,,,,,,,,,,611.1549999550916,,response,,,,4,C,,,,,,Space,keypress(Space),,,,instrumental,,,,----- -- ---- --- -- --- -------- ------------ ---------- --<br>- ------- ------ --------- -- ------------ -- --- ---- -----<br>------ ---- ---- oblong ------ ------- --- ----- ---------<br>---- --- -------- -------- --- --- -- ------- --- --- -----<br>-- --- ------ ------- --- --- -------- ---- --------- --<br>---------- -- -------- ----------------,310575.10500005446,310573.1349999551,309945.565,309950.4200001247,309961.98,310578.435,,23,oblong
screen,html.Screen,1_3_1_0_1_24,2021-04-10T18:35:50.186Z,,,,,,,,,,,,,,,,11,,,,,,,,,,,,,,485.595000008645,,response,,,,4,C,,,,,,Space,keypress(Space),,,,instrumental,,,,----- -- ---- --- -- --- -------- ------------ ---------- --<br>- ------- ------ --------- -- ------------ -- --- ---- -----<br>------ ---- ---- ------ wooden ------- --- ----- ---------<br>---- --- -------- -------- --- --- -- ------- --- --- -----<br>-- --- ------ ------- --- --- -------- ---- --------- --<br>---------- -- -------- ----------------,311065.9749999177,311064.03000000864,310562.037,310575.50500007346,310578.435,311078.403,,24,wooden
screen,html.Screen,1_3_1_0_1_25,2021-04-10T18:35:50.695Z,,,,,,,,,,,,,,,,11,,,,,,,,,,,,,,494.89700004732003,,response,,,,4,C,,,,,,Space,keypress(Space),,,,instrumental,,,,----- -- ---- --- -- --- -------- ------------ ---------- --<br>- ------- ------ --------- -- ------------ -- --- ---- -----<br>------ ---- ---- ------ ------ tablets --- ----- ---------<br>---- --- -------- -------- --- --- -- ------- --- --- -----<br>-- --- ------ ------- --- --- -------- ---- --------- --<br>---------- -- -------- ----------------,311575.26000007056,311573.3000000473,311061.815,311066.3699998986,311078.403,311578.328,,25,tablets
screen,html.Screen,1_3_1_0_1_26,2021-04-10T18:35:51.166Z,,,,,,,,,,,,,,,,11,,,,,,,,,,,,,,465.17699995054863,,response,,,,4,C,,,,,,Space,keypress(Space),,,,instrumental,,,,----- -- ---- --- -- --- -------- ------------ ---------- --<br>- ------- ------ --------- -- ------------ -- --- ---- -----<br>------ ---- ---- ------ ------ ------- and ----- ---------<br>---- --- -------- -------- --- --- -- ------- --- --- -----<br>-- --- ------ ------- --- --- -------- ---- --------- --<br>---------- -- -------- ----------------,312045.62500002794,312043.5049999505,311562.06,311575.64499997534,311578.328,312061.901,,26,and
screen,html.Screen,1_3_1_0_1_27,2021-04-10T18:35:51.746Z,,,,,,,,,,,,,,,,11,,,,,,,,,,,,,,561.8790000235313,,response,,,,4,C,,,,,,Space,keypress(Space),,,,instrumental,,,,----- -- ---- --- -- --- -------- ------------ ---------- --<br>- ------- ------ --------- -- ------------ -- --- ---- -----<br>------ ---- ---- ------ ------ ------- --- other ---------<br>---- --- -------- -------- --- --- -- ------- --- --- -----<br>-- --- ------ ------- --- --- -------- ---- --------- --<br>---------- -- -------- ----------------,312625.78000011854,312623.78000002354,312045.222,312046.02500004694,312061.901,312628.19,,27,other
screen,html.Screen,1_3_1_0_1_28,2021-04-10T18:35:52.482Z,,,,,,,,,,,,,,,,11,,,,,,,,,,,,,,731.1149999326444,,response,,,,4,C,,,,,,Space,keypress(Space),,,,instrumental,,,,----- -- ---- --- -- --- -------- ------------ ---------- --<br>- ------- ------ --------- -- ------------ -- --- ---- -----<br>------ ---- ---- ------ ------ ------- --- ----- artifacts<br>---- --- -------- -------- --- --- -- ------- --- --- -----<br>-- --- ------ ------- --- --- -------- ---- --------- --<br>---------- -- -------- ----------------,313361.7599999998,313359.30499993265,312611.824,312626.1799999047,312628.19,313378.679,,28,artifacts
screen,html.Screen,1_3_1_0_1_29,2021-04-10T18:35:53.012Z,,,,,,,,,,,,,,,,11,,,,,,,,,,,,,,510.6160001172684,,response,,,,4,C,,,,,,Space,keypress(Space),,,,instrumental,,,,----- -- ---- --- -- --- -------- ------------ ---------- --<br>- ------- ------ --------- -- ------------ -- --- ---- -----<br>------ ---- ---- ------ ------ ------- --- ----- ---------<br>from --- -------- -------- --- --- -- ------- --- --- -----<br>-- --- ------ ------- --- --- -------- ---- --------- --<br>---------- -- -------- ----------------,313891.7000000365,313889.2950001173,313361.38,313362.16500005685,313378.679,313894.71,,29,from
screen,html.Screen,1_3_1_0_1_30,2021-04-10T18:35:53.489Z,,,,,,,,,,,,,,,,11,,,,,,,,,,,,,,472.41000006807735,,response,,,,4,C,,,,,,Space,keypress(Space),,,,instrumental,,,,----- -- ---- --- -- --- -------- ------------ ---------- --<br>- ------- ------ --------- -- ------------ -- --- ---- -----<br>------ ---- ---- ------ ------ ------- --- ----- ---------<br>---- the -------- -------- --- --- -- ------- --- --- -----<br>-- --- ------ ------- --- --- -------- ---- --------- --<br>---------- -- -------- ----------------,314369.12499996834,314367.1200000681,313878.304,313892.1000000555,313894.71,314377.968,,30,the
screen,html.Screen,1_3_1_0_1_31,2021-04-10T18:35:54.012Z,,,,,,,,,,,,,,,,11,,,,,,,,,,,,,,511.61199995910283,,response,,,,4,C,,,,,,Space,keypress(Space),,,,instrumental,,,,----- -- ---- --- -- --- -------- ------------ ---------- --<br>- ------- ------ --------- -- ------------ -- --- ---- -----<br>------ ---- ---- ------ ------ ------- --- ----- ---------<br>---- --- island's -------- --- --- -- ------- --- --- -----<br>-- --- ------ ------- --- --- -------- ---- --------- --<br>---------- -- -------- ----------------,314891.69499999844,314889.5799999591,314361.607,314369.5300000254,314377.968,314894.568,,31,island's
screen,html.Screen,1_3_1_0_1_32,2021-04-10T18:35:54.488Z,,,,,,,,,,,,,,,,11,,,,,,,,,,,,,,472.5270001105382,,response,,,,4,C,,,,,,Space,keypress(Space),,,,instrumental,,,,----- -- ---- --- -- --- -------- ------------ ---------- --<br>- ------- ------ --------- -- ------------ -- --- ---- -----<br>------ ---- ---- ------ ------ ------- --- ----- ---------<br>---- --- -------- history. --- --- -- ------- --- --- -----<br>-- --- ------ ------- --- --- -------- ---- --------- --<br>---------- -- -------- ----------------,315367.97500005923,315367.09500011057,314877.987,314892.08999997936,314894.568,315378.126,,32,history.
screen,html.Screen,1_3_1_0_1_33,2021-04-10T18:35:54.957Z,,,,,,,,,,,,,,,,11,,,,,,,,,,,,,,456.8890000769752,,response,,,,4,C,,,,,,Space,keypress(Space),,,,instrumental,,,,----- -- ---- --- -- --- -------- ------------ ---------- --<br>- ------- ------ --------- -- ------------ -- --- ---- -----<br>------ ---- ---- ------ ------ ------- --- ----- ---------<br>---- --- -------- -------- The --- -- ------- --- --- -----<br>-- --- ------ ------- --- --- -------- ---- --------- --<br>---------- -- -------- ----------------,315836.97999990545,315835.01500007696,315361.491,315368.1149999611,315378.126,315844.448,,33,The
screen,html.Screen,1_3_1_0_1_34,2021-04-10T18:35:55.459Z,,,,,,,,,,,,,,,,11,,,,,,,,,,,,,,492.15200003876816,,response,,,,4,C,,,,,,Space,keypress(Space),,,,instrumental,,,,----- -- ---- --- -- --- -------- ------------ ---------- --<br>- ------- ------ --------- -- ------------ -- --- ---- -----<br>------ ---- ---- ------ ------ ------- --- ----- ---------<br>---- --- -------- -------- --- art -- ------- --- --- -----<br>-- --- ------ ------- --- --- -------- ---- --------- --<br>---------- -- -------- ----------------,316338.63999997266,316336.60000003874,315827.905,315837.37000008114,315844.448,316344.415,,34,art
screen,html.Screen,1_3_1_0_1_35,2021-04-10T18:35:55.908Z,,,,,,,,,,,,,,,,11,,,,,,,,,,,,,,441.0650000786991,,response,,,,4,C,,,,,,Space,keypress(Space),,,,instrumental,,,,----- -- ---- --- -- --- -------- ------------ ---------- --<br>- ------- ------ --------- -- ------------ -- --- ---- -----<br>------ ---- ---- ------ ------ ------- --- ----- ---------<br>---- --- -------- -------- --- --- of ------- --- --- -----<br>-- --- ------ ------- --- --- -------- ---- --------- --<br>---------- -- -------- ----------------,316787.47499990277,316785.4800000787,316327.814,316339.1499998979,316344.415,316794.366,,35,of
screen,html.Screen,1_3_1_0_1_36,2021-04-10T18:35:56.408Z,,,,,,,,,,,,,,,,11,,,,,,,,,,,,,,491.29900009039557,,response,,,,4,C,,,,,,Space,keypress(Space),,,,instrumental,,,,----- -- ---- --- -- --- -------- ------------ ---------- --<br>- ------- ------ --------- -- ------------ -- --- ---- -----<br>------ ---- ---- ------ ------ ------- --- ----- ---------<br>---- --- -------- -------- --- --- -- writing --- --- -----<br>-- --- ------ ------- --- --- -------- ---- --------- --<br>---------- -- -------- ----------------,317287.6150000375,317285.6650000904,316778.013,316787.87499992177,316794.366,317294.314,,36,writing
screen,html.Screen,1_3_1_0_1_37,2021-04-10T18:35:56.864Z,,,,,,,,,,,,,,,,11,,,,,,,,,,,,,,447.37100001540966,,response,,,,4,C,,,,,,Space,keypress(Space),,,,instrumental,,,,----- -- ---- --- -- --- -------- ------------ ---------- --<br>- ------- ------ --------- -- ------------ -- --- ---- -----<br>------ ---- ---- ------ ------ ------- --- ----- ---------<br>---- --- -------- -------- --- --- -- ------- was --- -----<br>-- --- ------ ------- --- --- -------- ---- --------- --<br>---------- -- -------- ----------------,317743.6349999625,317741.6850000154,317277.929,317288.0100000184,317294.314,317760.965,,37,was
