sender,sender_type,sender_id,timestamp,meta,,Blues,Classical,Country,Dance,Electronic,Folk,Gospel,Hip-Hop,Jazz,Latin,Musical/Film,New-age,Pop,Provo_ID,R&B,Rap,Reggae,Religious,Rock,Soul,Swing,Traditional,age,artist_name,correct,correctResponse,distraction,duration,education,ended_on,familiarity,gender,headphone_check_performance,item,list,music_frequency,offensiveness,pleasantness,position_correct,preference,response,response_action,snippet_file,song_name,song_rating,sound,stimulus_1,stimulus_2,stimulus_3,text,time_commit,time_end,time_render,time_run,time_show,time_switch,url,word,word_ID
Introduction,html.Screen,0_0,2021-04-22T12:33:04.226Z,"{""labjs_version"":""20.2.2"",""labjs_build"":{""flavor"":""production"",""commit"":""a25486e0c714a0ae2ce03ff94b7bb6896854dcfa""},""location"":""https://run.pavlovia.org/mvasilev/music_f/"",""userAgent"":""Mozilla/5.0 (Macintosh; Intel Mac OS X 11_2_3) AppleWebKit/537.36 (KHTML, like Gecko) Chrome/89.0.4389.128 Safari/537.36"",""platform"":""MacIntel"",""language"":""en-US"",""locale"":""en-GB"",""timeZone"":""Europe/London"",""timezoneOffset"":-60,""screen_width"":1440,""screen_height"":900,""scroll_width"":1380,""scroll_height"":678,""window_innerWidth"":1380,""window_innerHeight"":726,""devicePixelRatio"":1}",,,,,,,,,,,,,,,,,,,,,,,,,,,,,10067.541999980665,,response,,,,,,,,,,,continue,click button,,,,,,,,,23263.904999999795,23260.989999980666,13143.315,13136.079999996582,13193.448,23287.303,{},,
Volume calibration,html.Screen,0_1,2021-04-22T12:33:24.135Z,,,,,,,,,,,,,,,,,,,,,,,,,,,,,,19876.701999998724,,response,,,,,,,,,,,continue,click button,,,,,,,,,43172.454999992624,43164.004999998724,23253.881,23264.254999987315,23287.303,43173.695,,,
Task instructions,html.Screen,0_2,2021-04-22T12:33:40.624Z,,,,,,,,,,,,,,,,,,,,,,,,,,,,,,16484.0299999973,,response,,,,,,,,,,,continue,click button,,,,,,,,,59660.58499997598,59657.7249999973,43156.984,43173.01499997848,43173.695,59667.676,,,
Sounds,html.Screen,0_3_0_0,2021-04-22T12:33:44.867Z,,,,,,,,,,,,,,,,,,,,,,,,,,,,,,4244.834000000003,,timeout,,,,,,,,,1,,,,,,,,S,I,O,,63903.54999998817,63895.799,59650.965,59661.009999981616,59667.676,63912.51,,,
Judgement,html.Screen,0_3_0_1,2021-04-22T12:33:46.058Z,,,,,,,,,,,,,,,,,,,,,,,,,,,true,1,,1178.4849999768267,,response,,,,,,,,,1,,1,click #choice-1,,,,,S,I,O,,65094.76999999606,65090.99499997683,63895.799,63903.939999989234,63912.51,65098.991,,,
Trial,flow.Sequence,0_3_0,2021-04-22T12:33:46.059Z,,,,,,,,,,,,,,,,,,,,,,,,,,,,,,5423.318999976829,,completion,,,,,,,,,1,,,,,,,,S,I,O,,65095.37999998429,65090.99499997683,59650.965,59660.904999997,59667.676,65098.991,,,
Sounds,html.Screen,0_3_1_0,2021-04-22T12:33:50.293Z,,,,,,,,,,,,,,,,,,,,,,,,,,,,,,4244.594000000005,,timeout,,,,,,,,,3,,,,,,,,I,O,S,,69329.1549999849,69326.874,65082.28,65095.665000000736,65098.991,69343.585,,,
Judgement,html.Screen,0_3_1_1,2021-04-22T12:33:50.916Z,,,,,,,,,,,,,,,,,,,,,,,,,,,true,3,,605.7849999875325,,response,,,,,,,,,3,,3,click #choice-3,,,,,I,O,S,,69952.87499998813,69949.36999998754,69326.874,69329.36499998323,69343.585,69962.076,,,
Trial,flow.Sequence,0_3_1,2021-04-22T12:33:50.917Z,,,,,,,,,,,,,,,,,,,,,,,,,,,,,,4850.378999987537,,completion,,,,,,,,,3,,,,,,,,I,O,S,,69953.22999998461,69949.36999998754,65082.28,65095.57499998482,65098.991,69962.076,,,
Sounds,html.Screen,0_3_2_0,2021-04-22T12:33:55.157Z,,,,,,,,,,,,,,,,,,,,,,,,,,,,,,4244.593999999997,,timeout,,,,,,,,,2,,,,,,,,I,S,O,,74193.04499999271,74189.959,69945.365,69953.49499999429,69962.076,74206.67,,,
Judgement,html.Screen,0_3_2_1,2021-04-22T12:33:55.973Z,,,,,,,,,,,,,,,,,,,,,,,,,,,true,2,,798.6149999920017,,response,,,,,,,,,2,,2,click #choice-2,,,,,I,S,O,,75009.07499997993,75005.284999992,74189.959,74193.23999999324,74206.67,75025.509,,,
Trial,flow.Sequence,0_3_2,2021-04-22T12:33:55.973Z,,,,,,,,,,,,,,,,,,,,,,,,,,,,,,5043.208999991999,,completion,,,,,,,,,2,,,,,,,,I,S,O,,75009.41499997862,75005.284999992,69945.365,69953.41499999631,69962.076,75025.509,,,
Sounds,html.Screen,0_3_3_0,2021-04-22T12:34:00.219Z,,,,,,,,,,,,,,,,,,,,,,,,,,,,,,4244.593999999997,,timeout,,,,,,,,,3,,,,,,,,O,I,S,,79255.70999999763,79253.392,75008.798,75009.66999999946,75025.509,79270.103,,,
Judgement,html.Screen,0_3_3_1,2021-04-22T12:34:00.787Z,,,,,,,,,,,,,,,,,,,,,,,,,,,true,3,,549.3619999786606,,response,,,,,,,,,3,,3,click #choice-3,,,,,O,I,S,,79823.00000000396,79819.46499997866,79253.392,79255.8849999914,79270.103,79838.277,,,
Trial,flow.Sequence,0_3_3,2021-04-22T12:34:00.787Z,,,,,,,,,,,,,,,,,,,,,,,,,,,,,,4793.955999978658,,completion,,,,,,,,,3,,,,,,,,O,I,S,,79823.32499997574,79819.46499997866,75008.798,75009.57500000368,75025.509,79838.277,,,
Sounds,html.Screen,0_3_4_0,2021-04-22T12:34:05.032Z,,,,,,,,,,,,,,,,,,,,,,,,,,,,,,4244.785999999993,,timeout,,,,,,,,,2,,,,,,,,O,S,I,,84068.27499999781,84066.352,79821.566,79823.52499998524,79838.277,84083.063,,,
Judgement,html.Screen,0_3_4_1,2021-04-22T12:34:05.779Z,,,,,,,,,,,,,,,,,,,,,,,,,,,true,2,,728.6920000024547,,response,,,,,,,,,2,,2,click #choice-2,,,,,O,S,I,,84815.21499998053,84811.75500000245,84066.352,84068.4749999782,84083.063,84818.347,,,
Trial,flow.Sequence,0_3_4,2021-04-22T12:34:05.779Z,,,,,,,,,,,,,,,,,,,,,,,,,,,,,,4973.4780000024475,,completion,,,,,,,,,2,,,,,,,,O,S,I,,84815.52999999258,84811.75500000245,79821.566,79823.470000003,79838.277,84818.347,,,
Sounds,html.Screen,0_3_5_0,2021-04-22T12:34:10.012Z,,,,,,,,,,,,,,,,,,,,,,,,,,,,,,4244.594000000012,,timeout,,,,,,,,,1,,,,,,,,S,O,I,,89048.27499997918,89046.23,84801.636,84815.73000000208,84818.347,89062.941,,,
Judgement,html.Screen,0_3_5_1,2021-04-22T12:34:11.101Z,,,,,,,,,,,,,,,,,,,,,,,,,,,true,1,,1070.0590000016236,,response,,,,,,,,,1,,1,click #choice-1,,,,,S,O,I,,90136.60999998683,90133.00000000163,89046.23,89048.45999999088,89062.941,90149.229,,,
Trial,flow.Sequence,0_3_5,2021-04-22T12:34:11.101Z,,,,,,,,,,,,,,,,,,,,,,,,,,,,,,5314.6530000016355,,completion,,,,,,,,,1,,,,,,,,S,O,I,,90136.92999997875,90133.00000000163,84801.636,84815.6650000019,84818.347,90149.229,,,
Task,flow.Loop,0_3,2021-04-22T12:34:11.115Z,,,,,,,,,,,,,,,,,,,,,,,,,,,,,,30465.32400000163,,completion,,,1,,,,,,,,,,,,,,,,,,90151.25999998418,90133.00000000163,59650.965,59660.81000000122,59667.676,90149.229,,,
Trap,html.Screen,0_4,2021-04-22T12:34:11.118Z,,,,,,,,,,,,,,,,,,,,,,,,,,,,,,NaN,,skipped,,,,,,,,,,,,,,,,,,,,,90153.52500000154,90133.00000000163,,90153.27999999863,,90149.229,,,
Thanks,html.Screen,0_5,2021-04-22T12:34:14.730Z,,,,,,,,,,,,,,,,,,,,,,,,,,,,,,3612.835999988063,,response,,,,,,,,,,,continue,click button,,,,,,,,,93765.54500000202,93762.06499998807,90132.518,90154.00999999838,90149.229,97301.537,,,
Headphone screening,flow.Sequence,0,2021-04-22T12:34:14.730Z,,,,,,,,,,,,,,,,,,,,,,,,,,,,,,80568.61699998807,,completion,,,,,,,,,,,,,,,,,,,,,93765.8399999782,93762.06499998807,13143.315,13136.029999994207,13193.448,97301.537,,,
Instructions,html.Page,1_0,2021-04-22T12:34:45.670Z,,,,,,,,,,,,,,,,,,,,,,,,,,,,,,27403.45799997823,,form submission,,,,,,,,,,,,,,,,,,,,,124705.2899999835,124704.99499997823,97217.982,97287.57499999483,97301.537,124725.023,,,
Holding screen,html.Screen,1_1_0_0,2021-04-22T12:34:55.669Z,,,,,,,,,,,,,,,,,,,,,,,,,,,,,,10110.155000000013,,timeout,,,,,,,,,,,,,,,,,,,,,134704.0149999957,134701.49,124674.89,124705.6599999778,124725.023,134835.178,,,
screen,html.Screen,1_1_0_1_0,2021-04-22T12:34:57.021Z,,,,,,,,,,,,,,,,53,,,,,,,,,,,,,,1206.856999991287,,response,,,,99,,,,,,,Space,keypress(Space),,,,,,,,When -- ----- -- ------ - ------- --- ----------<br>------------- ------ ------ ---- ---- ------- ----- -- ----<br>-------- ------- -- ---------- --- - --- ----- ----- ----<br>---- --- --- ----- --- ---- ---- ------- ----- ---- -------<br>--- --- -- ----- -- --- ---- -- --- ---- -- ------ ------<br>--- ----- -- ----,136055.9399999911,136042.0349999913,134701.49,134704.44000000134,134835.178,136071.792,,0,When
screen,html.Screen,1_1_0_1_1,2021-04-22T12:34:57.535Z,,,,,,,,,,,,,,,,53,,,,,,,,,,,,,,492.8979999992589,,response,,,,99,,,,,,,Space,keypress(Space),,,,,,,,---- it ----- -- ------ - ------- --- ----------<br>------------- ------ ------ ---- ---- ------- ----- -- ----<br>-------- ------- -- ---------- --- - --- ----- ----- ----<br>---- --- --- ----- --- ---- ---- ------- ----- ---- -------<br>--- --- -- ----- -- --- ---- -- --- ---- -- ------ ------<br>--- ----- -- ----,136570.31499998993,136564.68999999925,136055.081,136056.17499997607,136071.792,136573.311,,1,it
screen,html.Screen,1_1_0_1_2,2021-04-22T12:34:58.094Z,,,,,,,,,,,,,,,,53,,,,,,,,,,,,,,549.3489999936428,,response,,,,99,,,,,,,Space,keypress(Space),,,,,,,,---- -- comes -- ------ - ------- --- ----------<br>------------- ------ ------ ---- ---- ------- ----- -- ----<br>-------- ------- -- ---------- --- - --- ----- ----- ----<br>---- --- --- ----- --- ---- ---- ------- ----- ---- -------<br>--- --- -- ----- -- --- ---- -- --- ---- -- ------ ------<br>--- ----- -- ----,137128.64999999874,137122.65999999363,136556.6,136570.52499998827,136573.311,137141.485,,2,comes
screen,html.Screen,1_1_0_1_3,2021-04-22T12:34:58.565Z,,,,,,,,,,,,,,,,53,,,,,,,,,,,,,,453.1049999933457,,response,,,,99,,,,,,,Space,keypress(Space),,,,,,,,---- -- ----- to ------ - ------- --- ----------<br>------------- ------ ------ ---- ---- ------- ----- -- ----<br>-------- ------- -- ---------- --- - --- ----- ----- ----<br>---- --- --- ----- --- ---- ---- ------- ----- ---- -------<br>--- --- -- ----- -- --- ---- -- --- ---- -- ------ ------<br>--- ----- -- ----,137600.24499997962,137594.58999999333,137124.774,137128.89500000165,137141.485,137609.393,,3,to
screen,html.Screen,1_1_0_1_4,2021-04-22T12:34:59.071Z,,,,,,,,,,,,,,,,53,,,,,,,,,,,,,,490.2320000025502,,response,,,,99,,,,,,,Space,keypress(Space),,,,,,,,---- -- ----- -- having - ------- --- ----------<br>------------- ------ ------ ---- ---- ------- ----- -- ----<br>-------- ------- -- ---------- --- - --- ----- ----- ----<br>---- --- --- ----- --- ---- ---- ------- ----- ---- -------<br>--- --- -- ----- -- --- ---- -- --- ---- -- ------ ------<br>--- ----- -- ----,138105.34499998903,138099.62500000256,137592.682,137600.47499998473,137609.393,138127.434,,4,having
screen,html.Screen,1_1_0_1_5,2021-04-22T12:34:59.512Z,,,,,,,,,,,,,,,,53,,,,,,,,,,,,,,413.17099998740014,,response,,,,99,,,,,,,Space,keypress(Space),,,,,,,,---- -- ----- -- ------ a ------- --- ----------<br>------------- ------ ------ ---- ---- ------- ----- -- ----<br>-------- ------- -- ---------- --- - --- ----- ----- ----<br>---- --- --- ----- --- ---- ---- ------- ----- ---- -------<br>--- --- -- ----- -- --- ---- -- --- ---- -- ------ ------<br>--- ----- -- ----,138546.99000000255,138540.6049999874,138110.723,138113.06499998318,138127.434,138561.92,,5,a
screen,html.Screen,1_1_0_1_6,2021-04-22T12:34:59.999Z,,,,,,,,,,,,,,,,53,,,,,,,,,,,,,,465.6299999988696,,response,,,,99,,,,,,,Space,keypress(Space),,,,,,,,---- -- ----- -- ------ - lasting --- ----------<br>------------- ------ ------ ---- ---- ------- ----- -- ----<br>-------- ------- -- ---------- --- - --- ----- ----- ----<br>---- --- --- ----- --- ---- ---- ------- ----- ---- -------<br>--- --- -- ----- -- --- ---- -- --- ---- -- ------ ------<br>--- ----- -- ----,139033.3099999989,139027.54999999888,138545.209,138547.20000000088,138561.92,139046.539,,6,lasting
screen,html.Screen,1_1_0_1_7,2021-04-22T12:35:00.483Z,,,,,,,,,,,,,,,,53,,,,,,,,,,,,,,466.01599999389146,,response,,,,99,,,,,,,Space,keypress(Space),,,,,,,,---- -- ----- -- ------ - ------- and ----------<br>------------- ------ ------ ---- ---- ------- ----- -- ----<br>-------- ------- -- ---------- --- - --- ----- ----- ----<br>---- --- --- ----- --- ---- ---- ------- ----- ---- -------<br>--- --- -- ----- -- --- ---- -- --- ---- -- ------ ------<br>--- ----- -- ----,139518.15499999793,139512.55499999388,139029.828,139033.52999998606,139046.539,139531.158,,7,and
screen,html.Screen,1_1_0_1_8,2021-04-22T12:35:01.118Z,,,,,,,,,,,,,,,,53,,,,,,,,,,,,,,615.3769999780343,,response,,,,99,,,,,,,Space,keypress(Space),,,,,,,,---- -- ----- -- ------ - ------- --- fulfilling<br>------------- ------ ------ ---- ---- ------- ----- -- ----<br>-------- ------- -- ---------- --- - --- ----- ----- ----<br>---- --- --- ----- --- ---- ---- ------- ----- ---- -------<br>--- --- -- ----- -- --- ---- -- --- ---- -- ------ ------<br>--- ----- -- ----,140152.34000000055,140146.53499997803,139514.447,139518.37999999407,139531.158,140166.176,,8,fulfilling
screen,html.Screen,1_1_0_1_9,2021-04-22T12:35:01.908Z,,,,,,,,,,,,,,,,53,,,,,,,,,,,,,,770.3840000019118,,response,,,,99,,,,,,,Space,keypress(Space),,,,,,,,"---- -- ----- -- ------ - ------- --- ----------<br>relationship, ------ ------ ---- ---- ------- ----- -- ----<br>-------- ------- -- ---------- --- - --- ----- ----- ----<br>---- --- --- ----- --- ---- ---- ------- ----- ---- -------<br>--- --- -- ----- -- --- ---- -- --- ---- -- ------ ------<br>--- ----- -- ----",140943.05499998154,140936.56000000192,140149.465,140152.55499997875,140166.176,140951.593,,9,"relationship,"
screen,html.Screen,1_1_0_1_10,2021-04-22T12:35:02.407Z,,,,,,,,,,,,,,,,53,,,,,,,,,,,,,,483.88199997658376,,response,,,,99,,,,,,,Space,keypress(Space),,,,,,,,---- -- ----- -- ------ - ------- --- ----------<br>------------- common ------ ---- ---- ------- ----- -- ----<br>-------- ------- -- ---------- --- - --- ----- ----- ----<br>---- --- --- ----- --- ---- ---- ------- ----- ---- -------<br>--- --- -- ----- -- --- ---- -- --- ---- -- ------ ------<br>--- ----- -- ----,141441.36499997694,141435.47499997658,140934.882,140943.2749999978,140951.593,141452.923,,10,common
screen,html.Screen,1_1_0_1_11,2021-04-22T12:35:03.019Z,,,,,,,,,,,,,,,,53,,,,,,,,,,,,,,595.4069999905187,,response,,,,99,,,,,,,Space,keypress(Space),,,,,,,,---- -- ----- -- ------ - ------- --- ----------<br>------------- ------ wisdom ---- ---- ------- ----- -- ----<br>-------- ------- -- ---------- --- - --- ----- ----- ----<br>---- --- --- ----- --- ---- ---- ------- ----- ---- -------<br>--- --- -- ----- -- --- ---- -- --- ---- -- ------ ------<br>--- ----- -- ----,142054.14999998175,142048.32999999053,141436.212,141441.5699999954,141452.923,142071.23,,11,wisdom
screen,html.Screen,1_1_0_1_12,2021-04-22T12:35:03.713Z,,,,,,,,,,,,,,,,53,,,,,,,,,,,,,,671.1899999950256,,response,,,,99,,,,,,,Space,keypress(Space),,,,,,,,---- -- ----- -- ------ - ------- --- ----------<br>------------- ------ ------ says ---- ------- ----- -- ----<br>-------- ------- -- ---------- --- - --- ----- ----- ----<br>---- --- --- ----- --- ---- ---- ------- ----- ---- -------<br>--- --- -- ----- -- --- ---- -- --- ---- -- ------ ------<br>--- ----- -- ----,142748.00999998115,142742.41999999504,142054.519,142054.36499998905,142071.23,142756.381,,12,says
screen,html.Screen,1_1_0_1_13,2021-04-22T12:35:04.140Z,,,,,,,,,,,,,,,,53,,,,,,,,,,,,,,412.0189999950235,,response,,,,99,,,,,,,Space,keypress(Space),,,,,,,,---- -- ----- -- ------ - ------- --- ----------<br>------------- ------ ------ ---- that ------- ----- -- ----<br>-------- ------- -- ---------- --- - --- ----- ----- ----<br>---- --- --- ----- --- ---- ---- ------- ----- ---- -------<br>--- --- -- ----- -- --- ---- -- --- ---- -- ------ ------<br>--- ----- -- ----,143174.7800000012,143168.39999999502,142739.67,142748.22499998845,142756.381,143190.867,,13,that
screen,html.Screen,1_1_0_1_14,2021-04-22T12:35:04.806Z,,,,,,,,,,,,,,,,53,,,,,,,,,,,,,,643.4329999877082,,response,,,,99,,,,,,,Space,keypress(Space),,,,,,,,---- -- ----- -- ------ - ------- --- ----------<br>------------- ------ ------ ---- ---- feeling ----- -- ----<br>-------- ------- -- ---------- --- - --- ----- ----- ----<br>---- --- --- ----- --- ---- ---- ------- ----- ---- -------<br>--- --- -- ----- -- --- ---- -- --- ---- -- ------ ------<br>--- ----- -- ----,143840.5700000003,143834.2999999877,143174.156,143175.07999998634,143190.867,143842.596,,14,feeling
screen,html.Screen,1_1_0_1_15,2021-04-22T12:35:05.359Z,,,,,,,,,,,,,,,,53,,,,,,,,,,,,,,544.7489999955578,,response,,,,99,,,,,,,Space,keypress(Space),,,,,,,,---- -- ----- -- ------ - ------- --- ----------<br>------------- ------ ------ ---- ---- ------- close -- ----<br>-------- ------- -- ---------- --- - --- ----- ----- ----<br>---- --- --- ----- --- ---- ---- ------- ----- ---- -------<br>--- --- -- ----- -- --- ---- -- --- ---- -- ------ ------<br>--- ----- -- ----,144393.45999999205,144387.34499999555,143825.885,143840.77499998966,143842.596,144410.77,,15,close
screen,html.Screen,1_1_0_1_16,2021-04-22T12:35:05.782Z,,,,,,,,,,,,,,,,53,,,,,,,,,,,,,,400.52499999225256,,response,,,,99,,,,,,,Space,keypress(Space),,,,,,,,---- -- ----- -- ------ - ------- --- ----------<br>------------- ------ ------ ---- ---- ------- ----- to ----<br>-------- ------- -- ---------- --- - --- ----- ----- ----<br>---- --- --- ----- --- ---- ---- ------- ----- ---- -------<br>--- --- -- ----- -- --- ---- -- --- ---- -- ------ ------<br>--- ----- -- ----,144817.0149999787,144811.29499999224,144394.059,144393.67499999935,144410.77,144828.545,,16,to
screen,html.Screen,1_1_0_1_17,2021-04-22T12:35:06.289Z,,,,,,,,,,,,,,,,53,,,,,,,,,,,,,,489.7549999844341,,response,,,,99,,,,,,,Space,keypress(Space),,,,,,,,---- -- ----- -- ------ - ------- --- ----------<br>------------- ------ ------ ---- ---- ------- ----- -- your<br>-------- ------- -- ---------- --- - --- ----- ----- ----<br>---- --- --- ----- --- ---- ---- ------- ----- ---- -------<br>--- --- -- ----- -- --- ---- -- --- ---- -- ------ ------<br>--- ----- -- ----,145323.79999998375,145318.29999998445,144811.834,144817.22499997704,144828.545,145329.875,,17,your
screen,html.Screen,1_1_0_1_18,2021-04-22T12:35:06.748Z,,,,,,,,,,,,,,,,53,,,,,,,,,,,,,,446.3999999819789,,response,,,,99,,,,,,,Space,keypress(Space),,,,,,,,---- -- ----- -- ------ - ------- --- ----------<br>------------- ------ ------ ---- ---- ------- ----- -- ----<br>romantic ------- -- ---------- --- - --- ----- ----- ----<br>---- --- --- ----- --- ---- ---- ------- ----- ---- -------<br>--- --- -- ----- -- --- ---- -- --- ---- -- ------ ------<br>--- ----- -- ----,145782.35999998287,145776.27499998198,145313.164,145323.97999998648,145329.875,145797.783,,18,romantic
screen,html.Screen,1_1_0_1_19,2021-04-22T12:35:07.160Z,,,,,,,,,,,,,,,,53,,,,,,,,,,,,,,390.4819999752217,,response,,,,99,,,,,,,Space,keypress(Space),,,,,,,,---- -- ----- -- ------ - ------- --- ----------<br>------------- ------ ------ ---- ---- ------- ----- -- ----<br>-------- partner -- ---------- --- - --- ----- ----- ----<br>---- --- --- ----- --- ---- ---- ------- ----- ---- -------<br>--- --- -- ----- -- --- ---- -- --- ---- -- ------ ------<br>--- ----- -- ----,146194.80499997735,146188.26499997522,145781.072,145782.68499998376,145797.783,146199.018,,19,partner
screen,html.Screen,1_1_0_1_20,2021-04-22T12:35:07.632Z,,,,,,,,,,,,,,,,53,,,,,,,,,,,,,,461.1469999793044,,response,,,,99,,,,,,,Space,keypress(Space),,,,,,,,---- -- ----- -- ------ - ------- --- ----------<br>------------- ------ ------ ---- ---- ------- ----- -- ----<br>-------- ------- is ---------- --- - --- ----- ----- ----<br>---- --- --- ----- --- ---- ---- ------- ----- ---- -------<br>--- --- -- ----- -- --- ---- -- --- ---- -- ------ ------<br>--- ----- -- ----,146666.42500000307,146660.16499997932,146182.307,146195.01499997568,146199.018,146683.637,,20,is
screen,html.Screen,1_1_0_1_21,2021-04-22T12:35:08.489Z,,,,,,,,,,,,,,,,53,,,,,,,,,,,,,,833.5679999819258,,response,,,,99,,,,,,,Space,keypress(Space),,,,,,,,---- -- ----- -- ------ - ------- --- ----------<br>------------- ------ ------ ---- ---- ------- ----- -- ----<br>-------- ------- -- paramount. --- - --- ----- ----- ----<br>---- --- --- ----- --- ---- ---- ------- ----- ---- -------<br>--- --- -- ----- -- --- ---- -- --- ---- -- ------ ------<br>--- ----- -- ----,147523.6149999837,147517.2049999819,146666.926,146666.6350000014,146683.637,147535.898,,21,paramount.
screen,html.Screen,1_1_0_1_22,2021-04-22T12:35:09.019Z,,,,,,,,,,,,,,,,53,,,,,,,,,,,,,,512.286999992386,,response,,,,99,,,,,,,Space,keypress(Space),,,,,,,,---- -- ----- -- ------ - ------- --- ----------<br>------------- ------ ------ ---- ---- ------- ----- -- ----<br>-------- ------- -- ---------- But - --- ----- ----- ----<br>---- --- --- ----- --- ---- ---- ------- ----- ---- -------<br>--- --- -- ----- -- --- ---- -- --- ---- -- ------ ------<br>--- ----- -- ----,148053.8799999922,148048.18499999237,147519.187,147523.89499999117,147535.898,148070.65,,22,But
screen,html.Screen,1_1_0_1_23,2021-04-22T12:35:09.529Z,,,,,,,,,,,,,,,,53,,,,,,,,,,,,,,486.3699999783712,,response,,,,99,,,,,,,Space,keypress(Space),,,,,,,,---- -- ----- -- ------ - ------- --- ----------<br>------------- ------ ------ ---- ---- ------- ----- -- ----<br>-------- ------- -- ---------- --- a --- ----- ----- ----<br>---- --- --- ----- --- ---- ---- ------- ----- ---- -------<br>--- --- -- ----- -- --- ---- -- --- ---- -- ------ ------<br>--- ----- -- ----,148563.73999998323,148557.01999997837,148053.939,148054.1099999973,148070.65,148571.98,,23,a
screen,html.Screen,1_1_0_1_24,2021-04-22T12:35:10.246Z,,,,,,,,,,,,,,,,53,,,,,,,,,,,,,,703.1249999787833,,response,,,,99,,,,,,,Space,keypress(Space),,,,,,,,---- -- ----- -- ------ - ------- --- ----------<br>------------- ------ ------ ---- ---- ------- ----- -- ----<br>-------- ------- -- ---------- --- - new ----- ----- ----<br>---- --- --- ----- --- ---- ---- ------- ----- ---- -------<br>--- --- -- ----- -- --- ---- -- --- ---- -- ------ ------<br>--- ----- -- ----,149280.88999999454,149275.1049999788,148555.269,148563.95499999053,148571.98,149290.553,,24,new
screen,html.Screen,1_1_0_1_25,2021-04-22T12:35:10.744Z,,,,,,,,,,,,,,,,53,,,,,,,,,,,,,,482.42199999984587,,response,,,,99,,,,,,,Space,keypress(Space),,,,,,,,---- -- ----- -- ------ - ------- --- ----------<br>------------- ------ ------ ---- ---- ------- ----- -- ----<br>-------- ------- -- ---------- --- - --- study ----- ----<br>---- --- --- ----- --- ---- ---- ------- ----- ---- -------<br>--- --- -- ----- -- --- ---- -- --- ---- -- ------ ------<br>--- ----- -- ----,149778.80999998888,149772.97499999986,149273.842,149281.0949999839,149290.553,149791.883,,25,study
screen,html.Screen,1_1_0_1_26,2021-04-22T12:35:11.424Z,,,,,,,,,,,,,,,,53,,,,,,,,,,,,,,661.1969999774883,,response,,,,99,,,,,,,Space,keypress(Space),,,,,,,,---- -- ----- -- ------ - ------- --- ----------<br>------------- ------ ------ ---- ---- ------- ----- -- ----<br>-------- ------- -- ---------- --- - --- ----- finds ----<br>---- --- --- ----- --- ---- ---- ------- ----- ---- -------<br>--- --- -- ----- -- --- ---- -- --- ---- -- ------ ------<br>--- ----- -- ----,150458.90499997768,150453.0799999775,149775.172,149779.114999983,149791.883,150460.323,,26,finds
screen,html.Screen,1_1_0_1_27,2021-04-22T12:35:11.909Z,,,,,,,,,,,,,,,,53,,,,,,,,,,,,,,477.79199999719276,,response,,,,99,,,,,,,Space,keypress(Space),,,,,,,,---- -- ----- -- ------ - ------- --- ----------<br>------------- ------ ------ ---- ---- ------- ----- -- ----<br>-------- ------- -- ---------- --- - --- ----- ----- that<br>---- --- --- ----- --- ---- ---- ------- ----- ---- -------<br>--- --- -- ----- -- --- ---- -- --- ---- -- ------ ------<br>--- ----- -- ----,150943.84999998147,150938.1149999972,150443.612,150459.11999998498,150460.323,150961.653,,27,that
screen,html.Screen,1_1_0_1_28,2021-04-22T12:35:12.549Z,,,,,,,,,,,,,,,,53,,,,,,,,,,,,,,616.3169999839156,,response,,,,99,,,,,,,Space,keypress(Space),,,,,,,,---- -- ----- -- ------ - ------- --- ----------<br>------------- ------ ------ ---- ---- ------- ----- -- ----<br>-------- ------- -- ---------- --- - --- ----- ----- ----<br>it's --- --- ----- --- ---- ---- ------- ----- ---- -------<br>--- --- -- ----- -- --- ---- -- --- ---- -- ------ ------<br>--- ----- -- ----,151583.6249999993,151577.9699999839,150944.942,150944.06499998877,150961.653,151596.671,,28,it's
screen,html.Screen,1_1_0_1_29,2021-04-22T12:35:13.009Z,,,,,,,,,,,,,,,,53,,,,,,,,,,,,,,440.19899998171604,,response,,,,99,,,,,,,Space,keypress(Space),,,,,,,,---- -- ----- -- ------ - ------- --- ----------<br>------------- ------ ------ ---- ---- ------- ----- -- ----<br>-------- ------- -- ---------- --- - --- ----- ----- ----<br>---- not --- ----- --- ---- ---- ------- ----- ---- -------<br>--- --- -- ----- -- --- ---- -- --- ---- -- ------ ------<br>--- ----- -- ----,152043.19999998552,152036.86999998172,151579.96,151583.84999999544,151596.671,152047.868,,29,not
screen,html.Screen,1_1_0_1_30,2021-04-22T12:35:13.706Z,,,,,,,,,,,,,,,,53,,,,,,,,,,,,,,687.0469999790948,,response,,,,99,,,,,,,Space,keypress(Space),,,,,,,,---- -- ----- -- ------ - ------- --- ----------<br>------------- ------ ------ ---- ---- ------- ----- -- ----<br>-------- ------- -- ---------- --- - --- ----- ----- ----<br>---- --- how ----- --- ---- ---- ------- ----- ---- -------<br>--- --- -- ----- -- --- ---- -- --- ---- -- ------ ------<br>--- ----- -- ----,152740.35499998718,152734.91499997908,152031.157,152043.7849999871,152047.868,152749.73,,30,how
screen,html.Screen,1_1_0_1_31,2021-04-22T12:35:14.190Z,,,,,,,,,,,,,,,,53,,,,,,,,,,,,,,468.145000002085,,response,,,,99,,,,,,,Space,keypress(Space),,,,,,,,---- -- ----- -- ------ - ------- --- ----------<br>------------- ------ ------ ---- ---- ------- ----- -- ----<br>-------- ------- -- ---------- --- - --- ----- ----- ----<br>---- --- --- close --- ---- ---- ------- ----- ---- -------<br>--- --- -- ----- -- --- ---- -- --- ---- -- ------ ------<br>--- ----- -- ----,153224.06999999657,153217.8750000021,152733.019,152740.49499997636,152749.73,153234.349,,31,close
screen,html.Screen,1_1_0_1_32,2021-04-22T12:35:14.615Z,,,,,,,,,,,,,,,,53,,,,,,,,,,,,,,408.5059999836958,,response,,,,99,,,,,,,Space,keypress(Space),,,,,,,,---- -- ----- -- ------ - ------- --- ----------<br>------------- ------ ------ ---- ---- ------- ----- -- ----<br>-------- ------- -- ---------- --- - --- ----- ----- ----<br>---- --- --- ----- you ---- ---- ------- ----- ---- -------<br>--- --- -- ----- -- --- ---- -- --- ---- -- ------ ------<br>--- ----- -- ----,153649.0899999917,153642.85499998368,153217.638,153224.26999997697,153234.349,153652.124,,32,you
screen,html.Screen,1_1_0_1_33,2021-04-22T12:35:15.417Z,,,,,,,,,,,,,,,,53,,,,,,,,,,,,,,792.7709999932558,,response,,,,99,,,,,,,Space,keypress(Space),,,,,,,,---- -- ----- -- ------ - ------- --- ----------<br>------------- ------ ------ ---- ---- ------- ----- -- ----<br>-------- ------- -- ---------- --- - --- ----- ----- ----<br>---- --- --- ----- --- feel ---- ------- ----- ---- -------<br>--- --- -- ----- -- --- ---- -- --- ---- -- ------ ------<br>--- ----- -- ----,154451.53500000015,154444.89499999327,153635.413,153649.37499997905,153652.124,154454.252,,33,feel
screen,html.Screen,1_1_0_1_34,2021-04-22T12:35:15.928Z,,,,,,,,,,,,,,,,53,,,,,,,,,,,,,,502.5029999919643,,response,,,,99,,,,,,,Space,keypress(Space),,,,,,,,---- -- ----- -- ------ - ------- --- ----------<br>------------- ------ ------ ---- ---- ------- ----- -- ----<br>-------- ------- -- ---------- --- - --- ----- ----- ----<br>---- --- --- ----- --- ---- that ------- ----- ---- -------<br>--- --- -- ----- -- --- ---- -- --- ---- -- ------ ------<br>--- ----- -- ----,154962.6199999766,154956.75499999197,154437.541,154451.74999997835,154454.252,154972.293,,34,that
screen,html.Screen,1_1_0_1_35,2021-04-22T12:35:16.692Z,,,,,,,,,,,,,,,,53,,,,,,,,,,,,,,747.6719999965862,,response,,,,99,,,,,,,Space,keypress(Space),,,,,,,,---- -- ----- -- ------ - ------- --- ----------<br>------------- ------ ------ ---- ---- ------- ----- -- ----<br>-------- ------- -- ---------- --- - --- ----- ----- ----<br>---- --- --- ----- --- ---- ---- matters ----- ---- -------<br>--- --- -- ----- -- --- ---- -- --- ---- -- ------ ------<br>--- ----- -- ----,155726.6449999879,155719.9649999966,154955.582,154962.82499999506,154972.293,155740.999,,35,matters
screen,html.Screen,1_1_0_1_36,2021-04-22T12:35:17.324Z,,,,,,,,,,,,,,,,53,,,,,,,,,,,,,,610.8209999816609,,response,,,,99,,,,,,,Space,keypress(Space),,,,,,,,"---- -- ----- -- ------ - ------- --- ----------<br>------------- ------ ------ ---- ---- ------- ----- -- ----<br>-------- ------- -- ---------- --- - --- ----- ----- ----<br>---- --- --- ----- --- ---- ---- ------- most, ---- -------<br>--- --- -- ----- -- --- ---- -- --- ---- -- ------ ------<br>--- ----- -- ----",156358.269999997,156351.81999998167,155724.288,155726.8599999952,155740.999,156376.017,,36,"most,"
screen,html.Screen,1_1_0_1_37,2021-04-22T12:35:17.865Z,,,,,,,,,,,,,,,,53,,,,,,,,,,,,,,516.7279999901075,,response,,,,99,,,,,,,Space,keypress(Space),,,,,,,,---- -- ----- -- ------ - ------- --- ----------<br>------------- ------ ------ ---- ---- ------- ----- -- ----<br>-------- ------- -- ---------- --- - --- ----- ----- ----<br>---- --- --- ----- --- ---- ---- ------- ----- it's -------<br>--- --- -- ----- -- --- ---- -- --- ---- -- ------ ------<br>--- ----- -- ----,156899.18999999645,156892.7449999901,156359.306,156358.44999999972,156376.017,156910.855,,37,it's
screen,html.Screen,1_1_0_1_38,2021-04-22T12:35:18.347Z,,,,,,,,,,,,,,,,53,,,,,,,,,,,,,,464.87499999973807,,response,,,,99,,,,,,,Space,keypress(Space),,,,,,,,---- -- ----- -- ------ - ------- --- ----------<br>------------- ------ ------ ---- ---- ------- ----- -- ----<br>-------- ------- -- ---------- --- - --- ----- ----- ----<br>---- --- --- ----- --- ---- ---- ------- ----- ---- whether<br>--- --- -- ----- -- --- ---- -- --- ---- -- ------ ------<br>--- ----- -- ----,157381.64499998675,157375.72999999975,156894.144,156899.37499997905,156910.855,157395.474,,38,whether
screen,html.Screen,1_1_0_1_39,2021-04-22T12:35:18.724Z,,,,,,,,,,,,,,,,53,,,,,,,,,,,,,,357.2759999851114,,response,,,,99,,,,,,,Space,keypress(Space),,,,,,,,---- -- ----- -- ------ - ------- --- ----------<br>------------- ------ ------ ---- ---- ------- ----- -- ----<br>-------- ------- -- ---------- --- - --- ----- ----- ----<br>---- --- --- ----- --- ---- ---- ------- ----- ---- -------<br>you --- -- ----- -- --- ---- -- --- ---- -- ------ ------<br>--- ----- -- ----,157758.19999998203,157752.7499999851,157378.763,157381.82499998948,157395.474,157763.116,,39,you
screen,html.Screen,1_1_0_1_40,2021-04-22T12:35:19.155Z,,,,,,,,,,,,,,,,53,,,,,,,,,,,,,,419.5990000026359,,response,,,,99,,,,,,,Space,keypress(Space),,,,,,,,---- -- ----- -- ------ - ------- --- ----------<br>------------- ------ ------ ---- ---- ------- ----- -- ----<br>-------- ------- -- ---------- --- - --- ----- ----- ----<br>---- --- --- ----- --- ---- ---- ------- ----- ---- -------<br>--- are -- ----- -- --- ---- -- --- ---- -- ------ ------<br>--- ----- -- ----,158189.2050000024,158182.71500000264,157746.405,157758.37999998475,157763.116,158197.602,,40,are
screen,html.Screen,1_1_0_1_41,2021-04-22T12:35:19.672Z,,,,,,,,,,,,,,,,53,,,,,,,,,,,,,,503.09299997769995,,response,,,,99,,,,,,,Space,keypress(Space),,,,,,,,---- -- ----- -- ------ - ------- --- ----------<br>------------- ------ ------ ---- ---- ------- ----- -- ----<br>-------- ------- -- ---------- --- - --- ----- ----- ----<br>---- --- --- ----- --- ---- ---- ------- ----- ---- -------<br>--- --- as ----- -- --- ---- -- --- ---- -- ------ ------<br>--- ----- -- ----,158706.42000000225,158700.6949999777,158180.891,158189.41500000074,158197.602,158715.643,,41,as
screen,html.Screen,1_1_0_1_42,2021-04-22T12:35:20.120Z,,,,,,,,,,,,,,,,53,,,,,,,,,,,,,,432.0219999967667,,response,,,,99,,,,,,,Space,keypress(Space),,,,,,,,---- -- ----- -- ------ - ------- --- ----------<br>------------- ------ ------ ---- ---- ------- ----- -- ----<br>-------- ------- -- ---------- --- - --- ----- ----- ----<br>---- --- --- ----- --- ---- ---- ------- ----- ---- -------<br>--- --- -- close -- --- ---- -- --- ---- -- ------ ------<br>--- ----- -- ----,159153.83499997552,159147.66499999678,158698.932,158709.01999998023,158715.643,159166.84,,42,close
screen,html.Screen,1_1_0_1_43,2021-04-22T12:35:20.545Z,,,,,,,,,,,,,,,,53,,,,,,,,,,,,,,406.8250000035332,,response,,,,99,,,,,,,Space,keypress(Space),,,,,,,,---- -- ----- -- ------ - ------- --- ----------<br>------------- ------ ------ ---- ---- ------- ----- -- ----<br>-------- ------- -- ---------- --- - --- ----- ----- ----<br>---- --- --- ----- --- ---- ---- ------- ----- ---- -------<br>--- --- -- ----- as --- ---- -- --- ---- -- ------ ------<br>--- ----- -- ----,159579.46999999695,159573.66500000353,159150.129,159154.03499998502,159166.84,159584.615,,43,as
screen,html.Screen,1_1_0_1_44,2021-04-22T12:35:20.959Z,,,,,,,,,,,,,,,,53,,,,,,,,,,,,,,402.0549999838695,,response,,,,99,,,,,,,Space,keypress(Space),,,,,,,,---- -- ----- -- ------ - ------- --- ----------<br>------------- ------ ------ ---- ---- ------- ----- -- ----<br>-------- ------- -- ---------- --- - --- ----- ----- ----<br>---- --- --- ----- --- ---- ---- ------- ----- ---- -------<br>--- --- -- ----- -- you ---- -- --- ---- -- ------ ------<br>--- ----- -- ----,159992.90499999188,159986.66999998386,159567.904,159579.91000000038,159584.615,160002.39,,44,you
screen,html.Screen,1_1_0_1_45,2021-04-22T12:35:21.408Z,,,,,,,,,,,,,,,,53,,,,,,,,,,,,,,433.2399999926565,,response,,,,99,,,,,,,Space,keypress(Space),,,,,,,,---- -- ----- -- ------ - ------- --- ----------<br>------------- ------ ------ ---- ---- ------- ----- -- ----<br>-------- ------- -- ---------- --- - --- ----- ----- ----<br>---- --- --- ----- --- ---- ---- ------- ----- ---- -------<br>--- --- -- ----- -- --- want -- --- ---- -- ------ ------<br>--- ----- -- ----,160441.9099999941,160435.62999999267,159985.679,159993.21499999496,160002.39,160453.587,,45,want
screen,html.Screen,1_1_0_1_46,2021-04-22T12:35:21.786Z,,,,,,,,,,,,,,,,53,,,,,,,,,,,,,,361.03799999906914,,response,,,,99,,,,,,,Space,keypress(Space),,,,,,,,---- -- ----- -- ------ - ------- --- ----------<br>------------- ------ ------ ---- ---- ------- ----- -- ----<br>-------- ------- -- ---------- --- - --- ----- ----- ----<br>---- --- --- ----- --- ---- ---- ------- ----- ---- -------<br>--- --- -- ----- -- --- ---- to --- ---- -- ------ ------<br>--- ----- -- ----,160820.2749999764,160814.62499999907,160436.876,160442.10499999463,160453.587,160821.229,,46,to
screen,html.Screen,1_1_0_1_47,2021-04-22T12:35:22.206Z,,,,,,,,,,,,,,,,53,,,,,,,,,,,,,,413.3659999871743,,response,,,,99,,,,,,,Space,keypress(Space),,,,,,,,"---- -- ----- -- ------ - ------- --- ----------<br>------------- ------ ------ ---- ---- ------- ----- -- ----<br>-------- ------- -- ---------- --- - --- ----- ----- ----<br>---- --- --- ----- --- ---- ---- ------- ----- ---- -------<br>--- --- -- ----- -- --- ---- -- be, ---- -- ------ ------<br>--- ----- -- ----",161240.2299999958,161234.59499998717,160804.518,160820.44999999925,160821.229,161255.715,,47,"be,"
screen,html.Screen,1_1_0_1_48,2021-04-22T12:35:22.685Z,,,,,,,,,,,,,,,,53,,,,,,,,,,,,,,457.759999996837,,response,,,,99,,,,,,,Space,keypress(Space),,,,,,,,---- -- ----- -- ------ - ------- --- ----------<br>------------- ------ ------ ---- ---- ------- ----- -- ----<br>-------- ------- -- ---------- --- - --- ----- ----- ----<br>---- --- --- ----- --- ---- ---- ------- ----- ---- -------<br>--- --- -- ----- -- --- ---- -- --- even -- ------ ------<br>--- ----- -- ----,161719.61999998894,161713.47499999683,161239.004,161240.40999999852,161255.715,161723.623,,48,even
screen,html.Screen,1_1_0_1_49,2021-04-22T12:35:23.034Z,,,,,,,,,,,,,,,,53,,,,,,,,,,,,,,338.936999991216,,response,,,,99,,,,,,,Space,keypress(Space),,,,,,,,---- -- ----- -- ------ - ------- --- ----------<br>------------- ------ ------ ---- ---- ------- ----- -- ----<br>-------- ------- -- ---------- --- - --- ----- ----- ----<br>---- --- --- ----- --- ---- ---- ------- ----- ---- -------<br>--- --- -- ----- -- --- ---- -- --- ---- if ------ ------<br>--- ----- -- ----,162068.4449999826,162062.5599999912,161706.912,161719.87499998068,161723.623,162074.554,,49,if
screen,html.Screen,1_1_0_1_50,2021-04-22T12:35:23.415Z,,,,,,,,,,,,,,,,53,,,,,,,,,,,,,,369.05599998752587,,response,,,,99,,,,,,,Space,keypress(Space),,,,,,,,---- -- ----- -- ------ - ------- --- ----------<br>------------- ------ ------ ---- ---- ------- ----- -- ----<br>-------- ------- -- ---------- --- - --- ----- ----- ----<br>---- --- --- ----- --- ---- ---- ------- ----- ---- -------<br>--- --- -- ----- -- --- ---- -- --- ---- -- that's ------<br>--- ----- -- ----,162449.38499998534,162443.60999998753,162057.843,162068.6149999965,162074.554,162458.907,,50,that's
screen,html.Screen,1_1_0_1_51,2021-04-22T12:35:23.945Z,,,,,,,,,,,,,,,,53,,,,,,,,,,,,,,514.4379999766825,,response,,,,99,,,,,,,Space,keypress(Space),,,,,,,,---- -- ----- -- ------ - ------- --- ----------<br>------------- ------ ------ ---- ---- ------- ----- -- ----<br>-------- ------- -- ---------- --- - --- ----- ----- ----<br>---- --- --- ----- --- ---- ---- ------- ----- ---- -------<br>--- --- -- ----- -- --- ---- -- --- ---- -- ------ really<br>--- ----- -- ----,162979.17499998584,162973.3449999767,162442.196,162449.5749999769,162458.907,162993.659,,51,really
screen,html.Screen,1_1_0_1_52,2021-04-22T12:35:24.401Z,,,,,,,,,,,,,,,,53,,,,,,,,,,,,,,435.81599998261663,,response,,,,99,,,,,,,Space,keypress(Space),,,,,,,,---- -- ----- -- ------ - ------- --- ----------<br>------------- ------ ------ ---- ---- ------- ----- -- ----<br>-------- ------- -- ---------- --- - --- ----- ----- ----<br>---- --- --- ----- --- ---- ---- ------- ----- ---- -------<br>--- --- -- ----- -- --- ---- -- --- ---- -- ------ ------<br>not ----- -- ----,163435.13999998686,163429.47499998263,162976.948,162979.3499999796,162993.659,163444.856,,52,not
screen,html.Screen,1_1_0_1_53,2021-04-22T12:35:24.905Z,,,,,,,,,,,,,,,,53,,,,,,,,,,,,,,489.60899999845424,,response,,,,99,,,,,,,Space,keypress(Space),,,,,,,,---- -- ----- -- ------ - ------- --- ----------<br>------------- ------ ------ ---- ---- ------- ----- -- ----<br>-------- ------- -- ---------- --- - --- ----- ----- ----<br>---- --- --- ----- --- ---- ---- ------- ----- ---- -------<br>--- --- -- ----- -- --- ---- -- --- ---- -- ------ ------<br>--- close -- ----,163938.96999998833,163934.46499999845,163428.145,163435.3349999874,163444.856,163946.186,,53,close
screen,html.Screen,1_1_0_1_54,2021-04-22T12:35:25.319Z,,,,,,,,,,,,,,,,53,,,,,,,,,,,,,,401.2789999989327,,response,,,,99,,,,,,,Space,keypress(Space),,,,,,,,---- -- ----- -- ------ - ------- --- ----------<br>------------- ------ ------ ---- ---- ------- ----- -- ----<br>-------- ------- -- ---------- --- - --- ----- ----- ----<br>---- --- --- ----- --- ---- ---- ------- ----- ---- -------<br>--- --- -- ----- -- --- ---- -- --- ---- -- ------ ------<br>--- ----- at ----,164353.37499997695,164347.46499999892,163929.475,163939.16999999783,163946.186,164363.961,,54,at
screen,html.Screen,1_1_0_1_55,2021-04-22T12:35:25.663Z,,,,,,,,,,,,,,,,53,,,,,,,,,,,,,,327.4589999882737,,response,,,,99,,,,,,,Space,keypress(Space),,,,,,,,---- -- ----- -- ------ - ------- --- ----------<br>------------- ------ ------ ---- ---- ------- ----- -- ----<br>-------- ------- -- ---------- --- - --- ----- ----- ----<br>---- --- --- ----- --- ---- ---- ------- ----- ---- -------<br>--- --- -- ----- -- --- ---- -- --- ---- -- ------ ------<br>--- ----- -- all.,164697.07500000368,164691.41999998828,164347.25,164353.5499999998,164363.961,164714.892,,55,all.
Item 99,flow.Loop,1_1_0_1,2021-04-22T12:35:25.663Z,,,,,,,,,,,,,,,,,,,,,,,,,,,,,,29856.24199998827,,completion,,,,,F,,,,,,,,,,,silence,,,,,164697.4549999868,164691.41999998828,134701.49,134704.31499998085,134835.178,164714.892,,,
Question 1,html.Screen,1_1_0_2,2021-04-22T12:35:36.445Z,,,,,,,,,,,,,,,,,,,,,,,,,,,true,FALSE,,10760.362999997567,,response,,,,99,F,,,,,,FALSE,click #choice-2,,,,silence,,,,,175478.55499997968,175475.25499999756,164698.181,164698.0249999906,164714.892,175493.747,,,
Question 2,html.Screen,1_1_0_3,2021-04-22T12:35:42.086Z,,,,,,,,,,,,,,,,,,,,,,,,,,,true,TRUE,,5623.077999975503,,response,,,,99,F,,,,,,TRUE,click #choice-1,,,,silence,,,,,181119.87999998382,181116.8249999755,175477.036,175478.78499998478,175493.747,181125.606,,,
Item 99,flow.Sequence,1_1_0,2021-04-22T12:35:42.086Z,,,,,,,,,,,,,,,,,,,,,,,,,,,,,,56391.801999975505,,completion,,,,,,,,,,,,,,,,,,,,,181120.15499998233,181116.8249999755,124674.89,124705.59499997762,124725.023,181125.606,,,
Holding screen,html.Screen,1_1_1_0,2021-04-22T12:35:52.071Z,,,,,,,,,,,,,,,,,,,,,,,,,,,,,,9993.364000000001,,timeout,,,,,,,,,,,,,,,,,,,,,191104.5049999957,191102.259,181108.895,181120.49499998102,181125.606,191118.97,,,
screen,html.Screen,1_1_1_1_0,2021-04-22T12:35:52.994Z,,,,,,,,,,,,,,,,54,,,,,,,,,,,,,,900.2750000031374,,response,,,,100,,,,,,,Space,keypress(Space),,,,,,,,At --- ---- --- ------ ----- ------- ---- -- --- ------- --<br>------- ---------- ------ -- ----- -- ----- -- ---- ------<br>--- ----- --- --- ------ -------- ----- --- ------ ----- --<br>----- ----- ---------- --- --- ------ ------ ---- -- ------<br>------- --- ------ ----- --- ---- ------- -- ---- --- --<br>------- ------,192027.1950000024,192019.24500000314,191102.259,191104.9199999834,191118.97,192038.075,,0,At
screen,html.Screen,1_1_1_1_1,2021-04-22T12:35:53.404Z,,,,,,,,,,,,,,,,54,,,,,,,,,,,,,,393.1150000029593,,response,,,,100,,,,,,,Space,keypress(Space),,,,,,,,-- the ---- --- ------ ----- ------- ---- -- --- ------- --<br>------- ---------- ------ -- ----- -- ----- -- ---- ------<br>--- ----- --- --- ------ -------- ----- --- ------ ----- --<br>----- ----- ---------- --- --- ------ ------ ---- -- ------<br>------- --- ------ ----- --- ---- ------- -- ---- --- --<br>------- ------,192437.1149999788,192431.19000000297,192021.364,192027.39999999176,192038.075,192455.85,,1,the
screen,html.Screen,1_1_1_1_2,2021-04-22T12:35:53.824Z,,,,,,,,,,,,,,,,54,,,,,,,,,,,,,,396.349999993894,,response,,,,100,,,,,,,Space,keypress(Space),,,,,,,,-- --- time --- ------ ----- ------- ---- -- --- ------- --<br>------- ---------- ------ -- ----- -- ----- -- ---- ------<br>--- ----- --- --- ------ -------- ----- --- ------ ----- --<br>----- ----- ---------- --- --- ------ ------ ---- -- ------<br>------- --- ------ ----- --- ---- ------- -- ---- --- --<br>------- ------,192857.92499998934,192852.1999999939,192439.139,192437.29499998153,192455.85,192873.625,,2,time
screen,html.Screen,1_1_1_1_3,2021-04-22T12:35:54.243Z,,,,,,,,,,,,,,,,54,,,,,,,,,,,,,,397.48500000149943,,response,,,,100,,,,,,,Space,keypress(Space),,,,,,,,-- --- ---- the ------ ----- ------- ---- -- --- ------- --<br>------- ---------- ------ -- ----- -- ----- -- ---- ------<br>--- ----- --- --- ------ -------- ----- --- ------ ----- --<br>----- ----- ---------- --- --- ------ ------ ---- -- ------<br>------- --- ------ ----- --- ---- ------- -- ---- --- --<br>------- ------,193276.94499999052,193271.1100000015,192856.914,192858.11999998987,192873.625,193291.4,,3,the
screen,html.Screen,1_1_1_1_4,2021-04-22T12:35:54.684Z,,,,,,,,,,,,,,,,54,,,,,,,,,,,,,,419.8499999930209,,response,,,,100,,,,,,,Space,keypress(Space),,,,,,,,-- --- ---- --- French ----- ------- ---- -- --- ------- --<br>------- ---------- ------ -- ----- -- ----- -- ---- ------<br>--- ----- --- --- ------ -------- ----- --- ------ ----- --<br>----- ----- ---------- --- --- ------ ------ ---- -- ------<br>------- --- ------ ----- --- ---- ------- -- ---- --- --<br>------- ------,193717.2599999758,193711.24999999302,193274.689,193277.1149999753,193291.4,193725.886,,4,French
screen,html.Screen,1_1_1_1_5,2021-04-22T12:35:55.107Z,,,,,,,,,,,,,,,,54,,,,,,,,,,,,,,408.2839999757125,,response,,,,100,,,,,,,Space,keypress(Space),,,,,,,,-- --- ---- --- ------ crown ------- ---- -- --- ------- --<br>------- ---------- ------ -- ----- -- ----- -- ---- ------<br>--- ----- --- --- ------ -------- ----- --- ------ ----- --<br>----- ----- ---------- --- --- ------ ------ ---- -- ------<br>------- --- ------ ----- --- ---- ------- -- ---- --- --<br>------- ------,194139.92999997572,194134.1699999757,193709.175,193717.43499999866,193725.886,194143.661,,5,crown
screen,html.Screen,1_1_1_1_6,2021-04-22T12:35:55.631Z,,,,,,,,,,,,,,,,54,,,,,,,,,,,,,,515.4339999808872,,response,,,,100,,,,,,,Space,keypress(Space),,,,,,,,-- --- ---- --- ------ ----- secured ---- -- --- ------- --<br>------- ---------- ------ -- ----- -- ----- -- ---- ------<br>--- ----- --- --- ------ -------- ----- --- ------ ----- --<br>----- ----- ---------- --- --- ------ ------ ---- -- ------<br>------- --- ------ ----- --- ---- ------- -- ---- --- --<br>------- ------,194664.8049999785,194659.09499998088,194126.95,194140.09999998962,194143.661,194678.413,,6,secured
screen,html.Screen,1_1_1_1_7,2021-04-22T12:35:56.082Z,,,,,,,,,,,,,,,,54,,,,,,,,,,,,,,431.6419999973732,,response,,,,100,,,,,,,Space,keypress(Space),,,,,,,,-- --- ---- --- ------ ----- ------- much -- --- ------- --<br>------- ---------- ------ -- ----- -- ----- -- ---- ------<br>--- ----- --- --- ------ -------- ----- --- ------ ----- --<br>----- ----- ---------- --- --- ------ ------ ---- -- ------<br>------- --- ------ ----- --- ---- ------- -- ---- --- --<br>------- ------,195115.60499999905,195110.05499999737,194661.702,194664.99499999918,194678.413,195129.61,,7,much
screen,html.Screen,1_1_1_1_8,2021-04-22T12:35:56.581Z,,,,,,,,,,,,,,,,54,,,,,,,,,,,,,,479.3249999965774,,response,,,,100,,,,,,,Space,keypress(Space),,,,,,,,-- --- ---- --- ------ ----- ------- ---- of --- ------- --<br>------- ---------- ------ -- ----- -- ----- -- ---- ------<br>--- ----- --- --- ------ -------- ----- --- ------ ----- --<br>----- ----- ---------- --- --- ------ ------ ---- -- ------<br>------- --- ------ ----- --- ---- ------- -- ---- --- --<br>------- ------,195614.63499997626,195608.93499999656,195112.899,195115.81499999738,195129.61,195630.94,,8,of
screen,html.Screen,1_1_1_1_9,2021-04-22T12:35:56.960Z,,,,,,,,,,,,,,,,54,,,,,,,,,,,,,,356.1249999938882,,response,,,,100,,,,,,,Space,keypress(Space),,,,,,,,-- --- ---- --- ------ ----- ------- ---- -- its ------- --<br>------- ---------- ------ -- ----- -- ----- -- ---- ------<br>--- ----- --- --- ------ -------- ----- --- ------ ----- --<br>----- ----- ---------- --- --- ------ ------ ---- -- ------<br>------- --- ------ ----- --- ---- ------- -- ---- --- --<br>------- ------,195993.18999997922,195987.0649999939,195614.229,195615.1649999956,195630.94,195998.582,,9,its
screen,html.Screen,1_1_1_1_10,2021-04-22T12:35:57.387Z,,,,,,,,,,,,,,,,54,,,,,,,,,,,,,,416.48799998819595,,response,,,,100,,,,,,,Space,keypress(Space),,,,,,,,-- --- ---- --- ------ ----- ------- ---- -- --- revenue --<br>------- ---------- ------ -- ----- -- ----- -- ---- ------<br>--- ----- --- --- ------ -------- ----- --- ------ ----- --<br>----- ----- ---------- --- --- ------ ------ ---- -- ------<br>------- --- ------ ----- --- ---- ------- -- ---- --- --<br>------- ------,196420.71499998565,196415.0699999882,195981.871,195993.35999999312,195998.582,196433.068,,10,revenue
screen,html.Screen,1_1_1_1_11,2021-04-22T12:35:57.870Z,,,,,,,,,,,,,,,,54,,,,,,,,,,,,,,464.8369999907154,,response,,,,100,,,,,,,Space,keypress(Space),,,,,,,,-- --- ---- --- ------ ----- ------- ---- -- --- ------- by<br>------- ---------- ------ -- ----- -- ----- -- ---- ------<br>--- ----- --- --- ------ -------- ----- --- ------ ----- --<br>----- ----- ---------- --- --- ------ ------ ---- -- ------<br>------- --- ------ ----- --- ---- ------- -- ---- --- --<br>------- ------,196903.58499999274,196897.90499999071,196416.357,196420.87999999058,196433.068,196917.687,,11,by
screen,html.Screen,1_1_1_1_12,2021-04-22T12:35:58.287Z,,,,,,,,,,,,,,,,54,,,,,,,,,,,,,,396.33299999070005,,response,,,,100,,,,,,,Space,keypress(Space),,,,,,,,-- --- ---- --- ------ ----- ------- ---- -- --- ------- --<br>issuing ---------- ------ -- ----- -- ----- -- ---- ------<br>--- ----- --- --- ------ -------- ----- --- ------ ----- --<br>----- ----- ---------- --- --- ------ ------ ---- -- ------<br>------- --- ------ ----- --- ---- ------- -- ---- --- --<br>------- ------,197320.26499998756,197314.0199999907,196900.976,196903.75499997754,196917.687,197335.462,,12,issuing
screen,html.Screen,1_1_1_1_13,2021-04-22T12:35:58.731Z,,,,,,,,,,,,,,,,54,,,,,,,,,,,,,,423.49799997737864,,response,,,,100,,,,,,,Space,keypress(Space),,,,,,,,-- --- ---- --- ------ ----- ------- ---- -- --- ------- --<br>------- government ------ -- ----- -- ----- -- ---- ------<br>--- ----- --- --- ------ -------- ----- --- ------ ----- --<br>----- ----- ---------- --- --- ------ ------ ---- -- ------<br>------- --- ------ ----- --- ---- ------- -- ---- --- --<br>------- ------,197764.65999998618,197758.95999997738,197318.751,197320.4449999903,197335.462,197769.948,,13,government
screen,html.Screen,1_1_1_1_14,2021-04-22T12:35:59.199Z,,,,,,,,,,,,,,,,54,,,,,,,,,,,,,,456.02699997936725,,response,,,,100,,,,,,,Space,keypress(Space),,,,,,,,-- --- ---- --- ------ ----- ------- ---- -- --- ------- --<br>------- ---------- bonds. -- ----- -- ----- -- ---- ------<br>--- ----- --- --- ------ -------- ----- --- ------ ----- --<br>----- ----- ---------- --- --- ------ ------ ---- -- ------<br>------- --- ------ ----- --- ---- ------- -- ---- --- --<br>------- ------,198232.0699999982,198225.97499997937,197753.237,197764.81999998214,197769.948,198237.856,,14,bonds.
screen,html.Screen,1_1_1_1_15,2021-04-22T12:35:59.837Z,,,,,,,,,,,,,,,,54,,,,,,,,,,,,,,626.9289999833854,,response,,,,100,,,,,,,Space,keypress(Space),,,,,,,,-- --- ---- --- ------ ----- ------- ---- -- --- ------- --<br>------- ---------- ------ In ----- -- ----- -- ---- ------<br>--- ----- --- --- ------ -------- ----- --- ------ ----- --<br>----- ----- ---------- --- --- ------ ------ ---- -- ------<br>------- --- ------ ----- --- ---- ------- -- ---- --- --<br>------- ------,198870.20999999368,198864.78499998339,198221.145,198232.239999983,198237.856,198872.874,,15,In
screen,html.Screen,1_1_1_1_16,2021-04-22T12:36:01.034Z,,,,,,,,,,,,,,,,54,,,,,,,,,,,,,,1187.93099998642,,response,,,,100,,,,,,,Space,keypress(Space),,,,,,,,"-- --- ---- --- ------ ----- ------- ---- -- --- ------- --<br>------- ---------- ------ -- 1727, -- ----- -- ---- ------<br>--- ----- --- --- ------ -------- ----- --- ------ ----- --<br>----- ----- ---------- --- --- ------ ------ ---- -- ------<br>------- --- ------ ----- --- ---- ------- -- ---- --- --<br>------- ------",200066.99500000104,200060.80499998643,198856.163,198870.34999998286,198872.874,200076.227,,16,"1727,"
screen,html.Screen,1_1_1_1_17,2021-04-22T12:36:01.553Z,,,,,,,,,,,,,,,,54,,,,,,,,,,,,,,504.63299998728326,,response,,,,100,,,,,,,Space,keypress(Space),,,,,,,,-- --- ---- --- ------ ----- ------- ---- -- --- ------- --<br>------- ---------- ------ -- ----- in ----- -- ---- ------<br>--- ----- --- --- ------ -------- ----- --- ------ ----- --<br>----- ----- ---------- --- --- ------ ------ ---- -- ------<br>------- --- ------ ----- --- ---- ------- -- ---- --- --<br>------- ------,200586.66999998968,200580.8599999873,200059.516,200067.1699999948,200076.227,200594.268,,17,in
screen,html.Screen,1_1_1_1_18,2021-04-22T12:36:02.061Z,,,,,,,,,,,,,,,,54,,,,,,,,,,,,,,494.4769999863638,,response,,,,100,,,,,,,Space,keypress(Space),,,,,,,,-- --- ---- --- ------ ----- ------- ---- -- --- ------- --<br>------- ---------- ------ -- ----- -- order -- ---- ------<br>--- ----- --- --- ------ -------- ----- --- ------ ----- --<br>----- ----- ---------- --- --- ------ ------ ---- -- ------<br>------- --- ------ ----- --- ---- ------- -- ---- --- --<br>------- ------,201094.49999997742,201088.74499998637,200577.557,200586.85500000138,200594.268,201112.309,,18,order
screen,html.Screen,1_1_1_1_19,2021-04-22T12:36:02.471Z,,,,,,,,,,,,,,,,54,,,,,,,,,,,,,,386.49100000120234,,response,,,,100,,,,,,,Space,keypress(Space),,,,,,,,-- --- ---- --- ------ ----- ------- ---- -- --- ------- --<br>------- ---------- ------ -- ----- -- ----- to ---- ------<br>--- ----- --- --- ------ -------- ----- --- ------ ----- --<br>----- ----- ---------- --- --- ------ ------ ---- -- ------<br>------- --- ------ ----- --- ---- ------- -- ---- --- --<br>------- ------,201504.44999997853,201498.8000000012,201095.598,201094.67500000028,201112.309,201513.373,,19,to
screen,html.Screen,1_1_1_1_20,2021-04-22T12:36:02.897Z,,,,,,,,,,,,,,,,54,,,,,,,,,,,,,,410.4369999784103,,response,,,,100,,,,,,,Space,keypress(Space),,,,,,,,-- --- ---- --- ------ ----- ------- ---- -- --- ------- --<br>------- ---------- ------ -- ----- -- ----- -- save ------<br>--- ----- --- --- ------ -------- ----- --- ------ ----- --<br>----- ----- ---------- --- --- ------ ------ ---- -- ------<br>------- --- ------ ----- --- ---- ------- -- ---- --- --<br>------- ------,201930.5099999765,201923.8099999784,201496.662,201504.6250000014,201513.373,201947.859,,20,save
screen,html.Screen,1_1_1_1_21,2021-04-22T12:36:03.537Z,,,,,,,,,,,,,,,,54,,,,,,,,,,,,,,615.8959999810322,,response,,,,100,,,,,,,Space,keypress(Space),,,,,,,,"-- --- ---- --- ------ ----- ------- ---- -- --- ------- --<br>------- ---------- ------ -- ----- -- ----- -- ---- money,<br>--- ----- --- --- ------ -------- ----- --- ------ ----- --<br>----- ----- ---------- --- --- ------ ------ ---- -- ------<br>------- --- ------ ----- --- ---- ------- -- ---- --- --<br>------- ------",202570.00499998685,202563.75499998103,201931.148,201930.6799999904,201947.859,202582.877,,21,"money,"
screen,html.Screen,1_1_1_1_22,2021-04-22T12:36:04.188Z,,,,,,,,,,,,,,,,54,,,,,,,,,,,,,,631.8679999756569,,response,,,,100,,,,,,,Space,keypress(Space),,,,,,,,-- --- ---- --- ------ ----- ------- ---- -- --- ------- --<br>------- ---------- ------ -- ----- -- ----- -- ---- ------<br>the ----- --- --- ------ -------- ----- --- ------ ----- --<br>----- ----- ---------- --- --- ------ ------ ---- -- ------<br>------- --- ------ ----- --- ---- ------- -- ---- --- --<br>------- ------,203220.84500000346,203214.74499997566,202566.166,202570.17500000075,202582.877,203234.606,,22,the
screen,html.Screen,1_1_1_1_23,2021-04-22T12:36:04.874Z,,,,,,,,,,,,,,,,54,,,,,,,,,,,,,,667.119000003353,,response,,,,100,,,,,,,Space,keypress(Space),,,,,,,,-- --- ---- --- ------ ----- ------- ---- -- --- ------- --<br>------- ---------- ------ -- ----- -- ----- -- ---- ------<br>--- state --- --- ------ -------- ----- --- ------ ----- --<br>----- ----- ---------- --- --- ------ ------ ---- -- ------<br>------- --- ------ ----- --- ---- ------- -- ---- --- --<br>------- ------,203907.41499999422,203901.72500000335,203217.895,203221.01999999722,203234.606,203919.757,,23,state
screen,html.Screen,1_1_1_1_24,2021-04-22T12:36:05.351Z,,,,,,,,,,,,,,,,54,,,,,,,,,,,,,,457.9429999827116,,response,,,,100,,,,,,,Space,keypress(Space),,,,,,,,-- --- ---- --- ------ ----- ------- ---- -- --- ------- --<br>------- ---------- ------ -- ----- -- ----- -- ---- ------<br>--- ----- cut --- ------ -------- ----- --- ------ ----- --<br>----- ----- ---------- --- --- ------ ------ ---- -- ------<br>------- --- ------ ----- --- ---- ------- -- ---- --- --<br>------- ------,204383.92999998177,204377.69999998272,203903.046,203907.58999998798,203919.757,204387.665,,24,cut
screen,html.Screen,1_1_1_1_25,2021-04-22T12:36:05.851Z,,,,,,,,,,,,,,,,54,,,,,,,,,,,,,,491.02000000330736,,response,,,,100,,,,,,,Space,keypress(Space),,,,,,,,-- --- ---- --- ------ ----- ------- ---- -- --- ------- --<br>------- ---------- ------ -- ----- -- ----- -- ---- ------<br>--- ----- --- the ------ -------- ----- --- ------ ----- --<br>----- ----- ---------- --- --- ------ ------ ---- -- ------<br>------- --- ------ ----- --- ---- ------- -- ---- --- --<br>------- ------,204884.28499997826,204878.68500000332,204370.954,204384.14499998908,204387.665,204888.995,,25,the
screen,html.Screen,1_1_1_1_26,2021-04-22T12:36:06.391Z,,,,,,,,,,,,,,,,54,,,,,,,,,,,,,,529.6549999777926,,response,,,,100,,,,,,,Space,keypress(Space),,,,,,,,-- --- ---- --- ------ ----- ------- ---- -- --- ------- --<br>------- ---------- ------ -- ----- -- ----- -- ---- ------<br>--- ----- --- --- bonds' -------- ----- --- ------ ----- --<br>----- ----- ---------- --- --- ------ ------ ---- -- ------<br>------- --- ------ ----- --- ---- ------- -- ---- --- --<br>------- ------,205424.29499997525,205418.6499999778,204872.284,204884.45499999216,204888.995,205440.458,,26,bonds'
screen,html.Screen,1_1_1_1_27,2021-04-22T12:36:07.244Z,,,,,,,,,,,,,,,,54,,,,,,,,,,,,,,831.136999998329,,response,,,,100,,,,,,,Space,keypress(Space),,,,,,,,-- --- ---- --- ------ ----- ------- ---- -- --- ------- --<br>------- ---------- ------ -- ----- -- ----- -- ---- ------<br>--- ----- --- --- ------ interest ----- --- ------ ----- --<br>----- ----- ---------- --- --- ------ ------ ---- -- ------<br>------- --- ------ ----- --- ---- ------- -- ---- --- --<br>------- ------,206277.3299999826,206271.59499999834,205423.747,205424.47499997797,205440.458,206292.719,,27,interest
screen,html.Screen,1_1_1_1_28,2021-04-22T12:36:07.809Z,,,,,,,,,,,,,,,,54,,,,,,,,,,,,,,542.8159999910567,,response,,,,100,,,,,,,Space,keypress(Space),,,,,,,,-- --- ---- --- ------ ----- ------- ---- -- --- ------- --<br>------- ---------- ------ -- ----- -- ----- -- ---- ------<br>--- ----- --- --- ------ -------- rate. --- ------ ----- --<br>----- ----- ---------- --- --- ------ ------ ---- -- ------<br>------- --- ------ ----- --- ---- ------- -- ---- --- --<br>------- ------,206842.00499998406,206835.53499999107,206276.008,206277.50499997637,206292.719,206844.182,,28,rate.
screen,html.Screen,1_1_1_1_29,2021-04-22T12:36:08.284Z,,,,,,,,,,,,,,,,54,,,,,,,,,,,,,,467.38799999075127,,response,,,,100,,,,,,,Space,keypress(Space),,,,,,,,-- --- ---- --- ------ ----- ------- ---- -- --- ------- --<br>------- ---------- ------ -- ----- -- ----- -- ---- ------<br>--- ----- --- --- ------ -------- ----- The ------ ----- --<br>----- ----- ---------- --- --- ------ ------ ---- -- ------<br>------- --- ------ ----- --- ---- ------- -- ---- --- --<br>------- ------,207317.42499998654,207311.56999999075,206827.471,206842.24999998696,206844.182,207328.801,,29,The
screen,html.Screen,1_1_1_1_30,2021-04-22T12:36:08.993Z,,,,,,,,,,,,,,,,54,,,,,,,,,,,,,,691.7389999977022,,response,,,,100,,,,,,,Space,keypress(Space),,,,,,,,-- --- ---- --- ------ ----- ------- ---- -- --- ------- --<br>------- ---------- ------ -- ----- -- ----- -- ---- ------<br>--- ----- --- --- ------ -------- ----- --- market ----- --<br>----- ----- ---------- --- --- ------ ------ ---- -- ------<br>------- --- ------ ----- --- ---- ------- -- ---- --- --<br>------- ------,208026.51999998488,208020.5399999977,207312.09,207317.60999999824,207328.801,208030.663,,30,market
screen,html.Screen,1_1_1_1_31,2021-04-22T12:36:09.452Z,,,,,,,,,,,,,,,,54,,,,,,,,,,,,,,448.8569999934989,,response,,,,100,,,,,,,Space,keypress(Space),,,,,,,,-- --- ---- --- ------ ----- ------- ---- -- --- ------- --<br>------- ---------- ------ -- ----- -- ----- -- ---- ------<br>--- ----- --- --- ------ -------- ----- --- ------ value --<br>----- ----- ---------- --- --- ------ ------ ---- -- ------<br>------- --- ------ ----- --- ---- ------- -- ---- --- --<br>------- ------,208485.20999998436,208479.5199999935,208013.952,208026.6999999876,208030.663,208498.571,,31,value
screen,html.Screen,1_1_1_1_32,2021-04-22T12:36:09.874Z,,,,,,,,,,,,,,,,54,,,,,,,,,,,,,,402.90900000045076,,response,,,,100,,,,,,,Space,keypress(Space),,,,,,,,-- --- ---- --- ------ ----- ------- ---- -- --- ------- --<br>------- ---------- ------ -- ----- -- ----- -- ---- ------<br>--- ----- --- --- ------ -------- ----- --- ------ ----- of<br>----- ----- ---------- --- --- ------ ------ ---- -- ------<br>------- --- ------ ----- --- ---- ------- -- ---- --- --<br>------- ------,208907.3700000008,208901.48000000045,208481.86,208485.38499997812,208498.571,208916.346,,32,of
screen,html.Screen,1_1_1_1_33,2021-04-22T12:36:10.314Z,,,,,,,,,,,,,,,,54,,,,,,,,,,,,,,425.2489999762329,,response,,,,100,,,,,,,Space,keypress(Space),,,,,,,,-- --- ---- --- ------ ----- ------- ---- -- --- ------- --<br>------- ---------- ------ -- ----- -- ----- -- ---- ------<br>--- ----- --- --- ------ -------- ----- --- ------ ----- --<br>these ----- ---------- --- --- ------ ------ ---- -- ------<br>------- --- ------ ----- --- ---- ------- -- ---- --- --<br>------- ------,209347.53999998793,209341.59499997622,208899.635,208907.5399999856,208916.346,209350.988,,33,these
screen,html.Screen,1_1_1_1_34,2021-04-22T12:36:10.764Z,,,,,,,,,,,,,,,,54,,,,,,,,,,,,,,440.47699998749886,,response,,,,100,,,,,,,Space,keypress(Space),,,,,,,,-- --- ---- --- ------ ----- ------- ---- -- --- ------- --<br>------- ---------- ------ -- ----- -- ----- -- ---- ------<br>--- ----- --- --- ------ -------- ----- --- ------ ----- --<br>----- bonds ---------- --- --- ------ ------ ---- -- ------<br>------- --- ------ ----- --- ---- ------- -- ---- --- --<br>------- ------,209797.04999999376,209791.4649999875,209334.277,209347.74999998626,209350.988,209802.185,,34,bonds
screen,html.Screen,1_1_1_1_35,2021-04-22T12:36:11.366Z,,,,,,,,,,,,,,,,54,,,,,,,,,,,,,,591.1299999938929,,response,,,,100,,,,,,,Space,keypress(Space),,,,,,,,"-- --- ---- --- ------ ----- ------- ---- -- --- ------- --<br>------- ---------- ------ -- ----- -- ----- -- ---- ------<br>--- ----- --- --- ------ -------- ----- --- ------ ----- --<br>----- ----- plummeted, --- --- ------ ------ ---- -- ------<br>------- --- ------ ----- --- ---- ------- -- ---- --- --<br>------- ------",210399.0150000027,210393.3149999939,209785.474,209797.22499998752,209802.185,210403.781,,35,"plummeted,"
screen,html.Screen,1_1_1_1_36,2021-04-22T12:36:11.976Z,,,,,,,,,,,,,,,,54,,,,,,,,,,,,,,601.4440000008035,,response,,,,100,,,,,,,Space,keypress(Space),,,,,,,,-- --- ---- --- ------ ----- ------- ---- -- --- ------- --<br>------- ---------- ------ -- ----- -- ----- -- ---- ------<br>--- ----- --- --- ------ -------- ----- --- ------ ----- --<br>----- ----- ---------- and --- ------ ------ ---- -- ------<br>------- --- ------ ----- --- ---- ------- -- ---- --- --<br>------- ------,211009.33000000077,211005.2250000008,210387.07,210399.19999998529,210403.781,211022.088,,36,and
screen,html.Screen,1_1_1_1_37,2021-04-22T12:36:12.443Z,,,,,,,,,,,,,,,,54,,,,,,,,,,,,,,448.2969999932684,,response,,,,100,,,,,,,Space,keypress(Space),,,,,,,,-- --- ---- --- ------ ----- ------- ---- -- --- ------- --<br>------- ---------- ------ -- ----- -- ----- -- ---- ------<br>--- ----- --- --- ------ -------- ----- --- ------ ----- --<br>----- ----- ---------- --- the ------ ------ ---- -- ------<br>------- --- ------ ----- --- ---- ------- -- ---- --- --<br>------- ------,211476.20999999344,211470.38499999326,211005.377,211009.45499999216,211022.088,211489.996,,37,the
screen,html.Screen,1_1_1_1_38,2021-04-22T12:36:12.981Z,,,,,,,,,,,,,,,,54,,,,,,,,,,,,,,519.2139999892388,,response,,,,100,,,,,,,Space,keypress(Space),,,,,,,,-- --- ---- --- ------ ----- ------- ---- -- --- ------- --<br>------- ---------- ------ -- ----- -- ----- -- ---- ------<br>--- ----- --- --- ------ -------- ----- --- ------ ----- --<br>----- ----- ---------- --- --- market ------ ---- -- ------<br>------- --- ------ ----- --- ---- ------- -- ---- --- --<br>------- ------,212014.0249999822,212009.20999998925,211473.285,211476.37999997823,211489.996,212024.748,,38,market
screen,html.Screen,1_1_1_1_39,2021-04-22T12:36:13.443Z,,,,,,,,,,,,,,,,54,,,,,,,,,,,,,,445.5919999998587,,response,,,,100,,,,,,,Space,keypress(Space),,,,,,,,-- --- ---- --- ------ ----- ------- ---- -- --- ------- --<br>------- ---------- ------ -- ----- -- ----- -- ---- ------<br>--- ----- --- --- ------ -------- ----- --- ------ ----- --<br>----- ----- ---------- --- --- ------ became ---- -- ------<br>------- --- ------ ----- --- ---- ------- -- ---- --- --<br>------- ------,212475.9849999973,212470.33999999985,212008.037,212014.14499999373,212024.748,212492.656,,39,became
screen,html.Screen,1_1_1_1_40,2021-04-22T12:36:13.853Z,,,,,,,,,,,,,,,,54,,,,,,,,,,,,,,386.6089999959513,,response,,,,100,,,,,,,Space,keypress(Space),,,,,,,,-- --- ---- --- ------ ----- ------- ---- -- --- ------- --<br>------- ---------- ------ -- ----- -- ----- -- ---- ------<br>--- ----- --- --- ------ -------- ----- --- ------ ----- --<br>----- ----- ---------- --- --- ------ ------ wary -- ------<br>------- --- ------ ----- --- ---- ------- -- ---- --- --<br>------- ------,212886.37500000186,212879.26499999594,212475.945,212476.16500000004,212492.656,212893.72,,40,wary
screen,html.Screen,1_1_1_1_41,2021-04-22T12:36:14.487Z,,,,,,,,,,,,,,,,54,,,,,,,,,,,,,,619.4400000022433,,response,,,,100,,,,,,,Space,keypress(Space),,,,,,,,-- --- ---- --- ------ ----- ------- ---- -- --- ------- --<br>------- ---------- ------ -- ----- -- ----- -- ---- ------<br>--- ----- --- --- ------ -------- ----- --- ------ ----- --<br>----- ----- ---------- --- --- ------ ------ ---- of ------<br>------- --- ------ ----- --- ---- ------- -- ---- --- --<br>------- ------,213520.0199999963,213513.16000000224,212877.009,212886.60499997786,212893.72,213528.738,,41,of
screen,html.Screen,1_1_1_1_42,2021-04-22T12:36:14.907Z,,,,,,,,,,,,,,,,54,,,,,,,,,,,,,,405.53699997777585,,response,,,,100,,,,,,,Space,keypress(Space),,,,,,,,-- --- ---- --- ------ ----- ------- ---- -- --- ------- --<br>------- ---------- ------ -- ----- -- ----- -- ---- ------<br>--- ----- --- --- ------ -------- ----- --- ------ ----- --<br>----- ----- ---------- --- --- ------ ------ ---- -- French<br>------- --- ------ ----- --- ---- ------- -- ---- --- --<br>------- ------,213940.19999998272,213934.2749999778,213512.027,213520.18999998108,213528.738,213946.513,,42,French
screen,html.Screen,1_1_1_1_43,2021-04-22T12:36:15.285Z,,,,,,,,,,,,,,,,54,,,,,,,,,,,,,,365.67699999691104,,response,,,,100,,,,,,,Space,keypress(Space),,,,,,,,-- --- ---- --- ------ ----- ------- ---- -- --- ------- --<br>------- ---------- ------ -- ----- -- ----- -- ---- ------<br>--- ----- --- --- ------ -------- ----- --- ------ ----- --<br>----- ----- ---------- --- --- ------ ------ ---- -- ------<br>credit. --- ------ ----- --- ---- ------- -- ---- --- --<br>------- ------,214317.8749999788,214312.18999999692,213929.802,213940.48999997904,213946.513,214330.866,,43,credit.
screen,html.Screen,1_1_1_1_44,2021-04-22T12:36:15.867Z,,,,,,,,,,,,,,,,54,,,,,,,,,,,,,,563.1990000004007,,response,,,,100,,,,,,,Space,keypress(Space),,,,,,,,-- --- ---- --- ------ ----- ------- ---- -- --- ------- --<br>------- ---------- ------ -- ----- -- ----- -- ---- ------<br>--- ----- --- --- ------ -------- ----- --- ------ ----- --<br>----- ----- ---------- --- --- ------ ------ ---- -- ------<br>------- The ------ ----- --- ---- ------- -- ---- --- --<br>------- ------,214900.25499998592,214894.0650000004,214314.155,214318.05499998154,214330.866,214915.751,,44,The
screen,html.Screen,1_1_1_1_45,2021-04-22T12:36:16.349Z,,,,,,,,,,,,,,,,54,,,,,,,,,,,,,,459.32899999798974,,response,,,,100,,,,,,,Space,keypress(Space),,,,,,,,-- --- ---- --- ------ ----- ------- ---- -- --- ------- --<br>------- ---------- ------ -- ----- -- ----- -- ---- ------<br>--- ----- --- --- ------ -------- ----- --- ------ ----- --<br>----- ----- ---------- --- --- ------ ------ ---- -- ------<br>------- --- French ----- --- ---- ------- -- ---- --- --<br>------- ------,215381.47500000196,215375.07999999798,214899.04,214900.4249999998,214915.751,215383.659,,45,French
screen,html.Screen,1_1_1_1_46,2021-04-22T12:36:16.908Z,,,,,,,,,,,,,,,,54,,,,,,,,,,,,,,551.5409999780532,,response,,,,100,,,,,,,Space,keypress(Space),,,,,,,,-- --- ---- --- ------ ----- ------- ---- -- --- ------- --<br>------- ---------- ------ -- ----- -- ----- -- ---- ------<br>--- ----- --- --- ------ -------- ----- --- ------ ----- --<br>----- ----- ---------- --- --- ------ ------ ---- -- ------<br>------- --- ------ state --- ---- ------- -- ---- --- --<br>------- ------,215941.01499998942,215935.19999997807,215366.948,215381.65999998455,215383.659,215951.833,,46,state
screen,html.Screen,1_1_1_1_47,2021-04-22T12:36:17.292Z,,,,,,,,,,,,,,,,54,,,,,,,,,,,,,,367.34199998233817,,response,,,,100,,,,,,,Space,keypress(Space),,,,,,,,-- --- ---- --- ------ ----- ------- ---- -- --- ------- --<br>------- ---------- ------ -- ----- -- ----- -- ---- ------<br>--- ----- --- --- ------ -------- ----- --- ------ ----- --<br>----- ----- ---------- --- --- ------ ------ ---- -- ------<br>------- --- ------ ----- was ---- ------- -- ---- --- --<br>------- ------,216324.76499999757,216319.17499998235,215935.122,215941.19499999215,215951.833,216336.186,,47,was
screen,html.Screen,1_1_1_1_48,2021-04-22T12:36:17.702Z,,,,,,,,,,,,,,,,54,,,,,,,,,,,,,,394.74899999960326,,response,,,,100,,,,,,,Space,keypress(Space),,,,,,,,-- --- ---- --- ------ ----- ------- ---- -- --- ------- --<br>------- ---------- ------ -- ----- -- ----- -- ---- ------<br>--- ----- --- --- ------ -------- ----- --- ------ ----- --<br>----- ----- ---------- --- --- ------ ------ ---- -- ------<br>------- --- ------ ----- --- left ------- -- ---- --- --<br>------- ------,216734.9600000016,216730.9349999996,216319.475,216324.93499998236,216336.186,216737.25,,48,left
screen,html.Screen,1_1_1_1_49,2021-04-22T12:36:18.309Z,,,,,,,,,,,,,,,,54,,,,,,,,,,,,,,598.8799999814946,,response,,,,100,,,,,,,Space,keypress(Space),,,,,,,,-- --- ---- --- ------ ----- ------- ---- -- --- ------- --<br>------- ---------- ------ -- ----- -- ----- -- ---- ------<br>--- ----- --- --- ------ -------- ----- --- ------ ----- --<br>----- ----- ---------- --- --- ------ ------ ---- -- ------<br>------- --- ------ ----- --- ---- without -- ---- --- --<br>------- ------,217341.91499999724,217336.1299999815,216720.539,216735.05999997724,216737.25,217355.557,,49,without
screen,html.Screen,1_1_1_1_50,2021-04-22T12:36:18.738Z,,,,,,,,,,,,,,,,54,,,,,,,,,,,,,,409.52299998284434,,response,,,,100,,,,,,,Space,keypress(Space),,,,,,,,-- --- ---- --- ------ ----- ------- ---- -- --- ------- --<br>------- ---------- ------ -- ----- -- ----- -- ---- ------<br>--- ----- --- --- ------ -------- ----- --- ------ ----- --<br>----- ----- ---------- --- --- ------ ------ ---- -- ------<br>------- --- ------ ----- --- ---- ------- an ---- --- --<br>------- ------,217770.79999999842,217765.07999998285,217338.846,217342.09499999997,217355.557,217773.332,,50,an
screen,html.Screen,1_1_1_1_51,2021-04-22T12:36:19.179Z,,,,,,,,,,,,,,,,54,,,,,,,,,,,,,,432.767999981239,,response,,,,100,,,,,,,Space,keypress(Space),,,,,,,,-- --- ---- --- ------ ----- ------- ---- -- --- ------- --<br>------- ---------- ------ -- ----- -- ----- -- ---- ------<br>--- ----- --- --- ------ -------- ----- --- ------ ----- --<br>----- ----- ---------- --- --- ------ ------ ---- -- ------<br>------- --- ------ ----- --- ---- ------- -- easy --- --<br>------- ------,218211.93999997922,218206.09999998123,217756.621,217770.97499999218,217773.332,218224.529,,51,easy
screen,html.Screen,1_1_1_1_52,2021-04-22T12:36:19.534Z,,,,,,,,,,,,,,,,54,,,,,,,,,,,,,,336.52599999829545,,response,,,,100,,,,,,,Space,keypress(Space),,,,,,,,-- --- ---- --- ------ ----- ------- ---- -- --- ------- --<br>------- ---------- ------ -- ----- -- ----- -- ---- ------<br>--- ----- --- --- ------ -------- ----- --- ------ ----- --<br>----- ----- ---------- --- --- ------ ------ ---- -- ------<br>------- --- ------ ----- --- ---- ------- -- ---- way --<br>------- ------,218566.72000000253,218561.0549999983,218207.818,218212.11999998195,218224.529,218575.46,,52,way
screen,html.Screen,1_1_1_1_53,2021-04-22T12:36:19.958Z,,,,,,,,,,,,,,,,54,,,,,,,,,,,,,,409.60499998621526,,response,,,,100,,,,,,,Space,keypress(Space),,,,,,,,-- --- ---- --- ------ ----- ------- ---- -- --- ------- --<br>------- ---------- ------ -- ----- -- ----- -- ---- ------<br>--- ----- --- --- ------ -------- ----- --- ------ ----- --<br>----- ----- ---------- --- --- ------ ------ ---- -- ------<br>------- --- ------ ----- --- ---- ------- -- ---- --- of<br>------- ------,218990.65500000142,218985.0649999862,218558.749,218566.88999998732,218575.46,218993.235,,53,of
screen,html.Screen,1_1_1_1_54,2021-04-22T12:36:20.471Z,,,,,,,,,,,,,,,,54,,,,,,,,,,,,,,504.81499999470543,,response,,,,100,,,,,,,Space,keypress(Space),,,,,,,,-- --- ---- --- ------ ----- ------- ---- -- --- ------- --<br>------- ---------- ------ -- ----- -- ----- -- ---- ------<br>--- ----- --- --- ------ -------- ----- --- ------ ----- --<br>----- ----- ---------- --- --- ------ ------ ---- -- ------<br>------- --- ------ ----- --- ---- ------- -- ---- --- --<br>raising ------,219503.7500000035,219498.0499999947,218976.524,218990.844999993,218993.235,219511.507,,54,raising
screen,html.Screen,1_1_1_1_55,2021-04-22T12:36:20.860Z,,,,,,,,,,,,,,,,54,,,,,,,,,,,,,,375.45300000344287,,response,,,,100,,,,,,,Space,keypress(Space),,,,,,,,-- --- ---- --- ------ ----- ------- ---- -- --- ------- --<br>------- ---------- ------ -- ----- -- ----- -- ---- ------<br>--- ----- --- --- ------ -------- ----- --- ------ ----- --<br>----- ----- ---------- --- --- ------ ------ ---- -- ------<br>------- --- ------ ----- --- ---- ------- -- ---- --- --<br>------- money.,219893.2349999959,219886.96000000346,219494.796,219503.91999998828,219511.507,219895.86,,55,money.
Item 100,flow.Loop,1_1_1_1,2021-04-22T12:36:20.861Z,,,,,,,,,,,,,,,,,,,,,,,,,,,,,,28767.990000003454,,completion,,,,,F,,,,,,,,,,,silence,,,,,219893.56499997666,219886.96000000346,191102.259,191104.73999998067,191118.97,219895.86,,,
Question 1,html.Screen,1_1_1_2,2021-04-22T12:36:24.829Z,,,,,,,,,,,,,,,,,,,,,,,,,,,false,TRUE,,3962.2199999763397,,response,,,,100,F,,,,,,FALSE,click #choice-2,,,,silence,,,,,223861.48999998113,223858.07999997633,219879.149,219893.69499997701,219895.86,223873.078,,,
Question 2,html.Screen,1_1_1_3,2021-04-22T12:36:27.881Z,,,,,,,,,,,,,,,,,,,,,,,,,,,true,FALSE,,3037.6369999763265,,response,,,,100,F,,,,,,FALSE,click #choice-2,,,,silence,,,,,226913.50499997498,226910.71499997634,223856.367,223861.68499998166,223873.078,226931.191,,,
Item 100,flow.Sequence,1_1_1,2021-04-22T12:36:27.881Z,,,,,,,,,,,,,,,,,,,,,,,,,,,,,,45785.108999976335,,completion,,,,,,,,,,,,,,,,,,,,,226913.69499999564,226910.71499997634,181108.895,181120.31999998726,181125.606,226931.191,,,
End of Practice,html.Page,1_1_2,2021-04-22T12:36:30.094Z,,,,,,,,,,,,,,,,,,,,,,,,,,,,,,2195.423999986495,,form submission,,,,,,,,,,,,,,,,,,,,,229126.9349999784,229126.6149999865,226914.48,226913.78499998245,226931.191,229137.207,,,
Practice,flow.Sequence,1_1,2021-04-22T12:36:30.095Z,,,,,,,,,,,,,,,,,,,,,,,,,,,,,,104401.59199998649,,completion,,,,,,,,,,,,,,,,,,,,,229127.20499999705,229126.6149999865,124674.89,124705.48499998404,124725.023,229137.207,,,
Trap_instruction,html.Page,1_2_0,2021-04-22T12:36:35.563Z,,,,,,,,,,,,,,,,,,,,,,,,,,,,,,5457.937999999325,,form submission,,,,,,,,,,,,,,,,,,,,,234595.4550000024,234595.14499999932,229120.496,229127.38499999978,229137.207,234668.548,,,
trap_trial,html.Screen,1_2_1,2021-04-22T12:36:38.359Z,,,,,,,,,,,,,,,,,,,,,,,,,,,true,1,,2719.7719999981928,,response,,,,,,,,,,,1,click #choice-1,,,,,,,,,237391.7599999986,237388.3199999982,234584.993,234595.61499999836,234668.548,237392.441,,,
end of trap trial,html.Page,1_2_2,2021-04-22T12:36:39.992Z,,,,,,,,,,,,,,,,,,,,,,,,,,,,,,1631.7139999918872,,form submission,,,,,,,,,,,,,,,,,,,,,239024.45499997702,239024.15499999188,237375.73,237391.9449999812,237392.441,239030.119,,,
Trap 1,flow.Sequence,1_2,2021-04-22T12:36:39.992Z,,,,,,,,,,,,,,,,,,,,,,,,,,,,,,9886.947999991884,,completion,,,,,,,,,,,,,,,,,,,,,239024.69999997993,239024.15499999188,229120.496,229127.32999998843,229137.207,239030.119,,,
Standby,html.Page,1_3_0,2021-04-22T12:36:47.988Z,,,,,,,,,,,,,,,,,,,,,,,,,,,,,,8004.760999999999,,timeout,,,,,,,,,,,,,,,,,,,,,247019.91499998257,247018.169,239013.408,239024.89499998046,239030.119,247034.88,,,
Holding screen,html.Screen,1_3_1_0_0,2021-04-22T12:36:54.990Z,,,,,,,,,,,,,,,,,,,,,,,,,,,,,,7002.035999999993,,timeout,,,,,,,,,,,,,,,,,,,,,254022.30499999132,254020.205,247018.169,247020.22999999463,247034.88,254036.916,,,
screen,html.Screen,1_3_1_0_1_0,2021-04-22T12:36:56.106Z,,,,,,,,,,,,,,,,51,,,,,,,,,,,,,,1093.4939999833878,,response,,,,13,F,,,,,,Space,keypress(Space),,,,instrumental,,,,American -------- --- --- ---- --- --- ------ -- --------<br>---- --------- --- ------- ------------ ---------- ---------<br>--- ---------- ------- ---------- ------- -- -------- ----<br>---- --- ------ ----- ------ -- ---- --- ----- -- - -------<br>-------- -- --- --- -- ----- ----------- ----- -----------<br>---- --- ---------- --- ---- --- -- ----------,255138.01999998395,255130.40999998339,254020.205,254022.570000001,254036.916,255139.842,,0,American
screen,html.Screen,1_3_1_0_1_1,2021-04-22T12:36:56.509Z,,,,,,,,,,,,,,,,51,,,,,,,,,,,,,,395.49299999320647,,response,,,,13,F,,,,,,Space,keypress(Space),,,,instrumental,,,,-------- industry --- --- ---- --- --- ------ -- --------<br>---- --------- --- ------- ------------ ---------- ---------<br>--- ---------- ------- ---------- ------- -- -------- ----<br>---- --- ------ ----- ------ -- ---- --- ----- -- - -------<br>-------- -- --- --- -- ----- ----------- ----- -----------<br>---- --- ---------- --- ---- --- -- ----------,255541.02499998407,255535.3349999932,255123.131,255138.21999999345,255139.842,255557.617,,1,industry
screen,html.Screen,1_3_1_0_1_2,2021-04-22T12:36:56.864Z,,,,,,,,,,,,,,,,51,,,,,,,,,,,,,,332.69799999691895,,response,,,,13,F,,,,,,Space,keypress(Space),,,,instrumental,,,,-------- -------- may --- ---- --- --- ------ -- --------<br>---- --------- --- ------- ------------ ---------- ---------<br>--- ---------- ------- ---------- ------- -- -------- ----<br>---- --- ------ ----- ------ -- ---- --- ----- -- - -------<br>-------- -- --- --- -- ----- ----------- ----- -----------<br>---- --- ---------- --- ---- --- -- ----------,255896.0499999812,255890.31499999692,255540.906,255541.20999999577,255557.617,255908.548,,2,may
screen,html.Screen,1_3_1_0_1_3,2021-04-22T12:36:57.250Z,,,,,,,,,,,,,,,,51,,,,,,,,,,,,,,367.8520000024582,,response,,,,13,F,,,,,,Space,keypress(Space),,,,instrumental,,,,-------- -------- --- not ---- --- --- ------ -- --------<br>---- --------- --- ------- ------------ ---------- ---------<br>--- ---------- ------- ---------- ------- -- -------- ----<br>---- --- ------ ----- ------ -- ---- --- ----- -- - -------<br>-------- -- --- --- -- ----- ----------- ----- -----------<br>---- --- ---------- --- ---- --- -- ----------,256282.3249999783,256276.40000000247,255891.837,255896.21999999508,255908.548,256292.901,,3,not
screen,html.Screen,1_3_1_0_1_4,2021-04-22T12:36:57.788Z,,,,,,,,,,,,,,,,51,,,,,,,,,,,,,,521.373999982432,,response,,,,13,F,,,,,,Space,keypress(Space),,,,instrumental,,,,-------- -------- --- --- know --- --- ------ -- --------<br>---- --------- --- ------- ------------ ---------- ---------<br>--- ---------- ------- ---------- ------- -- -------- ----<br>---- --- ------ ----- ------ -- ---- --- ----- -- - -------<br>-------- -- --- --- -- ----- ----------- ----- -----------<br>---- --- ---------- --- ---- --- -- ----------,256820.23499999195,256814.27499998244,256276.19,256282.50499998103,256292.901,256827.653,,4,know
screen,html.Screen,1_3_1_0_1_5,2021-04-22T12:36:58.253Z,,,,,,,,,,,,,,,,51,,,,,,,,,,,,,,451.5719999765861,,response,,,,13,F,,,,,,Space,keypress(Space),,,,instrumental,,,,"-------- -------- --- --- ---- it, --- ------ -- --------<br>---- --------- --- ------- ------------ ---------- ---------<br>--- ---------- ------- ---------- ------- -- -------- ----<br>---- --- ------ ----- ------ -- ---- --- ----- -- - -------<br>-------- -- --- --- -- ----- ----------- ----- -----------<br>---- --- ---------- --- ---- --- -- ----------",257285.1499999815,257279.22499997658,256810.942,256820.40499997674,256827.653,257295.561,,5,"it,"
screen,html.Screen,1_3_1_0_1_6,2021-04-22T12:36:58.712Z,,,,,,,,,,,,,,,,51,,,,,,,,,,,,,,441.6789999876637,,response,,,,13,F,,,,,,Space,keypress(Space),,,,instrumental,,,,-------- -------- --- --- ---- --- but ------ -- --------<br>---- --------- --- ------- ------------ ---------- ---------<br>--- ---------- ------- ---------- ------- -- -------- ----<br>---- --- ------ ----- ------ -- ---- --- ----- -- - -------<br>-------- -- --- --- -- ----- ----------- ----- -----------<br>---- --- ---------- --- ---- --- -- ----------,257743.3799999999,257737.23999998765,257278.85,257285.32499997527,257295.561,257746.758,,6,but
screen,html.Screen,1_3_1_0_1_7,2021-04-22T12:36:59.034Z,,,,,,,,,,,,,,,,51,,,,,,,,,,,,,,313.4720000027737,,response,,,,13,F,,,,,,Space,keypress(Space),,,,instrumental,,,,-------- -------- --- --- ---- --- --- debate -- --------<br>---- --------- --- ------- ------------ ---------- ---------<br>--- ---------- ------- ---------- ------- -- -------- ----<br>---- --- ------ ----- ------ -- ---- --- ----- -- - -------<br>-------- -- --- --- -- ----- ----------- ----- -----------<br>---- --- ---------- --- ---- --- -- ----------,258066.124999983,258060.23000000278,257730.047,257743.55499999365,257746.758,258080.978,,7,debate
screen,html.Screen,1_3_1_0_1_8,2021-04-22T12:36:59.469Z,,,,,,,,,,,,,,,,51,,,,,,,,,,,,,,414.22199997573625,,response,,,,13,F,,,,,,Space,keypress(Space),,,,instrumental,,,,-------- -------- --- --- ---- --- --- ------ in --------<br>---- --------- --- ------- ------------ ---------- ---------<br>--- ---------- ------- ---------- ------- -- -------- ----<br>---- --- ------ ----- ------ -- ---- --- ----- -- - -------<br>-------- -- --- --- -- ----- ----------- ----- -----------<br>---- --- ---------- --- ---- --- -- ----------,258501.1499999964,258495.19999997574,258064.267,258066.2949999969,258080.978,258515.464,,8,in
screen,html.Screen,1_3_1_0_1_9,2021-04-22T12:36:59.937Z,,,,,,,,,,,,,,,,51,,,,,,,,,,,,,,446.7160000022559,,response,,,,13,F,,,,,,Space,keypress(Space),,,,instrumental,,,,-------- -------- --- --- ---- --- --- ------ -- Congress<br>---- --------- --- ------- ------------ ---------- ---------<br>--- ---------- ------- ---------- ------- -- -------- ----<br>---- --- ------ ----- ------ -- ---- --- ----- -- - -------<br>-------- -- --- --- -- ----- ----------- ----- -----------<br>---- --- ---------- --- ---- --- -- ----------,258968.80000000237,258962.18000000226,258498.753,258501.3199999812,258515.464,258983.372,,9,Congress
screen,html.Screen,1_3_1_0_1_10,2021-04-22T12:37:00.476Z,,,,,,,,,,,,,,,,51,,,,,,,,,,,,,,518.8079999813053,,response,,,,13,F,,,,,,Space,keypress(Space),,,,instrumental,,,,-------- -------- --- --- ---- --- --- ------ -- --------<br>over --------- --- ------- ------------ ---------- ---------<br>--- ---------- ------- ---------- ------- -- -------- ----<br>---- --- ------ ----- ------ -- ---- --- ----- -- - -------<br>-------- -- --- --- -- ----- ----------- ----- -----------<br>---- --- ---------- --- ---- --- -- ----------,259508.1449999998,259502.1799999813,258966.661,258968.979999976,258983.372,259518.124,,10,over
screen,html.Screen,1_3_1_0_1_11,2021-04-22T12:37:00.954Z,,,,,,,,,,,,,,,,51,,,,,,,,,,,,,,461.95599997934187,,response,,,,13,F,,,,,,Space,keypress(Space),,,,instrumental,,,,-------- -------- --- --- ---- --- --- ------ -- --------<br>---- reforming --- ------- ------------ ---------- ---------<br>--- ---------- ------- ---------- ------- -- -------- ----<br>---- --- ------ ----- ------ -- ---- --- ----- -- - -------<br>-------- -- --- --- -- ----- ----------- ----- -----------<br>---- --- ---------- --- ---- --- -- ----------,259985.8949999907,259980.07999997935,259501.413,259508.32999998238,259518.124,260002.743,,11,reforming
screen,html.Screen,1_3_1_0_1_12,2021-04-22T12:37:01.443Z,,,,,,,,,,,,,,,,51,,,,,,,,,,,,,,466.3719999853347,,response,,,,13,F,,,,,,Space,keypress(Space),,,,instrumental,,,,-------- -------- --- --- ---- --- --- ------ -- --------<br>---- --------- the ------- ------------ ---------- ---------<br>--- ---------- ------- ---------- ------- -- -------- ----<br>---- --- ------ ----- ------ -- ---- --- ----- -- - -------<br>-------- -- --- --- -- ----- ----------- ----- -----------<br>---- --- ---------- --- ---- --- -- ----------,260474.94499999448,260469.11499998532,259986.032,259986.16499998025,260002.743,260487.6,,12,the
screen,html.Screen,1_3_1_0_1_13,2021-04-22T12:37:01.937Z,,,,,,,,,,,,,,,,51,,,,,,,,,,,,,,475.49999999356805,,response,,,,13,F,,,,,,Space,keypress(Space),,,,instrumental,,,,-------- -------- --- --- ---- --- --- ------ -- --------<br>---- --------- --- federal ------------ ---------- ---------<br>--- ---------- ------- ---------- ------- -- -------- ----<br>---- --- ------ ----- ------ -- ---- --- ----- -- - -------<br>-------- -- --- --- -- ----- ----------- ----- -----------<br>---- --- ---------- --- ---- --- -- ----------,260969.00499999174,260963.09999999357,260470.889,260475.11499997927,260487.6,260972.219,,13,federal
screen,html.Screen,1_3_1_0_1_14,2021-04-22T12:37:02.456Z,,,,,,,,,,,,,,,,51,,,,,,,,,,,,,,509.77599998007645,,response,,,,13,F,,,,,,Space,keypress(Space),,,,instrumental,,,,-------- -------- --- --- ---- --- --- ------ -- --------<br>---- --------- --- ------- government's ---------- ---------<br>--- ---------- ------- ---------- ------- -- -------- ----<br>---- --- ------ ----- ------ -- ---- --- ----- -- - -------<br>-------- -- --- --- -- ----- ----------- ----- -----------<br>---- --- ---------- --- ---- --- -- ----------,261488.10499999672,261481.9949999801,260955.508,260969.17499997653,260972.219,261490.26,,14,government's
screen,html.Screen,1_3_1_0_1_15,2021-04-22T12:37:03.086Z,,,,,,,,,,,,,,,,51,,,,,,,,,,,,,,621.7499999825377,,response,,,,13,F,,,,,,Space,keypress(Space),,,,instrumental,,,,-------- -------- --- --- ---- --- --- ------ -- --------<br>---- --------- --- ------- ------------ regulatory ---------<br>--- ---------- ------- ---------- ------- -- -------- ----<br>---- --- ------ ----- ------ -- ---- --- ----- -- - -------<br>-------- -- --- --- -- ----- ----------- ----- -----------<br>---- --- ---------- --- ---- --- -- ----------,262117.85999999847,262112.00999998255,261473.549,261488.2749999815,261490.26,262125.278,,15,regulatory
screen,html.Screen,1_3_1_0_1_16,2021-04-22T12:37:03.793Z,,,,,,,,,,,,,,,,51,,,,,,,,,,,,,,693.5569999836734,,response,,,,13,F,,,,,,Space,keypress(Space),,,,instrumental,,,,-------- -------- --- --- ---- --- --- ------ -- --------<br>---- --------- --- ------- ------------ ---------- apparatus<br>--- ---------- ------- ---------- ------- -- -------- ----<br>---- --- ------ ----- ------ -- ---- --- ----- -- - -------<br>-------- -- --- --- -- ----- ----------- ----- -----------<br>---- --- ---------- --- ---- --- -- ----------,262824.4849999901,262818.83499998366,262108.567,262118.03499999223,262125.278,262827.14,,16,apparatus
screen,html.Screen,1_3_1_0_1_17,2021-04-22T12:37:04.228Z,,,,,,,,,,,,,,,,51,,,,,,,,,,,,,,427.7450000020908,,response,,,,13,F,,,,,,Space,keypress(Space),,,,instrumental,,,,-------- -------- --- --- ---- --- --- ------ -- --------<br>---- --------- --- ------- ------------ ---------- ---------<br>may ---------- ------- ---------- ------- -- -------- ----<br>---- --- ------ ----- ------ -- ---- --- ----- -- - -------<br>-------- -- --- --- -- ----- ----------- ----- -----------<br>---- --- ---------- --- ---- --- -- ----------,263259.4199999876,263254.8850000021,262810.429,262824.59999999264,262827.14,263261.626,,17,may
screen,html.Screen,1_3_1_0_1_18,2021-04-22T12:37:04.682Z,,,,,,,,,,,,,,,,51,,,,,,,,,,,,,,446.17400000378257,,response,,,,13,F,,,,,,Space,keypress(Space),,,,instrumental,,,,-------- -------- --- --- ---- --- --- ------ -- --------<br>---- --------- --- ------- ------------ ---------- ---------<br>--- profoundly ------- ---------- ------- -- -------- ----<br>---- --- ------ ----- ------ -- ---- --- ----- -- - -------<br>-------- -- --- --- -- ----- ----------- ----- -----------<br>---- --- ---------- --- ---- --- -- ----------,263713.56499998365,263707.8000000038,263244.915,263259.76499999524,263261.626,263729.534,,18,profoundly
screen,html.Screen,1_3_1_0_1_19,2021-04-22T12:37:05.203Z,,,,,,,,,,,,,,,,51,,,,,,,,,,,,,,498.2659999933094,,response,,,,13,F,,,,,,Space,keypress(Space),,,,instrumental,,,,-------- -------- --- --- ---- --- --- ------ -- --------<br>---- --------- --- ------- ------------ ---------- ---------<br>--- ---------- improve ---------- ------- -- -------- ----<br>---- --- ------ ----- ------ -- ---- --- ----- -- - -------<br>-------- -- --- --- -- ----- ----------- ----- -----------<br>---- --- ---------- --- ---- --- -- ----------,264235.07499997504,264227.7999999933,263712.823,263713.7549999752,263729.534,264247.575,,19,improve
screen,html.Screen,1_3_1_0_1_20,2021-04-22T12:37:05.739Z,,,,,,,,,,,,,,,,51,,,,,,,,,,,,,,517.3249999801046,,response,,,,13,F,,,,,,Space,keypress(Space),,,,instrumental,,,,-------- -------- --- --- ---- --- --- ------ -- --------<br>---- --------- --- ------- ------------ ---------- ---------<br>--- ---------- ------- companies' ------- -- -------- ----<br>---- --- ------ ----- ------ -- ---- --- ----- -- - -------<br>-------- -- --- --- -- ----- ----------- ----- -----------<br>---- --- ---------- --- ---- --- -- ----------,264770.76499999384,264764.8999999801,264230.864,264235.41500000283,264247.575,264782.327,,20,companies'
screen,html.Screen,1_3_1_0_1_21,2021-04-22T12:37:06.187Z,,,,,,,,,,,,,,,,51,,,,,,,,,,,,,,432.4079999868409,,response,,,,13,F,,,,,,Space,keypress(Space),,,,instrumental,,,,-------- -------- --- --- ---- --- --- ------ -- --------<br>---- --------- --- ------- ------------ ---------- ---------<br>--- ---------- ------- ---------- ability -- -------- ----<br>---- --- ------ ----- ------ -- ---- --- ----- -- - -------<br>-------- -- --- --- -- ----- ----------- ----- -----------<br>---- --- ---------- --- ---- --- -- ----------,265219.04999998515,265214.73499998683,264765.616,264770.93499997864,264782.327,265233.524,,21,ability
screen,html.Screen,1_3_1_0_1_22,2021-04-22T12:37:06.639Z,,,,,,,,,,,,,,,,51,,,,,,,,,,,,,,432.17599998321384,,response,,,,13,F,,,,,,Space,keypress(Space),,,,instrumental,,,,-------- -------- --- --- ---- --- --- ------ -- --------<br>---- --------- --- ------- ------------ ---------- ---------<br>--- ---------- ------- ---------- ------- to -------- ----<br>---- --- ------ ----- ------ -- ---- --- ----- -- - -------<br>-------- -- --- --- -- ----- ----------- ----- -----------<br>---- --- ---------- --- ---- --- -- ----------,265670.2349999978,265665.6999999832,265216.813,265219.1499999899,265233.524,265684.721,,22,to
screen,html.Screen,1_3_1_0_1_23,2021-04-22T12:37:07.046Z,,,,,,,,,,,,,,,,51,,,,,,,,,,,,,,388.9739999991143,,response,,,,13,F,,,,,,Space,keypress(Space),,,,instrumental,,,,-------- -------- --- --- ---- --- --- ------ -- --------<br>---- --------- --- ------- ------------ ---------- ---------<br>--- ---------- ------- ---------- ------- -- survive. ----<br>---- --- ------ ----- ------ -- ---- --- ----- -- - -------<br>-------- -- --- --- -- ----- ----------- ----- -----------<br>---- --- ---------- --- ---- --- -- ----------,266077.85499998135,266073.69499999913,265668.01,265670.37499998696,265684.721,266085.785,,23,survive.
screen,html.Screen,1_3_1_0_1_24,2021-04-22T12:37:07.508Z,,,,,,,,,,,,,,,,51,,,,,,,,,,,,,,447.06499998871004,,response,,,,13,F,,,,,,Space,keypress(Space),,,,instrumental,,,,-------- -------- --- --- ---- --- --- ------ -- --------<br>---- --------- --- ------- ------------ ---------- ---------<br>--- ---------- ------- ---------- ------- -- -------- This<br>---- --- ------ ----- ------ -- ---- --- ----- -- - -------<br>-------- -- --- --- -- ----- ----------- ----- -----------<br>---- --- ---------- --- ---- --- -- ----------,266539.70999998273,266532.8499999887,266069.074,266077.94999997714,266085.785,266553.693,,24,This
screen,html.Screen,1_3_1_0_1_25,2021-04-22T12:37:07.884Z,,,,,,,,,,,,,,,,51,,,,,,,,,,,,,,356.14699997840216,,response,,,,13,F,,,,,,Space,keypress(Space),,,,instrumental,,,,-------- -------- --- --- ---- --- --- ------ -- --------<br>---- --------- --- ------- ------------ ---------- ---------<br>--- ---------- ------- ---------- ------- -- -------- ----<br>week --- ------ ----- ------ -- ---- --- ----- -- - -------<br>-------- -- --- --- -- ----- ----------- ----- -----------<br>---- --- ---------- --- ---- --- -- ----------,266915.6649999786,266909.83999997843,266536.982,266539.90499998326,266553.693,266921.335,,25,week
screen,html.Screen,1_3_1_0_1_26,2021-04-22T12:37:08.280Z,,,,,,,,,,,,,,,,51,,,,,,,,,,,,,,384.52499999309657,,response,,,,13,F,,,,,,Space,keypress(Space),,,,instrumental,,,,-------- -------- --- --- ---- --- --- ------ -- --------<br>---- --------- --- ------- ------------ ---------- ---------<br>--- ---------- ------- ---------- ------- -- -------- ----<br>---- the ------ ----- ------ -- ---- --- ----- -- - -------<br>-------- -- --- --- -- ----- ----------- ----- -----------<br>---- --- ---------- --- ---- --- -- ----------,267311.9349999761,267305.8599999931,266904.624,266915.87499997695,266921.335,267322.399,,26,the
screen,html.Screen,1_3_1_0_1_27,2021-04-22T12:37:08.817Z,,,,,,,,,,,,,,,,51,,,,,,,,,,,,,,520.3809999772348,,response,,,,13,F,,,,,,Space,keypress(Space),,,,instrumental,,,,-------- -------- --- --- ---- --- --- ------ -- --------<br>---- --------- --- ------- ------------ ---------- ---------<br>--- ---------- ------- ---------- ------- -- -------- ----<br>---- --- Senate ----- ------ -- ---- --- ----- -- - -------<br>-------- -- --- --- -- ----- ----------- ----- -----------<br>---- --- ---------- --- ---- --- -- ----------,267848.8999999827,267842.7799999772,267305.688,267312.10999999894,267322.399,267857.151,,27,Senate
screen,html.Screen,1_3_1_0_1_28,2021-04-22T12:37:09.223Z,,,,,,,,,,,,,,,,51,,,,,,,,,,,,,,391.61399999662535,,response,,,,13,F,,,,,,Space,keypress(Space),,,,instrumental,,,,-------- -------- --- --- ---- --- --- ------ -- --------<br>---- --------- --- ------- ------------ ---------- ---------<br>--- ---------- ------- ---------- ------- -- -------- ----<br>---- --- ------ seems ------ -- ---- --- ----- -- - -------<br>-------- -- --- --- -- ----- ----------- ----- -----------<br>---- --- ---------- --- ---- --- -- ----------,268254.76999999955,268248.76499999664,267840.44,267849.07499997644,267857.151,268258.215,,28,seems
screen,html.Screen,1_3_1_0_1_29,2021-04-22T12:37:09.705Z,,,,,,,,,,,,,,,,51,,,,,,,,,,,,,,472.5499999856693,,response,,,,13,F,,,,,,Space,keypress(Space),,,,instrumental,,,,-------- -------- --- --- ---- --- --- ------ -- --------<br>---- --------- --- ------- ------------ ---------- ---------<br>--- ---------- ------- ---------- ------- -- -------- ----<br>---- --- ------ ----- poised -- ---- --- ----- -- - -------<br>-------- -- --- --- -- ----- ----------- ----- -----------<br>---- --- ---------- --- ---- --- -- ----------,268736.6499999771,268730.7649999857,268241.504,268254.93999998434,268258.215,268742.834,,29,poised
screen,html.Screen,1_3_1_0_1_30,2021-04-22T12:37:10.157Z,,,,,,,,,,,,,,,,51,,,,,,,,,,,,,,439.905999989307,,response,,,,13,F,,,,,,Space,keypress(Space),,,,instrumental,,,,-------- -------- --- --- ---- --- --- ------ -- --------<br>---- --------- --- ------- ------------ ---------- ---------<br>--- ---------- ------- ---------- ------- -- -------- ----<br>---- --- ------ ----- ------ to ---- --- ----- -- - -------<br>-------- -- --- --- -- ----- ----------- ----- -----------<br>---- --- ---------- --- ---- --- -- ----------,269189.0399999975,269182.7399999893,268726.123,268736.82499999995,268742.834,269194.031,,30,to
screen,html.Screen,1_3_1_0_1_31,2021-04-22T12:37:10.542Z,,,,,,,,,,,,,,,,51,,,,,,,,,,,,,,373.6940000007744,,response,,,,13,F,,,,,,Space,keypress(Space),,,,instrumental,,,,-------- -------- --- --- ---- --- --- ------ -- --------<br>---- --------- --- ------- ------------ ---------- ---------<br>--- ---------- ------- ---------- ------- -- -------- ----<br>---- --- ------ ----- ------ -- join --- ----- -- - -------<br>-------- -- --- --- -- ----- ----------- ----- -----------<br>---- --- ---------- --- ---- --- -- ----------,269573.619999981,269567.7250000008,269177.32,269189.2200000002,269194.031,269578.384,,31,join
screen,html.Screen,1_3_1_0_1_32,2021-04-22T12:37:10.936Z,,,,,,,,,,,,,,,,51,,,,,,,,,,,,,,383.33099998306716,,response,,,,13,F,,,,,,Space,keypress(Space),,,,instrumental,,,,-------- -------- --- --- ---- --- --- ------ -- --------<br>---- --------- --- ------- ------------ ---------- ---------<br>--- ---------- ------- ---------- ------- -- -------- ----<br>---- --- ------ ----- ------ -- ---- the ----- -- - -------<br>-------- -- --- --- -- ----- ----------- ----- -----------<br>---- --- ---------- --- ---- --- -- ----------,269967.54499999224,269961.7149999831,269561.673,269573.8199999905,269578.384,269979.448,,32,the
screen,html.Screen,1_3_1_0_1_33,2021-04-22T12:37:11.340Z,,,,,,,,,,,,,,,,51,,,,,,,,,,,,,,386.081999980961,,response,,,,13,F,,,,,,Space,keypress(Space),,,,instrumental,,,,-------- -------- --- --- ---- --- --- ------ -- --------<br>---- --------- --- ------- ------------ ---------- ---------<br>--- ---------- ------- ---------- ------- -- -------- ----<br>---- --- ------ ----- ------ -- ---- --- House -- - -------<br>-------- -- --- --- -- ----- ----------- ----- -----------<br>---- --- ---------- --- ---- --- -- ----------,270371.8799999915,270365.52999998094,269962.737,269967.70999999717,269979.448,270380.59,,33,House
screen,html.Screen,1_3_1_0_1_34,2021-04-22T12:37:11.791Z,,,,,,,,,,,,,,,,51,,,,,,,,,,,,,,436.06999998219544,,response,,,,13,F,,,,,,Space,keypress(Space),,,,instrumental,,,,-------- -------- --- --- ---- --- --- ------ -- --------<br>---- --------- --- ------- ------------ ---------- ---------<br>--- ---------- ------- ---------- ------- -- -------- ----<br>---- --- ------ ----- ------ -- ---- --- ----- in - -------<br>-------- -- --- --- -- ----- ----------- ----- -----------<br>---- --- ---------- --- ---- --- -- ----------,270822.52499999595,270816.6599999822,270363.879,270372.0349999785,270380.59,270831.787,,34,in
screen,html.Screen,1_3_1_0_1_35,2021-04-22T12:37:12.151Z,,,,,,,,,,,,,,,,51,,,,,,,,,,,,,,344.74299999698997,,response,,,,13,F,,,,,,Space,keypress(Space),,,,instrumental,,,,-------- -------- --- --- ---- --- --- ------ -- --------<br>---- --------- --- ------- ------------ ---------- ---------<br>--- ---------- ------- ---------- ------- -- -------- ----<br>---- --- ------ ----- ------ -- ---- --- ----- -- a -------<br>-------- -- --- --- -- ----- ----------- ----- -----------<br>---- --- ---------- --- ---- --- -- ----------,271182.1999999811,271176.529999997,270815.076,270822.6999999897,270831.787,271199.429,,35,a
screen,html.Screen,1_3_1_0_1_36,2021-04-22T12:37:12.577Z,,,,,,,,,,,,,,,,51,,,,,,,,,,,,,,403.1409999881871,,response,,,,13,F,,,,,,Space,keypress(Space),,,,instrumental,,,,-------- -------- --- --- ---- --- --- ------ -- --------<br>---- --------- --- ------- ------------ ---------- ---------<br>--- ---------- ------- ---------- ------- -- -------- ----<br>---- --- ------ ----- ------ -- ---- --- ----- -- - massive<br>-------- -- --- --- -- ----- ----------- ----- -----------<br>---- --- ---------- --- ---- --- -- ----------,271608.76999999164,271602.5699999882,271182.718,271182.364999986,271199.429,271617.204,,36,massive
screen,html.Screen,1_3_1_0_1_37,2021-04-22T12:37:13.032Z,,,,,,,,,,,,,,,,51,,,,,,,,,,,,,,440.415999977733,,response,,,,13,F,,,,,,Space,keypress(Space),,,,instrumental,,,,-------- -------- --- --- ---- --- --- ------ -- --------<br>---- --------- --- ------- ------------ ---------- ---------<br>--- ---------- ------- ---------- ------- -- -------- ----<br>---- --- ------ ----- ------ -- ---- --- ----- -- - -------<br>overhaul -- --- --- -- ----- ----------- ----- -----------<br>---- --- ---------- --- ---- --- -- ----------,272063.4549999959,272057.61999997776,271600.493,271609.0200000035,271617.204,272068.401,,37,overhaul
