sender,sender_type,sender_id,timestamp,meta,,Blues,Classical,Country,Dance,Electronic,Folk,Gospel,Hip-Hop,Jazz,Latin,Musical/Film,New-age,Pop,Provo_ID,R&B,Rap,Reggae,Religious,Rock,Soul,Swing,Traditional,age,artist_name,correct,correctResponse,distraction,duration,education,ended_on,familiarity,gender,headphone_check_performance,item,list,music_frequency,offensiveness,pleasantness,position_correct,preference,response,response_action,snippet_file,song_name,song_rating,sound,stimulus_1,stimulus_2,stimulus_3,text,time_commit,time_end,time_render,time_run,time_show,time_switch,url,word,word_ID
Introduction,html.Screen,0_0,2021-04-13T12:38:13.319Z,"{""labjs_version"":""20.2.2"",""labjs_build"":{""flavor"":""production"",""commit"":""a25486e0c714a0ae2ce03ff94b7bb6896854dcfa""},""location"":""https://run.pavlovia.org/mvasilev/music_a/"",""userAgent"":""Mozilla/5.0 (Windows NT 10.0; Win64; x64) AppleWebKit/537.36 (KHTML, like Gecko) Chrome/89.0.4389.114 Safari/537.36"",""platform"":""Win32"",""language"":""en-US"",""locale"":""en-US"",""timeZone"":""Europe/London"",""timezoneOffset"":-60,""screen_width"":1920,""screen_height"":1080,""scroll_width"":1920,""scroll_height"":921,""window_innerWidth"":1920,""window_innerHeight"":969,""devicePixelRatio"":1}",,,,,,,,,,,,,,,,,,,,,,,,,,,,,7204.138000003679,,response,,,,,,,,,,,continue,click button,,,,,,,,,13495.504999998957,13493.950000003679,6256.424,6264.395000005607,6289.812,13506.485,{},,
Volume calibration,html.Screen,0_1,2021-04-13T12:38:30.788Z,,,,,,,,,,,,,,,,,,,,,,,,,,,,,,17455.550000004107,,response,,,,,,,,,,,continue,click button,,,,,,,,,30965.01499999431,30962.035000004107,13489.876,13495.764999999665,13506.485,30973.172,,,
Task instructions,html.Screen,0_2,2021-04-13T12:38:41.634Z,,,,,,,,,,,,,,,,,,,,,,,,,,,,,,10836.863000002246,,response,,,,,,,,,,,continue,click button,,,,,,,,,41811.01999999373,41810.035000002244,30956.707,30965.205000014976,30973.172,41823.106,,,
Sounds,html.Screen,0_3_0_0,2021-04-13T12:38:45.887Z,,,,,,,,,,,,,,,,,,,,,,,,,,,,,,4250.0480000000025,,timeout,,,,,,,,,3,,,,,,,,O,I,S,,46063.590000005206,46056.689,41806.542,41811.329999996815,41823.106,46073.154,,,
Judgement,html.Screen,0_3_0_1,2021-04-13T12:38:49.058Z,,,,,,,,,,,,,,,,,,,,,,,,,,,true,3,,3160.876000021446,,response,,,,,,,,,3,,3,click #choice-3,,,,,O,I,S,,49234.974999999395,49234.03000002145,46056.689,46064.05499999528,46073.154,49239.812,,,
Trial,flow.Sequence,0_3_0,2021-04-13T12:38:49.059Z,,,,,,,,,,,,,,,,,,,,,,,,,,,,,,7410.924000021449,,completion,,,,,,,,,3,,,,,,,,O,I,S,,49235.30500000925,49234.03000002145,41806.542,41811.26000001677,41823.106,49239.812,,,
Sounds,html.Screen,0_3_1_0,2021-04-13T12:38:53.297Z,,,,,,,,,,,,,,,,,,,,,,,,,,,,,,4250.113000000005,,timeout,,,,,,,,,1,,,,,,,,S,I,O,,53473.88500001398,53473.251,49223.38,49235.45999999624,49239.812,53489.925,,,
Judgement,html.Screen,0_3_1_1,2021-04-13T12:38:54.726Z,,,,,,,,,,,,,,,,,,,,,,,,,,,true,1,,1411.9650000082765,,response,,,,,,,,,1,,1,click #choice-1,,,,,S,I,O,,54902.80999999959,54901.89000000828,53473.251,53474.030000012135,53489.925,54906.489,,,
Trial,flow.Sequence,0_3_1,2021-04-13T12:38:54.726Z,,,,,,,,,,,,,,,,,,,,,,,,,,,,,,5662.078000008281,,completion,,,,,,,,,1,,,,,,,,S,I,O,,54903.01000000909,54901.89000000828,49223.38,49235.41500000283,49239.812,54906.489,,,
Sounds,html.Screen,0_3_2_0,2021-04-13T12:38:58.965Z,,,,,,,,,,,,,,,,,,,,,,,,,,,,,,4250.273999999998,,timeout,,,,,,,,,3,,,,,,,,I,O,S,,59141.28999999957,59139.995,54889.986,54903.17000000505,54906.489,59156.763,,,
Judgement,html.Screen,0_3_2_1,2021-04-13T12:39:00.170Z,,,,,,,,,,,,,,,,,,,,,,,,,,,true,3,,1189.1620000014445,,response,,,,,,,,,3,,3,click #choice-3,,,,,I,O,S,,60346.84000001289,60345.92500000144,59139.995,59141.62500001839,59156.763,60356.59,,,
Trial,flow.Sequence,0_3_2,2021-04-13T12:39:00.170Z,,,,,,,,,,,,,,,,,,,,,,,,,,,,,,5439.436000001442,,completion,,,,,,,,,3,,,,,,,,I,O,S,,60347.03000000445,60345.92500000144,54889.986,54903.114999993704,54906.489,60356.59,,,
Sounds,html.Screen,0_3_3_0,2021-04-13T12:39:04.415Z,,,,,,,,,,,,,,,,,,,,,,,,,,,,,,4249.862000000001,,timeout,,,,,,,,,1,,,,,,,,S,O,I,,64591.62500000093,64590.015,60339.936,60347.160000004806,60356.59,64606.452,,,
Judgement,html.Screen,0_3_3_1,2021-04-13T12:39:06.232Z,,,,,,,,,,,,,,,,,,,,,,,,,,,true,1,,1801.5680000025823,,response,,,,,,,,,1,,1,click #choice-1,,,,,S,O,I,,66408.90500001842,66408.02000000258,64590.015,64592.0449999976,64606.452,66423.271,,,
Trial,flow.Sequence,0_3_3,2021-04-13T12:39:06.233Z,,,,,,,,,,,,,,,,,,,,,,,,,,,,,,6051.430000002583,,completion,,,,,,,,,1,,,,,,,,S,O,I,,66409.11000000779,66408.02000000258,60339.936,60347.12000002037,60356.59,66423.271,,,
Sounds,html.Screen,0_3_4_0,2021-04-13T12:39:10.482Z,,,,,,,,,,,,,,,,,,,,,,,,,,,,,,4249.864000000001,,timeout,,,,,,,,,2,,,,,,,,I,S,O,,70658.25000000768,70656.719,66406.663,66409.29999999935,66423.271,70673.135,,,
Judgement,html.Screen,0_3_4_1,2021-04-13T12:39:11.490Z,,,,,,,,,,,,,,,,,,,,,,,,,,,true,2,,992.8250000130065,,response,,,,,,,,,2,,2,click #choice-2,,,,,I,S,O,,71666.76500000176,71665.960000013,70656.719,70658.62500001094,70673.135,71673.219,,,
Trial,flow.Sequence,0_3_4,2021-04-13T12:39:11.490Z,,,,,,,,,,,,,,,,,,,,,,,,,,,,,,5242.689000013008,,completion,,,,,,,,,2,,,,,,,,I,S,O,,71666.9750000001,71665.960000013,66406.663,66409.19000000576,66423.271,71673.219,,,
Sounds,html.Screen,0_3_5_0,2021-04-13T12:39:15.732Z,,,,,,,,,,,,,,,,,,,,,,,,,,,,,,4249.923999999999,,timeout,,,,,,,,,2,,,,,,,,O,S,I,,75908.20000000531,75906.718,71656.685,71667.09000000264,71673.219,75923.143,,,
Judgement,html.Screen,0_3_5_1,2021-04-13T12:39:17.176Z,,,,,,,,,,,,,,,,,,,,,,,,,,,true,2,,1428.7019999974145,,response,,,,,,,,,2,,2,click #choice-2,,,,,O,S,I,,77352.88000002038,77351.84499999741,75906.718,75908.56000001077,75923.143,77356.469,,,
Trial,flow.Sequence,0_3_5,2021-04-13T12:39:17.177Z,,,,,,,,,,,,,,,,,,,,,,,,,,,,,,5678.625999997414,,completion,,,,,,,,,2,,,,,,,,O,S,I,,77353.13500001212,77351.84499999741,71656.685,71667.05499999807,71673.219,77356.469,,,
Task,flow.Loop,0_3,2021-04-13T12:39:17.181Z,,,,,,,,,,,,,,,,,,,,,,,,,,,,,,35528.73899999741,,completion,,,1,,,,,,,,,,,,,,,,,,77357.31000002124,77351.84499999741,41806.542,41811.19999999646,41823.106,77356.469,,,
Trap,html.Screen,0_4,2021-04-13T12:39:17.182Z,,,,,,,,,,,,,,,,,,,,,,,,,,,,,,NaN,,skipped,,,,,,,,,,,,,,,,,,,,,77358.42999999295,77351.84499999741,,77358.29500001273,,77356.469,,,
Thanks,html.Screen,0_5,2021-04-13T12:39:20.494Z,,,,,,,,,,,,,,,,,,,,,,,,,,,,,,3313.650999995225,,response,,,,,,,,,,,continue,click button,,,,,,,,,80670.96000001766,80670.11999999522,77339.943,77358.55000000447,77356.469,83606.483,,,
Headphone screening,flow.Sequence,0,2021-04-13T12:39:20.495Z,,,,,,,,,,,,,,,,,,,,,,,,,,,,,,74380.30799999522,,completion,,,,,,,,,,,,,,,,,,,,,80671.15000000922,80670.11999999522,6256.424,6264.360000001034,6289.812,83606.483,,,
Instructions,html.Page,1_0,2021-04-13T12:39:46.283Z,,,,,,,,,,,,,,,,,,,,,,,,,,,,,,22852.546999998172,,form submission,,,,,,,,,,,,,,,,,,,,,106459.39000000362,106459.02999999817,83589.779,83601.77999999723,83606.483,106473.271,,,
Holding screen,html.Screen,1_1_0_0,2021-04-13T12:39:56.281Z,,,,,,,,,,,,,,,,,,,,,,,,,,,,,,9999.928,,timeout,,,,,,,,,,,,,,,,,,,,,116457.85500001512,116456.631,106440.057,106459.58500000415,106473.271,116473.199,,,
screen,html.Screen,1_1_0_1_0,2021-04-13T12:39:57.335Z,,,,,,,,,,,,,,,,53,,,,,,,,,,,,,,1032.1960000146937,,response,,,,99,,,,,,,Space,keypress(Space),,,,,,,,When -- ----- -- ------ - ------- --- ----------<br>------------- ------ ------ ---- ---- ------- ----- -- ----<br>-------- ------- -- ---------- --- - --- ----- ----- ----<br>---- --- --- ----- --- ---- ---- ------- ----- ---- -------<br>--- --- -- ----- -- --- ---- -- --- ---- -- ------ ------<br>--- ----- -- ----,117511.32000001962,117505.39500001469,116456.631,116458.32000000519,116473.199,117523.808,,0,When
screen,html.Screen,1_1_0_1_1,2021-04-13T12:39:57.945Z,,,,,,,,,,,,,,,,53,,,,,,,,,,,,,,596.9520000197954,,response,,,,99,,,,,,,Space,keypress(Space),,,,,,,,---- it ----- -- ------ - ------- --- ----------<br>------------- ------ ------ ---- ---- ------- ----- -- ----<br>-------- ------- -- ---------- --- - --- ----- ----- ----<br>---- --- --- ----- --- ---- ---- ------- ----- ---- -------<br>--- --- -- ----- -- --- ---- -- --- ---- -- ------ ------<br>--- ----- -- ----,118121.84500001604,118120.7600000198,117489.877,117511.45499999984,117523.808,118150.421,,1,it
screen,html.Screen,1_1_0_1_2,2021-04-13T12:39:58.465Z,,,,,,,,,,,,,,,,53,,,,,,,,,,,,,,490.4789999985078,,response,,,,99,,,,,,,Space,keypress(Space),,,,,,,,---- -- comes -- ------ - ------- --- ----------<br>------------- ------ ------ ---- ---- ------- ----- -- ----<br>-------- ------- -- ---------- --- - --- ----- ----- ----<br>---- --- --- ----- --- ---- ---- ------- ----- ---- -------<br>--- --- -- ----- -- --- ---- -- --- ---- -- ------ ------<br>--- ----- -- ----,118642.0550000039,118640.89999999851,118106.585,118122.17499999679,118150.421,118656.626,,2,comes
screen,html.Screen,1_1_0_1_3,2021-04-13T12:39:59.025Z,,,,,,,,,,,,,,,,53,,,,,,,,,,,,,,544.3040000208857,,response,,,,99,,,,,,,Space,keypress(Space),,,,,,,,---- -- ----- to ------ - ------- --- ----------<br>------------- ------ ------ ---- ---- ------- ----- -- ----<br>-------- ------- -- ---------- --- - --- ----- ----- ----<br>---- --- --- ----- --- ---- ---- ------- ----- ---- -------<br>--- --- -- ----- -- --- ---- -- --- ---- -- ------ ------<br>--- ----- -- ----,119202.0499999926,119200.93000002089,118640.023,118642.37000001594,118656.626,119206.546,,3,to
screen,html.Screen,1_1_0_1_4,2021-04-13T12:39:59.498Z,,,,,,,,,,,,,,,,53,,,,,,,,,,,,,,466.38900000959984,,response,,,,99,,,,,,,Space,keypress(Space),,,,,,,,---- -- ----- -- having - ------- --- ----------<br>------------- ------ ------ ---- ---- ------- ----- -- ----<br>-------- ------- -- ---------- --- - --- ----- ----- ----<br>---- --- --- ----- --- ---- ---- ------- ----- ---- -------<br>--- --- -- ----- -- --- ---- -- --- ---- -- ------ ------<br>--- ----- -- ----,119674.10999999265,119672.9350000096,119189.874,119202.36500000465,119206.546,119689.891,,4,having
screen,html.Screen,1_1_0_1_5,2021-04-13T12:39:59.977Z,,,,,,,,,,,,,,,,53,,,,,,,,,,,,,,462.8490000195452,,response,,,,99,,,,,,,Space,keypress(Space),,,,,,,,---- -- ----- -- ------ a ------- --- ----------<br>------------- ------ ------ ---- ---- ------- ----- -- ----<br>-------- ------- -- ---------- --- - --- ----- ----- ----<br>---- --- --- ----- --- ---- ---- ------- ----- ---- -------<br>--- --- -- ----- -- --- ---- -- --- ---- -- ------ ------<br>--- ----- -- ----,120153.80500000902,120152.74000001955,119673.248,119674.41999999573,119689.891,120156.552,,5,a
screen,html.Screen,1_1_0_1_6,2021-04-13T12:40:00.498Z,,,,,,,,,,,,,,,,53,,,,,,,,,,,,,,516.3380000161997,,response,,,,99,,,,,,,Space,keypress(Space),,,,,,,,---- -- ----- -- ------ - lasting --- ----------<br>------------- ------ ------ ---- ---- ------- ----- -- ----<br>-------- ------- -- ---------- --- - --- ----- ----- ----<br>---- --- --- ----- --- ---- ---- ------- ----- ---- -------<br>--- --- -- ----- -- --- ---- -- --- ---- -- ------ ------<br>--- ----- -- ----,120673.96000001463,120672.8900000162,120140.053,120154.13999999873,120156.552,120689.967,,6,lasting
screen,html.Screen,1_1_0_1_7,2021-04-13T12:40:01.034Z,,,,,,,,,,,,,,,,53,,,,,,,,,,,,,,518.8480000199634,,response,,,,99,,,,,,,Space,keypress(Space),,,,,,,,---- -- ----- -- ------ - ------- and ----------<br>------------- ------ ------ ---- ---- ------- ----- -- ----<br>-------- ------- -- ---------- --- - --- ----- ----- ----<br>---- --- --- ----- --- ---- ---- ------- ----- ---- -------<br>--- --- -- ----- -- --- ---- -- --- ---- -- ------ ------<br>--- ----- -- ----,121210.02500000759,121208.81500001997,120673.153,120674.28500001552,120689.967,121223.289,,7,and
screen,html.Screen,1_1_0_1_8,2021-04-13T12:40:01.554Z,,,,,,,,,,,,,,,,53,,,,,,,,,,,,,,505.5810000208294,,response,,,,99,,,,,,,Space,keypress(Space),,,,,,,,---- -- ----- -- ------ - ------- --- fulfilling<br>------------- ------ ------ ---- ---- ------- ----- -- ----<br>-------- ------- -- ---------- --- - --- ----- ----- ----<br>---- --- --- ----- --- ---- ---- ------- ----- ---- -------<br>--- --- -- ----- -- --- ---- -- --- ---- -- ------ ------<br>--- ----- -- ----,121729.95999999694,121728.87000002083,121206.628,121210.34000001964,121223.289,121739.851,,8,fulfilling
screen,html.Screen,1_1_0_1_9,2021-04-13T12:40:02.114Z,,,,,,,,,,,,,,,,53,,,,,,,,,,,,,,549.0389999961772,,response,,,,99,,,,,,,Space,keypress(Space),,,,,,,,"---- -- ----- -- ------ - ------- --- ----------<br>relationship, ------ ------ ---- ---- ------- ----- -- ----<br>-------- ------- -- ---------- --- - --- ----- ----- ----<br>---- --- --- ----- --- ---- ---- ------- ----- ---- -------<br>--- --- -- ----- -- --- ---- -- --- ---- -- ------ ------<br>--- ----- -- ----",122289.97500002151,122288.88999999617,121723.352,121730.29000000679,121739.851,122306.686,,9,"relationship,"
screen,html.Screen,1_1_0_1_10,2021-04-13T12:40:02.666Z,,,,,,,,,,,,,,,,53,,,,,,,,,,,,,,534.2140000101499,,response,,,,99,,,,,,,Space,keypress(Space),,,,,,,,---- -- ----- -- ------ - ------- --- ----------<br>------------- common ------ ---- ---- ------- ----- -- ----<br>-------- ------- -- ---------- --- - --- ----- ----- ----<br>---- --- --- ----- --- ---- ---- ------- ----- ---- -------<br>--- --- -- ----- -- --- ---- -- --- ---- -- ------ ------<br>--- ----- -- ----,122841.97500001756,122840.90000001015,122290.084,122290.2999999933,122306.686,122856.522,,10,common
screen,html.Screen,1_1_0_1_11,2021-04-13T12:40:03.202Z,,,,,,,,,,,,,,,,53,,,,,,,,,,,,,,520.3280000005616,,response,,,,99,,,,,,,Space,keypress(Space),,,,,,,,---- -- ----- -- ------ - ------- --- ----------<br>------------- ------ wisdom ---- ---- ------- ----- -- ----<br>-------- ------- -- ---------- --- - --- ----- ----- ----<br>---- --- --- ----- --- ---- ---- ------- ----- ---- -------<br>--- --- -- ----- -- --- ---- -- --- ---- -- ------ ------<br>--- ----- -- ----,123377.93000001693,123376.85000000056,122840.014,122842.31000000727,122856.522,123389.93,,11,wisdom
screen,html.Screen,1_1_0_1_12,2021-04-13T12:40:03.722Z,,,,,,,,,,,,,,,,53,,,,,,,,,,,,,,506.9700000215671,,response,,,,99,,,,,,,Space,keypress(Space),,,,,,,,---- -- ----- -- ------ - ------- --- ----------<br>------------- ------ ------ says ---- ------- ----- -- ----<br>-------- ------- -- ---------- --- - --- ----- ----- ----<br>---- --- --- ----- --- ---- ---- ------- ----- ---- -------<br>--- --- -- ----- -- --- ---- -- --- ---- -- ------ ------<br>--- ----- -- ----,123897.95000001322,123896.90000002156,123373.297,123378.27000001562,123389.93,123906.53,,12,says
screen,html.Screen,1_1_0_1_13,2021-04-13T12:40:04.234Z,,,,,,,,,,,,,,,,53,,,,,,,,,,,,,,502.29000001147506,,response,,,,99,,,,,,,Space,keypress(Space),,,,,,,,---- -- ----- -- ------ - ------- --- ----------<br>------------- ------ ------ ---- that ------- ----- -- ----<br>-------- ------- -- ---------- --- - --- ----- ----- ----<br>---- --- --- ----- --- ---- ---- ------- ----- ---- -------<br>--- --- -- ----- -- --- ---- -- --- ---- -- ------ ------<br>--- ----- -- ----,124409.92500001448,124408.82000001147,123890.072,123898.34000001429,123906.53,124423.227,,13,that
screen,html.Screen,1_1_0_1_14,2021-04-13T12:40:04.738Z,,,,,,,,,,,,,,,,53,,,,,,,,,,,,,,489.5230000176962,,response,,,,99,,,,,,,Space,keypress(Space),,,,,,,,---- -- ----- -- ------ - ------- --- ----------<br>------------- ------ ------ ---- ---- feeling ----- -- ----<br>-------- ------- -- ---------- --- - --- ----- ----- ----<br>---- --- --- ----- --- ---- ---- ------- ----- ---- -------<br>--- --- -- ----- -- --- ---- -- --- ---- -- ------ ------<br>--- ----- -- ----,124913.90000001411,124912.7500000177,124406.612,124410.26500001317,124423.227,124923.169,,14,feeling
screen,html.Screen,1_1_0_1_15,2021-04-13T12:40:05.250Z,,,,,,,,,,,,,,,,53,,,,,,,,,,,,,,501.73100001271814,,response,,,,99,,,,,,,Space,keypress(Space),,,,,,,,---- -- ----- -- ------ - ------- --- ----------<br>------------- ------ ------ ---- ---- ------- close -- ----<br>-------- ------- -- ---------- --- - --- ----- ----- ----<br>---- --- --- ----- --- ---- ---- ------- ----- ---- -------<br>--- --- -- ----- -- --- ---- -- --- ---- -- ------ ------<br>--- ----- -- ----,125426.0550000181,125424.90000001271,124906.606,124914.22000000603,124923.169,125439.987,,15,close
screen,html.Screen,1_1_0_1_16,2021-04-13T12:40:05.722Z,,,,,,,,,,,,,,,,53,,,,,,,,,,,,,,456.90300000362913,,response,,,,99,,,,,,,Space,keypress(Space),,,,,,,,---- -- ----- -- ------ - ------- --- ----------<br>------------- ------ ------ ---- ---- ------- ----- to ----<br>-------- ------- -- ---------- --- - --- ----- ----- ----<br>---- --- --- ----- --- ---- ---- ------- ----- ---- -------<br>--- --- -- ----- -- --- ---- -- --- ---- -- ------ ------<br>--- ----- -- ----,125897.93000000645,125896.89000000362,125423.309,125426.37000000104,125439.987,125906.508,,16,to
screen,html.Screen,1_1_0_1_17,2021-04-13T12:40:06.218Z,,,,,,,,,,,,,,,,53,,,,,,,,,,,,,,486.4019999950251,,response,,,,99,,,,,,,Space,keypress(Space),,,,,,,,---- -- ----- -- ------ - ------- --- ----------<br>------------- ------ ------ ---- ---- ------- ----- -- your<br>-------- ------- -- ---------- --- - --- ----- ----- ----<br>---- --- --- ----- --- ---- ---- ------- ----- ---- -------<br>--- --- -- ----- -- --- ---- -- --- ---- -- ------ ------<br>--- ----- -- ----,126393.97999999346,126392.90999999503,125890.039,125898.24999999837,125906.508,126406.685,,17,your
screen,html.Screen,1_1_0_1_18,2021-04-13T12:40:06.714Z,,,,,,,,,,,,,,,,53,,,,,,,,,,,,,,482.08999999944353,,response,,,,99,,,,,,,Space,keypress(Space),,,,,,,,---- -- ----- -- ------ - ------- --- ----------<br>------------- ------ ------ ---- ---- ------- ----- -- ----<br>romantic ------- -- ---------- --- - --- ----- ----- ----<br>---- --- --- ----- --- ---- ---- ------- ----- ---- -------<br>--- --- -- ----- -- --- ---- -- --- ---- -- ------ ------<br>--- ----- -- ----,126889.84000001801,126888.77499999944,126389.977,126394.42500000587,126406.685,126906.624,,18,romantic
screen,html.Screen,1_1_0_1_19,2021-04-13T12:40:07.170Z,,,,,,,,,,,,,,,,53,,,,,,,,,,,,,,438.3160000099597,,response,,,,99,,,,,,,Space,keypress(Space),,,,,,,,---- -- ----- -- ------ - ------- --- ----------<br>------------- ------ ------ ---- ---- ------- ----- -- ----<br>-------- partner -- ---------- --- - --- ----- ----- ----<br>---- --- --- ----- --- ---- ---- ------- ----- ---- -------<br>--- --- -- ----- -- --- ---- -- --- ---- -- ------ ------<br>--- ----- -- ----,127345.98000001279,127344.94000000996,126889.988,126890.16999999876,126906.624,127356.587,,19,partner
screen,html.Screen,1_1_0_1_20,2021-04-13T12:40:07.619Z,,,,,,,,,,,,,,,,53,,,,,,,,,,,,,,436.7230000082054,,response,,,,99,,,,,,,Space,keypress(Space),,,,,,,,---- -- ----- -- ------ - ------- --- ----------<br>------------- ------ ------ ---- ---- ------- ----- -- ----<br>-------- ------- is ---------- --- - --- ----- ----- ----<br>---- --- --- ----- --- ---- ---- ------- ----- ---- -------<br>--- --- -- ----- -- --- ---- -- --- ---- -- ------ ------<br>--- ----- -- ----,127794.35500002,127793.3100000082,127339.96,127346.32000001147,127356.587,127806.602,,20,is
screen,html.Screen,1_1_0_1_21,2021-04-13T12:40:08.138Z,,,,,,,,,,,,,,,,53,,,,,,,,,,,,,,506.26300001442723,,response,,,,99,,,,,,,Space,keypress(Space),,,,,,,,---- -- ----- -- ------ - ------- --- ----------<br>------------- ------ ------ ---- ---- ------- ----- -- ----<br>-------- ------- -- paramount. --- - --- ----- ----- ----<br>---- --- --- ----- --- ---- ---- ------- ----- ---- -------<br>--- --- -- ----- -- --- ---- -- --- ---- -- ------ ------<br>--- ----- -- ----,128313.98000000627,128312.86500001443,127790.026,127794.68000002089,127806.602,128323.185,,21,paramount.
screen,html.Screen,1_1_0_1_22,2021-04-13T12:40:09.794Z,,,,,,,,,,,,,,,,53,,,,,,,,,,,,,,1645.6150000023772,,response,,,,99,,,,,,,Space,keypress(Space),,,,,,,,---- -- ----- -- ------ - ------- --- ----------<br>------------- ------ ------ ---- ---- ------- ----- -- ----<br>-------- ------- -- ---------- But - --- ----- ----- ----<br>---- --- --- ----- --- ---- ---- ------- ----- ---- -------<br>--- --- -- ----- -- --- ---- -- --- ---- -- ------ ------<br>--- ----- -- ----,129969.87000000081,129968.80000000237,128306.664,128314.39499999397,128323.185,129973.22,,22,But
screen,html.Screen,1_1_0_1_23,2021-04-13T12:40:10.361Z,,,,,,,,,,,,,,,,53,,,,,,,,,,,,,,562.9500000066764,,response,,,,99,,,,,,,Space,keypress(Space),,,,,,,,---- -- ----- -- ------ - ------- --- ----------<br>------------- ------ ------ ---- ---- ------- ----- -- ----<br>-------- ------- -- ---------- --- a --- ----- ----- ----<br>---- --- --- ----- --- ---- ---- ------- ----- ---- -------<br>--- --- -- ----- -- --- ---- -- --- ---- -- ------ ------<br>--- ----- -- ----,130536.82999999728,130536.17000000668,129956.566,129970.20000001066,129973.22,130539.769,,23,a
screen,html.Screen,1_1_0_1_24,2021-04-13T12:40:10.858Z,,,,,,,,,,,,,,,,53,,,,,,,,,,,,,,493.0260000064445,,response,,,,99,,,,,,,Space,keypress(Space),,,,,,,,---- -- ----- -- ------ - ------- --- ----------<br>------------- ------ ------ ---- ---- ------- ----- -- ----<br>-------- ------- -- ---------- --- - new ----- ----- ----<br>---- --- --- ----- --- ---- ---- ------- ----- ---- -------<br>--- --- -- ----- -- --- ---- -- --- ---- -- ------ ------<br>--- ----- -- ----,131033.84499999811,131032.79500000644,130523.304,130536.9500000088,130539.769,131039.905,,24,new
screen,html.Screen,1_1_0_1_25,2021-04-13T12:40:11.282Z,,,,,,,,,,,,,,,,53,,,,,,,,,,,,,,416.91500002125395,,response,,,,99,,,,,,,Space,keypress(Space),,,,,,,,---- -- ----- -- ------ - ------- --- ----------<br>------------- ------ ------ ---- ---- ------- ----- -- ----<br>-------- ------- -- ---------- --- - --- study ----- ----<br>---- --- --- ----- --- ---- ---- ------- ----- ---- -------<br>--- --- -- ----- -- --- ---- -- --- ---- -- ------ ------<br>--- ----- -- ----,131457.90000000852,131456.82000002125,131023.289,131034.1849999968,131039.905,131473.157,,25,study
screen,html.Screen,1_1_0_1_26,2021-04-13T12:40:11.738Z,,,,,,,,,,,,,,,,53,,,,,,,,,,,,,,439.7030000112718,,response,,,,99,,,,,,,Space,keypress(Space),,,,,,,,---- -- ----- -- ------ - ------- --- ----------<br>------------- ------ ------ ---- ---- ------- ----- -- ----<br>-------- ------- -- ---------- --- - --- ----- finds ----<br>---- --- --- ----- --- ---- ---- ------- ----- ---- -------<br>--- --- -- ----- -- --- ---- -- --- ---- -- ------ ------<br>--- ----- -- ----,131913.98500002106,131912.86000001128,131456.704,131458.22000000044,131473.157,131923.282,,26,finds
screen,html.Screen,1_1_0_1_27,2021-04-13T12:40:12.194Z,,,,,,,,,,,,,,,,53,,,,,,,,,,,,,,445.4980000188807,,response,,,,99,,,,,,,Space,keypress(Space),,,,,,,,---- -- ----- -- ------ - ------- --- ----------<br>------------- ------ ------ ---- ---- ------- ----- -- ----<br>-------- ------- -- ---------- --- - --- ----- ----- that<br>---- --- --- ----- --- ---- ---- ------- ----- ---- -------<br>--- --- -- ----- -- --- ---- -- --- ---- -- ------ ------<br>--- ----- -- ----,132369.83000001055,132368.7800000189,131906.618,131914.40000000875,131923.282,132373.223,,27,that
screen,html.Screen,1_1_0_1_28,2021-04-13T12:40:12.674Z,,,,,,,,,,,,,,,,53,,,,,,,,,,,,,,475.60199999366887,,response,,,,99,,,,,,,Space,keypress(Space),,,,,,,,---- -- ----- -- ------ - ------- --- ----------<br>------------- ------ ------ ---- ---- ------- ----- -- ----<br>-------- ------- -- ---------- --- - --- ----- ----- ----<br>it's --- --- ----- --- ---- ---- ------- ----- ---- -------<br>--- --- -- ----- -- --- ---- -- --- ---- -- ------ ------<br>--- ----- -- ----,132849.90000000107,132848.82499999367,132356.607,132370.1600000204,132373.223,132856.523,,28,it's
screen,html.Screen,1_1_0_1_29,2021-04-13T12:40:13.186Z,,,,,,,,,,,,,,,,53,,,,,,,,,,,,,,504.34199999511475,,response,,,,99,,,,,,,Space,keypress(Space),,,,,,,,---- -- ----- -- ------ - ------- --- ----------<br>------------- ------ ------ ---- ---- ------- ----- -- ----<br>-------- ------- -- ---------- --- - --- ----- ----- ----<br>---- not --- ----- --- ---- ---- ------- ----- ---- -------<br>--- --- -- ----- -- --- ---- -- --- ---- -- ------ ------<br>--- ----- -- ----,133362.2650000034,133360.8649999951,132839.939,132850.23999999976,132856.523,133373.285,,29,not
screen,html.Screen,1_1_0_1_30,2021-04-13T12:40:13.666Z,,,,,,,,,,,,,,,,53,,,,,,,,,,,,,,467.5749999966065,,response,,,,99,,,,,,,Space,keypress(Space),,,,,,,,---- -- ----- -- ------ - ------- --- ----------<br>------------- ------ ------ ---- ---- ------- ----- -- ----<br>-------- ------- -- ---------- --- - --- ----- ----- ----<br>---- --- how ----- --- ---- ---- ------- ----- ---- -------<br>--- --- -- ----- -- --- ---- -- --- ---- -- ------ ------<br>--- ----- -- ----,133842.2450000071,133840.8599999966,133356.575,133362.5849999953,133373.285,133856.669,,30,how
screen,html.Screen,1_1_0_1_31,2021-04-13T12:40:14.114Z,,,,,,,,,,,,,,,,53,,,,,,,,,,,,,,432.14600000716746,,response,,,,99,,,,,,,Space,keypress(Space),,,,,,,,---- -- ----- -- ------ - ------- --- ----------<br>------------- ------ ------ ---- ---- ------- ----- -- ----<br>-------- ------- -- ---------- --- - --- ----- ----- ----<br>---- --- --- close --- ---- ---- ------- ----- ---- -------<br>--- --- -- ----- -- --- ---- -- --- ---- -- ------ ------<br>--- ----- -- ----,134289.84500002116,134288.81500000716,133839.928,133842.55500001018,133856.669,134306.636,,31,close
screen,html.Screen,1_1_0_1_32,2021-04-13T12:40:14.562Z,,,,,,,,,,,,,,,,53,,,,,,,,,,,,,,430.15399999538204,,response,,,,99,,,,,,,Space,keypress(Space),,,,,,,,---- -- ----- -- ------ - ------- --- ----------<br>------------- ------ ------ ---- ---- ------- ----- -- ----<br>-------- ------- -- ---------- --- - --- ----- ----- ----<br>---- --- --- ----- you ---- ---- ------- ----- ---- -------<br>--- --- -- ----- -- --- ---- -- --- ---- -- ------ ------<br>--- ----- -- ----,134737.82500001835,134736.78999999538,134290.057,134290.1450000063,134306.636,134739.841,,32,you
screen,html.Screen,1_1_0_1_33,2021-04-13T12:40:15.010Z,,,,,,,,,,,,,,,,53,,,,,,,,,,,,,,445.0040000106965,,response,,,,99,,,,,,,Space,keypress(Space),,,,,,,,---- -- ----- -- ------ - ------- --- ----------<br>------------- ------ ------ ---- ---- ------- ----- -- ----<br>-------- ------- -- ---------- --- - --- ----- ----- ----<br>---- --- --- ----- --- feel ---- ------- ----- ---- -------<br>--- --- -- ----- -- --- ---- -- --- ---- -- ------ ------<br>--- ----- -- ----,135185.8850000135,135184.84500001068,134723.172,134738.1400000013,134739.841,135189.9,,33,feel
screen,html.Screen,1_1_0_1_34,2021-04-13T12:40:15.474Z,,,,,,,,,,,,,,,,53,,,,,,,,,,,,,,458.8450000131561,,response,,,,99,,,,,,,Space,keypress(Space),,,,,,,,---- -- ----- -- ------ - ------- --- ----------<br>------------- ------ ------ ---- ---- ------- ----- -- ----<br>-------- ------- -- ---------- --- - --- ----- ----- ----<br>---- --- --- ----- --- ---- that ------- ----- ---- -------<br>--- --- -- ----- -- --- ---- -- --- ---- -- ------ ------<br>--- ----- -- ----,135649.82000002055,135648.74500001315,135173.395,135186.19999999646,135189.9,135656.456,,34,that
screen,html.Screen,1_1_0_1_35,2021-04-13T12:40:16.154Z,,,,,,,,,,,,,,,,53,,,,,,,,,,,,,,672.4240000154823,,response,,,,99,,,,,,,Space,keypress(Space),,,,,,,,---- -- ----- -- ------ - ------- --- ----------<br>------------- ------ ------ ---- ---- ------- ----- -- ----<br>-------- ------- -- ---------- --- - --- ----- ----- ----<br>---- --- --- ----- --- ---- ---- matters ----- ---- -------<br>--- --- -- ----- -- --- ---- -- --- ---- -- ------ ------<br>--- ----- -- ----,136329.939999996,136328.8800000155,135639.979,135650.1350000035,135656.456,136339.935,,35,matters
screen,html.Screen,1_1_0_1_36,2021-04-13T12:40:16.674Z,,,,,,,,,,,,,,,,53,,,,,,,,,,,,,,508.90500002057524,,response,,,,99,,,,,,,Space,keypress(Space),,,,,,,,"---- -- ----- -- ------ - ------- --- ----------<br>------------- ------ ------ ---- ---- ------- ----- -- ----<br>-------- ------- -- ---------- --- - --- ----- ----- ----<br>---- --- --- ----- --- ---- ---- ------- most, ---- -------<br>--- --- -- ----- -- --- ---- -- --- ---- -- ------ ------<br>--- ----- -- ----",136849.87000000547,136848.84000002057,136323.304,136330.26499999687,136339.935,136856.582,,36,"most,"
screen,html.Screen,1_1_0_1_37,2021-04-13T12:40:17.154Z,,,,,,,,,,,,,,,,53,,,,,,,,,,,,,,472.22800000634743,,response,,,,99,,,,,,,Space,keypress(Space),,,,,,,,---- -- ----- -- ------ - ------- --- ----------<br>------------- ------ ------ ---- ---- ------- ----- -- ----<br>-------- ------- -- ---------- --- - --- ----- ----- ----<br>---- --- --- ----- --- ---- ---- ------- ----- it's -------<br>--- --- -- ----- -- --- ---- -- --- ---- -- ------ ------<br>--- ----- -- ----,137329.83500001137,137328.81000000634,136840.047,136850.21000000415,136856.582,137339.972,,37,it's
screen,html.Screen,1_1_0_1_38,2021-04-13T12:40:17.699Z,,,,,,,,,,,,,,,,53,,,,,,,,,,,,,,533.2729999952135,,response,,,,99,,,,,,,Space,keypress(Space),,,,,,,,---- -- ----- -- ------ - ------- --- ----------<br>------------- ------ ------ ---- ---- ------- ----- -- ----<br>-------- ------- -- ---------- --- - --- ----- ----- ----<br>---- --- --- ----- --- ---- ---- ------- ----- ---- whether<br>--- --- -- ----- -- --- ---- -- --- ---- -- ------ ------<br>--- ----- -- ----,137874.40500000957,137873.24499999522,137323.4,137330.1550000033,137339.972,137890.054,,38,whether
screen,html.Screen,1_1_0_1_39,2021-04-13T12:40:18.194Z,,,,,,,,,,,,,,,,53,,,,,,,,,,,,,,478.8010000078939,,response,,,,99,,,,,,,Space,keypress(Space),,,,,,,,---- -- ----- -- ------ - ------- --- ----------<br>------------- ------ ------ ---- ---- ------- ----- -- ----<br>-------- ------- -- ---------- --- - --- ----- ----- ----<br>---- --- --- ----- --- ---- ---- ------- ----- ---- -------<br>you --- -- ----- -- --- ---- -- --- ---- -- ------ ------<br>--- ----- -- ----,138369.91999999736,138368.8550000079,137873.327,137874.71999999252,137890.054,138373.217,,39,you
screen,html.Screen,1_1_0_1_40,2021-04-13T12:40:18.658Z,,,,,,,,,,,,,,,,53,,,,,,,,,,,,,,459.56299999699695,,response,,,,99,,,,,,,Space,keypress(Space),,,,,,,,---- -- ----- -- ------ - ------- --- ----------<br>------------- ------ ------ ---- ---- ------- ----- -- ----<br>-------- ------- -- ---------- --- - --- ----- ----- ----<br>---- --- --- ----- --- ---- ---- ------- ----- ---- -------<br>--- are -- ----- -- --- ---- -- --- ---- -- ------ ------<br>--- ----- -- ----,138833.810000011,138832.779999997,138356.577,138370.22500002058,138373.217,138839.857,,40,are
screen,html.Screen,1_1_0_1_41,2021-04-13T12:40:19.162Z,,,,,,,,,,,,,,,,53,,,,,,,,,,,,,,496.9479999990144,,response,,,,99,,,,,,,Space,keypress(Space),,,,,,,,---- -- ----- -- ------ - ------- --- ----------<br>------------- ------ ------ ---- ---- ------- ----- -- ----<br>-------- ------- -- ---------- --- - --- ----- ----- ----<br>---- --- --- ----- --- ---- ---- ------- ----- ---- -------<br>--- --- as ----- -- --- ---- -- --- ---- -- ------ ------<br>--- ----- -- ----,139337.8500000108,139336.804999999,138823.292,138834.20000001206,138839.857,139339.846,,41,as
screen,html.Screen,1_1_0_1_42,2021-04-13T12:40:19.662Z,,,,,,,,,,,,,,,,53,,,,,,,,,,,,,,492.9540000037814,,response,,,,99,,,,,,,Space,keypress(Space),,,,,,,,---- -- ----- -- ------ - ------- --- ----------<br>------------- ------ ------ ---- ---- ------- ----- -- ----<br>-------- ------- -- ---------- --- - --- ----- ----- ----<br>---- --- --- ----- --- ---- ---- ------- ----- ---- -------<br>--- --- -- close -- --- ---- -- --- ---- -- ------ ------<br>--- ----- -- ----,139837.4500000209,139832.80000000377,139323.382,139338.16499999375,139339.846,139839.835,,42,close
screen,html.Screen,1_1_0_1_43,2021-04-13T12:40:20.154Z,,,,,,,,,,,,,,,,53,,,,,,,,,,,,,,488.99500001312117,,response,,,,99,,,,,,,Space,keypress(Space),,,,,,,,---- -- ----- -- ------ - ------- --- ----------<br>------------- ------ ------ ---- ---- ------- ----- -- ----<br>-------- ------- -- ---------- --- - --- ----- ----- ----<br>---- --- --- ----- --- ---- ---- ------- ----- ---- -------<br>--- --- -- ----- as --- ---- -- --- ---- -- ------ ------<br>--- ----- -- ----,140330.20500000566,140328.8300000131,139823.271,139837.77000001282,139839.835,140339.888,,43,as
screen,html.Screen,1_1_0_1_44,2021-04-13T12:40:20.658Z,,,,,,,,,,,,,,,,53,,,,,,,,,,,,,,493.1220000020985,,response,,,,99,,,,,,,Space,keypress(Space),,,,,,,,---- -- ----- -- ------ - ------- --- ----------<br>------------- ------ ------ ---- ---- ------- ----- -- ----<br>-------- ------- -- ---------- --- - --- ----- ----- ----<br>---- --- --- ----- --- ---- ---- ------- ----- ---- -------<br>--- --- -- ----- -- you ---- -- --- ---- -- ------ ------<br>--- ----- -- ----,140834.23000000766,140833.0100000021,140323.261,140330.50000001094,140339.888,140856.721,,44,you
screen,html.Screen,1_1_0_1_45,2021-04-13T12:40:21.170Z,,,,,,,,,,,,,,,,53,,,,,,,,,,,,,,488.1090000163822,,response,,,,99,,,,,,,Space,keypress(Space),,,,,,,,---- -- ----- -- ------ - ------- --- ----------<br>------------- ------ ------ ---- ---- ------- ----- -- ----<br>-------- ------- -- ---------- --- - --- ----- ----- ----<br>---- --- --- ----- --- ---- ---- ------- ----- ---- -------<br>--- --- -- ----- -- --- want -- --- ---- -- ------ ------<br>--- ----- -- ----,141345.93999999925,141344.83000001637,140823.292,140834.5299999928,140856.721,141356.598,,45,want
screen,html.Screen,1_1_0_1_46,2021-04-13T12:40:21.642Z,,,,,,,,,,,,,,,,53,,,,,,,,,,,,,,460.1970000206493,,response,,,,99,,,,,,,Space,keypress(Space),,,,,,,,---- -- ----- -- ------ - ------- --- ----------<br>------------- ------ ------ ---- ---- ------- ----- -- ----<br>-------- ------- -- ---------- --- - --- ----- ----- ----<br>---- --- --- ----- --- ---- ---- ------- ----- ---- -------<br>--- --- -- ----- -- --- ---- to --- ---- -- ------ ------<br>--- ----- -- ----,141817.8300000145,141816.79500002065,141339.879,141346.25000000233,141356.598,141823.19,,46,to
screen,html.Screen,1_1_0_1_47,2021-04-13T12:40:22.146Z,,,,,,,,,,,,,,,,53,,,,,,,,,,,,,,497.62000000471016,,response,,,,99,,,,,,,Space,keypress(Space),,,,,,,,"---- -- ----- -- ------ - ------- --- ----------<br>------------- ------ ------ ---- ---- ------- ----- -- ----<br>-------- ------- -- ---------- --- - --- ----- ----- ----<br>---- --- --- ----- --- ---- ---- ------- ----- ---- -------<br>--- --- -- ----- -- --- ---- -- be, ---- -- ------ ------<br>--- ----- -- ----",142321.88500001212,142320.8100000047,141806.628,141818.13500000862,141823.19,142345.982,,47,"be,"
screen,html.Screen,1_1_0_1_48,2021-04-13T12:40:22.666Z,,,,,,,,,,,,,,,,53,,,,,,,,,,,,,,494.84800000101677,,response,,,,99,,,,,,,Space,keypress(Space),,,,,,,,---- -- ----- -- ------ - ------- --- ----------<br>------------- ------ ------ ---- ---- ------- ----- -- ----<br>-------- ------- -- ---------- --- - --- ----- ----- ----<br>---- --- --- ----- --- ---- ---- ------- ----- ---- -------<br>--- --- -- ----- -- --- ---- -- --- even -- ------ ------<br>--- ----- -- ----,142841.84000000823,142840.830000001,142306.59,142322.1800000174,142345.982,142856.699,,48,even
screen,html.Screen,1_1_0_1_49,2021-04-13T12:40:23.098Z,,,,,,,,,,,,,,,,53,,,,,,,,,,,,,,416.14100001964835,,response,,,,99,,,,,,,Space,keypress(Space),,,,,,,,---- -- ----- -- ------ - ------- --- ----------<br>------------- ------ ------ ---- ---- ------- ----- -- ----<br>-------- ------- -- ---------- --- - --- ----- ----- ----<br>---- --- --- ----- --- ---- ---- ------- ----- ---- -------<br>--- --- -- ----- -- --- ---- -- --- ---- if ------ ------<br>--- ----- -- ----,143273.87999999337,143272.84000001964,142840.05,142842.15000001132,142856.699,143289.941,,49,if
screen,html.Screen,1_1_0_1_50,2021-04-13T12:40:23.578Z,,,,,,,,,,,,,,,,53,,,,,,,,,,,,,,462.88400000322144,,response,,,,99,,,,,,,Space,keypress(Space),,,,,,,,---- -- ----- -- ------ - ------- --- ----------<br>------------- ------ ------ ---- ---- ------- ----- -- ----<br>-------- ------- -- ---------- --- - --- ----- ----- ----<br>---- --- --- ----- --- ---- ---- ------- ----- ---- -------<br>--- --- -- ----- -- --- ---- -- --- ---- -- that's ------<br>--- ----- -- ----,143753.86500000604,143752.8250000032,143273.324,143274.18000000762,143289.941,143756.549,,50,that's
screen,html.Screen,1_1_0_1_51,2021-04-13T12:40:24.074Z,,,,,,,,,,,,,,,,53,,,,,,,,,,,,,,492.2610000191489,,response,,,,99,,,,,,,Space,keypress(Space),,,,,,,,---- -- ----- -- ------ - ------- --- ----------<br>------------- ------ ------ ---- ---- ------- ----- -- ----<br>-------- ------- -- ---------- --- - --- ----- ----- ----<br>---- --- --- ----- --- ---- ---- ------- ----- ---- -------<br>--- --- -- ----- -- --- ---- -- --- ---- -- ------ really<br>--- ----- -- ----,144249.86500001978,144248.81000001915,143739.942,143754.2850000027,143756.549,144256.501,,51,really
screen,html.Screen,1_1_0_1_52,2021-04-13T12:40:24.578Z,,,,,,,,,,,,,,,,53,,,,,,,,,,,,,,496.2740000008489,,response,,,,99,,,,,,,Space,keypress(Space),,,,,,,,---- -- ----- -- ------ - ------- --- ----------<br>------------- ------ ------ ---- ---- ------- ----- -- ----<br>-------- ------- -- ---------- --- - --- ----- ----- ----<br>---- --- --- ----- --- ---- ---- ------- ----- ---- -------<br>--- --- -- ----- -- --- ---- -- --- ---- -- ------ ------<br>not ----- -- ----,144753.80000000587,144752.77500000084,144239.98,144250.15999999596,144256.501,144756.553,,52,not
screen,html.Screen,1_1_0_1_53,2021-04-13T12:40:25.066Z,,,,,,,,,,,,,,,,53,,,,,,,,,,,,,,484.2670000063372,,response,,,,99,,,,,,,Space,keypress(Space),,,,,,,,---- -- ----- -- ------ - ------- --- ----------<br>------------- ------ ------ ---- ---- ------- ----- -- ----<br>-------- ------- -- ---------- --- - --- ----- ----- ----<br>---- --- --- ----- --- ---- ---- ------- ----- ---- -------<br>--- --- -- ----- -- --- ---- -- --- ---- -- ------ ------<br>--- close -- ----,145241.86000000918,145240.82000000635,144739.97,144754.22000000253,144756.553,145256.675,,53,close
screen,html.Screen,1_1_0_1_54,2021-04-13T12:40:25.562Z,,,,,,,,,,,,,,,,53,,,,,,,,,,,,,,480.12999999319436,,response,,,,99,,,,,,,Space,keypress(Space),,,,,,,,---- -- ----- -- ------ - ------- --- ----------<br>------------- ------ ------ ---- ---- ------- ----- -- ----<br>-------- ------- -- ---------- --- - --- ----- ----- ----<br>---- --- --- ----- --- ---- ---- ------- ----- ---- -------<br>--- --- -- ----- -- --- ---- -- --- ---- -- ------ ------<br>--- ----- at ----,145737.85000000498,145736.80499999318,145239.969,145242.15500001446,145256.675,145770.391,,54,at
screen,html.Screen,1_1_0_1_55,2021-04-13T12:40:26.050Z,,,,,,,,,,,,,,,,53,,,,,,,,,,,,,,454.1639999934123,,response,,,,99,,,,,,,Space,keypress(Space),,,,,,,,---- -- ----- -- ------ - ------- --- ----------<br>------------- ------ ------ ---- ---- ------- ----- -- ----<br>-------- ------- -- ---------- --- - --- ----- ----- ----<br>---- --- --- ----- --- ---- ---- ------- ----- ---- -------<br>--- --- -- ----- -- --- ---- -- --- ---- -- ------ ------<br>--- ----- -- all.,146225.61500000302,146224.55499999342,145723.369,145738.19500001264,145770.391,146239.771,,55,all.
Item 99,flow.Loop,1_1_0_1,2021-04-13T12:40:26.050Z,,,,,,,,,,,,,,,,,,,,,,,,,,,,,,29751.355999993422,,completion,,,,,A,,,,,,,,,,,silence,,,,,146226.2300000002,146224.55499999342,116456.631,116458.180000016,116473.199,146239.771,,,
Question 1,html.Screen,1_1_0_2,2021-04-13T12:40:32.543Z,,,,,,,,,,,,,,,,,,,,,,,,,,,true,FALSE,,6478.129000017827,,response,,,,99,A,,,,,,FALSE,click #choice-2,,,,silence,,,,,152718.81500000018,152717.90000001783,146223.307,146226.5100000077,146239.771,152723.143,,,
Question 2,html.Screen,1_1_0_3,2021-04-13T12:40:42.395Z,,,,,,,,,,,,,,,,,,,,,,,,,,,true,TRUE,,9846.777000008995,,response,,,,99,A,,,,,,TRUE,click #choice-1,,,,silence,,,,,162570.83000001148,162569.920000009,152706.638,152718.9350000117,152723.143,162573.182,,,
Item 99,flow.Sequence,1_1_0,2021-04-13T12:40:42.395Z,,,,,,,,,,,,,,,,,,,,,,,,,,,,,,56096.64900000901,,completion,,,,,,,,,,,,,,,,,,,,,162570.99999999627,162569.920000009,106440.057,106459.54999999958,106473.271,162573.182,,,
Holding screen,html.Screen,1_1_1_0,2021-04-13T12:40:52.382Z,,,,,,,,,,,,,,,,,,,,,,,,,,,,,,10000.083000000013,,timeout,,,,,,,,,,,,,,,,,,,,,172557.88500001654,172556.716,162556.632,162571.11000001896,162573.182,172573.265,,,
screen,html.Screen,1_1_1_1_0,2021-04-13T12:40:53.194Z,,,,,,,,,,,,,,,,54,,,,,,,,,,,,,,795.5400000055088,,response,,,,100,,,,,,,Space,keypress(Space),,,,,,,,At --- ---- --- ------ ----- ------- ---- -- --- ------- --<br>------- ---------- ------ -- ----- -- ----- -- ---- ------<br>--- ----- --- --- ------ -------- ----- --- ------ ----- --<br>----- ----- ---------- --- --- ------ ------ ---- -- ------<br>------- --- ------ ----- --- ---- ------- -- ---- --- --<br>------- ------,173369.8849999928,173368.80500000552,172556.716,172558.27000000863,172573.265,173373.231,,0,At
screen,html.Screen,1_1_1_1_1,2021-04-13T12:40:53.618Z,,,,,,,,,,,,,,,,54,,,,,,,,,,,,,,419.51400001338334,,response,,,,100,,,,,,,Space,keypress(Space),,,,,,,,-- the ---- --- ------ ----- ------- ---- -- --- ------- --<br>------- ---------- ------ -- ----- -- ----- -- ---- ------<br>--- ----- --- --- ------ -------- ----- --- ------ ----- --<br>----- ----- ---------- --- --- ------ ------ ---- -- ------<br>------- --- ------ ----- --- ---- ------- -- ---- --- --<br>------- ------,173793.85499999626,173792.74500001338,173356.602,173370.17999999807,173373.231,173806.628,,1,the
screen,html.Screen,1_1_1_1_2,2021-04-13T12:40:54.130Z,,,,,,,,,,,,,,,,54,,,,,,,,,,,,,,498.131999999081,,response,,,,100,,,,,,,Space,keypress(Space),,,,,,,,-- --- time --- ------ ----- ------- ---- -- --- ------- --<br>------- ---------- ------ -- ----- -- ----- -- ---- ------<br>--- ----- --- --- ------ -------- ----- --- ------ ----- --<br>----- ----- ---------- --- --- ------ ------ ---- -- ------<br>------- --- ------ ----- --- ---- ------- -- ---- --- --<br>------- ------,174305.77500001527,174304.75999999908,173789.942,173794.16000001947,173806.628,174323.281,,2,time
screen,html.Screen,1_1_1_1_3,2021-04-13T12:40:54.586Z,,,,,,,,,,,,,,,,54,,,,,,,,,,,,,,437.4940000024799,,response,,,,100,,,,,,,Space,keypress(Space),,,,,,,,-- --- ---- the ------ ----- ------- ---- -- --- ------- --<br>------- ---------- ------ -- ----- -- ----- -- ---- ------<br>--- ----- --- --- ------ -------- ----- --- ------ ----- --<br>----- ----- ---------- --- --- ------ ------ ---- -- ------<br>------- --- ------ ----- --- ---- ------- -- ---- --- --<br>------- ------,174761.79499999853,174760.77500000247,174306.661,174306.07500000042,174323.281,174773.267,,3,the
screen,html.Screen,1_1_1_1_4,2021-04-13T12:40:55.042Z,,,,,,,,,,,,,,,,54,,,,,,,,,,,,,,443.578000017209,,response,,,,100,,,,,,,Space,keypress(Space),,,,,,,,-- --- ---- --- French ----- ------- ---- -- --- ------- --<br>------- ---------- ------ -- ----- -- ----- -- ---- ------<br>--- ----- --- --- ------ -------- ----- --- ------ ----- --<br>----- ----- ---------- --- --- ------ ------ ---- -- ------<br>------- --- ------ ----- --- ---- ------- -- ---- --- --<br>------- ------,175217.99999999348,175216.8450000172,174756.614,174762.1050000016,174773.267,175223.197,,4,French
screen,html.Screen,1_1_1_1_5,2021-04-13T12:40:55.489Z,,,,,,,,,,,,,,,,54,,,,,,,,,,,,,,441.0630000195815,,response,,,,100,,,,,,,Space,keypress(Space),,,,,,,,-- --- ---- --- ------ crown ------- ---- -- --- ------- --<br>------- ---------- ------ -- ----- -- ----- -- ---- ------<br>--- ----- --- --- ------ -------- ----- --- ------ ----- --<br>----- ----- ---------- --- --- ------ ------ ---- -- ------<br>------- --- ------ ----- --- ---- ------- -- ---- --- --<br>------- ------,175664.92000001017,175664.26000001957,175206.71,175218.30000000773,175223.197,175673.307,,5,crown
screen,html.Screen,1_1_1_1_6,2021-04-13T12:40:55.914Z,,,,,,,,,,,,,,,,54,,,,,,,,,,,,,,415.4779999999155,,response,,,,100,,,,,,,Space,keypress(Space),,,,,,,,-- --- ---- --- ------ ----- secured ---- -- --- ------- --<br>------- ---------- ------ -- ----- -- ----- -- ---- ------<br>--- ----- --- --- ------ -------- ----- --- ------ ----- --<br>----- ----- ---------- --- --- ------ ------ ---- -- ------<br>------- --- ------ ----- --- ---- ------- -- ---- --- --<br>------- ------,176089.8150000139,176088.78499999992,175656.622,175665.08000000613,175673.307,176106.585,,6,secured
screen,html.Screen,1_1_1_1_7,2021-04-13T12:40:56.434Z,,,,,,,,,,,,,,,,54,,,,,,,,,,,,,,502.23000001415494,,response,,,,100,,,,,,,Space,keypress(Space),,,,,,,,-- --- ---- --- ------ ----- ------- much -- --- ------- --<br>------- ---------- ------ -- ----- -- ----- -- ---- ------<br>--- ----- --- --- ------ -------- ----- --- ------ ----- --<br>----- ----- ---------- --- --- ------ ------ ---- -- ------<br>------- --- ------ ----- --- ---- ------- -- ---- --- --<br>------- ------,176609.87499999464,176608.81500001415,176090.056,176090.13500000583,176106.585,176623.361,,7,much
screen,html.Screen,1_1_1_1_8,2021-04-13T12:40:56.954Z,,,,,,,,,,,,,,,,54,,,,,,,,,,,,,,505.3990000214253,,response,,,,100,,,,,,,Space,keypress(Space),,,,,,,,-- --- ---- --- ------ ----- ------- ---- of --- ------- --<br>------- ---------- ------ -- ----- -- ----- -- ---- ------<br>--- ----- --- --- ------ -------- ----- --- ------ ----- --<br>----- ----- ---------- --- --- ------ ------ ---- -- ------<br>------- --- ------ ----- --- ---- ------- -- ---- --- --<br>------- ------,177129.8250000109,177128.76000002143,176606.733,176610.19500001566,176623.361,177139.942,,8,of
screen,html.Screen,1_1_1_1_9,2021-04-13T12:40:57.458Z,,,,,,,,,,,,,,,,54,,,,,,,,,,,,,,492.8380000144534,,response,,,,100,,,,,,,Space,keypress(Space),,,,,,,,-- --- ---- --- ------ ----- ------- ---- -- its ------- --<br>------- ---------- ------ -- ----- -- ----- -- ---- ------<br>--- ----- --- --- ------ -------- ----- --- ------ ----- --<br>----- ----- ---------- --- --- ------ ------ ---- -- ------<br>------- --- ------ ----- --- ---- ------- -- ---- --- --<br>------- ------,177633.8050000195,177632.78000001446,177123.331,177130.130000005,177139.942,177639.825,,9,its
screen,html.Screen,1_1_1_1_10,2021-04-13T12:40:57.978Z,,,,,,,,,,,,,,,,54,,,,,,,,,,,,,,512.9649999928079,,response,,,,100,,,,,,,Space,keypress(Space),,,,,,,,-- --- ---- --- ------ ----- ------- ---- -- --- revenue --<br>------- ---------- ------ -- ----- -- ----- -- ---- ------<br>--- ----- --- --- ------ -------- ----- --- ------ ----- --<br>----- ----- ---------- --- --- ------ ------ ---- -- ------<br>------- --- ------ ----- --- ---- ------- -- ---- --- --<br>------- ------,178153.80000000005,178152.78999999282,177623.389,177634.11499999347,177639.825,178156.559,,10,revenue
screen,html.Screen,1_1_1_1_11,2021-04-13T12:40:58.458Z,,,,,,,,,,,,,,,,54,,,,,,,,,,,,,,476.23600001225714,,response,,,,100,,,,,,,Space,keypress(Space),,,,,,,,-- --- ---- --- ------ ----- ------- ---- -- --- ------- by<br>------- ---------- ------ -- ----- -- ----- -- ---- ------<br>--- ----- --- --- ------ -------- ----- --- ------ ----- --<br>----- ----- ---------- --- --- ------ ------ ---- -- ------<br>------- --- ------ ----- --- ---- ------- -- ---- --- --<br>------- ------,178633.8200000173,178632.79500001227,178140.01,178154.25000002142,178156.559,178639.83,,11,by
screen,html.Screen,1_1_1_1_12,2021-04-13T12:40:58.946Z,,,,,,,,,,,,,,,,54,,,,,,,,,,,,,,481.41999999652035,,response,,,,100,,,,,,,Space,keypress(Space),,,,,,,,-- --- ---- --- ------ ----- ------- ---- -- --- ------- --<br>issuing ---------- ------ -- ----- -- ----- -- ---- ------<br>--- ----- --- --- ------ -------- ----- --- ------ ----- --<br>----- ----- ---------- --- --- ------ ------ ---- -- ------<br>------- --- ------ ----- --- ---- ------- -- ---- --- --<br>------- ------,179122.2950000083,179121.2499999965,178623.217,178634.14500001818,178639.83,179156.568,,12,issuing
screen,html.Screen,1_1_1_1_13,2021-04-13T12:40:59.562Z,,,,,,,,,,,,,,,,54,,,,,,,,,,,,,,580.2219999953813,,response,,,,100,,,,,,,Space,keypress(Space),,,,,,,,-- --- ---- --- ------ ----- ------- ---- -- --- ------- --<br>------- government ------ -- ----- -- ----- -- ---- ------<br>--- ----- --- --- ------ -------- ----- --- ------ ----- --<br>----- ----- ---------- --- --- ------ ------ ---- -- ------<br>------- --- ------ ----- --- ---- ------- -- ---- --- --<br>------- ------,179737.8150000004,179736.78999999538,179140.041,179122.5900000136,179156.568,179739.86,,13,government
screen,html.Screen,1_1_1_1_14,2021-04-13T12:41:00.578Z,,,,,,,,,,,,,,,,54,,,,,,,,,,,,,,1012.9449999964563,,response,,,,100,,,,,,,Space,keypress(Space),,,,,,,,-- --- ---- --- ------ ----- ------- ---- -- --- ------- --<br>------- ---------- bonds. -- ----- -- ----- -- ---- ------<br>--- ----- --- --- ------ -------- ----- --- ------ ----- --<br>----- ----- ---------- --- --- ------ ------ ---- -- ------<br>------- --- ------ ----- --- ---- ------- -- ---- --- --<br>------- ------,180753.93000000622,180752.80499999644,179723.233,179738.1250000035,179739.86,180756.562,,14,bonds.
screen,html.Screen,1_1_1_1_15,2021-04-13T12:41:01.058Z,,,,,,,,,,,,,,,,54,,,,,,,,,,,,,,476.2430000069144,,response,,,,100,,,,,,,Space,keypress(Space),,,,,,,,-- --- ---- --- ------ ----- ------- ---- -- --- ------- --<br>------- ---------- ------ In ----- -- ----- -- ---- ------<br>--- ----- --- --- ------ -------- ----- --- ------ ----- --<br>----- ----- ---------- --- --- ------ ------ ---- -- ------<br>------- --- ------ ----- --- ---- ------- -- ---- --- --<br>------- ------,181233.81500001415,181232.80500000692,180739.959,180754.23500000034,180756.562,181239.821,,15,In
screen,html.Screen,1_1_1_1_16,2021-04-13T12:41:03.866Z,,,,,,,,,,,,,,,,54,,,,,,,,,,,,,,2800.998999994714,,response,,,,100,,,,,,,Space,keypress(Space),,,,,,,,"-- --- ---- --- ------ ----- ------- ---- -- --- ------- --<br>------- ---------- ------ -- 1727, -- ----- -- ---- ------<br>--- ----- --- --- ------ -------- ----- --- ------ ----- --<br>----- ----- ---------- --- --- ------ ------ ---- -- ------<br>------- --- ------ ----- --- ---- ------- -- ---- --- --<br>------- ------",184041.84000001987,184040.8199999947,181223.265,181234.23000000184,181239.821,184056.586,,16,"1727,"
screen,html.Screen,1_1_1_1_17,2021-04-13T12:41:04.354Z,,,,,,,,,,,,,,,,54,,,,,,,,,,,,,,472.15900001779664,,response,,,,100,,,,,,,Space,keypress(Space),,,,,,,,-- --- ---- --- ------ ----- ------- ---- -- --- ------- --<br>------- ---------- ------ -- ----- in ----- -- ---- ------<br>--- ----- --- --- ------ -------- ----- --- ------ ----- --<br>----- ----- ---------- --- --- ------ ------ ---- -- ------<br>------- --- ------ ----- --- ---- ------- -- ---- --- --<br>------- ------,184529.7600000049,184528.7450000178,184039.858,184042.15500000282,184056.586,184539.932,,17,in
screen,html.Screen,1_1_1_1_18,2021-04-13T12:41:04.826Z,,,,,,,,,,,,,,,,54,,,,,,,,,,,,,,460.8629999999248,,response,,,,100,,,,,,,Space,keypress(Space),,,,,,,,-- --- ---- --- ------ ----- ------- ---- -- --- ------- --<br>------- ---------- ------ -- ----- -- order -- ---- ------<br>--- ----- --- --- ------ -------- ----- --- ------ ----- --<br>----- ----- ---------- --- --- ------ ------ ---- -- ------<br>------- --- ------ ----- --- ---- ------- -- ---- --- --<br>------- ------,185001.79500001832,185000.79499999993,184523.294,184530.064999999,184539.932,185006.573,,18,order
screen,html.Screen,1_1_1_1_19,2021-04-13T12:41:05.322Z,,,,,,,,,,,,,,,,54,,,,,,,,,,,,,,490.20200000688783,,response,,,,100,,,,,,,Space,keypress(Space),,,,,,,,-- --- ---- --- ------ ----- ------- ---- -- --- ------- --<br>------- ---------- ------ -- ----- -- ----- to ---- ------<br>--- ----- --- --- ------ -------- ----- --- ------ ----- --<br>----- ----- ---------- --- --- ------ ------ ---- -- ------<br>------- --- ------ ----- --- ---- ------- -- ---- --- --<br>------- ------,185497.81000000075,185496.7750000069,184990.027,185002.1200000192,185006.573,185506.501,,19,to
screen,html.Screen,1_1_1_1_20,2021-04-13T12:41:05.778Z,,,,,,,,,,,,,,,,54,,,,,,,,,,,,,,446.2840000013239,,response,,,,100,,,,,,,Space,keypress(Space),,,,,,,,-- --- ---- --- ------ ----- ------- ---- -- --- ------- --<br>------- ---------- ------ -- ----- -- ----- -- save ------<br>--- ----- --- --- ------ -------- ----- --- ------ ----- --<br>----- ----- ---------- --- --- ------ ------ ---- -- ------<br>------- --- ------ ----- --- ---- ------- -- ---- --- --<br>------- ------,185953.8000000175,185952.7850000013,185490.04,185498.12000000384,185506.501,185956.56,,20,save
screen,html.Screen,1_1_1_1_21,2021-04-13T12:41:06.210Z,,,,,,,,,,,,,,,,54,,,,,,,,,,,,,,428.18000000860775,,response,,,,100,,,,,,,Space,keypress(Space),,,,,,,,"-- --- ---- --- ------ ----- ------- ---- -- --- ------- --<br>------- ---------- ------ -- ----- -- ----- -- ---- money,<br>--- ----- --- --- ------ -------- ----- --- ------ ----- --<br>----- ----- ---------- --- --- ------ ------ ---- -- ------<br>------- --- ------ ----- --- ---- ------- -- ---- --- --<br>------- ------",186385.7549999957,186384.7400000086,185939.95,185954.22499999404,185956.56,186389.901,,21,"money,"
screen,html.Screen,1_1_1_1_22,2021-04-13T12:41:06.705Z,,,,,,,,,,,,,,,,54,,,,,,,,,,,,,,490.39400000992464,,response,,,,100,,,,,,,Space,keypress(Space),,,,,,,,-- --- ---- --- ------ ----- ------- ---- -- --- ------- --<br>------- ---------- ------ -- ----- -- ----- -- ---- ------<br>the ----- --- --- ------ -------- ----- --- ------ ----- --<br>----- ----- ---------- --- --- ------ ------ ---- -- ------<br>------- --- ------ ----- --- ---- ------- -- ---- --- --<br>------- ------,186881.0250000097,186880.29500000994,186373.31,186386.05000000098,186389.901,186889.995,,22,the
screen,html.Screen,1_1_1_1_23,2021-04-13T12:41:07.162Z,,,,,,,,,,,,,,,,54,,,,,,,,,,,,,,446.6149999984773,,response,,,,100,,,,,,,Space,keypress(Space),,,,,,,,-- --- ---- --- ------ ----- ------- ---- -- --- ------- --<br>------- ---------- ------ -- ----- -- ----- -- ---- ------<br>--- state --- --- ------ -------- ----- --- ------ ----- --<br>----- ----- ---------- --- --- ------ ------ ---- -- ------<br>------- --- ------ ----- --- ---- ------- -- ---- --- --<br>------- ------,187337.62500001467,187336.60999999847,186873.329,186881.22000001022,186889.995,187339.891,,23,state
screen,html.Screen,1_1_1_1_24,2021-04-13T12:41:07.618Z,,,,,,,,,,,,,,,,54,,,,,,,,,,,,,,452.83900001557777,,response,,,,100,,,,,,,Space,keypress(Space),,,,,,,,-- --- ---- --- ------ ----- ------- ---- -- --- ------- --<br>------- ---------- ------ -- ----- -- ----- -- ---- ------<br>--- ----- cut --- ------ -------- ----- --- ------ ----- --<br>----- ----- ---------- --- --- ------ ------ ---- -- ------<br>------- --- ------ ----- --- ---- ------- -- ---- --- --<br>------- ------,187793.74500000267,187792.73000001558,187323.343,187337.94500000658,187339.891,187806.702,,24,cut
screen,html.Screen,1_1_1_1_25,2021-04-13T12:41:08.074Z,,,,,,,,,,,,,,,,54,,,,,,,,,,,,,,442.22299999260576,,response,,,,100,,,,,,,Space,keypress(Space),,,,,,,,-- --- ---- --- ------ ----- ------- ---- -- --- ------- --<br>------- ---------- ------ -- ----- -- ----- -- ---- ------<br>--- ----- --- the ------ -------- ----- --- ------ ----- --<br>----- ----- ---------- --- --- ------ ------ ---- -- ------<br>------- --- ------ ----- --- ---- ------- -- ---- --- --<br>------- ------,188249.9700000044,188248.9249999926,187790.083,187794.1550000105,187806.702,188256.539,,25,the
screen,html.Screen,1_1_1_1_26,2021-04-13T12:41:08.562Z,,,,,,,,,,,,,,,,54,,,,,,,,,,,,,,480.2209999997867,,response,,,,100,,,,,,,Space,keypress(Space),,,,,,,,-- --- ---- --- ------ ----- ------- ---- -- --- ------- --<br>------- ---------- ------ -- ----- -- ----- -- ---- ------<br>--- ----- --- --- bonds' -------- ----- --- ------ ----- --<br>----- ----- ---------- --- --- ------ ------ ---- -- ------<br>------- --- ------ ----- --- ---- ------- -- ---- --- --<br>------- ------,188737.80500001158,188736.75999999978,188240.013,188250.26500000968,188256.539,188739.868,,26,bonds'
screen,html.Screen,1_1_1_1_27,2021-04-13T12:41:09.178Z,,,,,,,,,,,,,,,,54,,,,,,,,,,,,,,613.2020000119519,,response,,,,100,,,,,,,Space,keypress(Space),,,,,,,,-- --- ---- --- ------ ----- ------- ---- -- --- ------- --<br>------- ---------- ------ -- ----- -- ----- -- ---- ------<br>--- ----- --- --- ------ interest ----- --- ------ ----- --<br>----- ----- ---------- --- --- ------ ------ ---- -- ------<br>------- --- ------ ----- --- ---- ------- -- ---- --- --<br>------- ------,189354.090000008,189353.07000001194,188723.416,188738.10000001686,188739.868,189356.57,,27,interest
screen,html.Screen,1_1_1_1_28,2021-04-13T12:41:10.050Z,,,,,,,,,,,,,,,,54,,,,,,,,,,,,,,868.1900000118767,,response,,,,100,,,,,,,Space,keypress(Space),,,,,,,,-- --- ---- --- ------ ----- ------- ---- -- --- ------- --<br>------- ---------- ------ -- ----- -- ----- -- ---- ------<br>--- ----- --- --- ------ -------- rate. --- ------ ----- --<br>----- ----- ---------- --- --- ------ ------ ---- -- ------<br>------- --- ------ ----- --- ---- ------- -- ---- --- --<br>------- ------,190225.78000000794,190224.76000001188,189339.995,189354.40500002005,189356.57,190240.04,,28,rate.
screen,html.Screen,1_1_1_1_29,2021-04-13T12:41:10.554Z,,,,,,,,,,,,,,,,54,,,,,,,,,,,,,,488.7150000182737,,response,,,,100,,,,,,,Space,keypress(Space),,,,,,,,-- --- ---- --- ------ ----- ------- ---- -- --- ------- --<br>------- ---------- ------ -- ----- -- ----- -- ---- ------<br>--- ----- --- --- ------ -------- ----- The ------ ----- --<br>----- ----- ---------- --- --- ------ ------ ---- -- ------<br>------- --- ------ ----- --- ---- ------- -- ---- --- --<br>------- ------,190729.77500001434,190728.75500001828,190223.214,190226.09000001103,190240.04,190739.78,,29,The
screen,html.Screen,1_1_1_1_30,2021-04-13T12:41:11.026Z,,,,,,,,,,,,,,,,54,,,,,,,,,,,,,,460.98999999582884,,response,,,,100,,,,,,,Space,keypress(Space),,,,,,,,-- --- ---- --- ------ ----- ------- ---- -- --- ------- --<br>------- ---------- ------ -- ----- -- ----- -- ---- ------<br>--- ----- --- --- ------ -------- ----- --- market ----- --<br>----- ----- ---------- --- --- ------ ------ ---- -- ------<br>------- --- ------ ----- --- ---- ------- -- ---- --- --<br>------- ------,191201.8050000188,191200.76999999583,190723.258,190730.08000000846,190739.78,191206.566,,30,market
screen,html.Screen,1_1_1_1_31,2021-04-13T12:41:11.442Z,,,,,,,,,,,,,,,,54,,,,,,,,,,,,,,410.18400001560804,,response,,,,100,,,,,,,Space,keypress(Space),,,,,,,,-- --- ---- --- ------ ----- ------- ---- -- --- ------- --<br>------- ---------- ------ -- ----- -- ----- -- ---- ------<br>--- ----- --- --- ------ -------- ----- --- ------ value --<br>----- ----- ---------- --- --- ------ ------ ---- -- ------<br>------- --- ------ ----- --- ---- ------- -- ---- --- --<br>------- ------,191617.92000001878,191616.7500000156,191189.98,191202.17500001309,191206.566,191623.195,,31,value
screen,html.Screen,1_1_1_1_32,2021-04-13T12:41:11.882Z,,,,,,,,,,,,,,,,54,,,,,,,,,,,,,,433.61000000016065,,response,,,,100,,,,,,,Space,keypress(Space),,,,,,,,-- --- ---- --- ------ ----- ------- ---- -- --- ------- --<br>------- ---------- ------ -- ----- -- ----- -- ---- ------<br>--- ----- --- --- ------ -------- ----- --- ------ ----- of<br>----- ----- ---------- --- --- ------ ------ ---- -- ------<br>------- --- ------ ----- --- ---- ------- -- ---- --- --<br>------- ------,192057.82000001636,192056.80500000017,191606.758,191618.2100000151,191623.195,192073.295,,32,of
screen,html.Screen,1_1_1_1_33,2021-04-13T12:41:12.274Z,,,,,,,,,,,,,,,,54,,,,,,,,,,,,,,375.4449999925273,,response,,,,100,,,,,,,Space,keypress(Space),,,,,,,,-- --- ---- --- ------ ----- ------- ---- -- --- ------- --<br>------- ---------- ------ -- ----- -- ----- -- ---- ------<br>--- ----- --- --- ------ -------- ----- --- ------ ----- --<br>these ----- ---------- --- --- ------ ------ ---- -- ------<br>------- --- ------ ----- --- ---- ------- -- ---- --- --<br>------- ------,192449.7900000133,192448.73999999254,192056.666,192058.17500001285,192073.295,192456.564,,33,these
screen,html.Screen,1_1_1_1_34,2021-04-13T12:41:12.698Z,,,,,,,,,,,,,,,,54,,,,,,,,,,,,,,416.2210000141058,,response,,,,100,,,,,,,Space,keypress(Space),,,,,,,,-- --- ---- --- ------ ----- ------- ---- -- --- ------- --<br>------- ---------- ------ -- ----- -- ----- -- ---- ------<br>--- ----- --- --- ------ -------- ----- --- ------ ----- --<br>----- bonds ---------- --- --- ------ ------ ---- -- ------<br>------- --- ------ ----- --- ---- ------- -- ---- --- --<br>------- ------,192873.83500000578,192872.78500001412,192439.993,192450.08999999845,192456.564,192889.933,,34,bonds
screen,html.Screen,1_1_1_1_35,2021-04-13T12:41:13.162Z,,,,,,,,,,,,,,,,54,,,,,,,,,,,,,,446.78700002116966,,response,,,,100,,,,,,,Space,keypress(Space),,,,,,,,"-- --- ---- --- ------ ----- ------- ---- -- --- ------- --<br>------- ---------- ------ -- ----- -- ----- -- ---- ------<br>--- ----- --- --- ------ -------- ----- --- ------ ----- --<br>----- ----- plummeted, --- --- ------ ------ ---- -- ------<br>------- --- ------ ----- --- ---- ------- -- ---- --- --<br>------- ------",193337.74499999708,193336.72000002116,192873.31,192874.14500000887,192889.933,193339.88,,35,"plummeted,"
screen,html.Screen,1_1_1_1_36,2021-04-13T12:41:13.706Z,,,,,,,,,,,,,,,,54,,,,,,,,,,,,,,540.8949999978067,,response,,,,100,,,,,,,Space,keypress(Space),,,,,,,,-- --- ---- --- ------ ----- ------- ---- -- --- ------- --<br>------- ---------- ------ -- ----- -- ----- -- ---- ------<br>--- ----- --- --- ------ -------- ----- --- ------ ----- --<br>----- ----- ---------- and --- ------ ------ ---- -- ------<br>------- --- ------ ----- --- ---- ------- -- ---- --- --<br>------- ------,193881.79499999387,193880.7749999978,193323.204,193338.0500000203,193339.88,193889.91,,36,and
screen,html.Screen,1_1_1_1_37,2021-04-13T12:41:14.146Z,,,,,,,,,,,,,,,,54,,,,,,,,,,,,,,430.8299999955634,,response,,,,100,,,,,,,Space,keypress(Space),,,,,,,,-- --- ---- --- ------ ----- ------- ---- -- --- ------- --<br>------- ---------- ------ -- ----- -- ----- -- ---- ------<br>--- ----- --- --- ------ -------- ----- --- ------ ----- --<br>----- ----- ---------- --- the ------ ------ ---- -- ------<br>------- --- ------ ----- --- ---- ------- -- ---- --- --<br>------- ------,194321.7500000028,194320.73999999557,193873.274,193882.09500000812,193889.91,194353.889,,37,the
screen,html.Screen,1_1_1_1_38,2021-04-13T12:41:14.962Z,,,,,,,,,,,,,,,,54,,,,,,,,,,,,,,782.9910000054806,,response,,,,100,,,,,,,Space,keypress(Space),,,,,,,,-- --- ---- --- ------ ----- ------- ---- -- --- ------- --<br>------- ---------- ------ -- ----- -- ----- -- ---- ------<br>--- ----- --- --- ------ -------- ----- --- ------ ----- --<br>----- ----- ---------- --- --- market ------ ---- -- ------<br>------- --- ------ ----- --- ---- ------- -- ---- --- --<br>------- ------,195137.90000000154,195136.88000000548,194306.667,194322.05000001704,194353.889,195172.202,,38,market
screen,html.Screen,1_1_1_1_39,2021-04-13T12:41:15.458Z,,,,,,,,,,,,,,,,54,,,,,,,,,,,,,,460.56300001667114,,response,,,,100,,,,,,,Space,keypress(Space),,,,,,,,-- --- ---- --- ------ ----- ------- ---- -- --- ------- --<br>------- ---------- ------ -- ----- -- ----- -- ---- ------<br>--- ----- --- --- ------ -------- ----- --- ------ ----- --<br>----- ----- ---------- --- --- ------ became ---- -- ------<br>------- --- ------ ----- --- ---- ------- -- ---- --- --<br>------- ------,195633.86000000173,195632.76500001666,195123.374,195138.2000000158,195172.202,195639.877,,39,became
screen,html.Screen,1_1_1_1_40,2021-04-13T12:41:15.874Z,,,,,,,,,,,,,,,,54,,,,,,,,,,,,,,408.87300001629046,,response,,,,100,,,,,,,Space,keypress(Space),,,,,,,,-- --- ---- --- ------ ----- ------- ---- -- --- ------- --<br>------- ---------- ------ -- ----- -- ----- -- ---- ------<br>--- ----- --- --- ------ -------- ----- --- ------ ----- --<br>----- ----- ---------- --- --- ------ ------ wary -- ------<br>------- --- ------ ----- --- ---- ------- -- ---- --- --<br>------- ------,196049.80500001693,196048.7500000163,195623.396,195634.2650000006,195639.877,196056.483,,40,wary
screen,html.Screen,1_1_1_1_41,2021-04-13T12:41:16.330Z,,,,,,,,,,,,,,,,54,,,,,,,,,,,,,,448.33199999295175,,response,,,,100,,,,,,,Space,keypress(Space),,,,,,,,-- --- ---- --- ------ ----- ------- ---- -- --- ------- --<br>------- ---------- ------ -- ----- -- ----- -- ---- ------<br>--- ----- --- --- ------ -------- ----- --- ------ ----- --<br>----- ----- ---------- --- --- ------ ------ ---- of ------<br>------- --- ------ ----- --- ---- ------- -- ---- --- --<br>------- ------,196505.839999998,196504.81499999296,196040.1,196050.11500002,196056.483,196523.407,,41,of
screen,html.Screen,1_1_1_1_42,2021-04-13T12:41:16.778Z,,,,,,,,,,,,,,,,54,,,,,,,,,,,,,,429.3880000192439,,response,,,,100,,,,,,,Space,keypress(Space),,,,,,,,-- --- ---- --- ------ ----- ------- ---- -- --- ------- --<br>------- ---------- ------ -- ----- -- ----- -- ---- ------<br>--- ----- --- --- ------ -------- ----- --- ------ ----- --<br>----- ----- ---------- --- --- ------ ------ ---- -- French<br>------- --- ------ ----- --- ---- ------- -- ---- --- --<br>------- ------,196953.83499999298,196952.79500001925,196506.658,196506.12500001444,196523.407,196956.503,,42,French
screen,html.Screen,1_1_1_1_43,2021-04-13T12:41:17.194Z,,,,,,,,,,,,,,,,54,,,,,,,,,,,,,,412.26200002108817,,response,,,,100,,,,,,,Space,keypress(Space),,,,,,,,-- --- ---- --- ------ ----- ------- ---- -- --- ------- --<br>------- ---------- ------ -- ----- -- ----- -- ---- ------<br>--- ----- --- --- ------ -------- ----- --- ------ ----- --<br>----- ----- ---------- --- --- ------ ------ ---- -- ------<br>credit. --- ------ ----- --- ---- ------- -- ---- --- --<br>------- ------,197369.81500001275,197368.76500002109,196940.034,196954.12000000942,196956.503,197373.21,,43,credit.
screen,html.Screen,1_1_1_1_44,2021-04-13T12:41:17.626Z,,,,,,,,,,,,,,,,54,,,,,,,,,,,,,,427.5450000038545,,response,,,,100,,,,,,,Space,keypress(Space),,,,,,,,-- --- ---- --- ------ ----- ------- ---- -- --- ------- --<br>------- ---------- ------ -- ----- -- ----- -- ---- ------<br>--- ----- --- --- ------ -------- ----- --- ------ ----- --<br>----- ----- ---------- --- --- ------ ------ ---- -- ------<br>------- The ------ ----- --- ---- ------- -- ---- --- --<br>------- ------,197801.8049999955,197800.75500000385,197356.65,197370.12000000686,197373.21,197806.581,,44,The
screen,html.Screen,1_1_1_1_45,2021-04-13T12:41:18.226Z,,,,,,,,,,,,,,,,54,,,,,,,,,,,,,,594.2040000052657,,response,,,,100,,,,,,,Space,keypress(Space),,,,,,,,-- --- ---- --- ------ ----- ------- ---- -- --- ------- --<br>------- ---------- ------ -- ----- -- ----- -- ---- ------<br>--- ----- --- --- ------ -------- ----- --- ------ ----- --<br>----- ----- ---------- --- --- ------ ------ ---- -- ------<br>------- --- French ----- --- ---- ------- -- ---- --- --<br>------- ------,198401.8100000103,198400.78500000527,197789.946,197802.09000001196,197806.581,198406.566,,45,French
screen,html.Screen,1_1_1_1_46,2021-04-13T12:41:18.690Z,,,,,,,,,,,,,,,,54,,,,,,,,,,,,,,458.258999996935,,response,,,,100,,,,,,,Space,keypress(Space),,,,,,,,-- --- ---- --- ------ ----- ------- ---- -- --- ------- --<br>------- ---------- ------ -- ----- -- ----- -- ---- ------<br>--- ----- --- --- ------ -------- ----- --- ------ ----- --<br>----- ----- ---------- --- --- ------ ------ ---- -- ------<br>------- --- ------ state --- ---- ------- -- ---- --- --<br>------- ------,198865.8600000199,198864.82499999693,198390.068,198402.1150000044,198406.566,198873.265,,46,state
screen,html.Screen,1_1_1_1_47,2021-04-13T12:41:19.178Z,,,,,,,,,,,,,,,,54,,,,,,,,,,,,,,479.5150000156136,,response,,,,100,,,,,,,Space,keypress(Space),,,,,,,,-- --- ---- --- ------ ----- ------- ---- -- --- ------- --<br>------- ---------- ------ -- ----- -- ----- -- ---- ------<br>--- ----- --- --- ------ -------- ----- --- ------ ----- --<br>----- ----- ---------- --- --- ------ ------ ---- -- ------<br>------- --- ------ ----- was ---- ------- -- ---- --- --<br>------- ------,199353.81000000052,199352.78000001563,198856.702,198866.16000000504,198873.265,199356.561,,47,was
screen,html.Screen,1_1_1_1_48,2021-04-13T12:41:19.714Z,,,,,,,,,,,,,,,,54,,,,,,,,,,,,,,532.6240000072867,,response,,,,100,,,,,,,Space,keypress(Space),,,,,,,,-- --- ---- --- ------ ----- ------- ---- -- --- ------- --<br>------- ---------- ------ -- ----- -- ----- -- ---- ------<br>--- ----- --- --- ------ -------- ----- --- ------ ----- --<br>----- ----- ---------- --- --- ------ ------ ---- -- ------<br>------- --- ------ ----- --- left ------- -- ---- --- --<br>------- ------,199890.2400000079,199889.18500000727,199340.05,199354.2299999972,199356.561,199906.707,,48,left
screen,html.Screen,1_1_1_1_49,2021-04-13T12:41:20.170Z,,,,,,,,,,,,,,,,54,,,,,,,,,,,,,,438.0779999938677,,response,,,,100,,,,,,,Space,keypress(Space),,,,,,,,-- --- ---- --- ------ ----- ------- ---- -- --- ------- --<br>------- ---------- ------ -- ----- -- ----- -- ---- ------<br>--- ----- --- --- ------ -------- ----- --- ------ ----- --<br>----- ----- ---------- --- --- ------ ------ ---- -- ------<br>------- --- ------ ----- --- ---- without -- ---- --- --<br>------- ------,200345.8099999989,200344.78499999386,199889.947,199890.5350000132,199906.707,200356.62,,49,without
screen,html.Screen,1_1_1_1_50,2021-04-13T12:41:20.658Z,,,,,,,,,,,,,,,,54,,,,,,,,,,,,,,476.1099999946309,,response,,,,100,,,,,,,Space,keypress(Space),,,,,,,,-- --- ---- --- ------ ----- ------- ---- -- --- ------- --<br>------- ---------- ------ -- ----- -- ----- -- ---- ------<br>--- ----- --- --- ------ -------- ----- --- ------ ----- --<br>----- ----- ---------- --- --- ------ ------ ---- -- ------<br>------- --- ------ ----- --- ---- ------- an ---- --- --<br>------- ------,200833.7650000176,200832.72999999463,200339.952,200346.13499999978,200356.62,200839.923,,50,an
screen,html.Screen,1_1_1_1_51,2021-04-13T12:41:21.290Z,,,,,,,,,,,,,,,,54,,,,,,,,,,,,,,624.831999993592,,response,,,,100,,,,,,,Space,keypress(Space),,,,,,,,-- --- ---- --- ------ ----- ------- ---- -- --- ------- --<br>------- ---------- ------ -- ----- -- ----- -- ---- ------<br>--- ----- --- --- ------ -------- ----- --- ------ ----- --<br>----- ----- ---------- --- --- ------ ------ ---- -- ------<br>------- --- ------ ----- --- ---- ------- -- easy --- --<br>------- ------,201465.8000000054,201464.7549999936,200823.318,200834.18500001426,200839.923,201473.259,,51,easy
screen,html.Screen,1_1_1_1_52,2021-04-13T12:41:21.713Z,,,,,,,,,,,,,,,,54,,,,,,,,,,,,,,414.77100000189967,,response,,,,100,,,,,,,Space,keypress(Space),,,,,,,,-- --- ---- --- ------ ----- ------- ---- -- --- ------- --<br>------- ---------- ------ -- ----- -- ----- -- ---- ------<br>--- ----- --- --- ------ -------- ----- --- ------ ----- --<br>----- ----- ---------- --- --- ------ ------ ---- -- ------<br>------- --- ------ ----- --- ---- ------- -- ---- way --<br>------- ------,201888.65500001702,201888.0300000019,201456.721,201466.10499999952,201473.259,201917.395,,52,way
screen,html.Screen,1_1_1_1_53,2021-04-13T12:41:22.218Z,,,,,,,,,,,,,,,,54,,,,,,,,,,,,,,475.3650000170164,,response,,,,100,,,,,,,Space,keypress(Space),,,,,,,,-- --- ---- --- ------ ----- ------- ---- -- --- ------- --<br>------- ---------- ------ -- ----- -- ----- -- ---- ------<br>--- ----- --- --- ------ -------- ----- --- ------ ----- --<br>----- ----- ---------- --- --- ------ ------ ---- -- ------<br>------- --- ------ ----- --- ---- ------- -- ---- --- of<br>------- ------,202393.78000001307,202392.760000017,201873.336,201888.83000001078,201917.395,202406.666,,53,of
screen,html.Screen,1_1_1_1_54,2021-04-13T12:41:22.682Z,,,,,,,,,,,,,,,,54,,,,,,,,,,,,,,450.09399999512243,,response,,,,100,,,,,,,Space,keypress(Space),,,,,,,,-- --- ---- --- ------ ----- ------- ---- -- --- ------- --<br>------- ---------- ------ -- ----- -- ----- -- ---- ------<br>--- ----- --- --- ------ -------- ----- --- ------ ----- --<br>----- ----- ---------- --- --- ------ ------ ---- -- ------<br>------- --- ------ ----- --- ---- ------- -- ---- --- --<br>raising ------,202857.78000002028,202856.75999999512,202390.066,202394.1900000209,202406.666,202873.384,,54,raising
screen,html.Screen,1_1_1_1_55,2021-04-13T12:41:23.146Z,,,,,,,,,,,,,,,,54,,,,,,,,,,,,,,447.3760000023467,,response,,,,100,,,,,,,Space,keypress(Space),,,,,,,,-- --- ---- --- ------ ----- ------- ---- -- --- ------- --<br>------- ---------- ------ -- ----- -- ----- -- ---- ------<br>--- ----- --- --- ------ -------- ----- --- ------ ----- --<br>----- ----- ---------- --- --- ------ ------ ---- -- ------<br>------- --- ------ ----- --- ---- ------- -- ---- --- --<br>------- money.,203321.77500001853,203320.76000000234,202856.675,202858.13999999664,202873.384,203339.879,,55,money.
Item 100,flow.Loop,1_1_1_1,2021-04-13T12:41:23.146Z,,,,,,,,,,,,,,,,,,,,,,,,,,,,,,30747.495000002324,,completion,,,,,A,,,,,,,,,,,silence,,,,,203322.2999999998,203320.76000000234,172556.716,172558.17000000388,172573.265,203339.879,,,
Question 1,html.Screen,1_1_1_2,2021-04-13T12:41:26.187Z,,,,,,,,,,,,,,,,,,,,,,,,,,,true,TRUE,,3022.0559999935504,,response,,,,100,A,,,,,,TRUE,click #choice-1,,,,silence,,,,,206362.74500002037,206361.93499999354,203323.275,203322.5350000139,203339.879,206389.857,,,
Question 2,html.Screen,1_1_1_3,2021-04-13T12:41:28.657Z,,,,,,,,,,,,,,,,,,,,,,,,,,,true,FALSE,,2441.9829999989306,,response,,,,100,A,,,,,,FALSE,click #choice-2,,,,silence,,,,,208832.705000008,208831.83999999892,206373.28,206362.85500001395,206389.857,208839.832,,,
Item 100,flow.Sequence,1_1_1,2021-04-13T12:41:28.657Z,,,,,,,,,,,,,,,,,,,,,,,,,,,,,,46258.65799999892,,completion,,,,,,,,,,,,,,,,,,,,,208832.87499999278,208831.83999999892,162556.632,162571.08500000322,162573.182,208839.832,,,
End of Practice,html.Page,1_1_2,2021-04-13T12:41:32.447Z,,,,,,,,,,,,,,,,,,,,,,,,,,,,,,3782.9630000029574,,form submission,,,,,,,,,,,,,,,,,,,,,212623.1550000084,212622.79500000295,208823.39,208832.9500000109,208839.832,212650.609,,,
Practice,flow.Sequence,1_1,2021-04-13T12:41:32.448Z,,,,,,,,,,,,,,,,,,,,,,,,,,,,,,106149.52400000296,,completion,,,,,,,,,,,,,,,,,,,,,212623.42499999795,212622.79500000295,106440.057,106459.51499999501,106473.271,212650.609,,,
Trap_instruction,html.Page,1_2_0,2021-04-13T12:41:36.559Z,,,,,,,,,,,,,,,,,,,,,,,,,,,,,,4083.9210000160965,,form submission,,,,,,,,,,,,,,,,,,,,,216734.87000001478,216734.5300000161,212606.616,212623.61000000965,212650.609,216789.818,,,
trap_trial,html.Screen,1_2_1,2021-04-13T12:41:40.253Z,,,,,,,,,,,,,,,,,,,,,,,,,,,true,1,,3638.012000000541,,response,,,,,,,,,,,1,click #choice-1,,,,,,,,,220428.70000001858,220427.83000000054,216723.419,216734.9749999994,216789.818,220439.984,,,
end of trap trial,html.Page,1_2_2,2021-04-13T12:41:41.941Z,,,,,,,,,,,,,,,,,,,,,,,,,,,,,,1670.791000008292,,form submission,,,,,,,,,,,,,,,,,,,,,222116.86500001815,222110.7750000083,220423.216,220428.8499999966,220439.984,222123.173,,,
Trap 1,flow.Sequence,1_2,2021-04-13T12:41:41.941Z,,,,,,,,,,,,,,,,,,,,,,,,,,,,,,9460.166000008292,,completion,,,,,,,,,,,,,,,,,,,,,222117.06000001868,222110.7750000083,212606.616,212623.5699999961,212650.609,222123.173,,,
Standby,html.Page,1_3_0,2021-04-13T12:41:49.932Z,,,,,,,,,,,,,,,,,,,,,,,,,,,,,,8000.012999999977,,timeout,,,,,,,,,,,,,,,,,,,,,230108.04500000086,230106.711,222106.738,222117.17000001227,222123.173,230123.186,,,
Holding screen,html.Screen,1_3_1_0_0,2021-04-13T12:41:56.932Z,,,,,,,,,,,,,,,,,,,,,,,,,,,,,,7000.1050000000105,,timeout,,,,,,,,,,,,,,,,,,,,,237107.86000001826,237106.626,230106.711,230108.54000001564,230123.186,237123.291,,,
screen,html.Screen,1_3_1_0_1_0,2021-04-13T12:41:57.691Z,,,,,,,,,,,,,,,,51,,,,,,,,,,,,,,741.9539999935951,,response,,,,13,A,,,,,,Space,keypress(Space),,,,silence,,,,American -------- --- --- ---- --- --- ------ -- --------<br>---- --------- --- ------- ------------ ---------- ---------<br>--- ---------- ------- ---------- ------- -- -------- ----<br>---- --- ------ ----- ------ -- ---- --- ----- -- - -------<br>-------- -- --- --- -- ----- ----------- ----- -----------<br>---- --- ---------- --- ---- --- -- ----------,237866.71500001103,237865.2449999936,237106.626,237108.27500000596,237123.291,237873.193,,0,American
screen,html.Screen,1_3_1_0_1_1,2021-04-13T12:41:58.138Z,,,,,,,,,,,,,,,,51,,,,,,,,,,,,,,439.51699999833363,,response,,,,13,A,,,,,,Space,keypress(Space),,,,silence,,,,-------- industry --- --- ---- --- --- ------ -- --------<br>---- --------- --- ------- ------------ ---------- ---------<br>--- ---------- ------- ---------- ------- -- -------- ----<br>---- --- ------ ----- ------ -- ---- --- ----- -- - -------<br>-------- -- --- --- -- ----- ----------- ----- -----------<br>---- --- ---------- --- ---- --- -- ----------,238313.75500001013,238312.70999999833,237856.648,237867.04500002088,237873.193,238323.298,,1,industry
screen,html.Screen,1_3_1_0_1_2,2021-04-13T12:41:58.682Z,,,,,,,,,,,,,,,,51,,,,,,,,,,,,,,533.3420000126935,,response,,,,13,A,,,,,,Space,keypress(Space),,,,silence,,,,-------- -------- may --- ---- --- --- ------ -- --------<br>---- --------- --- ------- ------------ ---------- ---------<br>--- ---------- ------- ---------- ------- -- -------- ----<br>---- --- ------ ----- ------ -- ---- --- ----- -- - -------<br>-------- -- --- --- -- ----- ----------- ----- -----------<br>---- --- ---------- --- ---- --- -- ----------,238857.6849999954,238856.6400000127,238306.629,238314.1750000068,238323.298,238873.409,,2,may
screen,html.Screen,1_3_1_0_1_3,2021-04-13T12:41:59.090Z,,,,,,,,,,,,,,,,51,,,,,,,,,,,,,,391.3059999975085,,response,,,,13,A,,,,,,Space,keypress(Space),,,,silence,,,,-------- -------- --- not ---- --- --- ------ -- --------<br>---- --------- --- ------- ------------ ---------- ---------<br>--- ---------- ------- ---------- ------- -- -------- ----<br>---- --- ------ ----- ------ -- ---- --- ----- -- - -------<br>-------- -- --- --- -- ----- ----------- ----- -----------<br>---- --- ---------- --- ---- --- -- ----------,239265.76999999816,239264.71499999752,238856.545,238858.03500001202,238873.409,239273.155,,3,not
screen,html.Screen,1_3_1_0_1_4,2021-04-13T12:41:59.506Z,,,,,,,,,,,,,,,,51,,,,,,,,,,,,,,407.60000000850414,,response,,,,13,A,,,,,,Space,keypress(Space),,,,silence,,,,-------- -------- --- --- know --- --- ------ -- --------<br>---- --------- --- ------- ------------ ---------- ---------<br>--- ---------- ------- ---------- ------- -- -------- ----<br>---- --- ------ ----- ------ -- ---- --- ----- -- - -------<br>-------- -- --- --- -- ----- ----------- ----- -----------<br>---- --- ---------- --- ---- --- -- ----------,239681.99500002083,239680.7550000085,239256.68,239266.0700000124,239273.155,239689.898,,4,know
screen,html.Screen,1_3_1_0_1_5,2021-04-13T12:41:59.930Z,,,,,,,,,,,,,,,,51,,,,,,,,,,,,,,414.8120000141789,,response,,,,13,A,,,,,,Space,keypress(Space),,,,silence,,,,"-------- -------- --- --- ---- it, --- ------ -- --------<br>---- --------- --- ------- ------------ ---------- ---------<br>--- ---------- ------- ---------- ------- -- -------- ----<br>---- --- ------ ----- ------ -- ---- --- ----- -- - -------<br>-------- -- --- --- -- ----- ----------- ----- -----------<br>---- --- ---------- --- ---- --- -- ----------",240105.750000017,240104.71000001417,239673.218,239682.30000001495,239689.898,240140.117,,5,"it,"
screen,html.Screen,1_3_1_0_1_6,2021-04-13T12:42:00.354Z,,,,,,,,,,,,,,,,51,,,,,,,,,,,,,,388.5380000018922,,response,,,,13,A,,,,,,Space,keypress(Space),,,,silence,,,,-------- -------- --- --- ---- --- but ------ -- --------<br>---- --------- --- ------- ------------ ---------- ---------<br>--- ---------- ------- ---------- ------- -- -------- ----<br>---- --- ------ ----- ------ -- ---- --- ----- -- - -------<br>-------- -- --- --- -- ----- ----------- ----- -----------<br>---- --- ---------- --- ---- --- -- ----------,240529.6850000159,240528.6550000019,240123.394,240106.06000002008,240140.117,240539.94,,6,but
screen,html.Screen,1_3_1_0_1_7,2021-04-13T12:42:00.769Z,,,,,,,,,,,,,,,,51,,,,,,,,,,,,,,404.74000001506647,,response,,,,13,A,,,,,,Space,keypress(Space),,,,silence,,,,-------- -------- --- --- ---- --- --- debate -- --------<br>---- --------- --- ------- ------------ ---------- ---------<br>--- ---------- ------- ---------- ------- -- -------- ----<br>---- --- ------ ----- ------ -- ---- --- ----- -- - -------<br>-------- -- --- --- -- ----- ----------- ----- -----------<br>---- --- ---------- --- ---- --- -- ----------,240945.70999999996,240944.68000001507,240523.42,240529.98000002117,240539.94,240956.633,,7,debate
screen,html.Screen,1_3_1_0_1_8,2021-04-13T12:42:01.217Z,,,,,,,,,,,,,,,,51,,,,,,,,,,,,,,436.06200001682737,,response,,,,13,A,,,,,,Space,keypress(Space),,,,silence,,,,-------- -------- --- --- ---- --- --- ------ in --------<br>---- --------- --- ------- ------------ ---------- ---------<br>--- ---------- ------- ---------- ------- -- -------- ----<br>---- --- ------ ----- ------ -- ---- --- ----- -- - -------<br>-------- -- --- --- -- ----- ----------- ----- -----------<br>---- --- ---------- --- ---- --- -- ----------,241393.7600000063,241392.69500001683,240940.073,240946.00500000524,240956.633,241406.612,,8,in
screen,html.Screen,1_3_1_0_1_9,2021-04-13T12:42:01.641Z,,,,,,,,,,,,,,,,51,,,,,,,,,,,,,,410.0680000181019,,response,,,,13,A,,,,,,Space,keypress(Space),,,,silence,,,,-------- -------- --- --- ---- --- --- ------ -- Congress<br>---- --------- --- ------- ------------ ---------- ---------<br>--- ---------- ------- ---------- ------- -- -------- ----<br>---- --- ------ ----- ------ -- ---- --- ----- -- - -------<br>-------- -- --- --- -- ----- ----------- ----- -----------<br>---- --- ---------- --- ---- --- -- ----------,241817.7399999986,241816.6800000181,241390.037,241394.10999999382,241406.612,241823.255,,9,Congress
screen,html.Screen,1_3_1_0_1_10,2021-04-13T12:42:02.113Z,,,,,,,,,,,,,,,,51,,,,,,,,,,,,,,465.41500000900123,,response,,,,13,A,,,,,,Space,keypress(Space),,,,silence,,,,-------- -------- --- --- ---- --- --- ------ -- --------<br>over --------- --- ------- ------------ ---------- ---------<br>--- ---------- ------- ---------- ------- -- -------- ----<br>---- --- ------ ----- ------ -- ---- --- ----- -- - -------<br>-------- -- --- --- -- ----- ----------- ----- -----------<br>---- --- ---------- --- ---- --- -- ----------,242289.69500001404,242288.670000009,241806.658,241818.02500001504,241823.255,242306.654,,10,over
screen,html.Screen,1_3_1_0_1_11,2021-04-13T12:42:02.561Z,,,,,,,,,,,,,,,,51,,,,,,,,,,,,,,429.9909999972151,,response,,,,13,A,,,,,,Space,keypress(Space),,,,silence,,,,-------- -------- --- --- ---- --- --- ------ -- --------<br>---- reforming --- ------- ------------ ---------- ---------<br>--- ---------- ------- ---------- ------- -- -------- ----<br>---- --- ------ ----- ------ -- ---- --- ----- -- - -------<br>-------- -- --- --- -- ----- ----------- ----- -----------<br>---- --- ---------- --- ---- --- -- ----------,242737.67500001122,242736.64499999722,242290.066,242290.00000000815,242306.654,242739.874,,11,reforming
screen,html.Screen,1_3_1_0_1_12,2021-04-13T12:42:02.986Z,,,,,,,,,,,,,,,,51,,,,,,,,,,,,,,421.0410000149277,,response,,,,13,A,,,,,,Space,keypress(Space),,,,silence,,,,-------- -------- --- --- ---- --- --- ------ -- --------<br>---- --------- the ------- ------------ ---------- ---------<br>--- ---------- ------- ---------- ------- -- -------- ----<br>---- --- ------ ----- ------ -- ---- --- ----- -- - -------<br>-------- -- --- --- -- ----- ----------- ----- -----------<br>---- --- ---------- --- ---- --- -- ----------,243161.935000011,243160.91500001494,242723.349,242737.97499999637,242739.874,243173.325,,12,the
screen,html.Screen,1_3_1_0_1_13,2021-04-13T12:42:03.361Z,,,,,,,,,,,,,,,,51,,,,,,,,,,,,,,363.3350000124774,,response,,,,13,A,,,,,,Space,keypress(Space),,,,silence,,,,-------- -------- --- --- ---- --- --- ------ -- --------<br>---- --------- --- federal ------------ ---------- ---------<br>--- ---------- ------- ---------- ------- -- -------- ----<br>---- --- ------ ----- ------ -- ---- --- ----- -- - -------<br>-------- -- --- --- -- ----- ----------- ----- -----------<br>---- --- ---------- --- ---- --- -- ----------,243537.71000000415,243536.6600000125,243156.661,243162.23499999614,243173.325,243539.904,,13,federal
screen,html.Screen,1_3_1_0_1_14,2021-04-13T12:42:03.793Z,,,,,,,,,,,,,,,,51,,,,,,,,,,,,,,428.7010000018345,,response,,,,13,A,,,,,,Space,keypress(Space),,,,silence,,,,-------- -------- --- --- ---- --- --- ------ -- --------<br>---- --------- --- ------- government's ---------- ---------<br>--- ---------- ------- ---------- ------- -- -------- ----<br>---- --- ------ ----- ------ -- ---- --- ----- -- - -------<br>-------- -- --- --- -- ----- ----------- ----- -----------<br>---- --- ---------- --- ---- --- -- ----------,243969.65000001364,243968.60500000184,243523.368,243538.06500000064,243539.904,243973.234,,14,government's
screen,html.Screen,1_3_1_0_1_15,2021-04-13T12:42:04.257Z,,,,,,,,,,,,,,,,51,,,,,,,,,,,,,,459.4609999958775,,response,,,,13,A,,,,,,Space,keypress(Space),,,,silence,,,,-------- -------- --- --- ---- --- --- ------ -- --------<br>---- --------- --- ------- ------------ regulatory ---------<br>--- ---------- ------- ---------- ------- -- -------- ----<br>---- --- ------ ----- ------ -- ---- --- ----- -- - -------<br>-------- -- --- --- -- ----- ----------- ----- -----------<br>---- --- ---------- --- ---- --- -- ----------,244433.7649999943,244432.69499999587,243956.692,243969.935000001,243973.234,244439.931,,15,regulatory
screen,html.Screen,1_3_1_0_1_16,2021-04-13T12:42:05.433Z,,,,,,,,,,,,,,,,51,,,,,,,,,,,,,,1168.7740000205522,,response,,,,13,A,,,,,,Space,keypress(Space),,,,silence,,,,-------- -------- --- --- ---- --- --- ------ -- --------<br>---- --------- --- ------- ------------ ---------- apparatus<br>--- ---------- ------- ---------- ------- -- -------- ----<br>---- --- ------ ----- ------ -- ---- --- ----- -- - -------<br>-------- -- --- --- -- ----- ----------- ----- -----------<br>---- --- ---------- --- ---- --- -- ----------,245609.73500000546,245608.70500002056,244423.322,244434.08000000636,244439.931,245623.131,,16,apparatus
screen,html.Screen,1_3_1_0_1_17,2021-04-13T12:42:05.906Z,,,,,,,,,,,,,,,,51,,,,,,,,,,,,,,457.6140000138548,,response,,,,13,A,,,,,,Space,keypress(Space),,,,silence,,,,-------- -------- --- --- ---- --- --- ------ -- --------<br>---- --------- --- ------- ------------ ---------- ---------<br>may ---------- ------- ---------- ------- -- -------- ----<br>---- --- ------ ----- ------ -- ---- --- ----- -- - -------<br>-------- -- --- --- -- ----- ----------- ----- -----------<br>---- --- ---------- --- ---- --- -- ----------,246081.77499999874,246080.74500001385,245606.641,245610.0350000197,245623.131,246089.93,,17,may
screen,html.Screen,1_3_1_0_1_18,2021-04-13T12:42:06.490Z,,,,,,,,,,,,,,,,51,,,,,,,,,,,,,,574.8150000164169,,response,,,,13,A,,,,,,Space,keypress(Space),,,,silence,,,,-------- -------- --- --- ---- --- --- ------ -- --------<br>---- --------- --- ------- ------------ ---------- ---------<br>--- profoundly ------- ---------- ------- -- -------- ----<br>---- --- ------ ----- ------ -- ---- --- ----- -- - -------<br>-------- -- --- --- -- ----- ----------- ----- -----------<br>---- --- ---------- --- ---- --- -- ----------,246665.78500001924,246664.7450000164,246073.33,246082.08500000183,246089.93,246673.25,,18,profoundly
screen,html.Screen,1_3_1_0_1_19,2021-04-13T12:42:06.937Z,,,,,,,,,,,,,,,,51,,,,,,,,,,,,,,439.4550000068266,,response,,,,13,A,,,,,,Space,keypress(Space),,,,silence,,,,-------- -------- --- --- ---- --- --- ------ -- --------<br>---- --------- --- ------- ------------ ---------- ---------<br>--- ---------- improve ---------- ------- -- -------- ----<br>---- --- ------ ----- ------ -- ---- --- ----- -- - -------<br>-------- -- --- --- -- ----- ----------- ----- -----------<br>---- --- ---------- --- ---- --- -- ----------,247113.76500001643,247112.70500000683,246656.698,246666.09499999322,246673.25,247123.209,,19,improve
screen,html.Screen,1_3_1_0_1_20,2021-04-13T12:42:07.336Z,,,,,,,,,,,,,,,,51,,,,,,,,,,,,,,388.69600002121297,,response,,,,13,A,,,,,,Space,keypress(Space),,,,silence,,,,-------- -------- --- --- ---- --- --- ------ -- --------<br>---- --------- --- ------- ------------ ---------- ---------<br>--- ---------- ------- companies' ------- -- -------- ----<br>---- --- ------ ----- ------ -- ---- --- ----- -- - -------<br>-------- -- --- --- -- ----- ----------- ----- -----------<br>---- --- ---------- --- ---- --- -- ----------,247512.4899999937,247511.90500002122,247106.724,247114.06500000157,247123.209,247523.176,,20,companies'
screen,html.Screen,1_3_1_0_1_21,2021-04-13T12:42:08.546Z,,,,,,,,,,,,,,,,51,,,,,,,,,,,,,,1197.984000015509,,response,,,,13,A,,,,,,Space,keypress(Space),,,,silence,,,,-------- -------- --- --- ---- --- --- ------ -- --------<br>---- --------- --- ------- ------------ ---------- ---------<br>--- ---------- ------- ---------- ability -- -------- ----<br>---- --- ------ ----- ------ -- ---- --- ----- -- - -------<br>-------- -- --- --- -- ----- ----------- ----- -----------<br>---- --- ---------- --- ---- --- -- ----------,248722.22500000498,248721.16000001552,247506.646,247512.61000000522,247523.176,248756.745,,21,ability
screen,html.Screen,1_3_1_0_1_22,2021-04-13T12:42:08.937Z,,,,,,,,,,,,,,,,51,,,,,,,,,,,,,,355.9199999932898,,response,,,,13,A,,,,,,Space,keypress(Space),,,,silence,,,,-------- -------- --- --- ---- --- --- ------ -- --------<br>---- --------- --- ------- ------------ ---------- ---------<br>--- ---------- ------- ---------- ------- to -------- ----<br>---- --- ------ ----- ------ -- ---- --- ----- -- - -------<br>-------- -- --- --- -- ----- ----------- ----- -----------<br>---- --- ---------- --- ---- --- -- ----------,249113.74500000966,249112.66499999329,248740.084,248722.5299999991,248756.745,249123.345,,22,to
screen,html.Screen,1_3_1_0_1_23,2021-04-13T12:42:09.402Z,,,,,,,,,,,,,,,,51,,,,,,,,,,,,,,453.3499999961059,,response,,,,13,A,,,,,,Space,keypress(Space),,,,silence,,,,-------- -------- --- --- ---- --- --- ------ -- --------<br>---- --------- --- ------- ------------ ---------- ---------<br>--- ---------- ------- ---------- ------- -- survive. ----<br>---- --- ------ ----- ------ -- ---- --- ----- -- - -------<br>-------- -- --- --- -- ----- ----------- ----- -----------<br>---- --- ---------- --- ---- --- -- ----------,249577.82999999472,249576.6949999961,249106.574,249114.05500001274,249123.345,249589.872,,23,survive.
screen,html.Screen,1_3_1_0_1_24,2021-04-13T12:42:09.858Z,,,,,,,,,,,,,,,,51,,,,,,,,,,,,,,442.83300001962925,,response,,,,13,A,,,,,,Space,keypress(Space),,,,silence,,,,-------- -------- --- --- ---- --- --- ------ -- --------<br>---- --------- --- ------- ------------ ---------- ---------<br>--- ---------- ------- ---------- ------- -- -------- This<br>---- --- ------ ----- ------ -- ---- --- ----- -- - -------<br>-------- -- --- --- -- ----- ----------- ----- -----------<br>---- --- ---------- --- ---- --- -- ----------,250033.80999999354,250032.70500001963,249573.315,249578.14500000677,249589.872,250039.891,,24,This
screen,html.Screen,1_3_1_0_1_25,2021-04-13T12:42:10.297Z,,,,,,,,,,,,,,,,51,,,,,,,,,,,,,,432.7989999950514,,response,,,,13,A,,,,,,Space,keypress(Space),,,,silence,,,,-------- -------- --- --- ---- --- --- ------ -- --------<br>---- --------- --- ------- ------------ ---------- ---------<br>--- ---------- ------- ---------- ------- -- -------- ----<br>week --- ------ ----- ------ -- ---- --- ----- -- - -------<br>-------- -- --- --- -- ----- ----------- ----- -----------<br>---- --- ---------- --- ---- --- -- ----------,250473.7599999935,250472.68999999505,250023.359,250034.10000001895,250039.891,250490.048,,25,week
screen,html.Screen,1_3_1_0_1_26,2021-04-13T12:42:10.817Z,,,,,,,,,,,,,,,,51,,,,,,,,,,,,,,502.6520000025048,,response,,,,13,A,,,,,,Space,keypress(Space),,,,silence,,,,-------- -------- --- --- ---- --- --- ------ -- --------<br>---- --------- --- ------- ------------ ---------- ---------<br>--- ---------- ------- ---------- ------- -- -------- ----<br>---- the ------ ----- ------ -- ---- --- ----- -- - -------<br>-------- -- --- --- -- ----- ----------- ----- -----------<br>---- --- ---------- --- ---- --- -- ----------,250993.73499999638,250992.70000000251,250473.36,250474.07500000554,250490.048,251006.596,,26,the
screen,html.Screen,1_3_1_0_1_27,2021-04-13T12:42:11.249Z,,,,,,,,,,,,,,,,51,,,,,,,,,,,,,,418.0790000165871,,response,,,,13,A,,,,,,Space,keypress(Space),,,,silence,,,,-------- -------- --- --- ---- --- --- ------ -- --------<br>---- --------- --- ------- ------------ ---------- ---------<br>--- ---------- ------- ---------- ------- -- -------- ----<br>---- --- Senate ----- ------ -- ---- --- ----- -- - -------<br>-------- -- --- --- -- ----- ----------- ----- -----------<br>---- --- ---------- --- ---- --- -- ----------,251425.71999999927,251424.67500001658,250989.944,250994.01500000386,251006.596,251440.005,,27,Senate
screen,html.Screen,1_3_1_0_1_28,2021-04-13T12:42:11.745Z,,,,,,,,,,,,,,,,51,,,,,,,,,,,,,,480.6900000079768,,response,,,,13,A,,,,,,Space,keypress(Space),,,,silence,,,,-------- -------- --- --- ---- --- --- ------ -- --------<br>---- --------- --- ------- ------------ ---------- ---------<br>--- ---------- ------- ---------- ------- -- -------- ----<br>---- --- ------ seems ------ -- ---- --- ----- -- - -------<br>-------- -- --- --- -- ----- ----------- ----- -----------<br>---- --- ---------- --- ---- --- -- ----------,251921.7350000108,251920.69500000798,251423.342,251426.00500001572,251440.005,251940.862,,28,seems
screen,html.Screen,1_3_1_0_1_29,2021-04-13T12:42:12.225Z,,,,,,,,,,,,,,,,51,,,,,,,,,,,,,,459.7430000025488,,response,,,,13,A,,,,,,Space,keypress(Space),,,,silence,,,,-------- -------- --- --- ---- --- --- ------ -- --------<br>---- --------- --- ------- ------------ ---------- ---------<br>--- ---------- ------- ---------- ------- -- -------- ----<br>---- --- ------ ----- poised -- ---- --- ----- -- - -------<br>-------- -- --- --- -- ----- ----------- ----- -----------<br>---- --- ---------- --- ---- --- -- ----------,252401.63500001654,252400.60500000254,251906.617,251922.0300000161,251940.862,252406.55,,29,poised
screen,html.Screen,1_3_1_0_1_30,2021-04-13T12:42:12.673Z,,,,,,,,,,,,,,,,51,,,,,,,,,,,,,,442.1500000022934,,response,,,,13,A,,,,,,Space,keypress(Space),,,,silence,,,,-------- -------- --- --- ---- --- --- ------ -- --------<br>---- --------- --- ------- ------------ ---------- ---------<br>--- ---------- ------- ---------- ------- -- -------- ----<br>---- --- ------ ----- ------ to ---- --- ----- -- - -------<br>-------- -- --- --- -- ----- ----------- ----- -----------<br>---- --- ---------- --- ---- --- -- ----------,252849.7400000051,252848.70000000228,252390.028,252401.92999999272,252406.55,252856.548,,30,to
screen,html.Screen,1_3_1_0_1_31,2021-04-13T12:42:13.114Z,,,,,,,,,,,,,,,,51,,,,,,,,,,,,,,432.1969999980065,,response,,,,13,A,,,,,,Space,keypress(Space),,,,silence,,,,-------- -------- --- --- ---- --- --- ------ -- --------<br>---- --------- --- ------- ------------ ---------- ---------<br>--- ---------- ------- ---------- ------- -- -------- ----<br>---- --- ------ ----- ------ -- join --- ----- -- - -------<br>-------- -- --- --- -- ----- ----------- ----- -----------<br>---- --- ---------- --- ---- --- -- ----------,253289.8100000166,253288.74499999802,252840.07,252850.04499999923,252856.548,253306.562,,31,join
screen,html.Screen,1_3_1_0_1_32,2021-04-13T12:42:13.569Z,,,,,,,,,,,,,,,,51,,,,,,,,,,,,,,438.1280000213592,,response,,,,13,A,,,,,,Space,keypress(Space),,,,silence,,,,-------- -------- --- --- ---- --- --- ------ -- --------<br>---- --------- --- ------- ------------ ---------- ---------<br>--- ---------- ------- ---------- ------- -- -------- ----<br>---- --- ------ ----- ------ -- ---- the ----- -- - -------<br>-------- -- --- --- -- ----- ----------- ----- -----------<br>---- --- ---------- --- ---- --- -- ----------,253745.74000001303,253744.69000002136,253290.095,253290.1000000129,253306.562,253756.554,,32,the
screen,html.Screen,1_3_1_0_1_33,2021-04-13T12:42:14.001Z,,,,,,,,,,,,,,,,51,,,,,,,,,,,,,,420.11100000631995,,response,,,,13,A,,,,,,Space,keypress(Space),,,,silence,,,,-------- -------- --- --- ---- --- --- ------ -- --------<br>---- --------- --- ------- ------------ ---------- ---------<br>--- ---------- ------- ---------- ------- -- -------- ----<br>---- --- ------ ----- ------ -- ---- --- House -- - -------<br>-------- -- --- --- -- ----- ----------- ----- -----------<br>---- --- ---------- --- ---- --- -- ----------,254177.69500002032,254176.66500000632,253740.008,253746.0350000183,253756.554,254190.047,,33,House
screen,html.Screen,1_3_1_0_1_34,2021-04-13T12:42:14.409Z,,,,,,,,,,,,,,,,51,,,,,,,,,,,,,,394.6080000133079,,response,,,,13,A,,,,,,Space,keypress(Space),,,,silence,,,,-------- -------- --- --- ---- --- --- ------ -- --------<br>---- --------- --- ------- ------------ ---------- ---------<br>--- ---------- ------- ---------- ------- -- -------- ----<br>---- --- ------ ----- ------ -- ---- --- ----- in - -------<br>-------- -- --- --- -- ----- ----------- ----- -----------<br>---- --- ---------- --- ---- --- -- ----------,254585.72000000277,254584.6550000133,254173.31,254178.00000001444,254190.047,254589.899,,34,in
screen,html.Screen,1_3_1_0_1_35,2021-04-13T12:42:14.809Z,,,,,,,,,,,,,,,,51,,,,,,,,,,,,,,394.7860000030778,,response,,,,13,A,,,,,,Space,keypress(Space),,,,silence,,,,-------- -------- --- --- ---- --- --- ------ -- --------<br>---- --------- --- ------- ------------ ---------- ---------<br>--- ---------- ------- ---------- ------- -- -------- ----<br>---- --- ------ ----- ------ -- ---- --- ----- -- a -------<br>-------- -- --- --- -- ----- ----------- ----- -----------<br>---- --- ---------- --- ---- --- -- ----------,254985.7250000059,254984.68500000308,254573.347,254586.01500000805,254589.899,254989.935,,35,a
screen,html.Screen,1_3_1_0_1_36,2021-04-13T12:42:15.225Z,,,,,,,,,,,,,,,,51,,,,,,,,,,,,,,410.74500002065906,,response,,,,13,A,,,,,,Space,keypress(Space),,,,silence,,,,-------- -------- --- --- ---- --- --- ------ -- --------<br>---- --------- --- ------- ------------ ---------- ---------<br>--- ---------- ------- ---------- ------- -- -------- ----<br>---- --- ------ ----- ------ -- ---- --- ----- -- - massive<br>-------- -- --- --- -- ----- ----------- ----- -----------<br>---- --- ---------- --- ---- --- -- ----------,255401.70499999658,255400.68000002066,254973.358,254986.02500002016,254989.935,255406.56,,36,massive
screen,html.Screen,1_3_1_0_1_37,2021-04-13T12:42:15.665Z,,,,,,,,,,,,,,,,51,,,,,,,,,,,,,,434.13500002078945,,response,,,,13,A,,,,,,Space,keypress(Space),,,,silence,,,,-------- -------- --- --- ---- --- --- ------ -- --------<br>---- --------- --- ------- ------------ ---------- ---------<br>--- ---------- ------- ---------- ------- -- -------- ----<br>---- --- ------ ----- ------ -- ---- --- ----- -- - -------<br>overhaul -- --- --- -- ----- ----------- ----- -----------<br>---- --- ---------- --- ---- --- -- ----------,255841.7349999945,255840.6950000208,255389.977,255402.00000000186,255406.56,255856.491,,37,overhaul
