sender,sender_type,sender_id,timestamp,meta,,Blues,Classical,Country,Dance,Electronic,Folk,Gospel,Hip-Hop,Jazz,Latin,Musical/Film,New-age,Pop,Provo_ID,R&B,Rap,Reggae,Religious,Rock,Soul,Swing,Traditional,age,artist_name,correct,correctResponse,distraction,duration,education,ended_on,familiarity,gender,headphone_check_performance,item,list,music_frequency,offensiveness,pleasantness,position_correct,preference,response,response_action,snippet_file,song_name,song_rating,sound,stimulus_1,stimulus_2,stimulus_3,text,time_commit,time_end,time_render,time_run,time_show,time_switch,url,word,word_ID
Introduction,html.Screen,0_0,2021-04-26T12:42:44.395Z,"{""labjs_version"":""20.2.2"",""labjs_build"":{""flavor"":""production"",""commit"":""a25486e0c714a0ae2ce03ff94b7bb6896854dcfa""},""location"":""https://run.pavlovia.org/mvasilev/music_c/"",""userAgent"":""Mozilla/5.0 (Macintosh; Intel Mac OS X 10_15_7) AppleWebKit/537.36 (KHTML, like Gecko) Chrome/90.0.4430.85 Safari/537.36"",""platform"":""MacIntel"",""language"":""en-GB"",""locale"":""en-GB"",""timeZone"":""Europe/London"",""timezoneOffset"":-60,""screen_width"":1440,""screen_height"":900,""scroll_width"":1401,""scroll_height"":600,""window_innerWidth"":1401,""window_innerHeight"":648,""devicePixelRatio"":2}",,,,,,,,,,,,,,,,,,,,,,,,,,,,,9384.190999999886,,response,,,,,,,,,,,continue,click button,,,,,,,,,16746.099999999842,16741.309999999885,7323.787,7339.574999999968,7357.119,16749.917,{},,
Volume calibration,html.Screen,0_1,2021-04-26T12:42:58.536Z,,,,,,,,,,,,,,,,,,,,,,,,,,,,,,14129.712999999905,,response,,,,,,,,,,,continue,click button,,,,,,,,,30887.444999999843,30879.629999999906,16733.251,16746.69999999969,16749.917,30887.509,,,
Task instructions,html.Screen,0_2,2021-04-26T12:43:11.666Z,,,,,,,,,,,,,,,,,,,,,,,,,,,,,,13125.650999999976,,response,,,,,,,,,,,continue,click button,,,,,,,,,44017.579999999725,44013.159999999974,30870.843,30887.87999999977,30887.509,44030.001,,,
Sounds,html.Screen,0_3_0_0,2021-04-26T12:43:15.911Z,,,,,,,,,,,,,,,,,,,,,,,,,,,,,,4243.578000000001,,timeout,,,,,,,,,3,,,,,,,,O,I,S,,48263.5150000001,48256.913,44013.335,44017.939999999726,44030.001,48273.579,,,
Judgement,html.Screen,0_3_0_1,2021-04-26T12:43:17.413Z,,,,,,,,,,,,,,,,,,,,,,,,,,,true,3,,1487.6309999996665,,response,,,,,,,,,3,,3,click #choice-3,,,,,O,I,S,,49765.724999999744,49761.209999999664,48256.913,48263.77499999989,48273.579,49773.519,,,
Trial,flow.Sequence,0_3_0,2021-04-26T12:43:17.414Z,,,,,,,,,,,,,,,,,,,,,,,,,,,,,,5731.208999999668,,completion,,,,,,,,,3,,,,,,,,O,I,S,,49766.29000000002,49761.209999999664,44013.335,44017.855000000054,44030.001,49773.519,,,
Sounds,html.Screen,0_3_1_0,2021-04-26T12:43:21.657Z,,,,,,,,,,,,,,,,,,,,,,,,,,,,,,4249.830000000002,,timeout,,,,,,,,,1,,,,,,,,S,O,I,,54009.38999999971,54006.683,49756.853,49766.529999999875,49773.519,54023.349,,,
Judgement,html.Screen,0_3_1_1,2021-04-26T12:43:24.444Z,,,,,,,,,,,,,,,,,,,,,,,,,,,true,1,,2769.166000000092,,response,,,,,,,,,1,,1,click #choice-1,,,,,S,O,I,,56796.5949999998,56792.515000000094,54006.683,54009.67999999966,54023.349,56796.924,,,
Trial,flow.Sequence,0_3_1,2021-04-26T12:43:24.444Z,,,,,,,,,,,,,,,,,,,,,,,,,,,,,,7018.996000000094,,completion,,,,,,,,,1,,,,,,,,S,O,I,,56796.93499999985,56792.515000000094,49756.853,49766.459999999825,49773.519,56796.924,,,
Sounds,html.Screen,0_3_2_0,2021-04-26T12:43:28.679Z,,,,,,,,,,,,,,,,,,,,,,,,,,,,,,4249.830000000002,,timeout,,,,,,,,,2,,,,,,,,O,S,I,,61031.489999999845,61030.088,56780.258,56797.15499999975,56796.924,61046.754,,,
Judgement,html.Screen,0_3_2_1,2021-04-26T12:43:30.676Z,,,,,,,,,,,,,,,,,,,,,,,,,,,true,2,,1976.5959999999322,,response,,,,,,,,,2,,2,click #choice-2,,,,,O,S,I,,63028.53999999979,63023.34999999993,61030.088,61031.68000000005,61046.754,63030.008,,,
Trial,flow.Sequence,0_3_2,2021-04-26T12:43:30.676Z,,,,,,,,,,,,,,,,,,,,,,,,,,,,,,6226.425999999934,,completion,,,,,,,,,2,,,,,,,,O,S,I,,63028.84999999969,63023.34999999993,56780.258,56797.0849999997,56796.924,63030.008,,,
Sounds,html.Screen,0_3_3_0,2021-04-26T12:43:34.913Z,,,,,,,,,,,,,,,,,,,,,,,,,,,,,,4249.830000000002,,timeout,,,,,,,,,3,,,,,,,,I,O,S,,67265.77499999985,67263.172,63013.342,63029.05499999997,63030.008,67279.838,,,
Judgement,html.Screen,0_3_3_1,2021-04-26T12:43:35.969Z,,,,,,,,,,,,,,,,,,,,,,,,,,,true,3,,1038.5319999999629,,response,,,,,,,,,3,,3,click #choice-3,,,,,I,O,S,,68322.39499999968,68318.36999999997,67263.172,67266.45000000007,67279.838,68335.169,,,
Trial,flow.Sequence,0_3_3,2021-04-26T12:43:35.970Z,,,,,,,,,,,,,,,,,,,,,,,,,,,,,,5288.361999999965,,completion,,,,,,,,,3,,,,,,,,I,O,S,,68322.68500000008,68318.36999999997,63013.342,63028.98000000005,63030.008,68335.169,,,
Sounds,html.Screen,0_3_4_0,2021-04-26T12:43:40.217Z,,,,,,,,,,,,,,,,,,,,,,,,,,,,,,4249.830000000002,,timeout,,,,,,,,,1,,,,,,,,S,I,O,,72570.13000000006,72568.333,68318.503,68322.85999999977,68335.169,72584.999,,,
Judgement,html.Screen,0_3_4_1,2021-04-26T12:43:40.906Z,,,,,,,,,,,,,,,,,,,,,,,,,,,true,1,,669.2959999997256,,response,,,,,,,,,1,,1,click #choice-1,,,,,S,I,O,,73258.85500000004,73254.29499999972,72568.333,72570.38499999998,72584.999,73268.305,,,
Trial,flow.Sequence,0_3_4,2021-04-26T12:43:40.906Z,,,,,,,,,,,,,,,,,,,,,,,,,,,,,,4919.125999999727,,completion,,,,,,,,,1,,,,,,,,S,I,O,,73259.13999999966,73254.29499999972,68318.503,68322.80999999966,68335.169,73268.305,,,
Sounds,html.Screen,0_3_5_0,2021-04-26T12:43:45.150Z,,,,,,,,,,,,,,,,,,,,,,,,,,,,,,4249.830000000002,,timeout,,,,,,,,,2,,,,,,,,I,S,O,,77503.27999999991,77501.469,73251.639,73259.30999999991,73268.305,77518.135,,,
Judgement,html.Screen,0_3_5_1,2021-04-26T12:43:48.730Z,,,,,,,,,,,,,,,,,,,,,,,,,,,false,2,,3561.3349999996863,,response,,,,,,,,,2,,3,click #choice-3,,,,,I,S,O,,81083.88999999988,81079.46999999968,77501.469,77503.55999999965,77518.135,81090.248,,,
Trial,flow.Sequence,0_3_5,2021-04-26T12:43:48.730Z,,,,,,,,,,,,,,,,,,,,,,,,,,,,,,7811.164999999688,,completion,,,,,,,,,2,,,,,,,,I,S,O,,81084.14499999981,81079.46999999968,73251.639,73259.2649999997,73268.305,81090.248,,,
Task,flow.Loop,0_3,2021-04-26T12:43:48.739Z,,,,,,,,,,,,,,,,,,,,,,,,,,,,,,37049.468999999684,,completion,,,0.8333333333333334,,,,,,,,,,,,,,,,,,81092.94499999988,81079.46999999968,44013.335,44017.774999999805,44030.001,81090.248,,,
Trap,html.Screen,0_4,2021-04-26T12:43:48.741Z,,,,,,,,,,,,,,,,,,,,,,,,,,,,,,NaN,,skipped,,,,,,,,,,,,,,,,,,,,,81094.79499999998,81079.46999999968,,81094.60499999978,,81090.248,,,
Thanks,html.Screen,0_5,2021-04-26T12:43:53.313Z,,,,,,,,,,,,,,,,,,,,,,,,,,,,,,4572.691999999704,,response,,,,,,,,,,,continue,click button,,,,,,,,,85667.08500000005,85662.93999999971,81073.582,81094.9599999999,81090.248,90699.307,,,
Headphone screening,flow.Sequence,0,2021-04-26T12:43:53.314Z,,,,,,,,,,,,,,,,,,,,,,,,,,,,,,78305.8209999997,,completion,,,,,,,,,,,,,,,,,,,,,85667.70999999972,85662.93999999971,7323.787,7339.54999999969,7357.119,90699.307,,,
Instructions,html.Page,1_0,2021-04-26T12:44:28.421Z,,,,,,,,,,,,,,,,,,,,,,,,,,,,,,30077.232999999833,,form submission,,,,,,,,,,,,,,,,,,,,,120776.86999999969,120776.53999999983,90682.641,90694.10999999991,90699.307,120775.587,,,
Holding screen,html.Screen,1_1_0_0,2021-04-26T12:44:38.409Z,,,,,,,,,,,,,,,,,,,,,,,,,,,,,,10003.490000000005,,timeout,,,,,,,,,,,,,,,,,,,,,130764.815,130762.411,120758.921,120777.10999999999,120775.587,130779.077,,,
screen,html.Screen,1_1_0_1_0,2021-04-26T12:44:40.534Z,,,,,,,,,,,,,,,,53,,,,,,,,,,,,,,2099.573000000106,,response,,,,99,,,,,,,Space,keypress(Space),,,,,,,,When -- ----- -- ------ - ------- --- ----------<br>------------- ------ ------ ---- ---- ------- ----- -- ----<br>-------- ------- -- ---------- --- - --- ----- ----- ----<br>---- --- --- ----- --- ---- ---- ------- ----- ---- -------<br>--- --- -- ----- -- --- ---- -- --- ---- -- ------ ------<br>--- ----- -- ----,132890.3049999999,132878.6500000001,130762.411,130766.41999999993,130779.077,132895.659,,0,When
screen,html.Screen,1_1_0_1_1,2021-04-26T12:44:41.276Z,,,,,,,,,,,,,,,,53,,,,,,,,,,,,,,728.6759999999485,,response,,,,99,,,,,,,Space,keypress(Space),,,,,,,,---- it ----- -- ------ - ------- --- ----------<br>------------- ------ ------ ---- ---- ------- ----- -- ----<br>-------- ------- -- ---------- --- - --- ----- ----- ----<br>---- --- --- ----- --- ---- ---- ------- ----- ---- -------<br>--- --- -- ----- -- --- ---- -- --- ---- -- ------ ------<br>--- ----- -- ----,133631.895,133624.33499999996,132878.993,132890.49999999997,132895.659,133645.629,,1,it
screen,html.Screen,1_1_0_1_2,2021-04-26T12:44:42.236Z,,,,,,,,,,,,,,,,53,,,,,,,,,,,,,,938.6209999998973,,response,,,,99,,,,,,,Space,keypress(Space),,,,,,,,---- -- comes -- ------ - ------- --- ----------<br>------------- ------ ------ ---- ---- ------- ----- -- ----<br>-------- ------- -- ---------- --- - --- ----- ----- ----<br>---- --- --- ----- --- ---- ---- ------- ----- ---- -------<br>--- --- -- ----- -- --- ---- -- --- ---- -- ------ ------<br>--- ----- -- ----,134592.38999999978,134584.24999999988,133628.963,133632.06999999966,133645.629,134595.591,,2,comes
screen,html.Screen,1_1_0_1_3,2021-04-26T12:44:42.828Z,,,,,,,,,,,,,,,,53,,,,,,,,,,,,,,580.6740000000864,,response,,,,99,,,,,,,Space,keypress(Space),,,,,,,,---- -- ----- to ------ - ------- --- ----------<br>------------- ------ ------ ---- ---- ------- ----- -- ----<br>-------- ------- -- ---------- --- - --- ----- ----- ----<br>---- --- --- ----- --- ---- ---- ------- ----- ---- -------<br>--- --- -- ----- -- --- ---- -- --- ---- -- ------ ------<br>--- ----- -- ----,135184.2899999997,135176.26500000007,134578.925,134592.5699999998,134595.591,135195.567,,3,to
screen,html.Screen,1_1_0_1_4,2021-04-26T12:44:43.809Z,,,,,,,,,,,,,,,,53,,,,,,,,,,,,,,961.6479999997246,,response,,,,99,,,,,,,Space,keypress(Space),,,,,,,,---- -- ----- -- having - ------- --- ----------<br>------------- ------ ------ ---- ---- ------- ----- -- ----<br>-------- ------- -- ---------- --- - --- ----- ----- ----<br>---- --- --- ----- --- ---- ---- ------- ----- ---- -------<br>--- --- -- ----- -- --- ---- -- --- ---- -- ------ ------<br>--- ----- -- ----,136165.395,136157.21499999973,135178.901,135184.51000000004,135195.567,136178.861,,4,having
screen,html.Screen,1_1_0_1_5,2021-04-26T12:44:44.311Z,,,,,,,,,,,,,,,,53,,,,,,,,,,,,,,480.2739999998885,,response,,,,99,,,,,,,Space,keypress(Space),,,,,,,,---- -- ----- -- ------ a ------- --- ----------<br>------------- ------ ------ ---- ---- ------- ----- -- ----<br>-------- ------- -- ---------- --- - --- ----- ----- ----<br>---- --- --- ----- --- ---- ---- ------- ----- ---- -------<br>--- --- -- ----- -- --- ---- -- --- ---- -- ------ ------<br>--- ----- -- ----,136667.19999999987,136659.1349999999,136162.195,136165.57499999998,136178.861,136678.841,,5,a
screen,html.Screen,1_1_0_1_6,2021-04-26T12:44:44.900Z,,,,,,,,,,,,,,,,53,,,,,,,,,,,,,,569.3439999999246,,response,,,,99,,,,,,,Space,keypress(Space),,,,,,,,---- -- ----- -- ------ - lasting --- ----------<br>------------- ------ ------ ---- ---- ------- ----- -- ----<br>-------- ------- -- ---------- --- - --- ----- ----- ----<br>---- --- --- ----- --- ---- ---- ------- ----- ---- -------<br>--- --- -- ----- -- --- ---- -- --- ---- -- ------ ------<br>--- ----- -- ----,137255.73499999972,137248.1849999999,136662.175,136667.37999999986,136678.841,137262.151,,6,lasting
screen,html.Screen,1_1_0_1_7,2021-04-26T12:44:45.397Z,,,,,,,,,,,,,,,,53,,,,,,,,,,,,,,483.5739999997604,,response,,,,99,,,,,,,Space,keypress(Space),,,,,,,,---- -- ----- -- ------ - ------- and ----------<br>------------- ------ ------ ---- ---- ------- ----- -- ----<br>-------- ------- -- ---------- --- - --- ----- ----- ----<br>---- --- --- ----- --- ---- ---- ------- ----- ---- -------<br>--- --- -- ----- -- --- ---- -- --- ---- -- ------ ------<br>--- ----- -- ----,137753.47499999998,137745.72499999977,137245.485,137255.92000000007,137262.151,137762.131,,7,and
screen,html.Screen,1_1_0_1_8,2021-04-26T12:44:46.078Z,,,,,,,,,,,,,,,,53,,,,,,,,,,,,,,664.0440000000526,,response,,,,99,,,,,,,Space,keypress(Space),,,,,,,,---- -- ----- -- ------ - ------- --- fulfilling<br>------------- ------ ------ ---- ---- ------- ----- -- ----<br>-------- ------- -- ---------- --- - --- ----- ----- ----<br>---- --- --- ----- --- ---- ---- ------- ----- ---- -------<br>--- --- -- ----- -- --- ---- -- --- ---- -- ------ ------<br>--- ----- -- ----,138433.83499999982,138426.17500000005,137745.465,137753.68499999968,137762.131,138442.691,,8,fulfilling
screen,html.Screen,1_1_0_1_9,2021-04-26T12:44:46.737Z,,,,,,,,,,,,,,,,53,,,,,,,,,,,,,,585.383999999729,,response,,,,99,,,,,,,Space,keypress(Space),,,,,,,,"---- -- ----- -- ------ - ------- --- ----------<br>relationship, ------ ------ ---- ---- ------- ----- -- ----<br>-------- ------- -- ---------- --- - --- ----- ----- ----<br>---- --- --- ----- --- ---- ---- ------- ----- ---- -------<br>--- --- -- ----- -- --- ---- -- --- ---- -- ------ ------<br>--- ----- -- ----",139038.25499999995,139028.07499999972,138426.025,138434.0400000001,138442.691,139042.667,,9,"relationship,"
screen,html.Screen,1_1_0_1_10,2021-04-26T12:44:47.659Z,,,,,,,,,,,,,,,,53,,,,,,,,,,,,,,912.3830000000307,,response,,,,99,,,,,,,Space,keypress(Space),,,,,,,,---- -- ----- -- ------ - ------- --- ----------<br>------------- common ------ ---- ---- ------- ----- -- ----<br>-------- ------- -- ---------- --- - --- ----- ----- ----<br>---- --- --- ----- --- ---- ---- ------- ----- ---- -------<br>--- --- -- ----- -- --- ---- -- --- ---- -- ------ ------<br>--- ----- -- ----,139960.19999999998,139955.05000000002,139026.001,139038.63999999975,139042.667,139975.963,,10,common
screen,html.Screen,1_1_0_1_11,2021-04-26T12:44:48.196Z,,,,,,,,,,,,,,,,53,,,,,,,,,,,,,,517.9419999998354,,response,,,,99,,,,,,,Space,keypress(Space),,,,,,,,---- -- ----- -- ------ - ------- --- ----------<br>------------- ------ wisdom ---- ---- ------- ----- -- ----<br>-------- ------- -- ---------- --- - --- ----- ----- ----<br>---- --- --- ----- --- ---- ---- ------- ----- ---- -------<br>--- --- -- ----- -- --- ---- -- --- ---- -- ------ ------<br>--- ----- -- ----,140497.39499999987,140493.90499999982,139959.297,139960.3299999999,139975.963,140509.275,,11,wisdom
screen,html.Screen,1_1_0_1_12,2021-04-26T12:44:48.672Z,,,,,,,,,,,,,,,,53,,,,,,,,,,,,,,460.7249999998021,,response,,,,99,,,,,,,Space,keypress(Space),,,,,,,,---- -- ----- -- ------ - ------- --- ----------<br>------------- ------ ------ says ---- ------- ----- -- ----<br>-------- ------- -- ---------- --- - --- ----- ----- ----<br>---- --- --- ----- --- ---- ---- ------- ----- ---- -------<br>--- --- -- ----- -- --- ---- -- --- ---- -- ------ ------<br>--- ----- -- ----,140973.03999999986,140969.9999999998,140492.609,140497.5099999997,140509.275,140975.923,,12,says
screen,html.Screen,1_1_0_1_13,2021-04-26T12:44:49.180Z,,,,,,,,,,,,,,,,53,,,,,,,,,,,,,,498.09199999977136,,response,,,,99,,,,,,,Space,keypress(Space),,,,,,,,---- -- ----- -- ------ - ------- --- ----------<br>------------- ------ ------ ---- that ------- ----- -- ----<br>-------- ------- -- ---------- --- - --- ----- ----- ----<br>---- --- --- ----- --- ---- ---- ------- ----- ---- -------<br>--- --- -- ----- -- --- ---- -- --- ---- -- ------ ------<br>--- ----- -- ----,141480.93500000006,141474.01499999978,140959.257,140973.1149999998,140975.923,141492.569,,13,that
screen,html.Screen,1_1_0_1_14,2021-04-26T12:44:49.719Z,,,,,,,,,,,,,,,,53,,,,,,,,,,,,,,518.525999999867,,response,,,,99,,,,,,,Space,keypress(Space),,,,,,,,---- -- ----- -- ------ - ------- --- ----------<br>------------- ------ ------ ---- ---- feeling ----- -- ----<br>-------- ------- -- ---------- --- - --- ----- ----- ----<br>---- --- --- ----- --- ---- ---- ------- ----- ---- -------<br>--- --- -- ----- -- --- ---- -- --- ---- -- ------ ------<br>--- ----- -- ----,142020.09999999974,142011.09499999986,141475.903,141481.10999999972,141492.569,142025.881,,14,feeling
screen,html.Screen,1_1_0_1_15,2021-04-26T12:44:50.189Z,,,,,,,,,,,,,,,,53,,,,,,,,,,,,,,456.15400000000955,,response,,,,99,,,,,,,Space,keypress(Space),,,,,,,,---- -- ----- -- ------ - ------- --- ----------<br>------------- ------ ------ ---- ---- ------- close -- ----<br>-------- ------- -- ---------- --- - --- ----- ----- ----<br>---- --- --- ----- --- ---- ---- ------- ----- ---- -------<br>--- --- -- ----- -- --- ---- -- --- ---- -- ------ ------<br>--- ----- -- ----,142490.10999999972,142482.035,142009.215,142020.2949999998,142025.881,142492.529,,15,close
screen,html.Screen,1_1_0_1_16,2021-04-26T12:44:50.615Z,,,,,,,,,,,,,,,,53,,,,,,,,,,,,,,415.7510000001057,,response,,,,99,,,,,,,Space,keypress(Space),,,,,,,,---- -- ----- -- ------ - ------- --- ----------<br>------------- ------ ------ ---- ---- ------- ----- to ----<br>-------- ------- -- ---------- --- - --- ----- ----- ----<br>---- --- --- ----- --- ---- ---- ------- ----- ---- -------<br>--- --- -- ----- -- --- ---- -- --- ---- -- ------ ------<br>--- ----- -- ----,142916.53999999972,142908.28000000012,142475.863,142490.29500000007,142492.529,142925.845,,16,to
screen,html.Screen,1_1_0_1_17,2021-04-26T12:44:51.185Z,,,,,,,,,,,,,,,,53,,,,,,,,,,,,,,553.1299999999756,,response,,,,99,,,,,,,Space,keypress(Space),,,,,,,,---- -- ----- -- ------ - ------- --- ----------<br>------------- ------ ------ ---- ---- ------- ----- -- your<br>-------- ------- -- ---------- --- - --- ----- ----- ----<br>---- --- --- ----- --- ---- ---- ------- ----- ---- -------<br>--- --- -- ----- -- --- ---- -- --- ---- -- ------ ------<br>--- ----- -- ----,143486.64999999982,143478.97499999998,142909.179,142916.7199999997,142925.845,143492.489,,17,your
screen,html.Screen,1_1_0_1_18,2021-04-26T12:44:51.868Z,,,,,,,,,,,,,,,,53,,,,,,,,,,,,,,669.0709999999963,,response,,,,99,,,,,,,Space,keypress(Space),,,,,,,,---- -- ----- -- ------ - ------- --- ----------<br>------------- ------ ------ ---- ---- ------- ----- -- ----<br>romantic ------- -- ---------- --- - --- ----- ----- ----<br>---- --- --- ----- --- ---- ---- ------- ----- ---- -------<br>--- --- -- ----- -- --- ---- -- --- ---- -- ------ ------<br>--- ----- -- ----,144169.15999999992,144161.56,143475.823,143486.82999999984,143492.489,144175.795,,18,romantic
screen,html.Screen,1_1_0_1_19,2021-04-26T12:44:52.326Z,,,,,,,,,,,,,,,,53,,,,,,,,,,,,,,443.8349999996717,,response,,,,99,,,,,,,Space,keypress(Space),,,,,,,,---- -- ----- -- ------ - ------- --- ----------<br>------------- ------ ------ ---- ---- ------- ----- -- ----<br>-------- partner -- ---------- --- - --- ----- ----- ----<br>---- --- --- ----- --- ---- ---- ------- ----- ---- -------<br>--- --- -- ----- -- --- ---- -- --- ---- -- ------ ------<br>--- ----- -- ----,144627.68499999994,144619.62999999968,144159.129,144169.35499999998,144175.795,144642.443,,19,partner
screen,html.Screen,1_1_0_1_20,2021-04-26T12:44:52.828Z,,,,,,,,,,,,,,,,53,,,,,,,,,,,,,,479.03699999980745,,response,,,,99,,,,,,,Space,keypress(Space),,,,,,,,---- -- ----- -- ------ - ------- --- ----------<br>------------- ------ ------ ---- ---- ------- ----- -- ----<br>-------- ------- is ---------- --- - --- ----- ----- ----<br>---- --- --- ----- --- ---- ---- ------- ----- ---- -------<br>--- --- -- ----- -- --- ---- -- --- ---- -- ------ ------<br>--- ----- -- ----,145129.5,145121.4799999998,144625.777,144627.86000000004,144642.443,145142.423,,20,is
screen,html.Screen,1_1_0_1_21,2021-04-26T12:44:53.445Z,,,,,,,,,,,,,,,,53,,,,,,,,,,,,,,595.9369999998307,,response,,,,99,,,,,,,Space,keypress(Space),,,,,,,,---- -- ----- -- ------ - ------- --- ----------<br>------------- ------ ------ ---- ---- ------- ----- -- ----<br>-------- ------- -- paramount. --- - --- ----- ----- ----<br>---- --- --- ----- --- ---- ---- ------- ----- ---- -------<br>--- --- -- ----- -- --- ---- -- --- ---- -- ------ ------<br>--- ----- -- ----,145746.22499999986,145738.35999999984,145125.757,145129.67499999967,145142.423,145759.065,,21,paramount.
screen,html.Screen,1_1_0_1_22,2021-04-26T12:44:54.022Z,,,,,,,,,,,,,,,,53,,,,,,,,,,,,,,556.8449999997974,,response,,,,99,,,,,,,Space,keypress(Space),,,,,,,,---- -- ----- -- ------ - ------- --- ----------<br>------------- ------ ------ ---- ---- ------- ----- -- ----<br>-------- ------- -- ---------- But - --- ----- ----- ----<br>---- --- --- ----- --- ---- ---- ------- ----- ---- -------<br>--- --- -- ----- -- --- ---- -- --- ---- -- ------ ------<br>--- ----- -- ----,146323.82499999995,146315.9099999998,145742.399,145746.40499999985,145759.065,146325.709,,22,But
screen,html.Screen,1_1_0_1_23,2021-04-26T12:44:54.550Z,,,,,,,,,,,,,,,,53,,,,,,,,,,,,,,518.6009999999369,,response,,,,99,,,,,,,Space,keypress(Space),,,,,,,,---- -- ----- -- ------ - ------- --- ----------<br>------------- ------ ------ ---- ---- ------- ----- -- ----<br>-------- ------- -- ---------- --- a --- ----- ----- ----<br>---- --- --- ----- --- ---- ---- ------- ----- ---- -------<br>--- --- -- ----- -- --- ---- -- --- ---- -- ------ ------<br>--- ----- -- ----,146851.74499999994,146844.30999999994,146309.043,146324.00499999995,146325.709,146859.021,,23,a
screen,html.Screen,1_1_0_1_24,2021-04-26T12:44:55.047Z,,,,,,,,,,,,,,,,53,,,,,,,,,,,,,,481.9639999998035,,response,,,,99,,,,,,,Space,keypress(Space),,,,,,,,---- -- ----- -- ------ - ------- --- ----------<br>------------- ------ ------ ---- ---- ------- ----- -- ----<br>-------- ------- -- ---------- --- - new ----- ----- ----<br>---- --- --- ----- --- ---- ---- ------- ----- ---- -------<br>--- --- -- ----- -- --- ---- -- --- ---- -- ------ ------<br>--- ----- -- ----,147348.57000000012,147340.9849999998,146842.355,146851.92499999993,146859.021,147359.001,,24,new
screen,html.Screen,1_1_0_1_25,2021-04-26T12:44:55.671Z,,,,,,,,,,,,,,,,53,,,,,,,,,,,,,,605.2290000000503,,response,,,,99,,,,,,,Space,keypress(Space),,,,,,,,---- -- ----- -- ------ - ------- --- ----------<br>------------- ------ ------ ---- ---- ------- ----- -- ----<br>-------- ------- -- ---------- --- - --- study ----- ----<br>---- --- --- ----- --- ---- ---- ------- ----- ---- -------<br>--- --- -- ----- -- --- ---- -- --- ---- -- ------ ------<br>--- ----- -- ----,147972.11500000002,147964.23000000004,147342.335,147348.7799999998,147359.001,147975.643,,25,study
screen,html.Screen,1_1_0_1_26,2021-04-26T12:44:56.173Z,,,,,,,,,,,,,,,,53,,,,,,,,,,,,,,491.23200000004726,,response,,,,99,,,,,,,Space,keypress(Space),,,,,,,,---- -- ----- -- ------ - ------- --- ----------<br>------------- ------ ------ ---- ---- ------- ----- -- ----<br>-------- ------- -- ---------- --- - --- ----- finds ----<br>---- --- --- ----- --- ---- ---- ------- ----- ---- -------<br>--- --- -- ----- -- --- ---- -- --- ---- -- ------ ------<br>--- ----- -- ----,148475.05000000002,148466.87500000006,147958.977,147972.2899999997,147975.643,148479.317,,26,finds
screen,html.Screen,1_1_0_1_27,2021-04-26T12:44:56.643Z,,,,,,,,,,,,,,,,53,,,,,,,,,,,,,,457.7379999998666,,response,,,,99,,,,,,,Space,keypress(Space),,,,,,,,---- -- ----- -- ------ - ------- --- ----------<br>------------- ------ ------ ---- ---- ------- ----- -- ----<br>-------- ------- -- ---------- --- - --- ----- ----- that<br>---- --- --- ----- --- ---- ---- ------- ----- ---- -------<br>--- --- -- ----- -- --- ---- -- --- ---- -- ------ ------<br>--- ----- -- ----,148944.5099999998,148937.05499999988,148462.651,148475.23,148479.317,148945.965,,27,that
screen,html.Screen,1_1_0_1_28,2021-04-26T12:44:57.148Z,,,,,,,,,,,,,,,,53,,,,,,,,,,,,,,495.57999999969616,,response,,,,99,,,,,,,Space,keypress(Space),,,,,,,,---- -- ----- -- ------ - ------- --- ----------<br>------------- ------ ------ ---- ---- ------- ----- -- ----<br>-------- ------- -- ---------- --- - --- ----- ----- ----<br>it's --- --- ----- --- ---- ---- ------- ----- ---- -------<br>--- --- -- ----- -- --- ---- -- --- ---- -- ------ ------<br>--- ----- -- ----,149449.27499999994,149441.5449999997,148929.299,148944.6899999998,148945.965,149462.611,,28,it's
screen,html.Screen,1_1_0_1_29,2021-04-26T12:44:57.694Z,,,,,,,,,,,,,,,,53,,,,,,,,,,,,,,524.2689999999129,,response,,,,99,,,,,,,Space,keypress(Space),,,,,,,,---- -- ----- -- ------ - ------- --- ----------<br>------------- ------ ------ ---- ---- ------- ----- -- ----<br>-------- ------- -- ---------- --- - --- ----- ----- ----<br>---- not --- ----- --- ---- ---- ------- ----- ---- -------<br>--- --- -- ----- -- --- ---- -- --- ---- -- ------ ------<br>--- ----- -- ----,149995.57499999992,149986.87999999992,149445.945,149449.45499999996,149462.611,150012.589,,29,not
screen,html.Screen,1_1_0_1_30,2021-04-26T12:44:58.160Z,,,,,,,,,,,,,,,,53,,,,,,,,,,,,,,440.14099999997416,,response,,,,99,,,,,,,Space,keypress(Space),,,,,,,,---- -- ----- -- ------ - ------- --- ----------<br>------------- ------ ------ ---- ---- ------- ----- -- ----<br>-------- ------- -- ---------- --- - --- ----- ----- ----<br>---- --- how ----- --- ---- ---- ------- ----- ---- -------<br>--- --- -- ----- -- --- ---- -- --- ---- -- ------ ------<br>--- ----- -- ----,150461.47500000006,150452.72999999998,149995.923,149995.75499999992,150012.589,150462.571,,30,how
screen,html.Screen,1_1_0_1_31,2021-04-26T12:44:58.622Z,,,,,,,,,,,,,,,,53,,,,,,,,,,,,,,453.33399999985704,,response,,,,99,,,,,,,Space,keypress(Space),,,,,,,,---- -- ----- -- ------ - ------- --- ----------<br>------------- ------ ------ ---- ---- ------- ----- -- ----<br>-------- ------- -- ---------- --- - --- ----- ----- ----<br>---- --- --- close --- ---- ---- ------- ----- ---- -------<br>--- --- -- ----- -- --- ---- -- --- ---- -- ------ ------<br>--- ----- -- ----,150923.76999999987,150915.90499999985,150445.905,150461.7699999999,150462.571,150929.219,,31,close
screen,html.Screen,1_1_0_1_32,2021-04-26T12:44:59.042Z,,,,,,,,,,,,,,,,53,,,,,,,,,,,,,,406.515999999654,,response,,,,99,,,,,,,Space,keypress(Space),,,,,,,,---- -- ----- -- ------ - ------- --- ----------<br>------------- ------ ------ ---- ---- ------- ----- -- ----<br>-------- ------- -- ---------- --- - --- ----- ----- ----<br>---- --- --- ----- you ---- ---- ------- ----- ---- -------<br>--- --- -- ----- -- --- ---- -- --- ---- -- ------ ------<br>--- ----- -- ----,151343.63499999972,151335.73499999967,150912.553,150923.94999999987,150929.219,151345.869,,32,you
screen,html.Screen,1_1_0_1_33,2021-04-26T12:44:59.477Z,,,,,,,,,,,,,,,,53,,,,,,,,,,,,,,425.0609999996668,,response,,,,99,,,,,,,Space,keypress(Space),,,,,,,,---- -- ----- -- ------ - ------- --- ----------<br>------------- ------ ------ ---- ---- ------- ----- -- ----<br>-------- ------- -- ---------- --- - --- ----- ----- ----<br>---- --- --- ----- --- feel ---- ------- ----- ---- -------<br>--- --- -- ----- -- --- ---- -- --- ---- -- ------ ------<br>--- ----- -- ----,151779.03500000003,151770.92999999967,151329.203,151343.85999999996,151345.869,151795.851,,33,feel
screen,html.Screen,1_1_0_1_34,2021-04-26T12:44:59.894Z,,,,,,,,,,,,,,,,53,,,,,,,,,,,,,,391.9690000000992,,response,,,,99,,,,,,,Space,keypress(Space),,,,,,,,---- -- ----- -- ------ - ------- --- ----------<br>------------- ------ ------ ---- ---- ------- ----- -- ----<br>-------- ------- -- ---------- --- - --- ----- ----- ----<br>---- --- --- ----- --- ---- that ------- ----- ---- -------<br>--- --- -- ----- -- --- ---- -- --- ---- -- ------ ------<br>--- ----- -- ----,152195.835,152187.8200000001,151779.185,151779.21500000003,151795.851,152212.501,,34,that
screen,html.Screen,1_1_0_1_35,2021-04-26T12:45:00.351Z,,,,,,,,,,,,,,,,53,,,,,,,,,,,,,,432.31400000012945,,response,,,,99,,,,,,,Space,keypress(Space),,,,,,,,---- -- ----- -- ------ - ------- --- ----------<br>------------- ------ ------ ---- ---- ------- ----- -- ----<br>-------- ------- -- ---------- --- - --- ----- ----- ----<br>---- --- --- ----- --- ---- ---- matters ----- ---- -------<br>--- --- -- ----- -- --- ---- -- --- ---- -- ------ ------<br>--- ----- -- ----,152652.9049999999,152644.81500000012,152195.835,152197.83499999993,152212.501,152662.483,,35,matters
screen,html.Screen,1_1_0_1_36,2021-04-26T12:45:00.862Z,,,,,,,,,,,,,,,,53,,,,,,,,,,,,,,492.3169999997772,,response,,,,99,,,,,,,Space,keypress(Space),,,,,,,,"---- -- ----- -- ------ - ------- --- ----------<br>------------- ------ ------ ---- ---- ------- ----- -- ----<br>-------- ------- -- ---------- --- - --- ----- ----- ----<br>---- --- --- ----- --- ---- ---- ------- most, ---- -------<br>--- --- -- ----- -- --- ---- -- --- ---- -- ------ ------<br>--- ----- -- ----",153163.4049999998,153154.79999999978,152645.817,152653.10499999986,152662.483,153179.129,,36,"most,"
screen,html.Screen,1_1_0_1_37,2021-04-26T12:45:01.376Z,,,,,,,,,,,,,,,,53,,,,,,,,,,,,,,490.5959999997576,,response,,,,99,,,,,,,Space,keypress(Space),,,,,,,,---- -- ----- -- ------ - ------- --- ----------<br>------------- ------ ------ ---- ---- ------- ----- -- ----<br>-------- ------- -- ---------- --- - --- ----- ----- ----<br>---- --- --- ----- --- ---- ---- ------- ----- it's -------<br>--- --- -- ----- -- --- ---- -- --- ---- -- ------ ------<br>--- ----- -- ----,153677.4449999998,153669.72499999974,153162.463,153163.5799999999,153179.129,153679.109,,37,it's
screen,html.Screen,1_1_0_1_38,2021-04-26T12:45:01.878Z,,,,,,,,,,,,,,,,53,,,,,,,,,,,,,,493.7059999998892,,response,,,,99,,,,,,,Space,keypress(Space),,,,,,,,---- -- ----- -- ------ - ------- --- ----------<br>------------- ------ ------ ---- ---- ------- ----- -- ----<br>-------- ------- -- ---------- --- - --- ----- ----- ----<br>---- --- --- ----- --- ---- ---- ------- ----- ---- whether<br>--- --- -- ----- -- --- ---- -- --- ---- -- ------ ------<br>--- ----- -- ----,154180.19499999992,154172.8149999999,153662.443,153677.65499999997,153679.109,154195.755,,38,whether
screen,html.Screen,1_1_0_1_39,2021-04-26T12:45:02.386Z,,,,,,,,,,,,,,,,53,,,,,,,,,,,,,,483.96999999997206,,response,,,,99,,,,,,,Space,keypress(Space),,,,,,,,---- -- ----- -- ------ - ------- --- ----------<br>------------- ------ ------ ---- ---- ------- ----- -- ----<br>-------- ------- -- ---------- --- - --- ----- ----- ----<br>---- --- --- ----- --- ---- ---- ------- ----- ---- -------<br>you --- -- ----- -- --- ---- -- --- ---- -- ------ ------<br>--- ----- -- ----,154687.95999999976,154679.72499999998,154179.089,154180.37000000005,154195.755,154695.735,,39,you
screen,html.Screen,1_1_0_1_40,2021-04-26T12:45:02.856Z,,,,,,,,,,,,,,,,53,,,,,,,,,,,,,,453.9800000000396,,response,,,,99,,,,,,,Space,keypress(Space),,,,,,,,---- -- ----- -- ------ - ------- --- ----------<br>------------- ------ ------ ---- ---- ------- ----- -- ----<br>-------- ------- -- ---------- --- - --- ----- ----- ----<br>---- --- --- ----- --- ---- ---- ------- ----- ---- -------<br>--- are -- ----- -- --- ---- -- --- ---- -- ------ ------<br>--- ----- -- ----,155157.80499999982,155149.71500000003,154679.069,154688.12499999968,154695.735,155162.383,,40,are
screen,html.Screen,1_1_0_1_41,2021-04-26T12:45:03.419Z,,,,,,,,,,,,,,,,53,,,,,,,,,,,,,,550.6669999998412,,response,,,,99,,,,,,,Space,keypress(Space),,,,,,,,---- -- ----- -- ------ - ------- --- ----------<br>------------- ------ ------ ---- ---- ------- ----- -- ----<br>-------- ------- -- ---------- --- - --- ----- ----- ----<br>---- --- --- ----- --- ---- ---- ------- ----- ---- -------<br>--- --- as ----- -- --- ---- -- --- ---- -- ------ ------<br>--- ----- -- ----,155721.2300000001,155713.04999999984,155145.717,155157.9750000001,155162.383,155729.027,,41,as
screen,html.Screen,1_1_0_1_42,2021-04-26T12:45:03.927Z,,,,,,,,,,,,,,,,53,,,,,,,,,,,,,,491.5879999997269,,response,,,,99,,,,,,,Space,keypress(Space),,,,,,,,---- -- ----- -- ------ - ------- --- ----------<br>------------- ------ ------ ---- ---- ------- ----- -- ----<br>-------- ------- -- ---------- --- - --- ----- ----- ----<br>---- --- --- ----- --- ---- ---- ------- ----- ---- -------<br>--- --- -- close -- --- ---- -- --- ---- -- ------ ------<br>--- ----- -- ----,156228.52999999985,156220.61499999973,155712.361,155721.42499999973,155729.027,156245.673,,42,close
screen,html.Screen,1_1_0_1_43,2021-04-26T12:45:04.595Z,,,,,,,,,,,,,,,,53,,,,,,,,,,,,,,643.8469999997178,,response,,,,99,,,,,,,Space,keypress(Space),,,,,,,,---- -- ----- -- ------ - ------- --- ----------<br>------------- ------ ------ ---- ---- ------- ----- -- ----<br>-------- ------- -- ---------- --- - --- ----- ----- ----<br>---- --- --- ----- --- ---- ---- ------- ----- ---- -------<br>--- --- -- ----- as --- ---- -- --- ---- -- ------ ------<br>--- ----- -- ----,156897.2899999999,156889.51999999973,156229.007,156228.7849999998,156245.673,156912.313,,43,as
screen,html.Screen,1_1_0_1_44,2021-04-26T12:45:05.008Z,,,,,,,,,,,,,,,,53,,,,,,,,,,,,,,389.28699999977835,,response,,,,99,,,,,,,Space,keypress(Space),,,,,,,,---- -- ----- -- ------ - ------- --- ----------<br>------------- ------ ------ ---- ---- ------- ----- -- ----<br>-------- ------- -- ---------- --- - --- ----- ----- ----<br>---- --- --- ----- --- ---- ---- ------- ----- ---- -------<br>--- --- -- ----- -- you ---- -- --- ---- -- ------ ------<br>--- ----- -- ----,157309.67999999985,157301.59999999977,156895.647,156897.46500000003,156912.313,157312.297,,44,you
screen,html.Screen,1_1_0_1_45,2021-04-26T12:45:05.464Z,,,,,,,,,,,,,,,,53,,,,,,,,,,,,,,445.37799999985145,,response,,,,99,,,,,,,Space,keypress(Space),,,,,,,,---- -- ----- -- ------ - ------- --- ----------<br>------------- ------ ------ ---- ---- ------- ----- -- ----<br>-------- ------- -- ---------- --- - --- ----- ----- ----<br>---- --- --- ----- --- ---- ---- ------- ----- ---- -------<br>--- --- -- ----- -- --- want -- --- ---- -- ------ ------<br>--- ----- -- ----,157765.8299999998,157757.67499999984,157295.631,157309.84499999977,157312.297,157778.945,,45,want
screen,html.Screen,1_1_0_1_46,2021-04-26T12:45:05.955Z,,,,,,,,,,,,,,,,53,,,,,,,,,,,,,,470.8249999998952,,response,,,,99,,,,,,,Space,keypress(Space),,,,,,,,---- -- ----- -- ------ - ------- --- ----------<br>------------- ------ ------ ---- ---- ------- ----- -- ----<br>-------- ------- -- ---------- --- - --- ----- ----- ----<br>---- --- --- ----- --- ---- ---- ------- ----- ---- -------<br>--- --- -- ----- -- --- ---- to --- ---- -- ------ ------<br>--- ----- -- ----,158257.36999999982,158249.7699999999,157762.279,157767.9399999997,157778.945,158262.259,,46,to
screen,html.Screen,1_1_0_1_47,2021-04-26T12:45:06.721Z,,,,,,,,,,,,,,,,53,,,,,,,,,,,,,,752.5509999996866,,response,,,,99,,,,,,,Space,keypress(Space),,,,,,,,"---- -- ----- -- ------ - ------- --- ----------<br>------------- ------ ------ ---- ---- ------- ----- -- ----<br>-------- ------- -- ---------- --- - --- ----- ----- ----<br>---- --- --- ----- --- ---- ---- ------- ----- ---- -------<br>--- --- -- ----- -- --- ---- -- be, ---- -- ------ ------<br>--- ----- -- ----",159022.84000000008,159014.80999999968,158245.593,158257.53499999974,158262.259,159025.327,,47,"be,"
screen,html.Screen,1_1_0_1_48,2021-04-26T12:45:07.174Z,,,,,,,,,,,,,,,,53,,,,,,,,,,,,,,443.1579999998794,,response,,,,99,,,,,,,Space,keypress(Space),,,,,,,,---- -- ----- -- ------ - ------- --- ----------<br>------------- ------ ------ ---- ---- ------- ----- -- ----<br>-------- ------- -- ---------- --- - --- ----- ----- ----<br>---- --- --- ----- --- ---- ---- ------- ----- ---- -------<br>--- --- -- ----- -- --- ---- -- --- even -- ------ ------<br>--- ----- -- ----,159476.44499999977,159468.48499999987,159008.661,159022.99999999968,159025.327,159491.975,,48,even
screen,html.Screen,1_1_0_1_49,2021-04-26T12:45:07.672Z,,,,,,,,,,,,,,,,53,,,,,,,,,,,,,,477.36999999996624,,response,,,,99,,,,,,,Space,keypress(Space),,,,,,,,---- -- ----- -- ------ - ------- --- ----------<br>------------- ------ ------ ---- ---- ------- ----- -- ----<br>-------- ------- -- ---------- --- - --- ----- ----- ----<br>---- --- --- ----- --- ---- ---- ------- ----- ---- -------<br>--- --- -- ----- -- --- ---- -- --- ---- if ------ ------<br>--- ----- -- ----,159973.61999999976,159969.34499999997,159475.309,159476.62999999966,159491.975,159975.289,,49,if
screen,html.Screen,1_1_0_1_50,2021-04-26T12:45:08.186Z,,,,,,,,,,,,,,,,53,,,,,,,,,,,,,,506.05599999969127,,response,,,,99,,,,,,,Space,keypress(Space),,,,,,,,---- -- ----- -- ------ - ------- --- ----------<br>------------- ------ ------ ---- ---- ------- ----- -- ----<br>-------- ------- -- ---------- --- - --- ----- ----- ----<br>---- --- --- ----- --- ---- ---- ------- ----- ---- -------<br>--- --- -- ----- -- --- ---- -- --- ---- -- that's ------<br>--- ----- -- ----,160487.76999999973,160481.34499999968,159958.623,159973.7399999999,159975.289,160491.935,,50,that's
screen,html.Screen,1_1_0_1_51,2021-04-26T12:45:08.650Z,,,,,,,,,,,,,,,,53,,,,,,,,,,,,,,453.5000000000873,,response,,,,99,,,,,,,Space,keypress(Space),,,,,,,,---- -- ----- -- ------ - ------- --- ----------<br>------------- ------ ------ ---- ---- ------- ----- -- ----<br>-------- ------- -- ---------- --- - --- ----- ----- ----<br>---- --- --- ----- --- ---- ---- ------- ----- ---- -------<br>--- --- -- ----- -- --- ---- -- --- ---- -- ------ really<br>--- ----- -- ----,160952.12999999966,160945.43500000008,160475.269,160487.96999999968,160491.935,160958.583,,51,really
screen,html.Screen,1_1_0_1_52,2021-04-26T12:45:09.156Z,,,,,,,,,,,,,,,,53,,,,,,,,,,,,,,495.7419999996782,,response,,,,99,,,,,,,Space,keypress(Space),,,,,,,,---- -- ----- -- ------ - ------- --- ----------<br>------------- ------ ------ ---- ---- ------- ----- -- ----<br>-------- ------- -- ---------- --- - --- ----- ----- ----<br>---- --- --- ----- --- ---- ---- ------- ----- ---- -------<br>--- --- -- ----- -- --- ---- -- --- ---- -- ------ ------<br>not ----- -- ----,161457.82999999984,161454.3249999997,160941.917,160952.30999999968,160958.583,161458.563,,52,not
screen,html.Screen,1_1_0_1_53,2021-04-26T12:45:09.598Z,,,,,,,,,,,,,,,,53,,,,,,,,,,,,,,435.72699999972247,,response,,,,99,,,,,,,Space,keypress(Space),,,,,,,,---- -- ----- -- ------ - ------- --- ----------<br>------------- ------ ------ ---- ---- ------- ----- -- ----<br>-------- ------- -- ---------- --- - --- ----- ----- ----<br>---- --- --- ----- --- ---- ---- ------- ----- ---- -------<br>--- --- -- ----- -- --- ---- -- --- ---- -- ------ ------<br>--- close -- ----,161900.18499999997,161894.28999999972,161441.897,161457.9349999999,161458.563,161908.545,,53,close
screen,html.Screen,1_1_0_1_54,2021-04-26T12:45:10.178Z,,,,,,,,,,,,,,,,53,,,,,,,,,,,,,,564.1349999998347,,response,,,,99,,,,,,,Space,keypress(Space),,,,,,,,---- -- ----- -- ------ - ------- --- ----------<br>------------- ------ ------ ---- ---- ------- ----- -- ----<br>-------- ------- -- ---------- --- - --- ----- ----- ----<br>---- --- --- ----- --- ---- ---- ------- ----- ---- -------<br>--- --- -- ----- -- --- ---- -- --- ---- -- ------ ------<br>--- ----- at ----,162480.47499999983,162472.67999999985,161891.879,161900.47000000003,161908.545,162491.855,,54,at
screen,html.Screen,1_1_0_1_55,2021-04-26T12:45:11.237Z,,,,,,,,,,,,,,,,53,,,,,,,,,,,,,,1038.579999999667,,response,,,,99,,,,,,,Space,keypress(Space),,,,,,,,---- -- ----- -- ------ - ------- --- ----------<br>------------- ------ ------ ---- ---- ------- ----- -- ----<br>-------- ------- -- ---------- --- - --- ----- ----- ----<br>---- --- --- ----- --- ---- ---- ------- ----- ---- -------<br>--- --- -- ----- -- --- ---- -- --- ---- -- ------ ------<br>--- ----- -- all.,163539.52499999967,163530.43499999968,162475.189,162480.63999999978,162491.855,163541.813,,55,all.
Item 99,flow.Loop,1_1_0_1,2021-04-26T12:45:11.238Z,,,,,,,,,,,,,,,,,,,,,,,,,,,,,,32751.357999999673,,completion,,,,,C,,,,,,,,,,,silence,,,,,163540.05000000008,163530.43499999968,130762.411,130765.08999999988,130779.077,163541.813,,,
Question 1,html.Screen,1_1_0_2,2021-04-26T12:45:30.409Z,,,,,,,,,,,,,,,,,,,,,,,,,,,false,FALSE,,19165.031999999715,,response,,,,99,C,,,,,,TRUE,click #choice-1,,,,silence,,,,,182711.70499999973,182706.8449999997,163525.147,163540.305,163541.813,182723.971,,,
Question 2,html.Screen,1_1_0_3,2021-04-26T12:45:35.319Z,,,,,,,,,,,,,,,,,,,,,,,,,,,true,TRUE,,4893.0839999997115,,response,,,,99,C,,,,,,TRUE,click #choice-1,,,,silence,,,,,187622.1849999997,187617.0549999997,182707.305,182711.88499999972,182723.971,187623.775,,,
Item 99,flow.Sequence,1_1_0,2021-04-26T12:45:35.319Z,,,,,,,,,,,,,,,,,,,,,,,,,,,,,,66841.4679999997,,completion,,,,,,,,,,,,,,,,,,,,,187622.59499999983,187617.0549999997,120758.921,120777.07499999997,120775.587,187623.775,,,
Holding screen,html.Screen,1_1_1_0,2021-04-26T12:45:45.312Z,,,,,,,,,,,,,,,,,,,,,,,,,,,,,,10006.746000000014,,timeout,,,,,,,,,,,,,,,,,,,,,197616.04499999975,197613.855,187607.109,187622.76500000007,187623.775,197630.521,,,
screen,html.Screen,1_1_1_1_0,2021-04-26T12:45:46.523Z,,,,,,,,,,,,,,,,54,,,,,,,,,,,,,,1189.533999999665,,response,,,,100,,,,,,,Space,keypress(Space),,,,,,,,At --- ---- --- ------ ----- ------- ---- -- --- ------- --<br>------- ---------- ------ -- ----- -- ----- -- ---- ------<br>--- ----- --- --- ------ -------- ----- --- ------ ----- --<br>----- ----- ---------- --- --- ------ ------ ---- -- ------<br>------- --- ------ ----- --- ---- ------- -- ---- --- --<br>------- ------,198827.22999999986,198820.05499999967,197613.855,197616.3449999999,197630.521,198830.473,,0,At
screen,html.Screen,1_1_1_1_1,2021-04-26T12:45:46.970Z,,,,,,,,,,,,,,,,54,,,,,,,,,,,,,,434.63699999981327,,response,,,,100,,,,,,,Space,keypress(Space),,,,,,,,-- the ---- --- ------ ----- ------- ---- -- --- ------- --<br>------- ---------- ------ -- ----- -- ----- -- ---- ------<br>--- ----- --- --- ------ -------- ----- --- ------ ----- --<br>----- ----- ---------- --- --- ------ ------ ---- -- ------<br>------- --- ------ ----- --- ---- ------- -- ---- --- --<br>------- ------,199273.27500000002,199265.1099999998,198813.807,198827.41499999975,198830.473,199280.455,,1,the
screen,html.Screen,1_1_1_1_2,2021-04-26T12:45:47.412Z,,,,,,,,,,,,,,,,54,,,,,,,,,,,,,,427.2699999997567,,response,,,,100,,,,,,,Space,keypress(Space),,,,,,,,-- --- time --- ------ ----- ------- ---- -- --- ------- --<br>------- ---------- ------ -- ----- -- ----- -- ---- ------<br>--- ----- --- --- ------ -------- ----- --- ------ ----- --<br>----- ----- ---------- --- --- ------ ------ ---- -- ------<br>------- --- ------ ----- --- ---- ------- -- ---- --- --<br>------- ------,199715.41999999998,199707.72499999974,199263.789,199273.45500000002,199280.455,199730.437,,2,time
screen,html.Screen,1_1_1_1_3,2021-04-26T12:45:47.818Z,,,,,,,,,,,,,,,,54,,,,,,,,,,,,,,383.0529999997234,,response,,,,100,,,,,,,Space,keypress(Space),,,,,,,,-- --- ---- the ------ ----- ------- ---- -- --- ------- --<br>------- ---------- ------ -- ----- -- ----- -- ---- ------<br>--- ----- --- --- ------ -------- ----- --- ------ ----- --<br>----- ----- ---------- --- --- ------ ------ ---- -- ------<br>------- --- ------ ----- --- ---- ------- -- ---- --- --<br>------- ------,200121.56499999992,200113.48999999973,199713.771,199715.5849999999,199730.437,200130.421,,3,the
screen,html.Screen,1_1_1_1_4,2021-04-26T12:45:48.334Z,,,,,,,,,,,,,,,,54,,,,,,,,,,,,,,499.0089999999618,,response,,,,100,,,,,,,Space,keypress(Space),,,,,,,,-- --- ---- --- French ----- ------- ---- -- --- ------- --<br>------- ---------- ------ -- ----- -- ----- -- ---- ------<br>--- ----- --- --- ------ -------- ----- --- ------ ----- --<br>----- ----- ---------- --- --- ------ ------ ---- -- ------<br>------- --- ------ ----- --- ---- ------- -- ---- --- --<br>------- ------,200637.35499999984,200629.42999999996,200113.755,200121.74000000005,200130.421,200641.019,,4,French
screen,html.Screen,1_1_1_1_5,2021-04-26T12:45:48.652Z,,,,,,,,,,,,,,,,54,,,,,,,,,,,,,,307.2009999997681,,response,,,,100,,,,,,,Space,keypress(Space),,,,,,,,-- --- ---- --- ------ crown ------- ---- -- --- ------- --<br>------- ---------- ------ -- ----- -- ----- -- ---- ------<br>--- ----- --- --- ------ -------- ----- --- ------ ----- --<br>----- ----- ---------- --- --- ------ ------ ---- -- ------<br>------- --- ------ ----- --- ---- ------- -- ---- --- --<br>------- ------,200955.88999999972,200948.21999999977,200624.353,200637.5149999999,200641.019,200957.673,,5,crown
screen,html.Screen,1_1_1_1_6,2021-04-26T12:45:49.130Z,,,,,,,,,,,,,,,,54,,,,,,,,,,,,,,468.3969999999681,,response,,,,100,,,,,,,Space,keypress(Space),,,,,,,,-- --- ---- --- ------ ----- secured ---- -- --- ------- --<br>------- ---------- ------ -- ----- -- ----- -- ---- ------<br>--- ----- --- --- ------ -------- ----- --- ------ ----- --<br>----- ----- ---------- --- --- ------ ------ ---- -- ------<br>------- --- ------ ----- --- ---- ------- -- ---- --- --<br>------- ------,201433.99,201426.06999999998,200941.007,200956.04999999978,200957.673,201440.987,,6,secured
screen,html.Screen,1_1_1_1_7,2021-04-26T12:45:49.686Z,,,,,,,,,,,,,,,,54,,,,,,,,,,,,,,541.2329999998619,,response,,,,100,,,,,,,Space,keypress(Space),,,,,,,,-- --- ---- --- ------ ----- ------- much -- --- ------- --<br>------- ---------- ------ -- ----- -- ----- -- ---- ------<br>--- ----- --- --- ------ -------- ----- --- ------ ----- --<br>----- ----- ---------- --- --- ------ ------ ---- -- ------<br>------- --- ------ ----- --- ---- ------- -- ---- --- --<br>------- ------,201989.67999999967,201982.21999999986,201424.321,201434.15000000005,201440.987,201990.965,,7,much
screen,html.Screen,1_1_1_1_8,2021-04-26T12:45:50.118Z,,,,,,,,,,,,,,,,54,,,,,,,,,,,,,,423.13999999983935,,response,,,,100,,,,,,,Space,keypress(Space),,,,,,,,-- --- ---- --- ------ ----- ------- ---- of --- ------- --<br>------- ---------- ------ -- ----- -- ----- -- ---- ------<br>--- ----- --- --- ------ -------- ----- --- ------ ----- --<br>----- ----- ---------- --- --- ------ ------ ---- -- ------<br>------- --- ------ ----- --- ---- ------- -- ---- --- --<br>------- ------,202421.8350000001,202414.10499999984,201974.299,201989.83999999973,201990.965,202424.281,,8,of
screen,html.Screen,1_1_1_1_9,2021-04-26T12:45:50.571Z,,,,,,,,,,,,,,,,54,,,,,,,,,,,,,,442.8239999998186,,response,,,,100,,,,,,,Space,keypress(Space),,,,,,,,-- --- ---- --- ------ ----- ------- ---- -- its ------- --<br>------- ---------- ------ -- ----- -- ----- -- ---- ------<br>--- ----- --- --- ------ -------- ----- --- ------ ----- --<br>----- ----- ---------- --- --- ------ ------ ---- -- ------<br>------- --- ------ ----- --- ---- ------- -- ---- --- --<br>------- ------,202875.19500000007,202867.1049999998,202407.615,202422.00000000003,202424.281,202890.929,,9,its
screen,html.Screen,1_1_1_1_10,2021-04-26T12:45:50.976Z,,,,,,,,,,,,,,,,54,,,,,,,,,,,,,,381.19100000007893,,response,,,,100,,,,,,,Space,keypress(Space),,,,,,,,-- --- ---- --- ------ ----- ------- ---- -- --- revenue --<br>------- ---------- ------ -- ----- -- ----- -- ---- ------<br>--- ----- --- --- ------ -------- ----- --- ------ ----- --<br>----- ----- ---------- --- --- ------ ------ ---- -- ------<br>------- --- ------ ----- --- ---- ------- -- ---- --- --<br>------- ------,203279.88499999992,203272.12000000008,202874.263,202875.36999999976,202890.929,203290.913,,10,revenue
screen,html.Screen,1_1_1_1_11,2021-04-26T12:45:51.420Z,,,,,,,,,,,,,,,,54,,,,,,,,,,,,,,425.14199999987613,,response,,,,100,,,,,,,Space,keypress(Space),,,,,,,,-- --- ---- --- ------ ----- ------- ---- -- --- ------- by<br>------- ---------- ------ -- ----- -- ----- -- ---- ------<br>--- ----- --- --- ------ -------- ----- --- ------ ----- --<br>----- ----- ---------- --- --- ------ ------ ---- -- ------<br>------- --- ------ ----- --- ---- ------- -- ---- --- --<br>------- ------,203723.77000000005,203716.05499999988,203274.247,203280.04999999984,203290.913,203740.895,,11,by
screen,html.Screen,1_1_1_1_12,2021-04-26T12:45:51.915Z,,,,,,,,,,,,,,,,54,,,,,,,,,,,,,,470.189999999915,,response,,,,100,,,,,,,Space,keypress(Space),,,,,,,,-- --- ---- --- ------ ----- ------- ---- -- --- ------- --<br>issuing ---------- ------ -- ----- -- ----- -- ---- ------<br>--- ----- --- --- ------ -------- ----- --- ------ ----- --<br>----- ----- ---------- --- --- ------ ------ ---- -- ------<br>------- --- ------ ----- --- ---- ------- -- ---- --- --<br>------- ------,204219.0099999998,204211.0849999999,203724.229,203723.935,203740.895,204224.209,,12,issuing
screen,html.Screen,1_1_1_1_13,2021-04-26T12:45:52.355Z,,,,,,,,,,,,,,,,54,,,,,,,,,,,,,,427.40099999989616,,response,,,,100,,,,,,,Space,keypress(Space),,,,,,,,-- --- ---- --- ------ ----- ------- ---- -- --- ------- --<br>------- government ------ -- ----- -- ----- -- ---- ------<br>--- ----- --- --- ------ -------- ----- --- ------ ----- --<br>----- ----- ---------- --- --- ------ ------ ---- -- ------<br>------- --- ------ ----- --- ---- ------- -- ---- --- --<br>------- ------,204659.4150000001,204651.6099999999,204207.543,204219.18000000005,204224.209,204674.191,,13,government
screen,html.Screen,1_1_1_1_14,2021-04-26T12:45:52.863Z,,,,,,,,,,,,,,,,54,,,,,,,,,,,,,,484.8389999998035,,response,,,,100,,,,,,,Space,keypress(Space),,,,,,,,-- --- ---- --- ------ ----- ------- ---- -- --- ------- --<br>------- ---------- bonds. -- ----- -- ----- -- ---- ------<br>--- ----- --- --- ------ -------- ----- --- ------ ----- --<br>----- ----- ---------- --- --- ------ ------ ---- -- ------<br>------- --- ------ ----- --- ---- ------- -- ---- --- --<br>------- ------,205166.78000000003,205159.0299999998,204657.525,204659.58000000002,204674.191,205174.171,,14,bonds.
screen,html.Screen,1_1_1_1_15,2021-04-26T12:45:53.332Z,,,,,,,,,,,,,,,,54,,,,,,,,,,,,,,453.8739999999234,,response,,,,100,,,,,,,Space,keypress(Space),,,,,,,,-- --- ---- --- ------ ----- ------- ---- -- --- ------- --<br>------- ---------- ------ In ----- -- ----- -- ---- ------<br>--- ----- --- --- ------ -------- ----- --- ------ ----- --<br>----- ----- ---------- --- --- ------ ------ ---- -- ------<br>------- --- ------ ----- --- ---- ------- -- ---- --- --<br>------- ------,205636.38999999966,205628.04499999993,205157.505,205166.9549999997,205174.171,205640.819,,15,In
screen,html.Screen,1_1_1_1_16,2021-04-26T12:45:54.194Z,,,,,,,,,,,,,,,,54,,,,,,,,,,,,,,849.1259999998147,,response,,,,100,,,,,,,Space,keypress(Space),,,,,,,,"-- --- ---- --- ------ ----- ------- ---- -- --- ------- --<br>------- ---------- ------ -- 1727, -- ----- -- ---- ------<br>--- ----- --- --- ------ -------- ----- --- ------ ----- --<br>----- ----- ---------- --- --- ------ ------ ---- -- ------<br>------- --- ------ ----- --- ---- ------- -- ---- --- --<br>------- ------",206497.9599999997,206489.9449999998,205624.153,205636.5599999999,205640.819,206507.451,,16,"1727,"
screen,html.Screen,1_1_1_1_17,2021-04-26T12:45:54.852Z,,,,,,,,,,,,,,,,54,,,,,,,,,,,,,,640.5890000000363,,response,,,,100,,,,,,,Space,keypress(Space),,,,,,,,-- --- ---- --- ------ ----- ------- ---- -- --- ------- --<br>------- ---------- ------ -- ----- in ----- -- ---- ------<br>--- ----- --- --- ------ -------- ----- --- ------ ----- --<br>----- ----- ---------- --- --- ------ ------ ---- -- ------<br>------- --- ------ ----- --- ---- ------- -- ---- --- --<br>------- ------,207155.6499999997,207148.04000000004,206490.785,206498.12500000006,206507.451,207157.425,,17,in
screen,html.Screen,1_1_1_1_18,2021-04-26T12:45:55.509Z,,,,,,,,,,,,,,,,54,,,,,,,,,,,,,,647.4699999997683,,response,,,,100,,,,,,,Space,keypress(Space),,,,,,,,-- --- ---- --- ------ ----- ------- ---- -- --- ------- --<br>------- ---------- ------ -- ----- -- order -- ---- ------<br>--- ----- --- --- ------ -------- ----- --- ------ ----- --<br>----- ----- ---------- --- --- ------ ------ ---- -- ------<br>------- --- ------ ----- --- ---- ------- -- ---- --- --<br>------- ------,207813.40499999988,207804.89499999976,207140.759,207155.82499999984,207157.425,207824.065,,18,order
screen,html.Screen,1_1_1_1_19,2021-04-26T12:45:55.880Z,,,,,,,,,,,,,,,,54,,,,,,,,,,,,,,352.15999999971245,,response,,,,100,,,,,,,Space,keypress(Space),,,,,,,,-- --- ---- --- ------ ----- ------- ---- -- --- ------- --<br>------- ---------- ------ -- ----- -- ----- to ---- ------<br>--- ----- --- --- ------ -------- ----- --- ------ ----- --<br>----- ----- ---------- --- --- ------ ------ ---- -- ------<br>------- --- ------ ----- --- ---- ------- -- ---- --- --<br>------- ------,208183.97000000003,208176.22499999971,207807.399,207813.62499999977,207824.065,208190.717,,19,to
screen,html.Screen,1_1_1_1_20,2021-04-26T12:45:56.286Z,,,,,,,,,,,,,,,,54,,,,,,,,,,,,,,392.20799999969313,,response,,,,100,,,,,,,Space,keypress(Space),,,,,,,,-- --- ---- --- ------ ----- ------- ---- -- --- ------- --<br>------- ---------- ------ -- ----- -- ----- -- save ------<br>--- ----- --- --- ------ -------- ----- --- ------ ----- --<br>----- ----- ---------- --- --- ------ ------ ---- -- ------<br>------- --- ------ ----- --- ---- ------- -- ---- --- --<br>------- ------,208590.36999999988,208582.9249999997,208174.051,208184.13499999998,208190.717,208607.367,,20,save
screen,html.Screen,1_1_1_1_21,2021-04-26T12:45:56.693Z,,,,,,,,,,,,,,,,54,,,,,,,,,,,,,,380.8479999998526,,response,,,,100,,,,,,,Space,keypress(Space),,,,,,,,"-- --- ---- --- ------ ----- ------- ---- -- --- ------- --<br>------- ---------- ------ -- ----- -- ----- -- ---- money,<br>--- ----- --- --- ------ -------- ----- --- ------ ----- --<br>----- ----- ---------- --- --- ------ ------ ---- -- ------<br>------- --- ------ ----- --- ---- ------- -- ---- --- --<br>------- ------",208996.7499999998,208988.21499999985,208590.701,208590.52999999994,208607.367,209007.351,,21,"money,"
screen,html.Screen,1_1_1_1_22,2021-04-26T12:45:57.202Z,,,,,,,,,,,,,,,,54,,,,,,,,,,,,,,490.86899999994785,,response,,,,100,,,,,,,Space,keypress(Space),,,,,,,,-- --- ---- --- ------ ----- ------- ---- -- --- ------- --<br>------- ---------- ------ -- ----- -- ----- -- ---- ------<br>the ----- --- --- ------ -------- ----- --- ------ ----- --<br>----- ----- ---------- --- --- ------ ------ ---- -- ------<br>------- --- ------ ----- --- ---- ------- -- ---- --- --<br>------- ------,209505.8799999997,209498.21999999994,208990.685,208996.91499999972,209007.351,209507.331,,22,the
screen,html.Screen,1_1_1_1_23,2021-04-26T12:45:57.657Z,,,,,,,,,,,,,,,,54,,,,,,,,,,,,,,446.50399999978254,,response,,,,100,,,,,,,Space,keypress(Space),,,,,,,,-- --- ---- --- ------ ----- ------- ---- -- --- ------- --<br>------- ---------- ------ -- ----- -- ----- -- ---- ------<br>--- state --- --- ------ -------- ----- --- ------ ----- --<br>----- ----- ---------- --- --- ------ ------ ---- -- ------<br>------- --- ------ ----- --- ---- ------- -- ---- --- --<br>------- ------,209961.5249999997,209953.8349999998,209490.665,209506.03999999975,209507.331,209973.979,,23,state
screen,html.Screen,1_1_1_1_24,2021-04-26T12:45:58.111Z,,,,,,,,,,,,,,,,54,,,,,,,,,,,,,,432.92599999983213,,response,,,,100,,,,,,,Space,keypress(Space),,,,,,,,-- --- ---- --- ------ ----- ------- ---- -- --- ------- --<br>------- ---------- ------ -- ----- -- ----- -- ---- ------<br>--- ----- cut --- ------ -------- ----- --- ------ ----- --<br>----- ----- ---------- --- --- ------ ------ ---- -- ------<br>------- --- ------ ----- --- ---- ------- -- ---- --- --<br>------- ------,210414.80499999988,210406.90499999982,209957.313,209961.6900000001,209973.979,210423.961,,24,cut
screen,html.Screen,1_1_1_1_25,2021-04-26T12:45:58.900Z,,,,,,,,,,,,,,,,54,,,,,,,,,,,,,,772.1739999996789,,response,,,,100,,,,,,,Space,keypress(Space),,,,,,,,-- --- ---- --- ------ ----- ------- ---- -- --- ------- --<br>------- ---------- ------ -- ----- -- ----- -- ---- ------<br>--- ----- --- the ------ -------- ----- --- ------ ----- --<br>----- ----- ---------- --- --- ------ ------ ---- -- ------<br>------- --- ------ ----- --- ---- ------- -- ---- --- --<br>------- ------,211203.9999999997,211196.1349999997,210407.295,210414.9699999998,210423.961,211217.681,,25,the
screen,html.Screen,1_1_1_1_26,2021-04-26T12:45:59.309Z,,,,,,,,,,,,,,,,54,,,,,,,,,,,,,,387.0689999999595,,response,,,,100,,,,,,,Space,keypress(Space),,,,,,,,-- --- ---- --- ------ ----- ------- ---- -- --- ------- --<br>------- ---------- ------ -- ----- -- ----- -- ---- ------<br>--- ----- --- --- bonds' -------- ----- --- ------ ----- --<br>----- ----- ---------- --- --- ------ ------ ---- -- ------<br>------- --- ------ ----- --- ---- ------- -- ---- --- --<br>------- ------,211613.2950000001,211604.74999999997,211201.015,211204.16999999998,211217.681,211617.665,,26,bonds'
screen,html.Screen,1_1_1_1_27,2021-04-26T12:45:59.780Z,,,,,,,,,,,,,,,,54,,,,,,,,,,,,,,459.1699999998382,,response,,,,100,,,,,,,Space,keypress(Space),,,,,,,,-- --- ---- --- ------ ----- ------- ---- -- --- ------- --<br>------- ---------- ------ -- ----- -- ----- -- ---- ------<br>--- ----- --- --- ------ interest ----- --- ------ ----- --<br>----- ----- ---------- --- --- ------ ------ ---- -- ------<br>------- --- ------ ----- --- ---- ------- -- ---- --- --<br>------- ------,212084.79499999975,212076.83499999985,211600.999,211613.46000000002,211617.665,212100.979,,27,interest
screen,html.Screen,1_1_1_1_28,2021-04-26T12:46:00.337Z,,,,,,,,,,,,,,,,54,,,,,,,,,,,,,,532.9209999998275,,response,,,,100,,,,,,,Space,keypress(Space),,,,,,,,-- --- ---- --- ------ ----- ------- ---- -- --- ------- --<br>------- ---------- ------ -- ----- -- ----- -- ---- ------<br>--- ----- --- --- ------ -------- rate. --- ------ ----- --<br>----- ----- ---------- --- --- ------ ------ ---- -- ------<br>------- --- ------ ----- --- ---- ------- -- ---- --- --<br>------- ------,212641.58499999985,212633.89999999982,212084.313,212084.96500000003,212100.979,212650.957,,28,rate.
screen,html.Screen,1_1_1_1_29,2021-04-26T12:46:01.073Z,,,,,,,,,,,,,,,,54,,,,,,,,,,,,,,719.6879999999655,,response,,,,100,,,,,,,Space,keypress(Space),,,,,,,,-- --- ---- --- ------ ----- ------- ---- -- --- ------- --<br>------- ---------- ------ -- ----- -- ----- -- ---- ------<br>--- ----- --- --- ------ -------- ----- The ------ ----- --<br>----- ----- ---------- --- --- ------ ------ ---- -- ------<br>------- --- ------ ----- --- ---- ------- -- ---- --- --<br>------- ------,213377.86499999993,213370.64499999996,212634.291,212641.7449999999,212650.957,213384.261,,29,The
screen,html.Screen,1_1_1_1_30,2021-04-26T12:46:01.532Z,,,,,,,,,,,,,,,,54,,,,,,,,,,,,,,444.4789999999339,,response,,,,100,,,,,,,Space,keypress(Space),,,,,,,,-- --- ---- --- ------ ----- ------- ---- -- --- ------- --<br>------- ---------- ------ -- ----- -- ----- -- ---- ------<br>--- ----- --- --- ------ -------- ----- --- market ----- --<br>----- ----- ---------- --- --- ------ ------ ---- -- ------<br>------- --- ------ ----- --- ---- ------- -- ---- --- --<br>------- ------,213836.55999999974,213828.73999999993,213367.595,213378.02999999985,213384.261,213850.909,,30,market
screen,html.Screen,1_1_1_1_31,2021-04-26T12:46:01.979Z,,,,,,,,,,,,,,,,54,,,,,,,,,,,,,,424.85599999985425,,response,,,,100,,,,,,,Space,keypress(Space),,,,,,,,-- --- ---- --- ------ ----- ------- ---- -- --- ------- --<br>------- ---------- ------ -- ----- -- ----- -- ---- ------<br>--- ----- --- --- ------ -------- ----- --- ------ value --<br>----- ----- ---------- --- --- ------ ------ ---- -- ------<br>------- --- ------ ----- --- ---- ------- -- ---- --- --<br>------- ------,214283.5799999998,214275.76499999987,213834.243,213836.73999999973,213850.909,214300.891,,31,value
screen,html.Screen,1_1_1_1_32,2021-04-26T12:46:02.418Z,,,,,,,,,,,,,,,,54,,,,,,,,,,,,,,413.2490000000398,,response,,,,100,,,,,,,Space,keypress(Space),,,,,,,,-- --- ---- --- ------ ----- ------- ---- -- --- ------- --<br>------- ---------- ------ -- ----- -- ----- -- ---- ------<br>--- ----- --- --- ------ -------- ----- --- ------ ----- of<br>----- ----- ---------- --- --- ------ ------ ---- -- ------<br>------- --- ------ ----- --- ---- ------- -- ---- --- --<br>------- ------,214722.1199999999,214714.14000000004,214284.225,214283.75000000006,214300.891,214734.207,,32,of
screen,html.Screen,1_1_1_1_33,2021-04-26T12:46:02.853Z,,,,,,,,,,,,,,,,54,,,,,,,,,,,,,,415.1429999996908,,response,,,,100,,,,,,,Space,keypress(Space),,,,,,,,-- --- ---- --- ------ ----- ------- ---- -- --- ------- --<br>------- ---------- ------ -- ----- -- ----- -- ---- ------<br>--- ----- --- --- ------ -------- ----- --- ------ ----- --<br>these ----- ---------- --- --- ------ ------ ---- -- ------<br>------- --- ------ ----- --- ---- ------- -- ---- --- --<br>------- ------,215157.6299999997,215149.3499999997,214717.541,214722.28499999983,214734.207,215167.523,,33,these
screen,html.Screen,1_1_1_1_34,2021-04-26T12:46:03.314Z,,,,,,,,,,,,,,,,54,,,,,,,,,,,,,,443.16699999998673,,response,,,,100,,,,,,,Space,keypress(Space),,,,,,,,-- --- ---- --- ------ ----- ------- ---- -- --- ------- --<br>------- ---------- ------ -- ----- -- ----- -- ---- ------<br>--- ----- --- --- ------ -------- ----- --- ------ ----- --<br>----- bonds ---------- --- --- ------ ------ ---- -- ------<br>------- --- ------ ----- --- ---- ------- -- ---- --- --<br>------- ------,215618.34999999974,215610.68999999997,215150.857,215157.79999999996,215167.523,215634.171,,34,bonds
screen,html.Screen,1_1_1_1_35,2021-04-26T12:46:03.847Z,,,,,,,,,,,,,,,,54,,,,,,,,,,,,,,509.5689999999886,,response,,,,100,,,,,,,Space,keypress(Space),,,,,,,,"-- --- ---- --- ------ ----- ------- ---- -- --- ------- --<br>------- ---------- ------ -- ----- -- ----- -- ---- ------<br>--- ----- --- --- ------ -------- ----- --- ------ ----- --<br>----- ----- plummeted, --- --- ------ ------ ---- -- ------<br>------- --- ------ ----- --- ---- ------- -- ---- --- --<br>------- ------",216151.91499999992,216143.74,215617.505,215618.50999999978,215634.171,216167.483,,35,"plummeted,"
screen,html.Screen,1_1_1_1_36,2021-04-26T12:46:04.449Z,,,,,,,,,,,,,,,,54,,,,,,,,,,,,,,578.2419999997655,,response,,,,100,,,,,,,Space,keypress(Space),,,,,,,,-- --- ---- --- ------ ----- ------- ---- -- --- ------- --<br>------- ---------- ------ -- ----- -- ----- -- ---- ------<br>--- ----- --- --- ------ -------- ----- --- ------ ----- --<br>----- ----- ---------- and --- ------ ------ ---- -- ------<br>------- --- ------ ----- --- ---- ------- -- ---- --- --<br>------- ------,216753.47999999986,216745.72499999977,216150.817,216152.0999999998,216167.483,216767.459,,36,and
screen,html.Screen,1_1_1_1_37,2021-04-26T12:46:04.999Z,,,,,,,,,,,,,,,,54,,,,,,,,,,,,,,528.1659999997355,,response,,,,100,,,,,,,Space,keypress(Space),,,,,,,,-- --- ---- --- ------ ----- ------- ---- -- --- ------- --<br>------- ---------- ------ -- ----- -- ----- -- ---- ------<br>--- ----- --- --- ------ -------- ----- --- ------ ----- --<br>----- ----- ---------- --- the ------ ------ ---- -- ------<br>------- --- ------ ----- --- ---- ------- -- ---- --- --<br>------- ------,217303.37000000008,217295.62499999974,216750.793,216753.6449999998,216767.459,217317.437,,37,the
screen,html.Screen,1_1_1_1_38,2021-04-26T12:46:05.581Z,,,,,,,,,,,,,,,,54,,,,,,,,,,,,,,560.2729999997537,,response,,,,100,,,,,,,Space,keypress(Space),,,,,,,,-- --- ---- --- ------ ----- ------- ---- -- --- ------- --<br>------- ---------- ------ -- ----- -- ----- -- ---- ------<br>--- ----- --- --- ------ -------- ----- --- ------ ----- --<br>----- ----- ---------- --- --- market ------ ---- -- ------<br>------- --- ------ ----- --- ---- ------- -- ---- --- --<br>------- ------,217885.62999999977,217877.70999999976,217300.771,217303.5399999999,217317.437,217900.747,,38,market
screen,html.Screen,1_1_1_1_39,2021-04-26T12:46:06.064Z,,,,,,,,,,,,,,,,54,,,,,,,,,,,,,,459.8529999999737,,response,,,,100,,,,,,,Space,keypress(Space),,,,,,,,-- --- ---- --- ------ ----- ------- ---- -- --- ------- --<br>------- ---------- ------ -- ----- -- ----- -- ---- ------<br>--- ----- --- --- ------ -------- ----- --- ------ ----- --<br>----- ----- ---------- --- --- ------ became ---- -- ------<br>------- --- ------ ----- --- ---- ------- -- ---- --- --<br>------- ------,218368.64999999988,218360.59999999998,217884.081,217885.7899999998,217900.747,218384.061,,39,became
screen,html.Screen,1_1_1_1_40,2021-04-26T12:46:06.546Z,,,,,,,,,,,,,,,,54,,,,,,,,,,,,,,458.51900000000023,,response,,,,100,,,,,,,Space,keypress(Space),,,,,,,,-- --- ---- --- ------ ----- ------- ---- -- --- ------- --<br>------- ---------- ------ -- ----- -- ----- -- ---- ------<br>--- ----- --- --- ------ -------- ----- --- ------ ----- --<br>----- ----- ---------- --- --- ------ ------ wary -- ------<br>------- --- ------ ----- --- ---- ------- -- ---- --- --<br>------- ------,218850.49499999968,218842.58,218367.395,218368.81499999983,218384.061,218867.375,,40,wary
screen,html.Screen,1_1_1_1_41,2021-04-26T12:46:07.091Z,,,,,,,,,,,,,,,,54,,,,,,,,,,,,,,520.5549999998766,,response,,,,100,,,,,,,Space,keypress(Space),,,,,,,,-- --- ---- --- ------ ----- ------- ---- -- --- ------- --<br>------- ---------- ------ -- ----- -- ----- -- ---- ------<br>--- ----- --- --- ------ -------- ----- --- ------ ----- --<br>----- ----- ---------- --- --- ------ ------ ---- of ------<br>------- --- ------ ----- --- ---- ------- -- ---- --- --<br>------- ------,219396.1549999999,219387.92999999988,218850.709,218850.65499999974,218867.375,219400.687,,41,of
screen,html.Screen,1_1_1_1_42,2021-04-26T12:46:07.538Z,,,,,,,,,,,,,,,,54,,,,,,,,,,,,,,434.2329999997746,,response,,,,100,,,,,,,Space,keypress(Space),,,,,,,,-- --- ---- --- ------ ----- ------- ---- -- --- ------- --<br>------- ---------- ------ -- ----- -- ----- -- ---- ------<br>--- ----- --- --- ------ -------- ----- --- ------ ----- --<br>----- ----- ---------- --- --- ------ ------ ---- -- French<br>------- --- ------ ----- --- ---- ------- -- ---- --- --<br>------- ------,219842.68500000008,219834.91999999978,219384.021,219396.33000000005,219400.687,219850.669,,42,French
screen,html.Screen,1_1_1_1_43,2021-04-26T12:46:08.027Z,,,,,,,,,,,,,,,,54,,,,,,,,,,,,,,472.9509999996808,,response,,,,100,,,,,,,Space,keypress(Space),,,,,,,,-- --- ---- --- ------ ----- ------- ---- -- --- ------- --<br>------- ---------- ------ -- ----- -- ----- -- ---- ------<br>--- ----- --- --- ------ -------- ----- --- ------ ----- --<br>----- ----- ---------- --- --- ------ ------ ---- -- ------<br>credit. --- ------ ----- --- ---- ------- -- ---- --- --<br>------- ------,220331.56999999983,220323.61999999968,219834.003,219842.84499999968,219850.669,220333.983,,43,credit.
screen,html.Screen,1_1_1_1_44,2021-04-26T12:46:08.538Z,,,,,,,,,,,,,,,,54,,,,,,,,,,,,,,500.6370000000752,,response,,,,100,,,,,,,Space,keypress(Space),,,,,,,,-- --- ---- --- ------ ----- ------- ---- -- --- ------- --<br>------- ---------- ------ -- ----- -- ----- -- ---- ------<br>--- ----- --- --- ------ -------- ----- --- ------ ----- --<br>----- ----- ---------- --- --- ------ ------ ---- -- ------<br>------- The ------ ----- --- ---- ------- -- ---- --- --<br>------- ------,220842.62499999977,220834.62000000008,220317.317,220331.74000000008,220333.983,220850.629,,44,The
screen,html.Screen,1_1_1_1_45,2021-04-26T12:46:08.957Z,,,,,,,,,,,,,,,,54,,,,,,,,,,,,,,402.9959999998391,,response,,,,100,,,,,,,Space,keypress(Space),,,,,,,,-- --- ---- --- ------ ----- ------- ---- -- --- ------- --<br>------- ---------- ------ -- ----- -- ----- -- ---- ------<br>--- ----- --- --- ------ -------- ----- --- ------ ----- --<br>----- ----- ---------- --- --- ------ ------ ---- -- ------<br>------- --- French ----- --- ---- ------- -- ---- --- --<br>------- ------,221261.77000000008,221253.62499999983,220833.963,220842.795,220850.629,221269.045,,45,French
screen,html.Screen,1_1_1_1_46,2021-04-26T12:46:09.395Z,,,,,,,,,,,,,,,,54,,,,,,,,,,,,,,423.2149999997928,,response,,,,100,,,,,,,Space,keypress(Space),,,,,,,,-- --- ---- --- ------ ----- ------- ---- -- --- ------- --<br>------- ---------- ------ -- ----- -- ----- -- ---- ------<br>--- ----- --- --- ------ -------- ----- --- ------ ----- --<br>----- ----- ---------- --- --- ------ ------ ---- -- ------<br>------- --- ------ state --- ---- ------- -- ---- --- --<br>------- ------,221700.155,221692.2599999998,221252.379,221261.935,221269.045,221702.361,,46,state
screen,html.Screen,1_1_1_1_47,2021-04-26T12:46:09.796Z,,,,,,,,,,,,,,,,54,,,,,,,,,,,,,,389.84399999992456,,response,,,,100,,,,,,,Space,keypress(Space),,,,,,,,-- --- ---- --- ------ ----- ------- ---- -- --- ------- --<br>------- ---------- ------ -- ----- -- ----- -- ---- ------<br>--- ----- --- --- ------ -------- ----- --- ------ ----- --<br>----- ----- ---------- --- --- ------ ------ ---- -- ------<br>------- --- ------ ----- was ---- ------- -- ---- --- --<br>------- ------,222100.60999999996,222092.20499999993,221685.695,221700.31999999992,221702.361,222102.345,,47,was
screen,html.Screen,1_1_1_1_48,2021-04-26T12:46:10.217Z,,,,,,,,,,,,,,,,54,,,,,,,,,,,,,,411.75,,response,,,,100,,,,,,,Space,keypress(Space),,,,,,,,-- --- ---- --- ------ ----- ------- ---- -- --- ------- --<br>------- ---------- ------ -- ----- -- ----- -- ---- ------<br>--- ----- --- --- ------ -------- ----- --- ------ ----- --<br>----- ----- ---------- --- --- ------ ------ ---- -- ------<br>------- --- ------ ----- --- left ------- -- ---- --- --<br>------- ------,222522.01999999987,222514.095,222085.679,222100.77499999988,222102.345,222535.661,,48,left
screen,html.Screen,1_1_1_1_49,2021-04-26T12:46:10.637Z,,,,,,,,,,,,,,,,54,,,,,,,,,,,,,,398.26399999982095,,response,,,,100,,,,,,,Space,keypress(Space),,,,,,,,-- --- ---- --- ------ ----- ------- ---- -- --- ------- --<br>------- ---------- ------ -- ----- -- ----- -- ---- ------<br>--- ----- --- --- ------ -------- ----- --- ------ ----- --<br>----- ----- ---------- --- --- ------ ------ ---- -- ------<br>------- --- ------ ----- --- ---- without -- ---- --- --<br>------- ------,222941.8249999999,222933.9249999998,222518.995,222522.18499999982,222535.661,222952.311,,49,without
screen,html.Screen,1_1_1_1_50,2021-04-26T12:46:11.129Z,,,,,,,,,,,,,,,,54,,,,,,,,,,,,,,473.3090000000084,,response,,,,100,,,,,,,Space,keypress(Space),,,,,,,,-- --- ---- --- ------ ----- ------- ---- -- --- ------- --<br>------- ---------- ------ -- ----- -- ----- -- ---- ------<br>--- ----- --- --- ------ -------- ----- --- ------ ----- --<br>----- ----- ---------- --- --- ------ ------ ---- -- ------<br>------- --- ------ ----- --- ---- ------- an ---- --- --<br>------- ------,223434.18500000006,223425.62,222935.645,222941.98999999982,222952.311,223435.625,,50,an
screen,html.Screen,1_1_1_1_51,2021-04-26T12:46:11.566Z,,,,,,,,,,,,,,,,54,,,,,,,,,,,,,,427.1899999999441,,response,,,,100,,,,,,,Space,keypress(Space),,,,,,,,-- --- ---- --- ------ ----- ------- ---- -- --- ------- --<br>------- ---------- ------ -- ----- -- ----- -- ---- ------<br>--- ----- --- --- ------ -------- ----- --- ------ ----- --<br>----- ----- ---------- --- --- ------ ------ ---- -- ------<br>------- --- ------ ----- --- ---- ------- -- easy --- --<br>------- ------,223870.84000000005,223862.81499999994,223418.959,223434.36500000008,223435.625,223885.607,,51,easy
screen,html.Screen,1_1_1_1_52,2021-04-26T12:46:11.990Z,,,,,,,,,,,,,,,,54,,,,,,,,,,,,,,401.8629999997793,,response,,,,100,,,,,,,Space,keypress(Space),,,,,,,,-- --- ---- --- ------ ----- ------- ---- -- --- ------- --<br>------- ---------- ------ -- ----- -- ----- -- ---- ------<br>--- ----- --- --- ------ -------- ----- --- ------ ----- --<br>----- ----- ---------- --- --- ------ ------ ---- -- ------<br>------- --- ------ ----- --- ---- ------- -- ---- way --<br>------- ------,224295.27000000008,224287.46999999977,223868.941,223871.02000000005,223885.607,224302.257,,52,way
screen,html.Screen,1_1_1_1_53,2021-04-26T12:46:12.733Z,,,,,,,,,,,,,,,,54,,,,,,,,,,,,,,728.22799999977,,response,,,,100,,,,,,,Space,keypress(Space),,,,,,,,-- --- ---- --- ------ ----- ------- ---- -- --- ------- --<br>------- ---------- ------ -- ----- -- ----- -- ---- ------<br>--- ----- --- --- ------ -------- ----- --- ------ ----- --<br>----- ----- ---------- --- --- ------ ------ ---- -- ------<br>------- --- ------ ----- --- ---- ------- -- ---- --- of<br>------- ------,225038.09999999974,225030.48499999978,224285.591,224295.435,224302.257,225052.227,,53,of
screen,html.Screen,1_1_1_1_54,2021-04-26T12:46:13.233Z,,,,,,,,,,,,,,,,54,,,,,,,,,,,,,,477.25800000000163,,response,,,,100,,,,,,,Space,keypress(Space),,,,,,,,-- --- ---- --- ------ ----- ------- ---- -- --- ------- --<br>------- ---------- ------ -- ----- -- ----- -- ---- ------<br>--- ----- --- --- ------ -------- ----- --- ------ ----- --<br>----- ----- ---------- --- --- ------ ------ ---- -- ------<br>------- --- ------ ----- --- ---- ------- -- ---- --- --<br>raising ------,225537.56999999995,225529.48500000002,225035.561,225038.27999999977,225052.227,225552.207,,54,raising
screen,html.Screen,1_1_1_1_55,2021-04-26T12:46:13.721Z,,,,,,,,,,,,,,,,54,,,,,,,,,,,,,,466.27299999972456,,response,,,,100,,,,,,,Space,keypress(Space),,,,,,,,-- --- ---- --- ------ ----- ------- ---- -- --- ------- --<br>------- ---------- ------ -- ----- -- ----- -- ---- ------<br>--- ----- --- --- ------ -------- ----- --- ------ ----- --<br>----- ----- ---------- --- --- ------ ------ ---- -- ------<br>------- --- ------ ----- --- ---- ------- -- ---- --- --<br>------- money.,226026.37000000005,226018.47999999972,225535.541,225537.75999999972,225552.207,226035.521,,55,money.
Item 100,flow.Loop,1_1_1_1,2021-04-26T12:46:13.722Z,,,,,,,,,,,,,,,,,,,,,,,,,,,,,,28387.95899999971,,completion,,,,,C,,,,,,,,,,,silence,,,,,226026.66,226018.47999999972,197613.855,197616.27,197630.521,226035.521,,,
Question 1,html.Screen,1_1_1_2,2021-04-26T12:46:16.653Z,,,,,,,,,,,,,,,,,,,,,,,,,,,true,TRUE,,2918.7389999999723,,response,,,,100,C,,,,,,TRUE,click #choice-1,,,,silence,,,,,228958.41500000007,228954.25999999998,226018.855,226026.98999999985,226035.521,228968.737,,,
Question 2,html.Screen,1_1_1_3,2021-04-26T12:46:19.599Z,,,,,,,,,,,,,,,,,,,,,,,,,,,true,FALSE,,2931.617999999755,,response,,,,100,C,,,,,,FALSE,click #choice-2,,,,silence,,,,,231904.72,231900.35499999975,228952.071,228958.74000000005,228968.737,231909.281,,,
Item 100,flow.Sequence,1_1_1,2021-04-26T12:46:19.600Z,,,,,,,,,,,,,,,,,,,,,,,,,,,,,,44276.579999999754,,completion,,,,,,,,,,,,,,,,,,,,,231904.95499999996,231900.35499999975,187607.109,187622.71999999986,187623.775,231909.281,,,
End of Practice,html.Page,1_1_2,2021-04-26T12:46:24.174Z,,,,,,,,,,,,,,,,,,,,,,,,,,,,,,4569.404000000068,,form submission,,,,,,,,,,,,,,,,,,,,,236479.1449999998,236478.68500000006,231892.615,231905.07499999966,231909.281,236492.431,,,
Practice,flow.Sequence,1_1,2021-04-26T12:46:24.174Z,,,,,,,,,,,,,,,,,,,,,,,,,,,,,,115703.09800000006,,completion,,,,,,,,,,,,,,,,,,,,,236479.39499999984,236478.68500000006,120758.921,120777.02499999986,120775.587,236492.431,,,
Trap_instruction,html.Page,1_2_0,2021-04-26T12:46:28.399Z,,,,,,,,,,,,,,,,,,,,,,,,,,,,,,4212.274000000092,,form submission,,,,,,,,,,,,,,,,,,,,,240705.07499999984,240704.7050000001,236475.765,236479.55499999988,236492.431,240725.595,,,
trap_trial,html.Screen,1_2_1,2021-04-26T12:46:32.348Z,,,,,,,,,,,,,,,,,,,,,,,,,,,true,1,,3923.9299999998184,,response,,,,,,,,,,,1,click #choice-1,,,,,,,,,244653.74500000008,244649.52499999982,240692.263,240705.25999999972,240725.595,244658.771,,,
end of trap trial,html.Page,1_2_2,2021-04-26T12:46:34.299Z,,,,,,,,,,,,,,,,,,,,,,,,,,,,,,1946.21399999992,,form submission,,,,,,,,,,,,,,,,,,,,,246605.3549999997,246604.98499999993,244642.105,244653.92500000008,244658.771,246611.323,,,
Trap 1,flow.Sequence,1_2,2021-04-26T12:46:34.300Z,,,,,,,,,,,,,,,,,,,,,,,,,,,,,,10112.553999999916,,completion,,,,,,,,,,,,,,,,,,,,,246605.92499999984,246604.98499999993,236475.765,236479.51499999998,236492.431,246611.323,,,
Standby,html.Page,1_3_0,2021-04-26T12:46:42.290Z,,,,,,,,,,,,,,,,,,,,,,,,,,,,,,7999.679999999993,,timeout,,,,,,,,,,,,,,,,,,,,,254596.16000000006,254594.337,246594.657,246606.17,246611.323,254611.003,,,
Holding screen,html.Screen,1_3_1_0_0,2021-04-26T12:46:49.287Z,,,,,,,,,,,,,,,,,,,,,,,,,,,,,,6998.067999999999,,timeout,,,,,,,,,,,,,,,,,,,,,261593.48,261592.405,254594.337,254596.52499999994,254611.003,261609.071,,,
screen,html.Screen,1_3_1_0_1_0,2021-04-26T12:46:50.100Z,,,,,,,,,,,,,,,,48,,,,,,,,,,,,,,787.9639999999781,,response,,,,10,C,,,,,,Space,keypress(Space),,,,instrumental,,,,As -- --- ------ ------- --------- ----------- --------<br>--------- -------- --- ------- -- ------- ---- -- ------<br>-- --- -------- -------- ---------- ---- ---- ---- ------<br>-- --------- -- ---- -- --- -- --- ------- -- - -----<br>---------- -- -- -- ---- ----- -- ------ -- --- ------<br>-------,262406.56499999977,262397.035,261592.405,261593.84499999988,261609.071,262409.039,,0,As
screen,html.Screen,1_3_1_0_1_1,2021-04-26T12:46:50.428Z,,,,,,,,,,,,,,,,48,,,,,,,,,,,,,,317.5910000001313,,response,,,,10,C,,,,,,Space,keypress(Space),,,,instrumental,,,,-- in --- ------ ------- --------- ----------- --------<br>--------- -------- --- ------- -- ------- ---- -- ------<br>-- --- -------- -------- ---------- ---- ---- ---- ------<br>-- --------- -- ---- -- --- -- --- ------- -- - -----<br>---------- -- -- -- ---- ----- -- ------ -- --- ------<br>-------,262735.0449999999,262726.6300000001,262392.373,262406.7500000001,262409.039,262742.359,,1,in
screen,html.Screen,1_3_1_0_1_2,2021-04-26T12:46:50.809Z,,,,,,,,,,,,,,,,48,,,,,,,,,,,,,,366.18600000004517,,response,,,,10,C,,,,,,Space,keypress(Space),,,,instrumental,,,,-- -- the ------ ------- --------- ----------- --------<br>--------- -------- --- ------- -- ------- ---- -- ------<br>-- --- -------- -------- ---------- ---- ---- ---- ------<br>-- --------- -- ---- -- --- -- --- ------- -- - -----<br>---------- -- -- -- ---- ----- -- ------ -- --- ------<br>-------,263115.33499999996,263108.54500000004,262725.693,262735.2149999997,262742.359,263125.677,,2,the
screen,html.Screen,1_3_1_0_1_3,2021-04-26T12:46:51.244Z,,,,,,,,,,,,,,,,48,,,,,,,,,,,,,,416.9629999996396,,response,,,,10,C,,,,,,Space,keypress(Space),,,,instrumental,,,,-- -- --- United ------- --------- ----------- --------<br>--------- -------- --- ------- -- ------- ---- -- ------<br>-- --- -------- -------- ---------- ---- ---- ---- ------<br>-- --------- -- ---- -- --- -- --- ------- -- - -----<br>---------- -- -- -- ---- ----- -- ------ -- --- ------<br>-------,263550.9699999998,263542.63999999966,263109.011,263115.4999999999,263125.677,263558.993,,3,United
screen,html.Screen,1_3_1_0_1_4,2021-04-26T12:46:51.707Z,,,,,,,,,,,,,,,,48,,,,,,,,,,,,,,446.58199999964563,,response,,,,10,C,,,,,,Space,keypress(Space),,,,instrumental,,,,"-- -- --- ------ States, --------- ----------- --------<br>--------- -------- --- ------- -- ------- ---- -- ------<br>-- --- -------- -------- ---------- ---- ---- ---- ------<br>-- --------- -- ---- -- --- -- --- ------- -- - -----<br>---------- -- -- -- ---- ----- -- ------ -- --- ------<br>-------",264013.16499999986,264005.57499999966,263542.327,263551.1349999997,263558.993,264025.641,,4,"States,"
screen,html.Screen,1_3_1_0_1_5,2021-04-26T12:46:52.416Z,,,,,,,,,,,,,,,,48,,,,,,,,,,,,,,688.8740000001271,,response,,,,10,C,,,,,,Space,keypress(Space),,,,instrumental,,,,-- -- --- ------ ------- Colombian ----------- --------<br>--------- -------- --- ------- -- ------- ---- -- ------<br>-- --- -------- -------- ---------- ---- ---- ---- ------<br>-- --------- -- ---- -- --- -- --- ------- -- - -----<br>---------- -- -- -- ---- ----- -- ------ -- --- ------<br>-------,264722.5549999998,264714.51500000013,264008.975,264013.3299999998,264025.641,264725.613,,5,Colombian
screen,html.Screen,1_3_1_0_1_6,2021-04-26T12:46:52.845Z,,,,,,,,,,,,,,,,48,,,,,,,,,,,,,,417.8969999998808,,response,,,,10,C,,,,,,Space,keypress(Space),,,,instrumental,,,,-- -- --- ------ ------- --------- legislation --------<br>--------- -------- --- ------- -- ------- ---- -- ------<br>-- --- -------- -------- ---------- ---- ---- ---- ------<br>-- --------- -- ---- -- --- -- --- ------- -- - -----<br>---------- -- -- -- ---- ----- -- ------ -- --- ------<br>-------,265151.3500000001,265143.5099999999,264708.947,264722.73,264725.613,265158.929,,6,legislation
screen,html.Screen,1_3_1_0_1_7,2021-04-26T12:46:53.422Z,,,,,,,,,,,,,,,,48,,,,,,,,,,,,,,562.4409999997588,,response,,,,10,C,,,,,,Space,keypress(Space),,,,instrumental,,,,-- -- --- ------ ------- --------- ----------- requires<br>--------- -------- --- ------- -- ------- ---- -- ------<br>-- --- -------- -------- ---------- ---- ---- ---- ------<br>-- --------- -- ---- -- --- -- --- ------- -- - -----<br>---------- -- -- -- ---- ----- -- ------ -- --- ------<br>-------,265728.67,265721.36999999976,265142.263,265151.515,265158.929,265742.239,,7,requires
screen,html.Screen,1_3_1_0_1_8,2021-04-26T12:46:54.223Z,,,,,,,,,,,,,,,,48,,,,,,,,,,,,,,781.2359999999753,,response,,,,10,C,,,,,,Space,keypress(Space),,,,instrumental,,,,-- -- --- ------ ------- --------- ----------- --------<br>travelers -------- --- ------- -- ------- ---- -- ------<br>-- --- -------- -------- ---------- ---- ---- ---- ------<br>-- --------- -- ---- -- --- -- --- ------- -- - -----<br>---------- -- -- -- ---- ----- -- ------ -- --- ------<br>-------,266530.1749999999,266523.475,265725.573,265728.83,265742.239,266542.207,,8,travelers
screen,html.Screen,1_3_1_0_1_9,2021-04-26T12:46:55.380Z,,,,,,,,,,,,,,,,48,,,,,,,,,,,,,,1136.3029999997234,,response,,,,10,C,,,,,,Space,keypress(Space),,,,instrumental,,,,-- -- --- ------ ------- --------- ----------- --------<br>--------- entering --- ------- -- ------- ---- -- ------<br>-- --- -------- -------- ---------- ---- ---- ---- ------<br>-- --------- -- ---- -- --- -- --- ------- -- - -----<br>---------- -- -- -- ---- ----- -- ------ -- --- ------<br>-------,267686.51,267678.5099999997,266525.541,266530.3249999997,266542.207,267691.965,,9,entering
screen,html.Screen,1_3_1_0_1_10,2021-04-26T12:46:55.783Z,,,,,,,,,,,,,,,,48,,,,,,,,,,,,,,390.55999999976484,,response,,,,10,C,,,,,,Space,keypress(Space),,,,instrumental,,,,-- -- --- ------ ------- --------- ----------- --------<br>--------- -------- the ------- -- ------- ---- -- ------<br>-- --- -------- -------- ---------- ---- ---- ---- ------<br>-- --------- -- ---- -- --- -- --- ------- -- - -----<br>---------- -- -- -- ---- ----- -- ------ -- --- ------<br>-------,268090.13000000006,268082.5249999998,267675.299,267686.78,267691.965,268091.949,,10,the
screen,html.Screen,1_3_1_0_1_11,2021-04-26T12:46:56.207Z,,,,,,,,,,,,,,,,48,,,,,,,,,,,,,,413.4860000000335,,response,,,,10,C,,,,,,Space,keypress(Space),,,,instrumental,,,,-- -- --- ------ ------- --------- ----------- --------<br>--------- -------- --- country -- ------- ---- -- ------<br>-- --- -------- -------- ---------- ---- ---- ---- ------<br>-- --------- -- ---- -- --- -- --- ------- -- - -----<br>---------- -- -- -- ---- ----- -- ------ -- --- ------<br>-------,268513.75999999983,268505.43500000006,268075.283,268090.3599999997,268091.949,268525.265,,11,country
screen,html.Screen,1_3_1_0_1_12,2021-04-26T12:46:56.624Z,,,,,,,,,,,,,,,,48,,,,,,,,,,,,,,397.13000000006286,,response,,,,10,C,,,,,,Space,keypress(Space),,,,instrumental,,,,-- -- --- ------ ------- --------- ----------- --------<br>--------- -------- --- ------- to ------- ---- -- ------<br>-- --- -------- -------- ---------- ---- ---- ---- ------<br>-- --------- -- ---- -- --- -- --- ------- -- - -----<br>---------- -- -- -- ---- ----- -- ------ -- --- ------<br>-------,268930.39499999984,268922.3950000001,268508.599,268513.92499999976,268525.265,268941.915,,12,to
screen,html.Screen,1_3_1_0_1_13,2021-04-26T12:46:57.027Z,,,,,,,,,,,,,,,,48,,,,,,,,,,,,,,384.3550000000396,,response,,,,10,C,,,,,,Space,keypress(Space),,,,instrumental,,,,-- -- --- ------ ------- --------- ----------- --------<br>--------- -------- --- ------- -- declare ---- -- ------<br>-- --- -------- -------- ---------- ---- ---- ---- ------<br>-- --------- -- ---- -- --- -- --- ------- -- - -----<br>---------- -- -- -- ---- ----- -- ------ -- --- ------<br>-------,269334.31999999995,269326.27,268925.249,268930.55499999993,268941.915,269341.899,,13,declare
screen,html.Screen,1_3_1_0_1_14,2021-04-26T12:46:57.615Z,,,,,,,,,,,,,,,,48,,,,,,,,,,,,,,571.511000000115,,response,,,,10,C,,,,,,Space,keypress(Space),,,,instrumental,,,,-- -- --- ------ ------- --------- ----------- --------<br>--------- -------- --- ------- -- ------- cash -- ------<br>-- --- -------- -------- ---------- ---- ---- ---- ------<br>-- --------- -- ---- -- --- -- --- ------- -- - -----<br>---------- -- -- -- ---- ----- -- ------ -- --- ------<br>-------,269921.6499999998,269913.4100000001,269325.233,269334.48499999987,269341.899,269925.209,,14,cash
screen,html.Screen,1_3_1_0_1_15,2021-04-26T12:46:58.013Z,,,,,,,,,,,,,,,,48,,,,,,,,,,,,,,386.03599999990547,,response,,,,10,C,,,,,,Space,keypress(Space),,,,instrumental,,,,-- -- --- ------ ------- --------- ----------- --------<br>--------- -------- --- ------- -- ------- ---- in ------<br>-- --- -------- -------- ---------- ---- ---- ---- ------<br>-- --------- -- ---- -- --- -- --- ------- -- - -----<br>---------- -- -- -- ---- ----- -- ------ -- --- ------<br>-------,270319.4199999998,270311.2449999999,269908.543,269921.8099999998,269925.209,270325.193,,15,in
screen,html.Screen,1_3_1_0_1_16,2021-04-26T12:46:58.499Z,,,,,,,,,,,,,,,,48,,,,,,,,,,,,,,473.09199999982957,,response,,,,10,C,,,,,,Space,keypress(Space),,,,instrumental,,,,-- -- --- ------ ------- --------- ----------- --------<br>--------- -------- --- ------- -- ------- ---- -- excess<br>-- --- -------- -------- ---------- ---- ---- ---- ------<br>-- --------- -- ---- -- --- -- --- ------- -- - -----<br>---------- -- -- -- ---- ----- -- ------ -- --- ------<br>-------,270806.0399999999,270798.28499999986,270308.527,270319.72499999986,270325.193,270808.507,,16,excess
screen,html.Screen,1_3_1_0_1_17,2021-04-26T12:46:59.198Z,,,,,,,,,,,,,,,,48,,,,,,,,,,,,,,687.7329999999492,,response,,,,10,C,,,,,,Space,keypress(Space),,,,instrumental,,,,-- -- --- ------ ------- --------- ----------- --------<br>--------- -------- --- ------- -- ------- ---- -- ------<br>of --- -------- -------- ---------- ---- ---- ---- ------<br>-- --------- -- ---- -- --- -- --- ------- -- - -----<br>---------- -- -- -- ---- ----- -- ------ -- --- ------<br>-------,271504.61,271496.23999999993,270791.841,270806.2,270808.507,271508.479,,17,of
screen,html.Screen,1_3_1_0_1_18,2021-04-26T12:46:59.618Z,,,,,,,,,,,,,,,,48,,,,,,,,,,,,,,408.84599999990314,,response,,,,10,C,,,,,,Space,keypress(Space),,,,instrumental,,,,-- -- --- ------ ------- --------- ----------- --------<br>--------- -------- --- ------- -- ------- ---- -- ------<br>-- ten -------- -------- ---------- ---- ---- ---- ------<br>-- --------- -- ---- -- --- -- --- ------- -- - -----<br>---------- -- -- -- ---- ----- -- ------ -- --- ------<br>-------,271925.3249999997,271917.3249999999,271491.813,271504.7850000001,271508.479,271941.795,,18,ten
screen,html.Screen,1_3_1_0_1_19,2021-04-26T12:47:00.023Z,,,,,,,,,,,,,,,,48,,,,,,,,,,,,,,379.5299999999115,,response,,,,10,C,,,,,,Space,keypress(Space),,,,instrumental,,,,-- -- --- ------ ------- --------- ----------- --------<br>--------- -------- --- ------- -- ------- ---- -- ------<br>-- --- thousand -------- ---------- ---- ---- ---- ------<br>-- --------- -- ---- -- --- -- --- ------- -- - -----<br>---------- -- -- -- ---- ----- -- ------ -- --- ------<br>-------,272329.5949999997,272321.3249999999,271925.129,271925.4900000001,271941.795,272341.779,,19,thousand
screen,html.Screen,1_3_1_0_1_20,2021-04-26T12:47:00.485Z,,,,,,,,,,,,,,,,48,,,,,,,,,,,,,,441.4059999997844,,response,,,,10,C,,,,,,Space,keypress(Space),,,,instrumental,,,,-- -- --- ------ ------- --------- ----------- --------<br>--------- -------- --- ------- -- ------- ---- -- ------<br>-- --- -------- dollars. ---------- ---- ---- ---- ------<br>-- --------- -- ---- -- --- -- --- ------- -- - -----<br>---------- -- -- -- ---- ----- -- ------ -- --- ------<br>-------,272791.565,272783.18499999976,272325.113,272329.7549999998,272341.779,272808.427,,20,dollars.
screen,html.Screen,1_3_1_0_1_21,2021-04-26T12:47:01.644Z,,,,,,,,,,,,,,,,48,,,,,,,,,,,,,,1135.7229999997653,,response,,,,10,C,,,,,,Space,keypress(Space),,,,instrumental,,,,-- -- --- ------ ------- --------- ----------- --------<br>--------- -------- --- ------- -- ------- ---- -- ------<br>-- --- -------- -------- Concealing ---- ---- ---- ------<br>-- --------- -- ---- -- --- -- --- ------- -- - -----<br>---------- -- -- -- ---- ----- -- ------ -- --- ------<br>-------,273950.60999999987,273944.1499999998,272791.761,272791.745,272808.427,273958.381,,21,Concealing
screen,html.Screen,1_3_1_0_1_22,2021-04-26T12:47:03.406Z,,,,,,,,,,,,,,,,48,,,,,,,,,,,,,,1746.733999999764,,response,,,,10,C,,,,,,Space,keypress(Space),,,,instrumental,,,,-- -- --- ------ ------- --------- ----------- --------<br>--------- -------- --- ------- -- ------- ---- -- ------<br>-- --- -------- -------- ---------- more ---- ---- ------<br>-- --------- -- ---- -- --- -- --- ------- -- - -----<br>---------- -- -- -- ---- ----- -- ------ -- --- ------<br>-------,275713.03499999974,275705.11499999976,273941.715,273950.7749999998,273958.381,275724.977,,22,more
screen,html.Screen,1_3_1_0_1_23,2021-04-26T12:47:04.550Z,,,,,,,,,,,,,,,,48,,,,,,,,,,,,,,1123.2779999998747,,response,,,,10,C,,,,,,Space,keypress(Space),,,,instrumental,,,,-- -- --- ------ ------- --------- ----------- --------<br>--------- -------- --- ------- -- ------- ---- -- ------<br>-- --- -------- -------- ---------- ---- than ---- ------<br>-- --------- -- ---- -- --- -- --- ------- -- - -----<br>---------- -- -- -- ---- ----- -- ------ -- --- ------<br>-------,276856.7250000001,276848.2549999999,275708.311,275713.19499999983,275724.977,276858.265,,23,than
screen,html.Screen,1_3_1_0_1_24,2021-04-26T12:47:04.941Z,,,,,,,,,,,,,,,,48,,,,,,,,,,,,,,381.7349999997532,,response,,,,10,C,,,,,,Space,keypress(Space),,,,instrumental,,,,-- -- --- ------ ------- --------- ----------- --------<br>--------- -------- --- ------- -- ------- ---- -- ------<br>-- --- -------- -------- ---------- ---- ---- that ------<br>-- --------- -- ---- -- --- -- --- ------- -- - -----<br>---------- -- -- -- ---- ----- -- ------ -- --- ------<br>-------,277248.00499999995,277239.99999999977,276841.599,276856.8949999999,276858.265,277258.249,,24,that
screen,html.Screen,1_3_1_0_1_25,2021-04-26T12:47:05.544Z,,,,,,,,,,,,,,,,48,,,,,,,,,,,,,,584.8959999998333,,response,,,,10,C,,,,,,Space,keypress(Space),,,,instrumental,,,,-- -- --- ------ ------- --------- ----------- --------<br>--------- -------- --- ------- -- ------- ---- -- ------<br>-- --- -------- -------- ---------- ---- ---- ---- amount<br>-- --------- -- ---- -- --- -- --- ------- -- - -----<br>---------- -- -- -- ---- ----- -- ------ -- --- ------<br>-------,277850.91999999987,277843.14499999984,277241.583,277248.165,277258.249,277858.908,,25,amount
screen,html.Screen,1_3_1_0_1_26,2021-04-26T12:47:05.967Z,,,,,,,,,,,,,,,,48,,,,,,,,,,,,,,408.0669999999809,,response,,,,10,C,,,,,,Space,keypress(Space),,,,instrumental,,,,-- -- --- ------ ------- --------- ----------- --------<br>--------- -------- --- ------- -- ------- ---- -- ------<br>-- --- -------- -------- ---------- ---- ---- ---- ------<br>to --------- -- ---- -- --- -- --- ------- -- - -----<br>---------- -- -- -- ---- ----- -- ------ -- --- ------<br>-------,278274.6750000001,278266.975,277842.242,277851.0849999998,277858.908,278292.224,,26,to
screen,html.Screen,1_3_1_0_1_27,2021-04-26T12:47:06.412Z,,,,,,,,,,,,,,,,48,,,,,,,,,,,,,,417.85599999985425,,response,,,,10,C,,,,,,Space,keypress(Space),,,,instrumental,,,,-- -- --- ------ ------- --------- ----------- --------<br>--------- -------- --- ------- -- ------- ---- -- ------<br>-- --- -------- -------- ---------- ---- ---- ---- ------<br>-- transport -- ---- -- --- -- --- ------- -- - -----<br>---------- -- -- -- ---- ----- -- ------ -- --- ------<br>-------,278718.84,278710.07999999984,278275.558,278275.05999999994,278292.224,278725.54,,27,transport
screen,html.Screen,1_3_1_0_1_28,2021-04-26T12:47:06.876Z,,,,,,,,,,,,,,,,48,,,,,,,,,,,,,,449.56999999971595,,response,,,,10,C,,,,,,Space,keypress(Space),,,,instrumental,,,,-- -- --- ------ ------- --------- ----------- --------<br>--------- -------- --- ------- -- ------- ---- -- ------<br>-- --- -------- -------- ---------- ---- ---- ---- ------<br>-- --------- it ---- -- --- -- --- ------- -- - -----<br>---------- -- -- -- ---- ----- -- ------ -- --- ------<br>-------,279183.61999999976,279175.1099999997,278708.874,278719.01499999966,278725.54,279192.188,,28,it
screen,html.Screen,1_3_1_0_1_29,2021-04-26T12:47:07.262Z,,,,,,,,,,,,,,,,48,,,,,,,,,,,,,,367.9969999997993,,response,,,,10,C,,,,,,Space,keypress(Space),,,,instrumental,,,,-- -- --- ------ ------- --------- ----------- --------<br>--------- -------- --- ------- -- ------- ---- -- ------<br>-- --- -------- -------- ---------- ---- ---- ---- ------<br>-- --------- -- into -- --- -- --- ------- -- - -----<br>---------- -- -- -- ---- ----- -- ------ -- --- ------<br>-------,279568.87000000005,279560.1849999998,279175.522,279183.77999999985,279192.188,279575.506,,29,into
screen,html.Screen,1_3_1_0_1_30,2021-04-26T12:47:07.649Z,,,,,,,,,,,,,,,,48,,,,,,,,,,,,,,372.52899999992223,,response,,,,10,C,,,,,,Space,keypress(Space),,,,instrumental,,,,-- -- --- ------ ------- --------- ----------- --------<br>--------- -------- --- ------- -- ------- ---- -- ------<br>-- --- -------- -------- ---------- ---- ---- ---- ------<br>-- --------- -- ---- or --- -- --- ------- -- - -----<br>---------- -- -- -- ---- ----- -- ------ -- --- ------<br>-------,279956.0550000001,279948.0349999999,279558.84,279569.035,279575.506,279958.824,,30,or
screen,html.Screen,1_3_1_0_1_31,2021-04-26T12:47:08.295Z,,,,,,,,,,,,,,,,48,,,,,,,,,,,,,,636.0809999998892,,response,,,,10,C,,,,,,Space,keypress(Space),,,,instrumental,,,,-- -- --- ------ ------- --------- ----------- --------<br>--------- -------- --- ------- -- ------- ---- -- ------<br>-- --- -------- -------- ---------- ---- ---- ---- ------<br>-- --------- -- ---- -- out -- --- ------- -- - -----<br>---------- -- -- -- ---- ----- -- ------ -- --- ------<br>-------,280602.71000000014,280594.9049999999,279942.158,279956.22000000003,279958.824,280608.798,,31,out
screen,html.Screen,1_3_1_0_1_32,2021-04-26T12:47:08.868Z,,,,,,,,,,,,,,,,48,,,,,,,,,,,,,,559.2069999999949,,response,,,,10,C,,,,,,Space,keypress(Space),,,,instrumental,,,,-- -- --- ------ ------- --------- ----------- --------<br>--------- -------- --- ------- -- ------- ---- -- ------<br>-- --- -------- -------- ---------- ---- ---- ---- ------<br>-- --------- -- ---- -- --- of --- ------- -- - -----<br>---------- -- -- -- ---- ----- -- ------ -- --- ------<br>-------,281175.6499999997,281168.005,280592.132,280602.8699999997,280608.798,281192.108,,32,of
screen,html.Screen,1_3_1_0_1_33,2021-04-26T12:47:09.538Z,,,,,,,,,,,,,,,,48,,,,,,,,,,,,,,644.9420000000973,,response,,,,10,C,,,,,,Space,keypress(Space),,,,instrumental,,,,-- -- --- ------ ------- --------- ----------- --------<br>--------- -------- --- ------- -- ------- ---- -- ------<br>-- --- -------- -------- ---------- ---- ---- ---- ------<br>-- --------- -- ---- -- --- -- the ------- -- - -----<br>---------- -- -- -- ---- ----- -- ------ -- --- ------<br>-------,281845.55,281837.0500000001,281175.442,281175.8099999997,281192.108,281858.748,,33,the
screen,html.Screen,1_3_1_0_1_34,2021-04-26T12:47:10.079Z,,,,,,,,,,,,,,,,48,,,,,,,,,,,,,,520.2519999998622,,response,,,,10,C,,,,,,Space,keypress(Space),,,,instrumental,,,,-- -- --- ------ ------- --------- ----------- --------<br>--------- -------- --- ------- -- ------- ---- -- ------<br>-- --- -------- -------- ---------- ---- ---- ---- ------<br>-- --------- -- ---- -- --- -- --- country -- - -----<br>---------- -- -- -- ---- ----- -- ------ -- --- ------<br>-------,282386.7,282378.9999999999,281842.082,281845.7100000001,281858.748,282392.06,,34,country
screen,html.Screen,1_3_1_0_1_35,2021-04-26T12:47:10.652Z,,,,,,,,,,,,,,,,48,,,,,,,,,,,,,,558.9999999998836,,response,,,,10,C,,,,,,Space,keypress(Space),,,,instrumental,,,,-- -- --- ------ ------- --------- ----------- --------<br>--------- -------- --- ------- -- ------- ---- -- ------<br>-- --- -------- -------- ---------- ---- ---- ---- ------<br>-- --------- -- ---- -- --- -- --- ------- is - -----<br>---------- -- -- -- ---- ----- -- ------ -- --- ------<br>-------,282959.9049999997,282951.0599999999,282375.394,282387.07999999996,282392.06,282975.37,,35,is
screen,html.Screen,1_3_1_0_1_36,2021-04-26T12:47:11.031Z,,,,,,,,,,,,,,,,48,,,,,,,,,,,,,,354.71999999991385,,response,,,,10,C,,,,,,Space,keypress(Space),,,,instrumental,,,,-- -- --- ------ ------- --------- ----------- --------<br>--------- -------- --- ------- -- ------- ---- -- ------<br>-- --- -------- -------- ---------- ---- ---- ---- ------<br>-- --------- -- ---- -- --- -- --- ------- -- a -----<br>---------- -- -- -- ---- ----- -- ------ -- --- ------<br>-------,283338.17999999976,283330.0899999999,282958.704,282960.07000000007,282975.37,283342.022,,36,a
screen,html.Screen,1_3_1_0_1_37,2021-04-26T12:47:11.421Z,,,,,,,,,,,,,,,,48,,,,,,,,,,,,,,378.86800000007497,,response,,,,10,C,,,,,,Space,keypress(Space),,,,instrumental,,,,-- -- --- ------ ------- --------- ----------- --------<br>--------- -------- --- ------- -- ------- ---- -- ------<br>-- --- -------- -------- ---------- ---- ---- ---- ------<br>-- --------- -- ---- -- --- -- --- ------- -- - crime<br>---------- -- -- -- ---- ----- -- ------ -- --- ------<br>-------,283728.85499999986,283720.8900000001,283325.356,283338.3399999998,283342.022,283742.006,,37,crime
screen,html.Screen,1_3_1_0_1_38,2021-04-26T12:47:12.057Z,,,,,,,,,,,,,,,,48,,,,,,,,,,,,,,614.0239999999176,,response,,,,10,C,,,,,,Space,keypress(Space),,,,instrumental,,,,-- -- --- ------ ------- --------- ----------- --------<br>--------- -------- --- ------- -- ------- ---- -- ------<br>-- --- -------- -------- ---------- ---- ---- ---- ------<br>-- --------- -- ---- -- --- -- --- ------- -- - -----<br>punishable -- -- -- ---- ----- -- ------ -- --- ------<br>-------,284364.08499999973,284356.0299999999,283725.34,283729.065,283742.006,284375.314,,38,punishable
screen,html.Screen,1_3_1_0_1_39,2021-04-26T12:47:12.535Z,,,,,,,,,,,,,,,,48,,,,,,,,,,,,,,459.6009999999078,,response,,,,10,C,,,,,,Space,keypress(Space),,,,instrumental,,,,-- -- --- ------ ------- --------- ----------- --------<br>--------- -------- --- ------- -- ------- ---- -- ------<br>-- --- -------- -------- ---------- ---- ---- ---- ------<br>-- --------- -- ---- -- --- -- --- ------- -- - -----<br>---------- by -- -- ---- ----- -- ------ -- --- ------<br>-------,284842.8949999998,284834.9149999999,284358.648,284364.24499999976,284375.314,284858.628,,39,by
screen,html.Screen,1_3_1_0_1_40,2021-04-26T12:47:13.065Z,,,,,,,,,,,,,,,,48,,,,,,,,,,,,,,506.31199999991804,,response,,,,10,C,,,,,,Space,keypress(Space),,,,instrumental,,,,-- -- --- ------ ------- --------- ----------- --------<br>--------- -------- --- ------- -- ------- ---- -- ------<br>-- --- -------- -------- ---------- ---- ---- ---- ------<br>-- --------- -- ---- -- --- -- --- ------- -- - -----<br>---------- -- up -- ---- ----- -- ------ -- --- ------<br>-------,285372.6349999997,285364.93999999994,284841.962,284843.0549999998,284858.628,285375.274,,40,up
screen,html.Screen,1_3_1_0_1_41,2021-04-26T12:47:13.463Z,,,,,,,,,,,,,,,,48,,,,,,,,,,,,,,387.6559999999008,,response,,,,10,C,,,,,,Space,keypress(Space),,,,instrumental,,,,-- -- --- ------ ------- --------- ----------- --------<br>--------- -------- --- ------- -- ------- ---- -- ------<br>-- --- -------- -------- ---------- ---- ---- ---- ------<br>-- --------- -- ---- -- --- -- --- ------- -- - -----<br>---------- -- -- to ---- ----- -- ------ -- --- ------<br>-------,285770.44999999995,285762.9299999999,285358.608,285372.79499999975,285375.274,285775.258,,41,to
