sender,sender_type,sender_id,timestamp,meta,,Blues,Classical,Country,Dance,Electronic,Folk,Gospel,Hip-Hop,Jazz,Latin,Musical/Film,New-age,Pop,Provo_ID,R&B,Rap,Reggae,Religious,Rock,Soul,Swing,Traditional,age,artist_name,correct,correctResponse,distraction,duration,education,ended_on,familiarity,gender,headphone_check_performance,item,list,music_frequency,offensiveness,pleasantness,position_correct,preference,response,response_action,snippet_file,song_name,song_rating,sound,stimulus_1,stimulus_2,stimulus_3,text,time_commit,time_end,time_render,time_run,time_show,time_switch,url,word,word_ID
Introduction,html.Screen,0_0,2021-04-11T09:10:54.196Z,"{""labjs_version"":""20.2.2"",""labjs_build"":{""flavor"":""production"",""commit"":""a25486e0c714a0ae2ce03ff94b7bb6896854dcfa""},""location"":""https://run.pavlovia.org/mvasilev/music_a/"",""userAgent"":""Mozilla/5.0 (Windows NT 10.0; Win64; x64) AppleWebKit/537.36 (KHTML, like Gecko) Chrome/89.0.4389.114 Safari/537.36"",""platform"":""Win32"",""language"":""pl-PL"",""locale"":""en-GB"",""timeZone"":""Europe/London"",""timezoneOffset"":-60,""screen_width"":1280,""screen_height"":720,""scroll_width"":1280,""scroll_height"":578,""window_innerWidth"":1280,""window_innerHeight"":578,""devicePixelRatio"":1.5}",,,,,,,,,,,,,,,,,,,,,,,,,,,,,3093.985999972805,,response,,,,,,,,,,,continue,click button,,,,,,,,,7605.6649999227375,7602.674999972805,4492.036,4495.2049999265,4508.689,7608.28,{},,
Volume calibration,html.Screen,0_1,2021-04-11T09:10:57.397Z,,,,,,,,,,,,,,,,,,,,,,,,,,,,,,3192.2099999359625,,response,,,,,,,,,,,continue,click button,,,,,,,,,10805.964999948628,10800.489999935962,7591.677,7606.230000033975,7608.28,10807.924,,,
Task instructions,html.Screen,0_2,2021-04-11T09:10:58.187Z,,,,,,,,,,,,,,,,,,,,,,,,,,,,,,786.5109999772376,,response,,,,,,,,,,,continue,click button,,,,,,,,,11596.149999997579,11594.434999977238,10791.37,10806.284999940544,10807.924,11607.816,,,
Sounds,html.Screen,0_3_0_0,2021-04-11T09:11:02.436Z,,,,,,,,,,,,,,,,,,,,,,,,,,,,,,4249.374,,timeout,,,,,,,,,3,,,,,,,,I,O,S,,15845.314999925904,15840.867,11591.527,11596.49000002537,11607.816,15857.19,,,
Judgement,html.Screen,0_3_0_1,2021-04-11T09:11:03.285Z,,,,,,,,,,,,,,,,,,,,,,,,,,,true,3,,835.559999929219,,response,,,,,,,,,3,,3,click #choice-3,,,,,I,O,S,,16694.565000012517,16692.74999992922,15840.867,15845.585000002757,15857.19,16707.262,,,
Trial,flow.Sequence,0_3_0,2021-04-11T09:11:03.286Z,,,,,,,,,,,,,,,,,,,,,,,,,,,,,,5084.933999929219,,completion,,,,,,,,,3,,,,,,,,I,O,S,,16695.21000003442,16692.74999992922,11591.527,11596.409999998286,11607.816,16707.262,,,
Sounds,html.Screen,0_3_1_0,2021-04-11T09:11:07.533Z,,,,,,,,,,,,,,,,,,,,,,,,,,,,,,4249.4490000000005,,timeout,,,,,,,,,1,,,,,,,,S,O,I,,20941.744999960065,20940.336,16690.587,16695.47000003513,16707.262,20956.711,,,
Judgement,html.Screen,0_3_1_1,2021-04-11T09:11:08.275Z,,,,,,,,,,,,,,,,,,,,,,,,,,,true,1,,725.9539999711669,,response,,,,,,,,,1,,1,click #choice-1,,,,,S,O,I,,21684.49499993585,21682.664999971166,20940.336,20942.03000003472,20956.711,21689.858,,,
Trial,flow.Sequence,0_3_1,2021-04-11T09:11:08.276Z,,,,,,,,,,,,,,,,,,,,,,,,,,,,,,4975.402999971167,,completion,,,,,,,,,1,,,,,,,,S,O,I,,21684.905000030994,21682.664999971166,16690.587,16695.394999929704,16707.262,21689.858,,,
Sounds,html.Screen,0_3_2_0,2021-04-11T09:11:12.515Z,,,,,,,,,,,,,,,,,,,,,,,,,,,,,,4249.542000000001,,timeout,,,,,,,,,2,,,,,,,,I,S,O,,25924.08999998588,25922.707,21673.41,21685.1500000339,21689.858,25939.4,,,
Judgement,html.Screen,0_3_2_1,2021-04-11T09:11:13.091Z,,,,,,,,,,,,,,,,,,,,,,,,,,,false,2,,559.2449999269083,,response,,,,,,,,,2,,3,click #choice-3,,,,,I,S,O,,26500.14499993995,26498.64499992691,25922.707,25924.36499998439,25939.4,26505.932,,,
Trial,flow.Sequence,0_3_2,2021-04-11T09:11:13.091Z,,,,,,,,,,,,,,,,,,,,,,,,,,,,,,4808.78699992691,,completion,,,,,,,,,2,,,,,,,,I,S,O,,26500.439999974333,26498.64499992691,21673.41,21685.074999928474,21689.858,26505.932,,,
Sounds,html.Screen,0_3_3_0,2021-04-11T09:11:17.331Z,,,,,,,,,,,,,,,,,,,,,,,,,,,,,,4249.808000000001,,timeout,,,,,,,,,1,,,,,,,,S,I,O,,30739.784999983385,30738.712,26489.319,26500.63499994576,26505.932,30755.74,,,
Judgement,html.Screen,0_3_3_1,2021-04-11T09:11:17.964Z,,,,,,,,,,,,,,,,,,,,,,,,,,,true,1,,615.4349999783917,,response,,,,,,,,,1,,1,click #choice-1,,,,,S,I,O,,31372.94999998994,31371.174999978393,30738.712,30739.975000033155,30755.74,31405.538,,,
Trial,flow.Sequence,0_3_3,2021-04-11T09:11:17.964Z,,,,,,,,,,,,,,,,,,,,,,,,,,,,,,4865.242999978393,,completion,,,,,,,,,1,,,,,,,,S,I,O,,31373.529999982566,31371.174999978393,26489.319,26500.564999994822,26505.932,31405.538,,,
Sounds,html.Screen,0_3_4_0,2021-04-11T09:11:22.230Z,,,,,,,,,,,,,,,,,,,,,,,,,,,,,,4249.220999999998,,timeout,,,,,,,,,3,,,,,,,,O,I,S,,35639.65499994811,35638.434,31388.799,31373.754999949597,31405.538,35654.759,,,
Judgement,html.Screen,0_3_4_1,2021-04-11T09:11:23.420Z,,,,,,,,,,,,,,,,,,,,,,,,,,,true,3,,1173.1309999568257,,response,,,,,,,,,3,,3,click #choice-3,,,,,O,I,S,,36829.18499992229,36827.889999956824,35638.434,35639.85999999568,35654.759,36837.907,,,
Trial,flow.Sequence,0_3_4,2021-04-11T09:11:23.420Z,,,,,,,,,,,,,,,,,,,,,,,,,,,,,,5422.351999956823,,completion,,,,,,,,,3,,,,,,,,O,I,S,,36829.50500003062,36827.889999956824,31388.799,31373.69499995839,31405.538,36837.907,,,
Sounds,html.Screen,0_3_5_0,2021-04-11T09:11:27.663Z,,,,,,,,,,,,,,,,,,,,,,,,,,,,,,4249.364000000001,,timeout,,,,,,,,,2,,,,,,,,O,S,I,,41072.41999998223,41071.062,36821.376,36829.69499996398,36837.907,41087.271,,,
Judgement,html.Screen,0_3_5_1,2021-04-11T09:11:28.316Z,,,,,,,,,,,,,,,,,,,,,,,,,,,true,2,,636.2089999278032,,response,,,,,,,,,2,,2,click #choice-2,,,,,O,S,I,,41724.99000001699,41723.479999927804,41071.062,41072.65999994706,41087.271,41737.293,,,
Trial,flow.Sequence,0_3_5,2021-04-11T09:11:28.316Z,,,,,,,,,,,,,,,,,,,,,,,,,,,,,,4885.572999927805,,completion,,,,,,,,,2,,,,,,,,O,S,I,,41725.269999937154,41723.479999927804,36821.376,36829.63499997277,36837.907,41737.293,,,
Task,flow.Loop,0_3,2021-04-11T09:11:28.322Z,,,,,,,,,,,,,,,,,,,,,,,,,,,,,,30115.663999927805,,completion,,,0.8333333333333334,,,,,,,,,,,,,,,,,,41731.49999999441,41723.479999927804,11591.527,11596.339999930933,11607.816,41737.293,,,
Trap,html.Screen,0_4,2021-04-11T09:11:28.324Z,,,,,,,,,,,,,,,,,,,,,,,,,,,,,,NaN,,skipped,,,,,,,,,,,,,,,,,,,,,41733.44999994151,41723.479999927804,,41733.19499997888,,41737.293,,,
Thanks,html.Screen,0_5,2021-04-11T09:11:31.500Z,,,,,,,,,,,,,,,,,,,,,,,,,,,,,,3171.001999971988,,response,,,,,,,,,,,continue,click button,,,,,,,,,44909.92000000551,44908.294999971986,41721.123,41733.66000002716,41737.293,48686.345,,,
Headphone screening,flow.Sequence,0,2021-04-11T09:11:31.501Z,,,,,,,,,,,,,,,,,,,,,,,,,,,,,,40399.60599997199,,completion,,,,,,,,,,,,,,,,,,,,,44910.21499992348,44908.294999971986,4492.036,4495.179999968968,4508.689,48686.345,,,
Instructions,html.Page,1_0,2021-04-11T09:11:43.245Z,,,,,,,,,,,,,,,,,,,,,,,,,,,,,,7967.454999970942,,form submission,,,,,,,,,,,,,,,,,,,,,56654.17500003241,56653.79999997094,48669.687,48680.15000002924,48686.345,56651.987,,,
Holding screen,html.Screen,1_1_0_0,2021-04-11T09:11:53.234Z,,,,,,,,,,,,,,,,,,,,,,,,,,,,,,10015.382000000005,,timeout,,,,,,,,,,,,,,,,,,,,,66643.47999996971,66634.042,56635.744,56654.564999975264,56651.987,66667.369,,,
screen,html.Screen,1_1_0_1_0,2021-04-11T09:11:55.368Z,,,,,,,,,,,,,,,,53,,,,,,,,,,,,,,2106.08099997876,,response,,,,99,,,,,,,Space,keypress(Space),,,,,,,,When -- ----- -- ------ - ------- --- ----------<br>------------- ------ ------ ---- ---- ------- ----- -- ----<br>-------- ------- -- ---------- --- - --- ----- ----- ----<br>---- --- --- ----- --- ---- ---- ------- ----- ---- -------<br>--- --- -- ----- -- --- ---- -- --- ---- -- ------ ------<br>--- ----- -- ----,68777.08000002895,68773.44999997877,66634.042,66643.90000002459,66667.369,68783.85,,0,When
screen,html.Screen,1_1_0_1_1,2021-04-11T09:11:56.059Z,,,,,,,,,,,,,,,,53,,,,,,,,,,,,,,683.9149999502988,,response,,,,99,,,,,,,Space,keypress(Space),,,,,,,,---- it ----- -- ------ - ------- --- ----------<br>------------- ------ ------ ---- ---- ------- ----- -- ----<br>-------- ------- -- ---------- --- - --- ----- ----- ----<br>---- --- --- ----- --- ---- ---- ------- ----- ---- -------<br>--- --- -- ----- -- --- ---- -- --- ---- -- ------ ------<br>--- ----- -- ----,69468.67999993265,69467.7649999503,68767.334,68777.28999999817,68783.85,69483.758,,1,it
screen,html.Screen,1_1_0_1_2,2021-04-11T09:11:56.827Z,,,,,,,,,,,,,,,,53,,,,,,,,,,,,,,751.6420000050275,,response,,,,99,,,,,,,Space,keypress(Space),,,,,,,,---- -- comes -- ------ - ------- --- ----------<br>------------- ------ ------ ---- ---- ------- ----- -- ----<br>-------- ------- -- ---------- --- - --- ----- ----- ----<br>---- --- --- ----- --- ---- ---- ------- ----- ---- -------<br>--- --- -- ----- -- --- ---- -- --- ---- -- ------ ------<br>--- ----- -- ----,70236.38499993831,70235.40000000503,69467.228,69468.86499994434,69483.758,70250.534,,2,comes
screen,html.Screen,1_1_0_1_3,2021-04-11T09:11:57.540Z,,,,,,,,,,,,,,,,53,,,,,,,,,,,,,,698.6559999557066,,response,,,,99,,,,,,,Space,keypress(Space),,,,,,,,---- -- ----- to ------ - ------- --- ----------<br>------------- ------ ------ ---- ---- ------- ----- -- ----<br>-------- ------- -- ---------- --- - --- ----- ----- ----<br>---- --- --- ----- --- ---- ---- ------- ----- ---- -------<br>--- --- -- ----- -- --- ---- -- --- ---- -- ------ ------<br>--- ----- -- ----,70949.79999994393,70949.1899999557,70233.933,70236.57499998808,70250.534,70966.833,,3,to
screen,html.Screen,1_1_0_1_4,2021-04-11T09:11:58.243Z,,,,,,,,,,,,,,,,53,,,,,,,,,,,,,,685.1370000062598,,response,,,,99,,,,,,,Space,keypress(Space),,,,,,,,---- -- ----- -- having - ------- --- ----------<br>------------- ------ ------ ---- ---- ------- ----- -- ----<br>-------- ------- -- ---------- --- - --- ----- ----- ----<br>---- --- --- ----- --- ---- ---- ------- ----- ---- -------<br>--- --- -- ----- -- --- ---- -- --- ---- -- ------ ------<br>--- ----- -- ----,71652.93500002008,71651.97000000626,70950.115,70949.98499995563,70966.833,71667.107,,4,having
screen,html.Screen,1_1_0_1_5,2021-04-11T09:11:58.886Z,,,,,,,,,,,,,,,,53,,,,,,,,,,,,,,627.8880000038334,,response,,,,99,,,,,,,Space,keypress(Space),,,,,,,,---- -- ----- -- ------ a ------- --- ----------<br>------------- ------ ------ ---- ---- ------- ----- -- ----<br>-------- ------- -- ---------- --- - --- ----- ----- ----<br>---- --- --- ----- --- ---- ---- ------- ----- ---- -------<br>--- --- -- ----- -- --- ---- -- --- ---- -- ------ ------<br>--- ----- -- ----,72295.4599999357,72294.99500000384,71650.078,71653.13999995124,71667.107,72299.954,,5,a
screen,html.Screen,1_1_0_1_6,2021-04-11T09:11:59.953Z,,,,,,,,,,,,,,,,53,,,,,,,,,,,,,,1061.3360000298417,,response,,,,99,,,,,,,Space,keypress(Space),,,,,,,,---- -- ----- -- ------ - lasting --- ----------<br>------------- ------ ------ ---- ---- ------- ----- -- ----<br>-------- ------- -- ---------- --- - --- ----- ----- ----<br>---- --- --- ----- --- ---- ---- ------- ----- ---- -------<br>--- --- -- ----- -- --- ---- -- --- ---- -- ------ ------<br>--- ----- -- ----,73362.1249999851,73361.29000002984,72283.681,72295.57499999646,72299.954,73366.51,,6,lasting
screen,html.Screen,1_1_0_1_7,2021-04-11T09:12:00.651Z,,,,,,,,,,,,,,,,53,,,,,,,,,,,,,,692.9950000120007,,response,,,,99,,,,,,,Space,keypress(Space),,,,,,,,---- -- ----- -- ------ - ------- and ----------<br>------------- ------ ------ ---- ---- ------- ----- -- ----<br>-------- ------- -- ---------- --- - --- ----- ----- ----<br>---- --- --- ----- --- ---- ---- ------- ----- ---- -------<br>--- --- -- ----- -- --- ---- -- --- ---- -- ------ ------<br>--- ----- -- ----,74060.45500002801,74059.505000012,73349.758,73362.3249999946,73366.51,74066.428,,7,and
screen,html.Screen,1_1_0_1_8,2021-04-11T09:12:01.346Z,,,,,,,,,,,,,,,,53,,,,,,,,,,,,,,688.3319999234081,,response,,,,99,,,,,,,Space,keypress(Space),,,,,,,,---- -- ----- -- ------ - ------- --- fulfilling<br>------------- ------ ------ ---- ---- ------- ----- -- ----<br>-------- ------- -- ---------- --- - --- ----- ----- ----<br>---- --- --- ----- --- ---- ---- ------- ----- ---- -------<br>--- --- -- ----- -- --- ---- -- --- ---- -- ------ ------<br>--- ----- -- ----,74755.7149999775,74754.75999992341,74049.992,74060.64999999944,74066.428,74766.552,,8,fulfilling
screen,html.Screen,1_1_0_1_9,2021-04-11T09:12:02.139Z,,,,,,,,,,,,,,,,53,,,,,,,,,,,,,,781.6179999654705,,response,,,,99,,,,,,,Space,keypress(Space),,,,,,,,"---- -- ----- -- ------ - ------- --- ----------<br>relationship, ------ ------ ---- ---- ------- ----- -- ----<br>-------- ------- -- ---------- --- - --- ----- ----- ----<br>---- --- --- ----- --- ---- ---- ------- ----- ---- -------<br>--- --- -- ----- -- --- ---- -- --- ---- -- ------ ------<br>--- ----- -- ----",75548.98500000127,75548.16999996547,74749.94,74755.92000002507,74766.552,75566.562,,9,"relationship,"
screen,html.Screen,1_1_0_1_10,2021-04-11T09:12:02.856Z,,,,,,,,,,,,,,,,53,,,,,,,,,,,,,,698.2829999978712,,response,,,,99,,,,,,,Space,keypress(Space),,,,,,,,---- -- ----- -- ------ - ------- --- ----------<br>------------- common ------ ---- ---- ------- ----- -- ----<br>-------- ------- -- ---------- --- - --- ----- ----- ----<br>---- --- --- ----- --- ---- ---- ------- ----- ---- -------<br>--- --- -- ----- -- --- ---- -- --- ---- -- ------ ------<br>--- ----- -- ----,76265.67999995314,76264.84499999788,75549.551,75549.17499993462,75566.562,76283.183,,10,common
screen,html.Screen,1_1_0_1_11,2021-04-11T09:12:03.428Z,,,,,,,,,,,,,,,,53,,,,,,,,,,,,,,553.3569999311148,,response,,,,99,,,,,,,Space,keypress(Space),,,,,,,,---- -- ----- -- ------ - ------- --- ----------<br>------------- ------ wisdom ---- ---- ------- ----- -- ----<br>-------- ------- -- ---------- --- - --- ----- ----- ----<br>---- --- --- ----- --- ---- ---- ------- ----- ---- -------<br>--- --- -- ----- -- --- ---- -- --- ---- -- ------ ------<br>--- ----- -- ----,76837.45999995153,76836.53999993112,76266.148,76265.8700000029,76283.183,76849.783,,11,wisdom
screen,html.Screen,1_1_0_1_12,2021-04-11T09:12:04.058Z,,,,,,,,,,,,,,,,53,,,,,,,,,,,,,,616.5419999284786,,response,,,,99,,,,,,,Space,keypress(Space),,,,,,,,---- -- ----- -- ------ - ------- --- ----------<br>------------- ------ ------ says ---- ------- ----- -- ----<br>-------- ------- -- ---------- --- - --- ----- ----- ----<br>---- --- --- ----- --- ---- ---- ------- ----- ---- -------<br>--- --- -- ----- -- --- ---- -- --- ---- -- ------ ------<br>--- ----- -- ----,77467.18000003602,77466.32499992847,76833.09,76837.6649999991,76849.783,77482.972,,12,says
screen,html.Screen,1_1_0_1_13,2021-04-11T09:12:04.809Z,,,,,,,,,,,,,,,,53,,,,,,,,,,,,,,734.7379999971745,,response,,,,99,,,,,,,Space,keypress(Space),,,,,,,,---- -- ----- -- ------ - ------- --- ----------<br>------------- ------ ------ ---- that ------- ----- -- ----<br>-------- ------- -- ---------- --- - --- ----- ----- ----<br>---- --- --- ----- --- ---- ---- ------- ----- ---- -------<br>--- --- -- ----- -- --- ---- -- --- ---- -- ------ ------<br>--- ----- -- ----,78218.58999994583,78217.70999999717,77466.351,77467.37999992911,77482.972,78232.933,,13,that
screen,html.Screen,1_1_0_1_14,2021-04-11T09:12:05.428Z,,,,,,,,,,,,,,,,53,,,,,,,,,,,,,,604.0219999479159,,response,,,,99,,,,,,,Space,keypress(Space),,,,,,,,---- -- ----- -- ------ - ------- --- ----------<br>------------- ------ ------ ---- ---- feeling ----- -- ----<br>-------- ------- -- ---------- --- - --- ----- ----- ----<br>---- --- --- ----- --- ---- ---- ------- ----- ---- -------<br>--- --- -- ----- -- --- ---- -- --- ---- -- ------ ------<br>--- ----- -- ----,78837.82999997493,78836.95499994792,78216.246,78218.80499995314,78232.933,78849.447,,14,feeling
screen,html.Screen,1_1_0_1_15,2021-04-11T09:12:06.028Z,,,,,,,,,,,,,,,,53,,,,,,,,,,,,,,586.9530000059603,,response,,,,99,,,,,,,Space,keypress(Space),,,,,,,,---- -- ----- -- ------ - ------- --- ----------<br>------------- ------ ------ ---- ---- ------- close -- ----<br>-------- ------- -- ---------- --- - --- ----- ----- ----<br>---- --- --- ----- --- ---- ---- ------- ----- ---- -------<br>--- --- -- ----- -- --- ---- -- --- ---- -- ------ ------<br>--- ----- -- ----,79437.21000000369,79436.40000000596,78832.838,78838.0350000225,78849.447,79449.441,,15,close
screen,html.Screen,1_1_0_1_16,2021-04-11T09:12:06.553Z,,,,,,,,,,,,,,,,53,,,,,,,,,,,,,,512.6539999662054,,response,,,,99,,,,,,,Space,keypress(Space),,,,,,,,---- -- ----- -- ------ - ------- --- ----------<br>------------- ------ ------ ---- ---- ------- ----- to ----<br>-------- ------- -- ---------- --- - --- ----- ----- ----<br>---- --- --- ----- --- ---- ---- ------- ----- ---- -------<br>--- --- -- ----- -- --- ---- -- --- ---- -- ------ ------<br>--- ----- -- ----,79962.94999995735,79962.09499996621,79432.749,79437.39999993704,79449.441,79965.625,,16,to
screen,html.Screen,1_1_0_1_17,2021-04-11T09:12:07.048Z,,,,,,,,,,,,,,,,53,,,,,,,,,,,,,,490.9900000318885,,response,,,,99,,,,,,,Space,keypress(Space),,,,,,,,---- -- ----- -- ------ - ------- --- ----------<br>------------- ------ ------ ---- ---- ------- ----- -- your<br>-------- ------- -- ---------- --- - --- ----- ----- ----<br>---- --- --- ----- --- ---- ---- ------- ----- ---- -------<br>--- --- -- ----- -- --- ---- -- --- ---- -- ------ ------<br>--- ----- -- ----,80457.51500001643,80456.61500003189,79949.364,79963.18999992218,79965.625,80466.03,,17,your
screen,html.Screen,1_1_0_1_18,2021-04-11T09:12:07.714Z,,,,,,,,,,,,,,,,53,,,,,,,,,,,,,,656.8999999540683,,response,,,,99,,,,,,,Space,keypress(Space),,,,,,,,---- -- ----- -- ------ - ------- --- ----------<br>------------- ------ ------ ---- ---- ------- ----- -- ----<br>romantic ------- -- ---------- --- - --- ----- ----- ----<br>---- --- --- ----- --- ---- ---- ------- ----- ---- -------<br>--- --- -- ----- -- --- ---- -- --- ---- -- ------ ------<br>--- ----- -- ----,81123.78000002354,81122.92999995407,80449.173,80457.72499998566,80466.03,81132.547,,18,romantic
screen,html.Screen,1_1_0_1_19,2021-04-11T09:12:08.237Z,,,,,,,,,,,,,,,,53,,,,,,,,,,,,,,513.0480000090465,,response,,,,99,,,,,,,Space,keypress(Space),,,,,,,,---- -- ----- -- ------ - ------- --- ----------<br>------------- ------ ------ ---- ---- ------- ----- -- ----<br>-------- partner -- ---------- --- - --- ----- ----- ----<br>---- --- --- ----- --- ---- ---- ------- ----- ---- -------<br>--- --- -- ----- -- --- ---- -- --- ---- -- ------ ------<br>--- ----- -- ----,81646.46499999799,81645.59500000905,81115.873,81123.9849999547,81132.547,81648.695,,19,partner
screen,html.Screen,1_1_0_1_20,2021-04-11T09:12:08.692Z,,,,,,,,,,,,,,,,53,,,,,,,,,,,,,,452.23499995685415,,response,,,,99,,,,,,,Space,keypress(Space),,,,,,,,---- -- ----- -- ------ - ------- --- ----------<br>------------- ------ ------ ---- ---- ------- ----- -- ----<br>-------- ------- is ---------- --- - --- ----- ----- ----<br>---- --- --- ----- --- ---- ---- ------- ----- ---- -------<br>--- --- -- ----- -- --- ---- -- --- ---- -- ------ ------<br>--- ----- -- ----,82101.784999948,82100.92999995686,81632.475,81646.68000000529,81648.695,82115.839,,20,is
screen,html.Screen,1_1_0_1_21,2021-04-11T09:12:09.511Z,,,,,,,,,,,,,,,,53,,,,,,,,,,,,,,803.4059999973106,,response,,,,99,,,,,,,Space,keypress(Space),,,,,,,,---- -- ----- -- ------ - ------- --- ----------<br>------------- ------ ------ ---- ---- ------- ----- -- ----<br>-------- ------- -- paramount. --- - --- ----- ----- ----<br>---- --- --- ----- --- ---- ---- ------- ----- ---- -------<br>--- --- -- ----- -- --- ---- -- --- ---- -- ------ ------<br>--- ----- -- ----,82920.16500001773,82919.24499999732,82098.974,82101.9849999575,82115.839,82932.266,,21,paramount.
screen,html.Screen,1_1_0_1_22,2021-04-11T09:12:10.362Z,,,,,,,,,,,,,,,,53,,,,,,,,,,,,,,838.1640000332263,,response,,,,99,,,,,,,Space,keypress(Space),,,,,,,,---- -- ----- -- ------ - ------- --- ----------<br>------------- ------ ------ ---- ---- ------- ----- -- ----<br>-------- ------- -- ---------- But - --- ----- ----- ----<br>---- --- --- ----- --- ---- ---- ------- ----- ---- -------<br>--- --- -- ----- -- --- ---- -- --- ---- -- ------ ------<br>--- ----- -- ----,83771.3099999819,83770.43000003323,82915.198,82920.36500002723,82932.266,83782.211,,22,But
screen,html.Screen,1_1_0_1_23,2021-04-11T09:12:10.786Z,,,,,,,,,,,,,,,,53,,,,,,,,,,,,,,412.14399992687686,,response,,,,99,,,,,,,Space,keypress(Space),,,,,,,,---- -- ----- -- ------ - ------- --- ----------<br>------------- ------ ------ ---- ---- ------- ----- -- ----<br>-------- ------- -- ---------- --- a --- ----- ----- ----<br>---- --- --- ----- --- ---- ---- ------- ----- ---- -------<br>--- --- -- ----- -- --- ---- -- --- ---- -- ------ ------<br>--- ----- -- ----,84195.3199999407,84194.35499992687,83765.099,83771.51500002947,83782.211,84198.507,,23,a
screen,html.Screen,1_1_0_1_24,2021-04-11T09:12:11.314Z,,,,,,,,,,,,,,,,53,,,,,,,,,,,,,,524.2030000018276,,response,,,,99,,,,,,,Space,keypress(Space),,,,,,,,---- -- ----- -- ------ - ------- --- ----------<br>------------- ------ ------ ---- ---- ------- ----- -- ----<br>-------- ------- -- ---------- --- - new ----- ----- ----<br>---- --- --- ----- --- ---- ---- ------- ----- ---- -------<br>--- --- -- ----- -- --- ---- -- --- ---- -- ------ ------<br>--- ----- -- ----,84723.52499992121,84722.71000000183,84182.153,84195.53000002634,84198.507,84731.964,,24,new
screen,html.Screen,1_1_0_1_25,2021-04-11T09:12:11.896Z,,,,,,,,,,,,,,,,53,,,,,,,,,,,,,,572.9759999435919,,response,,,,99,,,,,,,Space,keypress(Space),,,,,,,,---- -- ----- -- ------ - ------- --- ----------<br>------------- ------ ------ ---- ---- ------- ----- -- ----<br>-------- ------- -- ---------- --- - --- study ----- ----<br>---- --- --- ----- --- ---- ---- ------- ----- ---- -------<br>--- --- -- ----- -- --- ---- -- --- ---- -- ------ ------<br>--- ----- -- ----,85305.82000000868,85304.9399999436,84715.295,84723.71499997098,84731.964,85315.352,,25,study
screen,html.Screen,1_1_0_1_26,2021-04-11T09:12:12.408Z,,,,,,,,,,,,,,,,53,,,,,,,,,,,,,,501.1629999549623,,response,,,,99,,,,,,,Space,keypress(Space),,,,,,,,---- -- ----- -- ------ - ------- --- ----------<br>------------- ------ ------ ---- ---- ------- ----- -- ----<br>-------- ------- -- ---------- --- - --- ----- finds ----<br>---- --- --- ----- --- ---- ---- ------- ----- ---- -------<br>--- --- -- ----- -- --- ---- -- --- ---- -- ------ ------<br>--- ----- -- ----,85817.39500002004,85816.51499995496,85298.624,85306.02999997791,85315.352,85831.955,,26,finds
screen,html.Screen,1_1_0_1_27,2021-04-11T09:12:12.847Z,,,,,,,,,,,,,,,,53,,,,,,,,,,,,,,423.7749999752996,,response,,,,99,,,,,,,Space,keypress(Space),,,,,,,,---- -- ----- -- ------ - ------- --- ----------<br>------------- ------ ------ ---- ---- ------- ----- -- ----<br>-------- ------- -- ---------- --- - --- ----- ----- that<br>---- --- --- ----- --- ---- ---- ------- ----- ---- -------<br>--- --- -- ----- -- --- ---- -- --- ---- -- ------ ------<br>--- ----- -- ----,86256.63499999791,86255.7299999753,85815.273,85817.57499999367,85831.955,86264.789,,27,that
screen,html.Screen,1_1_0_1_28,2021-04-11T09:12:13.409Z,,,,,,,,,,,,,,,,53,,,,,,,,,,,,,,553.135999981183,,response,,,,99,,,,,,,Space,keypress(Space),,,,,,,,---- -- ----- -- ------ - ------- --- ----------<br>------------- ------ ------ ---- ---- ------- ----- -- ----<br>-------- ------- -- ---------- --- - --- ----- ----- ----<br>it's --- --- ----- --- ---- ---- ------- ----- ---- -------<br>--- --- -- ----- -- --- ---- -- --- ---- -- ------ ------<br>--- ----- -- ----,86818.7850000104,86817.92499998119,86248.474,86256.83500000741,86264.789,86831.423,,28,it's
screen,html.Screen,1_1_0_1_29,2021-04-11T09:12:13.878Z,,,,,,,,,,,,,,,,53,,,,,,,,,,,,,,455.32199993213,,response,,,,99,,,,,,,Space,keypress(Space),,,,,,,,---- -- ----- -- ------ - ------- --- ----------<br>------------- ------ ------ ---- ---- ------- ----- -- ----<br>-------- ------- -- ---------- --- - --- ----- ----- ----<br>---- not --- ----- --- ---- ---- ------- ----- ---- -------<br>--- --- -- ----- -- --- ---- -- --- ---- -- ------ ------<br>--- ----- -- ----,87287.78499993496,87286.74499993213,86815.13,86818.9850000199,86831.423,87298.021,,29,not
screen,html.Screen,1_1_0_1_30,2021-04-11T09:12:14.336Z,,,,,,,,,,,,,,,,53,,,,,,,,,,,,,,446.5240000232152,,response,,,,99,,,,,,,Space,keypress(Space),,,,,,,,---- -- ----- -- ------ - ------- --- ----------<br>------------- ------ ------ ---- ---- ------- ----- -- ----<br>-------- ------- -- ---------- --- - --- ----- ----- ----<br>---- --- how ----- --- ---- ---- ------- ----- ---- -------<br>--- --- -- ----- -- --- ---- -- --- ---- -- ------ ------<br>--- ----- -- ----,87745.6499999389,87744.54500002321,87281.733,87287.96999994665,87298.021,87747.945,,30,how
screen,html.Screen,1_1_0_1_31,2021-04-11T09:12:15.112Z,,,,,,,,,,,,,,,,53,,,,,,,,,,,,,,772.9649999628891,,response,,,,99,,,,,,,Space,keypress(Space),,,,,,,,---- -- ----- -- ------ - ------- --- ----------<br>------------- ------ ------ ---- ---- ------- ----- -- ----<br>-------- ------- -- ---------- --- - --- ----- ----- ----<br>---- --- --- close --- ---- ---- ------- ----- ---- -------<br>--- --- -- ----- -- --- ---- -- --- ---- -- ------ ------<br>--- ----- -- ----,88521.79499994963,88520.9099999629,87731.704,87745.8499999484,87747.945,88531.596,,31,close
screen,html.Screen,1_1_0_1_32,2021-04-11T09:12:15.517Z,,,,,,,,,,,,,,,,53,,,,,,,,,,,,,,393.9889999608422,,response,,,,99,,,,,,,Space,keypress(Space),,,,,,,,---- -- ----- -- ------ - ------- --- ----------<br>------------- ------ ------ ---- ---- ------- ----- -- ----<br>-------- ------- -- ---------- --- - --- ----- ----- ----<br>---- --- --- ----- you ---- ---- ------- ----- ---- -------<br>--- --- -- ----- -- --- ---- -- --- ---- -- ------ ------<br>--- ----- -- ----,88926.45499994978,88925.58499996085,88514.655,88521.9849999994,88531.596,88931.143,,32,you
screen,html.Screen,1_1_0_1_33,2021-04-11T09:12:15.948Z,,,,,,,,,,,,,,,,53,,,,,,,,,,,,,,424.83699999300006,,response,,,,99,,,,,,,Space,keypress(Space),,,,,,,,---- -- ----- -- ------ - ------- --- ----------<br>------------- ------ ------ ---- ---- ------- ----- -- ----<br>-------- ------- -- ---------- --- - --- ----- ----- ----<br>---- --- --- ----- --- feel ---- ------- ----- ---- -------<br>--- --- -- ----- -- --- ---- -- --- ---- -- ------ ------<br>--- ----- -- ----,89357.13000001851,89355.979999993,88914.863,88926.64999992121,88931.143,89364.564,,33,feel
screen,html.Screen,1_1_0_1_34,2021-04-11T09:12:16.406Z,,,,,,,,,,,,,,,,53,,,,,,,,,,,,,,450.41099998659047,,response,,,,99,,,,,,,Space,keypress(Space),,,,,,,,---- -- ----- -- ------ - ------- --- ----------<br>------------- ------ ------ ---- ---- ------- ----- -- ----<br>-------- ------- -- ---------- --- - --- ----- ----- ----<br>---- --- --- ----- --- ---- that ------- ----- ---- -------<br>--- --- -- ----- -- --- ---- -- --- ---- -- ------ ------<br>--- ----- -- ----,89815.8650000114,89814.97499998659,89348.006,89357.42499993648,89364.564,89831.42,,34,that
screen,html.Screen,1_1_0_1_35,2021-04-11T09:12:16.832Z,,,,,,,,,,,,,,,,53,,,,,,,,,,,,,,409.1299999877083,,response,,,,99,,,,,,,Space,keypress(Space),,,,,,,,---- -- ----- -- ------ - ------- --- ----------<br>------------- ------ ------ ---- ---- ------- ----- -- ----<br>-------- ------- -- ---------- --- - --- ----- ----- ----<br>---- --- --- ----- --- ---- ---- matters ----- ---- -------<br>--- --- -- ----- -- --- ---- -- --- ---- -- ------ ------<br>--- ----- -- ----,90241.41999997664,90240.5499999877,89814.632,89816.05499994475,89831.42,90247.748,,35,matters
screen,html.Screen,1_1_0_1_36,2021-04-11T09:12:17.324Z,,,,,,,,,,,,,,,,53,,,,,,,,,,,,,,484.63699998114316,,response,,,,99,,,,,,,Space,keypress(Space),,,,,,,,"---- -- ----- -- ------ - ------- --- ----------<br>------------- ------ ------ ---- ---- ------- ----- -- ----<br>-------- ------- -- ---------- --- - --- ----- ----- ----<br>---- --- --- ----- --- ---- ---- ------- most, ---- -------<br>--- --- -- ----- -- --- ---- -- --- ---- -- ------ ------<br>--- ----- -- ----",90733.25499997009,90732.38499998115,90231.346,90241.61499994807,90247.748,90747.978,,36,"most,"
screen,html.Screen,1_1_0_1_37,2021-04-11T09:12:17.691Z,,,,,,,,,,,,,,,,53,,,,,,,,,,,,,,351.3469999592053,,response,,,,99,,,,,,,Space,keypress(Space),,,,,,,,---- -- ----- -- ------ - ------- --- ----------<br>------------- ------ ------ ---- ---- ------- ----- -- ----<br>-------- ------- -- ---------- --- - --- ----- ----- ----<br>---- --- --- ----- --- ---- ---- ------- ----- it's -------<br>--- --- -- ----- -- --- ---- -- --- ---- -- ------ ------<br>--- ----- -- ----,91100.17500002868,91099.32499995921,90730.879,90733.43999998178,90747.978,91114.284,,37,it's
screen,html.Screen,1_1_0_1_38,2021-04-11T09:12:18.111Z,,,,,,,,,,,,,,,,53,,,,,,,,,,,,,,405.6759999468777,,response,,,,99,,,,,,,Space,keypress(Space),,,,,,,,---- -- ----- -- ------ - ------- --- ----------<br>------------- ------ ------ ---- ---- ------- ----- -- ----<br>-------- ------- -- ---------- --- - --- ----- ----- ----<br>---- --- --- ----- --- ---- ---- ------- ----- ---- whether<br>--- --- -- ----- -- --- ---- -- --- ---- -- ------ ------<br>--- ----- -- ----,91520.7699999446,91519.95999994688,91097.91,91100.36499996204,91114.284,91531.212,,38,whether
screen,html.Screen,1_1_0_1_39,2021-04-11T09:12:18.426Z,,,,,,,,,,,,,,,,53,,,,,,,,,,,,,,303.66299994225847,,response,,,,99,,,,,,,Space,keypress(Space),,,,,,,,---- -- ----- -- ------ - ------- --- ----------<br>------------- ------ ------ ---- ---- ------- ----- -- ----<br>-------- ------- -- ---------- --- - --- ----- ----- ----<br>---- --- --- ----- --- ---- ---- ------- ----- ---- -------<br>you --- -- ----- -- --- ---- -- --- ---- -- ------ ------<br>--- ----- -- ----,91835.69999993779,91834.87499994226,91514.545,91520.95000003465,91531.212,91847.848,,39,you
screen,html.Screen,1_1_0_1_40,2021-04-11T09:12:18.824Z,,,,,,,,,,,,,,,,53,,,,,,,,,,,,,,384.67699999944307,,response,,,,99,,,,,,,Space,keypress(Space),,,,,,,,---- -- ----- -- ------ - ------- --- ----------<br>------------- ------ ------ ---- ---- ------- ----- -- ----<br>-------- ------- -- ---------- --- - --- ----- ----- ----<br>---- --- --- ----- --- ---- ---- ------- ----- ---- -------<br>--- are -- ----- -- --- ---- -- --- ---- -- ------ ------<br>--- ----- -- ----,92233.40999998618,92232.52499999944,91830.917,91835.87499998976,91847.848,92247.794,,40,are
screen,html.Screen,1_1_0_1_41,2021-04-11T09:12:19.159Z,,,,,,,,,,,,,,,,53,,,,,,,,,,,,,,320.4359999753069,,response,,,,99,,,,,,,Space,keypress(Space),,,,,,,,---- -- ----- -- ------ - ------- --- ----------<br>------------- ------ ------ ---- ---- ------- ----- -- ----<br>-------- ------- -- ---------- --- - --- ----- ----- ----<br>---- --- --- ----- --- ---- ---- ------- ----- ---- -------<br>--- --- as ----- -- --- ---- -- --- ---- -- ------ ------<br>--- ----- -- ----,92569.03999997303,92568.2299999753,92231.095,92233.60000003595,92247.794,92581.109,,41,as
screen,html.Screen,1_1_0_1_42,2021-04-11T09:12:19.519Z,,,,,,,,,,,,,,,,53,,,,,,,,,,,,,,346.77600001188694,,response,,,,99,,,,,,,Space,keypress(Space),,,,,,,,---- -- ----- -- ------ - ------- --- ----------<br>------------- ------ ------ ---- ---- ------- ----- -- ----<br>-------- ------- -- ---------- --- - --- ----- ----- ----<br>---- --- --- ----- --- ---- ---- ------- ----- ---- -------<br>--- --- -- close -- --- ---- -- --- ---- -- ------ ------<br>--- ----- -- ----,92928.69999993127,92927.88500001188,92564.388,92569.26499994006,92581.109,92947.452,,42,close
screen,html.Screen,1_1_0_1_43,2021-04-11T09:12:19.905Z,,,,,,,,,,,,,,,,53,,,,,,,,,,,,,,366.75799998226285,,response,,,,99,,,,,,,Space,keypress(Space),,,,,,,,---- -- ----- -- ------ - ------- --- ----------<br>------------- ------ ------ ---- ---- ------- ----- -- ----<br>-------- ------- -- ---------- --- - --- ----- ----- ----<br>---- --- --- ----- --- ---- ---- ------- ----- ---- -------<br>--- --- -- ----- as --- ---- -- --- ---- -- ------ ------<br>--- ----- -- ----,93315.01999998,93314.20999998227,92930.999,92930.97500002477,92947.452,93330.977,,43,as
screen,html.Screen,1_1_0_1_44,2021-04-11T09:12:20.235Z,,,,,,,,,,,,,,,,53,,,,,,,,,,,,,,313.1029999982129,,response,,,,99,,,,,,,Space,keypress(Space),,,,,,,,---- -- ----- -- ------ - ------- --- ----------<br>------------- ------ ------ ---- ---- ------- ----- -- ----<br>-------- ------- -- ---------- --- - --- ----- ----- ----<br>---- --- --- ----- --- ---- ---- ------- ----- ---- -------<br>--- --- -- ----- -- you ---- -- --- ---- -- ------ ------<br>--- ----- -- ----,93644.95999994688,93644.07999999821,93314.3,93315.19500003196,93330.977,93647.239,,44,you
screen,html.Screen,1_1_0_1_45,2021-04-11T09:12:20.589Z,,,,,,,,,,,,,,,,53,,,,,,,,,,,,,,350.5910000075237,,response,,,,99,,,,,,,Space,keypress(Space),,,,,,,,---- -- ----- -- ------ - ------- --- ----------<br>------------- ------ ------ ---- ---- ------- ----- -- ----<br>-------- ------- -- ---------- --- - --- ----- ----- ----<br>---- --- --- ----- --- ---- ---- ------- ----- ---- -------<br>--- --- -- ----- -- --- want -- --- ---- -- ------ ------<br>--- ----- -- ----,93998.6149999313,93997.83000000753,93630.533,93645.14499995857,93647.239,94014.281,,45,want
screen,html.Screen,1_1_0_1_46,2021-04-11T09:12:20.856Z,,,,,,,,,,,,,,,,53,,,,,,,,,,,,,,250.58400003374845,,response,,,,99,,,,,,,Space,keypress(Space),,,,,,,,---- -- ----- -- ------ - ------- --- ----------<br>------------- ------ ------ ---- ---- ------- ----- -- ----<br>-------- ------- -- ---------- --- - --- ----- ----- ----<br>---- --- --- ----- --- ---- ---- ------- ----- ---- -------<br>--- --- -- ----- -- --- ---- to --- ---- -- ------ ------<br>--- ----- -- ----,94265.67999995314,94264.86500003375,93997.401,93998.7849999452,94014.281,94280.857,,46,to
screen,html.Screen,1_1_0_1_47,2021-04-11T09:12:21.159Z,,,,,,,,,,,,,,,,53,,,,,,,,,,,,,,286.8580000119546,,response,,,,99,,,,,,,Space,keypress(Space),,,,,,,,"---- -- ----- -- ------ - ------- --- ----------<br>------------- ------ ------ ---- ---- ------- ----- -- ----<br>-------- ------- -- ---------- --- - --- ----- ----- ----<br>---- --- --- ----- --- ---- ---- ------- ----- ---- -------<br>--- --- -- ----- -- --- ---- -- be, ---- -- ------ ------<br>--- ----- -- ----",94568.50499997381,94567.71500001196,94264.043,94265.8550000051,94280.857,94580.8,,47,"be,"
screen,html.Screen,1_1_0_1_48,2021-04-11T09:12:21.480Z,,,,,,,,,,,,,,,,53,,,,,,,,,,,,,,308.304999951084,,response,,,,99,,,,,,,Space,keypress(Space),,,,,,,,---- -- ----- -- ------ - ------- --- ----------<br>------------- ------ ------ ---- ---- ------- ----- -- ----<br>-------- ------- -- ---------- --- - --- ----- ----- ----<br>---- --- --- ----- --- ---- ---- ------- ----- ---- -------<br>--- --- -- ----- -- --- ---- -- --- even -- ------ ------<br>--- ----- -- ----,94889.88499995321,94889.10499995109,94564.142,94568.68000002578,94580.8,94897.172,,48,even
screen,html.Screen,1_1_0_1_49,2021-04-11T09:12:21.798Z,,,,,,,,,,,,,,,,53,,,,,,,,,,,,,,309.2379999843106,,response,,,,99,,,,,,,Space,keypress(Space),,,,,,,,---- -- ----- -- ------ - ------- --- ----------<br>------------- ------ ------ ---- ---- ------- ----- -- ----<br>-------- ------- -- ---------- --- - --- ----- ----- ----<br>---- --- --- ----- --- ---- ---- ------- ----- ---- -------<br>--- --- -- ----- -- --- ---- -- --- ---- if ------ ------<br>--- ----- -- ----,95207.26499997545,95206.40999998432,94880.337,94890.08499996271,94897.172,95213.781,,49,if
screen,html.Screen,1_1_0_1_50,2021-04-11T09:12:22.170Z,,,,,,,,,,,,,,,,53,,,,,,,,,,,,,,364.2090000197786,,response,,,,99,,,,,,,Space,keypress(Space),,,,,,,,---- -- ----- -- ------ - ------- --- ----------<br>------------- ------ ------ ---- ---- ------- ----- -- ----<br>-------- ------- -- ---------- --- - --- ----- ----- ----<br>---- --- --- ----- --- ---- ---- ------- ----- ---- -------<br>--- --- -- ----- -- --- ---- -- --- ---- -- that's ------<br>--- ----- -- ----,95579.06000001822,95577.99000001978,95197.301,95207.44499994908,95213.781,95605.529,,50,that's
screen,html.Screen,1_1_0_1_51,2021-04-11T09:12:22.490Z,,,,,,,,,,,,,,,,53,,,,,,,,,,,,,,293.0010000058537,,response,,,,99,,,,,,,Space,keypress(Space),,,,,,,,---- -- ----- -- ------ - ------- --- ----------<br>------------- ------ ------ ---- ---- ------- ----- -- ----<br>-------- ------- -- ---------- --- - --- ----- ----- ----<br>---- --- --- ----- --- ---- ---- ------- ----- ---- -------<br>--- --- -- ----- -- --- ---- -- --- ---- -- ------ really<br>--- ----- -- ----,95899.38499999698,95898.53000000585,95563.91,95579.23499995377,95605.529,95913.971,,51,really
screen,html.Screen,1_1_0_1_52,2021-04-11T09:12:22.840Z,,,,,,,,,,,,,,,,53,,,,,,,,,,,,,,334.75399995398766,,response,,,,99,,,,,,,Space,keypress(Space),,,,,,,,---- -- ----- -- ------ - ------- --- ----------<br>------------- ------ ------ ---- ---- ------- ----- -- ----<br>-------- ------- -- ---------- --- - --- ----- ----- ----<br>---- --- --- ----- --- ---- ---- ------- ----- ---- -------<br>--- --- -- ----- -- --- ---- -- --- ---- -- ------ ------<br>not ----- -- ----,96249.599999981,96248.72499995399,95896.931,95899.57000000868,95913.971,96263.935,,52,not
screen,html.Screen,1_1_0_1_53,2021-04-11T09:12:23.187Z,,,,,,,,,,,,,,,,53,,,,,,,,,,,,,,331.5900000115507,,response,,,,99,,,,,,,Space,keypress(Space),,,,,,,,---- -- ----- -- ------ - ------- --- ----------<br>------------- ------ ------ ---- ---- ------- ----- -- ----<br>-------- ------- -- ---------- --- - --- ----- ----- ----<br>---- --- --- ----- --- ---- ---- ------- ----- ---- -------<br>--- --- -- ----- -- --- ---- -- --- ---- -- ------ ------<br>--- close -- ----,96596.33999993093,96595.52500001155,96247.001,96249.80999995023,96263.935,96613.546,,53,close
screen,html.Screen,1_1_0_1_54,2021-04-11T09:12:23.503Z,,,,,,,,,,,,,,,,53,,,,,,,,,,,,,,298.3139999928826,,response,,,,99,,,,,,,Space,keypress(Space),,,,,,,,---- -- ----- -- ------ - ------- --- ----------<br>------------- ------ ------ ---- ---- ------- ----- -- ----<br>-------- ------- -- ---------- --- - --- ----- ----- ----<br>---- --- --- ----- --- ---- ---- ------- ----- ---- -------<br>--- --- -- ----- -- --- ---- -- --- ---- -- ------ ------<br>--- ----- at ----,96912.72499994375,96911.85999999288,96596.898,96596.50999994483,96613.546,96930.512,,54,at
screen,html.Screen,1_1_0_1_55,2021-04-11T09:12:23.834Z,,,,,,,,,,,,,,,,53,,,,,,,,,,,,,,312.17799998457485,,response,,,,99,,,,,,,Space,keypress(Space),,,,,,,,---- -- ----- -- ------ - ------- --- ----------<br>------------- ------ ------ ---- ---- ------- ----- -- ----<br>-------- ------- -- ---------- --- - --- ----- ----- ----<br>---- --- --- ----- --- ---- ---- ------- ----- ---- -------<br>--- --- -- ----- -- --- ---- -- --- ---- -- ------ ------<br>--- ----- -- all.,97243.57499997132,97242.68999998458,96897.177,96912.90999995545,96930.512,97246.717,,55,all.
Item 99,flow.Loop,1_1_0_1,2021-04-11T09:12:23.834Z,,,,,,,,,,,,,,,,,,,,,,,,,,,,,,30575.32099998457,,completion,,,,,A,,,,,,,,,,,silence,,,,,97243.95999999251,97242.68999998458,66634.042,66643.7900000019,66667.369,97246.717,,,
Question 1,html.Screen,1_1_0_2,2021-04-11T09:12:29.709Z,,,,,,,,,,,,,,,,,,,,,,,,,,,true,FALSE,,5870.473000019032,,response,,,,99,A,,,,,,FALSE,click #choice-2,,,,silence,,,,,103118.87499992736,103117.19000001904,97230.381,97244.12499996834,97246.717,103129.306,,,
Question 2,html.Screen,1_1_0_3,2021-04-11T09:12:35.829Z,,,,,,,,,,,,,,,,,,,,,,,,,,,true,TRUE,,6111.733999993521,,response,,,,99,A,,,,,,TRUE,click #choice-1,,,,silence,,,,,109242.44499998167,109241.03999999352,103112.754,103119.07499993686,103129.306,109245.184,,,
Item 99,flow.Sequence,1_1_0,2021-04-11T09:12:35.830Z,,,,,,,,,,,,,,,,,,,,,,,,,,,,,,52589.05299999352,,completion,,,,,,,,,,,,,,,,,,,,,109242.72500001825,109241.03999999352,56635.744,56654.51999998186,56651.987,109245.184,,,
Holding screen,html.Screen,1_1_1_0,2021-04-11T09:12:45.816Z,,,,,,,,,,,,,,,,,,,,,,,,,,,,,,9999.113000000012,,timeout,,,,,,,,,,,,,,,,,,,,,119228.72000001371,119227.641,109228.622,109242.89500003215,109245.184,119244.297,,,
screen,html.Screen,1_1_1_1_0,2021-04-11T09:12:46.600Z,,,,,,,,,,,,,,,,54,,,,,,,,,,,,,,767.7479999812931,,response,,,,100,,,,,,,Space,keypress(Space),,,,,,,,At --- ---- --- ------ ----- ------- ---- -- --- ------- --<br>------- ---------- ------ -- ----- -- ----- -- ---- ------<br>--- ----- --- --- ------ -------- ----- --- ------ ----- --<br>----- ----- ---------- --- --- ------ ------ ---- -- ------<br>------- --- ------ ----- --- ---- ------- -- ---- --- --<br>------- ------,120013.17499997094,120012.0449999813,119227.641,119228.95999997854,119244.297,120027.534,,0,At
screen,html.Screen,1_1_1_1_1,2021-04-11T09:12:47.269Z,,,,,,,,,,,,,,,,54,,,,,,,,,,,,,,653.3909999932948,,response,,,,100,,,,,,,Space,keypress(Space),,,,,,,,-- the ---- --- ------ ----- ------- ---- -- --- ------- --<br>------- ---------- ------ -- ----- -- ----- -- ---- ------<br>--- ----- --- --- ------ -------- ----- --- ------ ----- --<br>----- ----- ---------- --- --- ------ ------ ---- -- ------<br>------- --- ------ ----- --- ---- ------- -- ---- --- --<br>------- ------,120681.73499999102,120680.9249999933,120010.838,120013.35499994457,120027.534,120694.097,,1,the
screen,html.Screen,1_1_1_1_2,2021-04-11T09:12:48.068Z,,,,,,,,,,,,,,,,54,,,,,,,,,,,,,,786.4479999403266,,response,,,,100,,,,,,,Space,keypress(Space),,,,,,,,-- --- time --- ------ ----- ------- ---- -- --- ------- --<br>------- ---------- ------ -- ----- -- ----- -- ---- ------<br>--- ----- --- --- ------ -------- ----- --- ------ ----- --<br>----- ----- ---------- --- --- ------ ------ ---- -- ------<br>------- --- ------ ----- --- ---- ------- -- ---- --- --<br>------- ------,121481.41999996733,121480.54499994032,120677.413,120681.90500000492,120694.097,121493.999,,2,time
screen,html.Screen,1_1_1_1_3,2021-04-11T09:12:48.682Z,,,,,,,,,,,,,,,,54,,,,,,,,,,,,,,600.1009999875241,,response,,,,100,,,,,,,Space,keypress(Space),,,,,,,,-- --- ---- the ------ ----- ------- ---- -- --- ------- --<br>------- ---------- ------ -- ----- -- ----- -- ---- ------<br>--- ----- --- --- ------ -------- ----- --- ------ ----- --<br>----- ----- ---------- --- --- ------ ------ ---- -- ------<br>------- --- ------ ----- --- ---- ------- -- ---- --- --<br>------- ------,122094.95499997865,122094.09999998752,121477.303,121481.68500000611,121493.999,122110.462,,3,the
screen,html.Screen,1_1_1_1_4,2021-04-11T09:12:49.249Z,,,,,,,,,,,,,,,,54,,,,,,,,,,,,,,551.0180000097607,,response,,,,100,,,,,,,Space,keypress(Space),,,,,,,,-- --- ---- --- French ----- ------- ---- -- --- ------- --<br>------- ---------- ------ -- ----- -- ----- -- ---- ------<br>--- ----- --- --- ------ -------- ----- --- ------ ----- --<br>----- ----- ---------- --- --- ------ ------ ---- -- ------<br>------- --- ------ ----- --- ---- ------- -- ---- --- --<br>------- ------,122662.40000003017,122661.48000000976,122093.884,122095.14999995008,122110.462,122676.898,,4,French
screen,html.Screen,1_1_1_1_5,2021-04-11T09:12:49.846Z,,,,,,,,,,,,,,,,54,,,,,,,,,,,,,,581.661999987482,,response,,,,100,,,,,,,Space,keypress(Space),,,,,,,,-- --- ---- --- ------ crown ------- ---- -- --- ------- --<br>------- ---------- ------ -- ----- -- ----- -- ---- ------<br>--- ----- --- --- ------ -------- ----- --- ------ ----- --<br>----- ----- ---------- --- --- ------ ------ ---- -- ------<br>------- --- ------ ----- --- ---- ------- -- ---- --- --<br>------- ------,123259.37500002328,123258.55999998748,122660.518,122662.58499992546,122676.898,123277.086,,5,crown
screen,html.Screen,1_1_1_1_6,2021-04-11T09:12:50.534Z,,,,,,,,,,,,,,,,54,,,,,,,,,,,,,,669.314000015278,,response,,,,100,,,,,,,Space,keypress(Space),,,,,,,,-- --- ---- --- ------ ----- secured ---- -- --- ------- --<br>------- ---------- ------ -- ----- -- ----- -- ---- ------<br>--- ----- --- --- ------ -------- ----- --- ------ ----- --<br>----- ----- ---------- --- --- ------ ------ ---- -- ------<br>------- --- ------ ----- --- ---- ------- -- ---- --- --<br>------- ------,123947.35000003129,123946.40000001527,123243.734,123259.56000003498,123277.086,123960.334,,6,secured
screen,html.Screen,1_1_1_1_7,2021-04-11T09:12:51.117Z,,,,,,,,,,,,,,,,54,,,,,,,,,,,,,,569.2210000155319,,response,,,,100,,,,,,,Space,keypress(Space),,,,,,,,-- --- ---- --- ------ ----- ------- much -- --- ------- --<br>------- ---------- ------ -- ----- -- ----- -- ---- ------<br>--- ----- --- --- ------ -------- ----- --- ------ ----- --<br>----- ----- ---------- --- --- ------ ------ ---- -- ------<br>------- --- ------ ----- --- ---- ------- -- ---- --- --<br>------- ------,124530.45999992173,124529.55500001553,123943.425,123947.53999996465,123960.334,124543.601,,7,much
screen,html.Screen,1_1_1_1_8,2021-04-11T09:12:51.749Z,,,,,,,,,,,,,,,,54,,,,,,,,,,,,,,617.1290000032459,,response,,,,100,,,,,,,Space,keypress(Space),,,,,,,,-- --- ---- --- ------ ----- ------- ---- of --- ------- --<br>------- ---------- ------ -- ----- -- ----- -- ---- ------<br>--- ----- --- --- ------ -------- ----- --- ------ ----- --<br>----- ----- ---------- --- --- ------ ------ ---- -- ------<br>------- --- ------ ----- --- ---- ------- -- ---- --- --<br>------- ------,125161.65000002366,125160.73000000324,124526.904,124530.65500000957,124543.601,125176.446,,8,of
screen,html.Screen,1_1_1_1_9,2021-04-11T09:12:52.368Z,,,,,,,,,,,,,,,,54,,,,,,,,,,,,,,604.1289999824949,,response,,,,100,,,,,,,Space,keypress(Space),,,,,,,,-- --- ---- --- ------ ----- ------- ---- -- its ------- --<br>------- ---------- ------ -- ----- -- ----- -- ---- ------<br>--- ----- --- --- ------ -------- ----- --- ------ ----- --<br>----- ----- ---------- --- --- ------ ------ ---- -- ------<br>------- --- ------ ----- --- ---- ------- -- ---- --- --<br>------- ------,125781.39999997802,125780.57499998249,125159.864,125161.83500003535,125176.446,125793.454,,9,its
screen,html.Screen,1_1_1_1_10,2021-04-11T09:12:52.949Z,,,,,,,,,,,,,,,,54,,,,,,,,,,,,,,567.3610000218323,,response,,,,100,,,,,,,Space,keypress(Space),,,,,,,,-- --- ---- --- ------ ----- ------- ---- -- --- revenue --<br>------- ---------- ------ -- ----- -- ----- -- ---- ------<br>--- ----- --- --- ------ -------- ----- --- ------ ----- --<br>----- ----- ---------- --- --- ------ ------ ---- -- ------<br>------- --- ------ ----- --- ---- ------- -- ---- --- --<br>------- ------,126361.73499992583,126360.81500002183,125776.677,125781.59000002779,125793.454,126376.697,,10,revenue
screen,html.Screen,1_1_1_1_11,2021-04-11T09:12:53.465Z,,,,,,,,,,,,,,,,54,,,,,,,,,,,,,,500.66299992582935,,response,,,,100,,,,,,,Space,keypress(Space),,,,,,,,-- --- ---- --- ------ ----- ------- ---- -- --- ------- by<br>------- ---------- ------ -- ----- -- ----- -- ---- ------<br>--- ----- --- --- ------ -------- ----- --- ------ ----- --<br>----- ----- ---------- --- --- ------ ------ ---- -- ------<br>------- --- ------ ----- --- ---- ------- -- ---- --- --<br>------- ------,126878.29000002239,126877.35999992583,126360.019,126361.9399999734,126376.697,126893.328,,11,by
screen,html.Screen,1_1_1_1_12,2021-04-11T09:12:54.060Z,,,,,,,,,,,,,,,,54,,,,,,,,,,,,,,579.0519999337703,,response,,,,100,,,,,,,Space,keypress(Space),,,,,,,,-- --- ---- --- ------ ----- ------- ---- -- --- ------- --<br>issuing ---------- ------ -- ----- -- ----- -- ---- ------<br>--- ----- --- --- ------ -------- ----- --- ------ ----- --<br>----- ----- ---------- --- --- ------ ------ ---- -- ------<br>------- --- ------ ----- --- ---- ------- -- ---- --- --<br>------- ------,127473.2499999227,127472.37999993376,126876.618,126878.46999999601,126893.328,127476.162,,12,issuing
screen,html.Screen,1_1_1_1_13,2021-04-11T09:12:54.613Z,,,,,,,,,,,,,,,,54,,,,,,,,,,,,,,549.3280000290979,,response,,,,100,,,,,,,Space,keypress(Space),,,,,,,,-- --- ---- --- ------ ----- ------- ---- -- --- ------- --<br>------- government ------ -- ----- -- ----- -- ---- ------<br>--- ----- --- --- ------ -------- ----- --- ------ ----- --<br>----- ----- ---------- --- --- ------ ------ ---- -- ------<br>------- --- ------ ----- --- ---- ------- -- ---- --- --<br>------- ------,128026.36999997776,128025.4900000291,127459.874,127473.4499999322,127476.162,128042.859,,13,government
screen,html.Screen,1_1_1_1_14,2021-04-11T09:12:55.249Z,,,,,,,,,,,,,,,,54,,,,,,,,,,,,,,618.2909999417025,,response,,,,100,,,,,,,Space,keypress(Space),,,,,,,,-- --- ---- --- ------ ----- ------- ---- -- --- ------- --<br>------- ---------- bonds. -- ----- -- ----- -- ---- ------<br>--- ----- --- --- ------ -------- ----- --- ------ ----- --<br>----- ----- ---------- --- --- ------ ------ ---- -- ------<br>------- --- ------ ----- --- ---- ------- -- ---- --- --<br>------- ------,128662.01500000898,128661.1499999417,128026.389,128026.54999995138,128042.859,128676.401,,14,bonds.
screen,html.Screen,1_1_1_1_15,2021-04-11T09:12:55.829Z,,,,,,,,,,,,,,,,54,,,,,,,,,,,,,,565.0939999656548,,response,,,,100,,,,,,,Space,keypress(Space),,,,,,,,-- --- ---- --- ------ ----- ------- ---- -- --- ------- --<br>------- ---------- ------ In ----- -- ----- -- ---- ------<br>--- ----- --- --- ------ -------- ----- --- ------ ----- --<br>----- ----- ---------- --- --- ------ ------ ---- -- ------<br>------- --- ------ ----- --- ---- ------- -- ---- --- --<br>------- ------,129242.32499999925,129241.49499996565,128659.719,128662.20000002068,128676.401,129259.536,,15,In
screen,html.Screen,1_1_1_1_16,2021-04-11T09:12:57.246Z,,,,,,,,,,,,,,,,54,,,,,,,,,,,,,,1398.4339999420044,,response,,,,100,,,,,,,Space,keypress(Space),,,,,,,,"-- --- ---- --- ------ ----- ------- ---- -- --- ------- --<br>------- ---------- ------ -- 1727, -- ----- -- ---- ------<br>--- ----- --- --- ------ -------- ----- --- ------ ----- --<br>----- ----- ---------- --- --- ------ ------ ---- -- ------<br>------- --- ------ ----- --- ---- ------- -- ---- --- --<br>------- ------",130658.76999998,130657.969999942,129242.981,129242.51499993261,129259.536,130676.206,,16,"1727,"
screen,html.Screen,1_1_1_1_17,2021-04-11T09:12:57.948Z,,,,,,,,,,,,,,,,54,,,,,,,,,,,,,,684.1289999757428,,response,,,,100,,,,,,,Space,keypress(Space),,,,,,,,-- --- ---- --- ------ ----- ------- ---- -- --- ------- --<br>------- ---------- ------ -- ----- in ----- -- ---- ------<br>--- ----- --- --- ------ -------- ----- --- ------ ----- --<br>----- ----- ---------- --- --- ------ ------ ---- -- ------<br>------- --- ------ ----- --- ---- ------- -- ---- --- --<br>------- ------,131361.2799999537,131360.33499997575,130659.392,130659.02499994263,130676.206,131376.042,,17,in
screen,html.Screen,1_1_1_1_18,2021-04-11T09:12:58.555Z,,,,,,,,,,,,,,,,54,,,,,,,,,,,,,,590.7779999723716,,response,,,,100,,,,,,,Space,keypress(Space),,,,,,,,-- --- ---- --- ------ ----- ------- ---- -- --- ------- --<br>------- ---------- ------ -- ----- -- order -- ---- ------<br>--- ----- --- --- ------ -------- ----- --- ------ ----- --<br>----- ----- ---------- --- --- ------ ------ ---- -- ------<br>------- --- ------ ----- --- ---- ------- -- ---- --- --<br>------- ------,131967.6449999679,131966.81999997236,131359.356,131361.56500002835,131376.042,131975.814,,18,order
screen,html.Screen,1_1_1_1_19,2021-04-11T09:12:59.033Z,,,,,,,,,,,,,,,,54,,,,,,,,,,,,,,469.70599995017983,,response,,,,100,,,,,,,Space,keypress(Space),,,,,,,,-- --- ---- --- ------ ----- ------- ---- -- --- ------- --<br>------- ---------- ------ -- ----- -- ----- to ---- ------<br>--- ----- --- --- ------ -------- ----- --- ------ ----- --<br>----- ----- ---------- --- --- ------ ------ ---- -- ------<br>------- --- ------ ----- --- ---- ------- -- ---- --- --<br>------- ------,132446.3949999772,132445.5199999502,131959.3,131967.83500001766,131975.814,132459.027,,19,to
screen,html.Screen,1_1_1_1_20,2021-04-11T09:12:59.515Z,,,,,,,,,,,,,,,,54,,,,,,,,,,,,,,468.3980000016745,,response,,,,100,,,,,,,Space,keypress(Space),,,,,,,,-- --- ---- --- ------ ----- ------- ---- -- --- ------- --<br>------- ---------- ------ -- ----- -- ----- -- save ------<br>--- ----- --- --- ------ -------- ----- --- ------ ----- --<br>----- ----- ---------- --- --- ------ ------ ---- -- ------<br>------- --- ------ ----- --- ---- ------- -- ---- --- --<br>------- ------,132928.2799999928,132927.42500000168,132442.508,132446.57000002917,132459.027,132942.518,,20,save
screen,html.Screen,1_1_1_1_21,2021-04-11T09:12:59.985Z,,,,,,,,,,,,,,,,54,,,,,,,,,,,,,,455.00700003668317,,response,,,,100,,,,,,,Space,keypress(Space),,,,,,,,"-- --- ---- --- ------ ----- ------- ---- -- --- ------- --<br>------- ---------- ------ -- ----- -- ----- -- ---- money,<br>--- ----- --- --- ------ -------- ----- --- ------ ----- --<br>----- ----- ---------- --- --- ------ ------ ---- -- ------<br>------- --- ------ ----- --- ---- ------- -- ---- --- --<br>------- ------",133398.2899999246,133397.5250000367,132925.858,132928.47499996424,132942.518,133408.787,,21,"money,"
screen,html.Screen,1_1_1_1_22,2021-04-11T09:13:00.525Z,,,,,,,,,,,,,,,,54,,,,,,,,,,,,,,528.3279999787919,,response,,,,100,,,,,,,Space,keypress(Space),,,,,,,,-- --- ---- --- ------ ----- ------- ---- -- --- ------- --<br>------- ---------- ------ -- ----- -- ----- -- ---- ------<br>the ----- --- --- ------ -------- ----- --- ------ ----- --<br>----- ----- ---------- --- --- ------ ------ ---- -- ------<br>------- --- ------ ----- --- ---- ------- -- ---- --- --<br>------- ------,133937.91999993846,133937.1149999788,133392.44,133398.47000001464,133408.787,133941.929,,22,the
screen,html.Screen,1_1_1_1_23,2021-04-11T09:13:01.076Z,,,,,,,,,,,,,,,,54,,,,,,,,,,,,,,546.1810000347905,,response,,,,100,,,,,,,Space,keypress(Space),,,,,,,,-- --- ---- --- ------ ----- ------- ---- -- --- ------- --<br>------- ---------- ------ -- ----- -- ----- -- ---- ------<br>--- state --- --- ------ -------- ----- --- ------ ----- --<br>----- ----- ---------- --- --- ------ ------ ---- -- ------<br>------- --- ------ ----- --- ---- ------- -- ---- --- --<br>------- ------,134488.96999994759,134488.1100000348,133925.349,133938.0850000307,133941.929,134491.938,,23,state
screen,html.Screen,1_1_1_1_24,2021-04-11T09:13:01.617Z,,,,,,,,,,,,,,,,54,,,,,,,,,,,,,,536.9270000002289,,response,,,,100,,,,,,,Space,keypress(Space),,,,,,,,-- --- ---- --- ------ ----- ------- ---- -- --- ------- --<br>------- ---------- ------ -- ----- -- ----- -- ---- ------<br>--- ----- cut --- ------ -------- ----- --- ------ ----- --<br>----- ----- ---------- --- --- ------ ------ ---- -- ------<br>------- --- ------ ----- --- ---- ------- -- ---- --- --<br>------- ------,135029.71000003163,135028.86500000022,134475.505,134489.13999996148,134491.938,135042.239,,24,cut
screen,html.Screen,1_1_1_1_25,2021-04-11T09:13:02.176Z,,,,,,,,,,,,,,,,54,,,,,,,,,,,,,,545.5409999434487,,response,,,,100,,,,,,,Space,keypress(Space),,,,,,,,-- --- ---- --- ------ ----- ------- ---- -- --- ------- --<br>------- ---------- ------ -- ----- -- ----- -- ---- ------<br>--- ----- --- the ------ -------- ----- --- ------ ----- --<br>----- ----- ---------- --- --- ------ ------ ---- -- ------<br>------- --- ------ ----- --- ---- ------- -- ---- --- --<br>------- ------,135588.60499993898,135587.77999994345,135025.466,135029.89000000525,135042.239,135591.775,,25,the
screen,html.Screen,1_1_1_1_26,2021-04-11T09:13:02.697Z,,,,,,,,,,,,,,,,54,,,,,,,,,,,,,,517.7349999802245,,response,,,,100,,,,,,,Space,keypress(Space),,,,,,,,-- --- ---- --- ------ ----- ------- ---- -- --- ------- --<br>------- ---------- ------ -- ----- -- ----- -- ---- ------<br>--- ----- --- --- bonds' -------- ----- --- ------ ----- --<br>----- ----- ---------- --- --- ------ ------ ---- -- ------<br>------- --- ------ ----- --- ---- ------- -- ---- --- --<br>------- ------,136110.32500001602,136109.50999998022,135575.494,135588.80499994848,135591.775,136125.117,,26,bonds'
screen,html.Screen,1_1_1_1_27,2021-04-11T09:13:03.297Z,,,,,,,,,,,,,,,,54,,,,,,,,,,,,,,583.653000026563,,response,,,,100,,,,,,,Space,keypress(Space),,,,,,,,-- --- ---- --- ------ ----- ------- ---- -- --- ------- --<br>------- ---------- ------ -- ----- -- ----- -- ---- ------<br>--- ----- --- --- ------ interest ----- --- ------ ----- --<br>----- ----- ---------- --- --- ------ ------ ---- -- ------<br>------- --- ------ ----- --- ---- ------- -- ---- --- --<br>------- ------,136709.62999993935,136708.77000002656,136108.607,136110.52500002552,136125.117,136725.372,,27,interest
screen,html.Screen,1_1_1_1_28,2021-04-11T09:13:03.841Z,,,,,,,,,,,,,,,,54,,,,,,,,,,,,,,528.3179999249696,,response,,,,100,,,,,,,Space,keypress(Space),,,,,,,,-- --- ---- --- ------ ----- ------- ---- -- --- ------- --<br>------- ---------- ------ -- ----- -- ----- -- ---- ------<br>--- ----- --- --- ------ -------- rate. --- ------ ----- --<br>----- ----- ---------- --- --- ------ ------ ---- -- ------<br>------- --- ------ ----- --- ---- ------- -- ---- --- --<br>------- ------,137254.49500000104,137253.68999992497,136708.651,136709.81499995105,136725.372,137258.153,,28,rate.
screen,html.Screen,1_1_1_1_29,2021-04-11T09:13:04.411Z,,,,,,,,,,,,,,,,54,,,,,,,,,,,,,,564.9569999975502,,response,,,,100,,,,,,,Space,keypress(Space),,,,,,,,-- --- ---- --- ------ ----- ------- ---- -- --- ------- --<br>------- ---------- ------ -- ----- -- ----- -- ---- ------<br>--- ----- --- --- ------ -------- ----- The ------ ----- --<br>----- ----- ---------- --- --- ------ ------ ---- -- ------<br>------- --- ------ ----- --- ---- ------- -- ---- --- --<br>------- ------,137823.99499998428,137823.10999999754,137241.921,137254.6699999366,137258.153,137841.887,,29,The
screen,html.Screen,1_1_1_1_30,2021-04-11T09:13:05.140Z,,,,,,,,,,,,,,,,54,,,,,,,,,,,,,,710.1029999490129,,response,,,,100,,,,,,,Space,keypress(Space),,,,,,,,-- --- ---- --- ------ ----- ------- ---- -- --- ------- --<br>------- ---------- ------ -- ----- -- ----- -- ---- ------<br>--- ----- --- --- ------ -------- ----- --- market ----- --<br>----- ----- ---------- --- --- ------ ------ ---- -- ------<br>------- --- ------ ----- --- ---- ------- -- ---- --- --<br>------- ------,138552.81000002287,138551.989999949,137808.454,137824.1749999579,137841.887,138558.051,,30,market
screen,html.Screen,1_1_1_1_31,2021-04-11T09:13:05.685Z,,,,,,,,,,,,,,,,54,,,,,,,,,,,,,,538.9290000311739,,response,,,,100,,,,,,,Space,keypress(Space),,,,,,,,-- --- ---- --- ------ ----- ------- ---- -- --- ------- --<br>------- ---------- ------ -- ----- -- ----- -- ---- ------<br>--- ----- --- --- ------ -------- ----- --- ------ value --<br>----- ----- ---------- --- --- ------ ------ ---- -- ------<br>------- --- ------ ----- --- ---- ------- -- ---- --- --<br>------- ------,139097.8200000245,139096.98000003118,138541.68,138552.9749999987,138558.051,139108.041,,31,value
screen,html.Screen,1_1_1_1_32,2021-04-11T09:13:06.475Z,,,,,,,,,,,,,,,,54,,,,,,,,,,,,,,779.5789999358531,,response,,,,100,,,,,,,Space,keypress(Space),,,,,,,,-- --- ---- --- ------ ----- ------- ---- -- --- ------- --<br>------- ---------- ------ -- ----- -- ----- -- ---- ------<br>--- ----- --- --- ------ -------- ----- --- ------ ----- of<br>----- ----- ---------- --- --- ------ ------ ---- -- ------<br>------- --- ------ ----- --- ---- ------- -- ---- --- --<br>------- ------,139888.3500000229,139887.61999993585,139091.623,139098.02499995567,139108.041,139891.127,,32,of
screen,html.Screen,1_1_1_1_33,2021-04-11T09:13:07.247Z,,,,,,,,,,,,,,,,54,,,,,,,,,,,,,,768.0579999967886,,response,,,,100,,,,,,,Space,keypress(Space),,,,,,,,-- --- ---- --- ------ ----- ------- ---- -- --- ------- --<br>------- ---------- ------ -- ----- -- ----- -- ---- ------<br>--- ----- --- --- ------ -------- ----- --- ------ ----- --<br>these ----- ---------- --- --- ------ ------ ---- -- ------<br>------- --- ------ ----- --- ---- ------- -- ---- --- --<br>------- ------,140660.0300000282,140659.1849999968,139874.91,139888.5049999226,139891.127,140674.872,,33,these
screen,html.Screen,1_1_1_1_34,2021-04-11T09:13:07.788Z,,,,,,,,,,,,,,,,54,,,,,,,,,,,,,,525.2379999761179,,response,,,,100,,,,,,,Space,keypress(Space),,,,,,,,-- --- ---- --- ------ ----- ------- ---- -- --- ------- --<br>------- ---------- ------ -- ----- -- ----- -- ---- ------<br>--- ----- --- --- ------ -------- ----- --- ------ ----- --<br>----- bonds ---------- --- --- ------ ------ ---- -- ------<br>------- --- ------ ----- --- ---- ------- -- ---- --- --<br>------- ------,141200.91000001412,141200.10999997612,140658.027,140660.20499996375,140674.872,141207.827,,34,bonds
screen,html.Screen,1_1_1_1_35,2021-04-11T09:13:08.555Z,,,,,,,,,,,,,,,,54,,,,,,,,,,,,,,759.4529999825754,,response,,,,100,,,,,,,Space,keypress(Space),,,,,,,,"-- --- ---- --- ------ ----- ------- ---- -- --- ------- --<br>------- ---------- ------ -- ----- -- ----- -- ---- ------<br>--- ----- --- --- ------ -------- ----- --- ------ ----- --<br>----- ----- plummeted, --- --- ------ ------ ---- -- ------<br>------- --- ------ ----- --- ---- ------- -- ---- --- --<br>------- ------",141968.024999951,141967.27999998257,141191.43,141201.17000001483,141207.827,141974.403,,35,"plummeted,"
screen,html.Screen,1_1_1_1_36,2021-04-11T09:13:09.056Z,,,,,,,,,,,,,,,,54,,,,,,,,,,,,,,494.23699997732183,,response,,,,100,,,,,,,Space,keypress(Space),,,,,,,,-- --- ---- --- ------ ----- ------- ---- -- --- ------- --<br>------- ---------- ------ -- ----- -- ----- -- ---- ------<br>--- ----- --- --- ------ -------- ----- --- ------ ----- --<br>----- ----- ---------- and --- ------ ------ ---- -- ------<br>------- --- ------ ----- --- ---- ------- -- ---- --- --<br>------- ------,142469.4550000131,142468.6399999773,141957.913,141968.18999992684,141974.403,142474.145,,36,and
screen,html.Screen,1_1_1_1_37,2021-04-11T09:13:09.552Z,,,,,,,,,,,,,,,,54,,,,,,,,,,,,,,490.3199999681965,,response,,,,100,,,,,,,Space,keypress(Space),,,,,,,,-- --- ---- --- ------ ----- ------- ---- -- --- ------- --<br>------- ---------- ------ -- ----- -- ----- -- ---- ------<br>--- ----- --- --- ------ -------- ----- --- ------ ----- --<br>----- ----- ---------- --- the ------ ------ ---- -- ------<br>------- --- ------ ----- --- ---- ------- -- ---- --- --<br>------- ------,142965.26999992784,142964.4649999682,142457.761,142469.62999994867,142474.145,142974.551,,37,the
screen,html.Screen,1_1_1_1_38,2021-04-11T09:13:10.054Z,,,,,,,,,,,,,,,,54,,,,,,,,,,,,,,491.5489999614365,,response,,,,100,,,,,,,Space,keypress(Space),,,,,,,,-- --- ---- --- ------ ----- ------- ---- -- --- ------- --<br>------- ---------- ------ -- ----- -- ----- -- ---- ------<br>--- ----- --- --- ------ -------- ----- --- ------ ----- --<br>----- ----- ---------- --- --- market ------ ---- -- ------<br>------- --- ------ ----- --- ---- ------- -- ---- --- --<br>------- ------,143466.92000003532,143466.09999996144,142957.743,142965.43500002008,142974.551,143474.237,,38,market
screen,html.Screen,1_1_1_1_39,2021-04-11T09:13:10.649Z,,,,,,,,,,,,,,,,54,,,,,,,,,,,,,,586.517999984062,,response,,,,100,,,,,,,Space,keypress(Space),,,,,,,,-- --- ---- --- ------ ----- ------- ---- -- --- ------- --<br>------- ---------- ------ -- ----- -- ----- -- ---- ------<br>--- ----- --- --- ------ -------- ----- --- ------ ----- --<br>----- ----- ---------- --- --- ------ became ---- -- ------<br>------- --- ------ ----- --- ---- ------- -- ---- --- --<br>------- ------,144061.54000002425,144060.75499998406,143457.815,143467.07999997307,143474.237,144074.408,,39,became
screen,html.Screen,1_1_1_1_40,2021-04-11T09:13:11.166Z,,,,,,,,,,,,,,,,54,,,,,,,,,,,,,,504.05700002779486,,response,,,,100,,,,,,,Space,keypress(Space),,,,,,,,-- --- ---- --- ------ ----- ------- ---- -- --- ------- --<br>------- ---------- ------ -- ----- -- ----- -- ---- ------<br>--- ----- --- --- ------ -------- ----- --- ------ ----- --<br>----- ----- ---------- --- --- ------ ------ wary -- ------<br>------- --- ------ ----- --- ---- ------- -- ---- --- --<br>------- ------,144579.29000002332,144578.4650000278,144057.621,144061.70500000007,144074.408,144590.996,,40,wary
screen,html.Screen,1_1_1_1_41,2021-04-11T09:13:11.666Z,,,,,,,,,,,,,,,,54,,,,,,,,,,,,,,487.5939999318507,,response,,,,100,,,,,,,Space,keypress(Space),,,,,,,,-- --- ---- --- ------ ----- ------- ---- -- --- ------- --<br>------- ---------- ------ -- ----- -- ----- -- ---- ------<br>--- ----- --- --- ------ -------- ----- --- ------ ----- --<br>----- ----- ---------- --- --- ------ ------ ---- of ------<br>------- --- ------ ----- --- ---- ------- -- ---- --- --<br>------- ------,145079.44999996107,145078.58999993186,144574.323,144579.44999996107,144590.996,145090.952,,41,of
screen,html.Screen,1_1_1_1_42,2021-04-11T09:13:12.142Z,,,,,,,,,,,,,,,,54,,,,,,,,,,,,,,463.64800003223354,,response,,,,100,,,,,,,Space,keypress(Space),,,,,,,,-- --- ---- --- ------ ----- ------- ---- -- --- ------- --<br>------- ---------- ------ -- ----- -- ----- -- ---- ------<br>--- ----- --- --- ------ -------- ----- --- ------ ----- --<br>----- ----- ---------- --- --- ------ ------ ---- -- French<br>------- --- ------ ----- --- ---- ------- -- ---- --- --<br>------- ------,145555.4149999516,145554.60000003222,145074.27,145079.6299999347,145090.952,145557.121,,42,French
screen,html.Screen,1_1_1_1_43,2021-04-11T09:13:12.745Z,,,,,,,,,,,,,,,,54,,,,,,,,,,,,,,600.3939999698487,,response,,,,100,,,,,,,Space,keypress(Space),,,,,,,,-- --- ---- --- ------ ----- ------- ---- -- --- ------- --<br>------- ---------- ------ -- ----- -- ----- -- ---- ------<br>--- ----- --- --- ------ -------- ----- --- ------ ----- --<br>----- ----- ---------- --- --- ------ ------ ---- -- ------<br>credit. --- ------ ----- --- ---- ------- -- ---- --- --<br>------- ------,146158.3849999588,146157.51499996986,145540.876,145555.57999992743,145557.121,146174.167,,43,credit.
screen,html.Screen,1_1_1_1_44,2021-04-11T09:13:13.285Z,,,,,,,,,,,,,,,,54,,,,,,,,,,,,,,523.2229999866395,,response,,,,100,,,,,,,Space,keypress(Space),,,,,,,,-- --- ---- --- ------ ----- ------- ---- -- --- ------- --<br>------- ---------- ------ -- ----- -- ----- -- ---- ------<br>--- ----- --- --- ------ -------- ----- --- ------ ----- --<br>----- ----- ---------- --- --- ------ ------ ---- -- ------<br>------- The ------ ----- --- ---- ------- -- ---- --- --<br>------- ------,146698.19999998435,146697.38999998663,146157.371,146158.57500000857,146174.167,146707.423,,44,The
screen,html.Screen,1_1_1_1_45,2021-04-11T09:13:13.880Z,,,,,,,,,,,,,,,,54,,,,,,,,,,,,,,584.6769999623648,,response,,,,100,,,,,,,Space,keypress(Space),,,,,,,,-- --- ---- --- ------ ----- ------- ---- -- --- ------- --<br>------- ---------- ------ -- ----- -- ----- -- ---- ------<br>--- ----- --- --- ------ -------- ----- --- ------ ----- --<br>----- ----- ---------- --- --- ------ ------ ---- -- ------<br>------- --- French ----- --- ---- ------- -- ---- --- --<br>------- ------,147292.8199999733,147292.09999996237,146690.39,146698.36999999825,146707.423,147307.319,,45,French
screen,html.Screen,1_1_1_1_46,2021-04-11T09:13:14.398Z,,,,,,,,,,,,,,,,54,,,,,,,,,,,,,,503.1960000192339,,response,,,,100,,,,,,,Space,keypress(Space),,,,,,,,-- --- ---- --- ------ ----- ------- ---- -- --- ------- --<br>------- ---------- ------ -- ----- -- ----- -- ---- ------<br>--- ----- --- --- ------ -------- ----- --- ------ ----- --<br>----- ----- ---------- --- --- ------ ------ ---- -- ------<br>------- --- ------ state --- ---- ------- -- ---- --- --<br>------- ------,147811.37000001036,147810.51500001922,147290.256,147292.98999998719,147307.319,147823.918,,46,state
screen,html.Screen,1_1_1_1_47,2021-04-11T09:13:14.932Z,,,,,,,,,,,,,,,,54,,,,,,,,,,,,,,520.3319999655359,,response,,,,100,,,,,,,Space,keypress(Space),,,,,,,,-- --- ---- --- ------ ----- ------- ---- -- --- ------- --<br>------- ---------- ------ -- ----- -- ----- -- ---- ------<br>--- ----- --- --- ------ -------- ----- --- ------ ----- --<br>----- ----- ---------- --- --- ------ ------ ---- -- ------<br>------- --- ------ ----- was ---- ------- -- ---- --- --<br>------- ------,148345.04499996547,148344.24999996554,147807.083,147811.55500002205,147823.918,148357.141,,47,was
screen,html.Screen,1_1_1_1_48,2021-04-11T09:13:15.685Z,,,,,,,,,,,,,,,,54,,,,,,,,,,,,,,740.1639999447507,,response,,,,100,,,,,,,Space,keypress(Space),,,,,,,,-- --- ---- --- ------ ----- ------- ---- -- --- ------- --<br>------- ---------- ------ -- ----- -- ----- -- ---- ------<br>--- ----- --- --- ------ -------- ----- --- ------ ----- --<br>----- ----- ---------- --- --- ------ ------ ---- -- ------<br>------- --- ------ ----- --- left ------- -- ---- --- --<br>------- ------,149098.17999997176,149097.30499994475,148340.494,148345.21499997936,148357.141,149107.08,,48,left
screen,html.Screen,1_1_1_1_49,2021-04-11T09:13:16.292Z,,,,,,,,,,,,,,,,54,,,,,,,,,,,,,,597.5399999749789,,response,,,,100,,,,,,,Space,keypress(Space),,,,,,,,-- --- ---- --- ------ ----- ------- ---- -- --- ------- --<br>------- ---------- ------ -- ----- -- ----- -- ---- ------<br>--- ----- --- --- ------ -------- ----- --- ------ ----- --<br>----- ----- ---------- --- --- ------ ------ ---- -- ------<br>------- --- ------ ----- --- ---- without -- ---- --- --<br>------- ------,149705.43999993242,149704.61999997497,149090.362,149098.37999998126,149107.08,149727.502,,49,without
screen,html.Screen,1_1_1_1_50,2021-04-11T09:13:16.793Z,,,,,,,,,,,,,,,,54,,,,,,,,,,,,,,477.8929999390093,,response,,,,100,,,,,,,Space,keypress(Space),,,,,,,,-- --- ---- --- ------ ----- ------- ---- -- --- ------- --<br>------- ---------- ------ -- ----- -- ----- -- ---- ------<br>--- ----- --- --- ------ -------- ----- --- ------ ----- --<br>----- ----- ---------- --- --- ------ ------ ---- -- ------<br>------- --- ------ ----- --- ---- ------- an ---- --- --<br>------- ------,150206.26999996603,150205.39499993902,149690.362,149705.6149999844,149727.502,150223.611,,50,an
screen,html.Screen,1_1_1_1_51,2021-04-11T09:13:17.412Z,,,,,,,,,,,,,,,,54,,,,,,,,,,,,,,600.7090000142634,,response,,,,100,,,,,,,Space,keypress(Space),,,,,,,,-- --- ---- --- ------ ----- ------- ---- -- --- ------- --<br>------- ---------- ------ -- ----- -- ----- -- ---- ------<br>--- ----- --- --- ------ -------- ----- --- ------ ----- --<br>----- ----- ---------- --- --- ------ ------ ---- -- ------<br>------- --- ------ ----- --- ---- ------- -- easy --- --<br>------- ------,150825.1600000076,150824.32000001427,150206.844,150206.45499997772,150223.611,150840.204,,51,easy
screen,html.Screen,1_1_1_1_52,2021-04-11T09:13:17.972Z,,,,,,,,,,,,,,,,54,,,,,,,,,,,,,,543.6759999794012,,response,,,,100,,,,,,,Space,keypress(Space),,,,,,,,-- --- ---- --- ------ ----- ------- ---- -- --- ------- --<br>------- ---------- ------ -- ----- -- ----- -- ---- ------<br>--- ----- --- --- ------ -------- ----- --- ------ ----- --<br>----- ----- ---------- --- --- ------ ------ ---- -- ------<br>------- --- ------ ----- --- ---- ------- -- ---- way --<br>------- ------,151384.76499996614,151383.8799999794,150823.542,150825.43999992777,150840.204,151389.704,,52,way
screen,html.Screen,1_1_1_1_53,2021-04-11T09:13:18.569Z,,,,,,,,,,,,,,,,54,,,,,,,,,,,,,,591.1809999681136,,response,,,,100,,,,,,,Space,keypress(Space),,,,,,,,-- --- ---- --- ------ ----- ------- ---- -- --- ------- --<br>------- ---------- ------ -- ----- -- ----- -- ---- ------<br>--- ----- --- --- ------ -------- ----- --- ------ ----- --<br>----- ----- ---------- --- --- ------ ------ ---- -- ------<br>------- --- ------ ----- --- ---- ------- -- ---- --- of<br>------- ------,151981.70999996364,151980.8849999681,151373.433,151384.94999997783,151389.704,151989.641,,53,of
screen,html.Screen,1_1_1_1_54,2021-04-11T09:13:19.151Z,,,,,,,,,,,,,,,,54,,,,,,,,,,,,,,573.3539999274653,,response,,,,100,,,,,,,Space,keypress(Space),,,,,,,,-- --- ---- --- ------ ----- ------- ---- -- --- ------- --<br>------- ---------- ------ -- ----- -- ----- -- ---- ------<br>--- ----- --- --- ------ -------- ----- --- ------ ----- --<br>----- ----- ---------- --- --- ------ ------ ---- -- ------<br>------- --- ------ ----- --- ---- ------- -- ---- --- --<br>raising ------,152563.92999994569,152562.99499992747,151973.272,151981.9150000112,151989.641,152573.304,,54,raising
screen,html.Screen,1_1_1_1_55,2021-04-11T09:13:19.683Z,,,,,,,,,,,,,,,,54,,,,,,,,,,,,,,522.3009999222122,,response,,,,100,,,,,,,Space,keypress(Space),,,,,,,,-- --- ---- --- ------ ----- ------- ---- -- --- ------- --<br>------- ---------- ------ -- ----- -- ----- -- ---- ------<br>--- ----- --- --- ------ -------- ----- --- ------ ----- --<br>----- ----- ---------- --- --- ------ ------ ---- -- ------<br>------- --- ------ ----- --- ---- ------- -- ---- --- --<br>------- money.,153096.41500003636,153095.60499992222,152556.614,152564.09999995958,152573.304,153106.213,,55,money.
Item 100,flow.Loop,1_1_1_1,2021-04-11T09:13:19.684Z,,,,,,,,,,,,,,,,,,,,,,,,,,,,,,33851.30799992221,,completion,,,,,A,,,,,,,,,,,silence,,,,,153096.69000003487,153095.60499992222,119227.641,119228.9050000254,119244.297,153106.213,,,
Question 1,html.Screen,1_1_1_2,2021-04-11T09:13:22.775Z,,,,,,,,,,,,,,,,,,,,,,,,,,,true,TRUE,,3080.6119999825023,,response,,,,100,A,,,,,,TRUE,click #choice-1,,,,silence,,,,,156188.19499993697,156186.8249999825,153089.473,153096.81999997701,153106.213,156189.064,,,
Question 2,html.Screen,1_1_1_3,2021-04-11T09:13:26.084Z,,,,,,,,,,,,,,,,,,,,,,,,,,,false,FALSE,,3306.1459999645595,,response,,,,100,A,,,,,,TRUE,click #choice-1,,,,silence,,,,,159496.5450000018,159495.20999996457,156172.56,156188.41499998234,156189.064,159505.334,,,
Item 100,flow.Sequence,1_1_1,2021-04-11T09:13:26.084Z,,,,,,,,,,,,,,,,,,,,,,,,,,,,,,50250.02599996458,,completion,,,,,,,,,,,,,,,,,,,,,159496.85500003397,159495.20999996457,109228.622,109242.84999992233,109245.184,159505.334,,,
End of Practice,html.Page,1_1_2,2021-04-11T09:13:28.633Z,,,,,,,,,,,,,,,,,,,,,,,,,,,,,,2539.9210000045423,,form submission,,,,,,,,,,,,,,,,,,,,,162045.58999999426,162045.25500000454,159488.876,159496.97999993805,159505.334,162055.102,,,
Practice,flow.Sequence,1_1,2021-04-11T09:13:28.633Z,,,,,,,,,,,,,,,,,,,,,,,,,,,,,,105393.26800000455,,completion,,,,,,,,,,,,,,,,,,,,,162045.85500003304,162045.25500000454,56635.744,56654.44499999285,56651.987,162055.102,,,
Trap_instruction,html.Page,1_2_0,2021-04-11T09:13:30.200Z,,,,,,,,,,,,,,,,,,,,,,,,,,,,,,1557.432999963814,,form submission,,,,,,,,,,,,,,,,,,,,,163612.93499998283,163612.53499996383,162038.668,162046.02000000887,162055.102,163624.955,,,
trap_trial,html.Screen,1_2_1,2021-04-11T09:13:34.875Z,,,,,,,,,,,,,,,,,,,,,,,,,,,true,1,,4659.0999999382475,,response,,,,,,,,,,,1,click #choice-1,,,,,,,,,168285.889999941,168284.05499993823,163605.101,163613.11999999452,163624.955,168287.61,,,
end of trap trial,html.Page,1_2_2,2021-04-11T09:13:36.868Z,,,,,,,,,,,,,,,,,,,,,,,,,,,,,,1990.7949999900302,,form submission,,,,,,,,,,,,,,,,,,,,,170278.7600000156,170278.40499999002,168270.961,168286.0899999505,168287.61,170287.325,,,
Trap 1,flow.Sequence,1_2,2021-04-11T09:13:36.869Z,,,,,,,,,,,,,,,,,,,,,,,,,,,,,,8223.302999990003,,completion,,,,,,,,,,,,,,,,,,,,,170279.03999993578,170278.40499999002,162038.668,162045.9699999774,162055.102,170287.325,,,
Standby,html.Page,1_3_0,2021-04-11T09:13:44.861Z,,,,,,,,,,,,,,,,,,,,,,,,,,,,,,7998.831999999995,,timeout,,,,,,,,,,,,,,,,,,,,,178271.10499993432,178269.964,170270.625,170279.20999994967,170287.325,178286.157,,,
Holding screen,html.Screen,1_3_1_0_0,2021-04-11T09:13:51.860Z,,,,,,,,,,,,,,,,,,,,,,,,,,,,,,6999.567999999999,,timeout,,,,,,,,,,,,,,,,,,,,,185270.2799999388,185269.063,178269.964,178271.36499993503,178286.157,185285.725,,,
screen,html.Screen,1_3_1_0_1_0,2021-04-11T09:13:53.555Z,,,,,,,,,,,,,,,,2,,,,,,,,,,,,,,1678.5249999608786,,response,,,,1,A,,,,,,Space,keypress(Space),,,,silence,,,,Two ---- ------ --- ------- ---------- ------- ----------<br>--- --------- --- ----------- ------- ----- ------- ---<br>--------- ---- -- --- ---- -- --------- -- ---- -------<br>-- --------- ------ --- ----- ------ ---- --- --------- --<br>------ - ---- -- --- ----------- ------- ---- ----- -----<br>--- -------- - ------ ---- -- ----- ---- --- --- -----------<br>-- -------,186965.2950000018,186964.24999996088,185269.063,185270.5849999329,185285.725,186968.474,,0,Two
screen,html.Screen,1_3_1_0_1_1,2021-04-11T09:13:54.041Z,,,,,,,,,,,,,,,,2,,,,,,,,,,,,,,481.7059999270714,,response,,,,1,A,,,,,,Space,keypress(Space),,,,silence,,,,--- days ------ --- ------- ---------- ------- ----------<br>--- --------- --- ----------- ------- ----- ------- ---<br>--------- ---- -- --- ---- -- --------- -- ---- -------<br>-- --------- ------ --- ----- ------ ---- --- --------- --<br>------ - ---- -- --- ----------- ------- ---- ----- -----<br>--- -------- - ------ ---- -- ----- ---- --- --- -----------<br>-- -------,187451.09999994747,187450.17999992706,186951.913,186965.49999993294,186968.474,187468.784,,1,days
screen,html.Screen,1_3_1_0_1_2,2021-04-11T09:13:54.488Z,,,,,,,,,,,,,,,,2,,,,,,,,,,,,,,428.59599998031626,,response,,,,1,A,,,,,,Space,keypress(Space),,,,silence,,,,"--- ---- later, --- ------- ---------- ------- ----------<br>--- --------- --- ----------- ------- ----- ------- ---<br>--------- ---- -- --- ---- -- --------- -- ---- -------<br>-- --------- ------ --- ----- ------ ---- --- --------- --<br>------ - ---- -- --- ----------- ------- ---- ----- -----<br>--- -------- - ------ ---- -- ----- ---- --- --- -----------<br>-- -------",187898.2749999268,187897.37999998033,187435.531,187451.28499995917,187468.784,187901.684,,2,"later,"
screen,html.Screen,1_3_1_0_1_3,2021-04-11T09:13:54.894Z,,,,,,,,,,,,,,,,2,,,,,,,,,,,,,,401.6359999481356,,response,,,,1,A,,,,,,Space,keypress(Space),,,,silence,,,,--- ---- ------ the ------- ---------- ------- ----------<br>--- --------- --- ----------- ------- ----- ------- ---<br>--------- ---- -- --- ---- -- --------- -- ---- -------<br>-- --------- ------ --- ----- ------ ---- --- --------- --<br>------ - ---- -- --- ----------- ------- ---- ----- -----<br>--- -------- - ------ ---- -- ----- ---- --- --- -----------<br>-- -------,188304.21500001103,188303.31999994814,187885.442,187898.5999999568,187901.684,188318.703,,3,the
screen,html.Screen,1_3_1_0_1_4,2021-04-11T09:13:55.314Z,,,,,,,,,,,,,,,,2,,,,,,,,,,,,,,404.74200001053396,,response,,,,1,A,,,,,,Space,keypress(Space),,,,silence,,,,--- ---- ------ --- British ---------- ------- ----------<br>--- --------- --- ----------- ------- ----- ------- ---<br>--------- ---- -- --- ---- -- --------- -- ---- -------<br>-- --------- ------ --- ----- ------ ---- --- --------- --<br>------ - ---- -- --- ----------- ------- ---- ----- -----<br>--- -------- - ------ ---- -- ----- ---- --- --- -----------<br>-- -------,188724.3699999526,188723.44500001054,188301.844,188304.38500002492,188318.703,188735.295,,4,British
screen,html.Screen,1_3_1_0_1_5,2021-04-11T09:13:56.223Z,,,,,,,,,,,,,,,,2,,,,,,,,,,,,,,897.2049999487645,,response,,,,1,A,,,,,,Space,keypress(Space),,,,silence,,,,--- ---- ------ --- ------- astronomer ------- ----------<br>--- --------- --- ----------- ------- ----- ------- ---<br>--------- ---- -- --- ---- -- --------- -- ---- -------<br>-- --------- ------ --- ----- ------ ---- --- --------- --<br>------ - ---- -- --- ----------- ------- ---- ----- -----<br>--- -------- - ------ ---- -- ----- ---- --- --- -----------<br>-- -------,189633.38000001386,189632.49999994878,188718.462,188724.5549999643,188735.295,189660.58,,5,astronomer
screen,html.Screen,1_3_1_0_1_6,2021-04-11T09:13:56.705Z,,,,,,,,,,,,,,,,2,,,,,,,,,,,,,,453.6499999483058,,response,,,,1,A,,,,,,Space,keypress(Space),,,,silence,,,,--- ---- ------ --- ------- ---------- Richard ----------<br>--- --------- --- ----------- ------- ----- ------- ---<br>--------- ---- -- --- ---- -- --------- -- ---- -------<br>-- --------- ------ --- ----- ------ ---- --- --------- --<br>------ - ---- -- --- ----------- ------- ---- ----- -----<br>--- -------- - ------ ---- -- ----- ---- --- --- -----------<br>-- -------,190115.20999995992,190114.2299999483,189618.481,189633.58499994501,189660.58,190118.026,,6,Richard
screen,html.Screen,1_3_1_0_1_7,2021-04-11T09:13:57.140Z,,,,,,,,,,,,,,,,2,,,,,,,,,,,,,,431.4340000092634,,response,,,,1,A,,,,,,Space,keypress(Space),,,,silence,,,,--- ---- ------ --- ------- ---------- ------- Carrington<br>--- --------- --- ----------- ------- ----- ------- ---<br>--------- ---- -- --- ---- -- --------- -- ---- -------<br>-- --------- ------ --- ----- ------ ---- --- --------- --<br>------ - ---- -- --- ----------- ------- ---- ----- -----<br>--- -------- - ------ ---- -- ----- ---- --- --- -----------<br>-- -------,190550.3950000275,190549.46000000928,190103.108,190115.40499993134,190118.026,190583.642,,7,Carrington
screen,html.Screen,1_3_1_0_1_8,2021-04-11T09:13:57.560Z,,,,,,,,,,,,,,,,2,,,,,,,,,,,,,,385.9479999933392,,response,,,,1,A,,,,,,Space,keypress(Space),,,,silence,,,,--- ---- ------ --- ------- ---------- ------- ----------<br>was --------- --- ----------- ------- ----- ------- ---<br>--------- ---- -- --- ---- -- --------- -- ---- -------<br>-- --------- ------ --- ----- ------ ---- --- --------- --<br>------ - ---- -- --- ----------- ------- ---- ----- -----<br>--- -------- - ------ ---- -- ----- ---- --- --- -----------<br>-- -------,190970.56499996688,190969.58999999333,190534.941,190550.56499992497,190583.642,190984.774,,8,was
screen,html.Screen,1_3_1_0_1_9,2021-04-11T09:13:58.019Z,,,,,,,,,,,,,,,,2,,,,,,,,,,,,,,444.18100001031416,,response,,,,1,A,,,,,,Space,keypress(Space),,,,silence,,,,--- ---- ------ --- ------- ---------- ------- ----------<br>--- observing --- ----------- ------- ----- ------- ---<br>--------- ---- -- --- ---- -- --------- -- ---- -------<br>-- --------- ------ --- ----- ------ ---- --- --------- --<br>------ - ---- -- --- ----------- ------- ---- ----- -----<br>--- -------- - ------ ---- -- ----- ---- --- --- -----------<br>-- -------,191429.80499996338,191428.95500001032,190967.943,190970.74000001885,190984.774,191434.525,,9,observing
screen,html.Screen,1_3_1_0_1_10,2021-04-11T09:13:58.421Z,,,,,,,,,,,,,,,,2,,,,,,,,,,,,,,395.76499995440827,,response,,,,1,A,,,,,,Space,keypress(Space),,,,silence,,,,--- ---- ------ --- ------- ---------- ------- ----------<br>--- --------- the ----------- ------- ----- ------- ---<br>--------- ---- -- --- ---- -- --------- -- ---- -------<br>-- --------- ------ --- ----- ------ ---- --- --------- --<br>------ - ---- -- --- ----------- ------- ---- ----- -----<br>--- -------- - ------ ---- -- ----- ---- --- --- -----------<br>-- -------,191831.20999997482,191830.2899999544,191417.943,191429.98999997508,191434.525,191834.521,,10,the
screen,html.Screen,1_3_1_0_1_11,2021-04-11T09:13:58.877Z,,,,,,,,,,,,,,,,2,,,,,,,,,,,,,,452.8189999225433,,response,,,,1,A,,,,,,Space,keypress(Space),,,,silence,,,,--- ---- ------ --- ------- ---------- ------- ----------<br>--- --------- --- interesting ------- ----- ------- ---<br>--------- ---- -- --- ---- -- --------- -- ---- -------<br>-- --------- ------ --- ----- ------ ---- --- --------- --<br>------ - ---- -- --- ----------- ------- ---- ----- -----<br>--- -------- - ------ ---- -- ----- ---- --- --- -----------<br>-- -------,192287.82999992836,192287.33999992255,191818.066,191831.3949999865,191834.521,192301.096,,11,interesting
screen,html.Screen,1_3_1_0_1_12,2021-04-11T09:13:59.290Z,,,,,,,,,,,,,,,,2,,,,,,,,,,,,,,399.2790000149107,,response,,,,1,A,,,,,,Space,keypress(Space),,,,silence,,,,--- ---- ------ --- ------- ---------- ------- ----------<br>--- --------- --- ----------- sunspot ----- ------- ---<br>--------- ---- -- --- ---- -- --------- -- ---- -------<br>-- --------- ------ --- ----- ------ ---- --- --------- --<br>------ - ---- -- --- ----------- ------- ---- ----- -----<br>--- -------- - ------ ---- -- ----- ---- --- --- -----------<br>-- -------,192700.84499998484,192700.3750000149,192284.334,192287.965000025,192301.096,192717.705,,12,sunspot
screen,html.Screen,1_3_1_0_1_13,2021-04-11T09:13:59.750Z,,,,,,,,,,,,,,,,2,,,,,,,,,,,,,,442.6450000201294,,response,,,,1,A,,,,,,Space,keypress(Space),,,,silence,,,,--- ---- ------ --- ------- ---------- ------- ----------<br>--- --------- --- ----------- ------- group ------- ---<br>--------- ---- -- --- ---- -- --------- -- ---- -------<br>-- --------- ------ --- ----- ------ ---- --- --------- --<br>------ - ---- -- --- ----------- ------- ---- ----- -----<br>--- -------- - ------ ---- -- ----- ---- --- --- -----------<br>-- -------,193160.78499995638,193160.35000002012,192701.066,192700.92999993358,192717.705,193167.627,,13,group
screen,html.Screen,1_3_1_0_1_14,2021-04-11T09:14:00.187Z,,,,,,,,,,,,,,,,2,,,,,,,,,,,,,,428.6529999397171,,response,,,,1,A,,,,,,Space,keypress(Space),,,,silence,,,,--- ---- ------ --- ------- ---------- ------- ----------<br>--- --------- --- ----------- ------- ----- through ---<br>--------- ---- -- --- ---- -- --------- -- ---- -------<br>-- --------- ------ --- ----- ------ ---- --- --------- --<br>------ - ---- -- --- ----------- ------- ---- ----- -----<br>--- -------- - ------ ---- -- ----- ---- --- --- -----------<br>-- -------,193597.1300000092,193596.27999993972,193150.92,193160.87999998126,193167.627,193600.867,,14,through
screen,html.Screen,1_3_1_0_1_15,2021-04-11T09:14:00.606Z,,,,,,,,,,,,,,,,2,,,,,,,,,,,,,,414.5529999524297,,response,,,,1,A,,,,,,Space,keypress(Space),,,,silence,,,,--- ---- ------ --- ------- ---------- ------- ----------<br>--- --------- --- ----------- ------- ----- ------- his<br>--------- ---- -- --- ---- -- --------- -- ---- -------<br>-- --------- ------ --- ----- ------ ---- --- --------- --<br>------ - ---- -- --- ----------- ------- ---- ----- -----<br>--- -------- - ------ ---- -- ----- ---- --- --- -----------<br>-- -------,194016.3000000175,194015.41999995243,193584.186,193597.29499998502,193600.867,194039.12,,15,his
screen,html.Screen,1_3_1_0_1_16,2021-04-11T09:14:01.060Z,,,,,,,,,,,,,,,,2,,,,,,,,,,,,,,430.2699999838369,,response,,,,1,A,,,,,,Space,keypress(Space),,,,silence,,,,--- ---- ------ --- ------- ---------- ------- ----------<br>--- --------- --- ----------- ------- ----- ------- ---<br>telescope ---- -- --- ---- -- --------- -- ---- -------<br>-- --------- ------ --- ----- ------ ---- --- --------- --<br>------ - ---- -- --- ----------- ------- ---- ----- -----<br>--- -------- - ------ ---- -- ----- ---- --- --- -----------<br>-- -------,194470.18499998376,194469.38999998383,194001.166,194016.500000027,194039.12,194484.392,,16,telescope
screen,html.Screen,1_3_1_0_1_17,2021-04-11T09:14:01.524Z,,,,,,,,,,,,,,,,2,,,,,,,,,,,,,,448.9779999842867,,response,,,,1,A,,,,,,Space,keypress(Space),,,,silence,,,,--- ---- ------ --- ------- ---------- ------- ----------<br>--- --------- --- ----------- ------- ----- ------- ---<br>--------- when -- --- ---- -- --------- -- ---- -------<br>-- --------- ------ --- ----- ------ ---- --- --------- --<br>------ - ---- -- --- ----------- ------- ---- ----- -----<br>--- -------- - ------ ---- -- ----- ---- --- --- -----------<br>-- -------,194934.37000003178,194933.36999998428,194467.754,194470.42000002693,194484.392,194950.837,,17,when
screen,html.Screen,1_3_1_0_1_18,2021-04-11T09:14:02.059Z,,,,,,,,,,,,,,,,2,,,,,,,,,,,,,,518.2029999963124,,response,,,,1,A,,,,,,Space,keypress(Space),,,,silence,,,,--- ---- ------ --- ------- ---------- ------- ----------<br>--- --------- --- ----------- ------- ----- ------- ---<br>--------- ---- he --- ---- -- --------- -- ---- -------<br>-- --------- ------ --- ----- ------ ---- --- --------- --<br>------ - ---- -- --- ----------- ------- ---- ----- -----<br>--- -------- - ------ ---- -- ----- ---- --- --- -----------<br>-- -------,195469.90999998525,195469.0399999963,194934.056,194934.55999996513,194950.837,195484.042,,18,he
screen,html.Screen,1_3_1_0_1_19,2021-04-11T09:14:02.503Z,,,,,,,,,,,,,,,,2,,,,,,,,,,,,,,429.0280000096245,,response,,,,1,A,,,,,,Space,keypress(Space),,,,silence,,,,--- ---- ------ --- ------- ---------- ------- ----------<br>--- --------- --- ----------- ------- ----- ------- ---<br>--------- ---- -- saw ---- -- --------- -- ---- -------<br>-- --------- ------ --- ----- ------ ---- --- --------- --<br>------ - ---- -- --- ----------- ------- ---- ----- -----<br>--- -------- - ------ ---- -- ----- ---- --- --- -----------<br>-- -------,195913.8399999356,195913.0700000096,195467.73,195470.10999999475,195484.042,195917.264,,19,saw
screen,html.Screen,1_3_1_0_1_20,2021-04-11T09:14:02.915Z,,,,,,,,,,,,,,,,2,,,,,,,,,,,,,,407.0560000142723,,response,,,,1,A,,,,,,Space,keypress(Space),,,,silence,,,,--- ---- ------ --- ------- ---------- ------- ----------<br>--- --------- --- ----------- ------- ----- ------- ---<br>--------- ---- -- --- what -- --------- -- ---- -------<br>-- --------- ------ --- ----- ------ ---- --- --------- --<br>------ - ---- -- --- ----------- ------- ---- ----- -----<br>--- -------- - ------ ---- -- ----- ---- --- --- -----------<br>-- -------,196325.12499997392,196324.32000001427,195901.013,195914.01499998756,195917.264,196334.268,,20,what
screen,html.Screen,1_3_1_0_1_21,2021-04-11T09:14:03.333Z,,,,,,,,,,,,,,,,2,,,,,,,,,,,,,,408.0420000014419,,response,,,,1,A,,,,,,Space,keypress(Space),,,,silence,,,,--- ---- ------ --- ------- ---------- ------- ----------<br>--- --------- --- ----------- ------- ----- ------- ---<br>--------- ---- -- --- ---- he --------- -- ---- -------<br>-- --------- ------ --- ----- ------ ---- --- --------- --<br>------ - ---- -- --- ----------- ------- ---- ----- -----<br>--- -------- - ------ ---- -- ----- ---- --- --- -----------<br>-- -------,196743.11999999918,196742.31000000145,196317.226,196325.29499998782,196334.268,196750.729,,21,he
screen,html.Screen,1_3_1_0_1_22,2021-04-11T09:14:03.735Z,,,,,,,,,,,,,,,,2,,,,,,,,,,,,,,393.72599994327174,,response,,,,1,A,,,,,,Space,keypress(Space),,,,silence,,,,--- ---- ------ --- ------- ---------- ------- ----------<br>--- --------- --- ----------- ------- ----- ------- ---<br>--------- ---- -- --- ---- -- described -- ---- -------<br>-- --------- ------ --- ----- ------ ---- --- --------- --<br>------ - ---- -- --- ----------- ------- ---- ----- -----<br>--- -------- - ------ ---- -- ----- ---- --- --- -----------<br>-- -------,197145.29999997467,197144.45499994326,196733.811,196743.29000001308,196750.729,197150.402,,22,described
screen,html.Screen,1_3_1_0_1_23,2021-04-11T09:14:04.128Z,,,,,,,,,,,,,,,,2,,,,,,,,,,,,,,387.5529999488499,,response,,,,1,A,,,,,,Space,keypress(Space),,,,silence,,,,--- ---- ------ --- ------- ---------- ------- ----------<br>--- --------- --- ----------- ------- ----- ------- ---<br>--------- ---- -- --- ---- -- --------- as ---- -------<br>-- --------- ------ --- ----- ------ ---- --- --------- --<br>------ - ---- -- --- ----------- ------- ---- ----- -----<br>--- -------- - ------ ---- -- ----- ---- --- --- -----------<br>-- -------,197538.77999994438,197537.95499994885,197134.083,197145.46999998856,197150.402,197550.345,,23,as
screen,html.Screen,1_3_1_0_1_24,2021-04-11T09:14:04.495Z,,,,,,,,,,,,,,,,2,,,,,,,,,,,,,,354.26499996866914,,response,,,,1,A,,,,,,Space,keypress(Space),,,,silence,,,,"--- ---- ------ --- ------- ---------- ------- ----------<br>--- --------- --- ----------- ------- ----- ------- ---<br>--------- ---- -- --- ---- -- --------- -- ""two -------<br>-- --------- ------ --- ----- ------ ---- --- --------- --<br>------ - ---- -- --- ----------- ------- ---- ----- -----<br>--- -------- - ------ ---- -- ----- ---- --- --- -----------<br>-- -------",197905.42999992613,197904.60999996867,197534.03,197538.94999995828,197550.345,197917.42,,24,"""two"
screen,html.Screen,1_3_1_0_1_25,2021-04-11T09:14:04.862Z,,,,,,,,,,,,,,,,2,,,,,,,,,,,,,,354.53999992544414,,response,,,,1,A,,,,,,Space,keypress(Space),,,,silence,,,,--- ---- ------ --- ------- ---------- ------- ----------<br>--- --------- --- ----------- ------- ----- ------- ---<br>--------- ---- -- --- ---- -- --------- -- ---- patches<br>-- --------- ------ --- ----- ------ ---- --- --------- --<br>------ - ---- -- --- ----------- ------- ---- ----- -----<br>--- -------- - ------ ---- -- ----- ---- --- --- -----------<br>-- -------,198272.78999995906,198271.95999992546,197900.616,197905.61000001617,197917.42,198283.969,,25,patches
screen,html.Screen,1_3_1_0_1_26,2021-04-11T09:14:05.222Z,,,,,,,,,,,,,,,,2,,,,,,,,,,,,,,347.71600002938067,,response,,,,1,A,,,,,,Space,keypress(Space),,,,silence,,,,--- ---- ------ --- ------- ---------- ------- ----------<br>--- --------- --- ----------- ------- ----- ------- ---<br>--------- ---- -- --- ---- -- --------- -- ---- -------<br>of --------- ------ --- ----- ------ ---- --- --------- --<br>------ - ---- -- --- ----------- ------- ---- ----- -----<br>--- -------- - ------ ---- -- ----- ---- --- --- -----------<br>-- -------,198632.54000002053,198631.6850000294,198267.365,198272.96500001103,198283.969,198655.414,,26,of
screen,html.Screen,1_3_1_0_1_27,2021-04-11T09:14:05.579Z,,,,,,,,,,,,,,,,2,,,,,,,,,,,,,,333.770999954897,,response,,,,1,A,,,,,,Space,keypress(Space),,,,silence,,,,--- ---- ------ --- ------- ---------- ------- ----------<br>--- --------- --- ----------- ------- ----- ------- ---<br>--------- ---- -- --- ---- -- --------- -- ---- -------<br>-- intensely ------ --- ----- ------ ---- --- --------- --<br>------ - ---- -- --- ----------- ------- ---- ----- -----<br>--- -------- - ------ ---- -- ----- ---- --- --- -----------<br>-- -------,198989.89999992773,198989.1849999549,198617.306,198632.74999998976,198655.414,199000.638,,27,intensely
screen,html.Screen,1_3_1_0_1_28,2021-04-11T09:14:05.972Z,,,,,,,,,,,,,,,,2,,,,,,,,,,,,,,380.8069999481377,,response,,,,1,A,,,,,,Space,keypress(Space),,,,silence,,,,--- ---- ------ --- ------- ---------- ------- ----------<br>--- --------- --- ----------- ------- ----- ------- ---<br>--------- ---- -- --- ---- -- --------- -- ---- -------<br>-- --------- bright --- ----- ------ ---- --- --------- --<br>------ - ---- -- --- ----------- ------- ---- ----- -----<br>--- -------- - ------ ---- -- ----- ---- --- --- -----------<br>-- -------,199382.33499997295,199381.44499994814,198983.627,198990.0899999775,199000.638,199406.044,,28,bright
screen,html.Screen,1_3_1_0_1_29,2021-04-11T09:14:06.300Z,,,,,,,,,,,,,,,,2,,,,,,,,,,,,,,303.3810000082012,,response,,,,1,A,,,,,,Space,keypress(Space),,,,silence,,,,--- ---- ------ --- ------- ---------- ------- ----------<br>--- --------- --- ----------- ------- ----- ------- ---<br>--------- ---- -- --- ---- -- --------- -- ---- -------<br>-- --------- ------ and ----- ------ ---- --- --------- --<br>------ - ---- -- --- ----------- ------- ---- ----- -----<br>--- -------- - ------ ---- -- ----- ---- --- --- -----------<br>-- -------,199710.24499996565,199709.4250000082,199367.224,199382.51499994658,199406.044,199716.855,,29,and
screen,html.Screen,1_3_1_0_1_30,2021-04-11T09:14:06.671Z,,,,,,,,,,,,,,,,2,,,,,,,,,,,,,,364.029999944818,,response,,,,1,A,,,,,,Space,keypress(Space),,,,silence,,,,--- ---- ------ --- ------- ---------- ------- ----------<br>--- --------- --- ----------- ------- ----- ------- ---<br>--------- ---- -- --- ---- -- --------- -- ---- -------<br>-- --------- ------ --- white ------ ---- --- --------- --<br>------ - ---- -- --- ----------- ------- ---- ----- -----<br>--- -------- - ------ ---- -- ----- ---- --- --- -----------<br>-- -------,200081.69499994256,200080.88499994483,199700.413,199710.42000001762,199716.855,200086.706,,30,white
screen,html.Screen,1_3_1_0_1_31,2021-04-11T09:14:07.004Z,,,,,,,,,,,,,,,,2,,,,,,,,,,,,,,327.1890000051353,,response,,,,1,A,,,,,,Space,keypress(Space),,,,silence,,,,"--- ---- ------ --- ------- ---------- ------- ----------<br>--- --------- --- ----------- ------- ----- ------- ---<br>--------- ---- -- --- ---- -- --------- -- ---- -------<br>-- --------- ------ --- ----- light"" ---- --- --------- --<br>------ - ---- -- --- ----------- ------- ---- ----- -----<br>--- -------- - ------ ---- -- ----- ---- --- --- -----------<br>-- -------",200414.77000003215,200413.89500000514,200067.026,200081.86499995645,200086.706,200416.702,,31,"light"""
screen,html.Screen,1_3_1_0_1_32,2021-04-11T09:14:07.389Z,,,,,,,,,,,,,,,,2,,,,,,,,,,,,,,381.99799992662156,,response,,,,1,A,,,,,,Space,keypress(Space),,,,silence,,,,--- ---- ------ --- ------- ---------- ------- ----------<br>--- --------- --- ----------- ------- ----- ------- ---<br>--------- ---- -- --- ---- -- --------- -- ---- -------<br>-- --------- ------ --- ----- ------ over --- --------- --<br>------ - ---- -- --- ----------- ------- ---- ----- -----<br>--- -------- - ------ ---- -- ----- ---- --- --- -----------<br>-- -------,200799.57499995362,200798.6999999266,200400.33,200414.96500000358,200416.702,200833.657,,32,over
screen,html.Screen,1_3_1_0_1_33,2021-04-11T09:14:07.715Z,,,,,,,,,,,,,,,,2,,,,,,,,,,,,,,290.90300002566073,,response,,,,1,A,,,,,,Space,keypress(Space),,,,silence,,,,--- ---- ------ --- ------- ---------- ------- ----------<br>--- --------- --- ----------- ------- ----- ------- ---<br>--------- ---- -- --- ---- -- --------- -- ---- -------<br>-- --------- ------ --- ----- ------ ---- the --------- --<br>------ - ---- -- --- ----------- ------- ---- ----- -----<br>--- -------- - ------ ---- -- ----- ---- --- --- -----------<br>-- -------,201125.42499997653,201124.56000002567,200816.729,200799.7800000012,200833.657,201133.581,,33,the
screen,html.Screen,1_3_1_0_1_34,2021-04-11T09:14:08.038Z,,,,,,,,,,,,,,,,2,,,,,,,,,,,,,,313.8140000246931,,response,,,,1,A,,,,,,Space,keypress(Space),,,,silence,,,,--- ---- ------ --- ------- ---------- ------- ----------<br>--- --------- --- ----------- ------- ----- ------- ---<br>--------- ---- -- --- ---- -- --------- -- ---- -------<br>-- --------- ------ --- ----- ------ ---- --- sunspots. --<br>------ - ---- -- --- ----------- ------- ---- ----- -----<br>--- -------- - ------ ---- -- ----- ---- --- --- -----------<br>-- -------,201448.28000001144,201447.3950000247,201117.026,201125.60999998823,201133.581,201467.105,,34,sunspots.
screen,html.Screen,1_3_1_0_1_35,2021-04-11T09:14:08.436Z,,,,,,,,,,,,,,,,2,,,,,,,,,,,,,,378.8549999477982,,response,,,,1,A,,,,,,Space,keypress(Space),,,,silence,,,,--- ---- ------ --- ------- ---------- ------- ----------<br>--- --------- --- ----------- ------- ----- ------- ---<br>--------- ---- -- --- ---- -- --------- -- ---- -------<br>-- --------- ------ --- ----- ------ ---- --- --------- He<br>------ - ---- -- --- ----------- ------- ---- ----- -----<br>--- -------- - ------ ---- -- ----- ---- --- --- -----------<br>-- -------,201846.85999993235,201845.9599999478,201433.231,201448.46500002313,201467.105,201849.805,,35,He
screen,html.Screen,1_3_1_0_1_36,2021-04-11T09:14:08.779Z,,,,,,,,,,,,,,,,2,,,,,,,,,,,,,,338.7949999940465,,response,,,,1,A,,,,,,Space,keypress(Space),,,,silence,,,,--- ---- ------ --- ------- ---------- ------- ----------<br>--- --------- --- ----------- ------- ----- ------- ---<br>--------- ---- -- --- ---- -- --------- -- ---- -------<br>-- --------- ------ --- ----- ------ ---- --- --------- --<br>jotted - ---- -- --- ----------- ------- ---- ----- -----<br>--- -------- - ------ ---- -- ----- ---- --- --- -----------<br>-- -------,202189.4799999427,202188.59999999404,201833.499,201847.04999998212,201849.805,202200.212,,36,jotted
screen,html.Screen,1_3_1_0_1_37,2021-04-11T09:14:09.120Z,,,,,,,,,,,,,,,,2,,,,,,,,,,,,,,329.4830000338261,,response,,,,1,A,,,,,,Space,keypress(Space),,,,silence,,,,--- ---- ------ --- ------- ---------- ------- ----------<br>--- --------- --- ----------- ------- ----- ------- ---<br>--------- ---- -- --- ---- -- --------- -- ---- -------<br>-- --------- ------ --- ----- ------ ---- --- --------- --<br>------ a ---- -- --- ----------- ------- ---- ----- -----<br>--- -------- - ------ ---- -- ----- ---- --- --- -----------<br>-- -------,202530.5599999847,202529.69500003383,202183.415,202189.6499999566,202200.212,202533.076,,37,a
