sender,sender_type,sender_id,timestamp,meta,,Blues,Classical,Country,Dance,Electronic,Folk,Gospel,Hip-Hop,Jazz,Latin,Musical/Film,New-age,Pop,Provo_ID,R&B,Rap,Reggae,Religious,Rock,Soul,Swing,Traditional,age,artist_name,correct,correctResponse,distraction,duration,education,ended_on,familiarity,gender,headphone_check_performance,item,list,music_frequency,offensiveness,pleasantness,position_correct,preference,response,response_action,snippet_file,song_name,song_rating,sound,stimulus_1,stimulus_2,stimulus_3,text,time_commit,time_end,time_render,time_run,time_show,time_switch,url,word,word_ID
Introduction,html.Screen,0_0,2021-04-15T17:06:14.694Z,"{""labjs_version"":""20.2.2"",""labjs_build"":{""flavor"":""production"",""commit"":""a25486e0c714a0ae2ce03ff94b7bb6896854dcfa""},""location"":""https://run.pavlovia.org/mvasilev/music_b/"",""userAgent"":""Mozilla/5.0 (Windows NT 10.0; Win64; x64) AppleWebKit/537.36 (KHTML, like Gecko) Chrome/89.0.4389.128 Safari/537.36"",""platform"":""Win32"",""language"":""en-US"",""locale"":""en-US"",""timeZone"":""Europe/London"",""timezoneOffset"":-60,""screen_width"":1536,""screen_height"":864,""scroll_width"":1536,""scroll_height"":674,""window_innerWidth"":1536,""window_innerHeight"":722,""devicePixelRatio"":1.25}",,,,,,,,,,,,,,,,,,,,,,,,,,,,,4879.533999892414,,response,,,,,,,,,,,continue,click button,,,,,,,,,7697.455000132322,7694.854999892414,2798.916,2802.399999462068,2815.321,7697.952,{},,
Volume calibration,html.Screen,0_1,2021-04-15T17:06:20.414Z,,,,,,,,,,,,,,,,,,,,,,,,,,,,,,5714.412999763667,,response,,,,,,,,,,,continue,click button,,,,,,,,,13416.840000078082,13412.364999763668,7681.23,7697.9199992492795,7697.952,13430.658,,,
Task instructions,html.Screen,0_2,2021-04-15T17:06:30.362Z,,,,,,,,,,,,,,,,,,,,,,,,,,,,,,9933.096999823869,,response,,,,,,,,,,,continue,click button,,,,,,,,,23365.089999511838,23363.75499982387,13397.331,13417.109999805689,13430.658,23378.79,,,
Sounds,html.Screen,0_3_0_0,2021-04-15T17:06:34.614Z,,,,,,,,,,,,,,,,,,,,,,,,,,,,,,4249.234,,timeout,,,,,,,,,2,,,,,,,,I,S,O,,27616.859999485314,27611.39,23362.385,23368.909999728203,23378.79,27628.024,,,
Judgement,html.Screen,0_3_0_1,2021-04-15T17:06:35.532Z,,,,,,,,,,,,,,,,,,,,,,,,,,,true,2,,905.5159992763984,,response,,,,,,,,,2,,2,click #choice-2,,,,,I,S,O,,28534.904999658465,28533.5399992764,27611.39,27617.174999788404,27628.024,28544.741,,,
Trial,flow.Sequence,0_3_0,2021-04-15T17:06:35.532Z,,,,,,,,,,,,,,,,,,,,,,,,,,,,,,5154.749999276399,,completion,,,,,,,,,2,,,,,,,,I,S,O,,28535.449999384582,28533.5399992764,23362.385,23368.824999779463,23378.79,28544.741,,,
Sounds,html.Screen,0_3_1_0,2021-04-15T17:06:39.776Z,,,,,,,,,,,,,,,,,,,,,,,,,,,,,,4249.148000000001,,timeout,,,,,,,,,1,,,,,,,,S,I,O,,32778.6299996078,32777.226,28528.097,28535.709999501705,28544.741,32793.889,,,
Judgement,html.Screen,0_3_1_1,2021-04-15T17:06:40.403Z,,,,,,,,,,,,,,,,,,,,,,,,,,,true,1,,611.1009997189612,,response,,,,,,,,,1,,1,click #choice-1,,,,,S,I,O,,33406.16500005126,33404.989999718964,32777.226,32778.85999996215,32793.889,33410.321,,,
Trial,flow.Sequence,0_3_1,2021-04-15T17:06:40.403Z,,,,,,,,,,,,,,,,,,,,,,,,,,,,,,4860.248999718962,,completion,,,,,,,,,1,,,,,,,,S,I,O,,33406.51000011712,33404.989999718964,28528.097,28535.644999705255,28544.741,33410.321,,,
Sounds,html.Screen,0_3_2_0,2021-04-15T17:06:44.641Z,,,,,,,,,,,,,,,,,,,,,,,,,,,,,,4249.445999999996,,timeout,,,,,,,,,1,,,,,,,,S,O,I,,37644.45499982685,37643.264,33394.044,33406.75999969244,33410.321,37659.767,,,
Judgement,html.Screen,0_3_2_1,2021-04-15T17:06:46.004Z,,,,,,,,,,,,,,,,,,,,,,,,,,,true,1,,1345.4829994635584,,response,,,,,,,,,1,,1,click #choice-1,,,,,S,O,I,,39006.804999895394,39005.24999946356,37643.264,37644.66500002891,37659.767,39009.567,,,
Trial,flow.Sequence,0_3_2,2021-04-15T17:06:46.004Z,,,,,,,,,,,,,,,,,,,,,,,,,,,,,,5594.928999463555,,completion,,,,,,,,,1,,,,,,,,S,O,I,,39007.124999538064,39005.24999946356,33394.044,33406.68999962509,33410.321,39009.567,,,
Sounds,html.Screen,0_3_3_0,2021-04-15T17:06:50.240Z,,,,,,,,,,,,,,,,,,,,,,,,,,,,,,4249.453999999998,,timeout,,,,,,,,,3,,,,,,,,I,O,S,,43243.02999954671,43242.295,38992.842,39007.34499935061,39009.567,43259.021,,,
Judgement,html.Screen,0_3_3_1,2021-04-15T17:06:51.367Z,,,,,,,,,,,,,,,,,,,,,,,,,,,true,3,,1110.698999842345,,response,,,,,,,,,3,,3,click #choice-3,,,,,I,O,S,,44370.41499931365,44369.719999842346,43242.295,43243.10499988496,43259.021,44375.396,,,
Trial,flow.Sequence,0_3_3,2021-04-15T17:06:51.367Z,,,,,,,,,,,,,,,,,,,,,,,,,,,,,,5360.152999842343,,completion,,,,,,,,,3,,,,,,,,I,O,S,,44370.52999995649,44369.719999842346,38992.842,39007.26999994367,39009.567,44375.396,,,
Sounds,html.Screen,0_3_4_0,2021-04-15T17:06:55.606Z,,,,,,,,,,,,,,,,,,,,,,,,,,,,,,4249.3499999999985,,timeout,,,,,,,,,2,,,,,,,,O,S,I,,48608.81999973208,48608.096,44359.011,44370.60499936342,44375.396,48624.746,,,
Judgement,html.Screen,0_3_4_1,2021-04-15T17:06:56.203Z,,,,,,,,,,,,,,,,,,,,,,,,,,,true,2,,579.8389999412902,,response,,,,,,,,,2,,2,click #choice-2,,,,,O,S,I,,49205.849999561906,49204.58499994129,48608.096,48608.939999714494,48624.746,49207.834,,,
Trial,flow.Sequence,0_3_4,2021-04-15T17:06:56.203Z,,,,,,,,,,,,,,,,,,,,,,,,,,,,,,4829.188999941289,,completion,,,,,,,,,2,,,,,,,,O,S,I,,49206.32999949157,49204.58499994129,44359.011,44370.585000142455,44375.396,49207.834,,,
Sounds,html.Screen,0_3_5_0,2021-04-15T17:07:00.439Z,,,,,,,,,,,,,,,,,,,,,,,,,,,,,,4249.860999999997,,timeout,,,,,,,,,3,,,,,,,,O,I,S,,53441.80499948561,53440.973,49191.656,49206.40499982983,49207.834,53457.695,,,
Judgement,html.Screen,0_3_5_1,2021-04-15T17:07:01.190Z,,,,,,,,,,,,,,,,,,,,,,,,,,,true,3,,734.0949996042254,,response,,,,,,,,,3,,3,click #choice-3,,,,,O,I,S,,54193.15999932587,54191.789999604225,53440.973,53442.024999298155,53457.695,54207.097,,,
Trial,flow.Sequence,0_3_5,2021-04-15T17:07:01.191Z,,,,,,,,,,,,,,,,,,,,,,,,,,,,,,4983.955999604223,,completion,,,,,,,,,3,,,,,,,,O,I,S,,54193.544999696314,54191.789999604225,49191.656,49206.379999406636,49207.834,54207.097,,,
Task,flow.Loop,0_3,2021-04-15T17:07:01.196Z,,,,,,,,,,,,,,,,,,,,,,,,,,,,,,30812.999999604224,,completion,,,1,,,,,,,,,,,,,,,,,,54198.884999379516,54191.789999604225,23362.385,23368.719999678433,23378.79,54207.097,,,
Trap,html.Screen,0_4,2021-04-15T17:07:01.197Z,,,,,,,,,,,,,,,,,,,,,,,,,,,,,,NaN,,skipped,,,,,,,,,,,,,,,,,,,,,54200.2400001511,54191.789999604225,,54200.11999923736,,54207.097,,,
Thanks,html.Screen,0_5,2021-04-15T17:07:07.226Z,,,,,,,,,,,,,,,,,,,,,,,,,,,,,,6021.042999322592,,response,,,,,,,,,,,continue,click button,,,,,,,,,60229.37999945134,60228.13999932259,54190.648,54200.29499940574,54207.097,63272.188,,,
Headphone screening,flow.Sequence,0,2021-04-15T17:07:07.227Z,,,,,,,,,,,,,,,,,,,,,,,,,,,,,,57412.8189993226,,completion,,,,,,,,,,,,,,,,,,,,,60229.855000041425,60228.13999932259,2798.916,2802.379999309778,2815.321,63272.188,,,
Instructions,html.Page,1_0,2021-04-15T17:07:38.912Z,,,,,,,,,,,,,,,,,,,,,,,,,,,,,,28643.40699967843,,form submission,,,,,,,,,,,,,,,,,,,,,91915.97499977797,91915.59499967843,63255.516,63264.64499998838,63272.188,91917.629,,,
Holding screen,html.Screen,1_1_0_0,2021-04-15T17:07:48.897Z,,,,,,,,,,,,,,,,,,,,,,,,,,,,,,9998.300000000003,,timeout,,,,,,,,,,,,,,,,,,,,,101900.59500001371,101899.631,91901.145,91916.26499965787,91917.629,101915.929,,,
screen,html.Screen,1_1_0_1_0,2021-04-15T17:07:49.726Z,,,,,,,,,,,,,,,,53,,,,,,,,,,,,,,810.0659995204769,,response,,,,99,,,,,,,Space,keypress(Space),,,,,,,,When -- ----- -- ------ - ------- --- ----------<br>------------- ------ ------ ---- ---- ------- ----- -- ----<br>-------- ------- -- ---------- --- - --- ----- ----- ----<br>---- --- --- ----- --- ---- ---- ------- ----- ---- -------<br>--- --- -- ----- -- --- ---- -- --- ---- -- ------ ------<br>--- ----- -- ----,102729.82000000775,102725.99499952048,101899.631,101900.94000007957,101915.929,102732.569,,0,When
screen,html.Screen,1_1_0_1_1,2021-04-15T17:07:50.437Z,,,,,,,,,,,,,,,,53,,,,,,,,,,,,,,707.1510001403658,,response,,,,99,,,,,,,Space,keypress(Space),,,,,,,,---- it ----- -- ------ - ------- --- ----------<br>------------- ------ ------ ---- ---- ------- ----- -- ----<br>-------- ------- -- ---------- --- - --- ----- ----- ----<br>---- --- --- ----- --- ---- ---- ------- ----- ---- -------<br>--- --- -- ----- -- --- ---- -- --- ---- -- ------ ------<br>--- ----- -- ----,103440.539999865,103439.72000014037,102716.199,102730.05499970168,102732.569,103449.274,,1,it
screen,html.Screen,1_1_0_1_2,2021-04-15T17:07:51.020Z,,,,,,,,,,,,,,,,53,,,,,,,,,,,,,,573.2960000300955,,response,,,,99,,,,,,,Space,keypress(Space),,,,,,,,---- -- comes -- ------ - ------- --- ----------<br>------------- ------ ------ ---- ---- ------- ----- -- ----<br>-------- ------- -- ---------- --- - --- ----- ----- ----<br>---- --- --- ----- --- ---- ---- ------- ----- ---- -------<br>--- --- -- ----- -- --- ---- -- --- ---- -- ------ ------<br>--- ----- -- ----,104023.44999928027,104022.5700000301,103432.737,103440.73999952525,103449.274,104032.434,,2,comes
screen,html.Screen,1_1_0_1_3,2021-04-15T17:07:51.612Z,,,,,,,,,,,,,,,,53,,,,,,,,,,,,,,582.4009996656241,,response,,,,99,,,,,,,Space,keypress(Space),,,,,,,,---- -- ----- to ------ - ------- --- ----------<br>------------- ------ ------ ---- ---- ------- ----- -- ----<br>-------- ------- -- ---------- --- - --- ----- ----- ----<br>---- --- --- ----- --- ---- ---- ------- ----- ---- -------<br>--- --- -- ----- -- --- ---- -- --- ---- -- ------ ------<br>--- ----- -- ----,104615.66499993205,104614.83499966562,104016.01,104023.63999933004,104032.434,104632.527,,3,to
screen,html.Screen,1_1_0_1_4,2021-04-15T17:07:52.151Z,,,,,,,,,,,,,,,,53,,,,,,,,,,,,,,520.8629996429663,,response,,,,99,,,,,,,Space,keypress(Space),,,,,,,,---- -- ----- -- having - ------- --- ----------<br>------------- ------ ------ ---- ---- ------- ----- -- ----<br>-------- ------- -- ---------- --- - --- ----- ----- ----<br>---- --- --- ----- --- ---- ---- ------- ----- ---- -------<br>--- --- -- ----- -- --- ---- -- --- ---- -- ------ ------<br>--- ----- -- ----,105154.23499979079,105153.38999964297,104615.733,104615.8649995923,104632.527,105165.614,,4,having
screen,html.Screen,1_1_0_1_5,2021-04-15T17:07:52.654Z,,,,,,,,,,,,,,,,53,,,,,,,,,,,,,,491.22599937027553,,response,,,,99,,,,,,,Space,keypress(Space),,,,,,,,---- -- ----- -- ------ a ------- --- ----------<br>------------- ------ ------ ---- ---- ------- ----- -- ----<br>-------- ------- -- ---------- --- - --- ----- ----- ----<br>---- --- --- ----- --- ---- ---- ------- ----- ---- -------<br>--- --- -- ----- -- --- ---- -- --- ---- -- ------ ------<br>--- ----- -- ----,105657.67499990761,105656.83999937028,105149.139,105154.43000011146,105165.614,105665.429,,5,a
screen,html.Screen,1_1_0_1_6,2021-04-15T17:07:53.318Z,,,,,,,,,,,,,,,,53,,,,,,,,,,,,,,655.3309995657764,,response,,,,99,,,,,,,Space,keypress(Space),,,,,,,,---- -- ----- -- ------ - lasting --- ----------<br>------------- ------ ------ ---- ---- ------- ----- -- ----<br>-------- ------- -- ---------- --- - --- ----- ----- ----<br>---- --- --- ----- --- ---- ---- ------- ----- ---- -------<br>--- --- -- ----- -- --- ---- -- --- ---- -- ------ ------<br>--- ----- -- ----,106321.52999937534,106320.75999956578,105648.889,105657.87999983877,105665.429,106332.307,,6,lasting
screen,html.Screen,1_1_0_1_7,2021-04-15T17:07:53.930Z,,,,,,,,,,,,,,,,53,,,,,,,,,,,,,,600.2079999931448,,response,,,,99,,,,,,,Space,keypress(Space),,,,,,,,---- -- ----- -- ------ - ------- and ----------<br>------------- ------ ------ ---- ---- ------- ----- -- ----<br>-------- ------- -- ---------- --- - --- ----- ----- ----<br>---- --- --- ----- --- ---- ---- ------- ----- ---- -------<br>--- --- -- ----- -- --- ---- -- --- ---- -- ------ ------<br>--- ----- -- ----,106933.30999929458,106932.51499999315,106315.698,106321.70499954373,106332.307,106948.546,,7,and
screen,html.Screen,1_1_0_1_8,2021-04-15T17:07:54.524Z,,,,,,,,,,,,,,,,53,,,,,,,,,,,,,,578.2289996855834,,response,,,,99,,,,,,,Space,keypress(Space),,,,,,,,---- -- ----- -- ------ - ------- --- fulfilling<br>------------- ------ ------ ---- ---- ------- ----- -- ----<br>-------- ------- -- ---------- --- - --- ----- ----- ----<br>---- --- --- ----- --- ---- ---- ------- ----- ---- -------<br>--- --- -- ----- -- --- ---- -- --- ---- -- ------ ------<br>--- ----- -- ----,107527.55999937654,107526.77499968559,106932.089,106933.50999988616,106948.546,107531.743,,8,fulfilling
screen,html.Screen,1_1_0_1_9,2021-04-15T17:07:55.095Z,,,,,,,,,,,,,,,,53,,,,,,,,,,,,,,565.9419999278762,,response,,,,99,,,,,,,Space,keypress(Space),,,,,,,,"---- -- ----- -- ------ - ------- --- ----------<br>relationship, ------ ------ ---- ---- ------- ----- -- ----<br>-------- ------- -- ---------- --- - --- ----- ----- ----<br>---- --- --- ----- --- ---- ---- ------- ----- ---- -------<br>--- --- -- ----- -- --- ---- -- --- ---- -- ------ ------<br>--- ----- -- ----",108098.51999953389,108097.68499992788,107515.501,107527.75499969721,107531.743,108115.379,,9,"relationship,"
screen,html.Screen,1_1_0_1_10,2021-04-15T17:07:55.637Z,,,,,,,,,,,,,,,,53,,,,,,,,,,,,,,524.4009998521797,,response,,,,99,,,,,,,Space,keypress(Space),,,,,,,,---- -- ----- -- ------ - ------- --- ----------<br>------------- common ------ ---- ---- ------- ----- -- ----<br>-------- ------- -- ---------- --- - --- ----- ----- ----<br>---- --- --- ----- --- ---- ---- ------- ----- ---- -------<br>--- --- -- ----- -- --- ---- -- --- ---- -- ------ ------<br>--- ----- -- ----,108640.6149994582,108639.77999985218,108098.594,108098.72000012547,108115.379,108648.32,,10,common
screen,html.Screen,1_1_0_1_11,2021-04-15T17:07:56.196Z,,,,,,,,,,,,,,,,53,,,,,,,,,,,,,,550.4799994307687,,response,,,,99,,,,,,,Space,keypress(Space),,,,,,,,---- -- ----- -- ------ - ------- --- ----------<br>------------- ------ wisdom ---- ---- ------- ----- -- ----<br>-------- ------- -- ---------- --- - --- ----- ----- ----<br>---- --- --- ----- --- ---- ---- ------- ----- ---- -------<br>--- --- -- ----- -- --- ---- -- --- ---- -- ------ ------<br>--- ----- -- ----,109199.50499944389,109198.79999943078,108631.75,108640.81999938935,108648.32,109215.217,,11,wisdom
screen,html.Screen,1_1_0_1_12,2021-04-15T17:07:56.773Z,,,,,,,,,,,,,,,,53,,,,,,,,,,,,,,560.8430000619846,,response,,,,99,,,,,,,Space,keypress(Space),,,,,,,,---- -- ----- -- ------ - ------- --- ----------<br>------------- ------ ------ says ---- ------- ----- -- ----<br>-------- ------- -- ---------- --- - --- ----- ----- ----<br>---- --- --- ----- --- ---- ---- ------- ----- ---- -------<br>--- --- -- ----- -- --- ---- -- --- ---- -- ------ ------<br>--- ----- -- ----,109777.00999937952,109776.06000006199,109198.261,109199.70500003546,109215.217,109781.503,,12,says
screen,html.Screen,1_1_0_1_13,2021-04-15T17:07:57.207Z,,,,,,,,,,,,,,,,53,,,,,,,,,,,,,,427.701999729994,,response,,,,99,,,,,,,Space,keypress(Space),,,,,,,,---- -- ----- -- ------ - ------- --- ----------<br>------------- ------ ------ ---- that ------- ----- -- ----<br>-------- ------- -- ---------- --- - --- ----- ----- ----<br>---- --- --- ----- --- ---- ---- ------- ----- ---- -------<br>--- --- -- ----- -- --- ---- -- --- ---- -- ------ ------<br>--- ----- -- ----,110210.11499967426,110209.20499972999,109765.129,109777.20999997109,109781.503,110214.606,,13,that
screen,html.Screen,1_1_0_1_14,2021-04-15T17:07:57.679Z,,,,,,,,,,,,,,,,53,,,,,,,,,,,,,,466.6139996784332,,response,,,,99,,,,,,,Space,keypress(Space),,,,,,,,---- -- ----- -- ------ - ------- --- ----------<br>------------- ------ ------ ---- ---- feeling ----- -- ----<br>-------- ------- -- ---------- --- - --- ----- ----- ----<br>---- --- --- ----- --- ---- ---- ------- ----- ---- -------<br>--- --- -- ----- -- --- ---- -- --- ---- -- ------ ------<br>--- ----- -- ----,110682.08499997854,110681.21999967843,110198.366,110210.31499933451,110214.606,110698.366,,14,feeling
screen,html.Screen,1_1_0_1_15,2021-04-15T17:07:58.191Z,,,,,,,,,,,,,,,,53,,,,,,,,,,,,,,495.38899989837955,,response,,,,99,,,,,,,Space,keypress(Space),,,,,,,,---- -- ----- -- ------ - ------- --- ----------<br>------------- ------ ------ ---- ---- ------- close -- ----<br>-------- ------- -- ---------- --- - --- ----- ----- ----<br>---- --- --- ----- --- ---- ---- ------- ----- ---- -------<br>--- --- -- ----- -- --- ---- -- --- ---- -- ------ ------<br>--- ----- -- ----,111194.68999933451,111193.75499989837,110681.509,110682.2799993679,110698.366,111197.807,,15,close
screen,html.Screen,1_1_0_1_16,2021-04-15T17:07:58.630Z,,,,,,,,,,,,,,,,53,,,,,,,,,,,,,,435.33299958336283,,response,,,,99,,,,,,,Space,keypress(Space),,,,,,,,---- -- ----- -- ------ - ------- --- ----------<br>------------- ------ ------ ---- ---- ------- ----- to ----<br>-------- ------- -- ---------- --- - --- ----- ----- ----<br>---- --- --- ----- --- ---- ---- ------- ----- ---- -------<br>--- --- -- ----- -- --- ---- -- --- ---- -- ------ ------<br>--- ----- -- ----,111633.9499996975,111633.13999958336,111181.595,111194.89999953657,111197.807,111647.751,,16,to
screen,html.Screen,1_1_0_1_17,2021-04-15T17:07:59.387Z,,,,,,,,,,,,,,,,53,,,,,,,,,,,,,,742.4290001040063,,response,,,,99,,,,,,,Space,keypress(Space),,,,,,,,---- -- ----- -- ------ - ------- --- ----------<br>------------- ------ ------ ---- ---- ------- ----- -- your<br>-------- ------- -- ---------- --- - --- ----- ----- ----<br>---- --- --- ----- --- ---- ---- ------- ----- ---- -------<br>--- --- -- ----- -- --- ---- -- --- ---- -- ------ ------<br>--- ----- -- ----,112390.93999937177,112390.18000010401,111631.353,111634.13999974728,111647.751,112397.578,,17,your
screen,html.Screen,1_1_0_1_18,2021-04-15T17:07:59.920Z,,,,,,,,,,,,,,,,53,,,,,,,,,,,,,,525.571999231106,,response,,,,99,,,,,,,Space,keypress(Space),,,,,,,,---- -- ----- -- ------ - ------- --- ----------<br>------------- ------ ------ ---- ---- ------- ----- -- ----<br>romantic ------- -- ---------- --- - --- ----- ----- ----<br>---- --- --- ----- --- ---- ---- ------- ----- ---- -------<br>--- --- -- ----- -- --- ---- -- --- ---- -- ------ ------<br>--- ----- -- ----,112924.0399999544,112923.1499992311,112381.148,112391.11999981105,112397.578,112931.067,,18,romantic
screen,html.Screen,1_1_0_1_19,2021-04-15T17:08:00.460Z,,,,,,,,,,,,,,,,53,,,,,,,,,,,,,,532.0929998101637,,response,,,,99,,,,,,,Space,keypress(Space),,,,,,,,---- -- ----- -- ------ - ------- --- ----------<br>------------- ------ ------ ---- ---- ------- ----- -- ----<br>-------- partner -- ---------- --- - --- ----- ----- ----<br>---- --- --- ----- --- ---- ---- ------- ----- ---- -------<br>--- --- -- ----- -- --- ---- -- --- ---- -- ------ ------<br>--- ----- -- ----,113463.98499980569,113463.15999981016,112914.772,112924.21500012279,112931.067,113480.826,,19,partner
screen,html.Screen,1_1_0_1_20,2021-04-15T17:08:00.889Z,,,,,,,,,,,,,,,,53,,,,,,,,,,,,,,411.1539998402586,,response,,,,99,,,,,,,Space,keypress(Space),,,,,,,,---- -- ----- -- ------ - ------- --- ----------<br>------------- ------ ------ ---- ---- ------- ----- -- ----<br>-------- ------- is ---------- --- - --- ----- ----- ----<br>---- --- --- ----- --- ---- ---- ------- ----- ---- -------<br>--- --- -- ----- -- --- ---- -- --- ---- -- ------ ------<br>--- ----- -- ----,113892.75499992073,113891.97999984026,113464.449,113464.16499931365,113480.826,113897.404,,20,is
screen,html.Screen,1_1_0_1_21,2021-04-15T17:08:01.831Z,,,,,,,,,,,,,,,,53,,,,,,,,,,,,,,936.1959995470097,,response,,,,99,,,,,,,Space,keypress(Space),,,,,,,,---- -- ----- -- ------ - ------- --- ----------<br>------------- ------ ------ ---- ---- ------- ----- -- ----<br>-------- ------- -- paramount. --- - --- ----- ----- ----<br>---- --- --- ----- --- ---- ---- ------- ----- ---- -------<br>--- --- -- ----- -- --- ---- -- --- ---- -- ------ ------<br>--- ----- -- ----,114834.41999927163,114833.599999547,113880.925,113892.95499958098,113897.404,114847.511,,21,paramount.
screen,html.Screen,1_1_0_1_22,2021-04-15T17:08:02.364Z,,,,,,,,,,,,,,,,53,,,,,,,,,,,,,,518.8689995556488,,response,,,,99,,,,,,,Space,keypress(Space),,,,,,,,---- -- ----- -- ------ - ------- --- ----------<br>------------- ------ ------ ---- ---- ------- ----- -- ----<br>-------- ------- -- ---------- But - --- ----- ----- ----<br>---- --- --- ----- --- ---- ---- ------- ----- ---- -------<br>--- --- -- ----- -- --- ---- -- --- ---- -- ------ ------<br>--- ----- -- ----,115367.1949999407,115366.37999955565,114831.027,114834.62500013411,114847.511,115380.721,,22,But
screen,html.Screen,1_1_0_1_23,2021-04-15T17:08:02.905Z,,,,,,,,,,,,,,,,53,,,,,,,,,,,,,,527.1990001433442,,response,,,,99,,,,,,,Space,keypress(Space),,,,,,,,---- -- ----- -- ------ - ------- --- ----------<br>------------- ------ ------ ---- ---- ------- ----- -- ----<br>-------- ------- -- ---------- --- a --- ----- ----- ----<br>---- --- --- ----- --- ---- ---- ------- ----- ---- -------<br>--- --- -- ----- -- --- ---- -- --- ---- -- ------ ------<br>--- ----- -- ----,115908.62999949604,115907.92000014335,115364.181,115367.38499999046,115380.721,115913.856,,23,a
screen,html.Screen,1_1_0_1_24,2021-04-15T17:08:03.422Z,,,,,,,,,,,,,,,,53,,,,,,,,,,,,,,511.56399928653263,,response,,,,99,,,,,,,Space,keypress(Space),,,,,,,,---- -- ----- -- ------ - ------- --- ----------<br>------------- ------ ------ ---- ---- ------- ----- -- ----<br>-------- ------- -- ---------- --- - new ----- ----- ----<br>---- --- --- ----- --- ---- ---- ------- ----- ---- -------<br>--- --- -- ----- -- --- ---- -- --- ---- -- ------ ------<br>--- ----- -- ----,116426.02000012994,116425.41999928653,115897.297,115908.81499927491,115913.856,116430.506,,24,new
screen,html.Screen,1_1_0_1_25,2021-04-15T17:08:03.850Z,,,,,,,,,,,,,,,,53,,,,,,,,,,,,,,421.9539997326792,,response,,,,99,,,,,,,Space,keypress(Space),,,,,,,,---- -- ----- -- ------ - ------- --- ----------<br>------------- ------ ------ ---- ---- ------- ----- -- ----<br>-------- ------- -- ---------- --- - --- study ----- ----<br>---- --- --- ----- --- ---- ---- ------- ----- ---- -------<br>--- --- -- ----- -- --- ---- -- --- ---- -- ------ ------<br>--- ----- -- ----,116853.29999960959,116852.45999973267,116414.138,116426.12499929965,116430.506,116863.694,,25,study
screen,html.Screen,1_1_0_1_26,2021-04-15T17:08:04.331Z,,,,,,,,,,,,,,,,53,,,,,,,,,,,,,,469.4959996846883,,response,,,,99,,,,,,,Space,keypress(Space),,,,,,,,---- -- ----- -- ------ - ------- --- ----------<br>------------- ------ ------ ---- ---- ------- ----- -- ----<br>-------- ------- -- ---------- --- - --- ----- finds ----<br>---- --- --- ----- --- ---- ---- ------- ----- ---- -------<br>--- --- -- ----- -- --- ---- -- --- ---- -- ------ ------<br>--- ----- -- ----,117334.09000001848,117333.18999968469,116847.244,116853.49499993026,116863.694,117347.23,,26,finds
screen,html.Screen,1_1_0_1_27,2021-04-15T17:08:05.125Z,,,,,,,,,,,,,,,,53,,,,,,,,,,,,,,780.1149994623702,,response,,,,99,,,,,,,Space,keypress(Space),,,,,,,,---- -- ----- -- ------ - ------- --- ----------<br>------------- ------ ------ ---- ---- ------- ----- -- ----<br>-------- ------- -- ---------- --- - --- ----- ----- that<br>---- --- --- ----- --- ---- ---- ------- ----- ---- -------<br>--- --- -- ----- -- --- ---- -- --- ---- -- ------ ------<br>--- ----- -- ----,118128.15999984741,118127.34499946237,117330.456,117334.28499940783,117347.23,118147.228,,27,that
screen,html.Screen,1_1_0_1_28,2021-04-15T17:08:05.666Z,,,,,,,,,,,,,,,,53,,,,,,,,,,,,,,521.3470000178786,,response,,,,99,,,,,,,Space,keypress(Space),,,,,,,,---- -- ----- -- ------ - ------- --- ----------<br>------------- ------ ------ ---- ---- ------- ----- -- ----<br>-------- ------- -- ---------- --- - --- ----- ----- ----<br>it's --- --- ----- --- ---- ---- ------- ----- ---- -------<br>--- --- -- ----- -- --- ---- -- --- ---- -- ------ ------<br>--- ----- -- ----,118669.40000001341,118668.57500001788,118113.618,118128.37000004947,118147.228,118679.909,,28,it's
screen,html.Screen,1_1_0_1_29,2021-04-15T17:08:06.112Z,,,,,,,,,,,,,,,,53,,,,,,,,,,,,,,434.8459999877814,,response,,,,99,,,,,,,Space,keypress(Space),,,,,,,,---- -- ----- -- ------ - ------- --- ----------<br>------------- ------ ------ ---- ---- ------- ----- -- ----<br>-------- ------- -- ---------- --- - --- ----- ----- ----<br>---- not --- ----- --- ---- ---- ------- ----- ---- -------<br>--- --- -- ----- -- --- ---- -- --- ---- -- ------ ------<br>--- ----- -- ----,119115.64499977976,119114.75499998778,118663.651,118669.59499940276,118679.909,119130.281,,29,not
screen,html.Screen,1_1_0_1_30,2021-04-15T17:08:06.564Z,,,,,,,,,,,,,,,,53,,,,,,,,,,,,,,436.46899929964275,,response,,,,99,,,,,,,Space,keypress(Space),,,,,,,,---- -- ----- -- ------ - ------- --- ----------<br>------------- ------ ------ ---- ---- ------- ----- -- ----<br>-------- ------- -- ---------- --- - --- ----- ----- ----<br>---- --- how ----- --- ---- ---- ------- ----- ---- -------<br>--- --- -- ----- -- --- ---- -- --- ---- -- ------ ------<br>--- ----- -- ----,119567.76000000536,119566.74999929965,119113.245,119115.82999955863,119130.281,119580.891,,30,how
screen,html.Screen,1_1_0_1_31,2021-04-15T17:08:07.012Z,,,,,,,,,,,,,,,,53,,,,,,,,,,,,,,433.988999682304,,response,,,,99,,,,,,,Space,keypress(Space),,,,,,,,---- -- ----- -- ------ - ------- --- ----------<br>------------- ------ ------ ---- ---- ------- ----- -- ----<br>-------- ------- -- ---------- --- - --- ----- ----- ----<br>---- --- --- close --- ---- ---- ------- ----- ---- -------<br>--- --- -- ----- -- --- ---- -- --- ---- -- ------ ------<br>--- ----- -- ----,120015.71499928832,120014.8799996823,119563.418,119567.92999990284,119580.891,120029.771,,31,close
screen,html.Screen,1_1_0_1_32,2021-04-15T17:08:07.415Z,,,,,,,,,,,,,,,,53,,,,,,,,,,,,,,388.16399980122515,,response,,,,99,,,,,,,Space,keypress(Space),,,,,,,,---- -- ----- -- ------ - ------- --- ----------<br>------------- ------ ------ ---- ---- ------- ----- -- ----<br>-------- ------- -- ---------- --- - --- ----- ----- ----<br>---- --- --- ----- you ---- ---- ------- ----- ---- -------<br>--- --- -- ----- -- --- ---- -- --- ---- -- ------ ------<br>--- ----- -- ----,120418.74999925494,120417.93499980122,120013.464,120015.90499933809,120029.771,120429.754,,32,you
screen,html.Screen,1_1_0_1_33,2021-04-15T17:08:07.851Z,,,,,,,,,,,,,,,,53,,,,,,,,,,,,,,423.9409995905153,,response,,,,99,,,,,,,Space,keypress(Space),,,,,,,,---- -- ----- -- ------ - ------- --- ----------<br>------------- ------ ------ ---- ---- ------- ----- -- ----<br>-------- ------- -- ---------- --- - --- ----- ----- ----<br>---- --- --- ----- --- feel ---- ------- ----- ---- -------<br>--- --- -- ----- -- --- ---- -- --- ---- -- ------ ------<br>--- ----- -- ----,120854.22999970615,120853.69499959052,120413.345,120418.93499996513,120429.754,120863.111,,33,feel
screen,html.Screen,1_1_0_1_34,2021-04-15T17:08:08.277Z,,,,,,,,,,,,,,,,53,,,,,,,,,,,,,,416.22399962091004,,response,,,,99,,,,,,,Space,keypress(Space),,,,,,,,---- -- ----- -- ------ - ------- --- ----------<br>------------- ------ ------ ---- ---- ------- ----- -- ----<br>-------- ------- -- ---------- --- - --- ----- ----- ----<br>---- --- --- ----- --- ---- that ------- ----- ---- -------<br>--- --- -- ----- -- --- ---- -- --- ---- -- ------ ------<br>--- ----- -- ----,121280.13999946415,121279.33499962091,120846.654,120854.34999968857,120863.111,121296.271,,34,that
screen,html.Screen,1_1_0_1_35,2021-04-15T17:08:08.688Z,,,,,,,,,,,,,,,,53,,,,,,,,,,,,,,394.2839997463889,,response,,,,99,,,,,,,Space,keypress(Space),,,,,,,,---- -- ----- -- ------ - ------- --- ----------<br>------------- ------ ------ ---- ---- ------- ----- -- ----<br>-------- ------- -- ---------- --- - --- ----- ----- ----<br>---- --- --- ----- --- ---- ---- matters ----- ---- -------<br>--- --- -- ----- -- --- ---- -- --- ---- -- ------ ------<br>--- ----- -- ----,121691.35499931872,121690.55499974638,121279.937,121280.30999936163,121296.271,121696.147,,35,matters
screen,html.Screen,1_1_0_1_36,2021-04-15T17:08:09.252Z,,,,,,,,,,,,,,,,53,,,,,,,,,,,,,,558.3029998912243,,response,,,,99,,,,,,,Space,keypress(Space),,,,,,,,"---- -- ----- -- ------ - ------- --- ----------<br>------------- ------ ------ ---- ---- ------- ----- -- ----<br>-------- ------- -- ---------- --- - --- ----- ----- ----<br>---- --- --- ----- --- ---- ---- ------- most, ---- -------<br>--- --- -- ----- -- --- ---- -- --- ---- -- ------ ------<br>--- ----- -- ----",122255.15499990433,122254.44999989122,121679.489,121691.534999758,121696.147,122262.879,,36,"most,"
screen,html.Screen,1_1_0_1_37,2021-04-15T17:08:09.717Z,,,,,,,,,,,,,,,,53,,,,,,,,,,,,,,456.9709999940387,,response,,,,99,,,,,,,Space,keypress(Space),,,,,,,,---- -- ----- -- ------ - ------- --- ----------<br>------------- ------ ------ ---- ---- ------- ----- -- ----<br>-------- ------- -- ---------- --- - --- ----- ----- ----<br>---- --- --- ----- --- ---- ---- ------- ----- it's -------<br>--- --- -- ----- -- --- ---- -- --- ---- -- ------ ------<br>--- ----- -- ----,122720.68999987096,122719.84999999404,122246.401,122255.35499956459,122262.879,122729.417,,37,it's
screen,html.Screen,1_1_0_1_38,2021-04-15T17:08:10.236Z,,,,,,,,,,,,,,,,53,,,,,,,,,,,,,,509.1379992322909,,response,,,,99,,,,,,,Space,keypress(Space),,,,,,,,---- -- ----- -- ------ - ------- --- ----------<br>------------- ------ ------ ---- ---- ------- ----- -- ----<br>-------- ------- -- ---------- --- - --- ----- ----- ----<br>---- --- --- ----- --- ---- ---- ------- ----- ---- whether<br>--- --- -- ----- -- --- ---- -- --- ---- -- ------ ------<br>--- ----- -- ----,123239.40499965101,123238.55499923229,122713.031,122720.87999992073,122729.417,123245.919,,38,whether
screen,html.Screen,1_1_0_1_39,2021-04-15T17:08:10.673Z,,,,,,,,,,,,,,,,53,,,,,,,,,,,,,,430.145999774104,,response,,,,99,,,,,,,Space,keypress(Space),,,,,,,,---- -- ----- -- ------ - ------- --- ----------<br>------------- ------ ------ ---- ---- ------- ----- -- ----<br>-------- ------- -- ---------- --- - --- ----- ----- ----<br>---- --- --- ----- --- ---- ---- ------- ----- ---- -------<br>you --- -- ----- -- --- ---- -- --- ---- -- ------ ------<br>--- ----- -- ----,123676.84999946505,123676.0649997741,123229.64,123240.57999998331,123245.919,123679.155,,39,you
screen,html.Screen,1_1_0_1_40,2021-04-15T17:08:11.103Z,,,,,,,,,,,,,,,,53,,,,,,,,,,,,,,426.93999923884985,,response,,,,99,,,,,,,Space,keypress(Space),,,,,,,,---- -- ----- -- ------ - ------- --- ----------<br>------------- ------ ------ ---- ---- ------- ----- -- ----<br>-------- ------- -- ---------- --- - --- ----- ----- ----<br>---- --- --- ----- --- ---- ---- ------- ----- ---- -------<br>--- are -- ----- -- --- ---- -- --- ---- -- ------ ------<br>--- ----- -- ----,124106.9099996239,124106.09499923885,123662.735,123677.03499924392,123679.155,124112.463,,40,are
screen,html.Screen,1_1_0_1_41,2021-04-15T17:08:11.575Z,,,,,,,,,,,,,,,,53,,,,,,,,,,,,,,465.2569994772639,,response,,,,99,,,,,,,Space,keypress(Space),,,,,,,,---- -- ----- -- ------ - ------- --- ----------<br>------------- ------ ------ ---- ---- ------- ----- -- ----<br>-------- ------- -- ---------- --- - --- ----- ----- ----<br>---- --- --- ----- --- ---- ---- ------- ----- ---- -------<br>--- --- as ----- -- --- ---- -- --- ---- -- ------ ------<br>--- ----- -- ----,124578.75999994576,124577.71999947727,124096.257,124107.09000006318,124112.463,124595.767,,41,as
screen,html.Screen,1_1_0_1_42,2021-04-15T17:08:11.998Z,,,,,,,,,,,,,,,,53,,,,,,,,,,,,,,404.5679995240498,,response,,,,99,,,,,,,Space,keypress(Space),,,,,,,,---- -- ----- -- ------ - ------- --- ----------<br>------------- ------ ------ ---- ---- ------- ----- -- ----<br>-------- ------- -- ---------- --- - --- ----- ----- ----<br>---- --- --- ----- --- ---- ---- ------- ----- ---- -------<br>--- --- -- close -- --- ---- -- --- ---- -- ------ ------<br>--- ----- -- ----,125001.06499996036,125000.33499952406,124579.395,124578.91999930143,124595.767,125012.518,,42,close
screen,html.Screen,1_1_0_1_43,2021-04-15T17:08:12.434Z,,,,,,,,,,,,,,,,53,,,,,,,,,,,,,,423.81699927819136,,response,,,,99,,,,,,,Space,keypress(Space),,,,,,,,---- -- ----- -- ------ - ------- --- ----------<br>------------- ------ ------ ---- ---- ------- ----- -- ----<br>-------- ------- -- ---------- --- - --- ----- ----- ----<br>---- --- --- ----- --- ---- ---- ------- ----- ---- -------<br>--- --- -- ----- as --- ---- -- --- ---- -- ------ ------<br>--- ----- -- ----,125437.16999981552,125436.33499927819,124995.789,125001.23499985784,125012.518,125445.717,,43,as
screen,html.Screen,1_1_0_1_44,2021-04-15T17:08:12.917Z,,,,,,,,,,,,,,,,53,,,,,,,,,,,,,,474.01799953746377,,response,,,,99,,,,,,,Space,keypress(Space),,,,,,,,---- -- ----- -- ------ - ------- --- ----------<br>------------- ------ ------ ---- ---- ------- ----- -- ----<br>-------- ------- -- ---------- --- - --- ----- ----- ----<br>---- --- --- ----- --- ---- ---- ------- ----- ---- -------<br>--- --- -- ----- -- you ---- -- --- ---- -- ------ ------<br>--- ----- -- ----,125920.58499995619,125919.73499953747,125428.905,125437.3599998653,125445.717,125928.835,,44,you
screen,html.Screen,1_1_0_1_45,2021-04-15T17:08:13.331Z,,,,,,,,,,,,,,,,53,,,,,,,,,,,,,,404.4549995148118,,response,,,,99,,,,,,,Space,keypress(Space),,,,,,,,---- -- ----- -- ------ - ------- --- ----------<br>------------- ------ ------ ---- ---- ------- ----- -- ----<br>-------- ------- -- ---------- --- - --- ----- ----- ----<br>---- --- --- ----- --- ---- ---- ------- ----- ---- -------<br>--- --- -- ----- -- --- want -- --- ---- -- ------ ------<br>--- ----- -- ----,126334.09999962896,126333.28999951482,125912.29,125920.75499985367,125928.835,126345.473,,45,want
screen,html.Screen,1_1_0_1_46,2021-04-15T17:08:13.743Z,,,,,,,,,,,,,,,,53,,,,,,,,,,,,,,400.5419992257375,,response,,,,99,,,,,,,Space,keypress(Space),,,,,,,,---- -- ----- -- ------ - ------- --- ----------<br>------------- ------ ------ ---- ---- ------- ----- -- ----<br>-------- ------- -- ---------- --- - --- ----- ----- ----<br>---- --- --- ----- --- ---- ---- ------- ----- ---- -------<br>--- --- -- ----- -- --- ---- to --- ---- -- ------ ------<br>--- ----- -- ----,126746.85999937356,126746.01499922574,126328.812,126334.28000006825,126345.473,126762.175,,46,to
screen,html.Screen,1_1_0_1_47,2021-04-15T17:08:14.262Z,,,,,,,,,,,,,,,,53,,,,,,,,,,,,,,502.78999963104434,,response,,,,99,,,,,,,Space,keypress(Space),,,,,,,,"---- -- ----- -- ------ - ------- --- ----------<br>------------- ------ ------ ---- ---- ------- ----- -- ----<br>-------- ------- -- ---------- --- - --- ----- ----- ----<br>---- --- --- ----- --- ---- ---- ------- ----- ---- -------<br>--- --- -- ----- -- --- ---- -- be, ---- -- ------ ------<br>--- ----- -- ----",127265.7650001347,127264.96499963105,126745.503,126747.04500008374,126762.175,127278.726,,47,"be,"
screen,html.Screen,1_1_0_1_48,2021-04-15T17:08:14.732Z,,,,,,,,,,,,,,,,53,,,,,,,,,,,,,,455.51899947578204,,response,,,,99,,,,,,,Space,keypress(Space),,,,,,,,---- -- ----- -- ------ - ------- --- ----------<br>------------- ------ ------ ---- ---- ------- ----- -- ----<br>-------- ------- -- ---------- --- - --- ----- ----- ----<br>---- --- --- ----- --- ---- ---- ------- ----- ---- -------<br>--- --- -- ----- -- --- ---- -- --- even -- ------ ------<br>--- ----- -- ----,127735.15499942005,127734.24499947578,127262.107,127265.92499949038,127278.726,127745.439,,48,even
screen,html.Screen,1_1_0_1_49,2021-04-15T17:08:15.185Z,,,,,,,,,,,,,,,,53,,,,,,,,,,,,,,442.32100011712464,,response,,,,99,,,,,,,Space,keypress(Space),,,,,,,,---- -- ----- -- ------ - ------- --- ----------<br>------------- ------ ------ ---- ---- ------- ----- -- ----<br>-------- ------- -- ---------- --- - --- ----- ----- ----<br>---- --- --- ----- --- ---- ---- ------- ----- ---- -------<br>--- --- -- ----- -- --- ---- -- --- ---- if ------ ------<br>--- ----- -- ----,128188.54499980807,128187.76000011712,127728.861,127735.32499931753,127745.439,128195.132,,49,if
screen,html.Screen,1_1_0_1_50,2021-04-15T17:08:15.644Z,,,,,,,,,,,,,,,,53,,,,,,,,,,,,,,451.9179997958563,,response,,,,99,,,,,,,Space,keypress(Space),,,,,,,,---- -- ----- -- ------ - ------- --- ----------<br>------------- ------ ------ ---- ---- ------- ----- -- ----<br>-------- ------- -- ---------- --- - --- ----- ----- ----<br>---- --- --- ----- --- ---- ---- ------- ----- ---- -------<br>--- --- -- ----- -- --- ---- -- --- ---- -- that's ------<br>--- ----- -- ----,128647.984999232,128647.04999979585,128178.596,128188.74000012875,128195.132,128661.758,,50,that's
screen,html.Screen,1_1_0_1_51,2021-04-15T17:08:16.498Z,,,,,,,,,,,,,,,,53,,,,,,,,,,,,,,839.2169997407182,,response,,,,99,,,,,,,Space,keypress(Space),,,,,,,,---- -- ----- -- ------ - ------- --- ----------<br>------------- ------ ------ ---- ---- ------- ----- -- ----<br>-------- ------- -- ---------- --- - --- ----- ----- ----<br>---- --- --- ----- --- ---- ---- ------- ----- ---- -------<br>--- --- -- ----- -- --- ---- -- --- ---- -- ------ really<br>--- ----- -- ----,129501.79000012577,129500.97499974072,128645.113,128648.15999940038,128661.758,129511.911,,51,really
screen,html.Screen,1_1_0_1_52,2021-04-15T17:08:16.931Z,,,,,,,,,,,,,,,,53,,,,,,,,,,,,,,421.3939999550057,,response,,,,99,,,,,,,Space,keypress(Space),,,,,,,,---- -- ----- -- ------ - ------- --- ----------<br>------------- ------ ------ ---- ---- ------- ----- -- ----<br>-------- ------- -- ---------- --- - --- ----- ----- ----<br>---- --- --- ----- --- ---- ---- ------- ----- ---- -------<br>--- --- -- ----- -- --- ---- -- --- ---- -- ------ ------<br>not ----- -- ----,129934.08000003546,129933.304999955,129495.251,129501.96999963373,129511.911,129944.904,,52,not
screen,html.Screen,1_1_0_1_53,2021-04-15T17:08:17.355Z,,,,,,,,,,,,,,,,53,,,,,,,,,,,,,,412.91599956816935,,response,,,,99,,,,,,,Space,keypress(Space),,,,,,,,---- -- ----- -- ------ - ------- --- ----------<br>------------- ------ ------ ---- ---- ------- ----- -- ----<br>-------- ------- -- ---------- --- - --- ----- ----- ----<br>---- --- --- ----- --- ---- ---- ------- ----- ---- -------<br>--- --- -- ----- -- --- ---- -- --- ---- -- ------ ------<br>--- close -- ----,130358.71499963105,130357.81999956816,129928.224,129934.27000008523,129944.904,130361.494,,53,close
screen,html.Screen,1_1_0_1_54,2021-04-15T17:08:17.774Z,,,,,,,,,,,,,,,,53,,,,,,,,,,,,,,415.6259997514426,,response,,,,99,,,,,,,Space,keypress(Space),,,,,,,,---- -- ----- -- ------ - ------- --- ----------<br>------------- ------ ------ ---- ---- ------- ----- -- ----<br>-------- ------- -- ---------- --- - --- ----- ----- ----<br>---- --- --- ----- --- ---- ---- ------- ----- ---- -------<br>--- --- -- ----- -- --- ---- -- --- ---- -- ------ ------<br>--- ----- at ----,130777.97999978065,130777.11999975145,130345.014,130358.89999940991,130361.494,130794.886,,54,at
screen,html.Screen,1_1_0_1_55,2021-04-15T17:08:18.260Z,,,,,,,,,,,,,,,,53,,,,,,,,,,,,,,468.19899928563973,,response,,,,99,,,,,,,Space,keypress(Space),,,,,,,,---- -- ----- -- ------ - ------- --- ----------<br>------------- ------ ------ ---- ---- ------- ----- -- ----<br>-------- ------- -- ---------- --- - --- ----- ----- ----<br>---- --- --- ----- --- ---- ---- ------- ----- ---- -------<br>--- --- -- ----- -- --- ---- -- --- ---- -- ------ ------<br>--- ----- -- all.,131263.89999967068,131263.08499928564,130778.211,130778.14000006765,130794.886,131277.932,,55,all.
Item 99,flow.Loop,1_1_0_1,2021-04-15T17:08:18.261Z,,,,,,,,,,,,,,,,,,,,,,,,,,,,,,29347.155999285635,,completion,,,,,B,,,,,,,,,,,silence,,,,,131264.25999961793,131263.08499928564,101899.631,101900.85500013083,101915.929,131277.932,,,
Question 1,html.Screen,1_1_0_2,2021-04-15T17:08:23.064Z,,,,,,,,,,,,,,,,,,,,,,,,,,,false,FALSE,,4788.767999384581,,response,,,,99,B,,,,,,TRUE,click #choice-1,,,,silence,,,,,136067.9850000888,136066.69999938458,131261.437,131264.4249992445,131277.932,136077.178,,,
Question 2,html.Screen,1_1_0_3,2021-04-15T17:08:29.163Z,,,,,,,,,,,,,,,,,,,,,,,,,,,true,TRUE,,6088.066999341652,,response,,,,99,B,,,,,,TRUE,click #choice-1,,,,silence,,,,,142166.45999997854,142165.24499934167,136060.628,136068.19499935955,136077.178,142176.376,,,
Item 99,flow.Sequence,1_1_0,2021-04-15T17:08:29.163Z,,,,,,,,,,,,,,,,,,,,,,,,,,,,,,50247.615999341666,,completion,,,,,,,,,,,,,,,,,,,,,142166.75999946892,142165.24499934167,91901.145,91916.22000001371,91917.629,142176.376,,,
Holding screen,html.Screen,1_1_1_0,2021-04-15T17:08:39.156Z,,,,,,,,,,,,,,,,,,,,,,,,,,,,,,9998.194000000018,,timeout,,,,,,,,,,,,,,,,,,,,,152158.92499964684,152158.049,142159.983,142166.9399999082,142176.376,152174.57,,,
screen,html.Screen,1_1_1_1_0,2021-04-15T17:08:39.953Z,,,,,,,,,,,,,,,,54,,,,,,,,,,,,,,780.0149999412824,,response,,,,100,,,,,,,Space,keypress(Space),,,,,,,,At --- ---- --- ------ ----- ------- ---- -- --- ------- --<br>------- ---------- ------ -- ----- -- ----- -- ---- ------<br>--- ----- --- --- ------ -------- ----- --- ------ ----- --<br>----- ----- ---------- --- --- ------ ------ ---- -- ------<br>------- --- ------ ----- --- ---- ------- -- ---- --- --<br>------- ------,152955.4199995473,152954.5849999413,152158.049,152159.20499991626,152174.57,152957.786,,0,At
screen,html.Screen,1_1_1_1_1,2021-04-15T17:08:40.398Z,,,,,,,,,,,,,,,,54,,,,,,,,,,,,,,442.20399983073,,response,,,,100,,,,,,,Space,keypress(Space),,,,,,,,-- the ---- --- ------ ----- ------- ---- -- --- ------- --<br>------- ---------- ------ -- ----- -- ----- -- ---- ------<br>--- ----- --- --- ------ -------- ----- --- ------ ----- --<br>----- ----- ---------- --- --- ------ ------ ---- -- ------<br>------- --- ------ ----- --- ---- ------- -- ---- --- --<br>------- ------,153400.77499952167,153399.98999983072,152941.266,152955.62999974936,152957.786,153407.673,,1,the
screen,html.Screen,1_1_1_1_2,2021-04-15T17:08:40.864Z,,,,,,,,,,,,,,,,54,,,,,,,,,,,,,,458.55699981044745,,response,,,,100,,,,,,,Space,keypress(Space),,,,,,,,-- --- time --- ------ ----- ------- ---- -- --- ------- --<br>------- ---------- ------ -- ----- -- ----- -- ---- ------<br>--- ----- --- --- ------ -------- ----- --- ------ ----- --<br>----- ----- ---------- --- --- ------ ------ ---- -- ------<br>------- --- ------ ----- --- ---- ------- -- ---- --- --<br>------- ------,153867.1649992466,153866.22999981046,153391.332,153400.93499980867,153407.673,153874.389,,2,time
screen,html.Screen,1_1_1_1_3,2021-04-15T17:08:41.286Z,,,,,,,,,,,,,,,,54,,,,,,,,,,,,,,413.8159996405884,,response,,,,100,,,,,,,Space,keypress(Space),,,,,,,,-- --- ---- the ------ ----- ------- ---- -- --- ------- --<br>------- ---------- ------ -- ----- -- ----- -- ---- ------<br>--- ----- --- --- ------ -------- ----- --- ------ ----- --<br>----- ----- ---------- --- --- ------ ------ ---- -- ------<br>------- --- ------ ----- --- ---- ------- -- ---- --- --<br>------- ------,154289.0299996361,154288.20499964058,153858.024,153867.35499929637,153874.389,154308.124,,3,the
screen,html.Screen,1_1_1_1_4,2021-04-15T17:08:41.735Z,,,,,,,,,,,,,,,,54,,,,,,,,,,,,,,428.55600008909823,,response,,,,100,,,,,,,Space,keypress(Space),,,,,,,,-- --- ---- --- French ----- ------- ---- -- --- ------- --<br>------- ---------- ------ -- ----- -- ----- -- ---- ------<br>--- ----- --- --- ------ -------- ----- --- ------ ----- --<br>----- ----- ---------- --- --- ------ ------ ---- -- ------<br>------- --- ------ ----- --- ---- ------- -- ---- --- --<br>------- ------,154737.43500001729,154736.6800000891,154274.456,154289.2100000754,154308.124,154740.784,,4,French
screen,html.Screen,1_1_1_1_5,2021-04-15T17:08:42.137Z,,,,,,,,,,,,,,,,54,,,,,,,,,,,,,,398.29600010995637,,response,,,,100,,,,,,,Space,keypress(Space),,,,,,,,-- --- ---- --- ------ crown ------- ---- -- --- ------- --<br>------- ---------- ------ -- ----- -- ----- -- ---- ------<br>--- ----- --- --- ------ -------- ----- --- ------ ----- --<br>----- ----- ---------- --- --- ------ ------ ---- -- ------<br>------- --- ------ ----- --- ---- ------- -- ---- --- --<br>------- ------,155139.80499934405,155139.08000010997,154724.469,154737.61499952525,154740.784,155157.511,,5,crown
screen,html.Screen,1_1_1_1_6,2021-04-15T17:08:43.438Z,,,,,,,,,,,,,,,,54,,,,,,,,,,,,,,1282.8639993070974,,response,,,,100,,,,,,,Space,keypress(Space),,,,,,,,-- --- ---- --- ------ ----- secured ---- -- --- ------- --<br>------- ---------- ------ -- ----- -- ----- -- ---- ------<br>--- ----- --- --- ------ -------- ----- --- ------ ----- --<br>----- ----- ---------- --- --- ------ ------ ---- -- ------<br>------- --- ------ ----- --- ---- ------- -- ---- --- --<br>------- ------,156441.13999977708,156440.3749993071,155124.472,155139.98499978334,155157.511,156457.22,,6,secured
screen,html.Screen,1_1_1_1_7,2021-04-15T17:08:43.907Z,,,,,,,,,,,,,,,,54,,,,,,,,,,,,,,451.90499930709484,,response,,,,100,,,,,,,Space,keypress(Space),,,,,,,,-- --- ---- --- ------ ----- ------- much -- --- ------- --<br>------- ---------- ------ -- ----- -- ----- -- ---- ------<br>--- ----- --- --- ------ -------- ----- --- ------ ----- --<br>----- ----- ---------- --- --- ------ ------ ---- -- ------<br>------- --- ------ ----- --- ---- ------- -- ---- --- --<br>------- ------,156909.73499976099,156909.1249993071,156440.937,156441.33500009775,156457.22,156924.16,,7,much
screen,html.Screen,1_1_1_1_8,2021-04-15T17:08:44.434Z,,,,,,,,,,,,,,,,54,,,,,,,,,,,,,,511.77999929725775,,response,,,,100,,,,,,,Space,keypress(Space),,,,,,,,-- --- ---- --- ------ ----- ------- ---- of --- ------- --<br>------- ---------- ------ -- ----- -- ----- -- ---- ------<br>--- ----- --- --- ------ -------- ----- --- ------ ----- --<br>----- ----- ---------- --- --- ------ ------ ---- -- ------<br>------- --- ------ ----- --- ---- ------- -- ---- --- --<br>------- ------,157436.72499991953,157435.93999929726,156907.286,156909.8299993202,156924.16,157440.407,,8,of
screen,html.Screen,1_1_1_1_9,2021-04-15T17:08:44.929Z,,,,,,,,,,,,,,,,54,,,,,,,,,,,,,,490.62799989955965,,response,,,,100,,,,,,,Space,keypress(Space),,,,,,,,-- --- ---- --- ------ ----- ------- ---- -- its ------- --<br>------- ---------- ------ -- ----- -- ----- -- ---- ------<br>--- ----- --- --- ------ -------- ----- --- ------ ----- --<br>----- ----- ---------- --- --- ------ ------ ---- -- ------<br>------- --- ------ ----- --- ---- ------- -- ---- --- --<br>------- ------,157931.60500004888,157931.03499989957,157423.83,157436.9149999693,157440.407,157940.487,,9,its
screen,html.Screen,1_1_1_1_10,2021-04-15T17:08:45.384Z,,,,,,,,,,,,,,,,54,,,,,,,,,,,,,,445.42799999166164,,response,,,,100,,,,,,,Space,keypress(Space),,,,,,,,-- --- ---- --- ------ ----- ------- ---- -- --- revenue --<br>------- ---------- ------ -- ----- -- ----- -- ---- ------<br>--- ----- --- --- ------ -------- ----- --- ------ ----- --<br>----- ----- ---------- --- --- ------ ------ ---- -- ------<br>------- --- ------ ----- --- ---- ------- -- ---- --- --<br>------- ------,158386.76999974996,158385.91499999166,157924.083,157931.7250000313,157940.487,158390.202,,10,revenue
screen,html.Screen,1_1_1_1_11,2021-04-15T17:08:46.173Z,,,,,,,,,,,,,,,,54,,,,,,,,,,,,,,784.8429994579055,,response,,,,100,,,,,,,Space,keypress(Space),,,,,,,,-- --- ---- --- ------ ----- ------- ---- -- --- ------- by<br>------- ---------- ------ -- ----- -- ----- -- ---- ------<br>--- ----- --- --- ------ -------- ----- --- ------ ----- --<br>----- ----- ---------- --- --- ------ ------ ---- -- ------<br>------- --- ------ ----- --- ---- ------- -- ---- --- --<br>------- ------,159175.90000014752,159175.0449994579,158373.872,158386.94499991834,158390.202,159190.491,,11,by
screen,html.Screen,1_1_1_1_12,2021-04-15T17:08:46.845Z,,,,,,,,,,,,,,,,54,,,,,,,,,,,,,,656.1289999675064,,response,,,,100,,,,,,,Space,keypress(Space),,,,,,,,-- --- ---- --- ------ ----- ------- ---- -- --- ------- --<br>issuing ---------- ------ -- ----- -- ----- -- ---- ------<br>--- ----- --- --- ------ -------- ----- --- ------ ----- --<br>----- ----- ---------- --- --- ------ ------ ---- -- ------<br>------- --- ------ ----- --- ---- ------- -- ---- --- --<br>------- ------,159847.40999992937,159846.61999996752,159173.915,159176.07499938458,159190.491,159856.728,,12,issuing
screen,html.Screen,1_1_1_1_13,2021-04-15T17:08:47.302Z,,,,,,,,,,,,,,,,54,,,,,,,,,,,,,,447.12199979287107,,response,,,,100,,,,,,,Space,keypress(Space),,,,,,,,-- --- ---- --- ------ ----- ------- ---- -- --- ------- --<br>------- government ------ -- ----- -- ----- -- ---- ------<br>--- ----- --- --- ------ -------- ----- --- ------ ----- --<br>----- ----- ---------- --- --- ------ ------ ---- -- ------<br>------- --- ------ ----- --- ---- ------- -- ---- --- --<br>------- ------,160304.6949999407,160303.84999979287,159840.45,159847.59499970824,159856.728,160306.659,,13,government
screen,html.Screen,1_1_1_1_14,2021-04-15T17:08:47.824Z,,,,,,,,,,,,,,,,54,,,,,,,,,,,,,,519.4109994861938,,response,,,,100,,,,,,,Space,keypress(Space),,,,,,,,-- --- ---- --- ------ ----- ------- ---- -- --- ------- --<br>------- ---------- bonds. -- ----- -- ----- -- ---- ------<br>--- ----- --- --- ------ -------- ----- --- ------ ----- --<br>----- ----- ---------- --- --- ------ ------ ---- -- ------<br>------- --- ------ ----- --- ---- ------- -- ---- --- --<br>------- ------,160826.86999998987,160826.0699994862,160290.06,160304.87000010908,160306.659,160839.836,,14,bonds.
screen,html.Screen,1_1_1_1_15,2021-04-15T17:08:48.613Z,,,,,,,,,,,,,,,,54,,,,,,,,,,,,,,774.9939993947046,,response,,,,100,,,,,,,Space,keypress(Space),,,,,,,,-- --- ---- --- ------ ----- ------- ---- -- --- ------- --<br>------- ---------- ------ In ----- -- ----- -- ---- ------<br>--- ----- --- --- ------ -------- ----- --- ------ ----- --<br>----- ----- ---------- --- --- ------ ------ ---- -- ------<br>------- --- ------ ----- --- ---- ------- -- ---- --- --<br>------- ------,161615.5899995938,161614.82999939471,160823.42,160827.04499922693,160839.836,161623.18,,15,In
screen,html.Screen,1_1_1_1_16,2021-04-15T17:08:50.208Z,,,,,,,,,,,,,,,,54,,,,,,,,,,,,,,1586.8099994209479,,response,,,,100,,,,,,,Space,keypress(Space),,,,,,,,"-- --- ---- --- ------ ----- ------- ---- -- --- ------- --<br>------- ---------- ------ -- 1727, -- ----- -- ---- ------<br>--- ----- --- --- ------ -------- ----- --- ------ ----- --<br>----- ----- ---------- --- --- ------ ------ ---- -- ------<br>------- --- ------ ----- --- ---- ------- -- ---- --- --<br>------- ------",163210.81999968737,163209.98999942094,161606.699,161615.75999949127,161623.18,163222.813,,16,"1727,"
screen,html.Screen,1_1_1_1_17,2021-04-15T17:08:51.155Z,,,,,,,,,,,,,,,,54,,,,,,,,,,,,,,933.8219994391256,,response,,,,100,,,,,,,Space,keypress(Space),,,,,,,,-- --- ---- --- ------ ----- ------- ---- -- --- ------- --<br>------- ---------- ------ -- ----- in ----- -- ---- ------<br>--- ----- --- --- ------ -------- ----- --- ------ ----- --<br>----- ----- ---------- --- --- ------ ------ ---- -- ------<br>------- --- ------ ----- --- ---- ------- -- ---- --- --<br>------- ------,164157.3899993673,164156.63499943912,163206.498,163211.00000012666,163222.813,164173.065,,17,in
screen,html.Screen,1_1_1_1_18,2021-04-15T17:08:51.697Z,,,,,,,,,,,,,,,,54,,,,,,,,,,,,,,525.7049996679998,,response,,,,100,,,,,,,Space,keypress(Space),,,,,,,,-- --- ---- --- ------ ----- ------- ---- -- --- ------- --<br>------- ---------- ------ -- ----- -- order -- ---- ------<br>--- ----- --- --- ------ -------- ----- --- ------ ----- --<br>----- ----- ---------- --- --- ------ ------ ---- -- ------<br>------- --- ------ ----- --- ---- ------- -- ---- --- --<br>------- ------,164699.59999993443,164698.769999668,164156.272,164157.5549999252,164173.065,164706.027,,18,order
screen,html.Screen,1_1_1_1_19,2021-04-15T17:08:52.213Z,,,,,,,,,,,,,,,,54,,,,,,,,,,,,,,509.0429999183398,,response,,,,100,,,,,,,Space,keypress(Space),,,,,,,,-- --- ---- --- ------ ----- ------- ---- -- --- ------- --<br>------- ---------- ------ -- ----- -- ----- to ---- ------<br>--- ----- --- --- ------ -------- ----- --- ------ ----- --<br>----- ----- ---------- --- --- ------ ------ ---- -- ------<br>------- --- ------ ----- --- ---- ------- -- ---- --- --<br>------- ------,165215.89999925345,165215.06999991834,164689.6,164699.7799994424,164706.027,165222.641,,19,to
screen,html.Screen,1_1_1_1_20,2021-04-15T17:08:52.763Z,,,,,,,,,,,,,,,,54,,,,,,,,,,,,,,542.2990001391736,,response,,,,100,,,,,,,Space,keypress(Space),,,,,,,,-- --- ---- --- ------ ----- ------- ---- -- --- ------- --<br>------- ---------- ------ -- ----- -- ----- -- save ------<br>--- ----- --- --- ------ -------- ----- --- ------ ----- --<br>----- ----- ---------- --- --- ------ ------ ---- -- ------<br>------- --- ------ ----- --- ---- ------- -- ---- --- --<br>------- ------,165765.50999935716,165764.94000013918,165206.064,165216.07000008225,165222.641,165772.537,,20,save
screen,html.Screen,1_1_1_1_21,2021-04-15T17:08:53.248Z,,,,,,,,,,,,,,,,54,,,,,,,,,,,,,,477.71799984620884,,response,,,,100,,,,,,,Space,keypress(Space),,,,,,,,"-- --- ---- --- ------ ----- ------- ---- -- --- ------- --<br>------- ---------- ------ -- ----- -- ----- -- ---- money,<br>--- ----- --- --- ------ -------- ----- --- ------ ----- --<br>----- ----- ---------- --- --- ------ ------ ---- -- ------<br>------- --- ------ ----- --- ---- ------- -- ---- --- --<br>------- ------",166251.05499941856,166250.25499984622,165756.186,165765.58499969542,165772.537,166255.619,,21,"money,"
screen,html.Screen,1_1_1_1_22,2021-04-15T17:08:53.706Z,,,,,,,,,,,,,,,,54,,,,,,,,,,,,,,452.8259995309054,,response,,,,100,,,,,,,Space,keypress(Space),,,,,,,,-- --- ---- --- ------ ----- ------- ---- -- --- ------- --<br>------- ---------- ------ -- ----- -- ----- -- ---- ------<br>the ----- --- --- ------ -------- ----- --- ------ ----- --<br>----- ----- ---------- --- --- ------ ------ ---- -- ------<br>------- --- ------ ----- --- ---- ------- -- ---- --- --<br>------- ------,166709.26999952644,166708.4449995309,166239.196,166251.2599993497,166255.619,166722.628,,22,the
screen,html.Screen,1_1_1_1_23,2021-04-15T17:08:54.167Z,,,,,,,,,,,,,,,,54,,,,,,,,,,,,,,446.0319999666244,,response,,,,100,,,,,,,Space,keypress(Space),,,,,,,,-- --- ---- --- ------ ----- ------- ---- -- --- ------- --<br>------- ---------- ------ -- ----- -- ----- -- ---- ------<br>--- state --- --- ------ -------- ----- --- ------ ----- --<br>----- ----- ---------- --- --- ------ ------ ---- -- ------<br>------- --- ------ ----- --- ---- ------- -- ---- --- --<br>------- ------,167169.42999977618,167168.65999996662,166705.867,166709.44499969482,166722.628,167172.108,,23,state
screen,html.Screen,1_1_1_1_24,2021-04-15T17:08:54.724Z,,,,,,,,,,,,,,,,54,,,,,,,,,,,,,,554.0019992319867,,response,,,,100,,,,,,,Space,keypress(Space),,,,,,,,-- --- ---- --- ------ ----- ------- ---- -- --- ------- --<br>------- ---------- ------ -- ----- -- ----- -- ---- ------<br>--- ----- cut --- ------ -------- ----- --- ------ ----- --<br>----- ----- ---------- --- --- ------ ------ ---- -- ------<br>------- --- ------ ----- --- ---- ------- -- ---- --- --<br>------- ------,167726.92499961704,167726.109999232,167155.855,167169.59999967366,167172.108,167738.83,,24,cut
screen,html.Screen,1_1_1_1_25,2021-04-15T17:08:55.137Z,,,,,,,,,,,,,,,,54,,,,,,,,,,,,,,399.73999948622077,,response,,,,100,,,,,,,Space,keypress(Space),,,,,,,,-- --- ---- --- ------ ----- ------- ---- -- --- ------- --<br>------- ---------- ------ -- ----- -- ----- -- ---- ------<br>--- ----- --- the ------ -------- ----- --- ------ ----- --<br>----- ----- ---------- --- --- ------ ------ ---- -- ------<br>------- --- ------ ----- --- ---- ------- -- ---- --- --<br>------- ------,168139.4649995491,168138.5699994862,167722.486,167727.10500005633,167738.83,168155.655,,25,the
screen,html.Screen,1_1_1_1_26,2021-04-15T17:08:55.607Z,,,,,,,,,,,,,,,,54,,,,,,,,,,,,,,452.9749996823084,,response,,,,100,,,,,,,Space,keypress(Space),,,,,,,,-- --- ---- --- ------ ----- ------- ---- -- --- ------- --<br>------- ---------- ------ -- ----- -- ----- -- ---- ------<br>--- ----- --- --- bonds' -------- ----- --- ------ ----- --<br>----- ----- ---------- --- --- ------ ------ ---- -- ------<br>------- --- ------ ----- --- ---- ------- -- ---- --- --<br>------- ------,168609.40499976277,168608.6299996823,168138.818,168139.66999948025,168155.655,168621.979,,26,bonds'
screen,html.Screen,1_1_1_1_27,2021-04-15T17:08:56.044Z,,,,,,,,,,,,,,,,54,,,,,,,,,,,,,,424.2260000205715,,response,,,,100,,,,,,,Space,keypress(Space),,,,,,,,-- --- ---- --- ------ ----- ------- ---- -- --- ------- --<br>------- ---------- ------ -- ----- -- ----- -- ---- ------<br>--- ----- --- --- ------ interest ----- --- ------ ----- --<br>----- ----- ---------- --- --- ------ ------ ---- -- ------<br>------- --- ------ ----- --- ---- ------- -- ---- --- --<br>------- ------,169047.26499971002,169046.20500002056,168605.313,168609.57499966025,168621.979,169055.225,,27,interest
screen,html.Screen,1_1_1_1_28,2021-04-15T17:08:56.566Z,,,,,,,,,,,,,,,,54,,,,,,,,,,,,,,512.3549995660724,,response,,,,100,,,,,,,Space,keypress(Space),,,,,,,,-- --- ---- --- ------ ----- ------- ---- -- --- ------- --<br>------- ---------- ------ -- ----- -- ----- -- ---- ------<br>--- ----- --- --- ------ -------- rate. --- ------ ----- --<br>----- ----- ---------- --- --- ------ ------ ---- -- ------<br>------- --- ------ ----- --- ---- ------- -- ---- --- --<br>------- ------,169568.51499993354,169567.57999956608,169038.644,169047.7249994874,169055.225,169571.768,,28,rate.
screen,html.Screen,1_1_1_1_29,2021-04-15T17:08:57.062Z,,,,,,,,,,,,,,,,54,,,,,,,,,,,,,,492.37199944924214,,response,,,,100,,,,,,,Space,keypress(Space),,,,,,,,-- --- ---- --- ------ ----- ------- ---- -- --- ------- --<br>------- ---------- ------ -- ----- -- ----- -- ---- ------<br>--- ----- --- --- ------ -------- ----- The ------ ----- --<br>----- ----- ---------- --- --- ------ ------ ---- -- ------<br>------- --- ------ ----- --- ---- ------- -- ---- --- --<br>------- ------,170064.68999944627,170064.13999944925,169555.391,169568.69000010192,169571.768,170072.021,,29,The
screen,html.Screen,1_1_1_1_30,2021-04-15T17:08:57.608Z,,,,,,,,,,,,,,,,54,,,,,,,,,,,,,,538.1339994200389,,response,,,,100,,,,,,,Space,keypress(Space),,,,,,,,-- --- ---- --- ------ ----- ------- ---- -- --- ------- --<br>------- ---------- ------ -- ----- -- ----- -- ---- ------<br>--- ----- --- --- ------ -------- ----- --- market ----- --<br>----- ----- ---------- --- --- ------ ------ ---- -- ------<br>------- --- ------ ----- --- ---- ------- -- ---- --- --<br>------- ------,170610.9549999237,170610.15499942005,170055.334,170064.77999966592,170072.021,170621.626,,30,market
screen,html.Screen,1_1_1_1_31,2021-04-15T17:08:58.130Z,,,,,,,,,,,,,,,,54,,,,,,,,,,,,,,509.94399927015183,,response,,,,100,,,,,,,Space,keypress(Space),,,,,,,,-- --- ---- --- ------ ----- ------- ---- -- --- ------- --<br>------- ---------- ------ -- ----- -- ----- -- ---- ------<br>--- ----- --- --- ------ -------- ----- --- ------ value --<br>----- ----- ---------- --- --- ------ ------ ---- -- ------<br>------- --- ------ ----- --- ---- ------- -- ---- --- --<br>------- ------,171132.37999938428,171131.56999927014,170605.061,170611.13499943167,170621.626,171138.32,,31,value
screen,html.Screen,1_1_1_1_32,2021-04-15T17:08:58.711Z,,,,,,,,,,,,,,,,54,,,,,,,,,,,,,,574.4199994060327,,response,,,,100,,,,,,,Space,keypress(Space),,,,,,,,-- --- ---- --- ------ ----- ------- ---- -- --- ------- --<br>------- ---------- ------ -- ----- -- ----- -- ---- ------<br>--- ----- --- --- ------ -------- ----- --- ------ ----- of<br>----- ----- ---------- --- --- ------ ------ ---- -- ------<br>------- --- ------ ----- --- ---- ------- -- ---- --- --<br>------- ------,171713.5250000283,171712.73999940604,171121.644,171132.56999943405,171138.32,171721.783,,32,of
screen,html.Screen,1_1_1_1_33,2021-04-15T17:08:59.199Z,,,,,,,,,,,,,,,,54,,,,,,,,,,,,,,478.941999420349,,response,,,,100,,,,,,,Space,keypress(Space),,,,,,,,-- --- ---- --- ------ ----- ------- ---- -- --- ------- --<br>------- ---------- ------ -- ----- -- ----- -- ---- ------<br>--- ----- --- --- ------ -------- ----- --- ------ ----- --<br>these ----- ---------- --- --- ------ ------ ---- -- ------<br>------- --- ------ ----- --- ---- ------- -- ---- --- --<br>------- ------,172201.56499929726,172200.72499942034,171705.152,171713.69999926537,171721.783,172204.647,,33,these
screen,html.Screen,1_1_1_1_34,2021-04-15T17:08:59.617Z,,,,,,,,,,,,,,,,54,,,,,,,,,,,,,,414.63299928593915,,response,,,,100,,,,,,,Space,keypress(Space),,,,,,,,-- --- ---- --- ------ ----- ------- ---- -- --- ------- --<br>------- ---------- ------ -- ----- -- ----- -- ---- ------<br>--- ----- --- --- ------ -------- ----- --- ------ ----- --<br>----- bonds ---------- --- --- ------ ------ ---- -- ------<br>------- --- ------ ----- --- ---- ------- -- ---- --- --<br>------- ------,172620.04499975592,172619.27999928594,172188.404,172201.75999961793,172204.647,172639.444,,34,bonds
screen,html.Screen,1_1_1_1_35,2021-04-15T17:09:00.283Z,,,,,,,,,,,,,,,,54,,,,,,,,,,,,,,645.9709993509168,,response,,,,100,,,,,,,Space,keypress(Space),,,,,,,,"-- --- ---- --- ------ ----- ------- ---- -- --- ------- --<br>------- ---------- ------ -- ----- -- ----- -- ---- ------<br>--- ----- --- --- ------ -------- ----- --- ------ ----- --<br>----- ----- plummeted, --- --- ------ ------ ---- -- ------<br>------- --- ------ ----- --- ---- ------- -- ---- --- --<br>------- ------",173286.27000004053,173285.4149993509,172604.817,172620.2199999243,172639.444,173305.175,,35,"plummeted,"
screen,html.Screen,1_1_1_1_36,2021-04-15T17:09:00.733Z,,,,,,,,,,,,,,,,54,,,,,,,,,,,,,,430.28999945224496,,response,,,,100,,,,,,,Space,keypress(Space),,,,,,,,-- --- ---- --- ------ ----- ------- ---- -- --- ------- --<br>------- ---------- ------ -- ----- -- ----- -- ---- ------<br>--- ----- --- --- ------ -------- ----- --- ------ ----- --<br>----- ----- ---------- and --- ------ ------ ---- -- ------<br>------- --- ------ ----- --- ---- ------- -- ---- --- --<br>------- ------,173736.2449998036,173735.46499945223,173271.469,173286.4600000903,173305.175,173755.058,,36,and
screen,html.Screen,1_1_1_1_37,2021-04-15T17:09:01.124Z,,,,,,,,,,,,,,,,54,,,,,,,,,,,,,,370.98199953717995,,response,,,,100,,,,,,,Space,keypress(Space),,,,,,,,-- --- ---- --- ------ ----- ------- ---- -- --- ------- --<br>------- ---------- ------ -- ----- -- ----- -- ---- ------<br>--- ----- --- --- ------ -------- ----- --- ------ ----- --<br>----- ----- ---------- --- the ------ ------ ---- -- ------<br>------- --- ------ ----- --- ---- ------- -- ---- --- --<br>------- ------,174126.69499963522,174126.03999953717,173721.298,173736.42499931157,173755.058,174138.276,,37,the
screen,html.Screen,1_1_1_1_38,2021-04-15T17:09:01.704Z,,,,,,,,,,,,,,,,54,,,,,,,,,,,,,,567.8739999835961,,response,,,,100,,,,,,,Space,keypress(Space),,,,,,,,-- --- ---- --- ------ ----- ------- ---- -- --- ------- --<br>------- ---------- ------ -- ----- -- ----- -- ---- ------<br>--- ----- --- --- ------ -------- ----- --- ------ ----- --<br>----- ----- ---------- --- --- market ------ ---- -- ------<br>------- --- ------ ----- --- ---- ------- -- ---- --- --<br>------- ------,174706.92999940366,174706.1499999836,174121.393,174126.80999934673,174138.276,174721.02,,38,market
screen,html.Screen,1_1_1_1_39,2021-04-15T17:09:02.175Z,,,,,,,,,,,,,,,,54,,,,,,,,,,,,,,455.9649993288622,,response,,,,100,,,,,,,Space,keypress(Space),,,,,,,,-- --- ---- --- ------ ----- ------- ---- -- --- ------- --<br>------- ---------- ------ -- ----- -- ----- -- ---- ------<br>--- ----- --- --- ------ -------- ----- --- ------ ----- --<br>----- ----- ---------- --- --- ------ became ---- -- ------<br>------- --- ------ ----- --- ---- ------- -- ---- --- --<br>------- ------,175177.84499935806,175176.98499932885,174704.445,174707.09499996156,174721.02,175187.573,,39,became
screen,html.Screen,1_1_1_1_40,2021-04-15T17:09:02.916Z,,,,,,,,,,,,,,,,54,,,,,,,,,,,,,,730.6969993252715,,response,,,,100,,,,,,,Space,keypress(Space),,,,,,,,-- --- ---- --- ------ ----- ------- ---- -- --- ------- --<br>------- ---------- ------ -- ----- -- ----- -- ---- ------<br>--- ----- --- --- ------ -------- ----- --- ------ ----- --<br>----- ----- ---------- --- --- ------ ------ wary -- ------<br>------- --- ------ ----- --- ---- ------- -- ---- --- --<br>------- ------,175918.9849998802,175918.26999932528,175170.901,175178.03000006825,175187.573,175938.03,,40,wary
screen,html.Screen,1_1_1_1_41,2021-04-15T17:09:03.418Z,,,,,,,,,,,,,,,,54,,,,,,,,,,,,,,482.1549997043621,,response,,,,100,,,,,,,Space,keypress(Space),,,,,,,,-- --- ---- --- ------ ----- ------- ---- -- --- ------- --<br>------- ---------- ------ -- ----- -- ----- -- ---- ------<br>--- ----- --- --- ------ -------- ----- --- ------ ----- --<br>----- ----- ---------- --- --- ------ ------ ---- of ------<br>------- --- ------ ----- --- ---- ------- -- ---- --- --<br>------- ------,176420.9949998185,176420.18499970436,175904.217,175919.14499923587,175938.03,176437.391,,41,of
screen,html.Screen,1_1_1_1_42,2021-04-15T17:09:03.894Z,,,,,,,,,,,,,,,,54,,,,,,,,,,,,,,458.5489992600051,,response,,,,100,,,,,,,Space,keypress(Space),,,,,,,,-- --- ---- --- ------ ----- ------- ---- -- --- ------- --<br>------- ---------- ------ -- ----- -- ----- -- ---- ------<br>--- ----- --- --- ------ -------- ----- --- ------ ----- --<br>----- ----- ---------- --- --- ------ ------ ---- -- French<br>------- --- ------ ----- --- ---- ------- -- ---- --- --<br>------- ------,176896.73000015318,176895.93999926,176421.318,176421.17499932647,176437.391,176904.263,,42,French
screen,html.Screen,1_1_1_1_43,2021-04-15T17:09:04.641Z,,,,,,,,,,,,,,,,54,,,,,,,,,,,,,,738.9819994608697,,response,,,,100,,,,,,,Space,keypress(Space),,,,,,,,-- --- ---- --- ------ ----- ------- ---- -- --- ------- --<br>------- ---------- ------ -- ----- -- ----- -- ---- ------<br>--- ----- --- --- ------ -------- ----- --- ------ ----- --<br>----- ----- ---------- --- --- ------ ------ ---- -- ------<br>credit. --- ------ ----- --- ---- ------- -- ---- --- --<br>------- ------,177644.0799999982,177643.24499946088,176887.279,176896.88499923795,176904.263,177654.377,,43,credit.
screen,html.Screen,1_1_1_1_44,2021-04-15T17:09:05.058Z,,,,,,,,,,,,,,,,54,,,,,,,,,,,,,,405.5779999460501,,response,,,,100,,,,,,,Space,keypress(Space),,,,,,,,-- --- ---- --- ------ ----- ------- ---- -- --- ------- --<br>------- ---------- ------ -- ----- -- ----- -- ---- ------<br>--- ----- --- --- ------ -------- ----- --- ------ ----- --<br>----- ----- ---------- --- --- ------ ------ ---- -- ------<br>------- The ------ ----- --- ---- ------- -- ---- --- --<br>------- ------,178060.79499982297,178059.95499994606,177637.273,177644.27999965847,177654.377,178070.469,,44,The
screen,html.Screen,1_1_1_1_45,2021-04-15T17:09:05.589Z,,,,,,,,,,,,,,,,54,,,,,,,,,,,,,,520.3809993383766,,response,,,,100,,,,,,,Space,keypress(Space),,,,,,,,-- --- ---- --- ------ ----- ------- ---- -- --- ------- --<br>------- ---------- ------ -- ----- -- ----- -- ---- ------<br>--- ----- --- --- ------ -------- ----- --- ------ ----- --<br>----- ----- ---------- --- --- ------ ------ ---- -- ------<br>------- --- French ----- --- ---- ------- -- ---- --- --<br>------- ------,178591.66999999434,178590.8499993384,178053.921,178060.96499972045,178070.469,178603.822,,45,French
screen,html.Screen,1_1_1_1_46,2021-04-15T17:09:07.170Z,,,,,,,,,,,,,,,,54,,,,,,,,,,,,,,1567.8579996793414,,response,,,,100,,,,,,,Space,keypress(Space),,,,,,,,-- --- ---- --- ------ ----- ------- ---- -- --- ------- --<br>------- ---------- ------ -- ----- -- ----- -- ---- ------<br>--- ----- --- --- ------ -------- ----- --- ------ ----- --<br>----- ----- ---------- --- --- ------ ------ ---- -- ------<br>------- --- ------ state --- ---- ------- -- ---- --- --<br>------- ------,180172.51999955624,180171.67999967933,178587.111,178591.8549997732,178603.822,180187.019,,46,state
screen,html.Screen,1_1_1_1_47,2021-04-15T17:09:07.596Z,,,,,,,,,,,,,,,,54,,,,,,,,,,,,,,411.5409998384712,,response,,,,100,,,,,,,Space,keypress(Space),,,,,,,,-- --- ---- --- ------ ----- ------- ---- -- --- ------- --<br>------- ---------- ------ -- ----- -- ----- -- ---- ------<br>--- ----- --- --- ------ -------- ----- --- ------ ----- --<br>----- ----- ---------- --- --- ------ ------ ---- -- ------<br>------- --- ------ ----- was ---- ------- -- ---- --- --<br>------- ------,180599.3749992922,180598.55999983847,180170.566,180172.7049993351,180187.019,180603.283,,47,was
screen,html.Screen,1_1_1_1_48,2021-04-15T17:09:08.036Z,,,,,,,,,,,,,,,,54,,,,,,,,,,,,,,434.93699952197494,,response,,,,100,,,,,,,Space,keypress(Space),,,,,,,,-- --- ---- --- ------ ----- ------- ---- -- --- ------- --<br>------- ---------- ------ -- ----- -- ----- -- ---- ------<br>--- ----- --- --- ------ -------- ----- --- ------ ----- --<br>----- ----- ---------- --- --- ------ ------ ---- -- ------<br>------- --- ------ ----- --- left ------- -- ---- --- --<br>------- ------,181039.0550000593,181038.21999952197,180587.066,180599.55499973148,180603.283,181053.283,,48,left
screen,html.Screen,1_1_1_1_49,2021-04-15T17:09:08.638Z,,,,,,,,,,,,,,,,54,,,,,,,,,,,,,,586.4719994289917,,response,,,,100,,,,,,,Space,keypress(Space),,,,,,,,-- --- ---- --- ------ ----- ------- ---- -- --- ------- --<br>------- ---------- ------ -- ----- -- ----- -- ---- ------<br>--- ----- --- --- ------ -------- ----- --- ------ ----- --<br>----- ----- ---------- --- --- ------ ------ ---- -- ------<br>------- --- ------ ----- --- ---- without -- ---- --- --<br>------- ------,181640.54999966174,181639.754999429,181037.076,181039.21499941498,181053.283,181653.142,,49,without
screen,html.Screen,1_1_1_1_50,2021-04-15T17:09:09.139Z,,,,,,,,,,,,,,,,54,,,,,,,,,,,,,,487.59799971152097,,response,,,,100,,,,,,,Space,keypress(Space),,,,,,,,-- --- ---- --- ------ ----- ------- ---- -- --- ------- --<br>------- ---------- ------ -- ----- -- ----- -- ---- ------<br>--- ----- --- --- ------ -------- ----- --- ------ ----- --<br>----- ----- ---------- --- --- ------ ------ ---- -- ------<br>------- --- ------ ----- --- ---- ------- an ---- --- --<br>------- ------,182141.57499931753,182140.7399997115,181636.903,181640.72499983013,181653.142,182153.142,,50,an
screen,html.Screen,1_1_1_1_51,2021-04-15T17:09:09.650Z,,,,,,,,,,,,,,,,54,,,,,,,,,,,,,,498.9629998700693,,response,,,,100,,,,,,,Space,keypress(Space),,,,,,,,-- --- ---- --- ------ ----- ------- ---- -- --- ------- --<br>------- ---------- ------ -- ----- -- ----- -- ---- ------<br>--- ----- --- --- ------ -------- ----- --- ------ ----- --<br>----- ----- ---------- --- --- ------ ------ ---- -- ------<br>------- --- ------ ----- --- ---- ------- -- easy --- --<br>------- ------,182652.93999947608,182652.10499987006,182136.66,182141.76000002772,182153.142,182669.796,,51,easy
screen,html.Screen,1_1_1_1_52,2021-04-15T17:09:10.041Z,,,,,,,,,,,,,,,,54,,,,,,,,,,,,,,373.76400013649254,,response,,,,100,,,,,,,Space,keypress(Space),,,,,,,,-- --- ---- --- ------ ----- ------- ---- -- --- ------- --<br>------- ---------- ------ -- ----- -- ----- -- ---- ------<br>--- ----- --- --- ------ -------- ----- --- ------ ----- --<br>----- ----- ---------- --- --- ------ ------ ---- -- ------<br>------- --- ------ ----- --- ---- ------- -- ---- way --<br>------- ------,183044.37999986112,183043.5600001365,182653.12,182653.11999991536,182669.796,183053.295,,52,way
screen,html.Screen,1_1_1_1_53,2021-04-15T17:09:10.579Z,,,,,,,,,,,,,,,,54,,,,,,,,,,,,,,528.1949997785559,,response,,,,100,,,,,,,Space,keypress(Space),,,,,,,,-- --- ---- --- ------ ----- ------- ---- -- --- ------- --<br>------- ---------- ------ -- ----- -- ----- -- ---- ------<br>--- ----- --- --- ------ -------- ----- --- ------ ----- --<br>----- ----- ---------- --- --- ------ ------ ---- -- ------<br>------- --- ------ ----- --- ---- ------- -- ---- --- of<br>------- ------,183582.26499985904,183581.48999977857,183036.517,183044.5499997586,183053.295,183586.17,,53,of
screen,html.Screen,1_1_1_1_54,2021-04-15T17:09:11.442Z,,,,,,,,,,,,,,,,54,,,,,,,,,,,,,,858.049999946641,,response,,,,100,,,,,,,Space,keypress(Space),,,,,,,,-- --- ---- --- ------ ----- ------- ---- -- --- ------- --<br>------- ---------- ------ -- ----- -- ----- -- ---- ------<br>--- ----- --- --- ------ -------- ----- --- ------ ----- --<br>----- ----- ---------- --- --- ------ ------ ---- -- ------<br>------- --- ------ ----- --- ---- ------- -- ---- --- --<br>raising ------,184445.11999934912,184444.21999994665,183569.714,183582.45999924839,183586.17,184452.863,,54,raising
screen,html.Screen,1_1_1_1_55,2021-04-15T17:09:11.984Z,,,,,,,,,,,,,,,,54,,,,,,,,,,,,,,533.5070000569103,,response,,,,100,,,,,,,Space,keypress(Space),,,,,,,,-- --- ---- --- ------ ----- ------- ---- -- --- ------- --<br>------- ---------- ------ -- ----- -- ----- -- ---- ------<br>--- ----- --- --- ------ -------- ----- --- ------ ----- --<br>----- ----- ---------- --- --- ------ ------ ---- -- ------<br>------- --- ------ ----- --- ---- ------- -- ---- --- --<br>------- money.,184987.17499990016,184986.37000005692,184436.478,184445.2899992466,184452.863,185002.675,,55,money.
Item 100,flow.Loop,1_1_1_1,2021-04-15T17:09:11.985Z,,,,,,,,,,,,,,,,,,,,,,,,,,,,,,32811.800000056915,,completion,,,,,B,,,,,,,,,,,silence,,,,,184987.44999989867,184986.37000005692,152158.049,152159.1400001198,152174.57,185002.675,,,
Question 1,html.Screen,1_1_1_2,2021-04-15T17:09:16.891Z,,,,,,,,,,,,,,,,,,,,,,,,,,,true,TRUE,,4890.0549994975445,,response,,,,100,B,,,,,,TRUE,click #choice-1,,,,silence,,,,,189893.92499998212,189892.72999949753,184986.096,184987.575000152,185002.675,189901.902,,,
Question 2,html.Screen,1_1_1_3,2021-04-15T17:09:20.306Z,,,,,,,,,,,,,,,,,,,,,,,,,,,true,FALSE,,3405.6729995186906,,response,,,,100,B,,,,,,FALSE,click #choice-2,,,,silence,,,,,193308.91000013798,193307.5749995187,189885.334,189894.1150000319,189901.902,193318.009,,,
Item 100,flow.Sequence,1_1_1,2021-04-15T17:09:20.306Z,,,,,,,,,,,,,,,,,,,,,,,,,,,,,,51131.1989995187,,completion,,,,,,,,,,,,,,,,,,,,,193309.21499989927,193307.5749995187,142159.983,142166.88999999315,142176.376,193318.009,,,
End of Practice,html.Page,1_1_2,2021-04-15T17:09:25.406Z,,,,,,,,,,,,,,,,,,,,,,,,,,,,,,5091.096000086138,,form submission,,,,,,,,,,,,,,,,,,,,,198409.2799993232,198409.10500008613,193301.474,193309.35999937356,193318.009,198417.365,,,
Practice,flow.Sequence,1_1,2021-04-15T17:09:25.407Z,,,,,,,,,,,,,,,,,,,,,,,,,,,,,,106491.47600008613,,completion,,,,,,,,,,,,,,,,,,,,,198409.47999991477,198409.10500008613,91901.145,91916.16499982774,91917.629,198417.365,,,
Trap_instruction,html.Page,1_2_0,2021-04-15T17:09:33.345Z,,,,,,,,,,,,,,,,,,,,,,,,,,,,,,7929.699999863515,,form submission,,,,,,,,,,,,,,,,,,,,,206347.38499950618,206347.0649998635,198401.01,198409.574999474,198417.365,206349.183,,,
trap_trial,html.Screen,1_2_1,2021-04-15T17:09:37.308Z,,,,,,,,,,,,,,,,,,,,,,,,,,,true,1,,3960.2719998641114,,response,,,,,,,,,,,1,click #choice-1,,,,,,,,,210310.70499960333,210309.4549998641,206333.081,206347.54499979317,206349.183,210315.209,,,
end of trap trial,html.Page,1_2_2,2021-04-15T17:09:40.013Z,,,,,,,,,,,,,,,,,,,,,,,,,,,,,,2700.4959996778343,,form submission,,,,,,,,,,,,,,,,,,,,,213016.11499954015,213015.70499967784,210299.001,210310.94499956816,210315.209,213031.399,,,
Trap 1,flow.Sequence,1_2,2021-04-15T17:09:40.013Z,,,,,,,,,,,,,,,,,,,,,,,,,,,,,,14598.339999677846,,completion,,,,,,,,,,,,,,,,,,,,,213016.43500011414,213015.70499967784,198401.01,198409.54499971122,198417.365,213031.399,,,
Standby,html.Page,1_3_0,2021-04-15T17:09:48.011Z,,,,,,,,,,,,,,,,,,,,,,,,,,,,,,7998.809000000008,,timeout,,,,,,,,,,,,,,,,,,,,,221014.55499976873,221013.644,213014.992,213016.59499946982,213031.399,221030.208,,,
Holding screen,html.Screen,1_3_1_0_0,2021-04-15T17:09:55.010Z,,,,,,,,,,,,,,,,,,,,,,,,,,,,,,6998.800999999978,,timeout,,,,,,,,,,,,,,,,,,,,,228013.06999940425,228012.387,221013.644,221014.81499988586,221030.208,228029.009,,,
screen,html.Screen,1_3_1_0_1_0,2021-04-15T17:09:55.544Z,,,,,,,,,,,,,,,,15,,,,,,,,,,,,,,517.1960000205727,,response,,,,7,B,,,,,,Space,keypress(Space),,,,lyrical,,,,Greg --------- ---------- - --- ------- -- --- ------------<br>----- -- -------- ------- ---- ------ - -------- ---- -----<br>--- ------- ---- -- --- -------- --- - ----- ------ ---- --<br>-------- --- -------- -------- --- -------- ---- -- ----- -<br>-------- ---- --- ---------- --------- -- ------- ------ -<br>--------- ----- -----,228547.07999993116,228546.20500002056,228012.387,228013.20499926805,228029.009,228562.351,,0,Greg
screen,html.Screen,1_3_1_0_1_1,2021-04-15T17:09:56.175Z,,,,,,,,,,,,,,,,15,,,,,,,,,,,,,,614.9039999877859,,response,,,,7,B,,,,,,Space,keypress(Space),,,,lyrical,,,,"---- Anderson, ---------- - --- ------- -- --- ------------<br>----- -- -------- ------- ---- ------ - -------- ---- -----<br>--- ------- ---- -- --- -------- --- - ----- ------ ---- --<br>-------- --- -------- -------- --- -------- ---- -- ----- -<br>-------- ---- --- ---------- --------- -- ------- ------ -<br>--------- ----- -----",229178.05499956012,229177.25499998778,228545.815,228547.2849998623,228562.351,229212.522,,1,"Anderson,"
screen,html.Screen,1_3_1_0_1_2,2021-04-15T17:09:56.941Z,,,,,,,,,,,,,,,,15,,,,,,,,,,,,,,731.3429993389873,,response,,,,7,B,,,,,,Space,keypress(Space),,,,lyrical,,,,---- --------- considered - --- ------- -- --- ------------<br>----- -- -------- ------- ---- ------ - -------- ---- -----<br>--- ------- ---- -- --- -------- --- - ----- ------ ---- --<br>-------- --- -------- -------- --- -------- ---- -- ----- -<br>-------- ---- --- ---------- --------- -- ------- ------ -<br>--------- ----- -----,229944.67000011355,229943.86499933898,229195.932,229178.2299997285,229212.522,229979.083,,2,considered
screen,html.Screen,1_3_1_0_1_3,2021-04-15T17:09:57.485Z,,,,,,,,,,,,,,,,15,,,,,,,,,,,,,,507.9869997991191,,response,,,,7,B,,,,,,Space,keypress(Space),,,,lyrical,,,,---- --------- ---------- a --- ------- -- --- ------------<br>----- -- -------- ------- ---- ------ - -------- ---- -----<br>--- ------- ---- -- --- -------- --- - ----- ------ ---- --<br>-------- --- -------- -------- --- -------- ---- -- ----- -<br>-------- ---- --- ---------- --------- -- ------- ------ -<br>--------- ----- -----,230487.88499925286,230487.06999979913,229962.365,229944.8699997738,229979.083,230495.656,,3,a
screen,html.Screen,1_3_1_0_1_4,2021-04-15T17:09:57.912Z,,,,,,,,,,,,,,,,15,,,,,,,,,,,,,,419.29899946178193,,response,,,,7,B,,,,,,Space,keypress(Space),,,,lyrical,,,,---- --------- ---------- - key ------- -- --- ------------<br>----- -- -------- ------- ---- ------ - -------- ---- -----<br>--- ------- ---- -- --- -------- --- - ----- ------ ---- --<br>-------- --- -------- -------- --- -------- ---- -- ----- -<br>-------- ---- --- ---------- --------- -- ------- ------ -<br>--------- ----- -----,230915.69999977946,230914.95499946177,230478.882,230488.06999996305,230495.656,230928.62,,4,key
screen,html.Screen,1_3_1_0_1_5,2021-04-15T17:09:58.644Z,,,,,,,,,,,,,,,,15,,,,,,,,,,,,,,718.3949997621821,,response,,,,7,B,,,,,,Space,keypress(Space),,,,lyrical,,,,---- --------- ---------- - --- witness -- --- ------------<br>----- -- -------- ------- ---- ------ - -------- ---- -----<br>--- ------- ---- -- --- -------- --- - ----- ------ ---- --<br>-------- --- -------- -------- --- -------- ---- -- ----- -<br>-------- ---- --- ---------- --------- -- ------- ------ -<br>--------- ----- -----,231647.7049998939,231647.01499976218,230912.254,230915.86999967694,230928.62,231662.089,,5,witness
screen,html.Screen,1_3_1_0_1_6,2021-04-15T17:09:59.138Z,,,,,,,,,,,,,,,,15,,,,,,,,,,,,,,478.3909995943832,,response,,,,7,B,,,,,,Space,keypress(Space),,,,lyrical,,,,---- --------- ---------- - --- ------- by --- ------------<br>----- -- -------- ------- ---- ------ - -------- ---- -----<br>--- ------- ---- -- --- -------- --- - ----- ------ ---- --<br>-------- --- -------- -------- --- -------- ---- -- ----- -<br>-------- ---- --- ---------- --------- -- ------- ------ -<br>--------- ----- -----,232141.3399996236,232140.4799995944,231645.409,231647.76999969035,231662.089,232145.011,,6,by
screen,html.Screen,1_3_1_0_1_7,2021-04-15T17:09:59.661Z,,,,,,,,,,,,,,,,15,,,,,,,,,,,,,,518.118999302329,,response,,,,7,B,,,,,,Space,keypress(Space),,,,lyrical,,,,---- --------- ---------- - --- ------- -- the ------------<br>----- -- -------- ------- ---- ------ - -------- ---- -----<br>--- ------- ---- -- --- -------- --- - ----- ------ ---- --<br>-------- --- -------- -------- --- -------- ---- -- ----- -<br>-------- ---- --- ---------- --------- -- ------- ------ -<br>--------- ----- -----,232663.92499953508,232663.12999930233,232128.51,232141.50499925017,232145.011,232678.369,,7,the
screen,html.Screen,1_3_1_0_1_8,2021-04-15T17:10:00.371Z,,,,,,,,,,,,,,,,15,,,,,,,,,,,,,,695.0659999576746,,response,,,,7,B,,,,,,Space,keypress(Space),,,,lyrical,,,,"---- --------- ---------- - --- ------- -- --- prosecution,<br>----- -- -------- ------- ---- ------ - -------- ---- -----<br>--- ------- ---- -- --- -------- --- - ----- ------ ---- --<br>-------- --- -------- -------- --- -------- ---- -- ----- -<br>-------- ---- --- ---------- --------- -- ------- ------ -<br>--------- ----- -----",233374.2800001055,233373.43499995768,232661.834,232664.11999985576,232678.369,233378.109,,8,"prosecution,"
screen,html.Screen,1_3_1_0_1_9,2021-04-15T17:10:01.041Z,,,,,,,,,,,,,,,,15,,,,,,,,,,,,,,665.4759996283683,,response,,,,7,B,,,,,,Space,keypress(Space),,,,lyrical,,,,---- --------- ---------- - --- ------- -- --- ------------<br>vowed -- -------- ------- ---- ------ - -------- ---- -----<br>--- ------- ---- -- --- -------- --- - ----- ------ ---- --<br>-------- --- -------- -------- --- -------- ---- -- ----- -<br>-------- ---- --- ---------- --------- -- ------- ------ -<br>--------- ----- -----,234044.404999353,234043.58499962837,233361.603,233374.45000000298,233378.109,234078.086,,9,vowed
screen,html.Screen,1_3_1_0_1_10,2021-04-15T17:10:01.510Z,,,,,,,,,,,,,,,,15,,,,,,,,,,,,,,434.49399986409117,,response,,,,7,B,,,,,,Space,keypress(Space),,,,lyrical,,,,---- --------- ---------- - --- ------- -- --- ------------<br>----- he -------- ------- ---- ------ - -------- ---- -----<br>--- ------- ---- -- --- -------- --- - ----- ------ ---- --<br>-------- --- -------- -------- --- -------- ---- -- ----- -<br>-------- ---- --- ---------- --------- -- ------- ------ -<br>--------- ----- -----,234513.38999997824,234512.5799998641,234061.788,234044.59000006318,234078.086,234528.138,,10,he
screen,html.Screen,1_3_1_0_1_11,2021-04-15T17:10:02.073Z,,,,,,,,,,,,,,,,15,,,,,,,,,,,,,,545.5969996343192,,response,,,,7,B,,,,,,Space,keypress(Space),,,,lyrical,,,,---- --------- ---------- - --- ------- -- --- ------------<br>----- -- wouldn't ------- ---- ------ - -------- ---- -----<br>--- ------- ---- -- --- -------- --- - ----- ------ ---- --<br>-------- --- -------- -------- --- -------- ---- -- ----- -<br>-------- ---- --- ---------- --------- -- ------- ------ -<br>--------- ----- -----,235075.90499985963,235073.73499963433,234511.287,234513.56500014663,234528.138,235094.892,,11,wouldn't
screen,html.Screen,1_3_1_0_1_12,2021-04-15T17:10:02.691Z,,,,,,,,,,,,,,,,15,,,,,,,,,,,,,,598.5329997139052,,response,,,,7,B,,,,,,Space,keypress(Space),,,,lyrical,,,,---- --------- ---------- - --- ------- -- --- ------------<br>----- -- -------- testify ---- ------ - -------- ---- -----<br>--- ------- ---- -- --- -------- --- - ----- ------ ---- --<br>-------- --- -------- -------- --- -------- ---- -- ----- -<br>-------- ---- --- ---------- --------- -- ------- ------ -<br>--------- ----- -----,235694.2949993536,235693.4249997139,235061.531,235077.2249996662,235094.892,235711.195,,12,testify
screen,html.Screen,1_3_1_0_1_13,2021-04-15T17:10:03.188Z,,,,,,,,,,,,,,,,15,,,,,,,,,,,,,,479.5649996775319,,response,,,,7,B,,,,,,Space,keypress(Space),,,,lyrical,,,,---- --------- ---------- - --- ------- -- --- ------------<br>----- -- -------- ------- when ------ - -------- ---- -----<br>--- ------- ---- -- --- -------- --- - ----- ------ ---- --<br>-------- --- -------- -------- --- -------- ---- -- ----- -<br>-------- ---- --- ---------- --------- -- ------- ------ -<br>--------- ----- -----,236191.59499928355,236190.75999967754,235694.957,235694.49999928474,235711.195,236194.405,,13,when
screen,html.Screen,1_3_1_0_1_14,2021-04-15T17:10:03.889Z,,,,,,,,,,,,,,,,15,,,,,,,,,,,,,,696.5749996763479,,response,,,,7,B,,,,,,Space,keypress(Space),,,,lyrical,,,,---- --------- ---------- - --- ------- -- --- ------------<br>----- -- -------- ------- ---- served - -------- ---- -----<br>--- ------- ---- -- --- -------- --- - ----- ------ ---- --<br>-------- --- -------- -------- --- -------- ---- -- ----- -<br>-------- ---- --- ---------- --------- -- ------- ------ -<br>--------- ----- -----,236891.9249996543,236890.97999967635,236177.928,236191.75999984145,236194.405,236894.32,,14,served
screen,html.Screen,1_3_1_0_1_15,2021-04-15T17:10:04.374Z,,,,,,,,,,,,,,,,15,,,,,,,,,,,,,,481.71499926625984,,response,,,,7,B,,,,,,Space,keypress(Space),,,,lyrical,,,,---- --------- ---------- - --- ------- -- --- ------------<br>----- -- -------- ------- ---- ------ a -------- ---- -----<br>--- ------- ---- -- --- -------- --- - ----- ------ ---- --<br>-------- --- -------- -------- --- -------- ---- -- ----- -<br>-------- ---- --- ---------- --------- -- ------- ------ -<br>--------- ----- -----,237376.85499992222,237376.03499926627,236877.966,236892.09999982268,236894.32,237394.548,,15,a
screen,html.Screen,1_3_1_0_1_16,2021-04-15T17:10:05.058Z,,,,,,,,,,,,,,,,15,,,,,,,,,,,,,,665.4219998274348,,response,,,,7,B,,,,,,Space,keypress(Space),,,,lyrical,,,,---- --------- ---------- - --- ------- -- --- ------------<br>----- -- -------- ------- ---- ------ - subpoena ---- -----<br>--- ------- ---- -- --- -------- --- - ----- ------ ---- --<br>-------- --- -------- -------- --- -------- ---- -- ----- -<br>-------- ---- --- ---------- --------- -- ------- ------ -<br>--------- ----- -----,238060.8799997717,238059.96999982744,237361.298,237377.0300000906,237394.548,238077.778,,16,subpoena
screen,html.Screen,1_3_1_0_1_17,2021-04-15T17:10:05.685Z,,,,,,,,,,,,,,,,15,,,,,,,,,,,,,,609.9969999985187,,response,,,,7,B,,,,,,Space,keypress(Space),,,,lyrical,,,,---- --------- ---------- - --- ------- -- --- ------------<br>----- -- -------- ------- ---- ------ - -------- last -----<br>--- ------- ---- -- --- -------- --- - ----- ------ ---- --<br>-------- --- -------- -------- --- -------- ---- -- ----- -<br>-------- ---- --- ---------- --------- -- ------- ------ -<br>--------- ----- -----,238688.58500011265,238687.7749999985,238061.033,238061.05999927968,238077.778,238694.046,,17,last
screen,html.Screen,1_3_1_0_1_18,2021-04-15T17:10:06.268Z,,,,,,,,,,,,,,,,15,,,,,,,,,,,,,,576.6690001078823,,response,,,,7,B,,,,,,Space,keypress(Space),,,,lyrical,,,,---- --------- ---------- - --- ------- -- --- ------------<br>----- -- -------- ------- ---- ------ - -------- ---- week.<br>--- ------- ---- -- --- -------- --- - ----- ------ ---- --<br>-------- --- -------- -------- --- -------- ---- -- ----- -<br>-------- ---- --- ---------- --------- -- ------- ------ -<br>--------- ----- -----,239271.50999940932,239270.71500010788,238677.515,238688.76499962062,238694.046,239277.159,,18,week.
screen,html.Screen,1_3_1_0_1_19,2021-04-15T17:10:06.791Z,,,,,,,,,,,,,,,,15,,,,,,,,,,,,,,516.5509998816706,,response,,,,7,B,,,,,,Space,keypress(Space),,,,lyrical,,,,---- --------- ---------- - --- ------- -- --- ------------<br>----- -- -------- ------- ---- ------ - -------- ---- -----<br>His ------- ---- -- --- -------- --- - ----- ------ ---- --<br>-------- --- -------- -------- --- -------- ---- -- ----- -<br>-------- ---- --- ---------- --------- -- ------- ------ -<br>--------- ----- -----,239794.5249993354,239793.70999988168,239261.096,239271.6849995777,239277.159,239810.771,,19,His
screen,html.Screen,1_3_1_0_1_20,2021-04-15T17:10:07.591Z,,,,,,,,,,,,,,,,15,,,,,,,,,,,,,,782.4640000366489,,response,,,,7,B,,,,,,Space,keypress(Space),,,,lyrical,,,,---- --------- ---------- - --- ------- -- --- ------------<br>----- -- -------- ------- ---- ------ - -------- ---- -----<br>--- lawyers ---- -- --- -------- --- - ----- ------ ---- --<br>-------- --- -------- -------- --- -------- ---- -- ----- -<br>-------- ---- --- ---------- --------- -- ------- ------ -<br>--------- ----- -----,240594.06499937177,240593.23500003666,239794.12,239794.6949992329,239810.771,240610.435,,20,lawyers
screen,html.Screen,1_3_1_0_1_21,2021-04-15T17:10:08.099Z,,,,,,,,,,,,,,,,15,,,,,,,,,,,,,,490.89499997586245,,response,,,,7,B,,,,,,Space,keypress(Space),,,,lyrical,,,,---- --------- ---------- - --- ------- -- --- ------------<br>----- -- -------- ------- ---- ------ - -------- ---- -----<br>--- ------- said -- --- -------- --- - ----- ------ ---- --<br>-------- --- -------- -------- --- -------- ---- -- ----- -<br>-------- ---- --- ---------- --------- -- ------- ------ -<br>--------- ----- -----,241102.2449992597,241101.32999997586,240593.797,240594.24499981105,240610.435,241110.446,,21,said
screen,html.Screen,1_3_1_0_1_22,2021-04-15T17:10:08.584Z,,,,,,,,,,,,,,,,15,,,,,,,,,,,,,,476.18900007242337,,response,,,,7,B,,,,,,Space,keypress(Space),,,,lyrical,,,,---- --------- ---------- - --- ------- -- --- ------------<br>----- -- -------- ------- ---- ------ - -------- ---- -----<br>--- ------- ---- he --- -------- --- - ----- ------ ---- --<br>-------- --- -------- -------- --- -------- ---- -- ----- -<br>-------- ---- --- ---------- --------- -- ------- ------ -<br>--------- ----- -----,241587.46499940753,241586.63500007242,241093.76,241102.4099998176,241110.446,241593.599,,22,he
screen,html.Screen,1_3_1_0_1_23,2021-04-15T17:10:09.529Z,,,,,,,,,,,,,,,,15,,,,,,,,,,,,,,937.6559993395931,,response,,,,7,B,,,,,,Space,keypress(Space),,,,lyrical,,,,---- --------- ---------- - --- ------- -- --- ------------<br>----- -- -------- ------- ---- ------ - -------- ---- -----<br>--- ------- ---- -- was -------- --- - ----- ------ ---- --<br>-------- --- -------- -------- --- -------- ---- -- ----- -<br>-------- ---- --- ---------- --------- -- ------- ------ -<br>--------- ----- -----,242532.02999942005,242531.25499933958,241577.027,241587.64499984682,241593.599,242543.696,,23,was
screen,html.Screen,1_3_1_0_1_24,2021-04-15T17:10:10.146Z,,,,,,,,,,,,,,,,15,,,,,,,,,,,,,,605.5389999025501,,response,,,,7,B,,,,,,Space,keypress(Space),,,,lyrical,,,,---- --------- ---------- - --- ------- -- --- ------------<br>----- -- -------- ------- ---- ------ - -------- ---- -----<br>--- ------- ---- -- --- prepared --- - ----- ------ ---- --<br>-------- --- -------- -------- --- -------- ---- -- ----- -<br>-------- ---- --- ---------- --------- -- ------- ------ -<br>--------- ----- -----,243149.77999962866,243149.23499990255,242526.968,242532.09500014782,242543.696,243159.801,,24,prepared
screen,html.Screen,1_3_1_0_1_25,2021-04-15T17:10:10.894Z,,,,,,,,,,,,,,,,15,,,,,,,,,,,,,,736.5939996977977,,response,,,,7,B,,,,,,Space,keypress(Space),,,,lyrical,,,,---- --------- ---------- - --- ------- -- --- ------------<br>----- -- -------- ------- ---- ------ - -------- ---- -----<br>--- ------- ---- -- --- -------- for - ----- ------ ---- --<br>-------- --- -------- -------- --- -------- ---- -- ----- -<br>-------- ---- --- ---------- --------- -- ------- ------ -<br>--------- ----- -----,243896.9749994576,243896.3949996978,243143.414,243149.84999969602,243159.801,243909.797,,25,for
screen,html.Screen,1_3_1_0_1_26,2021-04-15T17:10:11.372Z,,,,,,,,,,,,,,,,15,,,,,,,,,,,,,,465.04799998391536,,response,,,,7,B,,,,,,Space,keypress(Space),,,,lyrical,,,,---- --------- ---------- - --- ------- -- --- ------------<br>----- -- -------- ------- ---- ------ - -------- ---- -----<br>--- ------- ---- -- --- -------- --- a ----- ------ ---- --<br>-------- --- -------- -------- --- -------- ---- -- ----- -<br>-------- ---- --- ---------- --------- -- ------- ------ -<br>--------- ----- -----,244375.5749994889,244374.8449999839,243893.184,243897.1149995923,243909.797,244409.737,,26,a
screen,html.Screen,1_3_1_0_1_27,2021-04-15T17:10:11.839Z,,,,,,,,,,,,,,,,15,,,,,,,,,,,,,,432.09299935001764,,response,,,,7,B,,,,,,Space,keypress(Space),,,,lyrical,,,,---- --------- ---------- - --- ------- -- --- ------------<br>----- -- -------- ------- ---- ------ - -------- ---- -----<br>--- ------- ---- -- --- -------- --- - third ------ ---- --<br>-------- --- -------- -------- --- -------- ---- -- ----- -<br>-------- ---- --- ---------- --------- -- ------- ------ -<br>--------- ----- -----,244842.65999961644,244841.82999935,244393.364,244375.7400000468,244409.737,244860.005,,27,third
screen,html.Screen,1_3_1_0_1_28,2021-04-15T17:10:12.271Z,,,,,,,,,,,,,,,,15,,,,,,,,,,,,,,413.60999983816873,,response,,,,7,B,,,,,,Space,keypress(Space),,,,lyrical,,,,---- --------- ---------- - --- ------- -- --- ------------<br>----- -- -------- ------- ---- ------ - -------- ---- -----<br>--- ------- ---- -- --- -------- --- - ----- prison ---- --<br>-------- --- -------- -------- --- -------- ---- -- ----- -<br>-------- ---- --- ---------- --------- -- ------- ------ -<br>--------- ----- -----,245274.4149994105,245273.61499983817,244843.309,244842.8449993953,244860.005,245276.298,,28,prison
screen,html.Screen,1_3_1_0_1_29,2021-04-15T17:10:12.736Z,,,,,,,,,,,,,,,,15,,,,,,,,,,,,,,462.58200007717824,,response,,,,7,B,,,,,,Space,keypress(Space),,,,lyrical,,,,---- --------- ---------- - --- ------- -- --- ------------<br>----- -- -------- ------- ---- ------ - -------- ---- -----<br>--- ------- ---- -- --- -------- --- - ----- ------ stay --<br>-------- --- -------- -------- --- -------- ---- -- ----- -<br>-------- ---- --- ---------- --------- -- ------- ------ -<br>--------- ----- -----,245739.74499944597,245738.8800000772,245259.933,245274.6150000021,245276.298,245742.785,,29,stay
screen,html.Screen,1_3_1_0_1_30,2021-04-15T17:10:13.213Z,,,,,,,,,,,,,,,,15,,,,,,,,,,,,,,472.84499952584156,,response,,,,7,B,,,,,,Space,keypress(Space),,,,lyrical,,,,---- --------- ---------- - --- ------- -- --- ------------<br>----- -- -------- ------- ---- ------ - -------- ---- -----<br>--- ------- ---- -- --- -------- --- - ----- ------ ---- to<br>-------- --- -------- -------- --- -------- ---- -- ----- -<br>-------- ---- --- ---------- --------- -- ------- ------ -<br>--------- ----- -----,246216.36999957263,246215.62999952585,245726.597,245739.95999991894,245742.785,246226.11,,30,to
screen,html.Screen,1_3_1_0_1_31,2021-04-15T17:10:13.663Z,,,,,,,,,,,,,,,,15,,,,,,,,,,,,,,439.13000000210013,,response,,,,7,B,,,,,,Space,keypress(Space),,,,lyrical,,,,---- --------- ---------- - --- ------- -- --- ------------<br>----- -- -------- ------- ---- ------ - -------- ---- -----<br>--- ------- ---- -- --- -------- --- - ----- ------ ---- --<br>maintain --- -------- -------- --- -------- ---- -- ----- -<br>-------- ---- --- ---------- --------- -- ------- ------ -<br>--------- ----- -----,246666.11499991268,246665.2400000021,246209.433,246216.55000001192,246226.11,246676.564,,31,maintain
screen,html.Screen,1_3_1_0_1_32,2021-04-15T17:10:14.221Z,,,,,,,,,,,,,,,,15,,,,,,,,,,,,,,547.0659999058116,,response,,,,7,B,,,,,,Space,keypress(Space),,,,lyrical,,,,---- --------- ---------- - --- ------- -- --- ------------<br>----- -- -------- ------- ---- ------ - -------- ---- -----<br>--- ------- ---- -- --- -------- --- - ----- ------ ---- --<br>-------- his -------- -------- --- -------- ---- -- ----- -<br>-------- ---- --- ---------- --------- -- ------- ------ -<br>--------- ----- -----,247224.46999978274,247223.62999990582,246659.371,246666.30499996245,246676.564,247243.53,,32,his
screen,html.Screen,1_3_1_0_1_33,2021-04-15T17:10:14.939Z,,,,,,,,,,,,,,,,15,,,,,,,,,,,,,,698.1449998927128,,response,,,,7,B,,,,,,Space,keypress(Space),,,,lyrical,,,,---- --------- ---------- - --- ------- -- --- ------------<br>----- -- -------- ------- ---- ------ - -------- ---- -----<br>--- ------- ---- -- --- -------- --- - ----- ------ ---- --<br>-------- --- silence. -------- --- -------- ---- -- ----- -<br>-------- ---- --- ---------- --------- -- ------- ------ -<br>--------- ----- -----,247942.18999985605,247941.6749998927,247209.64,247224.6499992907,247243.53,247959.93,,33,silence.
screen,html.Screen,1_3_1_0_1_34,2021-04-15T17:10:15.702Z,,,,,,,,,,,,,,,,15,,,,,,,,,,,,,,744.9699993130635,,response,,,,7,B,,,,,,Space,keypress(Space),,,,lyrical,,,,---- --------- ---------- - --- ------- -- --- ------------<br>----- -- -------- ------- ---- ------ - -------- ---- -----<br>--- ------- ---- -- --- -------- --- - ----- ------ ---- --<br>-------- --- -------- Anderson --- -------- ---- -- ----- -<br>-------- ---- --- ---------- --------- -- ------- ------ -<br>--------- ----- -----,248705.7349998504,248704.89999931306,247926.034,247942.264999263,247959.93,248709.047,,34,Anderson
screen,html.Screen,1_3_1_0_1_35,2021-04-15T17:10:16.201Z,,,,,,,,,,,,,,,,15,,,,,,,,,,,,,,494.89299945373205,,response,,,,7,B,,,,,,Space,keypress(Space),,,,lyrical,,,,---- --------- ---------- - --- ------- -- --- ------------<br>----- -- -------- ------- ---- ------ - -------- ---- -----<br>--- ------- ---- -- --- -------- --- - ----- ------ ---- --<br>-------- --- -------- -------- was -------- ---- -- ----- -<br>-------- ---- --- ---------- --------- -- ------- ------ -<br>--------- ----- -----,249204.51499987394,249203.93999945372,248692.83,248705.93499951065,248709.047,249209.001,,35,was
screen,html.Screen,1_3_1_0_1_36,2021-04-15T17:10:16.722Z,,,,,,,,,,,,,,,,15,,,,,,,,,,,,,,514.9389999380219,,response,,,,7,B,,,,,,Space,keypress(Space),,,,lyrical,,,,---- --------- ---------- - --- ------- -- --- ------------<br>----- -- -------- ------- ---- ------ - -------- ---- -----<br>--- ------- ---- -- --- -------- --- - ----- ------ ---- --<br>-------- --- -------- -------- --- released ---- -- ----- -<br>-------- ---- --- ---------- --------- -- ------- ------ -<br>--------- ----- -----,249724.91499967873,249723.939999938,249192.795,249204.59499955177,249209.001,249743.109,,36,released
screen,html.Screen,1_3_1_0_1_37,2021-04-15T17:10:17.198Z,,,,,,,,,,,,,,,,15,,,,,,,,,,,,,,457.78099997824756,,response,,,,7,B,,,,,,Space,keypress(Space),,,,lyrical,,,,---- --------- ---------- - --- ------- -- --- ------------<br>----- -- -------- ------- ---- ------ - -------- ---- -----<br>--- ------- ---- -- --- -------- --- - ----- ------ ---- --<br>-------- --- -------- -------- --- -------- July -- ----- -<br>-------- ---- --- ---------- --------- -- ------- ------ -<br>--------- ----- -----,250201.71999931335,250200.88999997824,249709.175,249725.1300001517,249743.109,250208.871,,37,July
screen,html.Screen,1_3_1_0_1_38,2021-04-15T17:10:17.668Z,,,,,,,,,,,,,,,,15,,,,,,,,,,,,,,461.7189992957574,,response,,,,7,B,,,,,,Space,keypress(Space),,,,lyrical,,,,---- --------- ---------- - --- ------- -- --- ------------<br>----- -- -------- ------- ---- ------ - -------- ---- -----<br>--- ------- ---- -- --- -------- --- - ----- ------ ---- --<br>-------- --- -------- -------- --- -------- ---- 20 ----- -<br>-------- ---- --- ---------- --------- -- ------- ------ -<br>--------- ----- -----,250671.4399997145,250670.58999929577,250192.594,250201.89999975264,250208.871,250675.293,,38,20
screen,html.Screen,1_3_1_0_1_39,2021-04-15T17:10:18.156Z,,,,,,,,,,,,,,,,15,,,,,,,,,,,,,,483.32699988555396,,response,,,,7,B,,,,,,Space,keypress(Space),,,,lyrical,,,,---- --------- ---------- - --- ------- -- --- ------------<br>----- -- -------- ------- ---- ------ - -------- ---- -----<br>--- ------- ---- -- --- -------- --- - ----- ------ ---- --<br>-------- --- -------- -------- --- -------- ---- -- after -<br>-------- ---- --- ---------- --------- -- ------- ------ -<br>--------- ----- -----,251159.4399996102,251158.61999988556,250659.137,250671.62499949336,250675.293,251175.437,,39,after
