sender,sender_type,sender_id,timestamp,meta,,Blues,Classical,Country,Dance,Electronic,Folk,Gospel,Hip-Hop,Jazz,Latin,Musical/Film,New-age,Pop,Provo_ID,R&B,Rap,Reggae,Religious,Rock,Soul,Swing,Traditional,age,artist_name,correct,correctResponse,distraction,duration,education,ended_on,familiarity,gender,headphone_check_performance,item,list,music_frequency,offensiveness,pleasantness,position_correct,preference,response,response_action,snippet_file,song_name,song_rating,sound,stimulus_1,stimulus_2,stimulus_3,text,time_commit,time_end,time_render,time_run,time_show,time_switch,url,word,word_ID
Introduction,html.Screen,0_0,2021-04-19T10:15:05.943Z,"{""labjs_version"":""20.2.2"",""labjs_build"":{""flavor"":""production"",""commit"":""a25486e0c714a0ae2ce03ff94b7bb6896854dcfa""},""location"":""https://run.pavlovia.org/mvasilev/music_d/"",""userAgent"":""Mozilla/5.0 (Macintosh; Intel Mac OS X 10_15_6) AppleWebKit/537.36 (KHTML, like Gecko) Chrome/90.0.4430.72 Safari/537.36"",""platform"":""MacIntel"",""language"":""en-GB"",""locale"":""en-GB"",""timeZone"":""Asia/Makassar"",""timezoneOffset"":-480,""screen_width"":1440,""screen_height"":900,""scroll_width"":1440,""scroll_height"":677,""window_innerWidth"":1440,""window_innerHeight"":725,""devicePixelRatio"":2}",,,,,,,,,,,,,,,,,,,,,,,,,,,,,4012.8600000007427,,response,,,,,,,,,,,continue,click button,,,,,,,,,45856.52500001015,45848.54500000074,41819.019,31649.43000000494,41835.685,45868.857,{},,
Volume calibration,html.Screen,0_1,2021-04-19T10:15:22.198Z,,,,,,,,,,,,,,,,,,,,,,,,,,,,,,16233.998000004634,,response,,,,,,,,,,,continue,click button,,,,,,,,,62111.55000000144,62102.85500000464,45852.191,45857.50500000722,45868.857,62113.41,,,
Task instructions,html.Screen,0_2,2021-04-19T10:15:29.964Z,,,,,,,,,,,,,,,,,,,,,,,,,,,,,,7760.299999999843,,response,,,,,,,,,,,continue,click button,,,,,,,,,69877.84000000102,69873.70999999985,62096.744,62111.77499999758,62113.41,69896.432,,,
Sounds,html.Screen,0_3_0_0,2021-04-19T10:15:34.228Z,,,,,,,,,,,,,,,,,,,,,,,,,,,,,,4255.529999999999,,timeout,,,,,,,,,2,,,,,,,,O,S,I,,74141.4000000077,74135.296,69879.766,69878.37000000582,69896.432,74151.962,,,
Judgement,html.Screen,0_3_0_1,2021-04-19T10:15:35.614Z,,,,,,,,,,,,,,,,,,,,,,,,,,,false,2,,1371.4930000022869,,response,,,,,,,,,2,,1,click #choice-1,,,,,O,S,I,,75527.70500000042,75523.45500000229,74135.296,74141.82499999879,74151.962,75535.24,,,
Trial,flow.Sequence,0_3_0,2021-04-19T10:15:35.615Z,,,,,,,,,,,,,,,,,,,,,,,,,,,,,,5627.023000002286,,completion,,,,,,,,,2,,,,,,,,O,S,I,,75528.74000000884,75523.45500000229,69879.766,69878.25000000885,69896.432,75535.24,,,
Sounds,html.Screen,0_3_1_0,2021-04-19T10:15:39.859Z,,,,,,,,,,,,,,,,,,,,,,,,,,,,,,4249.830000000002,,timeout,,,,,,,,,3,,,,,,,,O,I,S,,79772.2400000057,79768.404,75518.574,75529.12000000651,75535.24,79785.07,,,
Judgement,html.Screen,0_3_1_1,2021-04-19T10:15:40.376Z,,,,,,,,,,,,,,,,,,,,,,,,,,,true,3,,500.94500000512926,,response,,,,,,,,,3,,3,click #choice-3,,,,,O,I,S,,80289.84500000661,80286.01500000514,79768.404,79772.61500000895,79785.07,80301.716,,,
Trial,flow.Sequence,0_3_1,2021-04-19T10:15:40.377Z,,,,,,,,,,,,,,,,,,,,,,,,,,,,,,4750.775000005131,,completion,,,,,,,,,3,,,,,,,,O,I,S,,80290.33499999787,80286.01500000514,75518.574,75529.02000000176,75535.24,80301.716,,,
Sounds,html.Screen,0_3_2_0,2021-04-19T10:15:44.629Z,,,,,,,,,,,,,,,,,,,,,,,,,,,,,,4253.9389999999985,,timeout,,,,,,,,,3,,,,,,,,I,O,S,,84542.98500000732,84538.989,80285.05,80290.65500000434,80301.716,84555.655,,,
Judgement,html.Screen,0_3_2_1,2021-04-19T10:15:45.074Z,,,,,,,,,,,,,,,,,,,,,,,,,,,true,3,,428.0550000004296,,response,,,,,,,,,3,,3,click #choice-3,,,,,I,O,S,,84987.88500000956,84983.71000000043,84538.989,84543.23999999906,84555.655,84988.971,,,
Trial,flow.Sequence,0_3_2,2021-04-19T10:15:45.075Z,,,,,,,,,,,,,,,,,,,,,,,,,,,,,,4681.994000000428,,completion,,,,,,,,,3,,,,,,,,I,O,S,,84988.32000000402,84983.71000000043,80285.05,80290.56000000855,80301.716,84988.971,,,
Sounds,html.Screen,0_3_3_0,2021-04-19T10:15:49.312Z,,,,,,,,,,,,,,,,,,,,,,,,,,,,,,4249.830000000002,,timeout,,,,,,,,,2,,,,,,,,I,S,O,,89226.284999997,89222.135,84972.305,84988.62000000372,84988.971,89238.801,,,
Judgement,html.Screen,0_3_3_1,2021-04-19T10:15:49.684Z,,,,,,,,,,,,,,,,,,,,,,,,,,,true,2,,354.5739999967336,,response,,,,,,,,,2,,2,click #choice-2,,,,,I,S,O,,89597.56999999809,89593.37499999674,89222.135,89226.49000000092,89238.801,89605.453,,,
Trial,flow.Sequence,0_3_3,2021-04-19T10:15:49.684Z,,,,,,,,,,,,,,,,,,,,,,,,,,,,,,4604.403999996735,,completion,,,,,,,,,2,,,,,,,,I,S,O,,89597.95500000473,89593.37499999674,84972.305,84988.51000001014,84988.971,89605.453,,,
Sounds,html.Screen,0_3_4_0,2021-04-19T10:15:53.928Z,,,,,,,,,,,,,,,,,,,,,,,,,,,,,,4249.830000000002,,timeout,,,,,,,,,1,,,,,,,,S,O,I,,93842.12500001013,93838.617,89588.787,89598.13500000746,89605.453,93855.283,,,
Judgement,html.Screen,0_3_4_1,2021-04-19T10:15:54.535Z,,,,,,,,,,,,,,,,,,,,,,,,,,,true,1,,589.5169999974896,,response,,,,,,,,,1,,1,click #choice-1,,,,,S,O,I,,94449.0850000002,94444.79999999749,93838.617,93842.48000000662,93855.283,94459.296,,,
Trial,flow.Sequence,0_3_4,2021-04-19T10:15:54.536Z,,,,,,,,,,,,,,,,,,,,,,,,,,,,,,4839.346999997491,,completion,,,,,,,,,1,,,,,,,,S,O,I,,94449.50499999686,94444.79999999749,89588.787,89598.08000001067,89605.453,94459.296,,,
Sounds,html.Screen,0_3_5_0,2021-04-19T10:15:58.781Z,,,,,,,,,,,,,,,,,,,,,,,,,,,,,,4249.830000000002,,timeout,,,,,,,,,1,,,,,,,,S,I,O,,98694.79500000307,98692.46,94442.63,94449.75500000874,94459.296,98709.126,,,
Judgement,html.Screen,0_3_5_1,2021-04-19T10:15:59.361Z,,,,,,,,,,,,,,,,,,,,,,,,,,,true,1,,562.0690000084433,,response,,,,,,,,,1,,1,click #choice-1,,,,,S,I,O,,99275.33499999845,99271.19500000845,98692.46,98695.2050000109,98709.126,99275.77,,,
Trial,flow.Sequence,0_3_5,2021-04-19T10:15:59.362Z,,,,,,,,,,,,,,,,,,,,,,,,,,,,,,4811.899000008445,,completion,,,,,,,,,1,,,,,,,,S,I,O,,99275.60000000813,99271.19500000845,94442.63,94449.68000000517,94459.296,99275.77,,,
Task,flow.Loop,0_3,2021-04-19T10:15:59.370Z,,,,,,,,,,,,,,,,,,,,,,,,,,,,,,29374.763000008446,,completion,,,0.8333333333333334,,,,,,,,,,,,,,,,,,99284.3300000095,99271.19500000845,69879.766,69878.12999999733,69896.432,99275.77,,,
Trap,html.Screen,0_4,2021-04-19T10:15:59.372Z,,,,,,,,,,,,,,,,,,,,,,,,,,,,,,NaN,,skipped,,,,,,,,,,,,,,,,,,,,,99286.26500000246,99271.19500000845,,99286.01500000514,,99275.77,,,
Thanks,html.Screen,0_5,2021-04-19T10:16:02.764Z,,,,,,,,,,,,,,,,,,,,,,,,,,,,,,3398.1050000076793,,response,,,,,,,,,,,continue,click button,,,,,,,,,102678.00500000885,102673.87500000768,99259.104,99286.71500000928,99275.77,105375.526,,,
Headphone screening,flow.Sequence,0,2021-04-19T10:16:02.764Z,,,,,,,,,,,,,,,,,,,,,,,,,,,,,,60838.190000007686,,completion,,,,,,,,,,,,,,,,,,,,,102678.41000000772,102673.87500000768,41819.019,31649.39000000595,41835.685,105375.526,,,
Instructions,html.Page,1_0,2021-04-19T10:16:30.519Z,,,,,,,,,,,,,,,,,,,,,,,,,,,,,,25057.17899999926,,form submission,,,,,,,,,,,,,,,,,,,,,130433.14999999711,130432.70499999926,105358.86,105365.55500001123,105375.526,130433.419,,,
Holding screen,html.Screen,1_1_0_0,2021-04-19T10:16:40.498Z,,,,,,,,,,,,,,,,,,,,,,,,,,,,,,9993.35500000001,,timeout,,,,,,,,,,,,,,,,,,,,,140412.6350000006,140410.108,130416.753,130433.52000000596,130433.419,140426.774,,,
screen,html.Screen,1_1_0_1_0,2021-04-19T10:16:41.316Z,,,,,,,,,,,,,,,,53,,,,,,,,,,,,,,792.2460000040883,,response,,,,99,,,,,,,Space,keypress(Space),,,,,,,,When -- ----- -- ------ - ------- --- ----------<br>------------- ------ ------ ---- ---- ------- ----- -- ----<br>-------- ------- -- ---------- --- - --- ----- ----- ----<br>---- --- --- ----- --- ---- ---- ------- ----- ---- -------<br>--- --- -- ----- -- --- ---- -- --- ---- -- ------ ------<br>--- ----- -- ----,141230.31500000798,141219.0200000041,140410.108,140413.02000000724,140426.774,141243.408,,0,When
screen,html.Screen,1_1_0_1_1,2021-04-19T10:16:41.804Z,,,,,,,,,,,,,,,,53,,,,,,,,,,,,,,467.76200000959216,,response,,,,99,,,,,,,Space,keypress(Space),,,,,,,,---- it ----- -- ------ - ------- --- ----------<br>------------- ------ ------ ---- ---- ------- ----- -- ----<br>-------- ------- -- ---------- --- - --- ----- ----- ----<br>---- --- --- ----- --- ---- ---- ------- ----- ---- -------<br>--- --- -- ----- -- --- ---- -- --- ---- -- ------ ------<br>--- ----- -- ----,141718.41500001028,141711.1700000096,141226.742,141230.5350000097,141243.408,141726.722,,1,it
screen,html.Screen,1_1_0_1_2,2021-04-19T10:16:42.220Z,,,,,,,,,,,,,,,,53,,,,,,,,,,,,,,400.18299999734154,,response,,,,99,,,,,,,Space,keypress(Space),,,,,,,,---- -- comes -- ------ - ------- --- ----------<br>------------- ------ ------ ---- ---- ------- ----- -- ----<br>-------- ------- -- ---------- --- - --- ----- ----- ----<br>---- --- --- ----- --- ---- ---- ------- ----- ---- -------<br>--- --- -- ----- -- --- ---- -- --- ---- -- ------ ------<br>--- ----- -- ----,142134.4550000067,142126.90499999735,141710.056,141718.60000000743,141726.722,142143.372,,2,comes
screen,html.Screen,1_1_0_1_3,2021-04-19T10:16:42.583Z,,,,,,,,,,,,,,,,53,,,,,,,,,,,,,,347.3030000081926,,response,,,,99,,,,,,,Space,keypress(Space),,,,,,,,---- -- ----- to ------ - ------- --- ----------<br>------------- ------ ------ ---- ---- ------- ----- -- ----<br>-------- ------- -- ---------- --- - --- ----- ----- ----<br>---- --- --- ----- --- ---- ---- ------- ----- ---- -------<br>--- --- -- ----- -- --- ---- -- --- ---- -- ------ ------<br>--- ----- -- ----,142497.9100000055,142490.6750000082,142126.706,142134.64000000386,142143.372,142510.024,,3,to
screen,html.Screen,1_1_0_1_4,2021-04-19T10:16:43.033Z,,,,,,,,,,,,,,,,53,,,,,,,,,,,,,,429.8410000075528,,response,,,,99,,,,,,,Space,keypress(Space),,,,,,,,---- -- ----- -- having - ------- --- ----------<br>------------- ------ ------ ---- ---- ------- ----- -- ----<br>-------- ------- -- ---------- --- - --- ----- ----- ----<br>---- --- --- ----- --- ---- ---- ------- ----- ---- -------<br>--- --- -- ----- -- --- ---- -- --- ---- -- ------ ------<br>--- ----- -- ----,142947.15000000724,142939.86500000756,142493.358,142498.14500000502,142510.024,142960.006,,4,having
screen,html.Screen,1_1_0_1_5,2021-04-19T10:16:43.362Z,,,,,,,,,,,,,,,,53,,,,,,,,,,,,,,309.4040000080713,,response,,,,99,,,,,,,Space,keypress(Space),,,,,,,,---- -- ----- -- ------ a ------- --- ----------<br>------------- ------ ------ ---- ---- ------- ----- -- ----<br>-------- ------- -- ---------- --- - --- ----- ----- ----<br>---- --- --- ----- --- ---- ---- ------- ----- ---- -------<br>--- --- -- ----- -- --- ---- -- --- ---- -- ------ ------<br>--- ----- -- ----,143276.60500000638,143269.41000000807,142943.34,142947.33000000997,142960.006,143293.326,,5,a
screen,html.Screen,1_1_0_1_6,2021-04-19T10:16:43.782Z,,,,,,,,,,,,,,,,53,,,,,,,,,,,,,,396.3789999970468,,response,,,,99,,,,,,,Space,keypress(Space),,,,,,,,---- -- ----- -- ------ - lasting --- ----------<br>------------- ------ ------ ---- ---- ------- ----- -- ----<br>-------- ------- -- ---------- --- - --- ----- ----- ----<br>---- --- --- ----- --- ---- ---- ------- ----- ---- -------<br>--- --- -- ----- -- --- ---- -- --- ---- -- ------ ------<br>--- ----- -- ----,143696.97499999893,143689.70499999705,143276.66,143276.7850000091,143293.326,143709.976,,6,lasting
screen,html.Screen,1_1_0_1_7,2021-04-19T10:16:44.164Z,,,,,,,,,,,,,,,,53,,,,,,,,,,,,,,361.99899999893387,,response,,,,99,,,,,,,Space,keypress(Space),,,,,,,,---- -- ----- -- ------ - ------- and ----------<br>------------- ------ ------ ---- ---- ------- ----- -- ----<br>-------- ------- -- ---------- --- - --- ----- ----- ----<br>---- --- --- ----- --- ---- ---- ------- ----- ---- -------<br>--- --- -- ----- -- --- ---- -- --- ---- -- ------ ------<br>--- ----- -- ----,144079.0399999969,144071.97499999893,143693.31,143697.18000000285,143709.976,144093.294,,7,and
screen,html.Screen,1_1_0_1_8,2021-04-19T10:16:44.558Z,,,,,,,,,,,,,,,,53,,,,,,,,,,,,,,371.6410000108881,,response,,,,99,,,,,,,Space,keypress(Space),,,,,,,,---- -- ----- -- ------ - ------- --- fulfilling<br>------------- ------ ------ ---- ---- ------- ----- -- ----<br>-------- ------- -- ---------- --- - --- ----- ----- ----<br>---- --- --- ----- --- ---- ---- ------- ----- ---- -------<br>--- --- -- ----- -- --- ---- -- --- ---- -- ------ ------<br>--- ----- -- ----,144472.39500000433,144464.93500001088,144076.628,144079.23499999742,144093.294,144476.612,,8,fulfilling
screen,html.Screen,1_1_0_1_9,2021-04-19T10:16:45.080Z,,,,,,,,,,,,,,,,53,,,,,,,,,,,,,,510.063000007387,,response,,,,99,,,,,,,Space,keypress(Space),,,,,,,,"---- -- ----- -- ------ - ------- --- ----------<br>relationship, ------ ------ ---- ---- ------- ----- -- ----<br>-------- ------- -- ---------- --- - --- ----- ----- ----<br>---- --- --- ----- --- ---- ---- ------- ----- ---- -------<br>--- --- -- ----- -- --- ---- -- --- ---- -- ------ ------<br>--- ----- -- ----",144994.09000000742,144986.67500000738,144459.946,144472.59000000486,144476.612,145009.924,,9,"relationship,"
screen,html.Screen,1_1_0_1_10,2021-04-19T10:16:45.593Z,,,,,,,,,,,,,,,,53,,,,,,,,,,,,,,490.7510000029579,,response,,,,99,,,,,,,Space,keypress(Space),,,,,,,,---- -- ----- -- ------ - ------- --- ----------<br>------------- common ------ ---- ---- ------- ----- -- ----<br>-------- ------- -- ---------- --- - --- ----- ----- ----<br>---- --- --- ----- --- ---- ---- ------- ----- ---- -------<br>--- --- -- ----- -- --- ---- -- --- ---- -- ------ ------<br>--- ----- -- ----,145507.96000000264,145500.67500000296,144993.258,144994.31000000914,145009.924,145509.904,,10,common
screen,html.Screen,1_1_0_1_11,2021-04-19T10:16:45.933Z,,,,,,,,,,,,,,,,53,,,,,,,,,,,,,,330.7459999982675,,response,,,,99,,,,,,,Space,keypress(Space),,,,,,,,---- -- ----- -- ------ - ------- --- ----------<br>------------- ------ wisdom ---- ---- ------- ----- -- ----<br>-------- ------- -- ---------- --- - --- ----- ----- ----<br>---- --- --- ----- --- ---- ---- ------- ----- ---- -------<br>--- --- -- ----- -- --- ---- -- --- ---- -- ------ ------<br>--- ----- -- ----,145847.735000003,145840.64999999828,145493.238,145508.15500000317,145509.904,145859.89,,11,wisdom
screen,html.Screen,1_1_0_1_12,2021-04-19T10:16:46.343Z,,,,,,,,,,,,,,,,53,,,,,,,,,,,,,,390.89000000210945,,response,,,,99,,,,,,,Space,keypress(Space),,,,,,,,---- -- ----- -- ------ - ------- --- ----------<br>------------- ------ ------ says ---- ------- ----- -- ----<br>-------- ------- -- ---------- --- - --- ----- ----- ----<br>---- --- --- ----- --- ---- ---- ------- ----- ---- -------<br>--- --- -- ----- -- --- ---- -- --- ---- -- ------ ------<br>--- ----- -- ----,146257.71000000532,146250.78000000212,145843.224,145848.0150000105,145859.89,146259.874,,12,says
screen,html.Screen,1_1_0_1_13,2021-04-19T10:16:46.692Z,,,,,,,,,,,,,,,,53,,,,,,,,,,,,,,339.7460000081337,,response,,,,99,,,,,,,Space,keypress(Space),,,,,,,,---- -- ----- -- ------ - ------- --- ----------<br>------------- ------ ------ ---- that ------- ----- -- ----<br>-------- ------- -- ---------- --- - --- ----- ----- ----<br>---- --- --- ----- --- ---- ---- ------- ----- ---- -------<br>--- --- -- ----- -- --- ---- -- --- ---- -- ------ ------<br>--- ----- -- ----,146606.7949999997,146599.62000000814,146243.208,146257.97000000603,146259.874,146609.86,,13,that
screen,html.Screen,1_1_0_1_14,2021-04-19T10:16:47.053Z,,,,,,,,,,,,,,,,53,,,,,,,,,,,,,,350.7300000024261,,response,,,,99,,,,,,,Space,keypress(Space),,,,,,,,---- -- ----- -- ------ - ------- --- ----------<br>------------- ------ ------ ---- ---- feeling ----- -- ----<br>-------- ------- -- ---------- --- - --- ----- ----- ----<br>---- --- --- ----- --- ---- ---- ------- ----- ---- -------<br>--- --- -- ----- -- --- ---- -- --- ---- -- ------ ------<br>--- ----- -- ----,146967.49999999884,146960.5900000024,146593.194,146607.0550000004,146609.86,146976.512,,14,feeling
screen,html.Screen,1_1_0_1_15,2021-04-19T10:16:47.386Z,,,,,,,,,,,,,,,,53,,,,,,,,,,,,,,317.1230000091018,,response,,,,99,,,,,,,Space,keypress(Space),,,,,,,,---- -- ----- -- ------ - ------- --- ----------<br>------------- ------ ------ ---- ---- ------- close -- ----<br>-------- ------- -- ---------- --- - --- ----- ----- ----<br>---- --- --- ----- --- ---- ---- ------- ----- ---- -------<br>--- --- -- ----- -- --- ---- -- --- ---- -- ------ ------<br>--- ----- -- ----,147300.53500000213,147293.6350000091,146959.846,146967.74000000732,146976.512,147309.832,,15,close
screen,html.Screen,1_1_0_1_16,2021-04-19T10:16:47.741Z,,,,,,,,,,,,,,,,53,,,,,,,,,,,,,,337.79299999779323,,response,,,,99,,,,,,,Space,keypress(Space),,,,,,,,---- -- ----- -- ------ - ------- --- ----------<br>------------- ------ ------ ---- ---- ------- ----- to ----<br>-------- ------- -- ---------- --- - --- ----- ----- ----<br>---- --- --- ----- --- ---- ---- ------- ----- ---- -------<br>--- --- -- ----- -- --- ---- -- --- ---- -- ------ ------<br>--- ----- -- ----,147655.41500000108,147647.6249999978,147293.166,147300.8950000076,147309.832,147659.818,,16,to
screen,html.Screen,1_1_0_1_17,2021-04-19T10:16:48.105Z,,,,,,,,,,,,,,,,53,,,,,,,,,,,,,,351.8270000059565,,response,,,,99,,,,,,,Space,keypress(Space),,,,,,,,---- -- ----- -- ------ - ------- --- ----------<br>------------- ------ ------ ---- ---- ------- ----- -- your<br>-------- ------- -- ---------- --- - --- ----- ----- ----<br>---- --- --- ----- --- ---- ---- ------- ----- ---- -------<br>--- --- -- ----- -- --- ---- -- --- ---- -- ------ ------<br>--- ----- -- ----,148019.23499999975,148011.64500000596,147643.152,147655.6899999996,147659.818,148026.47,,17,your
screen,html.Screen,1_1_0_1_18,2021-04-19T10:16:48.428Z,,,,,,,,,,,,,,,,53,,,,,,,,,,,,,,308.4849999984435,,response,,,,99,,,,,,,Space,keypress(Space),,,,,,,,---- -- ----- -- ------ - ------- --- ----------<br>------------- ------ ------ ---- ---- ------- ----- -- ----<br>romantic ------- -- ---------- --- - --- ----- ----- ----<br>---- --- --- ----- --- ---- ---- ------- ----- ---- -------<br>--- --- -- ----- -- --- ---- -- --- ---- -- ------ ------<br>--- ----- -- ----,148342.25500001048,148334.95499999844,148009.804,148019.45000000705,148026.47,148359.79,,18,romantic
screen,html.Screen,1_1_0_1_19,2021-04-19T10:16:48.732Z,,,,,,,,,,,,,,,,53,,,,,,,,,,,,,,279.48500000862987,,response,,,,99,,,,,,,Space,keypress(Space),,,,,,,,---- -- ----- -- ------ - ------- --- ----------<br>------------- ------ ------ ---- ---- ------- ----- -- ----<br>-------- partner -- ---------- --- - --- ----- ----- ----<br>---- --- --- ----- --- ---- ---- ------- ----- ---- -------<br>--- --- -- ----- -- --- ---- -- --- ---- -- ------ ------<br>--- ----- -- ----,148646.47000000696,148639.27500000864,148343.124,148342.46500000881,148359.79,148659.778,,19,partner
screen,html.Screen,1_1_0_1_20,2021-04-19T10:16:49.070Z,,,,,,,,,,,,,,,,53,,,,,,,,,,,,,,317.0170000095968,,response,,,,99,,,,,,,Space,keypress(Space),,,,,,,,---- -- ----- -- ------ - ------- --- ----------<br>------------- ------ ------ ---- ---- ------- ----- -- ----<br>-------- ------- is ---------- --- - --- ----- ----- ----<br>---- --- --- ----- --- ---- ---- ------- ----- ---- -------<br>--- --- -- ----- -- --- ---- -- --- ---- -- ------ ------<br>--- ----- -- ----,148984.24499999965,148976.7950000096,148643.112,148646.64500000072,148659.778,148989.781,,20,is
screen,html.Screen,1_1_0_1_21,2021-04-19T10:16:49.434Z,,,,,,,,,,,,,,,,53,,,,,,,,,,,,,,351.8290000031411,,response,,,,99,,,,,,,Space,keypress(Space),,,,,,,,---- -- ----- -- ------ - ------- --- ----------<br>------------- ------ ------ ---- ---- ------- ----- -- ----<br>-------- ------- -- paramount. --- - --- ----- ----- ----<br>---- --- --- ----- --- ---- ---- ------- ----- ---- -------<br>--- --- -- ----- -- --- ---- -- --- ---- -- ------ ------<br>--- ----- -- ----,149348.920000004,149341.61000000313,148973.115,148984.51500000374,148989.781,149356.433,,21,paramount.
screen,html.Screen,1_1_0_1_22,2021-04-19T10:16:50.037Z,,,,,,,,,,,,,,,,53,,,,,,,,,,,,,,588.2720000017143,,response,,,,99,,,,,,,Space,keypress(Space),,,,,,,,---- -- ----- -- ------ - ------- --- ----------<br>------------- ------ ------ ---- ---- ------- ----- -- ----<br>-------- ------- -- ---------- But - --- ----- ----- ----<br>---- --- --- ----- --- ---- ---- ------- ----- ---- -------<br>--- --- -- ----- -- --- ---- -- --- ---- -- ------ ------<br>--- ----- -- ----,149952.05500000156,149944.7050000017,149339.767,149349.13000000233,149356.433,149956.409,,22,But
screen,html.Screen,1_1_0_1_23,2021-04-19T10:16:50.446Z,,,,,,,,,,,,,,,,53,,,,,,,,,,,,,,396.2060000106867,,response,,,,99,,,,,,,Space,keypress(Space),,,,,,,,---- -- ----- -- ------ - ------- --- ----------<br>------------- ------ ------ ---- ---- ------- ----- -- ----<br>-------- ------- -- ---------- --- a --- ----- ----- ----<br>---- --- --- ----- --- ---- ---- ------- ----- ---- -------<br>--- --- -- ----- -- --- ---- -- --- ---- -- ------ ------<br>--- ----- -- ----,150360.1500000077,150352.6150000107,149939.743,149952.25500001106,149956.409,150373.059,,23,a
screen,html.Screen,1_1_0_1_24,2021-04-19T10:16:50.891Z,,,,,,,,,,,,,,,,53,,,,,,,,,,,,,,425.83599999989383,,response,,,,99,,,,,,,Space,keypress(Space),,,,,,,,---- -- ----- -- ------ - ------- --- ----------<br>------------- ------ ------ ---- ---- ------- ----- -- ----<br>-------- ------- -- ---------- --- - new ----- ----- ----<br>---- --- --- ----- --- ---- ---- ------- ----- ---- -------<br>--- --- -- ----- -- --- ---- -- --- ---- -- ------ ------<br>--- ----- -- ----,150806.10500001058,150798.8949999999,150356.393,150360.32500000147,150373.059,150823.041,,24,new
screen,html.Screen,1_1_0_1_25,2021-04-19T10:16:51.315Z,,,,,,,,,,,,,,,,53,,,,,,,,,,,,,,398.40899999727844,,response,,,,99,,,,,,,Space,keypress(Space),,,,,,,,---- -- ----- -- ------ - ------- --- ----------<br>------------- ------ ------ ---- ---- ------- ----- -- ----<br>-------- ------- -- ---------- --- - --- study ----- ----<br>---- --- --- ----- --- ---- ---- ------- ----- ---- -------<br>--- --- -- ----- -- --- ---- -- --- ---- -- ------ ------<br>--- ----- -- ----,151229.46500001126,151221.44999999728,150806.375,150806.28000000434,150823.041,151239.691,,25,study
screen,html.Screen,1_1_0_1_26,2021-04-19T10:16:51.723Z,,,,,,,,,,,,,,,,53,,,,,,,,,,,,,,389.9639999970095,,response,,,,99,,,,,,,Space,keypress(Space),,,,,,,,---- -- ----- -- ------ - ------- --- ----------<br>------------- ------ ------ ---- ---- ------- ----- -- ----<br>-------- ------- -- ---------- --- - --- ----- finds ----<br>---- --- --- ----- --- ---- ---- ------- ----- ---- -------<br>--- --- -- ----- -- --- ---- -- --- ---- -- ------ ------<br>--- ----- -- ----,151637.56499999727,151629.654999997,151223.025,151229.83000001113,151239.691,151639.675,,26,finds
screen,html.Screen,1_1_0_1_27,2021-04-19T10:16:52.149Z,,,,,,,,,,,,,,,,53,,,,,,,,,,,,,,416.0450000039418,,response,,,,99,,,,,,,Space,keypress(Space),,,,,,,,---- -- ----- -- ------ - ------- --- ----------<br>------------- ------ ------ ---- ---- ------- ----- -- ----<br>-------- ------- -- ---------- --- - --- ----- ----- that<br>---- --- --- ----- --- ---- ---- ------- ----- ---- -------<br>--- --- -- ----- -- --- ---- -- --- ---- -- ------ ------<br>--- ----- -- ----,152063.2850000111,152055.72000000393,151623.009,151637.75500000338,151639.675,152072.991,,27,that
screen,html.Screen,1_1_0_1_28,2021-04-19T10:16:52.536Z,,,,,,,,,,,,,,,,53,,,,,,,,,,,,,,369.6890000073763,,response,,,,99,,,,,,,Space,keypress(Space),,,,,,,,---- -- ----- -- ------ - ------- --- ----------<br>------------- ------ ------ ---- ---- ------- ----- -- ----<br>-------- ------- -- ---------- --- - --- ----- ----- ----<br>it's --- --- ----- --- ---- ---- ------- ----- ---- -------<br>--- --- -- ----- -- --- ---- -- --- ---- -- ------ ------<br>--- ----- -- ----,152450.92000000295,152442.68000000739,152056.325,152063.49000000046,152072.991,152456.309,,28,it's
screen,html.Screen,1_1_0_1_29,2021-04-19T10:16:52.915Z,,,,,,,,,,,,,,,,53,,,,,,,,,,,,,,366.17599999695085,,response,,,,99,,,,,,,Space,keypress(Space),,,,,,,,---- -- ----- -- ------ - ------- --- ----------<br>------------- ------ ------ ---- ---- ------- ----- -- ----<br>-------- ------- -- ---------- --- - --- ----- ----- ----<br>---- not --- ----- --- ---- ---- ------- ----- ---- -------<br>--- --- -- ----- -- --- ---- -- --- ---- -- ------ ------<br>--- ----- -- ----,152829.859999998,152822.48499999696,152439.643,152451.13500001025,152456.309,152839.627,,29,not
screen,html.Screen,1_1_0_1_30,2021-04-19T10:16:53.304Z,,,,,,,,,,,,,,,,53,,,,,,,,,,,,,,371.89299999710056,,response,,,,99,,,,,,,Space,keypress(Space),,,,,,,,---- -- ----- -- ------ - ------- --- ----------<br>------------- ------ ------ ---- ---- ------- ----- -- ----<br>-------- ------- -- ---------- --- - --- ----- ----- ----<br>---- --- how ----- --- ---- ---- ------- ----- ---- -------<br>--- --- -- ----- -- --- ---- -- --- ---- -- ------ ------<br>--- ----- -- ----,153219.01500000968,153211.5199999971,152822.961,152830.05000000412,152839.627,153222.945,,30,how
screen,html.Screen,1_1_0_1_31,2021-04-19T10:16:53.670Z,,,,,,,,,,,,,,,,53,,,,,,,,,,,,,,353.8850000054226,,response,,,,99,,,,,,,Space,keypress(Space),,,,,,,,---- -- ----- -- ------ - ------- --- ----------<br>------------- ------ ------ ---- ---- ------- ----- -- ----<br>-------- ------- -- ---------- --- - --- ----- ----- ----<br>---- --- --- close --- ---- ---- ------- ----- ---- -------<br>--- --- -- ----- -- --- ---- -- --- ---- -- ------ ------<br>--- ----- -- ----,153585.030000002,153576.83000000543,153206.279,153219.23499999684,153222.945,153589.597,,31,close
screen,html.Screen,1_1_0_1_32,2021-04-19T10:16:54.285Z,,,,,,,,,,,,,,,,53,,,,,,,,,,,,,,601.9530000031809,,response,,,,99,,,,,,,Space,keypress(Space),,,,,,,,---- -- ----- -- ------ - ------- --- ----------<br>------------- ------ ------ ---- ---- ------- ----- -- ----<br>-------- ------- -- ---------- --- - --- ----- ----- ----<br>---- --- --- ----- you ---- ---- ------- ----- ---- -------<br>--- --- -- ----- -- --- ---- -- --- ---- -- ------ ------<br>--- ----- -- ----,154199.3450000009,154191.5500000032,153572.931,153585.26500000153,153589.597,154206.239,,32,you
screen,html.Screen,1_1_0_1_33,2021-04-19T10:16:54.653Z,,,,,,,,,,,,,,,,53,,,,,,,,,,,,,,354.246000009065,,response,,,,99,,,,,,,Space,keypress(Space),,,,,,,,---- -- ----- -- ------ - ------- --- ----------<br>------------- ------ ------ ---- ---- ------- ----- -- ----<br>-------- ------- -- ---------- --- - --- ----- ----- ----<br>---- --- --- ----- --- feel ---- ------- ----- ---- -------<br>--- --- -- ----- -- --- ---- -- --- ---- -- ------ ------<br>--- ----- -- ----,154568.16500000423,154560.48500000907,154189.573,154199.56999999704,154206.239,154572.891,,33,feel
screen,html.Screen,1_1_0_1_34,2021-04-19T10:16:55.006Z,,,,,,,,,,,,,,,,53,,,,,,,,,,,,,,340.163999997254,,response,,,,99,,,,,,,Space,keypress(Space),,,,,,,,---- -- ----- -- ------ - ------- --- ----------<br>------------- ------ ------ ---- ---- ------- ----- -- ----<br>-------- ------- -- ---------- --- - --- ----- ----- ----<br>---- --- --- ----- --- ---- that ------- ----- ---- -------<br>--- --- -- ----- -- --- ---- -- --- ---- -- ------ ------<br>--- ----- -- ----,154920.7549999992,154913.05499999726,154556.225,154568.36000000476,154572.891,154939.543,,34,that
screen,html.Screen,1_1_0_1_35,2021-04-19T10:16:55.523Z,,,,,,,,,,,,,,,,53,,,,,,,,,,,,,,490.9620000111754,,response,,,,99,,,,,,,Space,keypress(Space),,,,,,,,---- -- ----- -- ------ - ------- --- ----------<br>------------- ------ ------ ---- ---- ------- ----- -- ----<br>-------- ------- -- ---------- --- - --- ----- ----- ----<br>---- --- --- ----- --- ---- ---- matters ----- ---- -------<br>--- --- -- ----- -- --- ---- -- --- ---- -- ------ ------<br>--- ----- -- ----,155437.84500000766,155430.50500001118,154922.877,154922.51499999838,154939.543,155439.523,,35,matters
screen,html.Screen,1_1_0_1_36,2021-04-19T10:16:55.922Z,,,,,,,,,,,,,,,,53,,,,,,,,,,,,,,389.8920000001672,,response,,,,99,,,,,,,Space,keypress(Space),,,,,,,,"---- -- ----- -- ------ - ------- --- ----------<br>------------- ------ ------ ---- ---- ------- ----- -- ----<br>-------- ------- -- ---------- --- - --- ----- ----- ----<br>---- --- --- ----- --- ---- ---- ------- most, ---- -------<br>--- --- -- ----- -- --- ---- -- --- ---- -- ------ ------<br>--- ----- -- ----",155836.90000000934,155829.41500000015,155422.857,155438.0999999994,155439.523,155839.507,,36,"most,"
screen,html.Screen,1_1_0_1_37,2021-04-19T10:16:56.269Z,,,,,,,,,,,,,,,,53,,,,,,,,,,,,,,336.5430000091146,,response,,,,99,,,,,,,Space,keypress(Space),,,,,,,,---- -- ----- -- ------ - ------- --- ----------<br>------------- ------ ------ ---- ---- ------- ----- -- ----<br>-------- ------- -- ---------- --- - --- ----- ----- ----<br>---- --- --- ----- --- ---- ---- ------- ----- it's -------<br>--- --- -- ----- -- --- ---- -- --- ---- -- ------ ------<br>--- ----- -- ----,156184.10500000755,156176.05000000913,155822.841,155837.0900000009,155839.507,156189.493,,37,it's
screen,html.Screen,1_1_0_1_38,2021-04-19T10:16:56.608Z,,,,,,,,,,,,,,,,53,,,,,,,,,,,,,,326.17199999900186,,response,,,,99,,,,,,,Space,keypress(Space),,,,,,,,---- -- ----- -- ------ - ------- --- ----------<br>------------- ------ ------ ---- ---- ------- ----- -- ----<br>-------- ------- -- ---------- --- - --- ----- ----- ----<br>---- --- --- ----- --- ---- ---- ------- ----- ---- whether<br>--- --- -- ----- -- --- ---- -- --- ---- -- ------ ------<br>--- ----- -- ----,156523.21500000835,156515.664999999,156172.827,156184.34000000707,156189.493,156539.479,,38,whether
screen,html.Screen,1_1_0_1_39,2021-04-19T10:16:57.009Z,,,,,,,,,,,,,,,,53,,,,,,,,,,,,,,376.9460000030813,,response,,,,99,,,,,,,Space,keypress(Space),,,,,,,,---- -- ----- -- ------ - ------- --- ----------<br>------------- ------ ------ ---- ---- ------- ----- -- ----<br>-------- ------- -- ---------- --- - --- ----- ----- ----<br>---- --- --- ----- --- ---- ---- ------- ----- ---- -------<br>you --- -- ----- -- --- ---- -- --- ---- -- ------ ------<br>--- ----- -- ----,156923.76000000513,156916.42500000307,156522.813,156523.44000000448,156539.479,156939.463,,39,you
screen,html.Screen,1_1_0_1_40,2021-04-19T10:16:57.381Z,,,,,,,,,,,,,,,,53,,,,,,,,,,,,,,347.98700000345707,,response,,,,99,,,,,,,Space,keypress(Space),,,,,,,,---- -- ----- -- ------ - ------- --- ----------<br>------------- ------ ------ ---- ---- ------- ----- -- ----<br>-------- ------- -- ---------- --- - --- ----- ----- ----<br>---- --- --- ----- --- ---- ---- ------- ----- ---- -------<br>--- are -- ----- -- --- ---- -- --- ---- -- ------ ------<br>--- ----- -- ----,157295.4400000017,157287.45000000345,156922.797,156924.02000000584,156939.463,157306.115,,40,are
screen,html.Screen,1_1_0_1_41,2021-04-19T10:16:57.702Z,,,,,,,,,,,,,,,,53,,,,,,,,,,,,,,303.56500000867527,,response,,,,99,,,,,,,Space,keypress(Space),,,,,,,,---- -- ----- -- ------ - ------- --- ----------<br>------------- ------ ------ ---- ---- ------- ----- -- ----<br>-------- ------- -- ---------- --- - --- ----- ----- ----<br>---- --- --- ----- --- ---- ---- ------- ----- ---- -------<br>--- --- as ----- -- --- ---- -- --- ---- -- ------ ------<br>--- ----- -- ----,157616.76499999885,157609.68000000867,157289.449,157295.61500001,157306.115,157622.769,,41,as
screen,html.Screen,1_1_0_1_42,2021-04-19T10:16:58.044Z,,,,,,,,,,,,,,,,53,,,,,,,,,,,,,,327.5110000045679,,response,,,,99,,,,,,,Space,keypress(Space),,,,,,,,---- -- ----- -- ------ - ------- --- ----------<br>------------- ------ ------ ---- ---- ------- ----- -- ----<br>-------- ------- -- ---------- --- - --- ----- ----- ----<br>---- --- --- ----- --- ---- ---- ------- ----- ---- -------<br>--- --- -- close -- --- ---- -- --- ---- -- ------ ------<br>--- ----- -- ----,157958.2650000084,157950.28000000457,157606.103,157616.95000001055,157622.769,157972.755,,42,close
screen,html.Screen,1_1_0_1_43,2021-04-19T10:16:58.409Z,,,,,,,,,,,,,,,,53,,,,,,,,,,,,,,343.13499999803025,,response,,,,99,,,,,,,Space,keypress(Space),,,,,,,,---- -- ----- -- ------ - ------- --- ----------<br>------------- ------ ------ ---- ---- ------- ----- -- ----<br>-------- ------- -- ---------- --- - --- ----- ----- ----<br>---- --- --- ----- --- ---- ---- ------- ----- ---- -------<br>--- --- -- ----- as --- ---- -- --- ---- -- ------ ------<br>--- ----- -- ----,158323.34000000264,158315.88999999803,157956.089,157958.4850000101,157972.755,158339.407,,43,as
screen,html.Screen,1_1_0_1_44,2021-04-19T10:16:58.761Z,,,,,,,,,,,,,,,,53,,,,,,,,,,,,,,328.9779999972088,,response,,,,99,,,,,,,Space,keypress(Space),,,,,,,,---- -- ----- -- ------ - ------- --- ----------<br>------------- ------ ------ ---- ---- ------- ----- -- ----<br>-------- ------- -- ---------- --- - --- ----- ----- ----<br>---- --- --- ----- --- ---- ---- ------- ----- ---- -------<br>--- --- -- ----- -- you ---- -- --- ---- -- ------ ------<br>--- ----- -- ----,158675.88999999862,158668.38499999722,158322.741,158323.54500000656,158339.407,158689.393,,44,you
screen,html.Screen,1_1_0_1_45,2021-04-19T10:16:59.148Z,,,,,,,,,,,,,,,,53,,,,,,,,,,,,,,366.2419999969716,,response,,,,99,,,,,,,Space,keypress(Space),,,,,,,,---- -- ----- -- ------ - ------- --- ----------<br>------------- ------ ------ ---- ---- ------- ----- -- ----<br>-------- ------- -- ---------- --- - --- ----- ----- ----<br>---- --- --- ----- --- ---- ---- ------- ----- ---- -------<br>--- --- -- ----- -- --- want -- --- ---- -- ------ ------<br>--- ----- -- ----,159062.89000000106,159055.63499999698,158672.727,158676.12000000372,158689.393,159072.711,,45,want
screen,html.Screen,1_1_0_1_46,2021-04-19T10:16:59.456Z,,,,,,,,,,,,,,,,53,,,,,,,,,,,,,,290.41899999789894,,response,,,,99,,,,,,,Space,keypress(Space),,,,,,,,---- -- ----- -- ------ - ------- --- ----------<br>------------- ------ ------ ---- ---- ------- ----- -- ----<br>-------- ------- -- ---------- --- - --- ----- ----- ----<br>---- --- --- ----- --- ---- ---- ------- ----- ---- -------<br>--- --- -- ----- -- --- ---- to --- ---- -- ------ ------<br>--- ----- -- ----,159370.51000000793,159363.1299999979,159056.045,159065.02999999793,159072.711,159377.317,,46,to
screen,html.Screen,1_1_0_1_47,2021-04-19T10:16:59.877Z,,,,,,,,,,,,,,,,53,,,,,,,,,,,,,,407.03300000171294,,response,,,,99,,,,,,,Space,keypress(Space),,,,,,,,"---- -- ----- -- ------ - ------- --- ----------<br>------------- ------ ------ ---- ---- ------- ----- -- ----<br>-------- ------- -- ---------- --- - --- ----- ----- ----<br>---- --- --- ----- --- ---- ---- ------- ----- ---- -------<br>--- --- -- ----- -- --- ---- -- be, ---- -- ------ ------<br>--- ----- -- ----",159792.220000003,159784.35000000172,159360.651,159370.69000001065,159377.317,159793.967,,47,"be,"
screen,html.Screen,1_1_0_1_48,2021-04-19T10:17:00.258Z,,,,,,,,,,,,,,,,53,,,,,,,,,,,,,,371.52800000837306,,response,,,,99,,,,,,,Space,keypress(Space),,,,,,,,---- -- ----- -- ------ - ------- --- ----------<br>------------- ------ ------ ---- ---- ------- ----- -- ----<br>-------- ------- -- ---------- --- - --- ----- ----- ----<br>---- --- --- ----- --- ---- ---- ------- ----- ---- -------<br>--- --- -- ----- -- --- ---- -- --- even -- ------ ------<br>--- ----- -- ----,160172.92500000622,160165.49500000838,159777.301,159792.4100000091,159793.967,160177.285,,48,even
screen,html.Screen,1_1_0_1_49,2021-04-19T10:17:00.632Z,,,,,,,,,,,,,,,,53,,,,,,,,,,,,,,361.36000000781496,,response,,,,99,,,,,,,Space,keypress(Space),,,,,,,,---- -- ----- -- ------ - ------- --- ----------<br>------------- ------ ------ ---- ---- ------- ----- -- ----<br>-------- ------- -- ---------- --- - --- ----- ----- ----<br>---- --- --- ----- --- ---- ---- ------- ----- ---- -------<br>--- --- -- ----- -- --- ---- -- --- ---- if ------ ------<br>--- ----- -- ----,160546.48499999894,160538.64500000782,160160.619,160173.19000000134,160177.285,160560.603,,49,if
screen,html.Screen,1_1_0_1_50,2021-04-19T10:17:01.003Z,,,,,,,,,,,,,,,,53,,,,,,,,,,,,,,350.066999997478,,response,,,,99,,,,,,,Space,keypress(Space),,,,,,,,---- -- ----- -- ------ - ------- --- ----------<br>------------- ------ ------ ---- ---- ------- ----- -- ----<br>-------- ------- -- ---------- --- - --- ----- ----- ----<br>---- --- --- ----- --- ---- ---- ------- ----- ---- -------<br>--- --- -- ----- -- --- ---- -- --- ---- -- that's ------<br>--- ----- -- ----,160918.20000000007,160910.66999999748,160543.937,160546.71999999846,160560.603,160927.255,,50,that's
screen,html.Screen,1_1_0_1_51,2021-04-19T10:17:01.378Z,,,,,,,,,,,,,,,,53,,,,,,,,,,,,,,357.06500000611413,,response,,,,99,,,,,,,Space,keypress(Space),,,,,,,,---- -- ----- -- ------ - ------- --- ----------<br>------------- ------ ------ ---- ---- ------- ----- -- ----<br>-------- ------- -- ---------- --- - --- ----- ----- ----<br>---- --- --- ----- --- ---- ---- ------- ----- ---- -------<br>--- --- -- ----- -- --- ---- -- --- ---- -- ------ really<br>--- ----- -- ----,161292.31000000436,161284.32000000612,160910.589,160918.3950000006,160927.255,161293.907,,51,really
screen,html.Screen,1_1_0_1_52,2021-04-19T10:17:01.735Z,,,,,,,,,,,,,,,,53,,,,,,,,,,,,,,348.8280000012601,,response,,,,99,,,,,,,Space,keypress(Space),,,,,,,,---- -- ----- -- ------ - ------- --- ----------<br>------------- ------ ------ ---- ---- ------- ----- -- ----<br>-------- ------- -- ---------- --- - --- ----- ----- ----<br>---- --- --- ----- --- ---- ---- ------- ----- ---- -------<br>--- --- -- ----- -- --- ---- -- --- ---- -- ------ ------<br>not ----- -- ----,161650.25000000605,161642.73500000127,161277.241,161292.5200000027,161293.907,161660.559,,52,not
screen,html.Screen,1_1_0_1_53,2021-04-19T10:17:02.077Z,,,,,,,,,,,,,,,,53,,,,,,,,,,,,,,323.50599999690894,,response,,,,99,,,,,,,Space,keypress(Space),,,,,,,,---- -- ----- -- ------ - ------- --- ----------<br>------------- ------ ------ ---- ---- ------- ----- -- ----<br>-------- ------- -- ---------- --- - --- ----- ----- ----<br>---- --- --- ----- --- ---- ---- ------- ----- ---- -------<br>--- --- -- ----- -- --- ---- -- --- ---- -- ------ ------<br>--- close -- ----,161991.47999999695,161984.06499999692,161643.893,161650.450000001,161660.559,161993.879,,53,close
screen,html.Screen,1_1_0_1_54,2021-04-19T10:17:02.423Z,,,,,,,,,,,,,,,,53,,,,,,,,,,,,,,335.4810000033758,,response,,,,99,,,,,,,Space,keypress(Space),,,,,,,,---- -- ----- -- ------ - ------- --- ----------<br>------------- ------ ------ ---- ---- ------- ----- -- ----<br>-------- ------- -- ---------- --- - --- ----- ----- ----<br>---- --- --- ----- --- ---- ---- ------- ----- ---- -------<br>--- --- -- ----- -- --- ---- -- --- ---- -- ------ ------<br>--- ----- at ----,162337.3649999994,162329.36000000336,161977.213,161991.66500000865,161993.879,162343.865,,54,at
screen,html.Screen,1_1_0_1_55,2021-04-19T10:17:02.824Z,,,,,,,,,,,,,,,,53,,,,,,,,,,,,,,386.9149999980582,,response,,,,99,,,,,,,Space,keypress(Space),,,,,,,,---- -- ----- -- ------ - ------- --- ----------<br>------------- ------ ------ ---- ---- ------- ----- -- ----<br>-------- ------- -- ---------- --- - --- ----- ----- ----<br>---- --- --- ----- --- ---- ---- ------- ----- ---- -------<br>--- --- -- ----- -- --- ---- -- --- ---- -- ------ ------<br>--- ----- -- all.,162738.33500000183,162730.77999999805,162327.199,162337.55500000552,162343.865,162743.849,,55,all.
Item 99,flow.Loop,1_1_0_1,2021-04-19T10:17:02.824Z,,,,,,,,,,,,,,,,,,,,,,,,,,,,,,22304.005999998044,,completion,,,,,D,,,,,,,,,,,silence,,,,,162738.88000000443,162730.77999999805,140410.108,140412.91500000807,140426.774,162743.849,,,
Question 1,html.Screen,1_1_0_2,2021-04-19T10:17:06.013Z,,,,,,,,,,,,,,,,,,,,,,,,,,,false,FALSE,,3179.481000005093,,response,,,,99,D,,,,,,TRUE,click #choice-1,,,,silence,,,,,165927.75000000256,165923.33000000508,162727.183,162739.15000000852,162743.849,165943.721,,,
Question 2,html.Screen,1_1_0_3,2021-04-19T10:17:10.318Z,,,,,,,,,,,,,,,,,,,,,,,,,,,true,TRUE,,4285.049000001542,,response,,,,99,D,,,,,,TRUE,click #choice-1,,,,silence,,,,,170232.74000000674,170228.77000000153,165927.055,165927.92500001087,165943.721,170248.576,,,
Item 99,flow.Sequence,1_1_0,2021-04-19T10:17:10.318Z,,,,,,,,,,,,,,,,,,,,,,,,,,,,,,39795.35100000154,,completion,,,,,,,,,,,,,,,,,,,,,170233.1850000046,170228.77000000153,130416.753,130433.474999998,130433.419,170248.576,,,
Holding screen,html.Screen,1_1_1_0,2021-04-19T10:17:20.319Z,,,,,,,,,,,,,,,,,,,,,,,,,,,,,,9999.600000000006,,timeout,,,,,,,,,,,,,,,,,,,,,180234.2350000108,180231.51,170231.91,170233.46499999752,170248.576,180248.176,,,
screen,html.Screen,1_1_1_1_0,2021-04-19T10:17:21.421Z,,,,,,,,,,,,,,,,54,,,,,,,,,,,,,,1079.6540000092646,,response,,,,100,,,,,,,Space,keypress(Space),,,,,,,,At --- ---- --- ------ ----- ------- ---- -- --- ------- --<br>------- ---------- ------ -- ----- -- ----- -- ---- ------<br>--- ----- --- --- ------ -------- ----- --- ------ ----- --<br>----- ----- ---------- --- --- ------ ------ ---- -- ------<br>------- --- ------ ----- --- ---- ------- -- ---- --- --<br>------- ------,181336.06500001042,181327.83000000927,180231.51,180234.5350000105,180248.176,181349.225,,0,At
screen,html.Screen,1_1_1_1_1,2021-04-19T10:17:21.788Z,,,,,,,,,,,,,,,,54,,,,,,,,,,,,,,346.8300000076124,,response,,,,100,,,,,,,Space,keypress(Space),,,,,,,,-- the ---- --- ------ ----- ------- ---- -- --- ------- --<br>------- ---------- ------ -- ----- -- ----- -- ---- ------<br>--- ----- --- --- ------ -------- ----- --- ------ ----- --<br>----- ----- ---------- --- --- ------ ------ ---- -- ------<br>------- --- ------ ----- --- ---- ------- -- ---- --- --<br>------- ------,181703.3999999985,181696.05500000762,181332.559,181336.30500000436,181349.225,181715.877,,1,the
screen,html.Screen,1_1_1_1_2,2021-04-19T10:17:22.076Z,,,,,,,,,,,,,,,,54,,,,,,,,,,,,,,268.2529999970866,,response,,,,100,,,,,,,Space,keypress(Space),,,,,,,,-- --- time --- ------ ----- ------- ---- -- --- ------- --<br>------- ---------- ------ -- ----- -- ----- -- ---- ------<br>--- ----- --- --- ------ -------- ----- --- ------ ----- --<br>----- ----- ---------- --- --- ------ ------ ---- -- ------<br>------- --- ------ ----- --- ---- ------- -- ---- --- --<br>------- ------,181991.2900000054,181984.1299999971,181699.211,181703.56999999785,181715.877,181999.199,,2,time
screen,html.Screen,1_1_1_1_3,2021-04-19T10:17:22.361Z,,,,,,,,,,,,,,,,54,,,,,,,,,,,,,,269.36600000577164,,response,,,,100,,,,,,,Space,keypress(Space),,,,,,,,-- --- ---- the ------ ----- ------- ---- -- --- ------- --<br>------- ---------- ------ -- ----- -- ----- -- ---- ------<br>--- ----- --- --- ------ -------- ----- --- ------ ----- --<br>----- ----- ---------- --- --- ------ ------ ---- -- ------<br>------- --- ------ ----- --- ---- ------- -- ---- --- --<br>------- ------,182275.67499999714,182268.56500000576,181982.533,181991.45000000135,181999.199,182282.521,,3,the
screen,html.Screen,1_1_1_1_4,2021-04-19T10:17:22.694Z,,,,,,,,,,,,,,,,54,,,,,,,,,,,,,,319.05400000786176,,response,,,,100,,,,,,,Space,keypress(Space),,,,,,,,-- --- ---- --- French ----- ------- ---- -- --- ------- --<br>------- ---------- ------ -- ----- -- ----- -- ---- ------<br>--- ----- --- --- ------ -------- ----- --- ------ ----- --<br>----- ----- ---------- --- --- ------ ------ ---- -- ------<br>------- --- ------ ----- --- ---- ------- -- ---- --- --<br>------- ------,182609.04000001028,182601.57500000787,182265.855,182275.86500000325,182282.521,182615.841,,4,French
screen,html.Screen,1_1_1_1_5,2021-04-19T10:17:23.025Z,,,,,,,,,,,,,,,,54,,,,,,,,,,,,,,317.06900000319,,response,,,,100,,,,,,,Space,keypress(Space),,,,,,,,-- --- ---- --- ------ crown ------- ---- -- --- ------- --<br>------- ---------- ------ -- ----- -- ----- -- ---- ------<br>--- ----- --- --- ------ -------- ----- --- ------ ----- --<br>----- ----- ---------- --- --- ------ ------ ---- -- ------<br>------- --- ------ ----- --- ---- ------- -- ---- --- --<br>------- ------,182940.0900000037,182932.91000000318,182599.175,182609.20000000624,182615.841,182949.161,,5,crown
screen,html.Screen,1_1_1_1_6,2021-04-19T10:17:23.431Z,,,,,,,,,,,,,,,,54,,,,,,,,,,,,,,390.4040000020468,,response,,,,100,,,,,,,Space,keypress(Space),,,,,,,,-- --- ---- --- ------ ----- secured ---- -- --- ------- --<br>------- ---------- ------ -- ----- -- ----- -- ---- ------<br>--- ----- --- --- ------ -------- ----- --- ------ ----- --<br>----- ----- ---------- --- --- ------ ------ ---- -- ------<br>------- --- ------ ----- --- ---- ------- -- ---- --- --<br>------- ------,183346.6150000022,183339.56500000204,182932.495,182940.24999999965,182949.161,183349.145,,6,secured
screen,html.Screen,1_1_1_1_7,2021-04-19T10:17:23.866Z,,,,,,,,,,,,,,,,54,,,,,,,,,,,,,,424.63999999759835,,response,,,,100,,,,,,,Space,keypress(Space),,,,,,,,-- --- ---- --- ------ ----- ------- much -- --- ------- --<br>------- ---------- ------ -- ----- -- ----- -- ---- ------<br>--- ----- --- --- ------ -------- ----- --- ------ ----- --<br>----- ----- ---------- --- --- ------ ------ ---- -- ------<br>------- --- ------ ----- --- ---- ------- -- ---- --- --<br>------- ------,183781.1650000076,183773.7849999976,183332.479,183346.78500000155,183349.145,183782.461,,7,much
screen,html.Screen,1_1_1_1_8,2021-04-19T10:17:24.280Z,,,,,,,,,,,,,,,,54,,,,,,,,,,,,,,405.07400000456255,,response,,,,100,,,,,,,Space,keypress(Space),,,,,,,,-- --- ---- --- ------ ----- ------- ---- of --- ------- --<br>------- ---------- ------ -- ----- -- ----- -- ---- ------<br>--- ----- --- --- ------ -------- ----- --- ------ ----- --<br>----- ----- ---------- --- --- ------ ------ ---- -- ------<br>------- --- ------ ----- --- ---- ------- -- ---- --- --<br>------- ------,184194.92500000342,184187.53500000457,183765.795,183781.35499999917,183782.461,184199.111,,8,of
screen,html.Screen,1_1_1_1_9,2021-04-19T10:17:24.567Z,,,,,,,,,,,,,,,,54,,,,,,,,,,,,,,276.25900000010733,,response,,,,100,,,,,,,Space,keypress(Space),,,,,,,,-- --- ---- --- ------ ----- ------- ---- -- its ------- --<br>------- ---------- ------ -- ----- -- ----- -- ---- ------<br>--- ----- --- --- ------ -------- ----- --- ------ ----- --<br>----- ----- ---------- --- --- ------ ------ ---- -- ------<br>------- --- ------ ----- --- ---- ------- -- ---- --- --<br>------- ------,184482.5300000084,184475.3700000001,184182.445,184195.12499999837,184199.111,184499.099,,9,its
screen,html.Screen,1_1_1_1_10,2021-04-19T10:17:24.899Z,,,,,,,,,,,,,,,,54,,,,,,,,,,,,,,307.6110000043991,,response,,,,100,,,,,,,Space,keypress(Space),,,,,,,,-- --- ---- --- ------ ----- ------- ---- -- --- revenue --<br>------- ---------- ------ -- ----- -- ----- -- ---- ------<br>--- ----- --- --- ------ -------- ----- --- ------ ----- --<br>----- ----- ---------- --- --- ------ ------ ---- -- ------<br>------- --- ------ ----- --- ---- ------- -- ---- --- --<br>------- ------,184814.33000000834,184806.7100000044,184482.433,184482.69499999878,184499.099,184815.753,,10,revenue
screen,html.Screen,1_1_1_1_11,2021-04-19T10:17:25.282Z,,,,,,,,,,,,,,,,54,,,,,,,,,,,,,,373.7419999987178,,response,,,,100,,,,,,,Space,keypress(Space),,,,,,,,-- --- ---- --- ------ ----- ------- ---- -- --- ------- by<br>------- ---------- ------ -- ----- -- ----- -- ---- ------<br>--- ----- --- --- ------ -------- ----- --- ------ ----- --<br>----- ----- ---------- --- --- ------ ------ ---- -- ------<br>------- --- ------ ----- --- ---- ------- -- ---- --- --<br>------- ------,185197.37000000896,185189.49499999871,184799.087,184814.51000001107,184815.753,185199.071,,11,by
screen,html.Screen,1_1_1_1_12,2021-04-19T10:17:25.653Z,,,,,,,,,,,,,,,,54,,,,,,,,,,,,,,362.2790000035893,,response,,,,100,,,,,,,Space,keypress(Space),,,,,,,,-- --- ---- --- ------ ----- ------- ---- -- --- ------- --<br>issuing ---------- ------ -- ----- -- ----- -- ---- ------<br>--- ----- --- --- ------ -------- ----- --- ------ ----- --<br>----- ----- ---------- --- --- ------ ------ ---- -- ------<br>------- --- ------ ----- --- ---- ------- -- ---- --- --<br>------- ------,185568.49499999953,185561.3500000036,185182.405,185197.5700000039,185199.071,185582.389,,12,issuing
screen,html.Screen,1_1_1_1_13,2021-04-19T10:17:25.991Z,,,,,,,,,,,,,,,,54,,,,,,,,,,,,,,316.3210000085819,,response,,,,100,,,,,,,Space,keypress(Space),,,,,,,,-- --- ---- --- ------ ----- ------- ---- -- --- ------- --<br>------- government ------ -- ----- -- ----- -- ---- ------<br>--- ----- --- --- ------ -------- ----- --- ------ ----- --<br>----- ----- ---------- --- --- ------ ------ ---- -- ------<br>------- --- ------ ----- --- ---- ------- -- ---- --- --<br>------- ------,185906.54500000528,185898.71000000858,185565.723,185568.67000000784,185582.389,185915.709,,13,government
screen,html.Screen,1_1_1_1_14,2021-04-19T10:17:26.317Z,,,,,,,,,,,,,,,,54,,,,,,,,,,,,,,308.61100000844453,,response,,,,100,,,,,,,Space,keypress(Space),,,,,,,,-- --- ---- --- ------ ----- ------- ---- -- --- ------- --<br>------- ---------- bonds. -- ----- -- ----- -- ---- ------<br>--- ----- --- --- ------ -------- ----- --- ------ ----- --<br>----- ----- ---------- --- --- ------ ------ ---- -- ------<br>------- --- ------ ----- --- ---- ------- -- ---- --- --<br>------- ------,186232.3000000033,186224.32000000845,185899.043,185906.87500000058,185915.709,186249.029,,14,bonds.
screen,html.Screen,1_1_1_1_15,2021-04-19T10:17:26.740Z,,,,,,,,,,,,,,,,54,,,,,,,,,,,,,,398.4560000085912,,response,,,,100,,,,,,,Space,keypress(Space),,,,,,,,-- --- ---- --- ------ ----- ------- ---- -- --- ------- --<br>------- ---------- ------ In ----- -- ----- -- ---- ------<br>--- ----- --- --- ------ -------- ----- --- ------ ----- --<br>----- ----- ---------- --- --- ------ ------ ---- -- ------<br>------- --- ------ ----- --- ---- ------- -- ---- --- --<br>------- ------,186655.21500000614,186647.4850000086,186232.363,186232.51000000164,186249.029,186665.679,,15,In
screen,html.Screen,1_1_1_1_16,2021-04-19T10:17:27.033Z,,,,,,,,,,,,,,,,54,,,,,,,,,,,,,,274.9160000073025,,response,,,,100,,,,,,,Space,keypress(Space),,,,,,,,"-- --- ---- --- ------ ----- ------- ---- -- --- ------- --<br>------- ---------- ------ -- 1727, -- ----- -- ---- ------<br>--- ----- --- --- ------ -------- ----- --- ------ ----- --<br>----- ----- ---------- --- --- ------ ------ ---- -- ------<br>------- --- ------ ----- --- ---- ------- -- ---- --- --<br>------- ------",186947.96000000497,186940.5950000073,186649.013,186655.38000001106,186665.679,186949.001,,16,"1727,"
screen,html.Screen,1_1_1_1_17,2021-04-19T10:17:27.944Z,,,,,,,,,,,,,,,,54,,,,,,,,,,,,,,901.954000001715,,response,,,,100,,,,,,,Space,keypress(Space),,,,,,,,-- --- ---- --- ------ ----- ------- ---- -- --- ------- --<br>------- ---------- ------ -- ----- in ----- -- ---- ------<br>--- ----- --- --- ------ -------- ----- --- ------ ----- --<br>----- ----- ---------- --- --- ------ ------ ---- -- ------<br>------- --- ------ ----- --- ---- ------- -- ---- --- --<br>------- ------,187859.18500000844,187850.9550000017,186932.335,186948.16500000888,186949.001,187865.631,,17,in
screen,html.Screen,1_1_1_1_18,2021-04-19T10:17:28.306Z,,,,,,,,,,,,,,,,54,,,,,,,,,,,,,,348.74400001048343,,response,,,,100,,,,,,,Space,keypress(Space),,,,,,,,-- --- ---- --- ------ ----- ------- ---- -- --- ------- --<br>------- ---------- ------ -- ----- -- order -- ---- ------<br>--- ----- --- --- ------ -------- ----- --- ------ ----- --<br>----- ----- ---------- --- --- ------ ------ ---- -- ------<br>------- --- ------ ----- --- ---- ------- -- ---- --- --<br>------- ------,188221.63500000897,188214.37500001048,187848.965,187859.41000000457,187865.631,188232.283,,18,order
screen,html.Screen,1_1_1_1_19,2021-04-19T10:17:28.609Z,,,,,,,,,,,,,,,,54,,,,,,,,,,,,,,284.66700000473065,,response,,,,100,,,,,,,Space,keypress(Space),,,,,,,,-- --- ---- --- ------ ----- ------- ---- -- --- ------- --<br>------- ---------- ------ -- ----- -- ----- to ---- ------<br>--- ----- --- --- ------ -------- ----- --- ------ ----- --<br>----- ----- ---------- --- --- ------ ------ ---- -- ------<br>------- --- ------ ----- --- ---- ------- -- ---- --- --<br>------- ------,188524.23999999883,188516.95000000473,188215.617,188221.85000000172,188232.283,188532.271,,19,to
screen,html.Screen,1_1_1_1_20,2021-04-19T10:17:28.928Z,,,,,,,,,,,,,,,,54,,,,,,,,,,,,,,303.4290000105393,,response,,,,100,,,,,,,Space,keypress(Space),,,,,,,,-- --- ---- --- ------ ----- ------- ---- -- --- ------- --<br>------- ---------- ------ -- ----- -- ----- -- save ------<br>--- ----- --- --- ------ -------- ----- --- ------ ----- --<br>----- ----- ---------- --- --- ------ ------ ---- -- ------<br>------- --- ------ ----- --- ---- ------- -- ---- --- --<br>------- ------,188842.96500000346,188835.70000001055,188515.605,188524.41500000714,188532.271,188848.925,,20,save
screen,html.Screen,1_1_1_1_21,2021-04-19T10:17:29.221Z,,,,,,,,,,,,,,,,54,,,,,,,,,,,,,,280.6800000091898,,response,,,,100,,,,,,,Space,keypress(Space),,,,,,,,"-- --- ---- --- ------ ----- ------- ---- -- --- ------- --<br>------- ---------- ------ -- ----- -- ----- -- ---- money,<br>--- ----- --- --- ------ -------- ----- --- ------ ----- --<br>----- ----- ---------- --- --- ------ ------ ---- -- ------<br>------- --- ------ ----- --- ---- ------- -- ---- --- --<br>------- ------",189136.65500000934,189129.60500000918,188832.259,188843.1300000084,188848.925,189148.913,,21,"money,"
screen,html.Screen,1_1_1_1_22,2021-04-19T10:17:29.668Z,,,,,,,,,,,,,,,,54,,,,,,,,,,,,,,426.4670000093174,,response,,,,100,,,,,,,Space,keypress(Space),,,,,,,,-- --- ---- --- ------ ----- ------- ---- -- --- ------- --<br>------- ---------- ------ -- ----- -- ----- -- ---- ------<br>the ----- --- --- ------ -------- ----- --- ------ ----- --<br>----- ----- ---------- --- --- ------ ------ ---- -- ------<br>------- --- ------ ----- --- ---- ------- -- ---- --- --<br>------- ------,189583.21500000602,189575.38000000932,189132.247,189136.8599999987,189148.913,189598.895,,22,the
screen,html.Screen,1_1_1_1_23,2021-04-19T10:17:29.952Z,,,,,,,,,,,,,,,,54,,,,,,,,,,,,,,261.4650000060501,,response,,,,100,,,,,,,Space,keypress(Space),,,,,,,,-- --- ---- --- ------ ----- ------- ---- -- --- ------- --<br>------- ---------- ------ -- ----- -- ----- -- ---- ------<br>--- state --- --- ------ -------- ----- --- ------ ----- --<br>----- ----- ---------- --- --- ------ ------ ---- -- ------<br>------- --- ------ ----- --- ---- ------- -- ---- --- --<br>------- ------,189867.44500001078,189860.36000000604,189582.229,189583.45000000554,189598.895,189882.217,,23,state
screen,html.Screen,1_1_1_1_24,2021-04-19T10:17:30.354Z,,,,,,,,,,,,,,,,54,,,,,,,,,,,,,,379.663000005472,,response,,,,100,,,,,,,Space,keypress(Space),,,,,,,,-- --- ---- --- ------ ----- ------- ---- -- --- ------- --<br>------- ---------- ------ -- ----- -- ----- -- ---- ------<br>--- ----- cut --- ------ -------- ----- --- ------ ----- --<br>----- ----- ---------- --- --- ------ ------ ---- -- ------<br>------- --- ------ ----- --- ---- ------- -- ---- --- --<br>------- ------,190269.3900000013,190261.88000000548,189865.551,189867.60500000673,189882.217,190270.26,,24,cut
screen,html.Screen,1_1_1_1_25,2021-04-19T10:17:30.700Z,,,,,,,,,,,,,,,,54,,,,,,,,,,,,,,337.745000001858,,response,,,,100,,,,,,,Space,keypress(Space),,,,,,,,-- --- ---- --- ------ ----- ------- ---- -- --- ------- --<br>------- ---------- ------ -- ----- -- ----- -- ---- ------<br>--- ----- --- the ------ -------- ----- --- ------ ----- --<br>----- ----- ---------- --- --- ------ ------ ---- -- ------<br>------- --- ------ ----- --- ---- ------- -- ---- --- --<br>------- ------,190615.3350000095,190608.00500000187,190253.594,190269.56000000064,190270.26,190620.246,,25,the
screen,html.Screen,1_1_1_1_26,2021-04-19T10:17:31.028Z,,,,,,,,,,,,,,,,54,,,,,,,,,,,,,,316.19899999935296,,response,,,,100,,,,,,,Space,keypress(Space),,,,,,,,-- --- ---- --- ------ ----- ------- ---- -- --- ------- --<br>------- ---------- ------ -- ----- -- ----- -- ---- ------<br>--- ----- --- --- bonds' -------- ----- --- ------ ----- --<br>----- ----- ---------- --- --- ------ ------ ---- -- ------<br>------- --- ------ ----- --- ---- ------- -- ---- --- --<br>------- ------,190943.69500000903,190936.44499999937,190603.58,190615.49999999988,190620.246,190953.566,,26,bonds'
screen,html.Screen,1_1_1_1_27,2021-04-19T10:17:31.474Z,,,,,,,,,,,,,,,,54,,,,,,,,,,,,,,427.74399999703746,,response,,,,100,,,,,,,Space,keypress(Space),,,,,,,,-- --- ---- --- ------ ----- ------- ---- -- --- ------- --<br>------- ---------- ------ -- ----- -- ----- -- ---- ------<br>--- ----- --- --- ------ interest ----- --- ------ ----- --<br>----- ----- ---------- --- --- ------ ------ ---- -- ------<br>------- --- ------ ----- --- ---- ------- -- ---- --- --<br>------- ------,191389.37000000442,191381.30999999703,190936.9,190943.855000005,190953.566,191403.548,,27,interest
screen,html.Screen,1_1_1_1_28,2021-04-19T10:17:31.831Z,,,,,,,,,,,,,,,,54,,,,,,,,,,,,,,335.0769999981276,,response,,,,100,,,,,,,Space,keypress(Space),,,,,,,,-- --- ---- --- ------ ----- ------- ---- -- --- ------- --<br>------- ---------- ------ -- ----- -- ----- -- ---- ------<br>--- ----- --- --- ------ -------- rate. --- ------ ----- --<br>----- ----- ---------- --- --- ------ ------ ---- -- ------<br>------- --- ------ ----- --- ---- ------- -- ---- --- --<br>------- ------,191746.1200000107,191738.62499999814,191386.882,191389.54000000376,191403.548,191753.534,,28,rate.
screen,html.Screen,1_1_1_1_29,2021-04-19T10:17:32.215Z,,,,,,,,,,,,,,,,54,,,,,,,,,,,,,,369.12600000816747,,response,,,,100,,,,,,,Space,keypress(Space),,,,,,,,-- --- ---- --- ------ ----- ------- ---- -- --- ------- --<br>------- ---------- ------ -- ----- -- ----- -- ---- ------<br>--- ----- --- --- ------ -------- ----- The ------ ----- --<br>----- ----- ---------- --- --- ------ ------ ---- -- ------<br>------- --- ------ ----- --- ---- ------- -- ---- --- --<br>------- ------,192130.02500000584,192122.66000000818,191736.868,191746.31000000227,191753.534,192136.852,,29,The
screen,html.Screen,1_1_1_1_30,2021-04-19T10:17:32.505Z,,,,,,,,,,,,,,,,54,,,,,,,,,,,,,,276.47800001030555,,response,,,,100,,,,,,,Space,keypress(Space),,,,,,,,-- --- ---- --- ------ ----- ------- ---- -- --- ------- --<br>------- ---------- ------ -- ----- -- ----- -- ---- ------<br>--- ----- --- --- ------ -------- ----- --- market ----- --<br>----- ----- ---------- --- --- ------ ------ ---- -- ------<br>------- --- ------ ----- --- ---- ------- -- ---- --- --<br>------- ------,192420.4699999973,192413.33000001032,192120.186,192130.20500000857,192136.852,192436.84,,30,market
screen,html.Screen,1_1_1_1_31,2021-04-19T10:17:32.860Z,,,,,,,,,,,,,,,,54,,,,,,,,,,,,,,330.81000000887434,,response,,,,100,,,,,,,Space,keypress(Space),,,,,,,,-- --- ---- --- ------ ----- ------- ---- -- --- ------- --<br>------- ---------- ------ -- ----- -- ----- -- ---- ------<br>--- ----- --- --- ------ -------- ----- --- ------ value --<br>----- ----- ---------- --- --- ------ ------ ---- -- ------<br>------- --- ------ ----- --- ---- ------- -- ---- --- --<br>------- ------,192775.3800000064,192767.65000000887,192420.174,192420.6750000012,192436.84,192786.826,,31,value
screen,html.Screen,1_1_1_1_32,2021-04-19T10:17:33.212Z,,,,,,,,,,,,,,,,54,,,,,,,,,,,,,,333.2690000056755,,response,,,,100,,,,,,,Space,keypress(Space),,,,,,,,-- --- ---- --- ------ ----- ------- ---- -- --- ------- --<br>------- ---------- ------ -- ----- -- ----- -- ---- ------<br>--- ----- --- --- ------ -------- ----- --- ------ ----- of<br>----- ----- ---------- --- --- ------ ------ ---- -- ------<br>------- --- ------ ----- --- ---- ------- -- ---- --- --<br>------- ------,193127.3599999986,193120.09500000568,192770.16,192775.56999999797,192786.826,193136.812,,32,of
screen,html.Screen,1_1_1_1_33,2021-04-19T10:17:33.551Z,,,,,,,,,,,,,,,,54,,,,,,,,,,,,,,321.5279999974009,,response,,,,100,,,,,,,Space,keypress(Space),,,,,,,,-- --- ---- --- ------ ----- ------- ---- -- --- ------- --<br>------- ---------- ------ -- ----- -- ----- -- ---- ------<br>--- ----- --- --- ------ -------- ----- --- ------ ----- --<br>these ----- ---------- --- --- ------ ------ ---- -- ------<br>------- --- ------ ----- --- ---- ------- -- ---- --- --<br>------- ------,193466.31499999785,193458.3399999974,193120.146,193127.52500000352,193136.812,193470.132,,33,these
screen,html.Screen,1_1_1_1_34,2021-04-19T10:17:33.840Z,,,,,,,,,,,,,,,,54,,,,,,,,,,,,,,278.0280000028142,,response,,,,100,,,,,,,Space,keypress(Space),,,,,,,,-- --- ---- --- ------ ----- ------- ---- -- --- ------- --<br>------- ---------- ------ -- ----- -- ----- -- ---- ------<br>--- ----- --- --- ------ -------- ----- --- ------ ----- --<br>----- bonds ---------- --- --- ------ ------ ---- -- ------<br>------- --- ------ ----- --- ---- ------- -- ---- --- --<br>------- ------,193755.04499999806,193748.16000000283,193453.466,193466.47500000836,193470.132,193770.12,,34,bonds
screen,html.Screen,1_1_1_1_35,2021-04-19T10:17:34.179Z,,,,,,,,,,,,,,,,54,,,,,,,,,,,,,,317.2150000038091,,response,,,,100,,,,,,,Space,keypress(Space),,,,,,,,"-- --- ---- --- ------ ----- ------- ---- -- --- ------- --<br>------- ---------- ------ -- ----- -- ----- -- ---- ------<br>--- ----- --- --- ------ -------- ----- --- ------ ----- --<br>----- ----- plummeted, --- --- ------ ------ ---- -- ------<br>------- --- ------ ----- --- ---- ------- -- ---- --- --<br>------- ------",194094.68500000366,194087.3350000038,193753.454,193755.210000003,193770.12,194103.44,,35,"plummeted,"
screen,html.Screen,1_1_1_1_36,2021-04-19T10:17:34.514Z,,,,,,,,,,,,,,,,54,,,,,,,,,,,,,,317.99000000214437,,response,,,,100,,,,,,,Space,keypress(Space),,,,,,,,-- --- ---- --- ------ ----- ------- ---- -- --- ------- --<br>------- ---------- ------ -- ----- -- ----- -- ---- ------<br>--- ----- --- --- ------ -------- ----- --- ------ ----- --<br>----- ----- ---------- and --- ------ ------ ---- -- ------<br>------- --- ------ ----- --- ---- ------- -- ---- --- --<br>------- ------,194428.7949999998,194421.43000000215,194086.774,194094.855000003,194103.44,194436.76,,36,and
screen,html.Screen,1_1_1_1_37,2021-04-19T10:17:34.825Z,,,,,,,,,,,,,,,,54,,,,,,,,,,,,,,296.42000001017004,,response,,,,100,,,,,,,Space,keypress(Space),,,,,,,,-- --- ---- --- ------ ----- ------- ---- -- --- ------- --<br>------- ---------- ------ -- ----- -- ----- -- ---- ------<br>--- ----- --- --- ------ -------- ----- --- ------ ----- --<br>----- ----- ---------- --- the ------ ------ ---- -- ------<br>------- --- ------ ----- --- ---- ------- -- ---- --- --<br>------- ------,194740.7749999984,194733.18000001018,194420.094,194428.96000000474,194436.76,194753.414,,37,the
screen,html.Screen,1_1_1_1_38,2021-04-19T10:17:35.179Z,,,,,,,,,,,,,,,,54,,,,,,,,,,,,,,333.72600000328384,,response,,,,100,,,,,,,Space,keypress(Space),,,,,,,,-- --- ---- --- ------ ----- ------- ---- -- --- ------- --<br>------- ---------- ------ -- ----- -- ----- -- ---- ------<br>--- ----- --- --- ------ -------- ----- --- ------ ----- --<br>----- ----- ---------- --- --- market ------ ---- -- ------<br>------- --- ------ ----- --- ---- ------- -- ---- --- --<br>------- ------,195094.58499999892,195087.14000000327,194736.748,194740.94499999774,194753.414,195103.4,,38,market
screen,html.Screen,1_1_1_1_39,2021-04-19T10:17:35.505Z,,,,,,,,,,,,,,,,54,,,,,,,,,,,,,,309.81500000777305,,response,,,,100,,,,,,,Space,keypress(Space),,,,,,,,-- --- ---- --- ------ ----- ------- ---- -- --- ------- --<br>------- ---------- ------ -- ----- -- ----- -- ---- ------<br>--- ----- --- --- ------ -------- ----- --- ------ ----- --<br>----- ----- ---------- --- --- ------ became ---- -- ------<br>------- --- ------ ----- --- ---- ------- -- ---- --- --<br>------- ------,195420.17500000657,195413.21500000777,195086.734,195094.74500000942,195103.4,195436.72,,39,became
screen,html.Screen,1_1_1_1_40,2021-04-19T10:17:35.824Z,,,,,,,,,,,,,,,,54,,,,,,,,,,,,,,295.725000001461,,response,,,,100,,,,,,,Space,keypress(Space),,,,,,,,-- --- ---- --- ------ ----- ------- ---- -- --- ------- --<br>------- ---------- ------ -- ----- -- ----- -- ---- ------<br>--- ----- --- --- ------ -------- ----- --- ------ ----- --<br>----- ----- ---------- --- --- ------ ------ wary -- ------<br>------- --- ------ ----- --- ---- ------- -- ---- --- --<br>------- ------,195739.2899999977,195732.44500000146,195420.054,195420.33500000252,195436.72,195753.374,,40,wary
screen,html.Screen,1_1_1_1_41,2021-04-19T10:17:36.295Z,,,,,,,,,,,,,,,,54,,,,,,,,,,,,,,449.11600001057377,,response,,,,100,,,,,,,Space,keypress(Space),,,,,,,,-- --- ---- --- ------ ----- ------- ---- -- --- ------- --<br>------- ---------- ------ -- ----- -- ----- -- ---- ------<br>--- ----- --- --- ------ -------- ----- --- ------ ----- --<br>----- ----- ---------- --- --- ------ ------ ---- of ------<br>------- --- ------ ----- --- ---- ------- -- ---- --- --<br>------- ------,196210.18500000355,196202.49000001058,195736.708,195739.45500000264,195753.374,196220.022,,41,of
screen,html.Screen,1_1_1_1_42,2021-04-19T10:17:36.632Z,,,,,,,,,,,,,,,,54,,,,,,,,,,,,,,319.60799999930896,,response,,,,100,,,,,,,Space,keypress(Space),,,,,,,,-- --- ---- --- ------ ----- ------- ---- -- --- ------- --<br>------- ---------- ------ -- ----- -- ----- -- ---- ------<br>--- ----- --- --- ------ -------- ----- --- ------ ----- --<br>----- ----- ---------- --- --- ------ ------ ---- -- French<br>------- --- ------ ----- --- ---- ------- -- ---- --- --<br>------- ------,196547.22500000207,196539.6299999993,196203.356,196210.38000000408,196220.022,196553.342,,42,French
screen,html.Screen,1_1_1_1_43,2021-04-19T10:17:37.073Z,,,,,,,,,,,,,,,,54,,,,,,,,,,,,,,427.0880000105244,,response,,,,100,,,,,,,Space,keypress(Space),,,,,,,,-- --- ---- --- ------ ----- ------- ---- -- --- ------- --<br>------- ---------- ------ -- ----- -- ----- -- ---- ------<br>--- ----- --- --- ------ -------- ----- --- ------ ----- --<br>----- ----- ---------- --- --- ------ ------ ---- -- ------<br>credit. --- ------ ----- --- ---- ------- -- ---- --- --<br>------- ------,196987.98000000534,196980.43000001053,196536.676,196547.4899999972,196553.342,197003.324,,43,credit.
screen,html.Screen,1_1_1_1_44,2021-04-19T10:17:37.480Z,,,,,,,,,,,,,,,,54,,,,,,,,,,,,,,383.4360000085144,,response,,,,100,,,,,,,Space,keypress(Space),,,,,,,,-- --- ---- --- ------ ----- ------- ---- -- --- ------- --<br>------- ---------- ------ -- ----- -- ----- -- ---- ------<br>--- ----- --- --- ------ -------- ----- --- ------ ----- --<br>----- ----- ---------- --- --- ------ ------ ---- -- ------<br>------- The ------ ----- --- ---- ------- -- ---- --- --<br>------- ------,197394.9350000039,197386.7600000085,196986.658,196988.14500001026,197003.324,197403.308,,44,The
screen,html.Screen,1_1_1_1_45,2021-04-19T10:17:37.813Z,,,,,,,,,,,,,,,,54,,,,,,,,,,,,,,316.89200001067366,,response,,,,100,,,,,,,Space,keypress(Space),,,,,,,,-- --- ---- --- ------ ----- ------- ---- -- --- ------- --<br>------- ---------- ------ -- ----- -- ----- -- ---- ------<br>--- ----- --- --- ------ -------- ----- --- ------ ----- --<br>----- ----- ---------- --- --- ------ ------ ---- -- ------<br>------- --- French ----- --- ---- ------- -- ---- --- --<br>------- ------,197727.85500000464,197720.20000001066,197386.642,197395.12500001,197403.308,197736.628,,45,French
screen,html.Screen,1_1_1_1_46,2021-04-19T10:17:38.140Z,,,,,,,,,,,,,,,,54,,,,,,,,,,,,,,311.01200000432436,,response,,,,100,,,,,,,Space,keypress(Space),,,,,,,,-- --- ---- --- ------ ----- ------- ---- -- --- ------- --<br>------- ---------- ------ -- ----- -- ----- -- ---- ------<br>--- ----- --- --- ------ -------- ----- --- ------ ----- --<br>----- ----- ---------- --- --- ------ ------ ---- -- ------<br>------- --- ------ state --- ---- ------- -- ---- --- --<br>------- ------,198055.08000000555,198047.64000000432,197719.962,197728.04500001075,197736.628,198069.948,,46,state
screen,html.Screen,1_1_1_1_47,2021-04-19T10:17:38.560Z,,,,,,,,,,,,,,,,54,,,,,,,,,,,,,,398.00700000007055,,response,,,,100,,,,,,,Space,keypress(Space),,,,,,,,-- --- ---- --- ------ ----- ------- ---- -- --- ------- --<br>------- ---------- ------ -- ----- -- ----- -- ---- ------<br>--- ----- --- --- ------ -------- ----- --- ------ ----- --<br>----- ----- ---------- --- --- ------ ------ ---- -- ------<br>------- --- ------ ----- was ---- ------- -- ---- --- --<br>------- ------,198475.24500000873,198467.95500000007,198053.282,198055.2650000027,198069.948,198486.598,,47,was
screen,html.Screen,1_1_1_1_48,2021-04-19T10:17:38.864Z,,,,,,,,,,,,,,,,54,,,,,,,,,,,,,,284.532000008272,,response,,,,100,,,,,,,Space,keypress(Space),,,,,,,,-- --- ---- --- ------ ----- ------- ---- -- --- ------- --<br>------- ---------- ------ -- ----- -- ----- -- ---- ------<br>--- ----- --- --- ------ -------- ----- --- ------ ----- --<br>----- ----- ---------- --- --- ------ ------ ---- -- ------<br>------- --- ------ ----- --- left ------- -- ---- --- --<br>------- ------,198779.00500000396,198771.13000000827,198469.932,198475.4350000003,198486.598,198786.586,,48,left
screen,html.Screen,1_1_1_1_49,2021-04-19T10:17:39.260Z,,,,,,,,,,,,,,,,54,,,,,,,,,,,,,,381.4640000074869,,response,,,,100,,,,,,,Space,keypress(Space),,,,,,,,-- --- ---- --- ------ ----- ------- ---- -- --- ------- --<br>------- ---------- ------ -- ----- -- ----- -- ---- ------<br>--- ----- --- --- ------ -------- ----- --- ------ ----- --<br>----- ----- ---------- --- --- ------ ------ ---- -- ------<br>------- --- ------ ----- --- ---- without -- ---- --- --<br>------- ------,199175.49000000872,199168.0500000075,198769.92,198779.16499999992,198786.586,199186.57,,49,without
screen,html.Screen,1_1_1_1_50,2021-04-19T10:17:39.589Z,,,,,,,,,,,,,,,,54,,,,,,,,,,,,,,310.4650000075926,,response,,,,100,,,,,,,Space,keypress(Space),,,,,,,,-- --- ---- --- ------ ----- ------- ---- -- --- ------- --<br>------- ---------- ------ -- ----- -- ----- -- ---- ------<br>--- ----- --- --- ------ -------- ----- --- ------ ----- --<br>----- ----- ---------- --- --- ------ ------ ---- -- ------<br>------- --- ------ ----- --- ---- ------- an ---- --- --<br>------- ------,199504.0350000054,199497.0350000076,199169.904,199175.65000000468,199186.57,199519.89,,50,an
screen,html.Screen,1_1_1_1_51,2021-04-19T10:17:39.956Z,,,,,,,,,,,,,,,,54,,,,,,,,,,,,,,344.0850000001956,,response,,,,100,,,,,,,Space,keypress(Space),,,,,,,,-- --- ---- --- ------ ----- ------- ---- -- --- ------- --<br>------- ---------- ------ -- ----- -- ----- -- ---- ------<br>--- ----- --- --- ------ -------- ----- --- ------ ----- --<br>----- ----- ---------- --- --- ------ ------ ---- -- ------<br>------- --- ------ ----- --- ---- ------- -- easy --- --<br>------- ------,199871.4650000038,199863.9750000002,199503.224,199504.2000000103,199519.89,199886.542,,51,easy
screen,html.Screen,1_1_1_1_52,2021-04-19T10:17:40.245Z,,,,,,,,,,,,,,,,54,,,,,,,,,,,,,,266.79800000440446,,response,,,,100,,,,,,,Space,keypress(Space),,,,,,,,-- --- ---- --- ------ ----- ------- ---- -- --- ------- --<br>------- ---------- ------ -- ----- -- ----- -- ---- ------<br>--- ----- --- --- ------ -------- ----- --- ------ ----- --<br>----- ----- ---------- --- --- ------ ------ ---- -- ------<br>------- --- ------ ----- --- ---- ------- -- ---- way --<br>------- ------,200160.5200000049,200153.3400000044,199869.876,199871.65000000095,199886.542,200169.864,,52,way
screen,html.Screen,1_1_1_1_53,2021-04-19T10:17:40.625Z,,,,,,,,,,,,,,,,54,,,,,,,,,,,,,,363.1660000059637,,response,,,,100,,,,,,,Space,keypress(Space),,,,,,,,-- --- ---- --- ------ ----- ------- ---- -- --- ------- --<br>------- ---------- ------ -- ----- -- ----- -- ---- ------<br>--- ----- --- --- ------ -------- ----- --- ------ ----- --<br>----- ----- ---------- --- --- ------ ------ ---- -- ------<br>------- --- ------ ----- --- ---- ------- -- ---- --- of<br>------- ------,200540.31000001123,200533.03000000597,200153.198,200160.70000000764,200169.864,200555.744,,53,of
screen,html.Screen,1_1_1_1_54,2021-04-19T10:17:40.917Z,,,,,,,,,,,,,,,,54,,,,,,,,,,,,,,269.15600000688573,,response,,,,100,,,,,,,Space,keypress(Space),,,,,,,,-- --- ---- --- ------ ----- ------- ---- -- --- ------- --<br>------- ---------- ------ -- ----- -- ----- -- ---- ------<br>--- ----- --- --- ------ -------- ----- --- ------ ----- --<br>----- ----- ---------- --- --- ------ ------ ---- -- ------<br>------- --- ------ ----- --- ---- ------- -- ---- --- --<br>raising ------,200832.1600000054,200824.9000000069,200539.078,200540.5000000028,200555.744,200839.066,,54,raising
screen,html.Screen,1_1_1_1_55,2021-04-19T10:17:41.381Z,,,,,,,,,,,,,,,,54,,,,,,,,,,,,,,449.8140000073472,,response,,,,100,,,,,,,Space,keypress(Space),,,,,,,,-- --- ---- --- ------ ----- ------- ---- -- --- ------- --<br>------- ---------- ------ -- ----- -- ----- -- ---- ------<br>--- ----- --- --- ------ -------- ----- --- ------ ----- --<br>----- ----- ---------- --- --- ------ ------ ---- -- ------<br>------- --- ------ ----- --- ---- ------- -- ---- --- --<br>------- money.,201296.42500000773,201288.88000000734,200822.4,200832.3250000103,200839.066,201305.714,,55,money.
Item 100,flow.Loop,1_1_1_1,2021-04-19T10:17:41.381Z,,,,,,,,,,,,,,,,,,,,,,,,,,,,,,21040.704000007332,,completion,,,,,D,,,,,,,,,,,silence,,,,,201296.74499999965,201288.88000000734,180231.51,180234.46500000136,180248.176,201305.714,,,
Question 1,html.Screen,1_1_1_2,2021-04-19T10:17:45.030Z,,,,,,,,,,,,,,,,,,,,,,,,,,,true,TRUE,,3635.2610000049754,,response,,,,100,D,,,,,,TRUE,click #choice-1,,,,silence,,,,,204944.9900000036,204940.97500000498,201289.048,201296.88000000897,201305.714,204955.568,,,
Question 2,html.Screen,1_1_1_3,2021-04-19T10:17:47.570Z,,,,,,,,,,,,,,,,,,,,,,,,,,,true,FALSE,,2525.6819999970903,,response,,,,100,D,,,,,,FALSE,click #choice-2,,,,silence,,,,,207485.03500000515,207481.2499999971,204938.902,204945.14999999956,204955.568,207488.8,,,
Item 100,flow.Sequence,1_1_1,2021-04-19T10:17:47.570Z,,,,,,,,,,,,,,,,,,,,,,,,,,,,,,37232.67399999709,,completion,,,,,,,,,,,,,,,,,,,,,207485.44000000402,207481.2499999971,170231.91,170233.4150000097,170248.576,207488.8,,,
End of Practice,html.Page,1_1_2,2021-04-19T10:17:51.070Z,,,,,,,,,,,,,,,,,,,,,,,,,,,,,,3496.0449999990524,,form submission,,,,,,,,,,,,,,,,,,,,,210985.2600000013,210984.84499999904,207472.134,207485.61499999778,207488.8,210988.66,,,
Practice,flow.Sequence,1_1,2021-04-19T10:17:51.070Z,,,,,,,,,,,,,,,,,,,,,,,,,,,,,,80551.42599999905,,completion,,,,,,,,,,,,,,,,,,,,,210985.61499999778,210984.84499999904,130416.753,130433.4200000012,130433.419,210988.66,,,
Trap_instruction,html.Page,1_2_0,2021-04-19T10:17:55.320Z,,,,,,,,,,,,,,,,,,,,,,,,,,,,,,4246.235000001412,,form submission,,,,,,,,,,,,,,,,,,,,,215235.35499999707,215234.89500000142,210971.994,210985.83000000508,210988.66,215253.061,,,
trap_trial,html.Screen,1_2_1,2021-04-19T10:17:59.052Z,,,,,,,,,,,,,,,,,,,,,,,,,,,true,1,,3710.2039999985136,,response,,,,,,,,,,,1,click #choice-1,,,,,,,,,218967.5750000024,218963.2649999985,215219.729,215235.62500000116,215253.061,218969.579,,,
end of trap trial,html.Page,1_2_2,2021-04-19T10:18:01.137Z,,,,,,,,,,,,,,,,,,,,,,,,,,,,,,2083.1060000023863,,form submission,,,,,,,,,,,,,,,,,,,,,221053.00500000885,221052.68500000238,218952.913,218967.8300000087,218969.579,221052.829,,,
Trap 1,flow.Sequence,1_2,2021-04-19T10:18:01.138Z,,,,,,,,,,,,,,,,,,,,,,,,,,,,,,10064.02500000238,,completion,,,,,,,,,,,,,,,,,,,,,221053.2600000006,221052.68500000238,210971.994,210985.76999999932,210988.66,221052.829,,,
Standby,html.Page,1_3_0,2021-04-19T10:18:09.122Z,,,,,,,,,,,,,,,,,,,,,,,,,,,,,,7998.621000000014,,timeout,,,,,,,,,,,,,,,,,,,,,229037.40500001004,229034.784,221036.163,221053.4200000111,221052.829,229051.45,,,
Holding screen,html.Screen,1_3_1_0_0,2021-04-19T10:18:16.116Z,,,,,,,,,,,,,,,,,,,,,,,,,,,,,,6994.671999999991,,timeout,,,,,,,,,,,,,,,,,,,,,236032.25499999826,236029.456,229034.784,229037.7700000099,229051.45,236046.122,,,
screen,html.Screen,1_3_1_0_1_0,2021-04-19T10:18:17.544Z,,,,,,,,,,,,,,,,48,,,,,,,,,,,,,,1404.0180000008259,,response,,,,10,D,,,,,,Space,keypress(Space),,,,silence,,,,As -- --- ------ ------- --------- ----------- --------<br>--------- -------- --- ------- -- ------- ---- -- ------<br>-- --- -------- -------- ---------- ---- ---- ---- ------<br>-- --------- -- ---- -- --- -- --- ------- -- - -----<br>---------- -- -- -- ---- ----- -- ------ -- --- ------<br>-------,237459.54000001075,237450.14000000083,236029.456,236032.6100000093,236046.122,237462.732,,0,As
screen,html.Screen,1_3_1_0_1_1,2021-04-19T10:18:17.969Z,,,,,,,,,,,,,,,,48,,,,,,,,,,,,,,414.67800000097486,,response,,,,10,D,,,,,,Space,keypress(Space),,,,silence,,,,-- in --- ------ ------- --------- ----------- --------<br>--------- -------- --- ------- -- ------- ---- -- ------<br>-- --- -------- -------- ---------- ---- ---- ---- ------<br>-- --------- -- ---- -- --- -- --- ------- -- - -----<br>---------- -- -- -- ---- ----- -- ------ -- --- ------<br>-------,237884.71500000742,237877.41000000096,237446.066,237459.8100000003,237462.732,237896.048,,1,in
screen,html.Screen,1_3_1_0_1_2,2021-04-19T10:18:18.306Z,,,,,,,,,,,,,,,,48,,,,,,,,,,,,,,318.65199999680044,,response,,,,10,D,,,,,,Space,keypress(Space),,,,silence,,,,-- -- the ------ ------- --------- ----------- --------<br>--------- -------- --- ------- -- ------- ---- -- ------<br>-- --- -------- -------- ---------- ---- ---- ---- ------<br>-- --------- -- ---- -- --- -- --- ------- -- - -----<br>---------- -- -- -- ---- ----- -- ------ -- --- ------<br>-------,238222.08500000124,238214.6999999968,237879.382,237884.88500000676,237896.048,238229.368,,2,the
screen,html.Screen,1_3_1_0_1_3,2021-04-19T10:18:18.604Z,,,,,,,,,,,,,,,,48,,,,,,,,,,,,,,282.7370000016235,,response,,,,10,D,,,,,,Space,keypress(Space),,,,silence,,,,-- -- --- United ------- --------- ----------- --------<br>--------- -------- --- ------- -- ------- ---- -- ------<br>-- --- -------- -------- ---------- ---- ---- ---- ------<br>-- --------- -- ---- -- --- -- --- ------- -- - -----<br>---------- -- -- -- ---- ----- -- ------ -- --- ------<br>-------,238519.4449999981,238512.1050000016,238212.702,238222.26500000397,238229.368,238529.356,,3,United
screen,html.Screen,1_3_1_0_1_4,2021-04-19T10:18:18.903Z,,,,,,,,,,,,,,,,48,,,,,,,,,,,,,,282.3639999978768,,response,,,,10,D,,,,,,Space,keypress(Space),,,,silence,,,,"-- -- --- ------ States, --------- ----------- --------<br>--------- -------- --- ------- -- ------- ---- -- ------<br>-- --- -------- -------- ---------- ---- ---- ---- ------<br>-- --------- -- ---- -- --- -- --- ------- -- - -----<br>---------- -- -- -- ---- ----- -- ------ -- --- ------<br>-------",238818.66000000446,238811.71999999788,238512.69,238519.6350000042,238529.356,238829.344,,4,"States,"
screen,html.Screen,1_3_1_0_1_5,2021-04-19T10:18:19.275Z,,,,,,,,,,,,,,,,48,,,,,,,,,,,,,,353.6660000079137,,response,,,,10,D,,,,,,Space,keypress(Space),,,,silence,,,,-- -- --- ------ ------- Colombian ----------- --------<br>--------- -------- --- ------- -- ------- ---- -- ------<br>-- --- -------- -------- ---------- ---- ---- ---- ------<br>-- --------- -- ---- -- --- -- --- ------- -- - -----<br>---------- -- -- -- ---- ----- -- ------ -- --- ------<br>-------,239190.47500001034,239183.01000000793,238812.678,238818.84000000719,238829.344,239195.996,,5,Colombian
screen,html.Screen,1_3_1_0_1_6,2021-04-19T10:18:19.678Z,,,,,,,,,,,,,,,,48,,,,,,,,,,,,,,390.6840000076045,,response,,,,10,D,,,,,,Space,keypress(Space),,,,silence,,,,-- -- --- ------ ------- --------- legislation --------<br>--------- -------- --- ------- -- ------- ---- -- ------<br>-- --- -------- -------- ---------- ---- ---- ---- ------<br>-- --------- -- ---- -- --- -- --- ------- -- - -----<br>---------- -- -- -- ---- ----- -- ------ -- --- ------<br>-------,239594.0899999987,239586.68000000762,239179.33,239190.6400000007,239195.996,239595.98,,6,legislation
screen,html.Screen,1_3_1_0_1_7,2021-04-19T10:18:20.232Z,,,,,,,,,,,,,,,,48,,,,,,,,,,,,,,543.2649999984715,,response,,,,10,D,,,,,,Space,keypress(Space),,,,silence,,,,-- -- --- ------ ------- --------- ----------- requires<br>--------- -------- --- ------- -- ------- ---- -- ------<br>-- --- -------- -------- ---------- ---- ---- ---- ------<br>-- --------- -- ---- -- --- -- --- ------- -- - -----<br>---------- -- -- -- ---- ----- -- ------ -- --- ------<br>-------,240147.5550000032,240139.24499999848,239579.314,239594.2500000092,239595.98,240162.624,,7,requires
screen,html.Screen,1_3_1_0_1_8,2021-04-19T10:18:20.653Z,,,,,,,,,,,,,,,,48,,,,,,,,,,,,,,398.61100000102306,,response,,,,10,D,,,,,,Space,keypress(Space),,,,silence,,,,-- -- --- ------ ------- --------- ----------- --------<br>travelers -------- --- ------- -- ------- ---- -- ------<br>-- --- -------- -------- ---------- ---- ---- ---- ------<br>-- --------- -- ---- -- --- -- --- ------- -- - -----<br>---------- -- -- -- ---- ----- -- ------ -- --- ------<br>-------,240568.80999999703,240561.23500000103,240145.958,240147.72500000254,240162.624,240579.274,,8,travelers
screen,html.Screen,1_3_1_0_1_9,2021-04-19T10:18:21.004Z,,,,,,,,,,,,,,,,48,,,,,,,,,,,,,,332.726000011171,,response,,,,10,D,,,,,,Space,keypress(Space),,,,silence,,,,-- -- --- ------ ------- --------- ----------- --------<br>--------- entering --- ------- -- ------- ---- -- ------<br>-- --- -------- -------- ---------- ---- ---- ---- ------<br>-- --------- -- ---- -- --- -- --- ------- -- - -----<br>---------- -- -- -- ---- ----- -- ------ -- --- ------<br>-------,240919.5949999994,240912.00000001118,240562.608,240568.97000000754,240579.274,240929.26,,9,entering
screen,html.Screen,1_3_1_0_1_10,2021-04-19T10:18:21.379Z,,,,,,,,,,,,,,,,48,,,,,,,,,,,,,,358.440000000759,,response,,,,10,D,,,,,,Space,keypress(Space),,,,silence,,,,-- -- --- ------ ------- --------- ----------- --------<br>--------- -------- the ------- -- ------- ---- -- ------<br>-- --- -------- -------- ---------- ---- ---- ---- ------<br>-- --------- -- ---- -- --- -- --- ------- -- - -----<br>---------- -- -- -- ---- ----- -- ------ -- --- ------<br>-------,241295.060000004,241287.70000000077,240912.594,240919.78999999992,240929.26,241295.912,,10,the
screen,html.Screen,1_3_1_0_1_11,2021-04-19T10:18:21.719Z,,,,,,,,,,,,,,,,48,,,,,,,,,,,,,,331.8080000040354,,response,,,,10,D,,,,,,Space,keypress(Space),,,,silence,,,,-- -- --- ------ ------- --------- ----------- --------<br>--------- -------- --- country -- ------- ---- -- ------<br>-- --- -------- -------- ---------- ---- ---- ---- ------<br>-- --------- -- ---- -- --- -- --- ------- -- - -----<br>---------- -- -- -- ---- ----- -- ------ -- --- ------<br>-------,241635.4399999982,241627.72000000405,241279.246,241295.21500000556,241295.912,241645.898,,11,country
screen,html.Screen,1_3_1_0_1_12,2021-04-19T10:18:22.050Z,,,,,,,,,,,,,,,,48,,,,,,,,,,,,,,313.4870000092196,,response,,,,10,D,,,,,,Space,keypress(Space),,,,silence,,,,-- -- --- ------ ------- --------- ----------- --------<br>--------- -------- --- ------- to ------- ---- -- ------<br>-- --- -------- -------- ---------- ---- ---- ---- ------<br>-- --------- -- ---- -- --- -- --- ------- -- - -----<br>---------- -- -- -- ---- ----- -- ------ -- --- ------<br>-------,241966.03999999934,241959.3850000092,241629.232,241635.6000000087,241645.898,241981.623,,12,to
screen,html.Screen,1_3_1_0_1_13,2021-04-19T10:18:22.392Z,,,,,,,,,,,,,,,,48,,,,,,,,,,,,,,316.92700000680634,,response,,,,10,D,,,,,,Space,keypress(Space),,,,silence,,,,-- -- --- ------ ------- --------- ----------- --------<br>--------- -------- --- ------- -- declare ---- -- ------<br>-- --- -------- -------- ---------- ---- ---- ---- ------<br>-- --------- -- ---- -- --- -- --- ------- -- - -----<br>---------- -- -- -- ---- ----- -- ------ -- --- ------<br>-------,242307.80999999843,242298.5500000068,241964.957,241966.2900000112,241981.623,242314.943,,13,declare
screen,html.Screen,1_3_1_0_1_14,2021-04-19T10:18:22.732Z,,,,,,,,,,,,,,,,48,,,,,,,,,,,,,,325.0520000050019,,response,,,,10,D,,,,,,Space,keypress(Space),,,,silence,,,,-- -- --- ------ ------- --------- ----------- --------<br>--------- -------- --- ------- -- ------- cash -- ------<br>-- --- -------- -------- ---------- ---- ---- ---- ------<br>-- --------- -- ---- -- --- -- --- ------- -- - -----<br>---------- -- -- -- ---- ----- -- ------ -- --- ------<br>-------,242647.62000000337,242639.995000005,242298.277,242307.97500000335,242314.943,242664.929,,14,cash
screen,html.Screen,1_3_1_0_1_15,2021-04-19T10:18:23.069Z,,,,,,,,,,,,,,,,48,,,,,,,,,,,,,,312.5809999969788,,response,,,,10,D,,,,,,Space,keypress(Space),,,,silence,,,,-- -- --- ------ ------- --------- ----------- --------<br>--------- -------- --- ------- -- ------- ---- in ------<br>-- --- -------- -------- ---------- ---- ---- ---- ------<br>-- --------- -- ---- -- --- -- --- ------- -- - -----<br>---------- -- -- -- ---- ----- -- ------ -- --- ------<br>-------,242984.90000001038,242977.50999999698,242648.263,242647.80500000052,242664.929,242998.249,,15,in
screen,html.Screen,1_3_1_0_1_16,2021-04-19T10:18:23.397Z,,,,,,,,,,,,,,,,48,,,,,,,,,,,,,,307.3110000079614,,response,,,,10,D,,,,,,Space,keypress(Space),,,,silence,,,,-- -- --- ------ ------- --------- ----------- --------<br>--------- -------- --- ------- -- ------- ---- -- excess<br>-- --- -------- -------- ---------- ---- ---- ---- ------<br>-- --------- -- ---- -- --- -- --- ------- -- - -----<br>---------- -- -- -- ---- ----- -- ------ -- --- ------<br>-------,243312.61000000814,243305.56000000797,242981.583,242985.11000000872,242998.249,243314.903,,16,excess
screen,html.Screen,1_3_1_0_1_17,2021-04-19T10:18:23.830Z,,,,,,,,,,,,,,,,48,,,,,,,,,,,,,,423.7770000094897,,response,,,,10,D,,,,,,Space,keypress(Space),,,,silence,,,,-- -- --- ------ ------- --------- ----------- --------<br>--------- -------- --- ------- -- ------- ---- -- ------<br>of --- -------- -------- ---------- ---- ---- ---- ------<br>-- --------- -- ---- -- --- -- --- ------- -- - -----<br>---------- -- -- -- ---- ----- -- ------ -- --- ------<br>-------,243746.014999997,243738.68000000948,243298.237,243312.7700000041,243314.903,243748.219,,17,of
screen,html.Screen,1_3_1_0_1_18,2021-04-19T10:18:24.170Z,,,,,,,,,,,,,,,,48,,,,,,,,,,,,,,330.1210000072897,,response,,,,10,D,,,,,,Space,keypress(Space),,,,silence,,,,-- -- --- ------ ------- --------- ----------- --------<br>--------- -------- --- ------- -- ------- ---- -- ------<br>-- ten -------- -------- ---------- ---- ---- ---- ------<br>-- --------- -- ---- -- --- -- --- ------- -- - -----<br>---------- -- -- -- ---- ----- -- ------ -- --- ------<br>-------,244085.55000000342,244078.3400000073,243731.553,243746.1800000019,243748.219,244098.205,,18,ten
screen,html.Screen,1_3_1_0_1_19,2021-04-19T10:18:24.512Z,,,,,,,,,,,,,,,,48,,,,,,,,,,,,,,322.57500000039,,response,,,,10,D,,,,,,Space,keypress(Space),,,,silence,,,,-- -- --- ------ ------- --------- ----------- --------<br>--------- -------- --- ------- -- ------- ---- -- ------<br>-- --- thousand -------- ---------- ---- ---- ---- ------<br>-- --------- -- ---- -- --- -- --- ------- -- - -----<br>---------- -- -- -- ---- ----- -- ------ -- --- ------<br>-------,244428.1600000104,244420.78000000038,244081.539,244085.70999999938,244098.205,244431.525,,19,thousand
screen,html.Screen,1_3_1_0_1_20,2021-04-19T10:18:24.900Z,,,,,,,,,,,,,,,,48,,,,,,,,,,,,,,376.96500001035747,,response,,,,10,D,,,,,,Space,keypress(Space),,,,silence,,,,-- -- --- ------ ------- --------- ----------- --------<br>--------- -------- --- ------- -- ------- ---- -- ------<br>-- --- -------- dollars. ---------- ---- ---- ---- ------<br>-- --------- -- ---- -- --- -- --- ------- -- - -----<br>---------- -- -- -- ---- ----- -- ------ -- --- ------<br>-------,244815.8800000092,244808.49000001035,244414.859,244428.32500000077,244431.525,244831.509,,20,dollars.
screen,html.Screen,1_3_1_0_1_21,2021-04-19T10:18:25.482Z,,,,,,,,,,,,,,,,48,,,,,,,,,,,,,,558.1360000029381,,response,,,,10,D,,,,,,Space,keypress(Space),,,,silence,,,,-- -- --- ------ ------- --------- ----------- --------<br>--------- -------- --- ------- -- ------- ---- -- ------<br>-- --- -------- -------- Concealing ---- ---- ---- ------<br>-- --------- -- ---- -- --- -- --- ------- -- - -----<br>---------- -- -- -- ---- ----- -- ------ -- --- ------<br>-------,245398.0700000102,245389.64500000293,244814.843,244816.08499999857,244831.509,245414.819,,21,Concealing
screen,html.Screen,1_3_1_0_1_22,2021-04-19T10:18:25.823Z,,,,,,,,,,,,,,,,48,,,,,,,,,,,,,,316.56600000642356,,response,,,,10,D,,,,,,Space,keypress(Space),,,,silence,,,,-- -- --- ------ ------- --------- ----------- --------<br>--------- -------- --- ------- -- ------- ---- -- ------<br>-- --- -------- -------- ---------- more ---- ---- ------<br>-- --------- -- ---- -- --- -- --- ------- -- - -----<br>---------- -- -- -- ---- ----- -- ------ -- --- ------<br>-------,245739.16500000632,245731.3850000064,245398.153,245398.28000000853,245414.819,245748.139,,22,more
screen,html.Screen,1_3_1_0_1_23,2021-04-19T10:18:26.071Z,,,,,,,,,,,,,,,,48,,,,,,,,,,,,,,230.56100000694278,,response,,,,10,D,,,,,,Space,keypress(Space),,,,silence,,,,-- -- --- ------ ------- --------- ----------- --------<br>--------- -------- --- ------- -- ------- ---- -- ------<br>-- --- -------- -------- ---------- ---- than ---- ------<br>-- --------- -- ---- -- --- -- --- ------- -- - -----<br>---------- -- -- -- ---- ----- -- ------ -- --- ------<br>-------,245986.87500000233,245978.70000000694,245731.473,245739.34500000905,245748.139,245998.129,,23,than
screen,html.Screen,1_3_1_0_1_24,2021-04-19T10:18:26.533Z,,,,,,,,,,,,,,,,48,,,,,,,,,,,,,,443.61100000931765,,response,,,,10,D,,,,,,Space,keypress(Space),,,,silence,,,,-- -- --- ------ ------- --------- ----------- --------<br>--------- -------- --- ------- -- ------- ---- -- ------<br>-- --- -------- -------- ---------- ---- ---- that ------<br>-- --------- -- ---- -- --- -- --- ------- -- - -----<br>---------- -- -- -- ---- ----- -- ------ -- --- ------<br>-------,246448.9900000044,246441.7400000093,245981.463,245987.1700000076,245998.129,246464.777,,24,that
screen,html.Screen,1_3_1_0_1_25,2021-04-19T10:18:26.932Z,,,,,,,,,,,,,,,,48,,,,,,,,,,,,,,375.7029999989318,,response,,,,10,D,,,,,,Space,keypress(Space),,,,silence,,,,-- -- --- ------ ------- --------- ----------- --------<br>--------- -------- --- ------- -- ------- ---- -- ------<br>-- --- -------- -------- ---------- ---- ---- ---- amount<br>-- --------- -- ---- -- --- -- --- ------- -- - -----<br>---------- -- -- -- ---- ----- -- ------ -- --- ------<br>-------,246847.91500000574,246840.47999999893,246448.111,246449.19500000833,246464.777,246864.761,,25,amount
screen,html.Screen,1_3_1_0_1_26,2021-04-19T10:18:27.281Z,,,,,,,,,,,,,,,,48,,,,,,,,,,,,,,324.26900000864407,,response,,,,10,D,,,,,,Space,keypress(Space),,,,silence,,,,-- -- --- ------ ------- --------- ----------- --------<br>--------- -------- --- ------- -- ------- ---- -- ------<br>-- --- -------- -------- ---------- ---- ---- ---- ------<br>to --------- -- ---- -- --- -- --- ------- -- - -----<br>---------- -- -- -- ---- ----- -- ------ -- --- ------<br>-------,247196.9250000111,247189.03000000864,246848.095,246848.0899999995,246864.761,247198.081,,26,to
screen,html.Screen,1_3_1_0_1_27,2021-04-19T10:18:27.617Z,,,,,,,,,,,,,,,,48,,,,,,,,,,,,,,327.394000002183,,response,,,,10,D,,,,,,Space,keypress(Space),,,,silence,,,,-- -- --- ------ ------- --------- ----------- --------<br>--------- -------- --- ------- -- ------- ---- -- ------<br>-- --- -------- -------- ---------- ---- ---- ---- ------<br>-- transport -- ---- -- --- -- --- ------- -- - -----<br>---------- -- -- -- ---- ----- -- ------ -- --- ------<br>-------,247533.41000000364,247525.4750000022,247181.415,247197.10499999928,247198.081,247548.067,,27,transport
screen,html.Screen,1_3_1_0_1_28,2021-04-19T10:18:28.048Z,,,,,,,,,,,,,,,,48,,,,,,,,,,,,,,407.7280000016617,,response,,,,10,D,,,,,,Space,keypress(Space),,,,silence,,,,-- -- --- ------ ------- --------- ----------- --------<br>--------- -------- --- ------- -- ------- ---- -- ------<br>-- --- -------- -------- ---------- ---- ---- ---- ------<br>-- --------- it ---- -- --- -- --- ------- -- - -----<br>---------- -- -- -- ---- ----- -- ------ -- --- ------<br>-------,247963.70500000194,247955.79500000167,247531.401,247533.5950000008,247548.067,247964.717,,28,it
screen,html.Screen,1_3_1_0_1_29,2021-04-19T10:18:28.377Z,,,,,,,,,,,,,,,,48,,,,,,,,,,,,,,321.588000001444,,response,,,,10,D,,,,,,Space,keypress(Space),,,,silence,,,,-- -- --- ------ ------- --------- ----------- --------<br>--------- -------- --- ------- -- ------- ---- -- ------<br>-- --- -------- -------- ---------- ---- ---- ---- ------<br>-- --------- -- into -- --- -- --- ------- -- - -----<br>---------- -- -- -- ---- ----- -- ------ -- --- ------<br>-------,248293.26500000025,248286.30500000145,247948.051,247963.96000000823,247964.717,248298.037,,29,into
screen,html.Screen,1_3_1_0_1_30,2021-04-19T10:18:28.641Z,,,,,,,,,,,,,,,,48,,,,,,,,,,,,,,251.39800000807736,,response,,,,10,D,,,,,,Space,keypress(Space),,,,silence,,,,-- -- --- ------ ------- --------- ----------- --------<br>--------- -------- --- ------- -- ------- ---- -- ------<br>-- --- -------- -------- ---------- ---- ---- ---- ------<br>-- --------- -- ---- or --- -- --- ------- -- - -----<br>---------- -- -- -- ---- ----- -- ------ -- --- ------<br>-------,248556.84000000474,248549.4350000081,248281.371,248293.43000000517,248298.037,248564.693,,30,or
screen,html.Screen,1_3_1_0_1_31,2021-04-19T10:18:29.033Z,,,,,,,,,,,,,,,,48,,,,,,,,,,,,,,377.03700000591925,,response,,,,10,D,,,,,,Space,keypress(Space),,,,silence,,,,-- -- --- ------ ------- --------- ----------- --------<br>--------- -------- --- ------- -- ------- ---- -- ------<br>-- --- -------- -------- ---------- ---- ---- ---- ------<br>-- --------- -- ---- -- out -- --- ------- -- - -----<br>---------- -- -- -- ---- ----- -- ------ -- --- ------<br>-------,248949.0550000046,248941.73000000592,248548.027,248557.02000000747,248564.693,248964.677,,31,out
screen,html.Screen,1_3_1_0_1_32,2021-04-19T10:18:29.376Z,,,,,,,,,,,,,,,,48,,,,,,,,,,,,,,319.68300000511226,,response,,,,10,D,,,,,,Space,keypress(Space),,,,silence,,,,-- -- --- ------ ------- --------- ----------- --------<br>--------- -------- --- ------- -- ------- ---- -- ------<br>-- --- -------- -------- ---------- ---- ---- ---- ------<br>-- --------- -- ---- -- --- of --- ------- -- - -----<br>---------- -- -- -- ---- ----- -- ------ -- --- ------<br>-------,249292.10500000045,249284.3600000051,248948.011,248949.2450000107,248964.677,249297.997,,32,of
screen,html.Screen,1_3_1_0_1_33,2021-04-19T10:18:29.674Z,,,,,,,,,,,,,,,,48,,,,,,,,,,,,,,285.3380000029865,,response,,,,10,D,,,,,,Space,keypress(Space),,,,silence,,,,-- -- --- ------ ------- --------- ----------- --------<br>--------- -------- --- ------- -- ------- ---- -- ------<br>-- --- -------- -------- ---------- ---- ---- ---- ------<br>-- --------- -- ---- -- --- -- the ------- -- - -----<br>---------- -- -- -- ---- ----- -- ------ -- --- ------<br>-------,249590.51999999792,249583.335000003,249281.331,249292.2749999998,249297.997,249597.985,,33,the
screen,html.Screen,1_3_1_0_1_34,2021-04-19T10:18:30.008Z,,,,,,,,,,,,,,,,48,,,,,,,,,,,,,,318.6350000036182,,response,,,,10,D,,,,,,Space,keypress(Space),,,,silence,,,,-- -- --- ------ ------- --------- ----------- --------<br>--------- -------- --- ------- -- ------- ---- -- ------<br>-- --- -------- -------- ---------- ---- ---- ---- ------<br>-- --------- -- ---- -- --- -- --- country -- - -----<br>---------- -- -- -- ---- ----- -- ------ -- --- ------<br>-------,249924.36499999894,249916.6200000036,249581.319,249590.68000000843,249597.985,249931.305,,34,country
screen,html.Screen,1_3_1_0_1_35,2021-04-19T10:18:30.368Z,,,,,,,,,,,,,,,,48,,,,,,,,,,,,,,345.73500000085915,,response,,,,10,D,,,,,,Space,keypress(Space),,,,silence,,,,-- -- --- ------ ------- --------- ----------- --------<br>--------- -------- --- ------- -- ------- ---- -- ------<br>-- --- -------- -------- ---------- ---- ---- ---- ------<br>-- --------- -- ---- -- --- -- --- ------- is - -----<br>---------- -- -- -- ---- ----- -- ------ -- --- ------<br>-------,250284.4150000019,250277.04000000085,249914.639,249924.55000001064,249931.305,250297.957,,35,is
screen,html.Screen,1_3_1_0_1_36,2021-04-19T10:18:30.734Z,,,,,,,,,,,,,,,,48,,,,,,,,,,,,,,344.3680000079912,,response,,,,10,D,,,,,,Space,keypress(Space),,,,silence,,,,-- -- --- ------ ------- --------- ----------- --------<br>--------- -------- --- ------- -- ------- ---- -- ------<br>-- --- -------- -------- ---------- ---- ---- ---- ------<br>-- --------- -- ---- -- --- -- --- ------- -- a -----<br>---------- -- -- -- ---- ----- -- ------ -- --- ------<br>-------,250650.30999999726,250642.325000008,250281.291,250284.6300000092,250297.957,250664.609,,36,a
screen,html.Screen,1_3_1_0_1_37,2021-04-19T10:18:31.114Z,,,,,,,,,,,,,,,,48,,,,,,,,,,,,,,358.0710000091349,,response,,,,10,D,,,,,,Space,keypress(Space),,,,silence,,,,-- -- --- ------ ------- --------- ----------- --------<br>--------- -------- --- ------- -- ------- ---- -- ------<br>-- --- -------- -------- ---------- ---- ---- ---- ------<br>-- --------- -- ---- -- --- -- --- ------- -- - crime<br>---------- -- -- -- ---- ----- -- ------ -- --- ------<br>-------,251030.16999999818,251022.68000000913,250647.943,250650.53500000795,250664.609,251031.261,,37,crime
screen,html.Screen,1_3_1_0_1_38,2021-04-19T10:18:31.488Z,,,,,,,,,,,,,,,,48,,,,,,,,,,,,,,365.21900001034373,,response,,,,10,D,,,,,,Space,keypress(Space),,,,silence,,,,-- -- --- ------ ------- --------- ----------- --------<br>--------- -------- --- ------- -- ------- ---- -- ------<br>-- --- -------- -------- ---------- ---- ---- ---- ------<br>-- --------- -- ---- -- --- -- --- ------- -- - -----<br>punishable -- -- -- ---- ----- -- ------ -- --- ------<br>-------,251403.81499999785,251396.48000001034,251014.595,251030.3649999987,251031.261,251414.579,,38,punishable
screen,html.Screen,1_3_1_0_1_39,2021-04-19T10:18:31.829Z,,,,,,,,,,,,,,,,48,,,,,,,,,,,,,,322.9210000029125,,response,,,,10,D,,,,,,Space,keypress(Space),,,,silence,,,,-- -- --- ------ ------- --------- ----------- --------<br>--------- -------- --- ------- -- ------- ---- -- ------<br>-- --- -------- -------- ---------- ---- ---- ---- ------<br>-- --------- -- ---- -- --- -- --- ------- -- - -----<br>---------- by -- -- ---- ----- -- ------ -- --- ------<br>-------,251745.15000000247,251737.5000000029,251397.913,251403.98000000278,251414.579,251747.899,,39,by
screen,html.Screen,1_3_1_0_1_40,2021-04-19T10:18:32.110Z,,,,,,,,,,,,,,,,48,,,,,,,,,,,,,,270.3209999981045,,response,,,,10,D,,,,,,Space,keypress(Space),,,,silence,,,,-- -- --- ------ ------- --------- ----------- --------<br>--------- -------- --- ------- -- ------- ---- -- ------<br>-- --- -------- -------- ---------- ---- ---- ---- ------<br>-- --------- -- ---- -- --- -- --- ------- -- - -----<br>---------- -- up -- ---- ----- -- ------ -- --- ------<br>-------,252025.67000000272,252018.2199999981,251731.233,251745.52500000573,251747.899,252036.939,,40,up
screen,html.Screen,1_3_1_0_1_41,2021-04-19T10:18:32.388Z,,,,,,,,,,,,,,,,48,,,,,,,,,,,,,,260.30099999986123,,response,,,,10,D,,,,,,Space,keypress(Space),,,,silence,,,,-- -- --- ------ ------- --------- ----------- --------<br>--------- -------- --- ------- -- ------- ---- -- ------<br>-- --- -------- -------- ---------- ---- ---- ---- ------<br>-- --------- -- ---- -- --- -- --- ------- -- - -----<br>---------- -- -- to ---- ----- -- ------ -- --- ------<br>-------,252304.58999999973,252297.23999999987,252020.273,252025.89000000444,252036.939,252320.261,,41,to
