sender,sender_type,sender_id,timestamp,meta,,Blues,Classical,Country,Dance,Electronic,Folk,Gospel,Hip-Hop,Jazz,Latin,Musical/Film,New-age,Pop,Provo_ID,R&B,Rap,Reggae,Religious,Rock,Soul,Swing,Traditional,age,artist_name,correct,correctResponse,distraction,duration,education,ended_on,familiarity,gender,headphone_check_performance,item,list,music_frequency,offensiveness,pleasantness,position_correct,preference,response,response_action,snippet_file,song_name,song_rating,sound,stimulus_1,stimulus_2,stimulus_3,text,time_commit,time_end,time_render,time_run,time_show,time_switch,url,word,word_ID
Introduction,html.Screen,0_0,2021-04-20T10:34:05.588Z,"{""labjs_version"":""20.2.2"",""labjs_build"":{""flavor"":""production"",""commit"":""a25486e0c714a0ae2ce03ff94b7bb6896854dcfa""},""location"":""https://run.pavlovia.org/mvasilev/music_e/"",""userAgent"":""Mozilla/5.0 (Macintosh; Intel Mac OS X 10_13_6) AppleWebKit/537.36 (KHTML, like Gecko) Chrome/89.0.4389.128 Safari/537.36"",""platform"":""MacIntel"",""language"":""en-US"",""locale"":""en-GB"",""timeZone"":""Europe/London"",""timezoneOffset"":-60,""screen_width"":1920,""screen_height"":1080,""scroll_width"":1920,""scroll_height"":952,""window_innerWidth"":1920,""window_innerHeight"":1000,""devicePixelRatio"":1}",,,,,,,,,,,,,,,,,,,,,,,,,,,,,8196.910000000735,,response,,,,,,,,,,,continue,click button,,,,,,,,,30255.60500001302,30251.915000000736,21938.343,21944.589999999152,22055.005,30271.781,{},,
Volume calibration,html.Screen,0_1,2021-04-20T10:35:47.745Z,,,,,,,,,,,,,,,,,,,,,,,,,,,,,,102120.1490000125,,response,,,,,,,,,,,continue,click button,,,,,,,,,132411.75500000827,132391.9300000125,30238.449,30256.15000000107,30271.781,132422.057,,,
Task instructions,html.Screen,0_2,2021-04-20T10:36:02.240Z,,,,,,,,,,,,,,,,,,,,,,,,,,,,,,14482.49799998643,,response,,,,,,,,,,,continue,click button,,,,,,,,,146906.64500001003,146904.55499998643,132405.391,132412.01500000898,132422.057,146921.903,,,
Sounds,html.Screen,0_3_0_0,2021-04-20T10:36:06.522Z,,,,,,,,,,,,,,,,,,,,,,,,,,,,,,4266.496000000014,,timeout,,,,,,,,,3,,,,,,,,O,I,S,,151189.25999998464,151155.067,146905.237,146907.05499998876,146921.903,151188.399,,,
Judgement,html.Screen,0_3_0_1,2021-04-20T10:36:08.191Z,,,,,,,,,,,,,,,,,,,,,,,,,,,true,3,,1667.541000008554,,response,,,,,,,,,3,,3,click #choice-3,,,,,O,I,S,,152858.344999986,152855.94000000856,151155.067,151189.4800000009,151188.399,152872.078,,,
Trial,flow.Sequence,0_3_0,2021-04-20T10:36:08.192Z,,,,,,,,,,,,,,,,,,,,,,,,,,,,,,5934.037000008568,,completion,,,,,,,,,3,,,,,,,,O,I,S,,152859.05500000808,152855.94000000856,146905.237,146906.91499999957,146921.903,152872.078,,,
Sounds,html.Screen,0_3_1_0,2021-04-20T10:36:12.439Z,,,,,,,,,,,,,,,,,,,,,,,,,,,,,,4249.829999999987,,timeout,,,,,,,,,2,,,,,,,,I,S,O,,157106.5499999968,157105.242,152855.412,152859.39500000677,152872.078,157121.908,,,
Judgement,html.Screen,0_3_1_1,2021-04-20T10:36:13.085Z,,,,,,,,,,,,,,,,,,,,,,,,,,,true,2,,627.902000008442,,response,,,,,,,,,2,,2,click #choice-2,,,,,I,S,O,,157751.9650000031,157749.81000000844,157105.242,157106.73999998835,157121.908,157755.216,,,
Trial,flow.Sequence,0_3_1,2021-04-20T10:36:13.085Z,,,,,,,,,,,,,,,,,,,,,,,,,,,,,,4877.732000008429,,completion,,,,,,,,,2,,,,,,,,I,S,O,,157752.2450000106,157749.81000000844,152855.412,152859.32499999763,152872.078,157755.216,,,
Sounds,html.Screen,0_3_2_0,2021-04-20T10:36:17.323Z,,,,,,,,,,,,,,,,,,,,,,,,,,,,,,4249.830000000016,,timeout,,,,,,,,,2,,,,,,,,O,S,I,,161990.0299999863,161988.38,157738.55,157752.5200000091,157755.216,162005.046,,,
Judgement,html.Screen,0_3_2_1,2021-04-20T10:36:17.900Z,,,,,,,,,,,,,,,,,,,,,,,,,,,true,2,,559.9139999887848,,response,,,,,,,,,2,,2,click #choice-2,,,,,O,S,I,,162567.01999998768,162564.9599999888,161988.38,161990.23500000476,162005.046,162571.69,,,
Trial,flow.Sequence,0_3_2,2021-04-20T10:36:17.900Z,,,,,,,,,,,,,,,,,,,,,,,,,,,,,,4809.743999988801,,completion,,,,,,,,,2,,,,,,,,O,S,I,,162567.3100000131,162564.9599999888,157738.55,157752.39999999758,157755.216,162571.69,,,
Sounds,html.Screen,0_3_3_0,2021-04-20T10:36:22.140Z,,,,,,,,,,,,,,,,,,,,,,,,,,,,,,4249.829999999987,,timeout,,,,,,,,,1,,,,,,,,S,O,I,,166806.99000001187,166804.854,162555.024,162567.50499998452,162571.69,166821.52,,,
Judgement,html.Screen,0_3_3_1,2021-04-20T10:36:22.625Z,,,,,,,,,,,,,,,,,,,,,,,,,,,true,1,,468.4349999856495,,response,,,,,,,,,1,,1,click #choice-1,,,,,S,O,I,,167292.0499999891,167289.95499998564,166804.854,166807.28000000818,166821.52,167321.904,,,
Trial,flow.Sequence,0_3_3,2021-04-20T10:36:22.625Z,,,,,,,,,,,,,,,,,,,,,,,,,,,,,,4718.264999985637,,completion,,,,,,,,,1,,,,,,,,S,O,I,,167292.294999992,167289.95499998564,162555.024,162567.43500000448,162571.69,167321.904,,,
Sounds,html.Screen,0_3_4_0,2021-04-20T10:36:26.890Z,,,,,,,,,,,,,,,,,,,,,,,,,,,,,,4249.829999999987,,timeout,,,,,,,,,3,,,,,,,,I,O,S,,171557.0899999875,171555.068,167305.238,167292.46999998577,167321.904,171571.734,,,
Judgement,html.Screen,0_3_4_1,2021-04-20T10:36:27.507Z,,,,,,,,,,,,,,,,,,,,,,,,,,,true,3,,600.6559999924502,,response,,,,,,,,,3,,3,click #choice-3,,,,,I,O,S,,172174.4699999981,172172.38999999245,171555.068,171557.25000001257,171571.734,172188.376,,,
Trial,flow.Sequence,0_3_4,2021-04-20T10:36:27.507Z,,,,,,,,,,,,,,,,,,,,,,,,,,,,,,4850.485999992437,,completion,,,,,,,,,3,,,,,,,,I,O,S,,172174.7350000078,172172.38999999245,167305.238,167292.4200000125,167321.904,172188.376,,,
Sounds,html.Screen,0_3_5_0,2021-04-20T10:36:31.755Z,,,,,,,,,,,,,,,,,,,,,,,,,,,,,,4249.830000000016,,timeout,,,,,,,,,1,,,,,,,,S,I,O,,176422.27000001003,176421.54,172171.71,172174.90499999258,172188.376,176438.206,,,
Judgement,html.Screen,0_3_5_1,2021-04-20T10:36:32.862Z,,,,,,,,,,,,,,,,,,,,,,,,,,,true,1,,1089.243999994127,,response,,,,,,,,,1,,1,click #choice-1,,,,,S,I,O,,177529.515000002,177527.44999999413,176421.54,176422.4150000082,176438.206,177538.717,,,
Trial,flow.Sequence,0_3_5,2021-04-20T10:36:32.862Z,,,,,,,,,,,,,,,,,,,,,,,,,,,,,,5339.073999994143,,completion,,,,,,,,,1,,,,,,,,S,I,O,,177529.74999998696,177527.44999999413,172171.71,172174.8549999902,172188.376,177538.717,,,
Task,flow.Loop,0_3,2021-04-20T10:36:32.868Z,,,,,,,,,,,,,,,,,,,,,,,,,,,,,,30605.54699999414,,completion,,,1,,,,,,,,,,,,,,,,,,177535.6599999941,177527.44999999413,146905.237,146906.84000001056,146921.903,177538.717,,,
Trap,html.Screen,0_4,2021-04-20T10:36:32.870Z,,,,,,,,,,,,,,,,,,,,,,,,,,,,,,NaN,,skipped,,,,,,,,,,,,,,,,,,,,,177537.3499999987,177527.44999999413,,177537.16999999597,,177538.717,,,
Thanks,html.Screen,0_5,2021-04-20T10:36:38.870Z,,,,,,,,,,,,,,,,,,,,,,,,,,,,,,5996.45299998828,,response,,,,,,,,,,,continue,click button,,,,,,,,,183537.30999998515,183535.16999998828,177522.051,177537.50000000582,177538.717,187038.337,,,
Headphone screening,flow.Sequence,0,2021-04-20T10:36:38.870Z,,,,,,,,,,,,,,,,,,,,,,,,,,,,,,161480.16499998828,,completion,,,,,,,,,,,,,,,,,,,,,183537.55999999703,183535.16999998828,21938.343,21944.469999987632,22055.005,187038.337,,,
Instructions,html.Page,1_0,2021-04-20T10:36:45.792Z,,,,,,,,,,,,,,,,,,,,,,,,,,,,,,3420.562999997812,,form submission,,,,,,,,,,,,,,,,,,,,,190459.34999999008,190458.8999999978,186938.341,186943.30499999342,187038.337,190455.298,,,
Holding screen,html.Screen,1_1_0_0,2021-04-20T10:36:55.773Z,,,,,,,,,,,,,,,,,,,,,,,,,,,,,,10016.695999999996,,timeout,,,,,,,,,,,,,,,,,,,,,200440.31999999424,200438.662,190438.632,190459.62000000873,190455.298,200471.994,,,
screen,html.Screen,1_1_0_1_0,2021-04-20T10:36:56.746Z,,,,,,,,,,,,,,,,53,,,,,,,,,,,,,,938.3510000111419,,response,,,,99,,,,,,,Space,keypress(Space),,,,,,,,When -- ----- -- ------ - ------- --- ----------<br>------------- ------ ------ ---- ---- ------- ----- -- ----<br>-------- ------- -- ---------- --- - --- ----- ----- ----<br>---- --- --- ----- --- ---- ---- ------- ----- ---- -------<br>--- --- -- ----- -- --- ---- -- --- ---- -- ------ ------<br>--- ----- -- ----,201414.09499998554,201410.34500001115,200438.662,200440.55500000832,200471.994,201421.956,,0,When
screen,html.Screen,1_1_0_1_1,2021-04-20T10:36:57.228Z,,,,,,,,,,,,,,,,53,,,,,,,,,,,,,,472.0490000091959,,response,,,,99,,,,,,,Space,keypress(Space),,,,,,,,---- it ----- -- ------ - ------- --- ----------<br>------------- ------ ------ ---- ---- ------- ----- -- ----<br>-------- ------- -- ---------- --- - --- ----- ----- ----<br>---- --- --- ----- --- ---- ---- ------- ----- ---- -------<br>--- --- -- ----- -- --- ---- -- --- ---- -- ------ ------<br>--- ----- -- ----,201895.8799999964,201894.0050000092,201405.29,201414.27499998827,201421.956,201905.27,,1,it
screen,html.Screen,1_1_0_1_2,2021-04-20T10:36:57.611Z,,,,,,,,,,,,,,,,53,,,,,,,,,,,,,,371.31499998507206,,response,,,,99,,,,,,,Space,keypress(Space),,,,,,,,---- -- comes -- ------ - ------- --- ----------<br>------------- ------ ------ ---- ---- ------- ----- -- ----<br>-------- ------- -- ---------- --- - --- ----- ----- ----<br>---- --- --- ----- --- ---- ---- ------- ----- ---- -------<br>--- --- -- ----- -- --- ---- -- --- ---- -- ------ ------<br>--- ----- -- ----,202278.61000000848,202276.58499998506,201888.604,201896.0800000059,201905.27,202288.588,,2,comes
screen,html.Screen,1_1_0_1_3,2021-04-20T10:36:58.027Z,,,,,,,,,,,,,,,,53,,,,,,,,,,,,,,404.31199999456294,,response,,,,99,,,,,,,Space,keypress(Space),,,,,,,,---- -- ----- to ------ - ------- --- ----------<br>------------- ------ ------ ---- ---- ------- ----- -- ----<br>-------- ------- -- ---------- --- - --- ----- ----- ----<br>---- --- --- ----- --- ---- ---- ------- ----- ---- -------<br>--- --- -- ----- -- --- ---- -- --- ---- -- ------ ------<br>--- ----- -- ----,202694.95999999344,202692.89999999455,202271.922,202278.7900000112,202288.588,202705.238,,3,to
screen,html.Screen,1_1_0_1_4,2021-04-20T10:36:58.455Z,,,,,,,,,,,,,,,,53,,,,,,,,,,,,,,415.1120000119554,,response,,,,99,,,,,,,Space,keypress(Space),,,,,,,,---- -- ----- -- having - ------- --- ----------<br>------------- ------ ------ ---- ---- ------- ----- -- ----<br>-------- ------- -- ---------- --- - --- ----- ----- ----<br>---- --- --- ----- --- ---- ---- ------- ----- ---- -------<br>--- --- -- ----- -- --- ---- -- --- ---- -- ------ ------<br>--- ----- -- ----,203122.44499998633,203120.35000001197,202688.572,202695.1650000119,202705.238,203138.554,,4,having
screen,html.Screen,1_1_0_1_5,2021-04-20T10:36:58.882Z,,,,,,,,,,,,,,,,53,,,,,,,,,,,,,,409.41100000520237,,response,,,,99,,,,,,,Space,keypress(Space),,,,,,,,---- -- ----- -- ------ a ------- --- ----------<br>------------- ------ ------ ---- ---- ------- ----- -- ----<br>-------- ------- -- ---------- --- - --- ----- ----- ----<br>---- --- --- ----- --- ---- ---- ------- ----- ---- -------<br>--- --- -- ----- -- --- ---- -- --- ---- -- ------ ------<br>--- ----- -- ----,203549.91500001051,203547.9650000052,203121.888,203123.42499999795,203138.554,203555.204,,5,a
screen,html.Screen,1_1_0_1_6,2021-04-20T10:36:59.288Z,,,,,,,,,,,,,,,,53,,,,,,,,,,,,,,397.76100000404404,,response,,,,99,,,,,,,Space,keypress(Space),,,,,,,,---- -- ----- -- ------ - lasting --- ----------<br>------------- ------ ------ ---- ---- ------- ----- -- ----<br>-------- ------- -- ---------- --- - --- ----- ----- ----<br>---- --- --- ----- --- ---- ---- ------- ----- ---- -------<br>--- --- -- ----- -- --- ---- -- --- ---- -- ------ ------<br>--- ----- -- ----,203955.19000000786,203952.96500000404,203538.538,203550.07999998634,203555.204,203971.854,,6,lasting
screen,html.Screen,1_1_0_1_7,2021-04-20T10:36:59.625Z,,,,,,,,,,,,,,,,53,,,,,,,,,,,,,,318.56600000482285,,response,,,,99,,,,,,,Space,keypress(Space),,,,,,,,---- -- ----- -- ------ - ------- and ----------<br>------------- ------ ------ ---- ---- ------- ----- -- ----<br>-------- ------- -- ---------- --- - --- ----- ----- ----<br>---- --- --- ----- --- ---- ---- ------- ----- ---- -------<br>--- --- -- ----- -- --- ---- -- --- ---- -- ------ ------<br>--- ----- -- ----,204292.28500000318,204290.42000000481,203955.188,203955.33999998588,203971.854,204305.174,,7,and
screen,html.Screen,1_1_0_1_8,2021-04-20T10:37:00.064Z,,,,,,,,,,,,,,,,53,,,,,,,,,,,,,,424.0359999904176,,response,,,,99,,,,,,,Space,keypress(Space),,,,,,,,---- -- ----- -- ------ - ------- --- fulfilling<br>------------- ------ ------ ---- ---- ------- ----- -- ----<br>-------- ------- -- ---------- --- - --- ----- ----- ----<br>---- --- --- ----- --- ---- ---- ------- ----- ---- -------<br>--- --- -- ----- -- --- ---- -- --- ---- -- ------ ------<br>--- ----- -- ----,204731.33499998949,204729.20999999042,204288.508,204292.43000000133,204305.174,204738.49,,8,fulfilling
screen,html.Screen,1_1_0_1_9,2021-04-20T10:37:00.536Z,,,,,,,,,,,,,,,,53,,,,,,,,,,,,,,463.0950000025332,,response,,,,99,,,,,,,Space,keypress(Space),,,,,,,,"---- -- ----- -- ------ - ------- --- ----------<br>relationship, ------ ------ ---- ---- ------- ----- -- ----<br>-------- ------- -- ---------- --- - --- ----- ----- ----<br>---- --- --- ----- --- ---- ---- ------- ----- ---- -------<br>--- --- -- ----- -- --- ---- -- --- ---- -- ------ ------<br>--- ----- -- ----",205203.5099999921,205201.58500000252,204721.824,204731.49499998544,204738.49,205205.138,,9,"relationship,"
screen,html.Screen,1_1_0_1_10,2021-04-20T10:37:02.291Z,,,,,,,,,,,,,,,,53,,,,,,,,,,,,,,1751.5420000029553,,response,,,,99,,,,,,,Space,keypress(Space),,,,,,,,---- -- ----- -- ------ - ------- --- ----------<br>------------- common ------ ---- ---- ------- ----- -- ----<br>-------- ------- -- ---------- --- - --- ----- ----- ----<br>---- --- --- ----- --- ---- ---- ------- ----- ---- -------<br>--- --- -- ----- -- --- ---- -- --- ---- -- ------ ------<br>--- ----- -- ----,206958.6249999993,206956.68000000296,205188.472,205203.70499999262,205205.138,206971.734,,10,common
screen,html.Screen,1_1_0_1_11,2021-04-20T10:37:02.617Z,,,,,,,,,,,,,,,,53,,,,,,,,,,,,,,311.23600000020815,,response,,,,99,,,,,,,Space,keypress(Space),,,,,,,,---- -- ----- -- ------ - ------- --- ----------<br>------------- ------ wisdom ---- ---- ------- ----- -- ----<br>-------- ------- -- ---------- --- - --- ----- ----- ----<br>---- --- --- ----- --- ---- ---- ------- ----- ---- -------<br>--- --- -- ----- -- --- ---- -- --- ---- -- ------ ------<br>--- ----- -- ----,207284.89999999874,207282.9700000002,206955.068,206958.89499998884,206971.734,207288.388,,11,wisdom
screen,html.Screen,1_1_0_1_12,2021-04-20T10:37:02.977Z,,,,,,,,,,,,,,,,53,,,,,,,,,,,,,,354.52199999502045,,response,,,,99,,,,,,,Space,keypress(Space),,,,,,,,---- -- ----- -- ------ - ------- --- ----------<br>------------- ------ ------ says ---- ------- ----- -- ----<br>-------- ------- -- ---------- --- - --- ----- ----- ----<br>---- --- --- ----- --- ---- ---- ------- ----- ---- -------<br>--- --- -- ----- -- --- ---- -- --- ---- -- ------ ------<br>--- ----- -- ----,207644.82499999576,207642.90999999503,207271.722,207285.15000001062,207288.388,207655.04,,12,says
screen,html.Screen,1_1_0_1_13,2021-04-20T10:37:03.315Z,,,,,,,,,,,,,,,,53,,,,,,,,,,,,,,325.38999999596854,,response,,,,99,,,,,,,Space,keypress(Space),,,,,,,,---- -- ----- -- ------ - ------- --- ----------<br>------------- ------ ------ ---- that ------- ----- -- ----<br>-------- ------- -- ---------- --- - --- ----- ----- ----<br>---- --- --- ----- --- ---- ---- ------- ----- ---- -------<br>--- --- -- ----- -- --- ---- -- --- ---- -- ------ ------<br>--- ----- -- ----,207982.41500000586,207980.42999999598,207638.374,207644.9900000007,207655.04,207988.36,,13,that
screen,html.Screen,1_1_0_1_14,2021-04-20T10:37:03.641Z,,,,,,,,,,,,,,,,53,,,,,,,,,,,,,,318.22999999288004,,response,,,,99,,,,,,,Space,keypress(Space),,,,,,,,---- -- ----- -- ------ - ------- --- ----------<br>------------- ------ ------ ---- ---- feeling ----- -- ----<br>-------- ------- -- ---------- --- - --- ----- ----- ----<br>---- --- --- ----- --- ---- ---- ------- ----- ---- -------<br>--- --- -- ----- -- --- ---- -- --- ---- -- ------ ------<br>--- ----- -- ----,208308.72999998974,208306.58999999287,207971.694,207982.56500001298,207988.36,208322.063,,14,feeling
screen,html.Screen,1_1_0_1_15,2021-04-20T10:37:03.978Z,,,,,,,,,,,,,,,,53,,,,,,,,,,,,,,322.0720000095607,,response,,,,99,,,,,,,Space,keypress(Space),,,,,,,,---- -- ----- -- ------ - ------- --- ----------<br>------------- ------ ------ ---- ---- ------- close -- ----<br>-------- ------- -- ---------- --- - --- ----- ----- ----<br>---- --- --- ----- --- ---- ---- ------- ----- ---- -------<br>--- --- -- ----- -- --- ---- -- --- ---- -- ------ ------<br>--- ----- -- ----,208646.11500001047,208644.13500000956,208305.397,208308.90000000363,208322.063,208655.383,,15,close
screen,html.Screen,1_1_0_1_16,2021-04-20T10:37:04.305Z,,,,,,,,,,,,,,,,53,,,,,,,,,,,,,,315.04699998666183,,response,,,,99,,,,,,,Space,keypress(Space),,,,,,,,---- -- ----- -- ------ - ------- --- ----------<br>------------- ------ ------ ---- ---- ------- ----- to ----<br>-------- ------- -- ---------- --- - --- ----- ----- ----<br>---- --- --- ----- --- ---- ---- ------- ----- ---- -------<br>--- --- -- ----- -- --- ---- -- --- ---- -- ------ ------<br>--- ----- -- ----,208972.29000000516,208970.42999998666,208638.717,208646.27500000643,208655.383,208988.703,,16,to
screen,html.Screen,1_1_0_1_17,2021-04-20T10:37:04.653Z,,,,,,,,,,,,,,,,53,,,,,,,,,,,,,,330.4220000090718,,response,,,,99,,,,,,,Space,keypress(Space),,,,,,,,---- -- ----- -- ------ - ------- --- ----------<br>------------- ------ ------ ---- ---- ------- ----- -- your<br>-------- ------- -- ---------- --- - --- ----- ----- ----<br>---- --- --- ----- --- ---- ---- ------- ----- ---- -------<br>--- --- -- ----- -- --- ---- -- --- ---- -- ------ ------<br>--- ----- -- ----,209321.07999999425,209319.12500000908,208972.037,208972.44499999215,208988.703,209322.023,,17,your
screen,html.Screen,1_1_0_1_18,2021-04-20T10:37:04.991Z,,,,,,,,,,,,,,,,53,,,,,,,,,,,,,,334.572000007669,,response,,,,99,,,,,,,Space,keypress(Space),,,,,,,,---- -- ----- -- ------ - ------- --- ----------<br>------------- ------ ------ ---- ---- ------- ----- -- ----<br>romantic ------- -- ---------- --- - --- ----- ----- ----<br>---- --- --- ----- --- ---- ---- ------- ----- ---- -------<br>--- --- -- ----- -- --- ---- -- --- ---- -- ------ ------<br>--- ----- -- ----,209658.52999998606,209656.59500000766,209305.357,209321.36000000173,209322.023,209672.009,,18,romantic
screen,html.Screen,1_1_0_1_19,2021-04-20T10:37:05.339Z,,,,,,,,,,,,,,,,53,,,,,,,,,,,,,,333.28100000097766,,response,,,,99,,,,,,,Space,keypress(Space),,,,,,,,---- -- ----- -- ------ - ------- --- ----------<br>------------- ------ ------ ---- ---- ------- ----- -- ----<br>-------- partner -- ---------- --- - --- ----- ----- ----<br>---- --- --- ----- --- ---- ---- ------- ----- ---- -------<br>--- --- -- ----- -- --- ---- -- --- ---- -- ------ ------<br>--- ----- -- ----,210007.15499999933,210005.29000000097,209655.343,209658.67999999318,209672.009,210021.995,,19,partner
screen,html.Screen,1_1_0_1_20,2021-04-20T10:37:05.722Z,,,,,,,,,,,,,,,,53,,,,,,,,,,,,,,365.92500000831205,,response,,,,99,,,,,,,Space,keypress(Space),,,,,,,,---- -- ----- -- ------ - ------- --- ----------<br>------------- ------ ------ ---- ---- ------- ----- -- ----<br>-------- ------- is ---------- --- - --- ----- ----- ----<br>---- --- --- ----- --- ---- ---- ------- ----- ---- -------<br>--- --- -- ----- -- --- ---- -- --- ---- -- ------ ------<br>--- ----- -- ----,210389.92499999586,210387.9200000083,210005.329,210007.3299999931,210021.995,210405.313,,20,is
screen,html.Screen,1_1_0_1_21,2021-04-20T10:37:06.048Z,,,,,,,,,,,,,,,,53,,,,,,,,,,,,,,308.817000007577,,response,,,,99,,,,,,,Space,keypress(Space),,,,,,,,---- -- ----- -- ------ - ------- --- ----------<br>------------- ------ ------ ---- ---- ------- ----- -- ----<br>-------- ------- -- paramount. --- - --- ----- ----- ----<br>---- --- --- ----- --- ---- ---- ------- ----- ---- -------<br>--- --- -- ----- -- --- ---- -- --- ---- -- ------ ------<br>--- ----- -- ----,210716.1699999997,210714.13000000757,210388.647,210390.09999998962,210405.313,210721.967,,21,paramount.
screen,html.Screen,1_1_0_1_22,2021-04-20T10:37:06.442Z,,,,,,,,,,,,,,,,53,,,,,,,,,,,,,,385.9980000028736,,response,,,,99,,,,,,,Space,keypress(Space),,,,,,,,---- -- ----- -- ------ - ------- --- ----------<br>------------- ------ ------ ---- ---- ------- ----- -- ----<br>-------- ------- -- ---------- But - --- ----- ----- ----<br>---- --- --- ----- --- ---- ---- ------- ----- ---- -------<br>--- --- -- ----- -- --- ---- -- --- ---- -- ------ ------<br>--- ----- -- ----,211110.09999999078,211107.96500000288,210705.301,210716.32000000682,210721.967,211121.951,,22,But
screen,html.Screen,1_1_0_1_23,2021-04-20T10:37:06.870Z,,,,,,,,,,,,,,,,53,,,,,,,,,,,,,,413.30900000419933,,response,,,,99,,,,,,,Space,keypress(Space),,,,,,,,---- -- ----- -- ------ - ------- --- ----------<br>------------- ------ ------ ---- ---- ------- ----- -- ----<br>-------- ------- -- ---------- --- a --- ----- ----- ----<br>---- --- --- ----- --- ---- ---- ------- ----- ---- -------<br>--- --- -- ----- -- --- ---- -- --- ---- -- ------ ------<br>--- ----- -- ----,211537.25500000292,211535.2600000042,211105.285,211110.25999998674,211121.951,211538.601,,23,a
screen,html.Screen,1_1_0_1_24,2021-04-20T10:37:07.275Z,,,,,,,,,,,,,,,,53,,,,,,,,,,,,,,401.7339999920514,,response,,,,99,,,,,,,Space,keypress(Space),,,,,,,,---- -- ----- -- ------ - ------- --- ----------<br>------------- ------ ------ ---- ---- ------- ----- -- ----<br>-------- ------- -- ---------- --- - new ----- ----- ----<br>---- --- --- ----- --- ---- ---- ------- ----- ---- -------<br>--- --- -- ----- -- --- ---- -- --- ---- -- ------ ------<br>--- ----- -- ----,211942.34499998856,211940.33499999205,211521.935,211537.40500001004,211538.601,211955.251,,24,new
screen,html.Screen,1_1_0_1_25,2021-04-20T10:37:07.624Z,,,,,,,,,,,,,,,,53,,,,,,,,,,,,,,333.7890000033076,,response,,,,99,,,,,,,Space,keypress(Space),,,,,,,,---- -- ----- -- ------ - ------- --- ----------<br>------------- ------ ------ ---- ---- ------- ----- -- ----<br>-------- ------- -- ---------- --- - --- study ----- ----<br>---- --- --- ----- --- ---- ---- ------- ----- ---- -------<br>--- --- -- ----- -- --- ---- -- --- ---- -- ------ ------<br>--- ----- -- ----,212291.34999998496,212289.0400000033,211938.585,211942.57499999367,211955.251,212305.237,,25,study
screen,html.Screen,1_1_0_1_26,2021-04-20T10:37:07.961Z,,,,,,,,,,,,,,,,53,,,,,,,,,,,,,,321.49799999801326,,response,,,,99,,,,,,,Space,keypress(Space),,,,,,,,---- -- ----- -- ------ - ------- --- ----------<br>------------- ------ ------ ---- ---- ------- ----- -- ----<br>-------- ------- -- ---------- --- - --- ----- finds ----<br>---- --- --- ----- --- ---- ---- ------- ----- ---- -------<br>--- --- -- ----- -- --- ---- -- --- ---- -- ------ ------<br>--- ----- -- ----,212628.74499999452,212626.734999998,212288.571,212291.5750000102,212305.237,212638.557,,26,finds
screen,html.Screen,1_1_0_1_27,2021-04-20T10:37:08.287Z,,,,,,,,,,,,,,,,53,,,,,,,,,,,,,,314.42800001081196,,response,,,,99,,,,,,,Space,keypress(Space),,,,,,,,---- -- ----- -- ------ - ------- --- ----------<br>------------- ------ ------ ---- ---- ------- ----- -- ----<br>-------- ------- -- ---------- --- - --- ----- ----- that<br>---- --- --- ----- --- ---- ---- ------- ----- ---- -------<br>--- --- -- ----- -- --- ---- -- --- ---- -- ------ ------<br>--- ----- -- ----,212954.89500000258,212952.9850000108,212621.891,212628.89500000165,212638.557,212971.877,,27,that
screen,html.Screen,1_1_0_1_28,2021-04-20T10:37:08.647Z,,,,,,,,,,,,,,,,53,,,,,,,,,,,,,,341.15299999024137,,response,,,,99,,,,,,,Space,keypress(Space),,,,,,,,---- -- ----- -- ------ - ------- --- ----------<br>------------- ------ ------ ---- ---- ------- ----- -- ----<br>-------- ------- -- ---------- --- - --- ----- ----- ----<br>it's --- --- ----- --- ---- ---- ------- ----- ---- -------<br>--- --- -- ----- -- --- ---- -- --- ---- -- ------ ------<br>--- ----- -- ----,213314.86000001314,213313.02999999025,212955.211,212955.19499998773,212971.877,213321.863,,28,it's
screen,html.Screen,1_1_0_1_29,2021-04-20T10:37:09.007Z,,,,,,,,,,,,,,,,53,,,,,,,,,,,,,,351.1069999850588,,response,,,,99,,,,,,,Space,keypress(Space),,,,,,,,---- -- ----- -- ------ - ------- --- ----------<br>------------- ------ ------ ---- ---- ------- ----- -- ----<br>-------- ------- -- ---------- --- - --- ----- ----- ----<br>---- not --- ----- --- ---- ---- ------- ----- ---- -------<br>--- --- -- ----- -- --- ---- -- --- ---- -- ------ ------<br>--- ----- -- ----,213674.88000000594,213672.96999998507,213305.197,213315.14500000048,213321.863,213688.515,,29,not
screen,html.Screen,1_1_0_1_30,2021-04-20T10:37:09.334Z,,,,,,,,,,,,,,,,53,,,,,,,,,,,,,,310.6450000066543,,response,,,,99,,,,,,,Space,keypress(Space),,,,,,,,---- -- ----- -- ------ - ------- --- ----------<br>------------- ------ ------ ---- ---- ------- ----- -- ----<br>-------- ------- -- ---------- --- - --- ----- ----- ----<br>---- --- how ----- --- ---- ---- ------- ----- ---- -------<br>--- --- -- ----- -- --- ---- -- --- ---- -- ------ ------<br>--- ----- -- ----,214001.37000001268,213999.16000000667,213671.849,213675.10500000208,213688.515,214005.169,,30,how
screen,html.Screen,1_1_0_1_31,2021-04-20T10:37:09.671Z,,,,,,,,,,,,,,,,53,,,,,,,,,,,,,,331.66599999461323,,response,,,,99,,,,,,,Space,keypress(Space),,,,,,,,---- -- ----- -- ------ - ------- --- ----------<br>------------- ------ ------ ---- ---- ------- ----- -- ----<br>-------- ------- -- ---------- --- - --- ----- ----- ----<br>---- --- --- close --- ---- ---- ------- ----- ---- -------<br>--- --- -- ----- -- --- ---- -- --- ---- -- ------ ------<br>--- ----- -- ----,214338.81499999552,214336.8349999946,213988.503,214001.53000000864,214005.169,214355.155,,31,close
screen,html.Screen,1_1_0_1_32,2021-04-20T10:37:10.020Z,,,,,,,,,,,,,,,,53,,,,,,,,,,,,,,330.389999985724,,response,,,,99,,,,,,,Space,keypress(Space),,,,,,,,---- -- ----- -- ------ - ------- --- ----------<br>------------- ------ ------ ---- ---- ------- ----- -- ----<br>-------- ------- -- ---------- --- - --- ----- ----- ----<br>---- --- --- ----- you ---- ---- ------- ----- ---- -------<br>--- --- -- ----- -- --- ---- -- --- ---- -- ------ ------<br>--- ----- -- ----,214687.44999999763,214685.54499998572,214338.489,214339.05999999843,214355.155,214688.475,,32,you
screen,html.Screen,1_1_0_1_33,2021-04-20T10:37:10.346Z,,,,,,,,,,,,,,,,53,,,,,,,,,,,,,,323.16500001153327,,response,,,,99,,,,,,,Space,keypress(Space),,,,,,,,---- -- ----- -- ------ - ------- --- ----------<br>------------- ------ ------ ---- ---- ------- ----- -- ----<br>-------- ------- -- ---------- --- - --- ----- ----- ----<br>---- --- --- ----- --- feel ---- ------- ----- ---- -------<br>--- --- -- ----- -- --- ---- -- --- ---- -- ------ ------<br>--- ----- -- ----,215013.7500000128,215011.64000001154,214671.809,214687.59499999578,214688.475,215021.795,,33,feel
screen,html.Screen,1_1_0_1_34,2021-04-20T10:37:10.661Z,,,,,,,,,,,,,,,,53,,,,,,,,,,,,,,304.8499999937194,,response,,,,99,,,,,,,Space,keypress(Space),,,,,,,,---- -- ----- -- ------ - ------- --- ----------<br>------------- ------ ------ ---- ---- ------- ----- -- ----<br>-------- ------- -- ---------- --- - --- ----- ----- ----<br>---- --- --- ----- --- ---- that ------- ----- ---- -------<br>--- --- -- ----- -- --- ---- -- --- ---- -- ------ ------<br>--- ----- -- ----,215328.4649999987,215326.64499999373,215005.129,215013.89500001096,215021.795,215338.449,,34,that
screen,html.Screen,1_1_0_1_35,2021-04-20T10:37:10.999Z,,,,,,,,,,,,,,,,53,,,,,,,,,,,,,,325.7860000038345,,response,,,,99,,,,,,,Space,keypress(Space),,,,,,,,---- -- ----- -- ------ - ------- --- ----------<br>------------- ------ ------ ---- ---- ------- ----- -- ----<br>-------- ------- -- ---------- --- - --- ----- ----- ----<br>---- --- --- ----- --- ---- ---- matters ----- ---- -------<br>--- --- -- ----- -- --- ---- -- --- ---- -- ------ ------<br>--- ----- -- ----,215666.26500000712,215664.23500000383,215321.783,215328.59499999904,215338.449,215671.769,,35,matters
screen,html.Screen,1_1_0_1_36,2021-04-20T10:37:11.336Z,,,,,,,,,,,,,,,,53,,,,,,,,,,,,,,329.945999991236,,response,,,,99,,,,,,,Space,keypress(Space),,,,,,,,"---- -- ----- -- ------ - ------- --- ----------<br>------------- ------ ------ ---- ---- ------- ----- -- ----<br>-------- ------- -- ---------- --- - --- ----- ----- ----<br>---- --- --- ----- --- ---- ---- ------- most, ---- -------<br>--- --- -- ----- -- --- ---- -- --- ---- -- ------ ------<br>--- ----- -- ----",216003.72999999672,216001.71499999124,215655.103,215666.46000000765,215671.769,216005.089,,36,"most,"
screen,html.Screen,1_1_0_1_37,2021-04-20T10:37:11.673Z,,,,,,,,,,,,,,,,53,,,,,,,,,,,,,,334.1309999943769,,response,,,,99,,,,,,,Space,keypress(Space),,,,,,,,---- -- ----- -- ------ - ------- --- ----------<br>------------- ------ ------ ---- ---- ------- ----- -- ----<br>-------- ------- -- ---------- --- - --- ----- ----- ----<br>---- --- --- ----- --- ---- ---- ------- ----- it's -------<br>--- --- -- ----- -- --- ---- -- --- ---- -- ------ ------<br>--- ----- -- ----,216341.1699999997,216339.21999999438,215988.423,216003.85999999708,216005.089,216355.075,,37,it's
screen,html.Screen,1_1_0_1_38,2021-04-20T10:37:11.977Z,,,,,,,,,,,,,,,,53,,,,,,,,,,,,,,287.9100000131293,,response,,,,99,,,,,,,Space,keypress(Space),,,,,,,,---- -- ----- -- ------ - ------- --- ----------<br>------------- ------ ------ ---- ---- ------- ----- -- ----<br>-------- ------- -- ---------- --- - --- ----- ----- ----<br>---- --- --- ----- --- ---- ---- ------- ----- ---- whether<br>--- --- -- ----- -- --- ---- -- --- ---- -- ------ ------<br>--- ----- -- ----,216644.99500000966,216642.98500001314,216338.409,216341.30500000902,216355.075,216655.063,,38,whether
screen,html.Screen,1_1_0_1_39,2021-04-20T10:37:12.315Z,,,,,,,,,,,,,,,,53,,,,,,,,,,,,,,325.5020000053046,,response,,,,99,,,,,,,Space,keypress(Space),,,,,,,,---- -- ----- -- ------ - ------- --- ----------<br>------------- ------ ------ ---- ---- ------- ----- -- ----<br>-------- ------- -- ---------- --- - --- ----- ----- ----<br>---- --- --- ----- --- ---- ---- ------- ----- ---- -------<br>you --- -- ----- -- --- ---- -- --- ---- -- ------ ------<br>--- ----- -- ----,216982.49500000384,216980.5650000053,216638.397,216645.15999998548,216655.063,216988.383,,39,you
screen,html.Screen,1_1_0_1_40,2021-04-20T10:37:12.630Z,,,,,,,,,,,,,,,,53,,,,,,,,,,,,,,307.0870000118448,,response,,,,99,,,,,,,Space,keypress(Space),,,,,,,,---- -- ----- -- ------ - ------- --- ----------<br>------------- ------ ------ ---- ---- ------- ----- -- ----<br>-------- ------- -- ---------- --- - --- ----- ----- ----<br>---- --- --- ----- --- ---- ---- ------- ----- ---- -------<br>--- are -- ----- -- --- ---- -- --- ---- -- ------ ------<br>--- ----- -- ----,217297.51500001294,217295.47000001185,216971.717,216982.6250000042,216988.383,217305.037,,40,are
screen,html.Screen,1_1_0_1_41,2021-04-20T10:37:12.945Z,,,,,,,,,,,,,,,,53,,,,,,,,,,,,,,305.4329999850597,,response,,,,99,,,,,,,Space,keypress(Space),,,,,,,,---- -- ----- -- ------ - ------- --- ----------<br>------------- ------ ------ ---- ---- ------- ----- -- ----<br>-------- ------- -- ---------- --- - --- ----- ----- ----<br>---- --- --- ----- --- ---- ---- ------- ----- ---- -------<br>--- --- as ----- -- --- ---- -- --- ---- -- ------ ------<br>--- ----- -- ----,217612.43000000832,217610.46999998507,217288.371,217297.64999999315,217305.037,217621.691,,41,as
screen,html.Screen,1_1_0_1_42,2021-04-20T10:37:13.271Z,,,,,,,,,,,,,,,,53,,,,,,,,,,,,,,315.04399999568705,,response,,,,99,,,,,,,Space,keypress(Space),,,,,,,,---- -- ----- -- ------ - ------- --- ----------<br>------------- ------ ------ ---- ---- ------- ----- -- ----<br>-------- ------- -- ---------- --- - --- ----- ----- ----<br>---- --- --- ----- --- ---- ---- ------- ----- ---- -------<br>--- --- -- close -- --- ---- -- --- ---- -- ------ ------<br>--- ----- -- ----,217938.62500000978,217936.73499999568,217605.025,217612.56499998854,217621.691,217955.011,,42,close
screen,html.Screen,1_1_0_1_43,2021-04-20T10:37:13.575Z,,,,,,,,,,,,,,,,53,,,,,,,,,,,,,,285.5140000010724,,response,,,,99,,,,,,,Space,keypress(Space),,,,,,,,---- -- ----- -- ------ - ------- --- ----------<br>------------- ------ ------ ---- ---- ------- ----- -- ----<br>-------- ------- -- ---------- --- - --- ----- ----- ----<br>---- --- --- ----- --- ---- ---- ------- ----- ---- -------<br>--- --- -- ----- as --- ---- -- --- ---- -- ------ ------<br>--- ----- -- ----,218242.3800000106,218240.52500000107,217938.345,217940.13000000268,217955.011,218254.999,,43,as
screen,html.Screen,1_1_0_1_44,2021-04-20T10:37:13.901Z,,,,,,,,,,,,,,,,53,,,,,,,,,,,,,,311.7809999937308,,response,,,,99,,,,,,,Space,keypress(Space),,,,,,,,---- -- ----- -- ------ - ------- --- ----------<br>------------- ------ ------ ---- ---- ------- ----- -- ----<br>-------- ------- -- ---------- --- - --- ----- ----- ----<br>---- --- --- ----- --- ---- ---- ------- ----- ---- -------<br>--- --- -- ----- -- you ---- -- --- ---- -- ------ ------<br>--- ----- -- ----,218568.7050000124,218566.77999999374,218238.333,218242.49999999302,218254.999,218572.073,,44,you
screen,html.Screen,1_1_0_1_45,2021-04-20T10:37:14.227Z,,,,,,,,,,,,,,,,53,,,,,,,,,,,,,,320.90199999519973,,response,,,,99,,,,,,,Space,keypress(Space),,,,,,,,---- -- ----- -- ------ - ------- --- ----------<br>------------- ------ ------ ---- ---- ------- ----- -- ----<br>-------- ------- -- ---------- --- - --- ----- ----- ----<br>---- --- --- ----- --- ---- ---- ------- ----- ---- -------<br>--- --- -- ----- -- --- want -- --- ---- -- ------ ------<br>--- ----- -- ----,218894.88999999594,218892.9749999952,218555.407,218568.88499998604,218572.073,218905.393,,45,want
screen,html.Screen,1_1_0_1_46,2021-04-20T10:37:14.576Z,,,,,,,,,,,,,,,,53,,,,,,,,,,,,,,336.3269999908807,,response,,,,99,,,,,,,Space,keypress(Space),,,,,,,,---- -- ----- -- ------ - ------- --- ----------<br>------------- ------ ------ ---- ---- ------- ----- -- ----<br>-------- ------- -- ---------- --- - --- ----- ----- ----<br>---- --- --- ----- --- ---- ---- ------- ----- ---- -------<br>--- --- -- ----- -- --- ---- to --- ---- -- ------ ------<br>--- ----- -- ----,219243.76499999198,219241.7199999909,218888.727,218895.10500000324,218905.393,219255.379,,46,to
screen,html.Screen,1_1_0_1_47,2021-04-20T10:37:14.925Z,,,,,,,,,,,,,,,,53,,,,,,,,,,,,,,335.09600000453065,,response,,,,99,,,,,,,Space,keypress(Space),,,,,,,,"---- -- ----- -- ------ - ------- --- ----------<br>------------- ------ ------ ---- ---- ------- ----- -- ----<br>-------- ------- -- ---------- --- - --- ----- ----- ----<br>---- --- --- ----- --- ---- ---- ------- ----- ---- -------<br>--- --- -- ----- -- --- ---- -- be, ---- -- ------ ------<br>--- ----- -- ----",219592.31000000727,219590.47500000452,219238.713,219243.8850000035,219255.379,219605.365,,47,"be,"
screen,html.Screen,1_1_0_1_48,2021-04-20T10:37:15.284Z,,,,,,,,,,,,,,,,53,,,,,,,,,,,,,,345.02500001271255,,response,,,,99,,,,,,,Space,keypress(Space),,,,,,,,---- -- ----- -- ------ - ------- --- ----------<br>------------- ------ ------ ---- ---- ------- ----- -- ----<br>-------- ------- -- ---------- --- - --- ----- ----- ----<br>---- --- --- ----- --- ---- ---- ------- ----- ---- -------<br>--- --- -- ----- -- --- ---- -- --- even -- ------ ------<br>--- ----- -- ----,219952.27499998873,219950.3900000127,219588.699,219592.43499999866,219605.365,219955.351,,48,even
screen,html.Screen,1_1_0_1_49,2021-04-20T10:37:15.622Z,,,,,,,,,,,,,,,,53,,,,,,,,,,,,,,332.6340000026685,,response,,,,99,,,,,,,Space,keypress(Space),,,,,,,,---- -- ----- -- ------ - ------- --- ----------<br>------------- ------ ------ ---- ---- ------- ----- -- ----<br>-------- ------- -- ---------- --- - --- ----- ----- ----<br>---- --- --- ----- --- ---- ---- ------- ----- ---- -------<br>--- --- -- ----- -- --- ---- -- --- ---- if ------ ------<br>--- ----- -- ----,220289.9749999924,220287.98500000266,219938.685,219952.40000000922,219955.351,220305.337,,49,if
screen,html.Screen,1_1_0_1_50,2021-04-20T10:37:15.937Z,,,,,,,,,,,,,,,,53,,,,,,,,,,,,,,297.7280000029714,,response,,,,99,,,,,,,Space,keypress(Space),,,,,,,,---- -- ----- -- ------ - ------- --- ----------<br>------------- ------ ------ ---- ---- ------- ----- -- ----<br>-------- ------- -- ---------- --- - --- ----- ----- ----<br>---- --- --- ----- --- ---- ---- ------- ----- ---- -------<br>--- --- -- ----- -- --- ---- -- --- ---- -- that's ------<br>--- ----- -- ----,220605.00499999034,220603.06500000297,220288.671,220290.11000000173,220305.337,220621.991,,50,that's
screen,html.Screen,1_1_0_1_51,2021-04-20T10:37:16.252Z,,,,,,,,,,,,,,,,53,,,,,,,,,,,,,,295.9989999871759,,response,,,,99,,,,,,,Space,keypress(Space),,,,,,,,---- -- ----- -- ------ - ------- --- ----------<br>------------- ------ ------ ---- ---- ------- ----- -- ----<br>-------- ------- -- ---------- --- - --- ----- ----- ----<br>---- --- --- ----- --- ---- ---- ------- ----- ---- -------<br>--- --- -- ----- -- --- ---- -- --- ---- -- ------ really<br>--- ----- -- ----,220920.01000000164,220917.98999998719,220605.325,220605.16999999527,220621.991,220921.979,,51,really
screen,html.Screen,1_1_0_1_52,2021-04-20T10:37:16.579Z,,,,,,,,,,,,,,,,53,,,,,,,,,,,,,,322.446000011696,,response,,,,99,,,,,,,Space,keypress(Space),,,,,,,,---- -- ----- -- ------ - ------- --- ----------<br>------------- ------ ------ ---- ---- ------- ----- -- ----<br>-------- ------- -- ---------- --- - --- ----- ----- ----<br>---- --- --- ----- --- ---- ---- ------- ----- ---- -------<br>--- --- -- ----- -- --- ---- -- --- ---- -- ------ ------<br>not ----- -- ----,221246.4050000126,221244.4250000117,220905.313,220920.13499999302,220921.979,221255.299,,52,not
screen,html.Screen,1_1_0_1_53,2021-04-20T10:37:16.916Z,,,,,,,,,,,,,,,,53,,,,,,,,,,,,,,326.40100000973325,,response,,,,99,,,,,,,Space,keypress(Space),,,,,,,,---- -- ----- -- ------ - ------- --- ----------<br>------------- ------ ------ ---- ---- ------- ----- -- ----<br>-------- ------- -- ---------- --- - --- ----- ----- ----<br>---- --- --- ----- --- ---- ---- ------- ----- ---- -------<br>--- --- -- ----- -- --- ---- -- --- ---- -- ------ ------<br>--- close -- ----,221583.57499999693,221581.70000000973,221238.633,221246.530000004,221255.299,221588.619,,53,close
screen,html.Screen,1_1_0_1_54,2021-04-20T10:37:17.265Z,,,,,,,,,,,,,,,,53,,,,,,,,,,,,,,341.85099999204976,,response,,,,99,,,,,,,Space,keypress(Space),,,,,,,,---- -- ----- -- ------ - ------- --- ----------<br>------------- ------ ------ ---- ---- ------- ----- -- ----<br>-------- ------- -- ---------- --- - --- ----- ----- ----<br>---- --- --- ----- --- ---- ---- ------- ----- ---- -------<br>--- --- -- ----- -- --- ---- -- --- ---- -- ------ ------<br>--- ----- at ----,221932.41999999736,221930.46999999206,221571.953,221583.7799999863,221588.619,221938.605,,54,at
screen,html.Screen,1_1_0_1_55,2021-04-20T10:37:17.692Z,,,,,,,,,,,,,,,,53,,,,,,,,,,,,,,419.38499998950283,,response,,,,99,,,,,,,Space,keypress(Space),,,,,,,,---- -- ----- -- ------ - ------- --- ----------<br>------------- ------ ------ ---- ---- ------- ----- -- ----<br>-------- ------- -- ---------- --- - --- ----- ----- ----<br>---- --- --- ----- --- ---- ---- ------- ----- ---- -------<br>--- --- -- ----- -- --- ---- -- --- ---- -- ------ ------<br>--- ----- -- all.,222360.04500000854,222357.9899999895,221921.939,221932.6299999957,221938.605,222371.921,,55,all.
Item 99,flow.Loop,1_1_0_1,2021-04-20T10:37:17.693Z,,,,,,,,,,,,,,,,,,,,,,,,,,,,,,21885.995999989507,,completion,,,,,E,,,,,,,,,,,silence,,,,,222360.37999999826,222357.9899999895,200438.662,200440.4799999902,200471.994,222371.921,,,
Question 1,html.Screen,1_1_0_2,2021-04-20T10:37:22.970Z,,,,,,,,,,,,,,,,,,,,,,,,,,,false,FALSE,,5263.688999997539,,response,,,,99,E,,,,,,TRUE,click #choice-1,,,,silence,,,,,227637.82000000356,227635.60999999754,222355.255,222360.51500000758,222371.921,227655.043,,,
Question 2,html.Screen,1_1_0_3,2021-04-20T10:37:31.171Z,,,,,,,,,,,,,,,,,,,,,,,,,,,true,TRUE,,8181.916999985988,,response,,,,99,E,,,,,,TRUE,click #choice-1,,,,silence,,,,,235839.00999999605,235836.959999986,227638.377,227637.99499999732,227655.043,235855.139,,,
Item 99,flow.Sequence,1_1_0,2021-04-20T10:37:31.171Z,,,,,,,,,,,,,,,,,,,,,,,,,,,,,,45381.66199998598,,completion,,,,,,,,,,,,,,,,,,,,,235839.23000001232,235836.959999986,190438.632,190459.57000000635,190455.298,235855.139,,,
Holding screen,html.Screen,1_1_1_0,2021-04-20T10:37:41.171Z,,,,,,,,,,,,,,,,,,,,,,,,,,,,,,10000.004000000015,,timeout,,,,,,,,,,,,,,,,,,,,,245839.4350000017,245838.477,235838.473,235839.36499999254,235855.139,245855.143,,,
screen,html.Screen,1_1_1_1_0,2021-04-20T10:37:42.094Z,,,,,,,,,,,,,,,,54,,,,,,,,,,,,,,904.4419999925012,,response,,,,100,,,,,,,Space,keypress(Space),,,,,,,,At --- ---- --- ------ ----- ------- ---- -- --- ------- --<br>------- ---------- ------ -- ----- -- ----- -- ---- ------<br>--- ----- --- --- ------ -------- ----- --- ------ ----- --<br>----- ----- ---------- --- --- ------ ------ ---- -- ------<br>------- --- ------ ----- --- ---- ------- -- ---- --- --<br>------- ------,246761.9699999923,246759.5849999925,245838.477,245839.59499999764,245855.143,246771.773,,0,At
screen,html.Screen,1_1_1_1_1,2021-04-20T10:37:42.487Z,,,,,,,,,,,,,,,,54,,,,,,,,,,,,,,381.53199998528,,response,,,,100,,,,,,,Space,keypress(Space),,,,,,,,-- the ---- --- ------ ----- ------- ---- -- --- ------- --<br>------- ---------- ------ -- ----- -- ----- -- ---- ------<br>--- ----- --- --- ------ -------- ----- --- ------ ----- --<br>----- ----- ---------- --- --- ------ ------ ---- -- ------<br>------- --- ------ ----- --- ---- ------- -- ---- --- --<br>------- ------,247155.19499999937,247153.30499998527,246755.107,246762.11000001058,246771.773,247171.757,,1,the
screen,html.Screen,1_1_1_1_2,2021-04-20T10:37:42.780Z,,,,,,,,,,,,,,,,54,,,,,,,,,,,,,,274.0380000068981,,response,,,,100,,,,,,,Space,keypress(Space),,,,,,,,-- --- time --- ------ ----- ------- ---- -- --- ------- --<br>------- ---------- ------ -- ----- -- ----- -- ---- ------<br>--- ----- --- --- ------ -------- ----- --- ------ ----- --<br>----- ----- ---------- --- --- ------ ------ ---- -- ------<br>------- --- ------ ----- --- ---- ------- -- ---- --- --<br>------- ------,247447.70499999868,247445.7950000069,247155.091,247155.51000001142,247171.757,247455.079,,2,time
screen,html.Screen,1_1_1_1_3,2021-04-20T10:37:43.095Z,,,,,,,,,,,,,,,,54,,,,,,,,,,,,,,305.8859999940323,,response,,,,100,,,,,,,Space,keypress(Space),,,,,,,,-- --- ---- the ------ ----- ------- ---- -- --- ------- --<br>------- ---------- ------ -- ----- -- ----- -- ---- ------<br>--- ----- --- --- ------ -------- ----- --- ------ ----- --<br>----- ----- ---------- --- --- ------ ------ ---- -- ------<br>------- --- ------ ----- --- ---- ------- -- ---- --- --<br>------- ------,247762.80999998562,247760.96499999403,247438.413,247447.89000001037,247455.079,247771.733,,3,the
screen,html.Screen,1_1_1_1_4,2021-04-20T10:37:43.421Z,,,,,,,,,,,,,,,,54,,,,,,,,,,,,,,315.2870000062976,,response,,,,100,,,,,,,Space,keypress(Space),,,,,,,,-- --- ---- --- French ----- ------- ---- -- --- ------- --<br>------- ---------- ------ -- ----- -- ----- -- ---- ------<br>--- ----- --- --- ------ -------- ----- --- ------ ----- --<br>----- ----- ---------- --- --- ------ ------ ---- -- ------<br>------- --- ------ ----- --- ---- ------- -- ---- --- --<br>------- ------,248088.8050000067,248087.0200000063,247755.067,247762.98999998835,247771.733,248105.053,,4,French
screen,html.Screen,1_1_1_1_5,2021-04-20T10:37:43.713Z,,,,,,,,,,,,,,,,54,,,,,,,,,,,,,,274.5469999856432,,response,,,,100,,,,,,,Space,keypress(Space),,,,,,,,-- --- ---- --- ------ crown ------- ---- -- --- ------- --<br>------- ---------- ------ -- ----- -- ----- -- ---- ------<br>--- ----- --- --- ------ -------- ----- --- ------ ----- --<br>----- ----- ---------- --- --- ------ ------ ---- -- ------<br>------- --- ------ ----- --- ---- ------- -- ---- --- --<br>------- ------,248381.4849999908,248379.59999998566,248088.387,248088.92999999807,248105.053,248388.375,,5,crown
screen,html.Screen,1_1_1_1_6,2021-04-20T10:37:44.096Z,,,,,,,,,,,,,,,,54,,,,,,,,,,,,,,373.83499998622574,,response,,,,100,,,,,,,Space,keypress(Space),,,,,,,,-- --- ---- --- ------ ----- secured ---- -- --- ------- --<br>------- ---------- ------ -- ----- -- ----- -- ---- ------<br>--- ----- --- --- ------ -------- ----- --- ------ ----- --<br>----- ----- ---------- --- --- ------ ------ ---- -- ------<br>------- --- ------ ----- --- ---- ------- -- ---- --- --<br>------- ------,248764.1350000049,248762.20999998623,248371.709,248381.6050000023,248388.375,248771.693,,6,secured
screen,html.Screen,1_1_1_1_7,2021-04-20T10:37:44.456Z,,,,,,,,,,,,,,,,54,,,,,,,,,,,,,,350.476999987819,,response,,,,100,,,,,,,Space,keypress(Space),,,,,,,,-- --- ---- --- ------ ----- ------- much -- --- ------- --<br>------- ---------- ------ -- ----- -- ----- -- ---- ------<br>--- ----- --- --- ------ -------- ----- --- ------ ----- --<br>----- ----- ---------- --- --- ------ ------ ---- -- ------<br>------- --- ------ ----- --- ---- ------- -- ---- --- --<br>------- ------,249124.01999998838,249122.16999998782,248755.027,248764.25499998732,248771.693,249138.345,,7,much
screen,html.Screen,1_1_1_1_8,2021-04-20T10:37:44.872Z,,,,,,,,,,,,,,,,54,,,,,,,,,,,,,,400.00000000811997,,response,,,,100,,,,,,,Space,keypress(Space),,,,,,,,-- --- ---- --- ------ ----- ------- ---- of --- ------- --<br>------- ---------- ------ -- ----- -- ----- -- ---- ------<br>--- ----- --- --- ------ -------- ----- --- ------ ----- --<br>----- ----- ---------- --- --- ------ ------ ---- -- ------<br>------- --- ------ ----- --- ---- ------- -- ---- --- --<br>------- ------,249540.22500000428,249538.34500000812,249121.679,249124.1399999999,249138.345,249554.995,,8,of
screen,html.Screen,1_1_1_1_9,2021-04-20T10:37:45.615Z,,,,,,,,,,,,,,,,54,,,,,,,,,,,,,,725.9150000013178,,response,,,,100,,,,,,,Space,keypress(Space),,,,,,,,-- --- ---- --- ------ ----- ------- ---- -- its ------- --<br>------- ---------- ------ -- ----- -- ----- -- ---- ------<br>--- ----- --- --- ------ -------- ----- --- ------ ----- --<br>----- ----- ---------- --- --- ------ ------ ---- -- ------<br>------- --- ------ ----- --- ---- ------- -- ---- --- --<br>------- ------,250282.85499999765,250280.9100000013,249538.329,249540.3449999867,249554.995,250288.713,,9,its
screen,html.Screen,1_1_1_1_10,2021-04-20T10:37:46.087Z,,,,,,,,,,,,,,,,54,,,,,,,,,,,,,,464.54199998872355,,response,,,,100,,,,,,,Space,keypress(Space),,,,,,,,-- --- ---- --- ------ ----- ------- ---- -- --- revenue --<br>------- ---------- ------ -- ----- -- ----- -- ---- ------<br>--- ----- --- --- ------ -------- ----- --- ------ ----- --<br>----- ----- ---------- --- --- ------ ------ ---- -- ------<br>------- --- ------ ----- --- ---- ------- -- ---- --- --<br>------- ------,250755.1950000052,250753.2549999887,250272.047,250283.05999998702,250288.713,250772.027,,10,revenue
screen,html.Screen,1_1_1_1_11,2021-04-20T10:37:46.560Z,,,,,,,,,,,,,,,,54,,,,,,,,,,,,,,453.8980000060983,,response,,,,100,,,,,,,Space,keypress(Space),,,,,,,,-- --- ---- --- ------ ----- ------- ---- -- --- ------- by<br>------- ---------- ------ -- ----- -- ----- -- ---- ------<br>--- ----- --- --- ------ -------- ----- --- ------ ----- --<br>----- ----- ---------- --- --- ------ ------ ---- -- ------<br>------- --- ------ ----- --- ---- ------- -- ---- --- --<br>------- ------,251227.8900000092,251225.9250000061,250755.361,250755.31999999657,250772.027,251238.675,,11,by
screen,html.Screen,1_1_1_1_12,2021-04-20T10:37:47.066Z,,,,,,,,,,,,,,,,54,,,,,,,,,,,,,,493.4549999894225,,response,,,,100,,,,,,,Space,keypress(Space),,,,,,,,-- --- ---- --- ------ ----- ------- ---- -- --- ------- --<br>issuing ---------- ------ -- ----- -- ----- -- ---- ------<br>--- ----- --- --- ------ -------- ----- --- ------ ----- --<br>----- ----- ---------- --- --- ------ ------ ---- -- ------<br>------- --- ------ ----- --- ---- ------- -- ---- --- --<br>------- ------,251734.05999998795,251732.1299999894,251222.009,251228.05499998503,251238.675,251738.655,,12,issuing
screen,html.Screen,1_1_1_1_13,2021-04-20T10:37:47.516Z,,,,,,,,,,,,,,,,54,,,,,,,,,,,,,,443.54500001019915,,response,,,,100,,,,,,,Space,keypress(Space),,,,,,,,-- --- ---- --- ------ ----- ------- ---- -- --- ------- --<br>------- government ------ -- ----- -- ----- -- ---- ------<br>--- ----- --- --- ------ -------- ----- --- ------ ----- --<br>----- ----- ---------- --- --- ------ ------ ---- -- ------<br>------- --- ------ ----- --- ---- ------- -- ---- --- --<br>------- ------,252184.13000000874,252182.2000000102,251721.989,251734.17999999947,251738.655,252188.637,,13,government
screen,html.Screen,1_1_1_1_14,2021-04-20T10:37:47.955Z,,,,,,,,,,,,,,,,54,,,,,,,,,,,,,,432.18300001102034,,response,,,,100,,,,,,,Space,keypress(Space),,,,,,,,-- --- ---- --- ------ ----- ------- ---- -- --- ------- --<br>------- ---------- bonds. -- ----- -- ----- -- ---- ------<br>--- ----- --- --- ------ -------- ----- --- ------ ----- --<br>----- ----- ---------- --- --- ------ ------ ---- -- ------<br>------- --- ------ ----- --- ---- ------- -- ---- --- --<br>------- ------,252622.84500000533,252620.820000011,252171.971,252184.24999999115,252188.637,252638.619,,14,bonds.
screen,html.Screen,1_1_1_1_15,2021-04-20T10:37:48.371Z,,,,,,,,,,,,,,,,54,,,,,,,,,,,,,,398.59100000950275,,response,,,,100,,,,,,,Space,keypress(Space),,,,,,,,-- --- ---- --- ------ ----- ------- ---- -- --- ------- --<br>------- ---------- ------ In ----- -- ----- -- ---- ------<br>--- ----- --- --- ------ -------- ----- --- ------ ----- --<br>----- ----- ---------- --- --- ------ ------ ---- -- ------<br>------- --- ------ ----- --- ---- ------- -- ---- --- --<br>------- ------,253039.1949999903,253037.2100000095,252621.953,252623.07000000146,252638.619,253055.269,,15,In
screen,html.Screen,1_1_1_1_16,2021-04-20T10:37:48.742Z,,,,,,,,,,,,,,,,54,,,,,,,,,,,,,,353.0760000034643,,response,,,,100,,,,,,,Space,keypress(Space),,,,,,,,"-- --- ---- --- ------ ----- ------- ---- -- --- ------- --<br>------- ---------- ------ -- 1727, -- ----- -- ---- ------<br>--- ----- --- --- ------ -------- ----- --- ------ ----- --<br>----- ----- ---------- --- --- ------ ------ ---- -- ------<br>------- --- ------ ----- --- ---- ------- -- ---- --- --<br>------- ------",253410.3849999956,253408.34500000346,253038.603,253039.32000001078,253055.269,253421.921,,16,"1727,"
screen,html.Screen,1_1_1_1_17,2021-04-20T10:37:49.383Z,,,,,,,,,,,,,,,,54,,,,,,,,,,,,,,627.8790000079607,,response,,,,100,,,,,,,Space,keypress(Space),,,,,,,,-- --- ---- --- ------ ----- ------- ---- -- --- ------- --<br>------- ---------- ------ -- ----- in ----- -- ---- ------<br>--- ----- --- --- ------ -------- ----- --- ------ ----- --<br>----- ----- ---------- --- --- ------ ------ ---- -- ------<br>------- --- ------ ----- --- ---- ------- -- ---- --- --<br>------- ------,254051.61500000395,254049.80000000796,253405.255,253410.50999998697,253421.921,254055.229,,17,in
screen,html.Screen,1_1_1_1_18,2021-04-20T10:37:49.856Z,,,,,,,,,,,,,,,,54,,,,,,,,,,,,,,467.06600000249455,,response,,,,100,,,,,,,Space,keypress(Space),,,,,,,,-- --- ---- --- ------ ----- ------- ---- -- --- ------- --<br>------- ---------- ------ -- ----- -- order -- ---- ------<br>--- ----- --- --- ------ -------- ----- --- ------ ----- --<br>----- ----- ---------- --- --- ------ ------ ---- -- ------<br>------- --- ------ ----- --- ---- ------- -- ---- --- --<br>------- ------,254524.11500000744,254522.2950000025,254038.563,254051.83000001125,254055.229,254538.543,,18,order
screen,html.Screen,1_1_1_1_19,2021-04-20T10:37:50.205Z,,,,,,,,,,,,,,,,54,,,,,,,,,,,,,,332.4220000091591,,response,,,,100,,,,,,,Space,keypress(Space),,,,,,,,-- --- ---- --- ------ ----- ------- ---- -- --- ------- --<br>------- ---------- ------ -- ----- -- ----- to ---- ------<br>--- ----- --- --- ------ -------- ----- --- ------ ----- --<br>----- ----- ---------- --- --- ------ ------ ---- -- ------<br>------- --- ------ ----- --- ---- ------- -- ---- --- --<br>------- ------,254872.8199999896,254870.96500000916,254521.877,254524.23999999883,254538.543,254888.529,,19,to
screen,html.Screen,1_1_1_1_20,2021-04-20T10:37:50.598Z,,,,,,,,,,,,,,,,54,,,,,,,,,,,,,,376.20600000428385,,response,,,,100,,,,,,,Space,keypress(Space),,,,,,,,-- --- ---- --- ------ ----- ------- ---- -- --- ------- --<br>------- ---------- ------ -- ----- -- ----- -- save ------<br>--- ----- --- --- ------ -------- ----- --- ------ ----- --<br>----- ----- ---------- --- --- ------ ------ ---- -- ------<br>------- --- ------ ----- --- ---- ------- -- ---- --- --<br>------- ------,255266.61500000046,255264.7350000043,254871.863,254873.11499999487,254888.529,255271.847,,20,save
screen,html.Screen,1_1_1_1_21,2021-04-20T10:37:51.172Z,,,,,,,,,,,,,,,,54,,,,,,,,,,,,,,566.6180000079912,,response,,,,100,,,,,,,Space,keypress(Space),,,,,,,,"-- --- ---- --- ------ ----- ------- ---- -- --- ------- --<br>------- ---------- ------ -- ----- -- ----- -- ---- money,<br>--- ----- --- --- ------ -------- ----- --- ------ ----- --<br>----- ----- ---------- --- --- ------ ------ ---- -- ------<br>------- --- ------ ----- --- ---- ------- -- ---- --- --<br>------- ------",255840.3399999952,255838.465000008,255255.181,255266.76999998745,255271.847,255855.157,,21,"money,"
screen,html.Screen,1_1_1_1_22,2021-04-20T10:37:51.555Z,,,,,,,,,,,,,,,,54,,,,,,,,,,,,,,365.7380000058329,,response,,,,100,,,,,,,Space,keypress(Space),,,,,,,,-- --- ---- --- ------ ----- ------- ---- -- --- ------- --<br>------- ---------- ------ -- ----- -- ----- -- ---- ------<br>the ----- --- --- ------ -------- ----- --- ------ ----- --<br>----- ----- ---------- --- --- ------ ------ ---- -- ------<br>------- --- ------ ----- --- ---- ------- -- ---- --- --<br>------- ------,256222.79500000877,256220.89500000584,255838.491,255840.46000000671,255855.157,256238.475,,22,the
screen,html.Screen,1_1_1_1_23,2021-04-20T10:37:51.858Z,,,,,,,,,,,,,,,,54,,,,,,,,,,,,,,286.23499999786145,,response,,,,100,,,,,,,Space,keypress(Space),,,,,,,,-- --- ---- --- ------ ----- ------- ---- -- --- ------- --<br>------- ---------- ------ -- ----- -- ----- -- ---- ------<br>--- state --- --- ------ -------- ----- --- ------ ----- --<br>----- ----- ---------- --- --- ------ ------ ---- -- ------<br>------- --- ------ ----- --- ---- ------- -- ---- --- --<br>------- ------,256526.52499999385,256524.70999999787,256221.809,256223.0649999983,256238.475,256538.463,,23,state
screen,html.Screen,1_1_1_1_24,2021-04-20T10:37:52.208Z,,,,,,,,,,,,,,,,54,,,,,,,,,,,,,,335.07199999154545,,response,,,,100,,,,,,,Space,keypress(Space),,,,,,,,-- --- ---- --- ------ ----- ------- ---- -- --- ------- --<br>------- ---------- ------ -- ----- -- ----- -- ---- ------<br>--- ----- cut --- ------ -------- ----- --- ------ ----- --<br>----- ----- ---------- --- --- ------ ------ ---- -- ------<br>------- --- ------ ----- --- ---- ------- -- ---- --- --<br>------- ------,256875.72999999975,256873.53499999153,256521.797,256526.6549999942,256538.463,256888.449,,24,cut
screen,html.Screen,1_1_1_1_25,2021-04-20T10:37:52.590Z,,,,,,,,,,,,,,,,54,,,,,,,,,,,,,,367.6309999919322,,response,,,,100,,,,,,,Space,keypress(Space),,,,,,,,-- --- ---- --- ------ ----- ------- ---- -- --- ------- --<br>------- ---------- ------ -- ----- -- ----- -- ---- ------<br>--- ----- --- the ------ -------- ----- --- ------ ----- --<br>----- ----- ---------- --- --- ------ ------ ---- -- ------<br>------- --- ------ ----- --- ---- ------- -- ---- --- --<br>------- ------,257257.97999999486,257256.07999999193,256871.783,256875.91500001145,256888.449,257271.767,,25,the
screen,html.Screen,1_1_1_1_26,2021-04-20T10:37:52.950Z,,,,,,,,,,,,,,,,54,,,,,,,,,,,,,,344.17799999774434,,response,,,,100,,,,,,,Space,keypress(Space),,,,,,,,-- --- ---- --- ------ ----- ------- ---- -- --- ------- --<br>------- ---------- ------ -- ----- -- ----- -- ---- ------<br>--- ----- --- --- bonds' -------- ----- --- ------ ----- --<br>----- ----- ---------- --- --- ------ ------ ---- -- ------<br>------- --- ------ ----- --- ---- ------- -- ---- --- --<br>------- ------,257617.78999998933,257615.94499999774,257255.101,257258.10499998624,257271.767,257621.753,,26,bonds'
screen,html.Screen,1_1_1_1_27,2021-04-20T10:37:53.343Z,,,,,,,,,,,,,,,,54,,,,,,,,,,,,,,387.97200001080637,,response,,,,100,,,,,,,Space,keypress(Space),,,,,,,,-- --- ---- --- ------ ----- ------- ---- -- --- ------- --<br>------- ---------- ------ -- ----- -- ----- -- ---- ------<br>--- ----- --- --- ------ interest ----- --- ------ ----- --<br>----- ----- ---------- --- --- ------ ------ ---- -- ------<br>------- --- ------ ----- --- ---- ------- -- ---- --- --<br>------- ------,258011.65000000037,258009.7250000108,257605.087,257617.91000000085,257621.753,258021.737,,27,interest
screen,html.Screen,1_1_1_1_28,2021-04-20T10:37:53.726Z,,,,,,,,,,,,,,,,54,,,,,,,,,,,,,,370.498000006628,,response,,,,100,,,,,,,Space,keypress(Space),,,,,,,,-- --- ---- --- ------ ----- ------- ---- -- --- ------- --<br>------- ---------- ------ -- ----- -- ----- -- ---- ------<br>--- ----- --- --- ------ -------- rate. --- ------ ----- --<br>----- ----- ---------- --- --- ------ ------ ---- -- ------<br>------- --- ------ ----- --- ---- ------- -- ---- --- --<br>------- ------,258394.19500000076,258392.23500000662,258005.071,258011.8000000075,258021.737,258405.055,,28,rate.
screen,html.Screen,1_1_1_1_29,2021-04-20T10:37:54.311Z,,,,,,,,,,,,,,,,54,,,,,,,,,,,,,,572.1399999849382,,response,,,,100,,,,,,,Space,keypress(Space),,,,,,,,-- --- ---- --- ------ ----- ------- ---- -- --- ------- --<br>------- ---------- ------ -- ----- -- ----- -- ---- ------<br>--- ----- --- --- ------ -------- ----- The ------ ----- --<br>----- ----- ---------- --- --- ------ ------ ---- -- ------<br>------- --- ------ ----- --- ---- ------- -- ---- --- --<br>------- ------,258979.07000000123,258977.19499998493,258388.389,258394.31500001228,258405.055,258988.365,,29,The
screen,html.Screen,1_1_1_1_30,2021-04-20T10:37:54.851Z,,,,,,,,,,,,,,,,54,,,,,,,,,,,,,,528.8050000064541,,response,,,,100,,,,,,,Space,keypress(Space),,,,,,,,-- --- ---- --- ------ ----- ------- ---- -- --- ------- --<br>------- ---------- ------ -- ----- -- ----- -- ---- ------<br>--- ----- --- --- ------ -------- ----- --- market ----- --<br>----- ----- ---------- --- --- ------ ------ ---- -- ------<br>------- --- ------ ----- --- ---- ------- -- ---- --- --<br>------- ------,259518.9900000114,259517.17000000644,258971.699,258979.22499998822,258988.365,259521.677,,30,market
screen,html.Screen,1_1_1_1_31,2021-04-20T10:37:55.335Z,,,,,,,,,,,,,,,,54,,,,,,,,,,,,,,479.2929999936896,,response,,,,100,,,,,,,Space,keypress(Space),,,,,,,,-- --- ---- --- ------ ----- ------- ---- -- --- ------- --<br>------- ---------- ------ -- ----- -- ----- -- ---- ------<br>--- ----- --- --- ------ -------- ----- --- ------ value --<br>----- ----- ---------- --- --- ------ ------ ---- -- ------<br>------- --- ------ ----- --- ---- ------- -- ---- --- --<br>------- ------,260002.81499998528,260000.9699999937,259505.011,259519.15000000736,259521.677,260004.991,,31,value
screen,html.Screen,1_1_1_1_32,2021-04-20T10:37:55.728Z,,,,,,,,,,,,,,,,54,,,,,,,,,,,,,,389.7789999844099,,response,,,,100,,,,,,,Space,keypress(Space),,,,,,,,-- --- ---- --- ------ ----- ------- ---- -- --- ------- --<br>------- ---------- ------ -- ----- -- ----- -- ---- ------<br>--- ----- --- --- ------ -------- ----- --- ------ ----- of<br>----- ----- ---------- --- --- ------ ------ ---- -- ------<br>------- --- ------ ----- --- ---- ------- -- ---- --- --<br>------- ------,260396.6650000075,260394.76999998442,259988.325,260003.0250000127,260004.991,260405.399,,32,of
screen,html.Screen,1_1_1_1_33,2021-04-20T10:37:56.145Z,,,,,,,,,,,,,,,,54,,,,,,,,,,,,,,405.5859999891545,,response,,,,100,,,,,,,Space,keypress(Space),,,,,,,,-- --- ---- --- ------ ----- ------- ---- -- --- ------- --<br>------- ---------- ------ -- ----- -- ----- -- ---- ------<br>--- ----- --- --- ------ -------- ----- --- ------ ----- --<br>these ----- ---------- --- --- ------ ------ ---- -- ------<br>------- --- ------ ----- --- ---- ------- -- ---- --- --<br>------- ------,260812.83000000985,260810.98499998916,260388.733,260396.84000000125,260405.399,260822.049,,33,these
screen,html.Screen,1_1_1_1_34,2021-04-20T10:37:56.572Z,,,,,,,,,,,,,,,,54,,,,,,,,,,,,,,416.3510000020033,,response,,,,100,,,,,,,Space,keypress(Space),,,,,,,,-- --- ---- --- ------ ----- ------- ---- -- --- ------- --<br>------- ---------- ------ -- ----- -- ----- -- ---- ------<br>--- ----- --- --- ------ -------- ----- --- ------ ----- --<br>----- bonds ---------- --- --- ------ ------ ---- -- ------<br>------- --- ------ ----- --- ---- ------- -- ---- --- --<br>------- ------,261240.19000001135,261238.400000002,260805.383,260813.04999999702,260822.049,261255.365,,34,bonds
screen,html.Screen,1_1_1_1_35,2021-04-20T10:37:57.045Z,,,,,,,,,,,,,,,,54,,,,,,,,,,,,,,455.61500000348315,,response,,,,100,,,,,,,Space,keypress(Space),,,,,,,,"-- --- ---- --- ------ ----- ------- ---- -- --- ------- --<br>------- ---------- ------ -- ----- -- ----- -- ---- ------<br>--- ----- --- --- ------ -------- ----- --- ------ ----- --<br>----- ----- plummeted, --- --- ------ ------ ---- -- ------<br>------- --- ------ ----- --- ---- ------- -- ---- --- --<br>------- ------",261712.81500000623,261710.98000000347,261238.699,261240.31500000274,261255.365,261722.013,,35,"plummeted,"
screen,html.Screen,1_1_1_1_36,2021-04-20T10:37:57.495Z,,,,,,,,,,,,,,,,54,,,,,,,,,,,,,,438.90699999479693,,response,,,,100,,,,,,,Space,keypress(Space),,,,,,,,-- --- ---- --- ------ ----- ------- ---- -- --- ------- --<br>------- ---------- ------ -- ----- -- ----- -- ---- ------<br>--- ----- --- --- ------ -------- ----- --- ------ ----- --<br>----- ----- ---------- and --- ------ ------ ---- -- ------<br>------- --- ------ ----- --- ---- ------- -- ---- --- --<br>------- ------,262162.7950000111,262160.9199999948,261705.347,261712.98499999102,261722.013,262171.995,,36,and
screen,html.Screen,1_1_1_1_37,2021-04-20T10:37:57.911Z,,,,,,,,,,,,,,,,54,,,,,,,,,,,,,,405.3099999843398,,response,,,,100,,,,,,,Space,keypress(Space),,,,,,,,-- --- ---- --- ------ ----- ------- ---- -- --- ------- --<br>------- ---------- ------ -- ----- -- ----- -- ---- ------<br>--- ----- --- --- ------ -------- ----- --- ------ ----- --<br>----- ----- ---------- --- the ------ ------ ---- -- ------<br>------- --- ------ ----- --- ---- ------- -- ---- --- --<br>------- ------,262579.2749999964,262577.30499998434,262155.329,262162.9449999891,262171.995,262588.645,,37,the
screen,html.Screen,1_1_1_1_38,2021-04-20T10:37:58.327Z,,,,,,,,,,,,,,,,54,,,,,,,,,,,,,,404.8200000068173,,response,,,,100,,,,,,,Space,keypress(Space),,,,,,,,-- --- ---- --- ------ ----- ------- ---- -- --- ------- --<br>------- ---------- ------ -- ----- -- ----- -- ---- ------<br>--- ----- --- --- ------ -------- ----- --- ------ ----- --<br>----- ----- ---------- --- --- market ------ ---- -- ------<br>------- --- ------ ----- --- ---- ------- -- ---- --- --<br>------- ------,262995.4049999942,262993.46500000684,262571.979,262579.4300000125,262588.645,263005.295,,38,market
screen,html.Screen,1_1_1_1_39,2021-04-20T10:37:58.710Z,,,,,,,,,,,,,,,,54,,,,,,,,,,,,,,370.689999991504,,response,,,,100,,,,,,,Space,keypress(Space),,,,,,,,-- --- ---- --- ------ ----- ------- ---- -- --- ------- --<br>------- ---------- ------ -- ----- -- ----- -- ---- ------<br>--- ----- --- --- ------ -------- ----- --- ------ ----- --<br>----- ----- ---------- --- --- ------ became ---- -- ------<br>------- --- ------ ----- --- ---- ------- -- ---- --- --<br>------- ------,263377.91000001016,263375.9849999915,262988.629,262995.5250000057,263005.295,263388.613,,39,became
screen,html.Screen,1_1_1_1_40,2021-04-20T10:37:59.137Z,,,,,,,,,,,,,,,,54,,,,,,,,,,,,,,414.8370000066934,,response,,,,100,,,,,,,Space,keypress(Space),,,,,,,,-- --- ---- --- ------ ----- ------- ---- -- --- ------- --<br>------- ---------- ------ -- ----- -- ----- -- ---- ------<br>--- ----- --- --- ------ -------- ----- --- ------ ----- --<br>----- ----- ---------- --- --- ------ ------ wary -- ------<br>------- --- ------ ----- --- ---- ------- -- ---- --- --<br>------- ------,263805.31999998493,263803.4500000067,263371.947,263378.03500000155,263388.613,263821.929,,40,wary
screen,html.Screen,1_1_1_1_41,2021-04-20T10:37:59.508Z,,,,,,,,,,,,,,,,54,,,,,,,,,,,,,,352.8009999988135,,response,,,,100,,,,,,,Space,keypress(Space),,,,,,,,-- --- ---- --- ------ ----- ------- ---- -- --- ------- --<br>------- ---------- ------ -- ----- -- ----- -- ---- ------<br>--- ----- --- --- ------ -------- ----- --- ------ ----- --<br>----- ----- ---------- --- --- ------ ------ ---- of ------<br>------- --- ------ ----- --- ---- ------- -- ---- --- --<br>------- ------,264176.5899999882,264174.7299999988,263805.263,263805.43999999645,263821.929,264188.581,,41,of
screen,html.Screen,1_1_1_1_42,2021-04-20T10:37:59.891Z,,,,,,,,,,,,,,,,54,,,,,,,,,,,,,,368.6739999924321,,response,,,,100,,,,,,,Space,keypress(Space),,,,,,,,-- --- ---- --- ------ ----- ------- ---- -- --- ------- --<br>------- ---------- ------ -- ----- -- ----- -- ---- ------<br>--- ----- --- --- ------ -------- ----- --- ------ ----- --<br>----- ----- ---------- --- --- ------ ------ ---- -- French<br>------- --- ------ ----- --- ---- ------- -- ---- --- --<br>------- ------,264559.31000001146,264557.25499999244,264171.915,264176.78499998874,264188.581,264571.899,,42,French
screen,html.Screen,1_1_1_1_43,2021-04-20T10:38:00.296Z,,,,,,,,,,,,,,,,54,,,,,,,,,,,,,,390.3460000024643,,response,,,,100,,,,,,,Space,keypress(Space),,,,,,,,-- --- ---- --- ------ ----- ------- ---- -- --- ------- --<br>------- ---------- ------ -- ----- -- ----- -- ---- ------<br>--- ----- --- --- ------ -------- ----- --- ------ ----- --<br>----- ----- ---------- --- --- ------ ------ ---- -- ------<br>credit. --- ------ ----- --- ---- ------- -- ---- --- --<br>------- ------,264964.10499999183,264962.24500000244,264555.233,264559.43500000285,264571.899,264971.883,,43,credit.
screen,html.Screen,1_1_1_1_44,2021-04-20T10:38:00.847Z,,,,,,,,,,,,,,,,54,,,,,,,,,,,,,,541.7619999991148,,response,,,,100,,,,,,,Space,keypress(Space),,,,,,,,-- --- ---- --- ------ ----- ------- ---- -- --- ------- --<br>------- ---------- ------ -- ----- -- ----- -- ---- ------<br>--- ----- --- --- ------ -------- ----- --- ------ ----- --<br>----- ----- ---------- --- --- ------ ------ ---- -- ------<br>------- The ------ ----- --- ---- ------- -- ---- --- --<br>------- ------,265515.4449999973,265513.6449999991,264955.217,264964.22500000335,264971.883,265521.861,,44,The
screen,html.Screen,1_1_1_1_45,2021-04-20T10:38:01.275Z,,,,,,,,,,,,,,,,54,,,,,,,,,,,,,,419.25900000316324,,response,,,,100,,,,,,,Space,keypress(Space),,,,,,,,-- --- ---- --- ------ ----- ------- ---- -- --- ------- --<br>------- ---------- ------ -- ----- -- ----- -- ---- ------<br>--- ----- --- --- ------ -------- ----- --- ------ ----- --<br>----- ----- ---------- --- --- ------ ------ ---- -- ------<br>------- --- French ----- --- ---- ------- -- ---- --- --<br>------- ------,265942.99499999033,265941.12000000314,265505.195,265515.63000000897,265521.861,265955.177,,45,French
screen,html.Screen,1_1_1_1_46,2021-04-20T10:38:01.635Z,,,,,,,,,,,,,,,,54,,,,,,,,,,,,,,345.93800000927877,,response,,,,100,,,,,,,Space,keypress(Space),,,,,,,,-- --- ---- --- ------ ----- ------- ---- -- --- ------- --<br>------- ---------- ------ -- ----- -- ----- -- ---- ------<br>--- ----- --- --- ------ -------- ----- --- ------ ----- --<br>----- ----- ---------- --- --- ------ ------ ---- -- ------<br>------- --- ------ state --- ---- ------- -- ---- --- --<br>------- ------,266303.0549999967,266301.1150000093,265938.511,265943.26999998884,265955.177,266305.163,,46,state
screen,html.Screen,1_1_1_1_47,2021-04-20T10:38:02.028Z,,,,,,,,,,,,,,,,54,,,,,,,,,,,,,,389.61699999071425,,response,,,,100,,,,,,,Space,keypress(Space),,,,,,,,-- --- ---- --- ------ ----- ------- ---- -- --- ------- --<br>------- ---------- ------ -- ----- -- ----- -- ---- ------<br>--- ----- --- --- ------ -------- ----- --- ------ ----- --<br>----- ----- ---------- --- --- ------ ------ ---- -- ------<br>------- --- ------ ----- was ---- ------- -- ---- --- --<br>------- ------,266696.7449999938,266694.7799999907,266288.497,266303.270000004,266305.163,266705.147,,47,was
screen,html.Screen,1_1_1_1_48,2021-04-20T10:38:02.377Z,,,,,,,,,,,,,,,,54,,,,,,,,,,,,,,338.3580000087386,,response,,,,100,,,,,,,Space,keypress(Space),,,,,,,,-- --- ---- --- ------ ----- ------- ---- -- --- ------- --<br>------- ---------- ------ -- ----- -- ----- -- ---- ------<br>--- ----- --- --- ------ -------- ----- --- ------ ----- --<br>----- ----- ---------- --- --- ------ ------ ---- -- ------<br>------- --- ------ ----- --- left ------- -- ---- --- --<br>------- ------,267045.6450000056,267043.50500000874,266688.481,266696.8749999942,266705.147,267055.133,,48,left
screen,html.Screen,1_1_1_1_49,2021-04-20T10:38:02.771Z,,,,,,,,,,,,,,,,54,,,,,,,,,,,,,,382.2819999930798,,response,,,,100,,,,,,,Space,keypress(Space),,,,,,,,-- --- ---- --- ------ ----- ------- ---- -- --- ------- --<br>------- ---------- ------ -- ----- -- ----- -- ---- ------<br>--- ----- --- --- ------ -------- ----- --- ------ ----- --<br>----- ----- ---------- --- --- ------ ------ ---- -- ------<br>------- --- ------ ----- --- ---- without -- ---- --- --<br>------- ------,267439.3749999872,267437.41499999305,267038.467,267045.7999999926,267055.133,267455.117,,49,without
screen,html.Screen,1_1_1_1_50,2021-04-20T10:38:03.097Z,,,,,,,,,,,,,,,,54,,,,,,,,,,,,,,308.56800001260126,,response,,,,100,,,,,,,Space,keypress(Space),,,,,,,,-- --- ---- --- ------ ----- ------- ---- -- --- ------- --<br>------- ---------- ------ -- ----- -- ----- -- ---- ------<br>--- ----- --- --- ------ -------- ----- --- ------ ----- --<br>----- ----- ---------- --- --- ------ ------ ---- -- ------<br>------- --- ------ ----- --- ---- ------- an ---- --- --<br>------- ------,267765.5899999954,267763.6850000126,267438.451,267439.48999998975,267455.117,267771.771,,50,an
screen,html.Screen,1_1_1_1_51,2021-04-20T10:38:03.446Z,,,,,,,,,,,,,,,,54,,,,,,,,,,,,,,340.59400000813184,,response,,,,100,,,,,,,Space,keypress(Space),,,,,,,,-- --- ---- --- ------ ----- ------- ---- -- --- ------- --<br>------- ---------- ------ -- ----- -- ----- -- ---- ------<br>--- ----- --- --- ------ -------- ----- --- ------ ----- --<br>----- ----- ---------- --- --- ------ ------ ---- -- ------<br>------- --- ------ ----- --- ---- ------- -- easy --- --<br>------- ------,268114.39000000246,268112.36500000814,267755.105,267765.82000000053,267771.771,268121.757,,51,easy
screen,html.Screen,1_1_1_1_52,2021-04-20T10:38:03.795Z,,,,,,,,,,,,,,,,54,,,,,,,,,,,,,,339.45799998845905,,response,,,,100,,,,,,,Space,keypress(Space),,,,,,,,-- --- ---- --- ------ ----- ------- ---- -- --- ------- --<br>------- ---------- ------ -- ----- -- ----- -- ---- ------<br>--- ----- --- --- ------ -------- ----- --- ------ ----- --<br>----- ----- ---------- --- --- ------ ------ ---- -- ------<br>------- --- ------ ----- --- ---- ------- -- ---- way --<br>------- ------,268463.2500000007,268461.21499998844,268105.091,268114.5250000118,268121.757,268471.743,,52,way
screen,html.Screen,1_1_1_1_53,2021-04-20T10:38:04.110Z,,,,,,,,,,,,,,,,54,,,,,,,,,,,,,,304.28700000816025,,response,,,,100,,,,,,,Space,keypress(Space),,,,,,,,-- --- ---- --- ------ ----- ------- ---- -- --- ------- --<br>------- ---------- ------ -- ----- -- ----- -- ---- ------<br>--- ----- --- --- ------ -------- ----- --- ------ ----- --<br>----- ----- ---------- --- --- ------ ------ ---- -- ------<br>------- --- ------ ----- --- ---- ------- -- ---- --- of<br>------- ------,268777.8699999908,268776.0300000082,268455.077,268463.3700000122,268471.743,268788.397,,53,of
screen,html.Screen,1_1_1_1_54,2021-04-20T10:38:04.425Z,,,,,,,,,,,,,,,,54,,,,,,,,,,,,,,302.8179999931017,,response,,,,100,,,,,,,Space,keypress(Space),,,,,,,,-- --- ---- --- ------ ----- ------- ---- -- --- ------- --<br>------- ---------- ------ -- ----- -- ----- -- ---- ------<br>--- ----- --- --- ------ -------- ----- --- ------ ----- --<br>----- ----- ---------- --- --- ------ ------ ---- -- ------<br>------- --- ------ ----- --- ---- ------- -- ---- --- --<br>raising ------,269093.11499999603,269091.2149999931,268771.731,268778.02999998676,268788.397,269105.051,,54,raising
screen,html.Screen,1_1_1_1_55,2021-04-20T10:38:04.864Z,,,,,,,,,,,,,,,,54,,,,,,,,,,,,,,424.82400000747293,,response,,,,100,,,,,,,Space,keypress(Space),,,,,,,,-- --- ---- --- ------ ----- ------- ---- -- --- ------- --<br>------- ---------- ------ -- ----- -- ----- -- ---- ------<br>--- ----- --- --- ------ -------- ----- --- ------ ----- --<br>----- ----- ---------- --- --- ------ ------ ---- -- ------<br>------- --- ------ ----- --- ---- ------- -- ---- --- --<br>------- money.,269531.8299999926,269529.87500000745,269088.385,269093.2399999874,269105.051,269538.367,,55,money.
Item 100,flow.Loop,1_1_1_1,2021-04-20T10:38:04.864Z,,,,,,,,,,,,,,,,,,,,,,,,,,,,,,23674.73200000744,,completion,,,,,E,,,,,,,,,,,silence,,,,,269532.1849999891,269529.87500000745,245838.477,245839.55000000424,245855.143,269538.367,,,
Question 1,html.Screen,1_1_1_2,2021-04-20T10:38:08.881Z,,,,,,,,,,,,,,,,,,,,,,,,,,,true,TRUE,,4008.883000003232,,response,,,,100,E,,,,,,TRUE,click #choice-1,,,,silence,,,,,273549.31000000215,273547.25000000326,269521.701,269532.28499999386,269538.367,273555.288,,,
Question 2,html.Screen,1_1_1_3,2021-04-20T10:38:12.999Z,,,,,,,,,,,,,,,,,,,,,,,,,,,true,FALSE,,4109.677000003576,,response,,,,100,E,,,,,,FALSE,click #choice-2,,,,silence,,,,,277667.40999999456,277664.9650000036,273538.622,273549.4450000115,273555.288,277688.456,,,
Item 100,flow.Sequence,1_1_1,2021-04-20T10:38:12.999Z,,,,,,,,,,,,,,,,,,,,,,,,,,,,,,41809.82600000358,,completion,,,,,,,,,,,,,,,,,,,,,277667.7449999843,277664.9650000036,235838.473,235839.3250000081,235855.139,277688.456,,,
End of Practice,html.Page,1_1_2,2021-04-20T10:38:20.570Z,,,,,,,,,,,,,,,,,,,,,,,,,,,,,,7549.7540000104345,,form submission,,,,,,,,,,,,,,,,,,,,,285238.45499998424,285238.21000001044,277671.79,277667.85500000697,277688.456,285255.405,,,
Practice,flow.Sequence,1_1,2021-04-20T10:38:20.570Z,,,,,,,,,,,,,,,,,,,,,,,,,,,,,,94782.91200001043,,completion,,,,,,,,,,,,,,,,,,,,,285238.6450000049,285238.21000001044,190438.632,190459.514999995,190455.298,285255.405,,,
Trap_instruction,html.Page,1_2_0,2021-04-20T10:38:27.388Z,,,,,,,,,,,,,,,,,,,,,,,,,,,,,,6800.785000002943,,form submission,,,,,,,,,,,,,,,,,,,,,292056.4299999969,292056.190000003,285238.739,285238.8449999853,285255.405,292071.799,,,
trap_trial,html.Screen,1_2_1,2021-04-20T10:38:30.391Z,,,,,,,,,,,,,,,,,,,,,,,,,,,true,1,,2985.77100000449,,response,,,,,,,,,,,1,click #choice-1,,,,,,,,,295059.57499999204,295057.5700000045,292055.133,292056.5500000084,292071.799,295088.345,,,
end of trap trial,html.Page,1_2_2,2021-04-20T10:38:32.844Z,,,,,,,,,,,,,,,,,,,,,,,,,,,,,,2424.165000000503,,form submission,,,,,,,,,,,,,,,,,,,,,297512.784999999,297512.5100000005,295071.679,295059.7199999902,295088.345,297538.655,,,
Trap 1,flow.Sequence,1_2,2021-04-20T10:38:32.844Z,,,,,,,,,,,,,,,,,,,,,,,,,,,,,,12257.105000000447,,completion,,,,,,,,,,,,,,,,,,,,,297513.0249999929,297512.5100000005,285238.739,285238.7649999873,285255.405,297538.655,,,
Standby,html.Page,1_3_0,2021-04-20T10:38:40.855Z,,,,,,,,,,,,,,,,,,,,,,,,,,,,,,7999.679999999993,,timeout,,,,,,,,,,,,,,,,,,,,,305523.7699999998,305521.669,297521.989,297513.1849999889,297538.655,305538.335,,,
Holding screen,html.Screen,1_3_1_0_0,2021-04-20T10:38:47.854Z,,,,,,,,,,,,,,,,,,,,,,,,,,,,,,7000.143999999971,,timeout,,,,,,,,,,,,,,,,,,,,,312523.199999996,312521.813,305521.669,305523.98999998695,305538.335,312538.479,,,
screen,html.Screen,1_3_1_0_1_0,2021-04-20T10:38:48.615Z,,,,,,,,,,,,,,,,15,,,,,,,,,,,,,,743.1909999966738,,response,,,,7,E,,,,,,Space,keypress(Space),,,,lyrical,,,,Greg --------- ---------- - --- ------- -- --- ------------<br>----- -- -------- ------- ---- ------ - -------- ---- -----<br>--- ------- ---- -- --- -------- --- - ----- ------ ---- --<br>-------- --- -------- -------- --- -------- ---- -- ----- -<br>-------- ---- --- ---------- --------- -- ------- ------ -<br>--------- ----- -----,313284.20500000357,313281.66999999667,312521.813,312523.3949999965,312538.479,313288.449,,0,Greg
screen,html.Screen,1_3_1_0_1_1,2021-04-20T10:38:48.941Z,,,,,,,,,,,,,,,,15,,,,,,,,,,,,,,319.48099999828264,,response,,,,7,E,,,,,,Space,keypress(Space),,,,lyrical,,,,"---- Anderson, ---------- - --- ------- -- --- ------------<br>----- -- -------- ------- ---- ------ - -------- ---- -----<br>--- ------- ---- -- --- -------- --- - ----- ------ ---- --<br>-------- --- -------- -------- --- -------- ---- -- ----- -<br>-------- ---- --- ---------- --------- -- ------- ------ -<br>--------- ----- -----",313610.1550000021,313607.9299999983,313271.783,313284.3500000017,313288.449,313621.769,,1,"Anderson,"
screen,html.Screen,1_3_1_0_1_2,2021-04-20T10:38:49.380Z,,,,,,,,,,,,,,,,15,,,,,,,,,,,,,,424.9059999905294,,response,,,,7,E,,,,,,Space,keypress(Space),,,,lyrical,,,,---- --------- considered - --- ------- -- --- ------------<br>----- -- -------- ------- ---- ------ - -------- ---- -----<br>--- ------- ---- -- --- -------- --- - ----- ------ ---- --<br>-------- --- -------- -------- --- -------- ---- -- ----- -<br>-------- ---- --- ---------- --------- -- ------- ------ -<br>--------- ----- -----,314048.5150000022,314046.6749999905,313605.103,313610.3749999893,313621.769,314055.085,,2,considered
screen,html.Screen,1_3_1_0_1_3,2021-04-20T10:38:49.762Z,,,,,,,,,,,,,,,,15,,,,,,,,,,,,,,374.06500001082895,,response,,,,7,E,,,,,,Space,keypress(Space),,,,lyrical,,,,---- --------- ---------- a --- ------- -- --- ------------<br>----- -- -------- ------- ---- ------ - -------- ---- -----<br>--- ------- ---- -- --- -------- --- - ----- ------ ---- --<br>-------- --- -------- -------- --- -------- ---- -- ----- -<br>-------- ---- --- ---------- --------- -- ------- ------ -<br>--------- ----- -----,314431.1250000028,314429.15000001085,314038.419,314048.63499998464,314055.085,314438.403,,3,a
screen,html.Screen,1_3_1_0_1_4,2021-04-20T10:38:50.133Z,,,,,,,,,,,,,,,,15,,,,,,,,,,,,,,361.93699998705415,,response,,,,7,E,,,,,,Space,keypress(Space),,,,lyrical,,,,---- --------- ---------- - key ------- -- --- ------------<br>----- -- -------- ------- ---- ------ - -------- ---- -----<br>--- ------- ---- -- --- -------- --- - ----- ------ ---- --<br>-------- --- -------- -------- --- -------- ---- -- ----- -<br>-------- ---- --- ---------- --------- -- ------- ------ -<br>--------- ----- -----,314802.2650000057,314800.33999998705,314421.737,314431.25500000315,314438.403,314805.055,,4,key
screen,html.Screen,1_3_1_0_1_5,2021-04-20T10:38:50.448Z,,,,,,,,,,,,,,,,15,,,,,,,,,,,,,,310.2499999848078,,response,,,,7,E,,,,,,Space,keypress(Space),,,,lyrical,,,,---- --------- ---------- - --- witness -- --- ------------<br>----- -- -------- ------- ---- ------ - -------- ---- -----<br>--- ------- ---- -- --- -------- --- - ----- ------ ---- --<br>-------- --- -------- -------- --- -------- ---- -- ----- -<br>-------- ---- --- ---------- --------- -- ------- ------ -<br>--------- ----- -----,315117.2300000035,315115.3049999848,314788.389,314802.38499998813,314805.055,315121.709,,5,witness
screen,html.Screen,1_3_1_0_1_6,2021-04-20T10:38:50.786Z,,,,,,,,,,,,,,,,15,,,,,,,,,,,,,,331.2560000040685,,response,,,,7,E,,,,,,Space,keypress(Space),,,,lyrical,,,,---- --------- ---------- - --- ------- by --- ------------<br>----- -- -------- ------- ---- ------ - -------- ---- -----<br>--- ------- ---- -- --- -------- --- - ----- ------ ---- --<br>-------- --- -------- -------- --- -------- ---- -- ----- -<br>-------- ---- --- ---------- --------- -- ------- ------ -<br>--------- ----- -----,315454.78999998886,315452.96500000404,315105.043,315117.4600000086,315121.709,315471.695,,6,by
screen,html.Screen,1_3_1_0_1_7,2021-04-20T10:38:51.146Z,,,,,,,,,,,,,,,,15,,,,,,,,,,,,,,341.1350000098464,,response,,,,7,E,,,,,,Space,keypress(Space),,,,lyrical,,,,---- --------- ---------- - --- ------- -- the ------------<br>----- -- -------- ------- ---- ------ - -------- ---- -----<br>--- ------- ---- -- --- -------- --- - ----- ------ ---- --<br>-------- --- -------- -------- --- -------- ---- -- ----- -<br>-------- ---- --- ---------- --------- -- ------- ------ -<br>--------- ----- -----,315814.7600000084,315812.83000000985,315455.029,315454.9100000004,315471.695,315821.681,,7,the
screen,html.Screen,1_3_1_0_1_8,2021-04-20T10:38:51.382Z,,,,,,,,,,,,,,,,15,,,,,,,,,,,,,,227.57399999082554,,response,,,,7,E,,,,,,Space,keypress(Space),,,,lyrical,,,,"---- --------- ---------- - --- ------- -- --- prosecution,<br>----- -- -------- ------- ---- ------ - -------- ---- -----<br>--- ------- ---- -- --- -------- --- - ----- ------ ---- --<br>-------- --- -------- -------- --- -------- ---- -- ----- -<br>-------- ---- --- ---------- --------- -- ------- ------ -<br>--------- ----- -----",316051.09500000253,316049.2549999908,315805.015,315814.8799999908,315821.681,316055.005,,8,"prosecution,"
screen,html.Screen,1_3_1_0_1_9,2021-04-20T10:38:51.596Z,,,,,,,,,,,,,,,,15,,,,,,,,,,,,,,207.8899999925634,,response,,,,7,E,,,,,,Space,keypress(Space),,,,lyrical,,,,---- --------- ---------- - --- ------- -- --- ------------<br>vowed -- -------- ------- ---- ------ - -------- ---- -----<br>--- ------- ---- -- --- -------- --- - ----- ------ ---- --<br>-------- --- -------- -------- --- -------- ---- -- ----- -<br>-------- ---- --- ---------- --------- -- ------- ------ -<br>--------- ----- -----,316264.8150000023,316262.89499999257,316038.339,316051.2250000029,316055.005,316272.075,,9,vowed
screen,html.Screen,1_3_1_0_1_10,2021-04-20T10:38:52.485Z,,,,,,,,,,,,,,,,15,,,,,,,,,,,,,,879.6949999967474,,response,,,,7,E,,,,,,Space,keypress(Space),,,,lyrical,,,,---- --------- ---------- - --- ------- -- --- ------------<br>----- he -------- ------- ---- ------ - -------- ---- -----<br>--- ------- ---- -- --- -------- --- - ----- ------ ---- --<br>-------- --- -------- -------- --- -------- ---- -- ----- -<br>-------- ---- --- ---------- --------- -- ------- ------ -<br>--------- ----- -----,317153.75500000664,317151.76999999676,316255.409,316264.93999999366,316272.075,317155.373,,10,he
screen,html.Screen,1_3_1_0_1_11,2021-04-20T10:38:52.867Z,,,,,,,,,,,,,,,,15,,,,,,,,,,,,,,379.00199998833705,,response,,,,7,E,,,,,,Space,keypress(Space),,,,lyrical,,,,---- --------- ---------- - --- ------- -- --- ------------<br>----- -- wouldn't ------- ---- ------ - -------- ---- -----<br>--- ------- ---- -- --- -------- --- - ----- ------ ---- --<br>-------- --- -------- -------- --- -------- ---- -- ----- -<br>-------- ---- --- ---------- --------- -- ------- ------ -<br>--------- ----- -----,317536.2449999957,317534.37499998836,317138.707,317153.87499998906,317155.373,317538.691,,11,wouldn't
screen,html.Screen,1_3_1_0_1_12,2021-04-20T10:38:53.227Z,,,,,,,,,,,,,,,,15,,,,,,,,,,,,,,355.5289999874076,,response,,,,7,E,,,,,,Space,keypress(Space),,,,lyrical,,,,---- --------- ---------- - --- ------- -- --- ------------<br>----- -- -------- testify ---- ------ - -------- ---- -----<br>--- ------- ---- -- --- -------- --- - ----- ------ ---- --<br>-------- --- -------- -------- --- -------- ---- -- ----- -<br>-------- ---- --- ---------- --------- -- ------- ------ -<br>--------- ----- -----,317896.1600000039,317894.2199999874,317522.025,317536.3699999871,317538.691,317905.343,,12,testify
screen,html.Screen,1_3_1_0_1_13,2021-04-20T10:38:53.599Z,,,,,,,,,,,,,,,,15,,,,,,,,,,,,,,360.0219999992987,,response,,,,7,E,,,,,,Space,keypress(Space),,,,lyrical,,,,---- --------- ---------- - --- ------- -- --- ------------<br>----- -- -------- ------- when ------ - -------- ---- -----<br>--- ------- ---- -- --- -------- --- - ----- ------ ---- --<br>-------- --- -------- -------- --- -------- ---- -- ----- -<br>-------- ---- --- ---------- --------- -- ------- ------ -<br>--------- ----- -----,318267.3450000002,318265.3649999993,317888.677,317896.2799999863,317905.343,318271.995,,13,when
screen,html.Screen,1_3_1_0_1_14,2021-04-20T10:38:54.071Z,,,,,,,,,,,,,,,,15,,,,,,,,,,,,,,465.98999998520594,,response,,,,7,E,,,,,,Space,keypress(Space),,,,lyrical,,,,---- --------- ---------- - --- ------- -- --- ------------<br>----- -- -------- ------- ---- served - -------- ---- -----<br>--- ------- ---- -- --- -------- --- - ----- ------ ---- --<br>-------- --- -------- -------- --- -------- ---- -- ----- -<br>-------- ---- --- ---------- --------- -- ------- ------ -<br>--------- ----- -----,318739.8749999993,318737.9849999852,318255.329,318267.47500000056,318271.995,318755.309,,14,served
screen,html.Screen,1_3_1_0_1_15,2021-04-20T10:38:54.442Z,,,,,,,,,,,,,,,,15,,,,,,,,,,,,,,353.85099999269005,,response,,,,7,E,,,,,,Space,keypress(Space),,,,lyrical,,,,---- --------- ---------- - --- ------- -- --- ------------<br>----- -- -------- ------- ---- ------ a -------- ---- -----<br>--- ------- ---- -- --- -------- --- - ----- ------ ---- --<br>-------- --- -------- -------- --- -------- ---- -- ----- -<br>-------- ---- --- ---------- --------- -- ------- ------ -<br>--------- ----- -----,319111.2049999938,319109.1599999927,318738.643,318740.0450000132,318755.309,319121.961,,15,a
screen,html.Screen,1_3_1_0_1_16,2021-04-20T10:38:54.802Z,,,,,,,,,,,,,,,,15,,,,,,,,,,,,,,347.2589999990305,,response,,,,7,E,,,,,,Space,keypress(Space),,,,lyrical,,,,---- --------- ---------- - --- ------- -- --- ------------<br>----- -- -------- ------- ---- ------ - subpoena ---- -----<br>--- ------- ---- -- --- -------- --- - ----- ------ ---- --<br>-------- --- -------- -------- --- -------- ---- -- ----- -<br>-------- ---- --- ---------- --------- -- ------- ------ -<br>--------- ----- -----,319471.2399999844,319469.21999999904,319105.295,319111.3400000031,319121.961,319471.947,,16,subpoena
screen,html.Screen,1_3_1_0_1_17,2021-04-20T10:38:55.399Z,,,,,,,,,,,,,,,,15,,,,,,,,,,,,,,593.6080000083311,,response,,,,7,E,,,,,,Space,keypress(Space),,,,lyrical,,,,---- --------- ---------- - --- ------- -- --- ------------<br>----- -- -------- ------- ---- ------ - -------- last -----<br>--- ------- ---- -- --- -------- --- - ----- ------ ---- --<br>-------- --- -------- -------- --- -------- ---- -- ----- -<br>-------- ---- --- ---------- --------- -- ------- ------ -<br>--------- ----- -----,320067.5200000114,320065.5550000083,319455.281,319471.3650000049,319471.947,320071.923,,17,last
screen,html.Screen,1_3_1_0_1_18,2021-04-20T10:38:56.107Z,,,,,,,,,,,,,,,,15,,,,,,,,,,,,,,702.2519999986398,,response,,,,7,E,,,,,,Space,keypress(Space),,,,lyrical,,,,---- --------- ---------- - --- ------- -- --- ------------<br>----- -- -------- ------- ---- ------ - -------- ---- week.<br>--- ------- ---- -- --- -------- --- - ----- ------ ---- --<br>-------- --- -------- -------- --- -------- ---- -- ----- -<br>-------- ---- --- ---------- --------- -- ------- ------ -<br>--------- ----- -----,320776.0849999904,320774.17499999865,320055.257,320067.63999999384,320071.923,320788.561,,18,week.
screen,html.Screen,1_3_1_0_1_19,2021-04-20T10:38:56.546Z,,,,,,,,,,,,,,,,15,,,,,,,,,,,,,,424.41400000220165,,response,,,,7,E,,,,,,Space,keypress(Space),,,,lyrical,,,,---- --------- ---------- - --- ------- -- --- ------------<br>----- -- -------- ------- ---- ------ - -------- ---- -----<br>His ------- ---- -- --- -------- --- - ----- ------ ---- --<br>-------- --- -------- -------- --- -------- ---- -- ----- -<br>-------- ---- --- ---------- --------- -- ------- ------ -<br>--------- ----- -----,321214.8950000119,321212.9750000022,320771.895,320776.20500000194,320788.561,321221.877,,19,His
screen,html.Screen,1_3_1_0_1_20,2021-04-20T10:38:57.041Z,,,,,,,,,,,,,,,,15,,,,,,,,,,,,,,485.97799998603296,,response,,,,7,E,,,,,,Space,keypress(Space),,,,lyrical,,,,---- --------- ---------- - --- ------- -- --- ------------<br>----- -- -------- ------- ---- ------ - -------- ---- -----<br>--- lawyers ---- -- --- -------- --- - ----- ------ ---- --<br>-------- --- -------- -------- --- -------- ---- -- ----- -<br>-------- ---- --- ---------- --------- -- ------- ------ -<br>--------- ----- -----,321709.7650000069,321707.854999986,321205.211,321215.0749999855,321221.877,321721.857,,20,lawyers
screen,html.Screen,1_3_1_0_1_21,2021-04-20T10:38:57.592Z,,,,,,,,,,,,,,,,15,,,,,,,,,,,,,,537.3729999960051,,response,,,,7,E,,,,,,Space,keypress(Space),,,,lyrical,,,,---- --------- ---------- - --- ------- -- --- ------------<br>----- -- -------- ------- ---- ------ - -------- ---- -----<br>--- ------- said -- --- -------- --- - ----- ------ ---- --<br>-------- --- -------- -------- --- -------- ---- -- ----- -<br>-------- ---- --- ---------- --------- -- ------- ------ -<br>--------- ----- -----,322261.1399999878,322259.229999996,321705.191,321709.990000003,321721.857,322271.835,,21,said
screen,html.Screen,1_3_1_0_1_22,2021-04-20T10:38:57.952Z,,,,,,,,,,,,,,,,15,,,,,,,,,,,,,,347.27499999961583,,response,,,,7,E,,,,,,Space,keypress(Space),,,,lyrical,,,,---- --------- ---------- - --- ------- -- --- ------------<br>----- -- -------- ------- ---- ------ - -------- ---- -----<br>--- ------- ---- he --- -------- --- - ----- ------ ---- --<br>-------- --- -------- -------- --- -------- ---- -- ----- -<br>-------- ---- --- ---------- --------- -- ------- ------ -<br>--------- ----- -----,322621.1149999872,322619.10999999964,322255.169,322261.2650000083,322271.835,322621.821,,22,he
screen,html.Screen,1_3_1_0_1_23,2021-04-20T10:38:58.290Z,,,,,,,,,,,,,,,,15,,,,,,,,,,,,,,334.9839999943506,,response,,,,7,E,,,,,,Space,keypress(Space),,,,lyrical,,,,---- --------- ---------- - --- ------- -- --- ------------<br>----- -- -------- ------- ---- ------ - -------- ---- -----<br>--- ------- ---- -- was -------- --- - ----- ------ ---- --<br>-------- --- -------- -------- --- -------- ---- -- ----- -<br>-------- ---- --- ---------- --------- -- ------- ------ -<br>--------- ----- -----,322958.64999998594,322956.80499999435,322605.155,322621.24499998754,322621.821,322971.807,,23,was
screen,html.Screen,1_3_1_0_1_24,2021-04-20T10:38:58.650Z,,,,,,,,,,,,,,,,15,,,,,,,,,,,,,,345.01799998717615,,response,,,,7,E,,,,,,Space,keypress(Space),,,,lyrical,,,,---- --------- ---------- - --- ------- -- --- ------------<br>----- -- -------- ------- ---- ------ - -------- ---- -----<br>--- ------- ---- -- --- prepared --- - ----- ------ ---- --<br>-------- --- -------- -------- --- -------- ---- -- ----- -<br>-------- ---- --- ---------- --------- -- ------- ------ -<br>--------- ----- -----,323318.94500000635,323316.82499998715,322955.141,322958.810000011,322971.807,323321.793,,24,prepared
screen,html.Screen,1_3_1_0_1_25,2021-04-20T10:38:59.010Z,,,,,,,,,,,,,,,,15,,,,,,,,,,,,,,354.9169999997248,,response,,,,7,E,,,,,,Space,keypress(Space),,,,lyrical,,,,---- --------- ---------- - --- ------- -- --- ------------<br>----- -- -------- ------- ---- ------ - -------- ---- -----<br>--- ------- ---- -- --- -------- for - ----- ------ ---- --<br>-------- --- -------- -------- --- -------- ---- -- ----- -<br>-------- ---- --- ---------- --------- -- ------- ------ -<br>--------- ----- -----,323678.58000000706,323676.70999999973,323305.127,323319.1349999979,323321.793,323688.445,,25,for
screen,html.Screen,1_3_1_0_1_26,2021-04-20T10:38:59.370Z,,,,,,,,,,,,,,,,15,,,,,,,,,,,,,,348.23000001028413,,response,,,,7,E,,,,,,Space,keypress(Space),,,,lyrical,,,,---- --------- ---------- - --- ------- -- --- ------------<br>----- -- -------- ------- ---- ------ - -------- ---- -----<br>--- ------- ---- -- --- -------- --- a ----- ------ ---- --<br>-------- --- -------- -------- --- -------- ---- -- ----- -<br>-------- ---- --- ---------- --------- -- ------- ------ -<br>--------- ----- -----,324038.4849999973,324036.6750000103,323671.779,323678.7149999873,323688.445,324055.097,,26,a
screen,html.Screen,1_3_1_0_1_27,2021-04-20T10:38:59.662Z,,,,,,,,,,,,,,,,15,,,,,,,,,,,,,,274.1629999986035,,response,,,,7,E,,,,,,Space,keypress(Space),,,,lyrical,,,,---- --------- ---------- - --- ------- -- --- ------------<br>----- -- -------- ------- ---- ------ - -------- ---- -----<br>--- ------- ---- -- --- -------- --- - third ------ ---- --<br>-------- --- -------- -------- --- -------- ---- -- ----- -<br>-------- ---- --- ---------- --------- -- ------- ------ -<br>--------- ----- -----,324331.1950000061,324329.2599999986,324038.431,324038.6099999887,324055.097,324338.419,,27,third
screen,html.Screen,1_3_1_0_1_28,2021-04-20T10:39:00.034Z,,,,,,,,,,,,,,,,15,,,,,,,,,,,,,,362.05599999055266,,response,,,,7,E,,,,,,Space,keypress(Space),,,,lyrical,,,,---- --------- ---------- - --- ------- -- --- ------------<br>----- -- -------- ------- ---- ------ - -------- ---- -----<br>--- ------- ---- -- --- -------- --- - ----- prison ---- --<br>-------- --- -------- -------- --- -------- ---- -- ----- -<br>-------- ---- --- ---------- --------- -- ------- ------ -<br>--------- ----- -----,324702.48499998706,324700.47499999055,324321.753,324331.46499999566,324338.419,324705.071,,28,prison
screen,html.Screen,1_3_1_0_1_29,2021-04-20T10:39:00.743Z,,,,,,,,,,,,,,,,15,,,,,,,,,,,,,,704.1889999858104,,response,,,,7,E,,,,,,Space,keypress(Space),,,,lyrical,,,,---- --------- ---------- - --- ------- -- --- ------------<br>----- -- -------- ------- ---- ------ - -------- ---- -----<br>--- ------- ---- -- --- -------- --- - ----- ------ stay --<br>-------- --- -------- -------- --- -------- ---- -- ----- -<br>-------- ---- --- ---------- --------- -- ------- ------ -<br>--------- ----- -----,325411.4000000118,325409.2599999858,324688.405,324702.61000000755,324705.071,325421.709,,29,stay
screen,html.Screen,1_3_1_0_1_30,2021-04-20T10:39:01.091Z,,,,,,,,,,,,,,,,15,,,,,,,,,,,,,,336.3359999950626,,response,,,,7,E,,,,,,Space,keypress(Space),,,,lyrical,,,,---- --------- ---------- - --- ------- -- --- ------------<br>----- -- -------- ------- ---- ------ - -------- ---- -----<br>--- ------- ---- -- --- -------- --- - ----- ------ ---- to<br>-------- --- -------- -------- --- -------- ---- -- ----- -<br>-------- ---- --- ---------- --------- -- ------- ------ -<br>--------- ----- -----,325760.02499999595,325758.04499999504,325405.043,325411.5199999942,325421.709,325771.695,,30,to
screen,html.Screen,1_3_1_0_1_31,2021-04-20T10:39:01.496Z,,,,,,,,,,,,,,,,15,,,,,,,,,,,,,,391.29500001162523,,response,,,,7,E,,,,,,Space,keypress(Space),,,,lyrical,,,,---- --------- ---------- - --- ------- -- --- ------------<br>----- -- -------- ------- ---- ------ - -------- ---- -----<br>--- ------- ---- -- --- -------- --- - ----- ------ ---- --<br>maintain --- -------- -------- --- -------- ---- -- ----- -<br>-------- ---- --- ---------- --------- -- ------- ------ -<br>--------- ----- -----,326165.19999998854,326162.99000001163,325755.029,325760.14999998733,325771.695,326171.679,,31,maintain
screen,html.Screen,1_3_1_0_1_32,2021-04-20T10:39:01.834Z,,,,,,,,,,,,,,,,15,,,,,,,,,,,,,,328.79600000800565,,response,,,,7,E,,,,,,Space,keypress(Space),,,,lyrical,,,,---- --------- ---------- - --- ------- -- --- ------------<br>----- -- -------- ------- ---- ------ - -------- ---- -----<br>--- ------- ---- -- --- -------- --- - ----- ------ ---- --<br>-------- his -------- -------- --- -------- ---- -- ----- -<br>-------- ---- --- ---------- --------- -- ------- ------ -<br>--------- ----- -----,326502.55499998457,326500.475000008,326155.013,326165.32000000007,326171.679,326504.999,,32,his
screen,html.Screen,1_3_1_0_1_33,2021-04-20T10:39:02.194Z,,,,,,,,,,,,,,,,15,,,,,,,,,,,,,,355.5259999964037,,response,,,,7,E,,,,,,Space,keypress(Space),,,,lyrical,,,,---- --------- ---------- - --- ------- -- --- ------------<br>----- -- -------- ------- ---- ------ - -------- ---- -----<br>--- ------- ---- -- --- -------- --- - ----- ------ ---- --<br>-------- --- silence. -------- --- -------- ---- -- ----- -<br>-------- ---- --- ---------- --------- -- ------- ------ -<br>--------- ----- -----,326862.61000001105,326860.5249999964,326488.333,326502.71000000066,326504.999,326872.066,,33,silence.
screen,html.Screen,1_3_1_0_1_34,2021-04-20T10:39:02.655Z,,,,,,,,,,,,,,,,15,,,,,,,,,,,,,,449.75400001194794,,response,,,,7,E,,,,,,Space,keypress(Space),,,,lyrical,,,,---- --------- ---------- - --- ------- -- --- ------------<br>----- -- -------- ------- ---- ------ - -------- ---- -----<br>--- ------- ---- -- --- -------- --- - ----- ------ ---- --<br>-------- --- -------- Anderson --- -------- ---- -- ----- -<br>-------- ---- --- ---------- --------- -- ------- ------ -<br>--------- ----- -----,327324.0100000112,327321.82000001194,326855.4,326862.80999999144,326872.066,327338.714,,34,Anderson
screen,html.Screen,1_3_1_0_1_35,2021-04-20T10:39:03.251Z,,,,,,,,,,,,,,,,15,,,,,,,,,,,,,,579.4310000033001,,response,,,,7,E,,,,,,Space,keypress(Space),,,,lyrical,,,,---- --------- ---------- - --- ------- -- --- ------------<br>----- -- -------- ------- ---- ------ - -------- ---- -----<br>--- ------- ---- -- --- -------- --- - ----- ------ ---- --<br>-------- --- -------- -------- was -------- ---- -- ----- -<br>-------- ---- --- ---------- --------- -- ------- ------ -<br>--------- ----- -----,327920.25500000454,327918.1450000033,327322.048,327324.2099999916,327338.714,327922.024,,35,was
screen,html.Screen,1_3_1_0_1_36,2021-04-20T10:39:03.679Z,,,,,,,,,,,,,,,,15,,,,,,,,,,,,,,423.6610000075307,,response,,,,7,E,,,,,,Space,keypress(Space),,,,lyrical,,,,---- --------- ---------- - --- ------- -- --- ------------<br>----- -- -------- ------- ---- ------ - -------- ---- -----<br>--- ------- ---- -- --- -------- --- - ----- ------ ---- --<br>-------- --- -------- -------- --- released ---- -- ----- -<br>-------- ---- --- ---------- --------- -- ------- ------ -<br>--------- ----- -----,328347.6350000128,328345.6850000075,327905.358,327920.38999998476,327922.024,328355.34,,36,released
screen,html.Screen,1_3_1_0_1_37,2021-04-20T10:39:04.084Z,,,,,,,,,,,,,,,,15,,,,,,,,,,,,,,395.28000000613974,,response,,,,7,E,,,,,,Space,keypress(Space),,,,lyrical,,,,---- --------- ---------- - --- ------- -- --- ------------<br>----- -- -------- ------- ---- ------ - -------- ---- -----<br>--- ------- ---- -- --- -------- --- - ----- ------ ---- --<br>-------- --- -------- -------- --- -------- July -- ----- -<br>-------- ---- --- ---------- --------- -- ------- ------ -<br>--------- ----- -----,328752.46499999776,328750.62000000617,328338.674,328347.775000002,328355.34,328755.324,,37,July
screen,html.Screen,1_3_1_0_1_38,2021-04-20T10:39:04.489Z,,,,,,,,,,,,,,,,15,,,,,,,,,,,,,,400.2810000071768,,response,,,,7,E,,,,,,Space,keypress(Space),,,,lyrical,,,,---- --------- ---------- - --- ------- -- --- ------------<br>----- -- -------- ------- ---- ------ - -------- ---- -----<br>--- ------- ---- -- --- -------- --- - ----- ------ ---- --<br>-------- --- -------- -------- --- -------- ---- 20 ----- -<br>-------- ---- --- ---------- --------- -- ------- ------ -<br>--------- ----- -----,329157.4649999966,329155.6050000072,328738.658,328752.5800000003,328755.324,329171.974,,38,20
screen,html.Screen,1_3_1_0_1_39,2021-04-20T10:39:06.176Z,,,,,,,,,,,,,,,,15,,,,,,,,,,,,,,1671.046000000264,,response,,,,7,E,,,,,,Space,keypress(Space),,,,lyrical,,,,---- --------- ---------- - --- ------- -- --- ------------<br>----- -- -------- ------- ---- ------ - -------- ---- -----<br>--- ------- ---- -- --- -------- --- - ----- ------ ---- --<br>-------- --- -------- -------- --- -------- ---- -- after -<br>-------- ---- --- ---------- --------- -- ------- ------ -<br>--------- ----- -----,330845.21500000847,330843.02000000025,329155.308,329157.589999988,329171.974,330855.24,,39,after
