sender,sender_type,sender_id,timestamp,meta,,Blues,Classical,Country,Dance,Electronic,Folk,Gospel,Hip-Hop,Jazz,Latin,Musical/Film,New-age,Pop,Provo_ID,R&B,Rap,Reggae,Religious,Rock,Soul,Swing,Traditional,age,artist_name,correct,correctResponse,distraction,duration,education,ended_on,familiarity,gender,headphone_check_performance,item,list,music_frequency,offensiveness,pleasantness,position_correct,preference,response,response_action,snippet_file,song_name,song_rating,sound,stimulus_1,stimulus_2,stimulus_3,text,time_commit,time_end,time_render,time_run,time_show,time_switch,url,word,word_ID
Introduction,html.Screen,0_0,2021-04-08T16:15:25.736Z,"{""labjs_version"":""20.2.2"",""labjs_build"":{""flavor"":""production"",""commit"":""a25486e0c714a0ae2ce03ff94b7bb6896854dcfa""},""location"":""https://run.pavlovia.org/mvasilev/music_d/"",""userAgent"":""Mozilla/5.0 (Windows NT 10.0; Win64; x64) AppleWebKit/537.36 (KHTML, like Gecko) Chrome/89.0.4389.114 Safari/537.36"",""platform"":""Win32"",""language"":""de-DE"",""locale"":""en-US"",""timeZone"":""Europe/London"",""timezoneOffset"":-60,""screen_width"":2560,""screen_height"":1440,""scroll_width"":3200,""scroll_height"":1621,""window_innerWidth"":3200,""window_innerHeight"":1668,""devicePixelRatio"":0.800000011920929}",,,,,,,,,,,,,,,,,,,,,,,,,,,,,13623.142999893307,,response,,,,,,,,,,,continue,click button,,,,,,,,,25078.329999931157,25075.939999893308,11420.244,11427.774999989197,11452.797,25111.764,{},,
Volume calibration,html.Screen,0_1,2021-04-08T16:15:27.330Z,,,,,,,,,,,,,,,,,,,,,,,,,,,,,,1555.9560000267484,,response,,,,,,,,,,,continue,click button,,,,,,,,,26672.839999897406,26667.720000026748,25061.753,25078.86500004679,25111.764,26679.522,,,
Task instructions,html.Screen,0_2,2021-04-08T16:15:28.038Z,,,,,,,,,,,,,,,,,,,,,,,,,,,,,,700.1030000596038,,response,,,,,,,,,,,continue,click button,,,,,,,,,27380.614999914542,27379.625000059605,26662.826,26673.12499997206,26679.522,27396.611,,,
Sounds,html.Screen,0_3_0_0,2021-04-08T16:15:32.295Z,,,,,,,,,,,,,,,,,,,,,,,,,,,,,,4252.682000000001,,timeout,,,,,,,,,2,,,,,,,,I,S,O,,31637.179999845102,31632.713,27379.958,27380.84500003606,27396.611,31649.293,,,
Judgement,html.Screen,0_3_0_1,2021-04-08T16:15:34.894Z,,,,,,,,,,,,,,,,,,,,,,,,,,,true,2,,2585.3020000453726,,response,,,,,,,,,2,,2,click #choice-2,,,,,I,S,O,,34236.1099999398,34234.595000045374,31632.713,31637.480000033975,31649.293,34251.122,,,
Trial,flow.Sequence,0_3_0,2021-04-08T16:15:34.894Z,,,,,,,,,,,,,,,,,,,,,,,,,,,,,,6837.984000045373,,completion,,,,,,,,,2,,,,,,,,I,S,O,,34236.84499994852,34234.595000045374,27379.958,27380.789999850094,27396.611,34251.122,,,
Sounds,html.Screen,0_3_1_0,2021-04-08T16:15:39.146Z,,,,,,,,,,,,,,,,,,,,,,,,,,,,,,4252.780999999995,,timeout,,,,,,,,,1,,,,,,,,S,I,O,,38488.344999961555,38487.273,34234.415,34237.19500005245,34251.122,38503.903,,,
Judgement,html.Screen,0_3_1_1,2021-04-08T16:15:39.604Z,,,,,,,,,,,,,,,,,,,,,,,,,,,true,1,,441.93699994211056,,response,,,,,,,,,1,,1,click #choice-1,,,,,S,I,O,,38946.94499997422,38945.83999994211,38487.273,38488.60499984585,38503.903,38954.122,,,
Trial,flow.Sequence,0_3_1,2021-04-08T16:15:39.605Z,,,,,,,,,,,,,,,,,,,,,,,,,,,,,,4694.717999942106,,completion,,,,,,,,,1,,,,,,,,S,I,O,,38947.33999995515,38945.83999994211,34234.415,34237.094999989495,34251.122,38954.122,,,
Sounds,html.Screen,0_3_2_0,2021-04-08T16:15:43.849Z,,,,,,,,,,,,,,,,,,,,,,,,,,,,,,4252.863999999994,,timeout,,,,,,,,,1,,,,,,,,S,O,I,,43191.239999840036,43190.306,38937.466,38947.629999835044,38954.122,43206.986,,,
Judgement,html.Screen,0_3_2_1,2021-04-08T16:15:44.252Z,,,,,,,,,,,,,,,,,,,,,,,,,,,true,1,,386.03400002935814,,response,,,,,,,,,1,,1,click #choice-1,,,,,S,O,I,,43594.10499990918,43593.020000029355,43190.306,43191.4800000377,43206.986,43607.231,,,
Trial,flow.Sequence,0_3_2,2021-04-08T16:15:44.252Z,,,,,,,,,,,,,,,,,,,,,,,,,,,,,,4638.898000029352,,completion,,,,,,,,,1,,,,,,,,S,O,I,,43594.49000004679,43593.020000029355,38937.466,38947.544999886304,38954.122,43607.231,,,
Sounds,html.Screen,0_3_3_0,2021-04-08T16:15:48.502Z,,,,,,,,,,,,,,,,,,,,,,,,,,,,,,4252.864999999998,,timeout,,,,,,,,,3,,,,,,,,O,I,S,,47844.37000006437,47843.412,43590.632,43594.74499989301,43607.231,47860.096,,,
Judgement,html.Screen,0_3_3_1,2021-04-08T16:15:49.171Z,,,,,,,,,,,,,,,,,,,,,,,,,,,true,3,,652.2489999373429,,response,,,,,,,,,3,,3,click #choice-3,,,,,O,I,S,,48513.37499986403,48512.34499993734,47843.412,47844.59999995306,47860.096,48527.136,,,
Trial,flow.Sequence,0_3_3,2021-04-08T16:15:49.171Z,,,,,,,,,,,,,,,,,,,,,,,,,,,,,,4905.113999937341,,completion,,,,,,,,,3,,,,,,,,O,I,S,,48513.73500004411,48512.34499993734,43590.632,43594.6549999062,43607.231,48527.136,,,
Sounds,html.Screen,0_3_4_0,2021-04-08T16:15:53.422Z,,,,,,,,,,,,,,,,,,,,,,,,,,,,,,4252.861000000004,,timeout,,,,,,,,,2,,,,,,,,O,S,I,,52764.19999985956,52763.305,48510.488,48513.984999852255,48527.136,52779.997,,,
Judgement,html.Screen,0_3_4_1,2021-04-08T16:15:54.090Z,,,,,,,,,,,,,,,,,,,,,,,,,,,true,2,,651.4179999991029,,response,,,,,,,,,2,,2,click #choice-2,,,,,O,S,I,,53432.52999987453,53431.414999999106,52763.305,52764.44499986246,52779.997,53447.022,,,
Trial,flow.Sequence,0_3_4,2021-04-08T16:15:54.091Z,,,,,,,,,,,,,,,,,,,,,,,,,,,,,,4904.278999999107,,completion,,,,,,,,,2,,,,,,,,O,S,I,,53432.88500001654,53431.414999999106,48510.488,48513.91500001773,48527.136,53447.022,,,
Sounds,html.Screen,0_3_5_0,2021-04-08T16:15:58.342Z,,,,,,,,,,,,,,,,,,,,,,,,,,,,,,4252.929000000004,,timeout,,,,,,,,,3,,,,,,,,I,O,S,,57683.90499986708,57683.196,53430.432,53433.1199999433,53447.022,57699.951,,,
Judgement,html.Screen,0_3_5_1,2021-04-08T16:15:58.946Z,,,,,,,,,,,,,,,,,,,,,,,,,,,true,3,,586.818999889656,,response,,,,,,,,,3,,3,click #choice-3,,,,,I,O,S,,58287.87999995984,58286.76999988966,57683.196,57684.124999912456,57699.951,58300.29,,,
Trial,flow.Sequence,0_3_5,2021-04-08T16:15:58.946Z,,,,,,,,,,,,,,,,,,,,,,,,,,,,,,4839.74799988966,,completion,,,,,,,,,3,,,,,,,,I,O,S,,58288.249999983236,58286.76999988966,53430.432,53433.04999987595,53447.022,58300.29,,,
Task,flow.Loop,0_3,2021-04-08T16:15:58.955Z,,,,,,,,,,,,,,,,,,,,,,,,,,,,,,30890.158999889656,,completion,,,1,,,,,,,,,,,,,,,,,,58297.03000001609,58286.76999988966,27379.958,27380.73499989696,27396.611,58300.29,,,
Trap,html.Screen,0_4,2021-04-08T16:15:58.957Z,,,,,,,,,,,,,,,,,,,,,,,,,,,,,,NaN,,skipped,,,,,,,,,,,,,,,,,,,,,58299.194999970496,58286.76999988966,,58298.960000043735,,58300.29,,,
Thanks,html.Screen,0_5,2021-04-08T16:16:00.689Z,,,,,,,,,,,,,,,,,,,,,,,,,,,,,,1730.1849999195329,,response,,,,,,,,,,,continue,click button,,,,,,,,,60031.650000019,60030.474999919534,58283.561,58299.404999939725,58300.29,61402.34,,,
Headphone screening,flow.Sequence,0,2021-04-08T16:16:00.690Z,,,,,,,,,,,,,,,,,,,,,,,,,,,,,,48577.677999919535,,completion,,,,,,,,,,,,,,,,,,,,,60032.03499992378,60030.474999919534,11420.244,11427.744999993593,11452.797,61402.34,,,
Instructions,html.Page,1_0,2021-04-08T16:16:32.795Z,,,,,,,,,,,,,,,,,,,,,,,,,,,,,,30733.984999853972,,form submission,,,,,,,,,,,,,,,,,,,,,92137.08000001498,92136.32499985397,61385.678,61401.369999861345,61402.34,92139.175,,,
Holding screen,html.Screen,1_1_0_0,2021-04-08T16:16:42.787Z,,,,,,,,,,,,,,,,,,,,,,,,,,,,,,10023.247999999992,,timeout,,,,,,,,,,,,,,,,,,,,,102129.82999999076,102129.068,92122.506,92137.45999988168,92139.175,102162.423,,,
screen,html.Screen,1_1_0_1_0,2021-04-08T16:16:44.518Z,,,,,,,,,,,,,,,,53,,,,,,,,,,,,,,1693.2319998465973,,response,,,,99,,,,,,,Space,keypress(Space),,,,,,,,When -- ----- -- ------ - ------- --- ----------<br>------------- ------ ------ ---- ---- ------- ----- -- ----<br>-------- ------- -- ---------- --- - --- ----- ----- ----<br>---- --- --- ----- --- ---- ---- ------- ----- ---- -------<br>--- --- -- ----- -- --- ---- -- --- ---- -- ------ ------<br>--- ----- -- ----,103860.24499987252,103855.65499984659,102129.068,102130.24499989115,102162.423,103863.506,,0,When
screen,html.Screen,1_1_0_1_1,2021-04-08T16:16:45.025Z,,,,,,,,,,,,,,,,53,,,,,,,,,,,,,,503.4089999041171,,response,,,,99,,,,,,,Space,keypress(Space),,,,,,,,---- it ----- -- ------ - ------- --- ----------<br>------------- ------ ------ ---- ---- ------- ----- -- ----<br>-------- ------- -- ---------- --- - --- ----- ----- ----<br>---- --- --- ----- --- ---- ---- ------- ----- ---- -------<br>--- --- -- ----- -- --- ---- -- --- ---- -- ------ ------<br>--- ----- -- ----,104367.72500001825,104366.91499990411,103846.827,103860.5249999091,103863.506,104380.497,,1,it
screen,html.Screen,1_1_0_1_2,2021-04-08T16:16:45.441Z,,,,,,,,,,,,,,,,53,,,,,,,,,,,,,,402.30299992809887,,response,,,,99,,,,,,,Space,keypress(Space),,,,,,,,---- -- comes -- ------ - ------- --- ----------<br>------------- ------ ------ ---- ---- ------- ----- -- ----<br>-------- ------- -- ---------- --- - --- ----- ----- ----<br>---- --- --- ----- --- ---- ---- ------- ----- ---- -------<br>--- --- -- ----- -- --- ---- -- --- ---- -- ------ ------<br>--- ----- -- ----,104783.70999987237,104782.7999999281,104363.931,104367.94999986887,104380.497,104814.209,,2,comes
screen,html.Screen,1_1_0_1_3,2021-04-08T16:16:45.857Z,,,,,,,,,,,,,,,,53,,,,,,,,,,,,,,384.51099998576683,,response,,,,99,,,,,,,Space,keypress(Space),,,,,,,,---- -- ----- to ------ - ------- --- ----------<br>------------- ------ ------ ---- ---- ------- ----- -- ----<br>-------- ------- -- ---------- --- - --- ----- ----- ----<br>---- --- --- ----- --- ---- ---- ------- ----- ---- -------<br>--- --- -- ----- -- --- ---- -- --- ---- -- ------ ------<br>--- ----- -- ----,105199.50499990955,105198.71999998577,104797.489,104783.9499998372,104814.209,105231.15,,3,to
screen,html.Screen,1_1_0_1_4,2021-04-08T16:16:46.289Z,,,,,,,,,,,,,,,,53,,,,,,,,,,,,,,399.5849998969643,,response,,,,99,,,,,,,Space,keypress(Space),,,,,,,,---- -- ----- -- having - ------- --- ----------<br>------------- ------ ------ ---- ---- ------- ----- -- ----<br>-------- ------- -- ---------- --- - --- ----- ----- ----<br>---- --- --- ----- --- ---- ---- ------- ----- ---- -------<br>--- --- -- ----- -- --- ---- -- --- ---- -- ------ ------<br>--- ----- -- ----,105631.47499994375,105630.73499989696,105214.438,105199.729999993,105231.15,105648.091,,4,having
screen,html.Screen,1_1_0_1_5,2021-04-08T16:16:46.689Z,,,,,,,,,,,,,,,,53,,,,,,,,,,,,,,382.5439999736991,,response,,,,99,,,,,,,Space,keypress(Space),,,,,,,,---- -- ----- -- ------ a ------- --- ----------<br>------------- ------ ------ ---- ---- ------- ----- -- ----<br>-------- ------- -- ---------- --- - --- ----- ----- ----<br>---- --- --- ----- --- ---- ---- ------- ----- ---- -------<br>--- --- -- ----- -- --- ---- -- --- ---- -- ------ ------<br>--- ----- -- ----,106031.42499993555,106030.6349999737,105631.377,105631.70999987051,105648.091,106065.034,,5,a
screen,html.Screen,1_1_0_1_6,2021-04-08T16:16:47.065Z,,,,,,,,,,,,,,,,53,,,,,,,,,,,,,,341.56099983303284,,response,,,,99,,,,,,,Space,keypress(Space),,,,,,,,---- -- ----- -- ------ - lasting --- ----------<br>------------- ------ ------ ---- ---- ------- ----- -- ----<br>-------- ------- -- ---------- --- - --- ----- ----- ----<br>---- --- --- ----- --- ---- ---- ------- ----- ---- -------<br>--- --- -- ----- -- --- ---- -- --- ---- -- ------ ------<br>--- ----- -- ----,106407.34999999404,106406.59499983303,106048.313,106031.65500005707,106065.034,106415.171,,6,lasting
screen,html.Screen,1_1_0_1_7,2021-04-08T16:16:47.441Z,,,,,,,,,,,,,,,,53,,,,,,,,,,,,,,367.29899997645407,,response,,,,99,,,,,,,Space,keypress(Space),,,,,,,,---- -- ----- -- ------ - ------- and ----------<br>------------- ------ ------ ---- ---- ------- ----- -- ----<br>-------- ------- -- ---------- --- - --- ----- ----- ----<br>---- --- --- ----- --- ---- ---- ------- ----- ---- -------<br>--- --- -- ----- -- --- ---- -- --- ---- -- ------ ------<br>--- ----- -- ----,106783.21999986656,106782.46999997646,106398.584,106407.57999988273,106415.171,106798.835,,7,and
screen,html.Screen,1_1_0_1_8,2021-04-08T16:16:47.849Z,,,,,,,,,,,,,,,,53,,,,,,,,,,,,,,391.6149998781766,,response,,,,99,,,,,,,Space,keypress(Space),,,,,,,,---- -- ----- -- ------ - ------- --- fulfilling<br>------------- ------ ------ ---- ---- ------- ----- -- ----<br>-------- ------- -- ---------- --- - --- ----- ----- ----<br>---- --- --- ----- --- ---- ---- ------- ----- ---- -------<br>--- --- -- ----- -- --- ---- -- --- ---- -- ------ ------<br>--- ----- -- ----,107191.20500003919,107190.44999987818,106782.172,106783.44999998808,106798.835,107198.988,,8,fulfilling
screen,html.Screen,1_1_0_1_9,2021-04-08T16:16:48.265Z,,,,,,,,,,,,,,,,53,,,,,,,,,,,,,,407.46699988459295,,response,,,,99,,,,,,,Space,keypress(Space),,,,,,,,"---- -- ----- -- ------ - ------- --- ----------<br>relationship, ------ ------ ---- ---- ------- ----- -- ----<br>-------- ------- -- ---------- --- - --- ----- ----- ----<br>---- --- --- ----- --- ---- ---- ------- ----- ---- -------<br>--- --- -- ----- -- --- ---- -- --- ---- -- ------ ------<br>--- ----- -- ----",107607.27999988012,107606.45499988459,107182.434,107191.43499992788,107198.988,107615.996,,9,"relationship,"
screen,html.Screen,1_1_0_1_10,2021-04-08T16:16:48.721Z,,,,,,,,,,,,,,,,53,,,,,,,,,,,,,,446.39899989897094,,response,,,,99,,,,,,,Space,keypress(Space),,,,,,,,---- -- ----- -- ------ - ------- --- ----------<br>------------- common ------ ---- ---- ------- ----- -- ----<br>-------- ------- -- ---------- --- - --- ----- ----- ----<br>---- --- --- ----- --- ---- ---- ------- ----- ---- -------<br>--- --- -- ----- -- --- ---- -- --- ---- -- ------ ------<br>--- ----- -- ----,108063.25499992818,108062.39499989897,107599.383,107607.54500003532,107615.996,108066.319,,10,common
screen,html.Screen,1_1_0_1_11,2021-04-08T16:16:49.121Z,,,,,,,,,,,,,,,,53,,,,,,,,,,,,,,395.9309998658864,,response,,,,99,,,,,,,Space,keypress(Space),,,,,,,,---- -- ----- -- ------ - ------- --- ----------<br>------------- ------ wisdom ---- ---- ------- ----- -- ----<br>-------- ------- -- ---------- --- - --- ----- ----- ----<br>---- --- --- ----- --- ---- ---- ------- ----- ---- -------<br>--- --- -- ----- -- --- ---- -- --- ---- -- ------ ------<br>--- ----- -- ----,108462.9849998746,108462.24999986589,108049.686,108063.49499989301,108066.319,108466.583,,11,wisdom
screen,html.Screen,1_1_0_1_12,2021-04-08T16:16:49.497Z,,,,,,,,,,,,,,,,53,,,,,,,,,,,,,,371.6519999155862,,response,,,,99,,,,,,,Space,keypress(Space),,,,,,,,---- -- ----- -- ------ - ------- --- ----------<br>------------- ------ ------ says ---- ------- ----- -- ----<br>-------- ------- -- ---------- --- - --- ----- ----- ----<br>---- --- --- ----- --- ---- ---- ------- ----- ---- -------<br>--- --- -- ----- -- --- ---- -- --- ---- -- ------ ------<br>--- ----- -- ----,108838.9399999287,108838.23499991558,108449.935,108463.20999995805,108466.583,108850.132,,12,says
screen,html.Screen,1_1_0_1_13,2021-04-08T16:16:49.897Z,,,,,,,,,,,,,,,,53,,,,,,,,,,,,,,388.047999869319,,response,,,,99,,,,,,,Space,keypress(Space),,,,,,,,---- -- ----- -- ------ - ------- --- ----------<br>------------- ------ ------ ---- that ------- ----- -- ----<br>-------- ------- -- ---------- --- - --- ----- ----- ----<br>---- --- --- ----- --- ---- ---- ------- ----- ---- -------<br>--- --- -- ----- -- --- ---- -- --- ---- -- ------ ------<br>--- ----- -- ----,109238.88499988243,109238.17999986932,108833.515,108839.1849999316,108850.132,109250.395,,13,that
screen,html.Screen,1_1_0_1_14,2021-04-08T16:16:50.280Z,,,,,,,,,,,,,,,,53,,,,,,,,,,,,,,371.61999985530565,,response,,,,99,,,,,,,Space,keypress(Space),,,,,,,,---- -- ----- -- ------ - ------- --- ----------<br>------------- ------ ------ ---- ---- feeling ----- -- ----<br>-------- ------- -- ---------- --- - --- ----- ----- ----<br>---- --- --- ----- --- ---- ---- ------- ----- ---- -------<br>--- --- -- ----- -- --- ---- -- --- ---- -- ------ ------<br>--- ----- -- ----,109622.7549999021,109622.01499985531,109233.788,109239.11500000395,109250.395,109633.976,,14,feeling
screen,html.Screen,1_1_0_1_15,2021-04-08T16:16:50.664Z,,,,,,,,,,,,,,,,53,,,,,,,,,,,,,,372.05899985300493,,response,,,,99,,,,,,,Space,keypress(Space),,,,,,,,---- -- ----- -- ------ - ------- --- ----------<br>------------- ------ ------ ---- ---- ------- close -- ----<br>-------- ------- -- ---------- --- - --- ----- ----- ----<br>---- --- --- ----- --- ---- ---- ------- ----- ---- -------<br>--- --- -- ----- -- --- ---- -- --- ---- -- ------ ------<br>--- ----- -- ----,110006.75499998033,110006.034999853,109617.37,109622.98500002362,109633.976,110017.551,,15,close
screen,html.Screen,1_1_0_1_16,2021-04-08T16:16:51.072Z,,,,,,,,,,,,,,,,53,,,,,,,,,,,,,,396.3589998865209,,response,,,,99,,,,,,,Space,keypress(Space),,,,,,,,---- -- ----- -- ------ - ------- --- ----------<br>------------- ------ ------ ---- ---- ------- ----- to ----<br>-------- ------- -- ---------- --- - --- ----- ----- ----<br>---- --- --- ----- --- ---- ---- ------- ----- ---- -------<br>--- --- -- ----- -- --- ---- -- --- ---- -- ------ ------<br>--- ----- -- ----,110414.61999993771,110413.90999988653,110000.95,110006.99499994516,110017.551,110417.845,,16,to
screen,html.Screen,1_1_0_1_17,2021-04-08T16:16:51.512Z,,,,,,,,,,,,,,,,53,,,,,,,,,,,,,,436.01499991558376,,response,,,,99,,,,,,,Space,keypress(Space),,,,,,,,---- -- ----- -- ------ - ------- --- ----------<br>------------- ------ ------ ---- ---- ------- ----- -- your<br>-------- ------- -- ---------- --- - --- ----- ----- ----<br>---- --- --- ----- --- ---- ---- ------- ----- ---- -------<br>--- --- -- ----- -- --- ---- -- --- ---- -- ------ ------<br>--- ----- -- ----,110854.55999989063,110853.85999991558,110401.216,110414.86999997869,110417.845,110868.185,,17,your
screen,html.Screen,1_1_0_1_18,2021-04-08T16:16:51.936Z,,,,,,,,,,,,,,,,53,,,,,,,,,,,,,,409.59999992564553,,response,,,,99,,,,,,,Space,keypress(Space),,,,,,,,---- -- ----- -- ------ - ------- --- ----------<br>------------- ------ ------ ---- ---- ------- ----- -- ----<br>romantic ------- -- ---------- --- - --- ----- ----- ----<br>---- --- --- ----- --- ---- ---- ------- ----- ---- -------<br>--- --- -- ----- -- --- ---- -- --- ---- -- ------ ------<br>--- ----- -- ----,111278.51999993436,111277.78499992564,110851.536,110854.79000001214,110868.185,111285.008,,18,romantic
screen,html.Screen,1_1_0_1_19,2021-04-08T16:16:52.344Z,,,,,,,,,,,,,,,,53,,,,,,,,,,,,,,400.7119999503775,,response,,,,99,,,,,,,Space,keypress(Space),,,,,,,,---- -- ----- -- ------ - ------- --- ----------<br>------------- ------ ------ ---- ---- ------- ----- -- ----<br>-------- partner -- ---------- --- - --- ----- ----- ----<br>---- --- --- ----- --- ---- ---- ------- ----- ---- -------<br>--- --- -- ----- -- --- ---- -- --- ---- -- ------ ------<br>--- ----- -- ----,111686.40500004403,111685.71999995038,111268.459,111278.7450000178,111285.008,111702.06,,19,partner
screen,html.Screen,1_1_0_1_20,2021-04-08T16:16:52.768Z,,,,,,,,,,,,,,,,53,,,,,,,,,,,,,,407.5749998842948,,response,,,,99,,,,,,,Space,keypress(Space),,,,,,,,---- -- ----- -- ------ - ------- --- ----------<br>------------- ------ ------ ---- ---- ------- ----- -- ----<br>-------- ------- is ---------- --- - --- ----- ----- ----<br>---- --- --- ----- --- ---- ---- ------- ----- ---- -------<br>--- --- -- ----- -- --- ---- -- --- ---- -- ------ ------<br>--- ----- -- ----,112110.28499994427,112109.63499988429,111685.397,111686.62000005133,111702.06,112118.877,,20,is
screen,html.Screen,1_1_0_1_21,2021-04-08T16:16:53.152Z,,,,,,,,,,,,,,,,53,,,,,,,,,,,,,,374.71799989078136,,response,,,,99,,,,,,,Space,keypress(Space),,,,,,,,---- -- ----- -- ------ - ------- --- ----------<br>------------- ------ ------ ---- ---- ------- ----- -- ----<br>-------- ------- -- paramount. --- - --- ----- ----- ----<br>---- --- --- ----- --- ---- ---- ------- ----- ---- -------<br>--- --- -- ----- -- --- ---- -- --- ---- -- ------ ------<br>--- ----- -- ----,112494.32999989949,112493.59499989077,112102.343,112110.51499983296,112118.877,112502.459,,21,paramount.
screen,html.Screen,1_1_0_1_22,2021-04-08T16:16:53.624Z,,,,,,,,,,,,,,,,53,,,,,,,,,,,,,,463.0459999710147,,response,,,,99,,,,,,,Space,keypress(Space),,,,,,,,---- -- ----- -- ------ - ------- --- ----------<br>------------- ------ ------ ---- ---- ------- ----- -- ----<br>-------- ------- -- ---------- But - --- ----- ----- ----<br>---- --- --- ----- --- ---- ---- ------- ----- ---- -------<br>--- --- -- ----- -- --- ---- -- --- ---- -- ------ ------<br>--- ----- -- ----,112966.25499986112,112965.50499997102,112485.916,112494.55499998294,112502.459,112969.542,,22,But
screen,html.Screen,1_1_0_1_23,2021-04-08T16:16:54.039Z,,,,,,,,,,,,,,,,53,,,,,,,,,,,,,,411.8629998763936,,response,,,,99,,,,,,,Space,keypress(Space),,,,,,,,---- -- ----- -- ------ - ------- --- ----------<br>------------- ------ ------ ---- ---- ------- ----- -- ----<br>-------- ------- -- ---------- --- a --- ----- ----- ----<br>---- --- --- ----- --- ---- ---- ------- ----- ---- -------<br>--- --- -- ----- -- --- ---- -- --- ---- -- ------ ------<br>--- ----- -- ----,113382.11499992758,113381.4049998764,112952.901,112966.49999986403,112969.542,113386.464,,23,a
screen,html.Screen,1_1_0_1_24,2021-04-08T16:16:54.503Z,,,,,,,,,,,,,,,,53,,,,,,,,,,,,,,458.9359999910521,,response,,,,99,,,,,,,Space,keypress(Space),,,,,,,,---- -- ----- -- ------ - ------- --- ----------<br>------------- ------ ------ ---- ---- ------- ----- -- ----<br>-------- ------- -- ---------- --- - new ----- ----- ----<br>---- --- --- ----- --- ---- ---- ------- ----- ---- -------<br>--- --- -- ----- -- --- ---- -- --- ---- -- ------ ------<br>--- ----- -- ----,113846.12499992363,113845.39999999106,113369.802,113382.34999985434,113386.464,113853.352,,24,new
screen,html.Screen,1_1_0_1_25,2021-04-08T16:16:54.960Z,,,,,,,,,,,,,,,,53,,,,,,,,,,,,,,448.6529999468039,,response,,,,99,,,,,,,Space,keypress(Space),,,,,,,,---- -- ----- -- ------ - ------- --- ----------<br>------------- ------ ------ ---- ---- ------- ----- -- ----<br>-------- ------- -- ---------- --- - --- study ----- ----<br>---- --- --- ----- --- ---- ---- ------- ----- ---- -------<br>--- --- -- ----- -- --- ---- -- --- ---- -- ------ ------<br>--- ----- -- ----,114302.6949998457,114302.0049999468,113836.815,113846.35000000708,113853.352,114320.423,,25,study
screen,html.Screen,1_1_0_1_26,2021-04-08T16:16:55.415Z,,,,,,,,,,,,,,,,53,,,,,,,,,,,,,,436.7569999568659,,response,,,,99,,,,,,,Space,keypress(Space),,,,,,,,---- -- ----- -- ------ - ------- --- ----------<br>------------- ------ ------ ---- ---- ------- ----- -- ----<br>-------- ------- -- ---------- --- - --- ----- finds ----<br>---- --- --- ----- --- ---- ---- ------- ----- ---- -------<br>--- --- -- ----- -- --- ---- -- --- ---- -- ------ ------<br>--- ----- -- ----,114757.91499996558,114757.17999995686,114287.115,114302.91999992914,114320.423,114770.688,,26,finds
screen,html.Screen,1_1_0_1_27,2021-04-08T16:16:55.815Z,,,,,,,,,,,,,,,,53,,,,,,,,,,,,,,386.4769999823475,,response,,,,99,,,,,,,Space,keypress(Space),,,,,,,,---- -- ----- -- ------ - ------- --- ----------<br>------------- ------ ------ ---- ---- ------- ----- -- ----<br>-------- ------- -- ---------- --- - --- ----- ----- that<br>---- --- --- ----- --- ---- ---- ------- ----- ---- -------<br>--- --- -- ----- -- --- ---- -- --- ---- -- ------ ------<br>--- ----- -- ----,115157.85999991931,115157.16499998234,114754.085,114758.14000004902,114770.688,115170.897,,27,that
screen,html.Screen,1_1_0_1_28,2021-04-08T16:16:56.223Z,,,,,,,,,,,,,,,,53,,,,,,,,,,,,,,394.23800004075747,,response,,,,99,,,,,,,Space,keypress(Space),,,,,,,,---- -- ----- -- ------ - ------- --- ----------<br>------------- ------ ------ ---- ---- ------- ----- -- ----<br>-------- ------- -- ---------- --- - --- ----- ----- ----<br>it's --- --- ----- --- ---- ---- ------- ----- ---- -------<br>--- --- -- ----- -- --- ---- -- --- ---- -- ------ ------<br>--- ----- -- ----,115565.84499985911,115565.13500004075,115154.271,115160.31499998644,115170.897,115571.241,,28,it's
screen,html.Screen,1_1_0_1_29,2021-04-08T16:16:56.623Z,,,,,,,,,,,,,,,,53,,,,,,,,,,,,,,393.98899997251283,,response,,,,99,,,,,,,Space,keypress(Space),,,,,,,,---- -- ----- -- ------ - ------- --- ----------<br>------------- ------ ------ ---- ---- ------- ----- -- ----<br>-------- ------- -- ---------- --- - --- ----- ----- ----<br>---- not --- ----- --- ---- ---- ------- ----- ---- -------<br>--- --- -- ----- -- --- ---- -- --- ---- -- ------ ------<br>--- ----- -- ----,115966.0749998875,115965.22999997251,115554.564,115566.05500006117,115571.241,115971.508,,29,not
screen,html.Screen,1_1_0_1_30,2021-04-08T16:16:57.031Z,,,,,,,,,,,,,,,,53,,,,,,,,,,,,,,401.5670000104292,,response,,,,99,,,,,,,Space,keypress(Space),,,,,,,,---- -- ----- -- ------ - ------- --- ----------<br>------------- ------ ------ ---- ---- ------- ----- -- ----<br>-------- ------- -- ---------- --- - --- ----- ----- ----<br>---- --- how ----- --- ---- ---- ------- ----- ---- -------<br>--- --- -- ----- -- --- ---- -- --- ---- -- ------ ------<br>--- ----- -- ----,116373.86499997228,116373.07500001043,115954.866,115966.29499993287,115971.508,116388.531,,30,how
screen,html.Screen,1_1_0_1_31,2021-04-08T16:16:57.423Z,,,,,,,,,,,,,,,,53,,,,,,,,,,,,,,376.4389999019477,,response,,,,99,,,,,,,Space,keypress(Space),,,,,,,,---- -- ----- -- ------ - ------- --- ----------<br>------------- ------ ------ ---- ---- ------- ----- -- ----<br>-------- ------- -- ---------- --- - --- ----- ----- ----<br>---- --- --- close --- ---- ---- ------- ----- ---- -------<br>--- --- -- ----- -- --- ---- -- --- ---- -- ------ ------<br>--- ----- -- ----,116765.71499998681,116764.96999990195,116371.812,116375.20499993116,116388.531,116772.043,,31,close
screen,html.Screen,1_1_0_1_32,2021-04-08T16:16:57.847Z,,,,,,,,,,,,,,,,53,,,,,,,,,,,,,,416.96200005110586,,response,,,,99,,,,,,,Space,keypress(Space),,,,,,,,---- -- ----- -- ------ - ------- --- ----------<br>------------- ------ ------ ---- ---- ------- ----- -- ----<br>-------- ------- -- ---------- --- - --- ----- ----- ----<br>---- --- --- ----- you ---- ---- ------- ----- ---- -------<br>--- --- -- ----- -- --- ---- -- --- ---- -- ------ ------<br>--- ----- -- ----,117189.78999997489,117189.00500005111,116755.398,116765.93999983743,116772.043,117205.683,,32,you
screen,html.Screen,1_1_0_1_33,2021-04-08T16:16:58.270Z,,,,,,,,,,,,,,,,53,,,,,,,,,,,,,,407.1619998795941,,response,,,,99,,,,,,,Space,keypress(Space),,,,,,,,---- -- ----- -- ------ - ------- --- ----------<br>------------- ------ ------ ---- ---- ------- ----- -- ----<br>-------- ------- -- ---------- --- - --- ----- ----- ----<br>---- --- --- ----- --- feel ---- ------- ----- ---- -------<br>--- --- -- ----- -- --- ---- -- --- ---- -- ------ ------<br>--- ----- -- ----,117613.58499992639,117612.8449998796,117189.019,117190.0049999822,117205.683,117622.563,,33,feel
screen,html.Screen,1_1_0_1_34,2021-04-08T16:16:58.686Z,,,,,,,,,,,,,,,,53,,,,,,,,,,,,,,406.20199993727147,,response,,,,99,,,,,,,Space,keypress(Space),,,,,,,,---- -- ----- -- ------ - ------- --- ----------<br>------------- ------ ------ ---- ---- ------- ----- -- ----<br>-------- ------- -- ---------- --- - --- ----- ----- ----<br>---- --- --- ----- --- ---- that ------- ----- ---- -------<br>--- --- -- ----- -- --- ---- -- --- ---- -- ------ ------<br>--- ----- -- ----,118029.48999986984,118028.76499993727,117605.952,117613.80499997176,117622.563,118039.515,,34,that
screen,html.Screen,1_1_0_1_35,2021-04-08T16:16:59.086Z,,,,,,,,,,,,,,,,53,,,,,,,,,,,,,,389.2199998485303,,response,,,,99,,,,,,,Space,keypress(Space),,,,,,,,---- -- ----- -- ------ - ------- --- ----------<br>------------- ------ ------ ---- ---- ------- ----- -- ----<br>-------- ------- -- ---------- --- - --- ----- ----- ----<br>---- --- --- ----- --- ---- ---- matters ----- ---- -------<br>--- --- -- ----- -- --- ---- -- --- ---- -- ------ ------<br>--- ----- -- ----,118429.465000052,118428.73499984853,118022.892,118029.70999991521,118039.515,118439.763,,35,matters
screen,html.Screen,1_1_0_1_36,2021-04-08T16:16:59.526Z,,,,,,,,,,,,,,,,53,,,,,,,,,,,,,,428.8919998819765,,response,,,,99,,,,,,,Space,keypress(Space),,,,,,,,"---- -- ----- -- ------ - ------- --- ----------<br>------------- ------ ------ ---- ---- ------- ----- -- ----<br>-------- ------- -- ---------- --- - --- ----- ----- ----<br>---- --- --- ----- --- ---- ---- ------- most, ---- -------<br>--- --- -- ----- -- --- ---- -- --- ---- -- ------ ------<br>--- ----- -- ----",118869.39499992877,118868.65499988198,118423.156,118429.6800000593,118439.763,118873.401,,36,"most,"
screen,html.Screen,1_1_0_1_37,2021-04-08T16:16:59.934Z,,,,,,,,,,,,,,,,53,,,,,,,,,,,,,,403.1790000634064,,response,,,,99,,,,,,,Space,keypress(Space),,,,,,,,---- -- ----- -- ------ - ------- --- ----------<br>------------- ------ ------ ---- ---- ------- ----- -- ----<br>-------- ------- -- ---------- --- - --- ----- ----- ----<br>---- --- --- ----- --- ---- ---- ------- ----- it's -------<br>--- --- -- ----- -- --- ---- -- --- ---- -- ------ ------<br>--- ----- -- ----,119277.32999995351,119276.5800000634,118856.779,118869.61499997415,118873.401,119290.273,,37,it's
screen,html.Screen,1_1_0_1_38,2021-04-08T16:17:00.326Z,,,,,,,,,,,,,,,,53,,,,,,,,,,,,,,378.31199986119464,,response,,,,99,,,,,,,Space,keypress(Space),,,,,,,,---- -- ----- -- ------ - ------- --- ----------<br>------------- ------ ------ ---- ---- ------- ----- -- ----<br>-------- ------- -- ---------- --- - --- ----- ----- ----<br>---- --- --- ----- --- ---- ---- ------- ----- ---- whether<br>--- --- -- ----- -- --- ---- -- --- ---- -- ------ ------<br>--- ----- -- ----,119669.35999994166,119668.5849998612,119273.718,119277.53999992274,119290.273,119673.941,,38,whether
screen,html.Screen,1_1_0_1_39,2021-04-08T16:17:00.806Z,,,,,,,,,,,,,,,,53,,,,,,,,,,,,,,474.568999969968,,response,,,,99,,,,,,,Space,keypress(Space),,,,,,,,---- -- ----- -- ------ - ------- --- ----------<br>------------- ------ ------ ---- ---- ------- ----- -- ----<br>-------- ------- -- ---------- --- - --- ----- ----- ----<br>---- --- --- ----- --- ---- ---- ------- ----- ---- -------<br>you --- -- ----- -- --- ---- -- --- ---- -- ------ ------<br>--- ----- -- ----,120149.56499985419,120148.50999996997,119657.299,119669.57499994896,119673.941,120157.567,,39,you
screen,html.Screen,1_1_0_1_40,2021-04-08T16:17:01.246Z,,,,,,,,,,,,,,,,53,,,,,,,,,,,,,,430.8729998467461,,response,,,,99,,,,,,,Space,keypress(Space),,,,,,,,---- -- ----- -- ------ - ------- --- ----------<br>------------- ------ ------ ---- ---- ------- ----- -- ----<br>-------- ------- -- ---------- --- - --- ----- ----- ----<br>---- --- --- ----- --- ---- ---- ------- ----- ---- -------<br>--- are -- ----- -- --- ---- -- --- ---- -- ------ ------<br>--- ----- -- ----,120589.24499992281,120588.43999984674,120140.961,120149.7799998615,120157.567,120591.209,,40,are
screen,html.Screen,1_1_0_1_41,2021-04-08T16:17:01.670Z,,,,,,,,,,,,,,,,53,,,,,,,,,,,,,,421.18599985240144,,response,,,,99,,,,,,,Space,keypress(Space),,,,,,,,---- -- ----- -- ------ - ------- --- ----------<br>------------- ------ ------ ---- ---- ------- ----- -- ----<br>-------- ------- -- ---------- --- - --- ----- ----- ----<br>---- --- --- ----- --- ---- ---- ------- ----- ---- -------<br>--- --- as ----- -- --- ---- -- --- ---- -- ------ ------<br>--- ----- -- ----,121013.21999984793,121012.3949998524,120574.534,120589.45999993011,120591.209,121024.797,,41,as
screen,html.Screen,1_1_0_1_42,2021-04-08T16:17:02.126Z,,,,,,,,,,,,,,,,53,,,,,,,,,,,,,,443.5280000234634,,response,,,,99,,,,,,,Space,keypress(Space),,,,,,,,---- -- ----- -- ------ - ------- --- ----------<br>------------- ------ ------ ---- ---- ------- ----- -- ----<br>-------- ------- -- ---------- --- - --- ----- ----- ----<br>---- --- --- ----- --- ---- ---- ------- ----- ---- -------<br>--- --- -- close -- --- ---- -- --- ---- -- ------ ------<br>--- ----- -- ----,121469.12999986671,121468.32500002347,121008.191,121013.43000005,121024.797,121475.035,,42,close
screen,html.Screen,1_1_0_1_43,2021-04-08T16:17:02.510Z,,,,,,,,,,,,,,,,53,,,,,,,,,,,,,,377.2399999538029,,response,,,,99,,,,,,,Space,keypress(Space),,,,,,,,---- -- ----- -- ------ - ------- --- ----------<br>------------- ------ ------ ---- ---- ------- ----- -- ----<br>-------- ------- -- ---------- --- - --- ----- ----- ----<br>---- --- --- ----- --- ---- ---- ------- ----- ---- -------<br>--- --- -- ----- as --- ---- -- --- ---- -- ------ ------<br>--- ----- -- ----,121853.08999987319,121852.2749999538,121458.498,121469.34499987401,121475.035,121858.717,,43,as
screen,html.Screen,1_1_0_1_44,2021-04-08T16:17:02.886Z,,,,,,,,,,,,,,,,53,,,,,,,,,,,,,,369.4779999742168,,response,,,,99,,,,,,,Space,keypress(Space),,,,,,,,---- -- ----- -- ------ - ------- --- ----------<br>------------- ------ ------ ---- ---- ------- ----- -- ----<br>-------- ------- -- ---------- --- - --- ----- ----- ----<br>---- --- --- ----- --- ---- ---- ------- ----- ---- -------<br>--- --- -- ----- -- you ---- -- --- ---- -- ------ ------<br>--- ----- -- ----,122229.00499985553,122228.19499997422,121842.081,121853.30499988049,121858.717,122242.267,,44,you
screen,html.Screen,1_1_0_1_45,2021-04-08T16:17:03.246Z,,,,,,,,,,,,,,,,53,,,,,,,,,,,,,,345.7479998702038,,response,,,,99,,,,,,,Space,keypress(Space),,,,,,,,---- -- ----- -- ------ - ------- --- ----------<br>------------- ------ ------ ---- ---- ------- ----- -- ----<br>-------- ------- -- ---------- --- - --- ----- ----- ----<br>---- --- --- ----- --- ---- ---- ------- ----- ---- -------<br>--- --- -- ----- -- --- want -- --- ---- -- ------ ------<br>--- ----- -- ----,122588.68499984965,122588.01499987021,122225.649,122229.2150000576,122242.267,122592.519,,45,want
screen,html.Screen,1_1_0_1_46,2021-04-08T16:17:03.957Z,,,,,,,,,,,,,,,,53,,,,,,,,,,,,,,707.4259998605994,,response,,,,99,,,,,,,Space,keypress(Space),,,,,,,,---- -- ----- -- ------ - ------- --- ----------<br>------------- ------ ------ ---- ---- ------- ----- -- ----<br>-------- ------- -- ---------- --- - --- ----- ----- ----<br>---- --- --- ----- --- ---- ---- ------- ----- ---- -------<br>--- --- -- ----- -- --- ---- to --- ---- -- ------ ------<br>--- ----- -- ----,123300.60499999672,123299.9449998606,122575.88,122588.89000001363,122592.519,123309.626,,46,to
screen,html.Screen,1_1_0_1_47,2021-04-08T16:17:04.605Z,,,,,,,,,,,,,,,,53,,,,,,,,,,,,,,638.1989999228826,,response,,,,99,,,,,,,Space,keypress(Space),,,,,,,,"---- -- ----- -- ------ - ------- --- ----------<br>------------- ------ ------ ---- ---- ------- ----- -- ----<br>-------- ------- -- ---------- --- - --- ----- ----- ----<br>---- --- --- ----- --- ---- ---- ------- ----- ---- -------<br>--- --- -- ----- -- --- ---- -- be, ---- -- ------ ------<br>--- ----- -- ----",123948.52499989793,123947.82499992289,123293.063,123300.80999992788,123309.626,123960.009,,47,"be,"
screen,html.Screen,1_1_0_1_48,2021-04-08T16:17:05.030Z,,,,,,,,,,,,,,,,53,,,,,,,,,,,,,,412.41599995044817,,response,,,,99,,,,,,,Space,keypress(Space),,,,,,,,---- -- ----- -- ------ - ------- --- ----------<br>------------- ------ ------ ---- ---- ------- ----- -- ----<br>-------- ------- -- ---------- --- - --- ----- ----- ----<br>---- --- --- ----- --- ---- ---- ------- ----- ---- -------<br>--- --- -- ----- -- --- ---- -- --- even -- ------ ------<br>--- ----- -- ----,124373.0800000485,124372.42499995045,123943.48,123948.73000006191,123960.009,124377.034,,48,even
screen,html.Screen,1_1_0_1_49,2021-04-08T16:17:05.389Z,,,,,,,,,,,,,,,,53,,,,,,,,,,,,,,354.6659998874966,,response,,,,99,,,,,,,Space,keypress(Space),,,,,,,,---- -- ----- -- ------ - ------- --- ----------<br>------------- ------ ------ ---- ---- ------- ----- -- ----<br>-------- ------- -- ---------- --- - --- ----- ----- ----<br>---- --- --- ----- --- ---- ---- ------- ----- ---- -------<br>--- --- -- ----- -- --- ---- -- --- ---- if ------ ------<br>--- ----- -- ----,124732.36999986693,124731.6999998875,124360.391,124373.28499997966,124377.034,124743.846,,49,if
screen,html.Screen,1_1_0_1_50,2021-04-08T16:17:05.813Z,,,,,,,,,,,,,,,,53,,,,,,,,,,,,,,411.77399985947704,,response,,,,99,,,,,,,Space,keypress(Space),,,,,,,,---- -- ----- -- ------ - ------- --- ----------<br>------------- ------ ------ ---- ---- ------- ----- -- ----<br>-------- ------- -- ---------- --- - --- ----- ----- ----<br>---- --- --- ----- --- ---- ---- ------- ----- ---- -------<br>--- --- -- ----- -- --- ---- -- --- ---- -- that's ------<br>--- ----- -- ----,125156.28999983892,125155.61999985948,124727.286,124732.57999983616,124743.846,125160.87,,50,that's
screen,html.Screen,1_1_0_1_51,2021-04-08T16:17:06.261Z,,,,,,,,,,,,,,,,53,,,,,,,,,,,,,,442.7149999170797,,response,,,,99,,,,,,,Space,keypress(Space),,,,,,,,---- -- ----- -- ------ - ------- --- ----------<br>------------- ------ ------ ---- ---- ------- ----- -- ----<br>-------- ------- -- ---------- --- - --- ----- ----- ----<br>---- --- --- ----- --- ---- ---- ------- ----- ---- -------<br>--- --- -- ----- -- --- ---- -- --- ---- -- ------ really<br>--- ----- -- ----,125604.28499989212,125603.58499991708,125144.236,125156.4950000029,125160.87,125611.007,,51,really
screen,html.Screen,1_1_0_1_52,2021-04-08T16:17:06.637Z,,,,,,,,,,,,,,,,53,,,,,,,,,,,,,,368.44800002242846,,response,,,,99,,,,,,,Space,keypress(Space),,,,,,,,---- -- ----- -- ------ - ------- --- ----------<br>------------- ------ ------ ---- ---- ------- ----- -- ----<br>-------- ------- -- ---------- --- - --- ----- ----- ----<br>---- --- --- ----- --- ---- ---- ------- ----- ---- -------<br>--- --- -- ----- -- --- ---- -- --- ---- -- ------ ------<br>not ----- -- ----,125980.17499991693,125979.45500002243,125594.538,125604.48500001803,125611.007,125994.798,,52,not
screen,html.Screen,1_1_0_1_53,2021-04-08T16:17:07.037Z,,,,,,,,,,,,,,,,53,,,,,,,,,,,,,,384.6519998912263,,response,,,,99,,,,,,,Space,keypress(Space),,,,,,,,---- -- ----- -- ------ - ------- --- ----------<br>------------- ------ ------ ---- ---- ------- ----- -- ----<br>-------- ------- -- ---------- --- - --- ----- ----- ----<br>---- --- --- ----- --- ---- ---- ------- ----- ---- -------<br>--- --- -- ----- -- --- ---- -- --- ---- -- ------ ------<br>--- close -- ----,126380.12499990873,126379.44999989122,125978.113,125980.37500004284,125994.798,126395.049,,53,close
screen,html.Screen,1_1_0_1_54,2021-04-08T16:17:07.453Z,,,,,,,,,,,,,,,,53,,,,,,,,,,,,,,400.25599991960917,,response,,,,99,,,,,,,Space,keypress(Space),,,,,,,,---- -- ----- -- ------ - ------- --- ----------<br>------------- ------ ------ ---- ---- ------- ----- -- ----<br>-------- ------- -- ---------- --- - --- ----- ----- ----<br>---- --- --- ----- --- ---- ---- ------- ----- ---- -------<br>--- --- -- ----- -- --- ---- -- --- ---- -- ------ ------<br>--- ----- at ----,126795.95499997959,126795.30499991961,126378.388,126380.32999983989,126395.049,126811.991,,54,at
screen,html.Screen,1_1_0_1_55,2021-04-08T16:17:08.021Z,,,,,,,,,,,,,,,,53,,,,,,,,,,,,,,551.3139998898114,,response,,,,99,,,,,,,Space,keypress(Space),,,,,,,,---- -- ----- -- ------ - ------- --- ----------<br>------------- ------ ------ ---- ---- ------- ----- -- ----<br>-------- ------- -- ---------- --- - --- ----- ----- ----<br>---- --- --- ----- --- ---- ---- ------- ----- ---- -------<br>--- --- -- ----- -- --- ---- -- --- ---- -- ------ ------<br>--- ----- -- all.,127363.94999991171,127363.3049998898,126795.322,126796.16499994881,126811.991,127378.997,,55,all.
Item 99,flow.Loop,1_1_0_1,2021-04-08T16:17:08.021Z,,,,,,,,,,,,,,,,,,,,,,,,,,,,,,25200.88199988981,,completion,,,,,D,,,,,,,,,,,silence,,,,,127364.36999985017,127363.3049998898,102129.068,102130.14999986626,102162.423,127378.997,,,
Question 1,html.Screen,1_1_0_2,2021-04-08T16:17:32.530Z,,,,,,,,,,,,,,,,,,,,,,,,,,,true,FALSE,,24493.267999896285,,response,,,,99,D,,,,,,FALSE,click #choice-2,,,,silence,,,,,151873.40499996208,151872.2649998963,127362.381,127364.55499986187,127378.997,151878.421,,,
Question 2,html.Screen,1_1_0_3,2021-04-08T16:17:34.282Z,,,,,,,,,,,,,,,,,,,,,,,,,,,true,TRUE,,1745.639000060124,,response,,,,99,D,,,,,,TRUE,click #choice-1,,,,silence,,,,,153625.05499995314,153624.06000006013,151861.751,151873.63499985076,151878.421,153629.608,,,
Item 99,flow.Sequence,1_1_0,2021-04-08T16:17:34.282Z,,,,,,,,,,,,,,,,,,,,,,,,,,,,,,61484.88500006012,,completion,,,,,,,,,,,,,,,,,,,,,153625.38999994285,153624.06000006013,92122.506,92137.39999989048,92139.175,153629.608,,,
Holding screen,html.Screen,1_1_1_0,2021-04-08T16:17:44.277Z,,,,,,,,,,,,,,,,,,,,,,,,,,,,,,10006.467999999993,,timeout,,,,,,,,,,,,,,,,,,,,,163620.0850000605,163619.461,153612.849,153625.60999998823,153629.608,163636.076,,,
screen,html.Screen,1_1_1_1_0,2021-04-08T16:17:46.680Z,,,,,,,,,,,,,,,,54,,,,,,,,,,,,,,2386.0439998632064,,response,,,,100,,,,,,,Space,keypress(Space),,,,,,,,At --- ---- --- ------ ----- ------- ---- -- --- ------- --<br>------- ---------- ------ -- ----- -- ----- -- ---- ------<br>--- ----- --- --- ------ -------- ----- --- ------ ----- --<br>----- ----- ---------- --- --- ------ ------ ---- -- ------<br>------- --- ------ ----- --- ---- ------- -- ---- --- --<br>------- ------,166022.88499986753,166022.1199998632,163619.461,163620.33499986865,163636.076,166037.756,,0,At
screen,html.Screen,1_1_1_1_1,2021-04-08T16:17:47.158Z,,,,,,,,,,,,,,,,54,,,,,,,,,,,,,,463.4390000189305,,response,,,,100,,,,,,,Space,keypress(Space),,,,,,,,-- the ---- --- ------ ----- ------- ---- -- --- ------- --<br>------- ---------- ------ -- ----- -- ----- -- ---- ------<br>--- ----- --- --- ------ -------- ----- --- ------ ----- --<br>----- ----- ---------- --- --- ------ ------ ---- -- ------<br>------- --- ------ ----- --- ---- ------- -- ---- --- --<br>------- ------,166501.6399999149,166501.19500001892,166021.332,166023.09000003152,166037.756,166504.602,,1,the
screen,html.Screen,1_1_1_1_2,2021-04-08T16:17:47.639Z,,,,,,,,,,,,,,,,54,,,,,,,,,,,,,,476.5429998523905,,response,,,,100,,,,,,,Space,keypress(Space),,,,,,,,-- --- time --- ------ ----- ------- ---- -- --- ------- --<br>------- ---------- ------ -- ----- -- ----- -- ---- ------<br>--- ----- --- --- ------ -------- ----- --- ------ ----- --<br>----- ----- ---------- --- --- ------ ------ ---- -- ------<br>------- --- ------ ----- --- ---- ------- -- ---- --- --<br>------- ------,166981.84999986552,166981.1449998524,166488.069,166501.75000005402,166504.602,166988.26,,2,time
screen,html.Screen,1_1_1_1_3,2021-04-08T16:17:48.127Z,,,,,,,,,,,,,,,,54,,,,,,,,,,,,,,480.89500005706213,,response,,,,100,,,,,,,Space,keypress(Space),,,,,,,,-- --- ---- the ------ ----- ------- ---- -- --- ------- --<br>------- ---------- ------ -- ----- -- ----- -- ---- ------<br>--- ----- --- --- ------ -------- ----- --- ------ ----- --<br>----- ----- ---------- --- --- ------ ------ ---- -- ------<br>------- --- ------ ----- --- ---- ------- -- ---- --- --<br>------- ------,167469.84499995597,167469.15500005707,166971.72,166982.04999999143,166988.26,167471.963,,3,the
screen,html.Screen,1_1_1_1_4,2021-04-08T16:17:48.623Z,,,,,,,,,,,,,,,,54,,,,,,,,,,,,,,492.97699985979125,,response,,,,100,,,,,,,Space,keypress(Space),,,,,,,,-- --- ---- --- French ----- ------- ---- -- --- ------- --<br>------- ---------- ------ -- ----- -- ----- -- ---- ------<br>--- ----- --- --- ------ -------- ----- --- ------ ----- --<br>----- ----- ---------- --- --- ------ ------ ---- -- ------<br>------- --- ------ ----- --- ---- ------- -- ---- --- --<br>------- ------,167965.65499994904,167964.93999985978,167455.377,167470.04999988712,167471.963,167972.203,,4,French
screen,html.Screen,1_1_1_1_5,2021-04-08T16:17:49.062Z,,,,,,,,,,,,,,,,54,,,,,,,,,,,,,,432.66199993129703,,response,,,,100,,,,,,,Space,keypress(Space),,,,,,,,-- --- ---- --- ------ crown ------- ---- -- --- ------- --<br>------- ---------- ------ -- ----- -- ----- -- ---- ------<br>--- ----- --- --- ------ -------- ----- --- ------ ----- --<br>----- ----- ---------- --- --- ------ ------ ---- -- ------<br>------- --- ------ ----- --- ---- ------- -- ---- --- --<br>------- ------,168405.37999989465,168404.8649999313,167955.708,167965.8449999988,167972.203,168422.619,,5,crown
screen,html.Screen,1_1_1_1_6,2021-04-08T16:17:51.390Z,,,,,,,,,,,,,,,,54,,,,,,,,,,,,,,2309.9959998698323,,response,,,,100,,,,,,,Space,keypress(Space),,,,,,,,-- --- ---- --- ------ ----- secured ---- -- --- ------- --<br>------- ---------- ------ -- ----- -- ----- -- ---- ------<br>--- ----- --- --- ------ -------- ----- --- ------ ----- --<br>----- ----- ---------- --- --- ------ ------ ---- -- ------<br>------- --- ------ ----- --- ---- ------- -- ---- --- --<br>------- ------,170733.52000000887,170732.61499986984,168389.311,168405.494999839,168422.619,170757.527,,6,secured
screen,html.Screen,1_1_1_1_7,2021-04-08T16:17:51.918Z,,,,,,,,,,,,,,,,54,,,,,,,,,,,,,,503.1879998657387,,response,,,,100,,,,,,,Space,keypress(Space),,,,,,,,-- --- ---- --- ------ ----- ------- much -- --- ------- --<br>------- ---------- ------ -- ----- -- ----- -- ---- ------<br>--- ----- --- --- ------ -------- ----- --- ------ ----- --<br>----- ----- ---------- --- --- ------ ------ ---- -- ------<br>------- --- ------ ----- --- ---- ------- -- ---- --- --<br>------- ------,171261.52499997988,171260.71499986574,170740.674,170733.7299999781,170757.527,171274.474,,7,much
screen,html.Screen,1_1_1_1_8,2021-04-08T16:17:52.318Z,,,,,,,,,,,,,,,,54,,,,,,,,,,,,,,385.99600000254577,,response,,,,100,,,,,,,Space,keypress(Space),,,,,,,,-- --- ---- --- ------ ----- ------- ---- of --- ------- --<br>------- ---------- ------ -- ----- -- ----- -- ---- ------<br>--- ----- --- --- ------ -------- ----- --- ------ ----- --<br>----- ----- ---------- --- --- ------ ------ ---- -- ------<br>------- --- ------ ----- --- ---- ------- -- ---- --- --<br>------- ------,171661.09499987215,171660.47000000253,171257.859,171261.73999998719,171274.474,171674.801,,8,of
screen,html.Screen,1_1_1_1_9,2021-04-08T16:17:52.734Z,,,,,,,,,,,,,,,,54,,,,,,,,,,,,,,401.5439999503724,,response,,,,100,,,,,,,Space,keypress(Space),,,,,,,,-- --- ---- --- ------ ----- ------- ---- -- its ------- --<br>------- ---------- ------ -- ----- -- ----- -- ---- ------<br>--- ----- --- --- ------ -------- ----- --- ------ ----- --<br>----- ----- ---------- --- --- ------ ------ ---- -- ------<br>------- --- ------ ----- --- ---- ------- -- ---- --- --<br>------- ------,172077.20499997959,172076.34499995038,171658.113,171661.30499984138,171674.801,172108.423,,9,its
screen,html.Screen,1_1_1_1_10,2021-04-08T16:17:53.230Z,,,,,,,,,,,,,,,,54,,,,,,,,,,,,,,463.9570000268868,,response,,,,100,,,,,,,Space,keypress(Space),,,,,,,,-- --- ---- --- ------ ----- ------- ---- -- --- revenue --<br>------- ---------- ------ -- ----- -- ----- -- ---- ------<br>--- ----- --- --- ------ -------- ----- --- ------ ----- --<br>----- ----- ---------- --- --- ------ ------ ---- -- ------<br>------- --- ------ ----- --- ---- ------- -- ---- --- --<br>------- ------,172573.1599999126,172572.3800000269,172091.704,172077.4149999488,172108.423,172575.353,,10,revenue
screen,html.Screen,1_1_1_1_11,2021-04-08T16:17:53.726Z,,,,,,,,,,,,,,,,54,,,,,,,,,,,,,,492.9519999643089,,response,,,,100,,,,,,,Space,keypress(Space),,,,,,,,-- --- ---- --- ------ ----- ------- ---- -- --- ------- by<br>------- ---------- ------ -- ----- -- ----- -- ---- ------<br>--- ----- --- --- ------ -------- ----- --- ------ ----- --<br>----- ----- ---------- --- --- ------ ------ ---- -- ------<br>------- --- ------ ----- --- ---- ------- -- ---- --- --<br>------- ------,173069.06999996863,173068.3049999643,172558.726,172573.39499983937,172575.353,173075.62,,11,by
screen,html.Screen,1_1_1_1_12,2021-04-08T16:17:54.198Z,,,,,,,,,,,,,,,,54,,,,,,,,,,,,,,464.5849999684142,,response,,,,100,,,,,,,Space,keypress(Space),,,,,,,,-- --- ---- --- ------ ----- ------- ---- -- --- ------- --<br>issuing ---------- ------ -- ----- -- ----- -- ---- ------<br>--- ----- --- --- ------ -------- ----- --- ------ ----- --<br>----- ----- ---------- --- --- ------ ------ ---- -- ------<br>------- --- ------ ----- --- ---- ------- -- ---- --- --<br>------- ------,173541.0199998878,173540.2049999684,173059.056,173069.30999993347,173075.62,173568.329,,12,issuing
screen,html.Screen,1_1_1_1_13,2021-04-08T16:17:54.654Z,,,,,,,,,,,,,,,,54,,,,,,,,,,,,,,427.81599998279125,,response,,,,100,,,,,,,Space,keypress(Space),,,,,,,,-- --- ---- --- ------ ----- ------- ---- -- --- ------- --<br>------- government ------ -- ----- -- ----- -- ---- ------<br>--- ----- --- --- ------ -------- ----- --- ------ ----- --<br>----- ----- ---------- --- --- ------ ------ ---- -- ------<br>------- --- ------ ----- --- ---- ------- -- ---- --- --<br>------- ------,173996.6149998363,173996.1449999828,173526.013,173541.2349998951,173568.329,174009.595,,13,government
screen,html.Screen,1_1_1_1_14,2021-04-08T16:17:55.102Z,,,,,,,,,,,,,,,,54,,,,,,,,,,,,,,434.56999999351683,,response,,,,100,,,,,,,Space,keypress(Space),,,,,,,,-- --- ---- --- ------ ----- ------- ---- -- --- ------- --<br>------- ---------- bonds. -- ----- -- ----- -- ---- ------<br>--- ----- --- --- ------ -------- ----- --- ------ ----- --<br>----- ----- ---------- --- --- ------ ------ ---- -- ------<br>------- --- ------ ----- --- ---- ------- -- ---- --- --<br>------- ------,174444.93999984115,174444.16499999352,173992.996,173996.73500005156,174009.595,174459.948,,14,bonds.
screen,html.Screen,1_1_1_1_15,2021-04-08T16:17:55.518Z,,,,,,,,,,,,,,,,54,,,,,,,,,,,,,,400.0669999838283,,response,,,,100,,,,,,,Space,keypress(Space),,,,,,,,-- --- ---- --- ------ ----- ------- ---- -- --- ------- --<br>------- ---------- ------ In ----- -- ----- -- ---- ------<br>--- ----- --- --- ------ -------- ----- --- ------ ----- --<br>----- ----- ---------- --- --- ------ ------ ---- -- ------<br>------- --- ------ ----- --- ---- ------- -- ---- --- --<br>------- ------,174860.78500002623,174860.01499998383,174443.299,174445.1500000432,174459.948,174876.843,,15,In
screen,html.Screen,1_1_1_1_16,2021-04-08T16:17:55.902Z,,,,,,,,,,,,,,,,54,,,,,,,,,,,,,,367.13700002839323,,response,,,,100,,,,,,,Space,keypress(Space),,,,,,,,"-- --- ---- --- ------ ----- ------- ---- -- --- ------- --<br>------- ---------- ------ -- 1727, -- ----- -- ---- ------<br>--- ----- --- --- ------ -------- ----- --- ------ ----- --<br>----- ----- ---------- --- --- ------ ------ ---- -- ------<br>------- --- ------ ----- --- ---- ------- -- ---- --- --<br>------- ------",175244.74999983795,175243.9800000284,174860.232,174861.00000003353,174876.843,175260.482,,16,"1727,"
screen,html.Screen,1_1_1_1_17,2021-04-08T16:17:56.302Z,,,,,,,,,,,,,,,,54,,,,,,,,,,,,,,383.49299989719293,,response,,,,100,,,,,,,Space,keypress(Space),,,,,,,,-- --- ---- --- ------ ----- ------- ---- -- --- ------- --<br>------- ---------- ------ -- ----- in ----- -- ---- ------<br>--- ----- --- --- ------ -------- ----- --- ------ ----- --<br>----- ----- ---------- --- --- ------ ------ ---- -- ------<br>------- --- ------ ----- --- ---- ------- -- ---- --- --<br>------- ------,175644.71499994397,175643.97499989718,175243.812,175244.95500000194,175260.482,175660.746,,17,in
screen,html.Screen,1_1_1_1_18,2021-04-08T16:17:56.670Z,,,,,,,,,,,,,,,,54,,,,,,,,,,,,,,351.2189998377871,,response,,,,100,,,,,,,Space,keypress(Space),,,,,,,,-- --- ---- --- ------ ----- ------- ---- -- --- ------- --<br>------- ---------- ------ -- ----- -- order -- ---- ------<br>--- ----- --- --- ------ -------- ----- --- ------ ----- --<br>----- ----- ---------- --- --- ------ ------ ---- -- ------<br>------- --- ------ ----- --- ---- ------- -- ---- --- --<br>------- ------,176012.7850000281,176011.9649998378,175644.078,175644.91999987513,175660.746,176027.561,,18,order
screen,html.Screen,1_1_1_1_19,2021-04-08T16:17:57.118Z,,,,,,,,,,,,,,,,54,,,,,,,,,,,,,,432.75899983826093,,response,,,,100,,,,,,,Space,keypress(Space),,,,,,,,-- --- ---- --- ------ ----- ------- ---- -- --- ------- --<br>------- ---------- ------ -- ----- -- ----- to ---- ------<br>--- ----- --- --- ------ -------- ----- --- ------ ----- --<br>----- ----- ---------- --- --- ------ ------ ---- -- ------<br>------- --- ------ ----- --- ---- ------- -- ---- --- --<br>------- ------,176461.2199999392,176460.31999983825,176010.98,176013.0099998787,176027.561,176477.961,,19,to
screen,html.Screen,1_1_1_1_20,2021-04-08T16:17:57.582Z,,,,,,,,,,,,,,,,54,,,,,,,,,,,,,,445.69899985485245,,response,,,,100,,,,,,,Space,keypress(Space),,,,,,,,-- --- ---- --- ------ ----- ------- ---- -- --- ------- --<br>------- ---------- ------ -- ----- -- ----- -- save ------<br>--- ----- --- --- ------ -------- ----- --- ------ ----- --<br>----- ----- ---------- --- --- ------ ------ ---- -- ------<br>------- --- ------ ----- --- ---- ------- -- ---- --- --<br>------- ------,176924.39999990165,176923.65999985486,176461.27,176461.42499987036,176477.961,176944.921,,20,save
screen,html.Screen,1_1_1_1_21,2021-04-08T16:17:58.109Z,,,,,,,,,,,,,,,,54,,,,,,,,,,,,,,506.67399999135523,,response,,,,100,,,,,,,Space,keypress(Space),,,,,,,,"-- --- ---- --- ------ ----- ------- ---- -- --- ------- --<br>------- ---------- ------ -- ----- -- ----- -- ---- money,<br>--- ----- --- --- ------ -------- ----- --- ------ ----- --<br>----- ----- ---------- --- --- ------ ------ ---- -- ------<br>------- --- ------ ----- --- ---- ------- -- ---- --- --<br>------- ------",177452.1249998361,177451.59499999136,176928.224,176924.61499990895,176944.921,177461.815,,21,"money,"
screen,html.Screen,1_1_1_1_22,2021-04-08T16:17:58.589Z,,,,,,,,,,,,,,,,54,,,,,,,,,,,,,,469.55499988928204,,response,,,,100,,,,,,,Space,keypress(Space),,,,,,,,-- --- ---- --- ------ ----- ------- ---- -- --- ------- --<br>------- ---------- ------ -- ----- -- ----- -- ---- ------<br>the ----- --- --- ------ -------- ----- --- ------ ----- --<br>----- ----- ---------- --- --- ------ ------ ---- -- ------<br>------- --- ------ ----- --- ---- ------- -- ---- --- --<br>------- ------,177932.1250000503,177931.36999988928,177445.242,177452.27500004694,177461.815,177945.5,,22,the
screen,html.Screen,1_1_1_1_23,2021-04-08T16:17:59.085Z,,,,,,,,,,,,,,,,54,,,,,,,,,,,,,,481.9100000038743,,response,,,,100,,,,,,,Space,keypress(Space),,,,,,,,-- --- ---- --- ------ ----- ------- ---- -- --- ------- --<br>------- ---------- ------ -- ----- -- ----- -- ---- ------<br>--- state --- --- ------ -------- ----- --- ------ ----- --<br>----- ----- ---------- --- --- ------ ------ ---- -- ------<br>------- --- ------ ----- --- ---- ------- -- ---- --- --<br>------- ------,178428.06999990717,178427.41000000387,177928.917,177932.32499994338,177945.5,178445.836,,23,state
screen,html.Screen,1_1_1_1_24,2021-04-08T16:17:59.565Z,,,,,,,,,,,,,,,,54,,,,,,,,,,,,,,461.50399991788436,,response,,,,100,,,,,,,Space,keypress(Space),,,,,,,,-- --- ---- --- ------ ----- ------- ---- -- --- ------- --<br>------- ---------- ------ -- ----- -- ----- -- ---- ------<br>--- ----- cut --- ------ -------- ----- --- ------ ----- --<br>----- ----- ---------- --- --- ------ ------ ---- -- ------<br>------- --- ------ ----- --- ---- ------- -- ---- --- --<br>------- ------,178908.1399999559,178907.3399999179,178412.573,178428.2799998764,178445.836,178912.847,,24,cut
screen,html.Screen,1_1_1_1_25,2021-04-08T16:18:00.045Z,,,,,,,,,,,,,,,,54,,,,,,,,,,,,,,474.3729999168427,,response,,,,100,,,,,,,Space,keypress(Space),,,,,,,,-- --- ---- --- ------ ----- ------- ---- -- --- ------- --<br>------- ---------- ------ -- ----- -- ----- -- ---- ------<br>--- ----- --- the ------ -------- ----- --- ------ ----- --<br>----- ----- ---------- --- --- ------ ------ ---- -- ------<br>------- --- ------ ----- --- ---- ------- -- ---- --- --<br>------- ------,179387.8750000149,179387.21999991685,178896.217,178908.33500004373,178912.847,179396.406,,25,the
screen,html.Screen,1_1_1_1_26,2021-04-08T16:18:00.501Z,,,,,,,,,,,,,,,,54,,,,,,,,,,,,,,446.8789999517321,,response,,,,100,,,,,,,Space,keypress(Space),,,,,,,,-- --- ---- --- ------ ----- ------- ---- -- --- ------- --<br>------- ---------- ------ -- ----- -- ----- -- ---- ------<br>--- ----- --- --- bonds' -------- ----- --- ------ ----- --<br>----- ----- ---------- --- --- ------ ------ ---- -- ------<br>------- --- ------ ----- --- ---- ------- -- ---- --- --<br>------- ------,179843.9950000029,179843.28499995172,179379.874,179388.07999994606,179396.406,179846.697,,26,bonds'
screen,html.Screen,1_1_1_1_27,2021-04-08T16:18:00.973Z,,,,,,,,,,,,,,,,54,,,,,,,,,,,,,,468.43300000269664,,response,,,,100,,,,,,,Space,keypress(Space),,,,,,,,-- --- ---- --- ------ ----- ------- ---- -- --- ------- --<br>------- ---------- ------ -- ----- -- ----- -- ---- ------<br>--- ----- --- --- ------ interest ----- --- ------ ----- --<br>----- ----- ---------- --- --- ------ ------ ---- -- ------<br>------- --- ------ ----- --- ---- ------- -- ---- --- --<br>------- ------,180315.81000005826,180315.13000000268,179830.101,179844.18999985792,179846.697,180330.473,,27,interest
screen,html.Screen,1_1_1_1_28,2021-04-08T16:18:01.421Z,,,,,,,,,,,,,,,,54,,,,,,,,,,,,,,432.5570000309963,,response,,,,100,,,,,,,Space,keypress(Space),,,,,,,,-- --- ---- --- ------ ----- ------- ---- -- --- ------- --<br>------- ---------- ------ -- ----- -- ----- -- ---- ------<br>--- ----- --- --- ------ -------- rate. --- ------ ----- --<br>----- ----- ---------- --- --- ------ ------ ---- -- ------<br>------- --- ------ ----- --- ---- ------- -- ---- --- --<br>------- ------,180763.78999999724,180763.030000031,180313.823,180316.0200000275,180330.473,180780.724,,28,rate.
screen,html.Screen,1_1_1_1_29,2021-04-08T16:18:01.957Z,,,,,,,,,,,,,,,,54,,,,,,,,,,,,,,518.2109998533851,,response,,,,100,,,,,,,Space,keypress(Space),,,,,,,,-- --- ---- --- ------ ----- ------- ---- -- --- ------- --<br>------- ---------- ------ -- ----- -- ----- -- ---- ------<br>--- ----- --- --- ------ -------- ----- The ------ ----- --<br>----- ----- ---------- --- --- ------ ------ ---- -- ------<br>------- --- ------ ----- --- ---- ------- -- ---- --- --<br>------- ------,181299.63000002317,181298.93499985337,180764.112,180764.01000004262,180780.724,181314.454,,29,The
screen,html.Screen,1_1_1_1_30,2021-04-08T16:18:02.413Z,,,,,,,,,,,,,,,,54,,,,,,,,,,,,,,440.46599997757585,,response,,,,100,,,,,,,Space,keypress(Space),,,,,,,,-- --- ---- --- ------ ----- ------- ---- -- --- ------- --<br>------- ---------- ------ -- ----- -- ----- -- ---- ------<br>--- ----- --- --- ------ -------- ----- --- market ----- --<br>----- ----- ---------- --- --- ------ ------ ---- -- ------<br>------- --- ------ ----- --- ---- ------- -- ---- --- --<br>------- ------,181755.5749998428,181754.91999997757,181297.739,181299.82999991626,181314.454,181764.692,,30,market
screen,html.Screen,1_1_1_1_31,2021-04-08T16:18:02.820Z,,,,,,,,,,,,,,,,54,,,,,,,,,,,,,,398.04300001988304,,response,,,,100,,,,,,,Space,keypress(Space),,,,,,,,-- --- ---- --- ------ ----- ------- ---- -- --- ------- --<br>------- ---------- ------ -- ----- -- ----- -- ---- ------<br>--- ----- --- --- ------ -------- ----- --- ------ value --<br>----- ----- ---------- --- --- ------ ------ ---- -- ------<br>------- --- ------ ----- --- ---- ------- -- ---- --- --<br>------- ------,182163.2399999071,182162.7350000199,181748.091,181755.78000000678,181764.692,182164.941,,31,value
screen,html.Screen,1_1_1_1_32,2021-04-08T16:18:03.261Z,,,,,,,,,,,,,,,,54,,,,,,,,,,,,,,437.78399988787714,,response,,,,100,,,,,,,Space,keypress(Space),,,,,,,,-- --- ---- --- ------ ----- ------- ---- -- --- ------- --<br>------- ---------- ------ -- ----- -- ----- -- ---- ------<br>--- ----- --- --- ------ -------- ----- --- ------ ----- of<br>----- ----- ---------- --- --- ------ ------ ---- -- ------<br>------- --- ------ ----- --- ---- ------- -- ---- --- --<br>------- ------,182603.37999998592,182602.72499988787,182148.31,182163.36999996565,182164.941,182615.21,,32,of
screen,html.Screen,1_1_1_1_33,2021-04-08T16:18:03.780Z,,,,,,,,,,,,,,,,54,,,,,,,,,,,,,,507.45499991529505,,response,,,,100,,,,,,,Space,keypress(Space),,,,,,,,-- --- ---- --- ------ ----- ------- ---- -- --- ------- --<br>------- ---------- ------ -- ----- -- ----- -- ---- ------<br>--- ----- --- --- ------ -------- ----- --- ------ ----- --<br>these ----- ---------- --- --- ------ ------ ---- -- ------<br>------- --- ------ ----- --- ---- ------- -- ---- --- --<br>------- ------,183123.3250000514,183122.6649999153,182598.645,182603.579999879,182615.21,183132.161,,33,these
screen,html.Screen,1_1_1_1_34,2021-04-08T16:18:04.245Z,,,,,,,,,,,,,,,,54,,,,,,,,,,,,,,454.49900002995855,,response,,,,100,,,,,,,Space,keypress(Space),,,,,,,,-- --- ---- --- ------ ----- ------- ---- -- --- ------- --<br>------- ---------- ------ -- ----- -- ----- -- ---- ------<br>--- ----- --- --- ------ -------- ----- --- ------ ----- --<br>----- bonds ---------- --- --- ------ ------ ---- -- ------<br>------- --- ------ ----- --- ---- ------- -- ---- --- --<br>------- ------,183587.34999992885,183586.66000002995,183115.664,183123.54499986395,183132.161,183599.231,,34,bonds
screen,html.Screen,1_1_1_1_35,2021-04-08T16:18:04.660Z,,,,,,,,,,,,,,,,54,,,,,,,,,,,,,,403.2889998635801,,response,,,,100,,,,,,,Space,keypress(Space),,,,,,,,"-- --- ---- --- ------ ----- ------- ---- -- --- ------- --<br>------- ---------- ------ -- ----- -- ----- -- ---- ------<br>--- ----- --- --- ------ -------- ----- --- ------ ----- --<br>----- ----- plummeted, --- --- ------ ------ ---- -- ------<br>------- --- ------ ----- --- ---- ------- -- ---- --- --<br>------- ------",184003.21500003338,184002.51999986358,183582.631,183587.5750000123,183599.231,184016.233,,35,"plummeted,"
screen,html.Screen,1_1_1_1_36,2021-04-08T16:18:05.132Z,,,,,,,,,,,,,,,,54,,,,,,,,,,,,,,458.1919999057427,,response,,,,100,,,,,,,Space,keypress(Space),,,,,,,,-- --- ---- --- ------ ----- ------- ---- -- --- ------- --<br>------- ---------- ------ -- ----- -- ----- -- ---- ------<br>--- ----- --- --- ------ -------- ----- --- ------ ----- --<br>----- ----- ---------- and --- ------ ------ ---- -- ------<br>------- --- ------ ----- --- ---- ------- -- ---- --- --<br>------- ------,184475.139999995,184474.42499990575,183999.563,184003.41499992646,184016.233,184483.078,,36,and
screen,html.Screen,1_1_1_1_37,2021-04-08T16:18:05.596Z,,,,,,,,,,,,,,,,54,,,,,,,,,,,,,,455.34700005847844,,response,,,,100,,,,,,,Space,keypress(Space),,,,,,,,-- --- ---- --- ------ ----- ------- ---- -- --- ------- --<br>------- ---------- ------ -- ----- -- ----- -- ---- ------<br>--- ----- --- --- ------ -------- ----- --- ------ ----- --<br>----- ----- ---------- --- the ------ ------ ---- -- ------<br>------- --- ------ ----- --- ---- ------- -- ---- --- --<br>------- ------,184939.12999983877,184938.4250000585,184466.546,184475.3399998881,184483.078,184950.111,,37,the
screen,html.Screen,1_1_1_1_38,2021-04-08T16:18:06.028Z,,,,,,,,,,,,,,,,54,,,,,,,,,,,,,,420.3090000502125,,response,,,,100,,,,,,,Space,keypress(Space),,,,,,,,-- --- ---- --- ------ ----- ------- ---- -- --- ------- --<br>------- ---------- ------ -- ----- -- ----- -- ---- ------<br>--- ----- --- --- ------ -------- ----- --- ------ ----- --<br>----- ----- ---------- --- --- market ------ ---- -- ------<br>------- --- ------ ----- --- ---- ------- -- ---- --- --<br>------- ------,185371.21999985538,185370.42000005022,184933.48,184939.34000004083,184950.111,185383.757,,38,market
screen,html.Screen,1_1_1_1_39,2021-04-08T16:18:06.444Z,,,,,,,,,,,,,,,,54,,,,,,,,,,,,,,402.5029999643739,,response,,,,100,,,,,,,Space,keypress(Space),,,,,,,,-- --- ---- --- ------ ----- ------- ---- -- --- ------- --<br>------- ---------- ------ -- ----- -- ----- -- ---- ------<br>--- ----- --- --- ------ -------- ----- --- ------ ----- --<br>----- ----- ---------- --- --- ------ became ---- -- ------<br>------- --- ------ ----- --- ---- ------- -- ---- --- --<br>------- ------,185786.94500005804,185786.2599999644,185367.132,185371.43000005744,185383.757,185800.74,,39,became
screen,html.Screen,1_1_1_1_40,2021-04-08T16:18:06.988Z,,,,,,,,,,,,,,,,54,,,,,,,,,,,,,,529.5149999207351,,response,,,,100,,,,,,,Space,keypress(Space),,,,,,,,-- --- ---- --- ------ ----- ------- ---- -- --- ------- --<br>------- ---------- ------ -- ----- -- ----- -- ---- ------<br>--- ----- --- --- ------ -------- ----- --- ------ ----- --<br>----- ----- ---------- --- --- ------ ------ wary -- ------<br>------- --- ------ ----- --- ---- ------- -- ---- --- --<br>------- ------,186331.02499996312,186330.25499992073,185784.072,185787.0999998413,185800.74,186334.42,,40,wary
screen,html.Screen,1_1_1_1_41,2021-04-08T16:18:07.413Z,,,,,,,,,,,,,,,,54,,,,,,,,,,,,,,420.4649999438843,,response,,,,100,,,,,,,Space,keypress(Space),,,,,,,,-- --- ---- --- ------ ----- ------- ---- -- --- ------- --<br>------- ---------- ------ -- ----- -- ----- -- ---- ------<br>--- ----- --- --- ------ -------- ----- --- ------ ----- --<br>----- ----- ---------- --- --- ------ ------ ---- of ------<br>------- --- ------ ----- --- ---- ------- -- ---- --- --<br>------- ------,186755.64999994822,186754.8849999439,186317.776,186331.23999997042,186334.42,186767.984,,41,of
screen,html.Screen,1_1_1_1_42,2021-04-08T16:18:07.892Z,,,,,,,,,,,,,,,,54,,,,,,,,,,,,,,465.99600001907675,,response,,,,100,,,,,,,Space,keypress(Space),,,,,,,,-- --- ---- --- ------ ----- ------- ---- -- --- ------- --<br>------- ---------- ------ -- ----- -- ----- -- ---- ------<br>--- ----- --- --- ------ -------- ----- --- ------ ----- --<br>----- ----- ---------- --- --- ------ ------ ---- -- French<br>------- --- ------ ----- --- ---- ------- -- ---- --- --<br>------- ------,187234.6349998843,187233.98000001907,186751.385,186755.85999991745,186767.984,187251.698,,42,French
screen,html.Screen,1_1_1_1_43,2021-04-08T16:18:08.380Z,,,,,,,,,,,,,,,,54,,,,,,,,,,,,,,470.3719999015739,,response,,,,100,,,,,,,Space,keypress(Space),,,,,,,,-- --- ---- --- ------ ----- ------- ---- -- --- ------- --<br>------- ---------- ------ -- ----- -- ----- -- ---- ------<br>--- ----- --- --- ------ -------- ----- --- ------ ----- --<br>----- ----- ---------- --- --- ------ ------ ---- -- ------<br>credit. --- ------ ----- --- ---- ------- -- ---- --- --<br>------- ------,187722.7449999191,187722.06999990158,187234.969,187234.75000006147,187251.698,187735.288,,43,credit.
screen,html.Screen,1_1_1_1_44,2021-04-08T16:18:08.892Z,,,,,,,,,,,,,,,,54,,,,,,,,,,,,,,498.6819999429281,,response,,,,100,,,,,,,Space,keypress(Space),,,,,,,,-- --- ---- --- ------ ----- ------- ---- -- --- ------- --<br>------- ---------- ------ -- ----- -- ----- -- ---- ------<br>--- ----- --- --- ------ -------- ----- --- ------ ----- --<br>----- ----- ---------- --- --- ------ ------ ---- -- ------<br>------- The ------ ----- --- ---- ------- -- ---- --- --<br>------- ------,188234.7549998667,188233.96999994293,187718.706,187722.97999984585,187735.288,188252.319,,44,The
screen,html.Screen,1_1_1_1_45,2021-04-08T16:18:09.292Z,,,,,,,,,,,,,,,,54,,,,,,,,,,,,,,381.51099994793185,,response,,,,100,,,,,,,Space,keypress(Space),,,,,,,,-- --- ---- --- ------ ----- ------- ---- -- --- ------- --<br>------- ---------- ------ -- ----- -- ----- -- ---- ------<br>--- ----- --- --- ------ -------- ----- --- ------ ----- --<br>----- ----- ---------- --- --- ------ ------ ---- -- ------<br>------- --- French ----- --- ---- ------- -- ---- --- --<br>------- ------,188634.6650000196,188633.82999994792,188218.953,188234.96499983594,188252.319,188652.622,,45,French
screen,html.Screen,1_1_1_1_46,2021-04-08T16:18:09.716Z,,,,,,,,,,,,,,,,54,,,,,,,,,,,,,,405.192999949184,,response,,,,100,,,,,,,Space,keypress(Space),,,,,,,,-- --- ---- --- ------ ----- ------- ---- -- --- ------- --<br>------- ---------- ------ -- ----- -- ----- -- ---- ------<br>--- ----- --- --- ------ -------- ----- --- ------ ----- --<br>----- ----- ---------- --- --- ------ ------ ---- -- ------<br>------- --- ------ state --- ---- ------- -- ---- --- --<br>------- ------,189058.63999994472,189057.8149999492,188635.907,188634.86999995075,188652.622,189069.491,,46,state
screen,html.Screen,1_1_1_1_47,2021-04-08T16:18:10.180Z,,,,,,,,,,,,,,,,54,,,,,,,,,,,,,,452.303999949625,,response,,,,100,,,,,,,Space,keypress(Space),,,,,,,,-- --- ---- --- ------ ----- ------- ---- -- --- ------- --<br>------- ---------- ------ -- ----- -- ----- -- ---- ------<br>--- ----- --- --- ------ -------- ----- --- ------ ----- --<br>----- ----- ---------- --- --- ------ ------ ---- -- ------<br>------- --- ------ ----- was ---- ------- -- ---- --- --<br>------- ------,189522.53499999642,189521.79499994963,189052.868,189058.90999990515,189069.491,189536.531,,47,was
screen,html.Screen,1_1_1_1_48,2021-04-08T16:18:10.796Z,,,,,,,,,,,,,,,,54,,,,,,,,,,,,,,601.2139999563515,,response,,,,100,,,,,,,Space,keypress(Space),,,,,,,,-- --- ---- --- ------ ----- ------- ---- -- --- ------- --<br>------- ---------- ------ -- ----- -- ----- -- ---- ------<br>--- ----- --- --- ------ -------- ----- --- ------ ----- --<br>----- ----- ---------- --- --- ------ ------ ---- -- ------<br>------- --- ------ ----- --- left ------- -- ---- --- --<br>------- ------,190138.4699998889,190137.74499995634,189519.864,189522.75999984704,189536.531,190153.608,,48,left
screen,html.Screen,1_1_1_1_49,2021-04-08T16:18:11.444Z,,,,,,,,,,,,,,,,54,,,,,,,,,,,,,,632.0019999044016,,response,,,,100,,,,,,,Space,keypress(Space),,,,,,,,-- --- ---- --- ------ ----- ------- ---- -- --- ------- --<br>------- ---------- ------ -- ----- -- ----- -- ---- ------<br>--- ----- --- --- ------ -------- ----- --- ------ ----- --<br>----- ----- ---------- --- --- ------ ------ ---- -- ------<br>------- --- ------ ----- --- ---- without -- ---- --- --<br>------- ------,190786.39000002295,190785.6099999044,190136.957,190138.67999985814,190153.608,190804.001,,49,without
screen,html.Screen,1_1_1_1_50,2021-04-08T16:18:12.347Z,,,,,,,,,,,,,,,,54,,,,,,,,,,,,,,885.3839999178308,,response,,,,100,,,,,,,Space,keypress(Space),,,,,,,,-- --- ---- --- ------ ----- ------- ---- -- --- ------- --<br>------- ---------- ------ -- ----- -- ----- -- ---- ------<br>--- ----- --- --- ------ -------- ----- --- ------ ----- --<br>----- ----- ---------- --- --- ------ ------ ---- -- ------<br>------- --- ------ ----- --- ---- ------- an ---- --- --<br>------- ------,191690.07500004955,191689.38499991782,190770.716,190786.5949999541,190804.001,191704.61,,50,an
screen,html.Screen,1_1_1_1_51,2021-04-08T16:18:13.091Z,,,,,,,,,,,,,,,,54,,,,,,,,,,,,,,728.6799998407951,,response,,,,100,,,,,,,Space,keypress(Space),,,,,,,,-- --- ---- --- ------ ----- ------- ---- -- --- ------- --<br>------- ---------- ------ -- ----- -- ----- -- ---- ------<br>--- ----- --- --- ------ -------- ----- --- ------ ----- --<br>----- ----- ---------- --- --- ------ ------ ---- -- ------<br>------- --- ------ ----- --- ---- ------- -- easy --- --<br>------- ------,192433.93999990076,192433.28999984078,191688.023,191690.28500001878,191704.61,192438.421,,51,easy
screen,html.Screen,1_1_1_1_52,2021-04-08T16:18:13.795Z,,,,,,,,,,,,,,,,54,,,,,,,,,,,,,,698.793999878777,,response,,,,100,,,,,,,Space,keypress(Space),,,,,,,,-- --- ---- --- ------ ----- ------- ---- -- --- ------- --<br>------- ---------- ------ -- ----- -- ----- -- ---- ------<br>--- ----- --- --- ------ -------- ----- --- ------ ----- --<br>----- ----- ---------- --- --- ------ ------ ---- -- ------<br>------- --- ------ ----- --- ---- ------- -- ---- way --<br>------- ------,193137.9050000105,193137.21499987878,192421.81,192434.14499983191,192438.421,193155.498,,52,way
screen,html.Screen,1_1_1_1_53,2021-04-08T16:18:14.259Z,,,,,,,,,,,,,,,,54,,,,,,,,,,,,,,445.5620000154304,,response,,,,100,,,,,,,Space,keypress(Space),,,,,,,,-- --- ---- --- ------ ----- ------- ---- -- --- ------- --<br>------- ---------- ------ -- ----- -- ----- -- ---- ------<br>--- ----- --- --- ------ -------- ----- --- ------ ----- --<br>----- ----- ---------- --- --- ------ ------ ---- -- ------<br>------- --- ------ ----- --- ---- ------- -- ---- --- of<br>------- ------,193601.7249999568,193601.06000001542,193122.261,193138.10999994166,193155.498,193605.841,,53,of
screen,html.Screen,1_1_1_1_54,2021-04-08T16:18:14.755Z,,,,,,,,,,,,,,,,54,,,,,,,,,,,,,,491.1289998386346,,response,,,,100,,,,,,,Space,keypress(Space),,,,,,,,-- --- ---- --- ------ ----- ------- ---- -- --- ------- --<br>------- ---------- ------ -- ----- -- ----- -- ---- ------<br>--- ----- --- --- ------ -------- ----- --- ------ ----- --<br>----- ----- ---------- --- --- ------ ------ ---- -- ------<br>------- --- ------ ----- --- ---- ------- -- ---- --- --<br>raising ------,194097.6700000465,194096.96999983862,193589.207,193601.93499992602,193605.841,194106.131,,54,raising
screen,html.Screen,1_1_1_1_55,2021-04-08T16:18:15.307Z,,,,,,,,,,,,,,,,54,,,,,,,,,,,,,,542.6940000402392,,response,,,,100,,,,,,,Space,keypress(Space),,,,,,,,-- --- ---- --- ------ ----- ------- ---- -- --- ------- --<br>------- ---------- ------ -- ----- -- ----- -- ---- ------<br>--- ----- --- --- ------ -------- ----- --- ------ ----- --<br>----- ----- ---------- --- --- ------ ------ ---- -- ------<br>------- --- ------ ----- --- ---- ------- -- ---- --- --<br>------- money.,194649.65999987908,194648.82500004023,194089.534,194097.86999993958,194106.131,194673.171,,55,money.
Item 100,flow.Loop,1_1_1_1,2021-04-08T16:18:15.307Z,,,,,,,,,,,,,,,,,,,,,,,,,,,,,,31012.749000040232,,completion,,,,,D,,,,,,,,,,,silence,,,,,194650.0249998644,194648.82500004023,163619.461,163620.26999983937,163636.076,194673.171,,,
Question 1,html.Screen,1_1_1_2,2021-04-08T16:18:18.515Z,,,,,,,,,,,,,,,,,,,,,,,,,,,true,TRUE,,3183.9639999401697,,response,,,,100,D,,,,,,TRUE,click #choice-1,,,,silence,,,,,197858.19000005722,197857.13499994017,194656.471,194650.1799998805,194673.171,197878.35,,,
Question 2,html.Screen,1_1_1_3,2021-04-08T16:18:22.355Z,,,,,,,,,,,,,,,,,,,,,,,,,,,true,FALSE,,3818.344999933237,,response,,,,100,D,,,,,,FALSE,click #choice-2,,,,silence,,,,,201697.81499984674,201696.69499993324,197841.939,197858.49999985658,197878.35,201711.16,,,
Item 100,flow.Sequence,1_1_1,2021-04-08T16:18:22.355Z,,,,,,,,,,,,,,,,,,,,,,,,,,,,,,48067.086999933235,,completion,,,,,,,,,,,,,,,,,,,,,201698.14500003122,201696.69499993324,153612.849,153625.54999999702,153629.608,201711.16,,,
End of Practice,html.Page,1_1_2,2021-04-08T16:18:23.972Z,,,,,,,,,,,,,,,,,,,,,,,,,,,,,,1603.4850000349397,,form submission,,,,,,,,,,,,,,,,,,,,,203315.2199999895,203314.64500003494,201694.487,201698.30999989063,201711.16,203328.887,,,
Practice,flow.Sequence,1_1,2021-04-08T16:18:23.973Z,,,,,,,,,,,,,,,,,,,,,,,,,,,,,,111175.47000003494,,completion,,,,,,,,,,,,,,,,,,,,,203315.539999865,203314.64500003494,92122.506,92137.31999997981,92139.175,203328.887,,,
Trap_instruction,html.Page,1_2_0,2021-04-08T16:18:32.123Z,,,,,,,,,,,,,,,,,,,,,,,,,,,,,,8136.252999985707,,form submission,,,,,,,,,,,,,,,,,,,,,211465.70000005886,211465.1399999857,203312.21,203315.74500002898,203328.887,211500.878,,,
trap_trial,html.Screen,1_2_1,2021-04-08T16:18:42.560Z,,,,,,,,,,,,,,,,,,,,,,,,,,,true,1,,10400.572000004846,,response,,,,,,,,,,,1,click #choice-1,,,,,,,,,221902.56499988027,221901.45000000484,211450.891,211465.96499998122,211500.878,221907.756,,,
end of trap trial,html.Page,1_2_2,2021-04-08T16:18:44.953Z,,,,,,,,,,,,,,,,,,,,,,,,,,,,,,2387.3439999884577,,form submission,,,,,,,,,,,,,,,,,,,,,224295.60499987565,224295.09999998845,221891.082,221902.83999987878,221907.756,224309.364,,,
Trap 1,flow.Sequence,1_2,2021-04-08T16:18:44.953Z,,,,,,,,,,,,,,,,,,,,,,,,,,,,,,20966.212999988464,,completion,,,,,,,,,,,,,,,,,,,,,224295.92499998398,224295.09999998845,203312.21,203315.6799999997,203328.887,224309.364,,,
Standby,html.Page,1_3_0,2021-04-08T16:18:52.956Z,,,,,,,,,,,,,,,,,,,,,,,,,,,,,,8005.19200000001,,timeout,,,,,,,,,,,,,,,,,,,,,232298.87000005692,232297.919,224292.643,224296.14500002936,224309.364,232314.556,,,
Holding screen,html.Screen,1_3_1_0_0,2021-04-08T16:18:59.961Z,,,,,,,,,,,,,,,,,,,,,,,,,,,,,,7004.531999999977,,timeout,,,,,,,,,,,,,,,,,,,,,239303.18000004627,239302.503,232297.919,232299.17999985628,232314.556,239319.088,,,
screen,html.Screen,1_3_1_0_1_0,2021-04-08T16:19:00.909Z,,,,,,,,,,,,,,,,48,,,,,,,,,,,,,,931.7120000380091,,response,,,,10,D,,,,,,Space,keypress(Space),,,,silence,,,,As -- --- ------ ------- --------- ----------- --------<br>--------- -------- --- ------- -- ------- ---- -- ------<br>-- --- -------- -------- ---------- ---- ---- ---- ------<br>-- --------- -- ---- -- --- -- --- ------- -- - -----<br>---------- -- -- -- ---- ----- -- ------ -- --- ------<br>-------,240251.72499986365,240250.800000038,239302.503,239303.47499996424,239319.088,240253.149,,0,As
screen,html.Screen,1_3_1_0_1_1,2021-04-08T16:19:01.340Z,,,,,,,,,,,,,,,,48,,,,,,,,,,,,,,428.77099988629925,,response,,,,10,D,,,,,,Space,keypress(Space),,,,silence,,,,-- in --- ------ ------- --------- ----------- --------<br>--------- -------- --- ------- -- ------- ---- -- ------<br>-- --- -------- -------- ---------- ---- ---- ---- ------<br>-- --------- -- ---- -- --- -- --- ------- -- - -----<br>---------- -- -- -- ---- ----- -- ------ -- --- ------<br>-------,240682.6899999287,240681.9199998863,240236.593,240251.96500006132,240253.149,240686.771,,1,in
screen,html.Screen,1_3_1_0_1_2,2021-04-08T16:19:01.852Z,,,,,,,,,,,,,,,,48,,,,,,,,,,,,,,506.9939999745111,,response,,,,10,D,,,,,,Space,keypress(Space),,,,silence,,,,-- -- the ------ ------- --------- ----------- --------<br>--------- -------- --- ------- -- ------- ---- -- ------<br>-- --- -------- -------- ---------- ---- ---- ---- ------<br>-- --------- -- ---- -- --- -- --- ------- -- - -----<br>---------- -- -- -- ---- ----- -- ------ -- --- ------<br>-------,241194.52999997884,241193.76499997452,240670.127,240682.904999936,240686.771,241203.748,,2,the
screen,html.Screen,1_3_1_0_1_3,2021-04-08T16:19:02.316Z,,,,,,,,,,,,,,,,48,,,,,,,,,,,,,,454.0219999325054,,response,,,,10,D,,,,,,Space,keypress(Space),,,,silence,,,,-- -- --- United ------- --------- ----------- --------<br>--------- -------- --- ------- -- ------- ---- -- ------<br>-- --- -------- -------- ---------- ---- ---- ---- ------<br>-- --------- -- ---- -- --- -- --- ------- -- - -----<br>---------- -- -- -- ---- ----- -- ------ -- --- ------<br>-------,241658.51500001736,241657.7699999325,241187.146,241194.73499991,241203.748,241670.721,,3,United
screen,html.Screen,1_3_1_0_1_4,2021-04-08T16:19:02.660Z,,,,,,,,,,,,,,,,48,,,,,,,,,,,,,,330.874000037933,,response,,,,10,D,,,,,,Space,keypress(Space),,,,silence,,,,"-- -- --- ------ States, --------- ----------- --------<br>--------- -------- --- ------- -- ------- ---- -- ------<br>-- --- -------- -------- ---------- ---- ---- ---- ------<br>-- --------- -- ---- -- --- -- --- ------- -- - -----<br>---------- -- -- -- ---- ----- -- ------ -- --- ------<br>-------",242002.36999988556,242001.59500003792,241654.117,241658.71999994852,241670.721,242004.285,,4,"States,"
screen,html.Screen,1_3_1_0_1_5,2021-04-08T16:19:03.060Z,,,,,,,,,,,,,,,,48,,,,,,,,,,,,,,397.2600000297243,,response,,,,10,D,,,,,,Space,keypress(Space),,,,silence,,,,-- -- --- ------ ------- Colombian ----------- --------<br>--------- -------- --- ------- -- ------- ---- -- ------<br>-- --- -------- -------- ---------- ---- ---- ---- ------<br>-- --------- -- ---- -- --- -- --- ------- -- - -----<br>---------- -- -- -- ---- ----- -- ------ -- --- ------<br>-------,242402.31000003405,242401.54500002973,241987.653,242002.5799998548,242004.285,242404.551,,5,Colombian
screen,html.Screen,1_3_1_0_1_6,2021-04-08T16:19:03.468Z,,,,,,,,,,,,,,,,48,,,,,,,,,,,,,,405.12899994754116,,response,,,,10,D,,,,,,Space,keypress(Space),,,,silence,,,,-- -- --- ------ ------- --------- legislation --------<br>--------- -------- --- ------- -- ------- ---- -- ------<br>-- --- -------- -------- ---------- ---- ---- ---- ------<br>-- --------- -- ---- -- --- -- --- ------- -- - -----<br>---------- -- -- -- ---- ----- -- ------ -- --- ------<br>-------,242810.37499988452,242809.67999994755,242387.881,242402.5149999652,242404.551,242821.478,,6,legislation
screen,html.Screen,1_3_1_0_1_7,2021-04-08T16:19:03.868Z,,,,,,,,,,,,,,,,48,,,,,,,,,,,,,,388.4569999334635,,response,,,,10,D,,,,,,Space,keypress(Space),,,,silence,,,,-- -- --- ------ ------- --------- ----------- requires<br>--------- -------- --- ------- -- ------- ---- -- ------<br>-- --- -------- -------- ---------- ---- ---- ---- ------<br>-- --------- -- ---- -- --- -- --- ------- -- - -----<br>---------- -- -- -- ---- ----- -- ------ -- --- ------<br>-------,243210.6550000608,243209.93499993347,242804.862,242810.57500001043,242821.478,243221.74,,7,requires
screen,html.Screen,1_3_1_0_1_8,2021-04-08T16:19:04.260Z,,,,,,,,,,,,,,,,48,,,,,,,,,,,,,,379.60000005201437,,response,,,,10,D,,,,,,Space,keypress(Space),,,,silence,,,,-- -- --- ------ ------- --------- ----------- --------<br>travelers -------- --- ------- -- ------- ---- -- ------<br>-- --- -------- -------- ---------- ---- ---- ---- ------<br>-- --------- -- ---- -- --- -- --- ------- -- - -----<br>---------- -- -- -- ---- ----- -- ------ -- --- ------<br>-------,243602.05499990843,243601.340000052,243205.129,243210.85999999195,243221.74,243605.362,,8,travelers
screen,html.Screen,1_3_1_0_1_9,2021-04-08T16:19:04.635Z,,,,,,,,,,,,,,,,48,,,,,,,,,,,,,,371.92799983519944,,response,,,,10,D,,,,,,Space,keypress(Space),,,,silence,,,,-- -- --- ------ ------- --------- ----------- --------<br>--------- entering --- ------- -- ------- ---- -- ------<br>-- --- -------- -------- ---------- ---- ---- ---- ------<br>-- --------- -- ---- -- --- -- --- ------- -- - -----<br>---------- -- -- -- ---- ----- -- ------ -- --- ------<br>-------,243978.0249998439,243977.2899998352,243588.707,243602.2599998396,243605.362,243988.929,,9,entering
screen,html.Screen,1_3_1_0_1_10,2021-04-08T16:19:05.019Z,,,,,,,,,,,,,,,,48,,,,,,,,,,,,,,372.32099984167144,,response,,,,10,D,,,,,,Space,keypress(Space),,,,silence,,,,-- -- --- ------ ------- --------- ----------- --------<br>--------- -------- the ------- -- ------- ---- -- ------<br>-- --- -------- -------- ---------- ---- ---- ---- ------<br>-- --------- -- ---- -- --- -- --- ------- -- - -----<br>---------- -- -- -- ---- ----- -- ------ -- --- ------<br>-------,244361.97500000708,244361.24999984168,243972.29,243978.2300000079,243988.929,244372.398,,10,the
screen,html.Screen,1_3_1_0_1_11,2021-04-08T16:19:05.436Z,,,,,,,,,,,,,,,,48,,,,,,,,,,,,,,404.91200003406266,,response,,,,10,D,,,,,,Space,keypress(Space),,,,silence,,,,-- -- --- ------ ------- --------- ----------- --------<br>--------- -------- --- country -- ------- ---- -- ------<br>-- --- -------- -------- ---------- ---- ---- ---- ------<br>-- --------- -- ---- -- --- -- --- ------- -- - -----<br>---------- -- -- -- ---- ----- -- ------ -- --- ------<br>-------,244778.20999990217,244777.31000003405,244355.874,244362.17499990016,244372.398,244789.39,,11,country
screen,html.Screen,1_3_1_0_1_12,2021-04-08T16:19:05.828Z,,,,,,,,,,,,,,,,48,,,,,,,,,,,,,,379.89999987429474,,response,,,,10,D,,,,,,Space,keypress(Space),,,,silence,,,,-- -- --- ------ ------- --------- ----------- --------<br>--------- -------- --- ------- to ------- ---- -- ------<br>-- --- -------- -------- ---------- ---- ---- ---- ------<br>-- --------- -- ---- -- --- -- --- ------- -- - -----<br>---------- -- -- -- ---- ----- -- ------ -- --- ------<br>-------,245170.07999983616,245169.2899998743,244772.824,244778.4199998714,244789.39,245173.057,,12,to
screen,html.Screen,1_3_1_0_1_13,2021-04-08T16:19:06.243Z,,,,,,,,,,,,,,,,48,,,,,,,,,,,,,,412.14799989390303,,response,,,,10,D,,,,,,Space,keypress(Space),,,,silence,,,,-- -- --- ------ ------- --------- ----------- --------<br>--------- -------- --- ------- -- declare ---- -- ------<br>-- --- -------- -------- ---------- ---- ---- ---- ------<br>-- --------- -- ---- -- --- -- --- ------- -- - -----<br>---------- -- -- -- ---- ----- -- ------ -- --- ------<br>-------,245585.99499985576,245585.2049998939,245156.407,245170.28500000015,245173.057,245589.991,,13,declare
screen,html.Screen,1_3_1_0_1_14,2021-04-08T16:19:06.643Z,,,,,,,,,,,,,,,,48,,,,,,,,,,,,,,395.0139999076782,,response,,,,10,D,,,,,,Space,keypress(Space),,,,silence,,,,-- -- --- ------ ------- --------- ----------- --------<br>--------- -------- --- ------- -- ------- cash -- ------<br>-- --- -------- -------- ---------- ---- ---- ---- ------<br>-- --------- -- ---- -- --- -- --- ------- -- - -----<br>---------- -- -- -- ---- ----- -- ------ -- --- ------<br>-------,245985.8200000599,245985.0049999077,245573.357,245586.20500005782,245589.991,245990.255,,14,cash
screen,html.Screen,1_3_1_0_1_15,2021-04-08T16:19:07.027Z,,,,,,,,,,,,,,,,48,,,,,,,,,,,,,,378.6799999185605,,response,,,,10,D,,,,,,Space,keypress(Space),,,,silence,,,,-- -- --- ------ ------- --------- ----------- --------<br>--------- -------- --- ------- -- ------- ---- in ------<br>-- --- -------- -------- ---------- ---- ---- ---- ------<br>-- --------- -- ---- -- --- -- --- ------- -- - -----<br>---------- -- -- -- ---- ----- -- ------ -- --- ------<br>-------,246369.62000001222,246368.93499991857,245973.611,245986.03000002913,245990.255,246373.831,,15,in
screen,html.Screen,1_3_1_0_1_16,2021-04-08T16:19:07.427Z,,,,,,,,,,,,,,,,48,,,,,,,,,,,,,,395.0189998766873,,response,,,,10,D,,,,,,Space,keypress(Space),,,,silence,,,,-- -- --- ------ ------- --------- ----------- --------<br>--------- -------- --- ------- -- ------- ---- -- excess<br>-- --- -------- -------- ---------- ---- ---- ---- ------<br>-- --------- -- ---- -- --- -- --- ------- -- - -----<br>---------- -- -- -- ---- ----- -- ------ -- --- ------<br>-------,246769.5750000421,246768.8499998767,246357.193,246369.8199999053,246373.831,246774.091,,16,excess
screen,html.Screen,1_3_1_0_1_17,2021-04-08T16:19:07.835Z,,,,,,,,,,,,,,,,48,,,,,,,,,,,,,,402.6739999819838,,response,,,,10,D,,,,,,Space,keypress(Space),,,,silence,,,,-- -- --- ------ ------- --------- ----------- --------<br>--------- -------- --- ------- -- ------- ---- -- ------<br>of --- -------- -------- ---------- ---- ---- ---- ------<br>-- --------- -- ---- -- --- -- --- ------- -- - -----<br>---------- -- -- -- ---- ----- -- ------ -- --- ------<br>-------,247177.45999991894,247176.76499998197,246757.449,246769.7999998927,246774.091,247191.057,,17,of
screen,html.Screen,1_3_1_0_1_18,2021-04-08T16:19:08.147Z,,,,,,,,,,,,,,,,48,,,,,,,,,,,,,,297.75800004790653,,response,,,,10,D,,,,,,Space,keypress(Space),,,,silence,,,,-- -- --- ------ ------- --------- ----------- --------<br>--------- -------- --- ------- -- ------- ---- -- ------<br>-- ten -------- -------- ---------- ---- ---- ---- ------<br>-- --------- -- ---- -- --- -- --- ------- -- - -----<br>---------- -- -- -- ---- ----- -- ------ -- --- ------<br>-------,247489.52999990433,247488.8150000479,247174.398,247177.6649998501,247191.057,247522.799,,18,ten
screen,html.Screen,1_3_1_0_1_19,2021-04-08T16:19:08.539Z,,,,,,,,,,,,,,,,48,,,,,,,,,,,,,,357.9159999775002,,response,,,,10,D,,,,,,Space,keypress(Space),,,,silence,,,,-- -- --- ------ ------- --------- ----------- --------<br>--------- -------- --- ------- -- ------- ---- -- ------<br>-- --- thousand -------- ---------- ---- ---- ---- ------<br>-- --------- -- ---- -- --- -- --- ------- -- - -----<br>---------- -- -- -- ---- ----- -- ------ -- --- ------<br>-------,247881.44999998622,247880.7149999775,247474.581,247489.73999987356,247522.799,247891.46,,19,thousand
screen,html.Screen,1_3_1_0_1_20,2021-04-08T16:19:08.939Z,,,,,,,,,,,,,,,,48,,,,,,,,,,,,,,389.1500000161759,,response,,,,10,D,,,,,,Space,keypress(Space),,,,silence,,,,-- -- --- ------ ------- --------- ----------- --------<br>--------- -------- --- ------- -- ------- ---- -- ------<br>-- --- -------- dollars. ---------- ---- ---- ---- ------<br>-- --------- -- ---- -- --- -- --- ------- -- - -----<br>---------- -- -- -- ---- ----- -- ------ -- --- ------<br>-------,248281.3099999912,248280.61000001617,247874.849,247881.6499998793,247891.46,248291.731,,20,dollars.
screen,html.Screen,1_3_1_0_1_21,2021-04-08T16:19:09.499Z,,,,,,,,,,,,,,,,48,,,,,,,,,,,,,,548.8390000002983,,response,,,,10,D,,,,,,Space,keypress(Space),,,,silence,,,,-- -- --- ------ ------- --------- ----------- --------<br>--------- -------- --- ------- -- ------- ---- -- ------<br>-- --- -------- -------- Concealing ---- ---- ---- ------<br>-- --------- -- ---- -- --- -- --- ------- -- - -----<br>---------- -- -- -- ---- ----- -- ------ -- --- ------<br>-------,248841.2450000178,248840.5700000003,248275.117,248281.50499984622,248291.731,248858.805,,21,Concealing
screen,html.Screen,1_3_1_0_1_22,2021-04-08T16:19:09.987Z,,,,,,,,,,,,,,,,48,,,,,,,,,,,,,,469.59499999851687,,response,,,,10,D,,,,,,Space,keypress(Space),,,,silence,,,,-- -- --- ------ ------- --------- ----------- --------<br>--------- -------- --- ------- -- ------- ---- -- ------<br>-- --- -------- -------- ---------- more ---- ---- ------<br>-- --------- -- ---- -- --- -- --- ------- -- - -----<br>---------- -- -- -- ---- ----- -- ------ -- --- ------<br>-------,249329.13500000723,249328.3999999985,248825.434,248841.44999994896,248858.805,249342.404,,22,more
screen,html.Screen,1_3_1_0_1_23,2021-04-08T16:19:10.419Z,,,,,,,,,,,,,,,,48,,,,,,,,,,,,,,417.99600002830266,,response,,,,10,D,,,,,,Space,keypress(Space),,,,silence,,,,-- -- --- ------ ------- --------- ----------- --------<br>--------- -------- --- ------- -- ------- ---- -- ------<br>-- --- -------- -------- ---------- ---- than ---- ------<br>-- --------- -- ---- -- --- -- --- ------- -- - -----<br>---------- -- -- -- ---- ----- -- ------ -- --- ------<br>-------,249761.04500005022,249760.4000000283,249325.814,249329.34499997646,249342.404,249776.092,,23,than
screen,html.Screen,1_3_1_0_1_24,2021-04-08T16:19:10.842Z,,,,,,,,,,,,,,,,48,,,,,,,,,,,,,,408.20799984800396,,response,,,,10,D,,,,,,Space,keypress(Space),,,,silence,,,,-- -- --- ------ ------- --------- ----------- --------<br>--------- -------- --- ------- -- ------- ---- -- ------<br>-- --- -------- -------- ---------- ---- ---- that ------<br>-- --------- -- ---- -- --- -- --- ------- -- - -----<br>---------- -- -- -- ---- ----- -- ------ -- --- ------<br>-------,250185.01999997534,250184.299999848,249759.427,249761.25500001945,249776.092,250192.903,,24,that
screen,html.Screen,1_3_1_0_1_25,2021-04-08T16:19:11.251Z,,,,,,,,,,,,,,,,48,,,,,,,,,,,,,,400.06199984339764,,response,,,,10,D,,,,,,Space,keypress(Space),,,,silence,,,,-- -- --- ------ ------- --------- ----------- --------<br>--------- -------- --- ------- -- ------- ---- -- ------<br>-- --- -------- -------- ---------- ---- ---- ---- amount<br>-- --------- -- ---- -- --- -- --- ------- -- - -----<br>---------- -- -- -- ---- ----- -- ------ -- --- ------<br>-------,250593.70499989018,250592.9649998434,250176.37,250185.21500006318,250192.903,250609.976,,25,amount
screen,html.Screen,1_3_1_0_1_26,2021-04-08T16:19:11.658Z,,,,,,,,,,,,,,,,48,,,,,,,,,,,,,,390.23900000730646,,response,,,,10,D,,,,,,Space,keypress(Space),,,,silence,,,,-- -- --- ------ ------- --------- ----------- --------<br>--------- -------- --- ------- -- ------- ---- -- ------<br>-- --- -------- -------- ---------- ---- ---- ---- ------<br>to --------- -- ---- -- --- -- --- ------- -- - -----<br>---------- -- -- -- ---- ----- -- ------ -- --- ------<br>-------,251000.88499998674,251000.2150000073,250593.313,250593.9149998594,250609.976,251010.172,,26,to
screen,html.Screen,1_3_1_0_1_27,2021-04-08T16:19:12.010Z,,,,,,,,,,,,,,,,48,,,,,,,,,,,,,,341.9529999757942,,response,,,,10,D,,,,,,Space,keypress(Space),,,,silence,,,,-- -- --- ------ ------- --------- ----------- --------<br>--------- -------- --- ------- -- ------- ---- -- ------<br>-- --- -------- -------- ---------- ---- ---- ---- ------<br>-- transport -- ---- -- --- -- --- ------- -- - -----<br>---------- -- -- -- ---- ----- -- ------ -- --- ------<br>-------,251352.83500002697,251352.1249999758,250993.571,251001.08499987982,251010.172,251360.308,,27,transport
screen,html.Screen,1_3_1_0_1_28,2021-04-08T16:19:12.386Z,,,,,,,,,,,,,,,,48,,,,,,,,,,,,,,367.83200002109515,,response,,,,10,D,,,,,,Space,keypress(Space),,,,silence,,,,-- -- --- ------ ------- --------- ----------- --------<br>--------- -------- --- ------- -- ------- ---- -- ------<br>-- --- -------- -------- ---------- ---- ---- ---- ------<br>-- --------- it ---- -- --- -- --- ------- -- - -----<br>---------- -- -- -- ---- ----- -- ------ -- --- ------<br>-------,251728.83499995805,251728.14000002109,251343.787,251353.0549998395,251360.308,251744.052,,28,it
screen,html.Screen,1_3_1_0_1_29,2021-04-08T16:19:12.682Z,,,,,,,,,,,,,,,,48,,,,,,,,,,,,,,280.0329999245296,,response,,,,10,D,,,,,,Space,keypress(Space),,,,silence,,,,-- -- --- ------ ------- --------- ----------- --------<br>--------- -------- --- ------- -- ------- ---- -- ------<br>-- --- -------- -------- ---------- ---- ---- ---- ------<br>-- --------- -- into -- --- -- --- ------- -- - -----<br>---------- -- -- -- ---- ----- -- ------ -- --- ------<br>-------,252024.77500005625,252024.08499992453,251727.384,251729.04999996535,251744.052,252027.504,,29,into
screen,html.Screen,1_3_1_0_1_30,2021-04-08T16:19:13.058Z,,,,,,,,,,,,,,,,48,,,,,,,,,,,,,,372.4459999918181,,response,,,,10,D,,,,,,Space,keypress(Space),,,,silence,,,,-- -- --- ------ ------- --------- ----------- --------<br>--------- -------- --- ------- -- ------- ---- -- ------<br>-- --- -------- -------- ---------- ---- ---- ---- ------<br>-- --------- -- ---- or --- -- --- ------- -- - -----<br>---------- -- -- -- ---- ----- -- ------ -- --- ------<br>-------,252400.65500000492,252399.9499999918,252010.89,252024.9799999874,252027.504,252411.096,,30,or
screen,html.Screen,1_3_1_0_1_31,2021-04-08T16:19:13.506Z,,,,,,,,,,,,,,,,48,,,,,,,,,,,,,,436.78400001573027,,response,,,,10,D,,,,,,Space,keypress(Space),,,,silence,,,,-- -- --- ------ ------- --------- ----------- --------<br>--------- -------- --- ------- -- ------- ---- -- ------<br>-- --- -------- -------- ---------- ---- ---- ---- ------<br>-- --------- -- ---- -- out -- --- ------- -- - -----<br>---------- -- -- -- ---- ----- -- ------ -- --- ------<br>-------,252848.59499987215,252847.88000001572,252394.487,252400.85999993607,252411.096,252861.414,,31,out
screen,html.Screen,1_3_1_0_1_32,2021-04-08T16:19:13.842Z,,,,,,,,,,,,,,,,48,,,,,,,,,,,,,,322.4309998758836,,response,,,,10,D,,,,,,Space,keypress(Space),,,,silence,,,,-- -- --- ------ ------- --------- ----------- --------<br>--------- -------- --- ------- -- ------- ---- -- ------<br>-- --- -------- -------- ---------- ---- ---- ---- ------<br>-- --------- -- ---- -- --- of --- ------- -- - -----<br>---------- -- -- -- ---- ----- -- ------ -- --- ------<br>-------,253184.5449998509,253183.84499987587,252844.791,252848.79499999806,252861.414,253194.941,,32,of
screen,html.Screen,1_3_1_0_1_33,2021-04-08T16:19:14.202Z,,,,,,,,,,,,,,,,48,,,,,,,,,,,,,,348.93399997393135,,response,,,,10,D,,,,,,Space,keypress(Space),,,,silence,,,,-- -- --- ------ ------- --------- ----------- --------<br>--------- -------- --- ------- -- ------- ---- -- ------<br>-- --- -------- -------- ---------- ---- ---- ---- ------<br>-- --------- -- ---- -- --- -- the ------- -- - -----<br>---------- -- -- -- ---- ----- -- ------ -- --- ------<br>-------,253544.51499995776,253543.87499997392,253178.325,253184.7500000149,253194.941,253578.591,,33,the
screen,html.Screen,1_3_1_0_1_34,2021-04-08T16:19:14.642Z,,,,,,,,,,,,,,,,48,,,,,,,,,,,,,,405.21899988877703,,response,,,,10,D,,,,,,Space,keypress(Space),,,,silence,,,,-- -- --- ------ ------- --------- ----------- --------<br>--------- -------- --- ------- -- ------- ---- -- ------<br>-- --- -------- -------- ---------- ---- ---- ---- ------<br>-- --------- -- ---- -- --- -- --- country -- - -----<br>---------- -- -- -- ---- ----- -- ------ -- --- ------<br>-------,253984.62999984622,253983.80999988876,253561.879,253544.7199998889,253578.591,253995.475,,34,country
screen,html.Screen,1_3_1_0_1_35,2021-04-08T16:19:15.082Z,,,,,,,,,,,,,,,,48,,,,,,,,,,,,,,428.2350000027509,,response,,,,10,D,,,,,,Space,keypress(Space),,,,silence,,,,-- -- --- ------ ------- --------- ----------- --------<br>--------- -------- --- ------- -- ------- ---- -- ------<br>-- --- -------- -------- ---------- ---- ---- ---- ------<br>-- --------- -- ---- -- --- -- --- ------- is - -----<br>---------- -- -- -- ---- ----- -- ------ -- --- ------<br>-------,254424.469999969,254423.71000000276,253978.865,253984.8499998916,253995.475,254429.115,,35,is
screen,html.Screen,1_3_1_0_1_36,2021-04-08T16:19:15.482Z,,,,,,,,,,,,,,,,48,,,,,,,,,,,,,,394.5549998378847,,response,,,,10,D,,,,,,Space,keypress(Space),,,,silence,,,,-- -- --- ------ ------- --------- ----------- --------<br>--------- -------- --- ------- -- ------- ---- -- ------<br>-- --- -------- -------- ---------- ---- ---- ---- ------<br>-- --------- -- ---- -- --- -- --- ------- -- a -----<br>---------- -- -- -- ---- ----- -- ------ -- --- ------<br>-------,254824.4549999945,254823.66999983788,254412.486,254424.67499990016,254429.115,254829.336,,36,a
screen,html.Screen,1_3_1_0_1_37,2021-04-08T16:19:15.906Z,,,,,,,,,,,,,,,,48,,,,,,,,,,,,,,418.3639999489533,,response,,,,10,D,,,,,,Space,keypress(Space),,,,silence,,,,-- -- --- ------ ------- --------- ----------- --------<br>--------- -------- --- ------- -- ------- ---- -- ------<br>-- --- -------- -------- ---------- ---- ---- ---- ------<br>-- --------- -- ---- -- --- -- --- ------- -- - crime<br>---------- -- -- -- ---- ----- -- ------ -- --- ------<br>-------,255248.46999999136,255247.69999994896,254812.746,254824.66499996372,254829.336,255263.019,,37,crime
screen,html.Screen,1_3_1_0_1_38,2021-04-08T16:19:16.322Z,,,,,,,,,,,,,,,,48,,,,,,,,,,,,,,400.5609999348817,,response,,,,10,D,,,,,,Space,keypress(Space),,,,silence,,,,-- -- --- ------ ------- --------- ----------- --------<br>--------- -------- --- ------- -- ------- ---- -- ------<br>-- --- -------- -------- ---------- ---- ---- ---- ------<br>-- --------- -- ---- -- --- -- --- ------- -- - -----<br>punishable -- -- -- ---- ----- -- ------ -- --- ------<br>-------,255664.42000004463,255663.57999993488,255246.381,255248.6749999225,255263.019,255679.926,,38,punishable
screen,html.Screen,1_3_1_0_1_39,2021-04-08T16:19:16.714Z,,,,,,,,,,,,,,,,48,,,,,,,,,,,,,,375.59899997428874,,response,,,,10,D,,,,,,Space,keypress(Space),,,,silence,,,,-- -- --- ------ ------- --------- ----------- --------<br>--------- -------- --- ------- -- ------- ---- -- ------<br>-- --- -------- -------- ---------- ---- ---- ---- ------<br>-- --------- -- ---- -- --- -- --- ------- -- - -----<br>---------- by -- -- ---- ----- -- ------ -- --- ------<br>-------,256056.33999989368,256055.5249999743,255663.296,255664.64499989524,255679.926,256063.489,,39,by
screen,html.Screen,1_3_1_0_1_40,2021-04-08T16:19:17.098Z,,,,,,,,,,,,,,,,48,,,,,,,,,,,,,,375.90099995589117,,response,,,,10,D,,,,,,Space,keypress(Space),,,,silence,,,,-- -- --- ------ ------- --------- ----------- --------<br>--------- -------- --- ------- -- ------- ---- -- ------<br>-- --- -------- -------- ---------- ---- ---- ---- ------<br>-- --------- -- ---- -- --- -- --- ------- -- - -----<br>---------- -- up -- ---- ----- -- ------ -- --- ------<br>-------,256440.0799998548,256439.3899999559,256046.888,256056.55499990098,256063.489,256447.07,,40,up
screen,html.Screen,1_3_1_0_1_41,2021-04-08T16:19:17.506Z,,,,,,,,,,,,,,,,48,,,,,,,,,,,,,,400.26500005676644,,response,,,,10,D,,,,,,Space,keypress(Space),,,,silence,,,,-- -- --- ------ ------- --------- ----------- --------<br>--------- -------- --- ------- -- ------- ---- -- ------<br>-- --- -------- -------- ---------- ---- ---- ---- ------<br>-- --------- -- ---- -- --- -- --- ------- -- - -----<br>---------- -- -- to ---- ----- -- ------ -- --- ------<br>-------,256848.11499994248,256847.33500005677,256430.478,256440.29000005685,256447.07,256864.086,,41,to
