sender,sender_type,sender_id,timestamp,meta,,Blues,Classical,Country,Dance,Electronic,Folk,Gospel,Hip-Hop,Jazz,Latin,Musical/Film,New-age,Pop,Provo_ID,R&B,Rap,Reggae,Religious,Rock,Soul,Swing,Traditional,age,artist_name,correct,correctResponse,distraction,duration,education,ended_on,familiarity,gender,headphone_check_performance,item,list,music_frequency,offensiveness,pleasantness,position_correct,preference,response,response_action,snippet_file,song_name,song_rating,sound,stimulus_1,stimulus_2,stimulus_3,text,time_commit,time_end,time_render,time_run,time_show,time_switch,url,word,word_ID
Introduction,html.Screen,0_0,2021-04-23T10:32:37.196Z,"{""labjs_version"":""20.2.2"",""labjs_build"":{""flavor"":""production"",""commit"":""a25486e0c714a0ae2ce03ff94b7bb6896854dcfa""},""location"":""https://run.pavlovia.org/mvasilev/music_d/"",""userAgent"":""Mozilla/5.0 (Windows NT 10.0; Win64; x64) AppleWebKit/537.36 (KHTML, like Gecko) Chrome/89.0.4389.128 Safari/537.36"",""platform"":""Win32"",""language"":""en-GB"",""locale"":""en-GB"",""timeZone"":""Europe/London"",""timezoneOffset"":-60,""screen_width"":1280,""screen_height"":720,""scroll_width"":1280,""scroll_height"":578,""window_innerWidth"":1280,""window_innerHeight"":578,""devicePixelRatio"":1.5}",,,,,,,,,,,,,,,,,,,,,,,,,,,,,5794.887999984205,,response,,,,,,,,,,,continue,click button,,,,,,,,,14561.869999859482,14559.164999984205,8730.874,8739.635000005364,8764.277,14575.465,{},,
Volume calibration,html.Screen,0_1,2021-04-23T10:32:51.619Z,,,,,,,,,,,,,,,,,,,,,,,,,,,,,,14405.444999925643,,response,,,,,,,,,,,continue,click button,,,,,,,,,28985.19999999553,28980.909999925643,14558.772,14562.539999838918,14575.465,28995.294,,,
Task instructions,html.Screen,0_2,2021-04-23T10:33:49.109Z,,,,,,,,,,,,,,,,,,,,,,,,,,,,,,57478.60099982819,,response,,,,,,,,,,,continue,click button,,,,,,,,,86474.8350000009,86473.89499982819,28978.649,28988.445000257343,28995.294,86496.783,,,
Sounds,html.Screen,0_3_0_0,2021-04-23T10:33:53.373Z,,,,,,,,,,,,,,,,,,,,,,,,,,,,,,4257.343999999997,,timeout,,,,,,,,,3,,,,,,,,I,O,S,,90739.51500002295,90737.478,86458.171,86475.15500010923,86496.783,90754.127,,,
Judgement,html.Screen,0_3_0_1,2021-04-23T10:34:00.208Z,,,,,,,,,,,,,,,,,,,,,,,,,,,false,3,,6819.722999811507,,response,,,,,,,,,3,,2,click #choice-2,,,,,I,O,S,,97574.55000001937,97573.8499998115,90737.478,90739.7199999541,90754.127,97581.1,,,
Trial,flow.Sequence,0_3_0,2021-04-23T10:34:00.209Z,,,,,,,,,,,,,,,,,,,,,,,,,,,,,,11077.066999811505,,completion,,,,,,,,,3,,,,,,,,I,O,S,,97575.69500012323,97573.8499998115,86458.171,86475.08000023663,86496.783,97581.1,,,
Sounds,html.Screen,0_3_1_0,2021-04-23T10:34:04.445Z,,,,,,,,,,,,,,,,,,,,,,,,,,,,,,4246.372999999992,,timeout,,,,,,,,,2,,,,,,,,O,S,I,,101811.23499991372,101810.454,97564.448,97575.81999991089,97581.1,101827.473,,,
Judgement,html.Screen,0_3_1_1,2021-04-23T10:34:06.895Z,,,,,,,,,,,,,,,,,,,,,,,,,,,true,2,,2432.9020000707824,,response,,,,,,,,,2,,2,click #choice-2,,,,,O,S,I,,104261.39000011608,104260.37500007078,101810.454,101811.48000014946,101827.473,104274.877,,,
Trial,flow.Sequence,0_3_1,2021-04-23T10:34:06.895Z,,,,,,,,,,,,,,,,,,,,,,,,,,,,,,6679.275000070775,,completion,,,,,,,,,2,,,,,,,,O,S,I,,104261.71000022441,104260.37500007078,97564.448,97575.79499995336,97581.1,104274.877,,,
Sounds,html.Screen,0_3_2_0,2021-04-23T10:34:11.139Z,,,,,,,,,,,,,,,,,,,,,,,,,,,,,,4245.9770000000135,,timeout,,,,,,,,,1,,,,,,,,S,I,O,,108504.94999997318,108504.242,104258.144,104261.9400001131,104274.877,108520.854,,,
Judgement,html.Screen,0_3_2_1,2021-04-23T10:34:12.863Z,,,,,,,,,,,,,,,,,,,,,,,,,,,true,1,,1707.101000009381,,response,,,,,,,,,1,,1,click #choice-1,,,,,S,I,O,,110228.92000013962,110227.95500000939,108504.242,108505.1350002177,108520.854,110235.918,,,
Trial,flow.Sequence,0_3_2,2021-04-23T10:34:12.863Z,,,,,,,,,,,,,,,,,,,,,,,,,,,,,,5953.078000009395,,completion,,,,,,,,,1,,,,,,,,S,I,O,,110229.23499997705,110227.95500000939,104258.144,104261.87000004575,104274.877,110235.918,,,
Sounds,html.Screen,0_3_3_0,2021-04-23T10:34:17.100Z,,,,,,,,,,,,,,,,,,,,,,,,,,,,,,4246.057000000001,,timeout,,,,,,,,,1,,,,,,,,S,O,I,,114466.26499993727,114465.331,110219.306,110229.43500010297,110235.918,114481.975,,,
Judgement,html.Screen,0_3_3_1,2021-04-23T10:34:19.214Z,,,,,,,,,,,,,,,,,,,,,,,,,,,true,1,,2097.225000036502,,response,,,,,,,,,1,,1,click #choice-1,,,,,S,O,I,,116580.26000019163,116579.20000003651,114465.331,114466.55499981716,114481.975,116597.519,,,
Trial,flow.Sequence,0_3_3,2021-04-23T10:34:19.214Z,,,,,,,,,,,,,,,,,,,,,,,,,,,,,,6343.282000036503,,completion,,,,,,,,,1,,,,,,,,S,O,I,,116580.75000019744,116579.20000003651,110219.306,110229.36999984086,110235.918,116597.519,,,
Sounds,html.Screen,0_3_4_0,2021-04-23T10:34:23.461Z,,,,,,,,,,,,,,,,,,,,,,,,,,,,,,4245.115000000005,,timeout,,,,,,,,,3,,,,,,,,O,I,S,,120826.88000006601,120826.056,116563.369,116581.00500004366,116597.519,120842.634,,,
Judgement,html.Screen,0_3_4_1,2021-04-23T10:34:24.691Z,,,,,,,,,,,,,,,,,,,,,,,,,,,true,3,,1213.9910002011602,,response,,,,,,,,,3,,3,click #choice-3,,,,,O,I,S,,122057.39999981597,122056.62500020117,120826.056,120827.07000011578,120842.634,122077.026,,,
Trial,flow.Sequence,0_3_4,2021-04-23T10:34:24.691Z,,,,,,,,,,,,,,,,,,,,,,,,,,,,,,5459.106000201165,,completion,,,,,,,,,3,,,,,,,,O,I,S,,122057.59500013664,122056.62500020117,116563.369,116580.9349999763,116597.519,122077.026,,,
Sounds,html.Screen,0_3_5_0,2021-04-23T10:34:28.939Z,,,,,,,,,,,,,,,,,,,,,,,,,,,,,,4243.873000000007,,timeout,,,,,,,,,2,,,,,,,,I,S,O,,126304.86499983817,126304.202,122041.55,122057.71500011906,122077.026,126320.899,,,
Judgement,html.Screen,0_3_5_1,2021-04-23T10:34:30.123Z,,,,,,,,,,,,,,,,,,,,,,,,,,,true,2,,1167.5360001811932,,response,,,,,,,,,2,,2,click #choice-2,,,,,I,S,O,,127489.52999990433,127488.4350001812,126304.202,126304.99499989673,126320.899,127503.091,,,
Trial,flow.Sequence,0_3_5,2021-04-23T10:34:30.124Z,,,,,,,,,,,,,,,,,,,,,,,,,,,,,,5411.4090001812,,completion,,,,,,,,,2,,,,,,,,I,S,O,,127489.78500021622,127488.4350001812,122041.55,122057.68000008538,122077.026,127503.091,,,
Task,flow.Loop,0_3,2021-04-23T10:34:30.129Z,,,,,,,,,,,,,,,,,,,,,,,,,,,,,,40991.6520001812,,completion,,,0.8333333333333334,,,,,,,,,,,,,,,,,,127495.0100001879,127488.4350001812,86458.171,86475.01000016928,86496.783,127503.091,,,
Trap,html.Screen,0_4,2021-04-23T10:34:30.132Z,,,,,,,,,,,,,,,,,,,,,,,,,,,,,,NaN,,skipped,,,,,,,,,,,,,,,,,,,,,127498.1249999255,127488.4350001812,,127497.86499980837,,127503.091,,,
Thanks,html.Screen,0_5,2021-04-23T10:34:33.443Z,,,,,,,,,,,,,,,,,,,,,,,,,,,,,,3305.6239998173114,,response,,,,,,,,,,,continue,click button,,,,,,,,,130809.70499990508,130808.71499981731,127486.464,127498.35499981418,127503.091,133247.712,,,
Headphone screening,flow.Sequence,0,2021-04-23T10:34:33.444Z,,,,,,,,,,,,,,,,,,,,,,,,,,,,,,122044.43799981731,,completion,,,,,,,,,,,,,,,,,,,,,130809.905000031,130808.71499981731,8730.874,8739.579999819398,8764.277,133247.712,,,
Instructions,html.Page,1_0,2021-04-23T10:34:38.054Z,,,,,,,,,,,,,,,,,,,,,,,,,,,,,,2172.5930001524393,,form submission,,,,,,,,,,,,,,,,,,,,,135420.630000066,135420.30500015244,133231.053,133242.6249999553,133247.712,135429.008,,,
Holding screen,html.Screen,1_1_0_0,2021-04-23T10:34:48.055Z,,,,,,,,,,,,,,,,,,,,,,,,,,,,,,10007.277999999991,,timeout,,,,,,,,,,,,,,,,,,,,,145420.2950000763,145419.702,135412.348,135420.91500014067,135429.008,145436.286,,,
screen,html.Screen,1_1_0_1_0,2021-04-23T10:34:48.183Z,,,,,,,,,,,,,,,,53,,,,,,,,,,,,,,109.52899984488613,,response,,,,99,,,,,,,Space,keypress(Space),,,,,,,,When -- ----- -- ------ - ------- --- ----------<br>------------- ------ ------ ---- ---- ------- ----- -- ----<br>-------- ------- -- ---------- --- - --- ----- ----- ----<br>---- --- --- ----- --- ---- ---- ------- ----- ---- -------<br>--- --- -- ----- -- --- ---- -- --- ---- -- ------ ------<br>--- ----- -- ----,145548.52499999106,145545.81499984488,145419.702,145420.52000015974,145436.286,145552.972,,0,When
screen,html.Screen,1_1_0_1_1,2021-04-23T10:34:52.808Z,,,,,,,,,,,,,,,,53,,,,,,,,,,,,,,4619.783000181487,,response,,,,99,,,,,,,Space,keypress(Space),,,,,,,,---- it ----- -- ------ - ------- --- ----------<br>------------- ------ ------ ---- ---- ------- ----- -- ----<br>-------- ------- -- ---------- --- - --- ----- ----- ----<br>---- --- --- ----- --- ---- ---- ------- ----- ---- -------<br>--- --- -- ----- -- --- ---- -- --- ---- -- ------ ------<br>--- ----- -- ----,150173.36500016972,150172.7550001815,145536.265,145548.7449998036,145552.972,150182.061,,1,it
screen,html.Screen,1_1_0_1_2,2021-04-23T10:34:53.394Z,,,,,,,,,,,,,,,,53,,,,,,,,,,,,,,576.5389998264145,,response,,,,99,,,,,,,Space,keypress(Space),,,,,,,,---- -- comes -- ------ - ------- --- ----------<br>------------- ------ ------ ---- ---- ------- ----- -- ----<br>-------- ------- -- ---------- --- - --- ----- ----- ----<br>---- --- --- ----- --- ---- ---- ------- ----- ---- -------<br>--- --- -- ----- -- --- ---- -- --- ---- -- ------ ------<br>--- ----- -- ----,150759.1099999845,150758.5999998264,150165.121,150173.50499983877,150182.061,150764.677,,2,comes
screen,html.Screen,1_1_0_1_3,2021-04-23T10:34:57.325Z,,,,,,,,,,,,,,,,53,,,,,,,,,,,,,,3925.043000140373,,response,,,,99,,,,,,,Space,keypress(Space),,,,,,,,---- -- ----- to ------ - ------- --- ----------<br>------------- ------ ------ ---- ---- ------- ----- -- ----<br>-------- ------- -- ---------- --- - --- ----- ----- ----<br>---- --- --- ----- --- ---- ---- ------- ----- ---- -------<br>--- --- -- ----- -- --- ---- -- --- ---- -- ------ ------<br>--- ----- -- ----,154690.3249998577,154689.72000014037,150748.035,150759.22999996692,150764.677,154711.024,,3,to
screen,html.Screen,1_1_0_1_4,2021-04-23T10:34:58.036Z,,,,,,,,,,,,,,,,53,,,,,,,,,,,,,,689.856000088359,,response,,,,99,,,,,,,Space,keypress(Space),,,,,,,,---- -- ----- -- having - ------- --- ----------<br>------------- ------ ------ ---- ---- ------- ----- -- ----<br>-------- ------- -- ---------- --- - --- ----- ----- ----<br>---- --- --- ----- --- ---- ---- ------- ----- ---- -------<br>--- --- -- ----- -- --- ---- -- --- ---- -- ------ ------<br>--- ----- -- ----,155401.48000000045,155400.88000008836,154677.679,154690.4649999924,154711.024,155410.344,,4,having
screen,html.Screen,1_1_0_1_5,2021-04-23T10:34:58.457Z,,,,,,,,,,,,,,,,53,,,,,,,,,,,,,,411.451000229019,,response,,,,99,,,,,,,Space,keypress(Space),,,,,,,,---- -- ----- -- ------ a ------- --- ----------<br>------------- ------ ------ ---- ---- ------- ----- -- ----<br>-------- ------- -- ---------- --- - --- ----- ----- ----<br>---- --- --- ----- --- ---- ---- ------- ----- ---- -------<br>--- --- -- ----- -- --- ---- -- --- ---- -- ------ ------<br>--- ----- -- ----,155822.37000018358,155821.79500022903,155393.681,155402.71000005305,155410.344,155826.688,,5,a
screen,html.Screen,1_1_0_1_6,2021-04-23T10:34:58.858Z,,,,,,,,,,,,,,,,53,,,,,,,,,,,,,,395.83700010654866,,response,,,,99,,,,,,,Space,keypress(Space),,,,,,,,---- -- ----- -- ------ - lasting --- ----------<br>------------- ------ ------ ---- ---- ------- ----- -- ----<br>-------- ------- -- ---------- --- - --- ----- ----- ----<br>---- --- --- ----- --- ---- ---- ------- ----- ---- -------<br>--- --- -- ----- -- --- ---- -- --- ---- -- ------ ------<br>--- ----- -- ----,156222.9650001973,156222.52500010654,155809.953,155822.5500001572,155826.688,156226.232,,6,lasting
screen,html.Screen,1_1_0_1_7,2021-04-23T10:34:59.265Z,,,,,,,,,,,,,,,,53,,,,,,,,,,,,,,402.96300004501245,,response,,,,99,,,,,,,Space,keypress(Space),,,,,,,,---- -- ----- -- ------ - ------- and ----------<br>------------- ------ ------ ---- ---- ------- ----- -- ----<br>-------- ------- -- ---------- --- - --- ----- ----- ----<br>---- --- --- ----- --- ---- ---- ------- ----- ---- -------<br>--- --- -- ----- -- --- ---- -- --- ---- -- ------ ------<br>--- ----- -- ----,156629.91000013426,156629.195000045,156209.543,156223.03499979898,156226.232,156642.489,,7,and
screen,html.Screen,1_1_0_1_8,2021-04-23T10:34:59.758Z,,,,,,,,,,,,,,,,53,,,,,,,,,,,,,,480.5260000192211,,response,,,,99,,,,,,,Space,keypress(Space),,,,,,,,---- -- ----- -- ------ - ------- --- fulfilling<br>------------- ------ ------ ---- ---- ------- ----- -- ----<br>-------- ------- -- ---------- --- - --- ----- ----- ----<br>---- --- --- ----- --- ---- ---- ------- ----- ---- -------<br>--- --- -- ----- -- --- ---- -- --- ---- -- ------ ------<br>--- ----- -- ----,157123.39500011876,157123.01500001922,156625.882,156630.09000010788,156642.489,157125.374,,8,fulfilling
screen,html.Screen,1_1_0_1_9,2021-04-23T10:35:00.350Z,,,,,,,,,,,,,,,,53,,,,,,,,,,,,,,590.0059999505174,,response,,,,99,,,,,,,Space,keypress(Space),,,,,,,,"---- -- ----- -- ------ - ------- --- ----------<br>relationship, ------ ------ ---- ---- ------- ----- -- ----<br>-------- ------- -- ---------- --- - --- ----- ----- ----<br>---- --- --- ----- --- ---- ---- ------- ----- ---- -------<br>--- --- -- ----- -- --- ---- -- --- ---- -- ------ ------<br>--- ----- -- ----",157715.84999980405,157715.37999995053,157108.745,157123.49000014365,157125.374,157724.892,,9,"relationship,"
screen,html.Screen,1_1_0_1_10,2021-04-23T10:35:00.786Z,,,,,,,,,,,,,,,,53,,,,,,,,,,,,,,425.59799991268665,,response,,,,99,,,,,,,Space,keypress(Space),,,,,,,,---- -- ----- -- ------ - ------- --- ----------<br>------------- common ------ ---- ---- ------- ----- -- ----<br>-------- ------- -- ---------- --- - --- ----- ----- ----<br>---- --- --- ----- --- ---- ---- ------- ----- ---- -------<br>--- --- -- ----- -- --- ---- -- --- ---- -- ------ ------<br>--- ----- -- ----,158150.9050000459,158150.48999991268,157708.127,157715.97000025213,157724.892,158157.762,,10,common
screen,html.Screen,1_1_0_1_11,2021-04-23T10:35:01.291Z,,,,,,,,,,,,,,,,53,,,,,,,,,,,,,,498.1179999766173,,response,,,,99,,,,,,,Space,keypress(Space),,,,,,,,---- -- ----- -- ------ - ------- --- ----------<br>------------- ------ wisdom ---- ---- ------- ----- -- ----<br>-------- ------- -- ---------- --- - --- ----- ----- ----<br>---- --- --- ----- --- ---- ---- ------- ----- ---- -------<br>--- --- -- ----- -- --- ---- -- --- ---- -- ------ ------<br>--- ----- -- ----,158656.35500010103,158655.8799999766,158141.134,158151.01000014693,158157.762,158676.221,,11,wisdom
screen,html.Screen,1_1_0_1_12,2021-04-23T10:35:01.853Z,,,,,,,,,,,,,,,,53,,,,,,,,,,,,,,541.4590002344048,,response,,,,99,,,,,,,Space,keypress(Space),,,,,,,,---- -- ----- -- ------ - ------- --- ----------<br>------------- ------ ------ says ---- ------- ----- -- ----<br>-------- ------- -- ---------- --- - --- ----- ----- ----<br>---- --- --- ----- --- ---- ---- ------- ----- ---- -------<br>--- --- -- ----- -- --- ---- -- --- ---- -- ------ ------<br>--- ----- -- ----,159218.16000016406,159217.6800002344,158640.585,158656.47500008345,158676.221,159223.517,,12,says
screen,html.Screen,1_1_0_1_13,2021-04-23T10:35:02.239Z,,,,,,,,,,,,,,,,53,,,,,,,,,,,,,,380.1780000561848,,response,,,,99,,,,,,,Space,keypress(Space),,,,,,,,---- -- ----- -- ------ - ------- --- ----------<br>------------- ------ ------ ---- that ------- ----- -- ----<br>-------- ------- -- ---------- --- - --- ----- ----- ----<br>---- --- --- ----- --- ---- ---- ------- ----- ---- -------<br>--- --- -- ----- -- --- ---- -- --- ---- -- ------ ------<br>--- ----- -- ----,159604.36000023037,159603.69500005618,159206.753,159218.27499987558,159223.517,159606.404,,13,that
screen,html.Screen,1_1_0_1_14,2021-04-23T10:35:02.623Z,,,,,,,,,,,,,,,,53,,,,,,,,,,,,,,381.68600011532544,,response,,,,99,,,,,,,Space,keypress(Space),,,,,,,,---- -- ----- -- ------ - ------- --- ----------<br>------------- ------ ------ ---- ---- feeling ----- -- ----<br>-------- ------- -- ---------- --- - --- ----- ----- ----<br>---- --- --- ----- --- ---- ---- ------- ----- ---- -------<br>--- --- -- ----- -- --- ---- -- --- ---- -- ------ ------<br>--- ----- -- ----,159988.70000010356,159988.09000011533,159589.758,159604.58000004292,159606.404,160022.688,,14,feeling
screen,html.Screen,1_1_0_1_15,2021-04-23T10:35:03.515Z,,,,,,,,,,,,,,,,53,,,,,,,,,,,,,,856.9020000259334,,response,,,,99,,,,,,,Space,keypress(Space),,,,,,,,---- -- ----- -- ------ - ------- --- ----------<br>------------- ------ ------ ---- ---- ------- close -- ----<br>-------- ------- -- ---------- --- - --- ----- ----- ----<br>---- --- --- ----- --- ---- ---- ------- ----- ---- -------<br>--- --- -- ----- -- --- ---- -- --- ---- -- ------ ------<br>--- ----- -- ----,160880.30999992043,160879.59000002593,160006.021,159988.84000023827,160022.688,160888.592,,15,close
screen,html.Screen,1_1_0_1_16,2021-04-23T10:35:03.995Z,,,,,,,,,,,,,,,,53,,,,,,,,,,,,,,471.738000054087,,response,,,,99,,,,,,,Space,keypress(Space),,,,,,,,---- -- ----- -- ------ - ------- --- ----------<br>------------- ------ ------ ---- ---- ------- ----- to ----<br>-------- ------- -- ---------- --- - --- ----- ----- ----<br>---- --- --- ----- --- ---- ---- ------- ----- ---- -------<br>--- --- -- ----- -- --- ---- -- --- ---- -- ------ ------<br>--- ----- -- ----,161360.72000022978,161360.3300000541,160871.873,160880.51499985158,160888.592,161371.373,,16,to
screen,html.Screen,1_1_0_1_17,2021-04-23T10:35:04.506Z,,,,,,,,,,,,,,,,53,,,,,,,,,,,,,,499.4370002259093,,response,,,,99,,,,,,,Space,keypress(Space),,,,,,,,---- -- ----- -- ------ - ------- --- ----------<br>------------- ------ ------ ---- ---- ------- ----- -- your<br>-------- ------- -- ---------- --- - --- ----- ----- ----<br>---- --- --- ----- --- ---- ---- ------- ----- ---- -------<br>--- --- -- ----- -- --- ---- -- --- ---- -- ------ ------<br>--- ----- -- ----,161871.22000008821,161870.8100002259,161354.794,161360.84999982268,161371.373,161887.579,,17,your
screen,html.Screen,1_1_0_1_18,2021-04-23T10:35:05.032Z,,,,,,,,,,,,,,,,53,,,,,,,,,,,,,,509.32100005066604,,response,,,,99,,,,,,,Space,keypress(Space),,,,,,,,---- -- ----- -- ------ - ------- --- ----------<br>------------- ------ ------ ---- ---- ------- ----- -- ----<br>romantic ------- -- ---------- --- - --- ----- ----- ----<br>---- --- --- ----- --- ---- ---- ------- ----- ---- -------<br>--- --- -- ----- -- --- ---- -- --- ---- -- ------ ------<br>--- ----- -- ----,162397.39499986172,162396.90000005066,161870.962,161871.30500003695,161887.579,162403.758,,18,romantic
screen,html.Screen,1_1_0_1_19,2021-04-23T10:35:05.463Z,,,,,,,,,,,,,,,,53,,,,,,,,,,,,,,424.16699987408356,,response,,,,99,,,,,,,Space,keypress(Space),,,,,,,,---- -- ----- -- ------ - ------- --- ----------<br>------------- ------ ------ ---- ---- ------- ----- -- ----<br>-------- partner -- ---------- --- - --- ----- ----- ----<br>---- --- --- ----- --- ---- ---- ------- ----- ---- -------<br>--- --- -- ----- -- --- ---- -- --- ---- -- ------ ------<br>--- ----- -- ----,162828.44500010833,162827.92499987409,162387.118,162397.53000019118,162403.758,162836.718,,19,partner
screen,html.Screen,1_1_0_1_20,2021-04-23T10:35:05.839Z,,,,,,,,,,,,,,,,53,,,,,,,,,,,,,,366.60700012592133,,response,,,,99,,,,,,,Space,keypress(Space),,,,,,,,---- -- ----- -- ------ - ------- --- ----------<br>------------- ------ ------ ---- ---- ------- ----- -- ----<br>-------- ------- is ---------- --- - --- ----- ----- ----<br>---- --- --- ----- --- ---- ---- ------- ----- ---- -------<br>--- --- -- ----- -- --- ---- -- --- ---- -- ------ ------<br>--- ----- -- ----,163203.96000007167,163203.32500012591,162820.075,162828.55999981984,162836.718,163219.692,,20,is
screen,html.Screen,1_1_0_1_21,2021-04-23T10:35:07.240Z,,,,,,,,,,,,,,,,53,,,,,,,,,,,,,,1385.4779998788435,,response,,,,99,,,,,,,Space,keypress(Space),,,,,,,,---- -- ----- -- ------ - ------- --- ----------<br>------------- ------ ------ ---- ---- ------- ----- -- ----<br>-------- ------- -- paramount. --- - --- ----- ----- ----<br>---- --- --- ----- --- ---- ---- ------- ----- ---- -------<br>--- --- -- ----- -- --- ---- -- --- ---- -- ------ ------<br>--- ----- -- ----,164605.68000003695,164605.16999987885,163203.053,163204.1400000453,163219.692,164618.393,,21,paramount.
screen,html.Screen,1_1_0_1_22,2021-04-23T10:35:07.681Z,,,,,,,,,,,,,,,,53,,,,,,,,,,,,,,427.4620001494477,,response,,,,99,,,,,,,Space,keypress(Space),,,,,,,,---- -- ----- -- ------ - ------- --- ----------<br>------------- ------ ------ ---- ---- ------- ----- -- ----<br>-------- ------- -- ---------- But - --- ----- ----- ----<br>---- --- --- ----- --- ---- ---- ------- ----- ---- -------<br>--- --- -- ----- -- --- ---- -- --- ---- -- ------ ------<br>--- ----- -- ----,165046.40500014648,165045.85500014946,164601.711,164605.80000001937,164618.393,165051.38,,22,But
screen,html.Screen,1_1_0_1_23,2021-04-23T10:35:08.272Z,,,,,,,,,,,,,,,,53,,,,,,,,,,,,,,585.7549999681069,,response,,,,99,,,,,,,Space,keypress(Space),,,,,,,,---- -- ----- -- ------ - ------- --- ----------<br>------------- ------ ------ ---- ---- ------- ----- -- ----<br>-------- ------- -- ---------- --- a --- ----- ----- ----<br>---- --- --- ----- --- ---- ---- ------- ----- ---- -------<br>--- --- -- ----- -- --- ---- -- --- ---- -- ------ ------<br>--- ----- -- ----,165637.77999999002,165637.1349999681,165034.687,165046.51500005275,165051.38,165650.738,,23,a
screen,html.Screen,1_1_0_1_24,2021-04-23T10:35:08.893Z,,,,,,,,,,,,,,,,53,,,,,,,,,,,,,,607.4570002349792,,response,,,,99,,,,,,,Space,keypress(Space),,,,,,,,---- -- ----- -- ------ - ------- --- ----------<br>------------- ------ ------ ---- ---- ------- ----- -- ----<br>-------- ------- -- ---------- --- - new ----- ----- ----<br>---- --- --- ----- --- ---- ---- ------- ----- ---- -------<br>--- --- -- ----- -- --- ---- -- --- ---- -- ------ ------<br>--- ----- -- ----,166258.84999986738,166258.195000235,165634.081,165637.96500023454,165650.738,166266.864,,24,new
screen,html.Screen,1_1_0_1_25,2021-04-23T10:35:09.714Z,,,,,,,,,,,,,,,,53,,,,,,,,,,,,,,812.1410001814947,,response,,,,99,,,,,,,Space,keypress(Space),,,,,,,,---- -- ----- -- ------ - ------- --- ----------<br>------------- ------ ------ ---- ---- ------- ----- -- ----<br>-------- ------- -- ---------- --- - --- study ----- ----<br>---- --- --- ----- --- ---- ---- ------- ----- ---- -------<br>--- --- -- ----- -- --- ---- -- --- ---- -- ------ ------<br>--- ----- -- ----,167079.6300000511,167079.0050001815,166250.166,166259.0350001119,166266.864,167082.711,,25,study
screen,html.Screen,1_1_0_1_26,2021-04-23T10:35:10.270Z,,,,,,,,,,,,,,,,53,,,,,,,,,,,,,,552.2190001747804,,response,,,,99,,,,,,,Space,keypress(Space),,,,,,,,---- -- ----- -- ------ - ------- --- ----------<br>------------- ------ ------ ---- ---- ------- ----- -- ----<br>-------- ------- -- ---------- --- - --- ----- finds ----<br>---- --- --- ----- --- ---- ---- ------- ----- ---- -------<br>--- --- -- ----- -- --- ---- -- --- ---- -- ------ ------<br>--- ----- -- ----,167635.48499997705,167634.9300001748,167066.085,167079.82499990612,167082.711,167648.903,,26,finds
screen,html.Screen,1_1_0_1_27,2021-04-23T10:35:10.692Z,,,,,,,,,,,,,,,,53,,,,,,,,,,,,,,408.2419999697595,,response,,,,99,,,,,,,Space,keypress(Space),,,,,,,,---- -- ----- -- ------ - ------- --- ----------<br>------------- ------ ------ ---- ---- ------- ----- -- ----<br>-------- ------- -- ---------- --- - --- ----- ----- that<br>---- --- --- ----- --- ---- ---- ------- ----- ---- -------<br>--- --- -- ----- -- --- ---- -- --- ---- -- ------ ------<br>--- ----- -- ----,168057.86499986425,168057.14499996975,167632.214,167635.59499988332,167648.903,168065.133,,27,that
screen,html.Screen,1_1_0_1_28,2021-04-23T10:35:11.127Z,,,,,,,,,,,,,,,,53,,,,,,,,,,,,,,426.22699986901716,,response,,,,99,,,,,,,Space,keypress(Space),,,,,,,,---- -- ----- -- ------ - ------- --- ----------<br>------------- ------ ------ ---- ---- ------- ----- -- ----<br>-------- ------- -- ---------- --- - --- ----- ----- ----<br>it's --- --- ----- --- ---- ---- ------- ----- ---- -------<br>--- --- -- ----- -- --- ---- -- --- ---- -- ------ ------<br>--- ----- -- ----,168491.9850002043,168491.35999986902,168048.516,168058.06000018492,168065.133,168498.039,,28,it's
screen,html.Screen,1_1_0_1_29,2021-04-23T10:35:11.524Z,,,,,,,,,,,,,,,,53,,,,,,,,,,,,,,390.1959999621613,,response,,,,99,,,,,,,Space,keypress(Space),,,,,,,,---- -- ----- -- ------ - ------- --- ----------<br>------------- ------ ------ ---- ---- ------- ----- -- ----<br>-------- ------- -- ---------- --- - --- ----- ----- ----<br>---- not --- ----- --- ---- ---- ------- ----- ---- -------<br>--- --- -- ----- -- --- ---- -- --- ---- -- ------ ------<br>--- ----- -- ----,168888.9700002037,168888.23499996215,168481.418,168492.09500011057,168498.039,168897.736,,29,not
screen,html.Screen,1_1_0_1_30,2021-04-23T10:35:12.015Z,,,,,,,,,,,,,,,,53,,,,,,,,,,,,,,480.4589998810843,,response,,,,99,,,,,,,Space,keypress(Space),,,,,,,,---- -- ----- -- ------ - ------- --- ----------<br>------------- ------ ------ ---- ---- ------- ----- -- ----<br>-------- ------- -- ---------- --- - --- ----- ----- ----<br>---- --- how ----- --- ---- ---- ------- ----- ---- -------<br>--- --- -- ----- -- --- ---- -- --- ---- -- ------ ------<br>--- ----- -- ----,169380.57000003755,169378.1949998811,168881.042,168889.1250002198,168897.736,169397.284,,30,how
screen,html.Screen,1_1_0_1_31,2021-04-23T10:35:12.544Z,,,,,,,,,,,,,,,,53,,,,,,,,,,,,,,511.47100021500955,,response,,,,99,,,,,,,Space,keypress(Space),,,,,,,,---- -- ----- -- ------ - ------- --- ----------<br>------------- ------ ------ ---- ---- ------- ----- -- ----<br>-------- ------- -- ---------- --- - --- ----- ----- ----<br>---- --- --- close --- ---- ---- ------- ----- ---- -------<br>--- --- -- ----- -- --- ---- -- --- ---- -- ------ ------<br>--- ----- -- ----,169909.30500021204,169908.75500021502,169380.556,169380.75000001118,169397.284,169913.418,,31,close
screen,html.Screen,1_1_0_1_32,2021-04-23T10:35:13.019Z,,,,,,,,,,,,,,,,53,,,,,,,,,,,,,,470.76699985709274,,response,,,,99,,,,,,,Space,keypress(Space),,,,,,,,---- -- ----- -- ------ - ------- --- ----------<br>------------- ------ ------ ---- ---- ------- ----- -- ----<br>-------- ------- -- ---------- --- - --- ----- ----- ----<br>---- --- --- ----- you ---- ---- ------- ----- ---- -------<br>--- --- -- ----- -- --- ---- -- --- ---- -- ------ ------<br>--- ----- -- ----,170384.80499992147,170384.1849998571,169896.765,169909.47500010952,169913.418,170396.323,,32,you
screen,html.Screen,1_1_0_1_33,2021-04-23T10:35:13.480Z,,,,,,,,,,,,,,,,53,,,,,,,,,,,,,,448.77700003501377,,response,,,,99,,,,,,,Space,keypress(Space),,,,,,,,---- -- ----- -- ------ - ------- --- ----------<br>------------- ------ ------ ---- ---- ------- ----- -- ----<br>-------- ------- -- ---------- --- - --- ----- ----- ----<br>---- --- --- ----- --- feel ---- ------- ----- ---- -------<br>--- --- -- ----- -- --- ---- -- --- ---- -- ------ ------<br>--- ----- -- ----,170845.5850002356,170845.10000003502,170379.676,170384.9700000137,170396.323,170862.564,,33,feel
screen,html.Screen,1_1_0_1_34,2021-04-23T10:35:13.856Z,,,,,,,,,,,,,,,,53,,,,,,,,,,,,,,358.2660000056494,,response,,,,99,,,,,,,Space,keypress(Space),,,,,,,,---- -- ----- -- ------ - ------- --- ----------<br>------------- ------ ------ ---- ---- ------- ----- -- ----<br>-------- ------- -- ---------- --- - --- ----- ----- ----<br>---- --- --- ----- --- ---- that ------- ----- ---- -------<br>--- --- -- ----- -- --- ---- -- --- ---- -- ------ ------<br>--- ----- -- ----,171221.53999982402,171220.83000000566,170845.869,170845.7149998285,170862.564,171228.909,,34,that
screen,html.Screen,1_1_0_1_35,2021-04-23T10:35:14.287Z,,,,,,,,,,,,,,,,53,,,,,,,,,,,,,,422.4159999843396,,response,,,,99,,,,,,,Space,keypress(Space),,,,,,,,---- -- ----- -- ------ - ------- --- ----------<br>------------- ------ ------ ---- ---- ------- ----- -- ----<br>-------- ------- -- ---------- --- - --- ----- ----- ----<br>---- --- --- ----- --- ---- ---- matters ----- ---- -------<br>--- --- -- ----- -- --- ---- -- --- ---- -- ------ ------<br>--- ----- -- ----,171652.02500019222,171651.32499998435,171212.192,171221.71000018716,171228.909,171661.836,,35,matters
screen,html.Screen,1_1_0_1_36,2021-04-23T10:35:14.773Z,,,,,,,,,,,,,,,,53,,,,,,,,,,,,,,476.2290000646608,,response,,,,99,,,,,,,Space,keypress(Space),,,,,,,,"---- -- ----- -- ------ - ------- --- ----------<br>------------- ------ ------ ---- ---- ------- ----- -- ----<br>-------- ------- -- ---------- --- - --- ----- ----- ----<br>---- --- --- ----- --- ---- ---- ------- most, ---- -------<br>--- --- -- ----- -- --- ---- -- --- ---- -- ------ ------<br>--- ----- -- ----",172138.73999984935,172138.06500006467,171645.153,171652.22499985248,171661.836,172144.747,,36,"most,"
screen,html.Screen,1_1_0_1_37,2021-04-23T10:35:15.238Z,,,,,,,,,,,,,,,,53,,,,,,,,,,,,,,458.27800007673795,,response,,,,99,,,,,,,Space,keypress(Space),,,,,,,,---- -- ----- -- ------ - ------- --- ----------<br>------------- ------ ------ ---- ---- ------- ----- -- ----<br>-------- ------- -- ---------- --- - --- ----- ----- ----<br>---- --- --- ----- --- ---- ---- ------- ----- it's -------<br>--- --- -- ----- -- --- ---- -- --- ---- -- ------ ------<br>--- ----- -- ----,172603.65500021726,172603.02500007674,172128.032,172138.9100002125,172144.747,172611.007,,37,it's
screen,html.Screen,1_1_0_1_38,2021-04-23T10:35:15.654Z,,,,,,,,,,,,,,,,53,,,,,,,,,,,,,,407.4179999001499,,response,,,,99,,,,,,,Space,keypress(Space),,,,,,,,---- -- ----- -- ------ - ------- --- ----------<br>------------- ------ ------ ---- ---- ------- ----- -- ----<br>-------- ------- -- ---------- --- - --- ----- ----- ----<br>---- --- --- ----- --- ---- ---- ------- ----- ---- whether<br>--- --- -- ----- -- --- ---- -- --- ---- -- ------ ------<br>--- ----- -- ----,173019.10499995574,173018.42499990016,172594.285,172604.77499989793,172611.007,173027.167,,38,whether
screen,html.Screen,1_1_0_1_39,2021-04-23T10:35:16.186Z,,,,,,,,,,,,,,,,53,,,,,,,,,,,,,,523.4429998019768,,response,,,,99,,,,,,,Space,keypress(Space),,,,,,,,---- -- ----- -- ------ - ------- --- ----------<br>------------- ------ ------ ---- ---- ------- ----- -- ----<br>-------- ------- -- ---------- --- - --- ----- ----- ----<br>---- --- --- ----- --- ---- ---- ------- ----- ---- -------<br>you --- -- ----- -- --- ---- -- --- ---- -- ------ ------<br>--- ----- -- ----,173551.23500013724,173550.60999980196,173010.543,173019.28499992937,173027.167,173560.066,,39,you
screen,html.Screen,1_1_0_1_40,2021-04-23T10:35:16.615Z,,,,,,,,,,,,,,,,53,,,,,,,,,,,,,,419.9890001673484,,response,,,,99,,,,,,,Space,keypress(Space),,,,,,,,---- -- ----- -- ------ - ------- --- ----------<br>------------- ------ ------ ---- ---- ------- ----- -- ----<br>-------- ------- -- ---------- --- - --- ----- ----- ----<br>---- --- --- ----- --- ---- ---- ------- ----- ---- -------<br>--- are -- ----- -- --- ---- -- --- ---- -- ------ ------<br>--- ----- -- ----,173980.65500007942,173980.05500016734,173543.378,173551.4199999161,173560.066,173992.984,,40,are
screen,html.Screen,1_1_0_1_41,2021-04-23T10:35:16.881Z,,,,,,,,,,,,,,,,53,,,,,,,,,,,,,,252.76099996379344,,response,,,,99,,,,,,,Space,keypress(Space),,,,,,,,---- -- ----- -- ------ - ------- --- ----------<br>------------- ------ ------ ---- ---- ------- ----- -- ----<br>-------- ------- -- ---------- --- - --- ----- ----- ----<br>---- --- --- ----- --- ---- ---- ------- ----- ---- -------<br>--- --- as ----- -- --- ---- -- --- ---- -- ------ ------<br>--- ----- -- ----,174246.3899999857,174245.7449999638,173976.305,173980.82000017166,173992.984,174259.358,,41,as
screen,html.Screen,1_1_0_1_42,2021-04-23T10:35:17.211Z,,,,,,,,,,,,,,,,53,,,,,,,,,,,,,,316.6769999181852,,response,,,,99,,,,,,,Space,keypress(Space),,,,,,,,---- -- ----- -- ------ - ------- --- ----------<br>------------- ------ ------ ---- ---- ------- ----- -- ----<br>-------- ------- -- ---------- --- - --- ----- ----- ----<br>---- --- --- ----- --- ---- ---- ------- ----- ---- -------<br>--- --- -- close -- --- ---- -- --- ---- -- ------ ------<br>--- ----- -- ----,174576.85500010848,174576.0349999182,174242.685,174246.56999995932,174259.358,174592.371,,42,close
screen,html.Screen,1_1_0_1_43,2021-04-23T10:35:17.537Z,,,,,,,,,,,,,,,,53,,,,,,,,,,,,,,309.1890001439315,,response,,,,99,,,,,,,Space,keypress(Space),,,,,,,,---- -- ----- -- ------ - ------- --- ----------<br>------------- ------ ------ ---- ---- ------- ----- -- ----<br>-------- ------- -- ---------- --- - --- ----- ----- ----<br>---- --- --- ----- --- ---- ---- ------- ----- ---- -------<br>--- --- -- ----- as --- ---- -- --- ---- -- ------ ------<br>--- ----- -- ----,174902.05000014976,174901.56000014395,174575.759,174577.02500000596,174592.371,174908.72,,43,as
screen,html.Screen,1_1_0_1_44,2021-04-23T10:35:17.816Z,,,,,,,,,,,,,,,,53,,,,,,,,,,,,,,272.1099999684084,,response,,,,99,,,,,,,Space,keypress(Space),,,,,,,,---- -- ----- -- ------ - ------- --- ----------<br>------------- ------ ------ ---- ---- ------- ----- -- ----<br>-------- ------- -- ---------- --- - --- ----- ----- ----<br>---- --- --- ----- --- ---- ---- ------- ----- ---- -------<br>--- --- -- ----- -- you ---- -- --- ---- -- ------ ------<br>--- ----- -- ----,175181.53000017628,175180.8299999684,174892.101,174902.1550002508,174908.72,175191.841,,44,you
screen,html.Screen,1_1_0_1_45,2021-04-23T10:35:18.118Z,,,,,,,,,,,,,,,,53,,,,,,,,,,,,,,290.53899994309177,,response,,,,99,,,,,,,Space,keypress(Space),,,,,,,,---- -- ----- -- ------ - ------- --- ----------<br>------------- ------ ------ ---- ---- ------- ----- -- ----<br>-------- ------- -- ---------- --- - --- ----- ----- ----<br>---- --- --- ----- --- ---- ---- ------- ----- ---- -------<br>--- --- -- ----- -- --- want -- --- ---- -- ------ ------<br>--- ----- -- ----,175483.02000015974,175482.37999994308,175175.103,175181.71499995515,175191.841,175491.568,,45,want
screen,html.Screen,1_1_0_1_46,2021-04-23T10:35:18.498Z,,,,,,,,,,,,,,,,53,,,,,,,,,,,,,,371.4370001665957,,response,,,,99,,,,,,,Space,keypress(Space),,,,,,,,---- -- ----- -- ------ - ------- --- ----------<br>------------- ------ ------ ---- ---- ------- ----- -- ----<br>-------- ------- -- ---------- --- - --- ----- ----- ----<br>---- --- --- ----- --- ---- ---- ------- ----- ---- -------<br>--- --- -- ----- -- --- ---- to --- ---- -- ------ ------<br>--- ----- -- ----,175863.70000010356,175863.0050001666,175474.898,175483.2250000909,175491.568,175874.498,,46,to
screen,html.Screen,1_1_0_1_47,2021-04-23T10:35:18.814Z,,,,,,,,,,,,,,,,53,,,,,,,,,,,,,,304.60700010476285,,response,,,,99,,,,,,,Space,keypress(Space),,,,,,,,"---- -- ----- -- ------ - ------- --- ----------<br>------------- ------ ------ ---- ---- ------- ----- -- ----<br>-------- ------- -- ---------- --- - --- ----- ----- ----<br>---- --- --- ----- --- ---- ---- ------- ----- ---- -------<br>--- --- -- ----- -- --- ---- -- be, ---- -- ------ ------<br>--- ----- -- ----",176179.70500001684,176179.10500010476,175857.872,175863.8650001958,175874.498,176190.922,,47,"be,"
screen,html.Screen,1_1_0_1_48,2021-04-23T10:35:19.181Z,,,,,,,,,,,,,,,,53,,,,,,,,,,,,,,354.4680001011875,,response,,,,99,,,,,,,Space,keypress(Space),,,,,,,,---- -- ----- -- ------ - ------- --- ----------<br>------------- ------ ------ ---- ---- ------- ----- -- ----<br>-------- ------- -- ---------- --- - --- ----- ----- ----<br>---- --- --- ----- --- ---- ---- ------- ----- ---- -------<br>--- --- -- ----- -- --- ---- -- --- even -- ------ ------<br>--- ----- -- ----,176546.0800002329,176545.39000010118,176174.248,176179.87499991432,176190.922,176557.26,,48,even
screen,html.Screen,1_1_0_1_49,2021-04-23T10:35:19.545Z,,,,,,,,,,,,,,,,53,,,,,,,,,,,,,,352.4550000743475,,response,,,,99,,,,,,,Space,keypress(Space),,,,,,,,---- -- ----- -- ------ - ------- --- ----------<br>------------- ------ ------ ---- ---- ------- ----- -- ----<br>-------- ------- -- ---------- --- - --- ----- ----- ----<br>---- --- --- ----- --- ---- ---- ------- ----- ---- -------<br>--- --- -- ----- -- --- ---- -- --- ---- if ------ ------<br>--- ----- -- ----,176910.41499981657,176909.71500007436,176540.545,176546.24499985948,176557.26,176923.518,,49,if
screen,html.Screen,1_1_0_1_50,2021-04-23T10:35:19.882Z,,,,,,,,,,,,,,,,53,,,,,,,,,,,,,,322.8420002229104,,response,,,,99,,,,,,,Space,keypress(Space),,,,,,,,---- -- ----- -- ------ - ------- --- ----------<br>------------- ------ ------ ---- ---- ------- ----- -- ----<br>-------- ------- -- ---------- --- - --- ----- ----- ----<br>---- --- --- ----- --- ---- ---- ------- ----- ---- -------<br>--- --- -- ----- -- --- ---- -- --- ---- -- that's ------<br>--- ----- -- ----,177247.04500008374,177246.36000022292,176906.895,176910.5799999088,176923.518,177256.572,,50,that's
screen,html.Screen,1_1_0_1_51,2021-04-23T10:35:20.291Z,,,,,,,,,,,,,,,,53,,,,,,,,,,,,,,399.4179998828913,,response,,,,99,,,,,,,Space,keypress(Space),,,,,,,,---- -- ----- -- ------ - ------- --- ----------<br>------------- ------ ------ ---- ---- ------- ----- -- ----<br>-------- ------- -- ---------- --- - --- ----- ----- ----<br>---- --- --- ----- --- ---- ---- ------- ----- ---- -------<br>--- --- -- ----- -- --- ---- -- --- ---- -- ------ really<br>--- ----- -- ----,177656.59500006586,177655.98999988288,177239.898,177247.2700001672,177256.572,177672.873,,51,really
screen,html.Screen,1_1_0_1_52,2021-04-23T10:35:20.687Z,,,,,,,,,,,,,,,,53,,,,,,,,,,,,,,378.6769999746757,,response,,,,99,,,,,,,Space,keypress(Space),,,,,,,,---- -- ----- -- ------ - ------- --- ----------<br>------------- ------ ------ ---- ---- ------- ----- -- ----<br>-------- ------- -- ---------- --- - --- ----- ----- ----<br>---- --- --- ----- --- ---- ---- ------- ----- ---- -------<br>--- --- -- ----- -- --- ---- -- --- ---- -- ------ ------<br>not ----- -- ----,178052.18499992043,178051.54999997467,177656.18,177656.7549998872,177672.873,178055.809,,52,not
screen,html.Screen,1_1_0_1_53,2021-04-23T10:35:21.032Z,,,,,,,,,,,,,,,,53,,,,,,,,,,,,,,341.241000261507,,response,,,,99,,,,,,,Space,keypress(Space),,,,,,,,---- -- ----- -- ------ - ------- --- ----------<br>------------- ------ ------ ---- ---- ------- ----- -- ----<br>-------- ------- -- ---------- --- - --- ----- ----- ----<br>---- --- --- ----- --- ---- ---- ------- ----- ---- -------<br>--- --- -- ----- -- --- ---- -- --- ---- -- ------ ------<br>--- close -- ----,178397.5700000301,178397.05000026152,178039.171,178052.34500020742,178055.809,178405.535,,53,close
screen,html.Screen,1_1_0_1_54,2021-04-23T10:35:21.388Z,,,,,,,,,,,,,,,,53,,,,,,,,,,,,,,347.35500011980184,,response,,,,99,,,,,,,Space,keypress(Space),,,,,,,,---- -- ----- -- ------ - ------- --- ----------<br>------------- ------ ------ ---- ---- ------- ----- -- ----<br>-------- ------- -- ---------- --- - --- ----- ----- ----<br>---- --- --- ----- --- ---- ---- ------- ----- ---- -------<br>--- --- -- ----- -- --- ---- -- --- ---- -- ------ ------<br>--- ----- at ----,178753.50499991328,178752.8900001198,178388.818,178397.71499997005,178405.535,178774.945,,54,at
screen,html.Screen,1_1_0_1_55,2021-04-23T10:35:21.713Z,,,,,,,,,,,,,,,,53,,,,,,,,,,,,,,303.0900002460112,,response,,,,99,,,,,,,Space,keypress(Space),,,,,,,,---- -- ----- -- ------ - ------- --- ----------<br>------------- ------ ------ ---- ---- ------- ----- -- ----<br>-------- ------- -- ---------- --- - --- ----- ----- ----<br>---- --- --- ----- --- ---- ---- ------- ----- ---- -------<br>--- --- -- ----- -- --- ---- -- --- ---- -- ------ ------<br>--- ----- -- all.,179078.72499991208,179078.03500024602,178738.525,178753.6700000055,178774.945,179088.179,,55,all.
Item 99,flow.Loop,1_1_0_1,2021-04-23T10:35:21.714Z,,,,,,,,,,,,,,,,,,,,,,,,,,,,,,33641.749000246025,,completion,,,,,D,,,,,,,,,,,silence,,,,,179079.0800000541,179078.03500024602,145419.702,145420.45499989763,145436.286,179088.179,,,
Question 1,html.Screen,1_1_0_2,2021-04-23T10:35:27.355Z,,,,,,,,,,,,,,,,,,,,,,,,,,,true,FALSE,,5631.306000241544,,response,,,,99,D,,,,,,FALSE,click #choice-2,,,,silence,,,,,184720.6450002268,184719.48500024155,179071.519,179079.23500007018,179088.179,184733.043,,,
Question 2,html.Screen,1_1_0_3,2021-04-23T10:35:31.465Z,,,,,,,,,,,,,,,,,,,,,,,,,,,true,TRUE,,4096.146999960358,,response,,,,99,D,,,,,,TRUE,click #choice-1,,,,silence,,,,,188830.20000020042,188829.18999996036,184716.256,184720.8400000818,184733.043,188845.76,,,
Item 99,flow.Sequence,1_1_0,2021-04-23T10:35:31.465Z,,,,,,,,,,,,,,,,,,,,,,,,,,,,,,53400.18199996036,,completion,,,,,,,,,,,,,,,,,,,,,188830.61499986798,188829.18999996036,135412.348,135420.87000003085,135429.008,188845.76,,,
Holding screen,html.Screen,1_1_1_0,2021-04-23T10:35:41.472Z,,,,,,,,,,,,,,,,,,,,,,,,,,,,,,10007.356,,timeout,,,,,,,,,,,,,,,,,,,,,198837.15000003576,198836.385,188829.084,188830.82500007004,188845.76,198853.116,,,
screen,html.Screen,1_1_1_1_0,2021-04-23T10:35:42.417Z,,,,,,,,,,,,,,,,54,,,,,,,,,,,,,,928.4990002181439,,response,,,,100,,,,,,,Space,keypress(Space),,,,,,,,At --- ---- --- ------ ----- ------- ---- -- --- ------- --<br>------- ---------- ------ -- ----- -- ----- -- ---- ------<br>--- ----- --- --- ------ -------- ----- --- ------ ----- --<br>----- ----- ---------- --- --- ------ ------ ---- -- ------<br>------- --- ------ ----- --- ---- ------- -- ---- --- --<br>------- ------,199782.3450001888,199781.61500021815,198836.385,198837.3750001192,198853.116,199785.485,,0,At
screen,html.Screen,1_1_1_1_1,2021-04-23T10:35:43.292Z,,,,,,,,,,,,,,,,54,,,,,,,,,,,,,,871.3700001830002,,response,,,,100,,,,,,,Space,keypress(Space),,,,,,,,-- the ---- --- ------ ----- ------- ---- -- --- ------- --<br>------- ---------- ------ -- ----- -- ----- -- ---- ------<br>--- ----- --- --- ------ -------- ----- --- ------ ----- --<br>----- ----- ---------- --- --- ------ ------ ---- -- ------<br>------- --- ------ ----- --- ---- ------- -- ---- --- --<br>------- ------,200657.43499994278,200656.855000183,199769.082,199782.53500023857,199785.485,200667.995,,1,the
screen,html.Screen,1_1_1_1_2,2021-04-23T10:35:43.723Z,,,,,,,,,,,,,,,,54,,,,,,,,,,,,,,419.99000010744203,,response,,,,100,,,,,,,Space,keypress(Space),,,,,,,,-- --- time --- ------ ----- ------- ---- -- --- ------- --<br>------- ---------- ------ -- ----- -- ----- -- ---- ------<br>--- ----- --- --- ------ -------- ----- --- ------ ----- --<br>----- ----- ---------- --- --- ------ ------ ---- -- ------<br>------- --- ------ ----- --- ---- ------- -- ---- --- --<br>------- ------,201088.4050000459,201087.98500010744,200651.347,200657.60000003502,200667.995,201100.926,,2,time
screen,html.Screen,1_1_1_1_3,2021-04-23T10:35:44.159Z,,,,,,,,,,,,,,,,54,,,,,,,,,,,,,,422.94400015004794,,response,,,,100,,,,,,,Space,keypress(Space),,,,,,,,-- --- ---- the ------ ----- ------- ---- -- --- ------- --<br>------- ---------- ------ -- ----- -- ----- -- ---- ------<br>--- ----- --- --- ------ -------- ----- --- ------ ----- --<br>----- ----- ---------- --- --- ------ ------ ---- -- ------<br>------- --- ------ ----- --- ---- ------- -- ---- --- --<br>------- ------,201524.66499991715,201523.87000015005,201084.276,201088.51000014693,201100.926,201533.837,,3,the
screen,html.Screen,1_1_1_1_4,2021-04-23T10:35:44.735Z,,,,,,,,,,,,,,,,54,,,,,,,,,,,,,,565.9380000096862,,response,,,,100,,,,,,,Space,keypress(Space),,,,,,,,-- --- ---- --- French ----- ------- ---- -- --- ------- --<br>------- ---------- ------ -- ----- -- ----- -- ---- ------<br>--- ----- --- --- ------ -------- ----- --- ------ ----- --<br>----- ----- ---------- --- --- ------ ------ ---- -- ------<br>------- --- ------ ----- --- ---- ------- -- ---- --- --<br>------- ------,202100.34999996424,202099.7750000097,201517.196,201524.84000008553,201533.837,202116.686,,4,French
screen,html.Screen,1_1_1_1_5,2021-04-23T10:35:45.165Z,,,,,,,,,,,,,,,,54,,,,,,,,,,,,,,413.11899994011037,,response,,,,100,,,,,,,Space,keypress(Space),,,,,,,,-- --- ---- --- ------ crown ------- ---- -- --- ------- --<br>------- ---------- ------ -- ----- -- ----- -- ---- ------<br>--- ----- --- --- ------ -------- ----- --- ------ ----- --<br>----- ----- ---------- --- --- ------ ------ ---- -- ------<br>------- --- ------ ----- --- ---- ------- -- ---- --- --<br>------- ------,202530.43999988586,202529.8049999401,202099.918,202100.46999994665,202116.686,202532.911,,5,crown
screen,html.Screen,1_1_1_1_6,2021-04-23T10:35:45.546Z,,,,,,,,,,,,,,,,54,,,,,,,,,,,,,,377.6740001797152,,response,,,,100,,,,,,,Space,keypress(Space),,,,,,,,-- --- ---- --- ------ ----- secured ---- -- --- ------- --<br>------- ---------- ------ -- ----- -- ----- -- ---- ------<br>--- ----- --- --- ------ -------- ----- --- ------ ----- --<br>----- ----- ---------- --- --- ------ ------ ---- -- ------<br>------- --- ------ ----- --- ---- ------- -- ---- --- --<br>------- ------,202911.20500024408,202910.5850001797,202516.29,202530.610000249,202532.911,202916,,6,secured
screen,html.Screen,1_1_1_1_7,2021-04-23T10:35:45.942Z,,,,,,,,,,,,,,,,54,,,,,,,,,,,,,,391.1550000458956,,response,,,,100,,,,,,,Space,keypress(Space),,,,,,,,-- --- ---- --- ------ ----- ------- much -- --- ------- --<br>------- ---------- ------ -- ----- -- ----- -- ---- ------<br>--- ----- --- --- ------ -------- ----- --- ------ ----- --<br>----- ----- ---------- --- --- ------ ------ ---- -- ------<br>------- --- ------ ----- --- ---- ------- -- ---- --- --<br>------- ------,203307.68000008538,203307.1550000459,202899.234,202911.3850002177,202916,203315.469,,7,much
screen,html.Screen,1_1_1_1_8,2021-04-23T10:35:46.317Z,,,,,,,,,,,,,,,,54,,,,,,,,,,,,,,366.3559998614073,,response,,,,100,,,,,,,Space,keypress(Space),,,,,,,,-- --- ---- --- ------ ----- ------- ---- of --- ------- --<br>------- ---------- ------ -- ----- -- ----- -- ---- ------<br>--- ----- --- --- ------ -------- ----- --- ------ ----- --<br>----- ----- ---------- --- --- ------ ------ ---- -- ------<br>------- --- ------ ----- --- ---- ------- -- ---- --- --<br>------- ------,203682.6450000517,203681.82499986142,203298.911,203307.78999999166,203315.469,203698.518,,8,of
screen,html.Screen,1_1_1_1_9,2021-04-23T10:35:46.654Z,,,,,,,,,,,,,,,,54,,,,,,,,,,,,,,320.15699994112947,,response,,,,100,,,,,,,Space,keypress(Space),,,,,,,,-- --- ---- --- ------ ----- ------- ---- -- its ------- --<br>------- ---------- ------ -- ----- -- ----- -- ---- ------<br>--- ----- --- --- ------ -------- ----- --- ------ ----- --<br>----- ----- ---------- --- --- ------ ------ ---- -- ------<br>------- --- ------ ----- --- ---- ------- -- ---- --- --<br>------- ------,204019.25999997184,204018.67499994114,203681.827,203682.7850001864,203698.518,204031.56,,9,its
screen,html.Screen,1_1_1_1_10,2021-04-23T10:35:47.029Z,,,,,,,,,,,,,,,,54,,,,,,,,,,,,,,362.185000008496,,response,,,,100,,,,,,,Space,keypress(Space),,,,,,,,-- --- ---- --- ------ ----- ------- ---- -- --- revenue --<br>------- ---------- ------ -- ----- -- ----- -- ---- ------<br>--- ----- --- --- ------ -------- ----- --- ------ ----- --<br>----- ----- ---------- --- --- ------ ------ ---- -- ------<br>------- --- ------ ----- --- ---- ------- -- ---- --- --<br>------- ------,204394.35499999672,204393.7450000085,204014.861,204019.38500022516,204031.56,204397.808,,10,revenue
screen,html.Screen,1_1_1_1_11,2021-04-23T10:35:47.554Z,,,,,,,,,,,,,,,,54,,,,,,,,,,,,,,521.0219998641114,,response,,,,100,,,,,,,Space,keypress(Space),,,,,,,,-- --- ---- --- ------ ----- ------- ---- -- --- ------- by<br>------- ---------- ------ -- ----- -- ----- -- ---- ------<br>--- ----- --- --- ------ -------- ----- --- ------ ----- --<br>----- ----- ---------- --- --- ------ ------ ---- -- ------<br>------- --- ------ ----- --- ---- ------- -- ---- --- --<br>------- ------,204919.4950000383,204918.8299998641,204381.122,204394.51000001281,204397.808,204930.68,,11,by
screen,html.Screen,1_1_1_1_12,2021-04-23T10:35:47.920Z,,,,,,,,,,,,,,,,54,,,,,,,,,,,,,,354.5150000040303,,response,,,,100,,,,,,,Space,keypress(Space),,,,,,,,-- --- ---- --- ------ ----- ------- ---- -- --- ------- --<br>issuing ---------- ------ -- ----- -- ----- -- ---- ------<br>--- ----- --- --- ------ -------- ----- --- ------ ----- --<br>----- ----- ---------- --- --- ------ ------ ---- -- ------<br>------- --- ------ ----- --- ---- ------- -- ---- --- --<br>------- ------,205285.78499983996,205285.19500000402,204914.003,204919.68500008807,204930.68,205297.024,,12,issuing
screen,html.Screen,1_1_1_1_13,2021-04-23T10:35:48.591Z,,,,,,,,,,,,,,,,54,,,,,,,,,,,,,,658.9160002472054,,response,,,,100,,,,,,,Space,keypress(Space),,,,,,,,-- --- ---- --- ------ ----- ------- ---- -- --- ------- --<br>------- government ------ -- ----- -- ----- -- ---- ------<br>--- ----- --- --- ------ -------- ----- --- ------ ----- --<br>----- ----- ---------- --- --- ------ ------ ---- -- ------<br>------- --- ------ ----- --- ---- ------- -- ---- --- --<br>------- ------,205956.520000007,205955.9400002472,205280.357,205285.91499989852,205297.024,205963.044,,13,government
screen,html.Screen,1_1_1_1_14,2021-04-23T10:35:49.302Z,,,,,,,,,,,,,,,,54,,,,,,,,,,,,,,704.1459999491926,,response,,,,100,,,,,,,Space,keypress(Space),,,,,,,,-- --- ---- --- ------ ----- ------- ---- -- --- ------- --<br>------- ---------- bonds. -- ----- -- ----- -- ---- ------<br>--- ----- --- --- ------ -------- ----- --- ------ ----- --<br>----- ----- ---------- --- --- ------ ------ ---- -- ------<br>------- --- ------ ----- --- ---- ------- -- ---- --- --<br>------- ------,206667.78500005603,206667.1899999492,205946.401,205956.6750000231,205963.044,206679.064,,14,bonds.
screen,html.Screen,1_1_1_1_15,2021-04-23T10:35:49.753Z,,,,,,,,,,,,,,,,54,,,,,,,,,,,,,,438.8509998351801,,response,,,,100,,,,,,,Space,keypress(Space),,,,,,,,-- --- ---- --- ------ ----- ------- ---- -- --- ------- --<br>------- ---------- ------ In ----- -- ----- -- ---- ------<br>--- ----- --- --- ------ -------- ----- --- ------ ----- --<br>----- ----- ---------- --- --- ------ ------ ---- -- ------<br>------- --- ------ ----- --- ---- ------- -- ---- --- --<br>------- ------,207118.65499988198,207117.9149998352,206662.388,206667.94000007212,206679.064,207128.588,,15,In
screen,html.Screen,1_1_1_1_16,2021-04-23T10:35:51.270Z,,,,,,,,,,,,,,,,54,,,,,,,,,,,,,,1506.1170000913553,,response,,,,100,,,,,,,Space,keypress(Space),,,,,,,,"-- --- ---- --- ------ ----- ------- ---- -- --- ------- --<br>------- ---------- ------ -- 1727, -- ----- -- ---- ------<br>--- ----- --- --- ------ -------- ----- --- ------ ----- --<br>----- ----- ---------- --- --- ------ ------ ---- -- ------<br>------- --- ------ ----- --- ---- ------- -- ---- --- --<br>------- ------",208635.23000013083,208634.70500009134,207111.945,207118.8349998556,207128.588,208643.867,,16,"1727,"
screen,html.Screen,1_1_1_1_17,2021-04-23T10:35:52.251Z,,,,,,,,,,,,,,,,54,,,,,,,,,,,,,,972.2330002175586,,response,,,,100,,,,,,,Space,keypress(Space),,,,,,,,-- --- ---- --- ------ ----- ------- ---- -- --- ------- --<br>------- ---------- ------ -- ----- in ----- -- ---- ------<br>--- ----- --- --- ------ -------- ----- --- ------ ----- --<br>----- ----- ---------- --- --- ------ ------ ---- -- ------<br>------- --- ------ ----- --- ---- ------- -- ---- --- --<br>------- ------,209616.5950000286,209616.10000021756,208627.133,208635.35000011325,208643.867,209626.271,,17,in
screen,html.Screen,1_1_1_1_18,2021-04-23T10:35:52.568Z,,,,,,,,,,,,,,,,54,,,,,,,,,,,,,,306.75400015123887,,response,,,,100,,,,,,,Space,keypress(Space),,,,,,,,-- --- ---- --- ------ ----- ------- ---- -- --- ------- --<br>------- ---------- ------ -- ----- -- order -- ---- ------<br>--- ----- --- --- ------ -------- ----- --- ------ ----- --<br>----- ----- ---------- --- --- ------ ------ ---- -- ------<br>------- --- ------ ----- --- ---- ------- -- ---- --- --<br>------- ------,209933.5799999535,209933.02500015125,209609.597,209616.71500001103,209626.271,209942.668,,18,order
screen,html.Screen,1_1_1_1_19,2021-04-23T10:35:52.838Z,,,,,,,,,,,,,,,,54,,,,,,,,,,,,,,260.4320000424632,,response,,,,100,,,,,,,Space,keypress(Space),,,,,,,,-- --- ---- --- ------ ----- ------- ---- -- --- ------- --<br>------- ---------- ------ -- ----- -- ----- to ---- ------<br>--- ----- --- --- ------ -------- ----- --- ------ ----- --<br>----- ----- ---------- --- --- ------ ------ ---- -- ------<br>------- --- ------ ----- --- ---- ------- -- ---- --- --<br>------- ------,210203.73499998823,210203.10000004247,209925.973,209933.7400002405,209942.668,210209.039,,19,to
screen,html.Screen,1_1_1_1_20,2021-04-23T10:35:53.108Z,,,,,,,,,,,,,,,,54,,,,,,,,,,,,,,263.54099982685875,,response,,,,100,,,,,,,Space,keypress(Space),,,,,,,,-- --- ---- --- ------ ----- ------- ---- -- --- ------- --<br>------- ---------- ------ -- ----- -- ----- -- save ------<br>--- ----- --- --- ------ -------- ----- --- ------ ----- --<br>----- ----- ---------- --- --- ------ ------ ---- -- ------<br>------- --- ------ ----- --- ---- ------- -- ---- --- --<br>------- ------,210473.1749999337,210472.57999982685,210192.419,210203.81500013173,210209.039,210475.46,,20,save
screen,html.Screen,1_1_1_1_21,2021-04-23T10:35:53.523Z,,,,,,,,,,,,,,,,54,,,,,,,,,,,,,,412.9099998259626,,response,,,,100,,,,,,,Space,keypress(Space),,,,,,,,"-- --- ---- --- ------ ----- ------- ---- -- --- ------- --<br>------- ---------- ------ -- ----- -- ----- -- ---- money,<br>--- ----- --- --- ------ -------- ----- --- ------ ----- --<br>----- ----- ---------- --- --- ------ ------ ---- -- ------<br>------- --- ------ ----- --- ---- ------- -- ---- --- --<br>------- ------",210888.74500012025,210888.36999982595,210458.793,210473.300000187,210475.46,210891.799,,21,"money,"
screen,html.Screen,1_1_1_1_22,2021-04-23T10:35:53.919Z,,,,,,,,,,,,,,,,54,,,,,,,,,,,,,,392.34100011980627,,response,,,,100,,,,,,,Space,keypress(Space),,,,,,,,-- --- ---- --- ------ ----- ------- ---- -- --- ------- --<br>------- ---------- ------ -- ----- -- ----- -- ---- ------<br>the ----- --- --- ------ -------- ----- --- ------ ----- --<br>----- ----- ---------- --- --- ------ ------ ---- -- ------<br>------- --- ------ ----- --- ---- ------- -- ---- --- --<br>------- ------,211284.81499990448,211284.1400001198,210875.124,210888.8150001876,210891.799,211291.384,,22,the
screen,html.Screen,1_1_1_1_23,2021-04-23T10:35:54.265Z,,,,,,,,,,,,,,,,54,,,,,,,,,,,,,,338.7709999043436,,response,,,,100,,,,,,,Space,keypress(Space),,,,,,,,-- --- ---- --- ------ ----- ------- ---- -- --- ------- --<br>------- ---------- ------ -- ----- -- ----- -- ---- ------<br>--- state --- --- ------ -------- ----- --- ------ ----- --<br>----- ----- ---------- --- --- ------ ------ ---- -- ------<br>------- --- ------ ----- --- ---- ------- -- ---- --- --<br>------- ------,211630.65000018105,211630.15499990433,211274.715,211284.97999999672,211291.384,211641.05,,23,state
screen,html.Screen,1_1_1_1_24,2021-04-23T10:35:54.620Z,,,,,,,,,,,,,,,,54,,,,,,,,,,,,,,344.0099998608348,,response,,,,100,,,,,,,Space,keypress(Space),,,,,,,,-- --- ---- --- ------ ----- ------- ---- -- --- ------- --<br>------- ---------- ------ -- ----- -- ----- -- ---- ------<br>--- ----- cut --- ------ -------- ----- --- ------ ----- --<br>----- ----- ---------- --- --- ------ ------ ---- -- ------<br>------- --- ------ ----- --- ---- ------- -- ---- --- --<br>------- ------,211985.57000001892,211985.05999986082,211624.376,211630.76499989256,211641.05,211990.862,,24,cut
screen,html.Screen,1_1_1_1_25,2021-04-23T10:35:54.996Z,,,,,,,,,,,,,,,,54,,,,,,,,,,,,,,369.87300011116895,,response,,,,100,,,,,,,Space,keypress(Space),,,,,,,,-- --- ---- --- ------ ----- ------- ---- -- --- ------- --<br>------- ---------- ------ -- ----- -- ----- -- ---- ------<br>--- ----- --- the ------ -------- ----- --- ------ ----- --<br>----- ----- ---------- --- --- ------ ------ ---- -- ------<br>------- --- ------ ----- --- ---- ------- -- ---- --- --<br>------- ------,212361.20499996468,212360.73500011116,211974.05,211985.69499980658,211990.862,212373.676,,25,the
screen,html.Screen,1_1_1_1_26,2021-04-23T10:35:55.346Z,,,,,,,,,,,,,,,,54,,,,,,,,,,,,,,337.2839998220734,,response,,,,100,,,,,,,Space,keypress(Space),,,,,,,,-- --- ---- --- ------ ----- ------- ---- -- --- ------- --<br>------- ---------- ------ -- ----- -- ----- -- ---- ------<br>--- ----- --- --- bonds' -------- ----- --- ------ ----- --<br>----- ----- ---------- --- --- ------ ------ ---- -- ------<br>------- --- ------ ----- --- ---- ------- -- ---- --- --<br>------- ------,212711.3800002262,212710.95999982208,212357.049,212361.35500017554,212373.676,212723.392,,26,bonds'
screen,html.Screen,1_1_1_1_27,2021-04-23T10:35:55.742Z,,,,,,,,,,,,,,,,54,,,,,,,,,,,,,,384.0129999006167,,response,,,,100,,,,,,,Space,keypress(Space),,,,,,,,-- --- ---- --- ------ ----- ------- ---- -- --- ------- --<br>------- ---------- ------ -- ----- -- ----- -- ---- ------<br>--- ----- --- --- ------ interest ----- --- ------ ----- --<br>----- ----- ---------- --- --- ------ ------ ---- -- ------<br>------- --- ------ ----- --- ---- ------- -- ---- --- --<br>------- ------,213107.95499989763,213107.4049999006,212706.704,212711.5099998191,212723.392,213123.022,,27,interest
screen,html.Screen,1_1_1_1_28,2021-04-23T10:35:56.118Z,,,,,,,,,,,,,,,,54,,,,,,,,,,,,,,359.52300003531855,,response,,,,100,,,,,,,Space,keypress(Space),,,,,,,,-- --- ---- --- ------ ----- ------- ---- -- --- ------- --<br>------- ---------- ------ -- ----- -- ----- -- ---- ------<br>--- ----- --- --- ------ -------- rate. --- ------ ----- --<br>----- ----- ---------- --- --- ------ ------ ---- -- ------<br>------- --- ------ ----- --- ---- ------- -- ---- --- --<br>------- ------,213483.17999998108,213482.54500003532,213106.281,213108.11999998987,213123.022,213489.31,,28,rate.
screen,html.Screen,1_1_1_1_29,2021-04-23T10:35:56.708Z,,,,,,,,,,,,,,,,54,,,,,,,,,,,,,,583.9600000517094,,response,,,,100,,,,,,,Space,keypress(Space),,,,,,,,-- --- ---- --- ------ ----- ------- ---- -- --- ------- --<br>------- ---------- ------ -- ----- -- ----- -- ---- ------<br>--- ----- --- --- ------ -------- ----- The ------ ----- --<br>----- ----- ---------- --- --- ------ ------ ---- -- ------<br>------- --- ------ ----- --- ---- ------- -- ---- --- --<br>------- ------,214073.8750002347,214073.2700000517,213472.671,213483.3399998024,213489.31,214088.766,,29,The
screen,html.Screen,1_1_1_1_30,2021-04-23T10:35:57.440Z,,,,,,,,,,,,,,,,54,,,,,,,,,,,,,,716.383999912825,,response,,,,100,,,,,,,Space,keypress(Space),,,,,,,,-- --- ---- --- ------ ----- ------- ---- -- --- ------- --<br>------- ---------- ------ -- ----- -- ----- -- ---- ------<br>--- ----- --- --- ------ -------- ----- --- market ----- --<br>----- ----- ---------- --- --- ------ ------ ---- -- ------<br>------- --- ------ ----- --- ---- ------- -- ---- --- --<br>------- ------,214805.48499990255,214805.14999991283,214072.106,214074.04999993742,214088.766,214821.367,,30,market
screen,html.Screen,1_1_1_1_31,2021-04-23T10:35:57.822Z,,,,,,,,,,,,,,,,54,,,,,,,,,,,,,,365.02800020072027,,response,,,,100,,,,,,,Space,keypress(Space),,,,,,,,-- --- ---- --- ------ ----- ------- ---- -- --- ------- --<br>------- ---------- ------ -- ----- -- ----- -- ---- ------<br>--- ----- --- --- ------ -------- ----- --- ------ value --<br>----- ----- ---------- --- --- ------ ------ ---- -- ------<br>------- --- ------ ----- --- ---- ------- -- ---- --- --<br>------- ------,215187.1350002475,215186.39500020072,214804.767,214805.5549999699,214821.367,215204.368,,31,value
screen,html.Screen,1_1_1_1_32,2021-04-23T10:35:58.161Z,,,,,,,,,,,,,,,,54,,,,,,,,,,,,,,321.26200004739803,,response,,,,100,,,,,,,Space,keypress(Space),,,,,,,,-- --- ---- --- ------ ----- ------- ---- -- --- ------- --<br>------- ---------- ------ -- ----- -- ----- -- ---- ------<br>--- ----- --- --- ------ -------- ----- --- ------ ----- of<br>----- ----- ---------- --- --- ------ ------ ---- -- ------<br>------- --- ------ ----- --- ---- ------- -- ---- --- --<br>------- ------,215526.08500001952,215525.6300000474,215187.756,215187.305000145,215204.368,215537.399,,32,of
screen,html.Screen,1_1_1_1_33,2021-04-23T10:35:58.542Z,,,,,,,,,,,,,,,,54,,,,,,,,,,,,,,369.78599990179646,,response,,,,100,,,,,,,Space,keypress(Space),,,,,,,,-- --- ---- --- ------ ----- ------- ---- -- --- ------- --<br>------- ---------- ------ -- ----- -- ----- -- ---- ------<br>--- ----- --- --- ------ -------- ----- --- ------ ----- --<br>these ----- ---------- --- --- ------ ------ ---- -- ------<br>------- --- ------ ----- --- ---- ------- -- ---- --- --<br>------- ------,215907.7099999413,215907.1849999018,215520.771,215526.2000001967,215537.399,215920.382,,33,these
screen,html.Screen,1_1_1_1_34,2021-04-23T10:35:59.008Z,,,,,,,,,,,,,,,,54,,,,,,,,,,,,,,452.3680000968452,,response,,,,100,,,,,,,Space,keypress(Space),,,,,,,,-- --- ---- --- ------ ----- ------- ---- -- --- ------- --<br>------- ---------- ------ -- ----- -- ----- -- ---- ------<br>--- ----- --- --- ------ -------- ----- --- ------ ----- --<br>----- bonds ---------- --- --- ------ ------ ---- -- ------<br>------- --- ------ ----- --- ---- ------- -- ---- --- --<br>------- ------,216373.37000016123,216372.75000009686,215903.739,215907.850000076,215920.382,216386.636,,34,bonds
screen,html.Screen,1_1_1_1_35,2021-04-23T10:35:59.579Z,,,,,,,,,,,,,,,,54,,,,,,,,,,,,,,557.004000186862,,response,,,,100,,,,,,,Space,keypress(Space),,,,,,,,"-- --- ---- --- ------ ----- ------- ---- -- --- ------- --<br>------- ---------- ------ -- ----- -- ----- -- ---- ------<br>--- ----- --- --- ------ -------- ----- --- ------ ----- --<br>----- ----- plummeted, --- --- ------ ------ ---- -- ------<br>------- --- ------ ----- --- ---- ------- -- ---- --- --<br>------- ------",216944.2300000228,216943.64000018686,216369.969,216373.5000002198,216386.636,216952.717,,35,"plummeted,"
screen,html.Screen,1_1_1_1_36,2021-04-23T10:36:00.009Z,,,,,,,,,,,,,,,,54,,,,,,,,,,,,,,421.4479999283212,,response,,,,100,,,,,,,Space,keypress(Space),,,,,,,,-- --- ---- --- ------ ----- ------- ---- -- --- ------- --<br>------- ---------- ------ -- ----- -- ----- -- ---- ------<br>--- ----- --- --- ------ -------- ----- --- ------ ----- --<br>----- ----- ---------- and --- ------ ------ ---- -- ------<br>------- --- ------ ----- --- ---- ------- -- ---- --- --<br>------- ------,217374.89000009373,217374.16499992833,216936.112,216944.4300001487,216952.717,217385.706,,36,and
screen,html.Screen,1_1_1_1_37,2021-04-23T10:36:00.385Z,,,,,,,,,,,,,,,,54,,,,,,,,,,,,,,363.7390001977328,,response,,,,100,,,,,,,Space,keypress(Space),,,,,,,,-- --- ---- --- ------ ----- ------- ---- -- --- ------- --<br>------- ---------- ------ -- ----- -- ----- -- ---- ------<br>--- ----- --- --- ------ -------- ----- --- ------ ----- --<br>----- ----- ---------- --- the ------ ------ ---- -- ------<br>------- --- ------ ----- --- ---- ------- -- ---- --- --<br>------- ------,217750.08499994874,217749.44500019774,217369.012,217375.09999983013,217385.706,217752.003,,37,the
screen,html.Screen,1_1_1_1_38,2021-04-23T10:36:00.756Z,,,,,,,,,,,,,,,,54,,,,,,,,,,,,,,369.291999960813,,response,,,,100,,,,,,,Space,keypress(Space),,,,,,,,-- --- ---- --- ------ ----- ------- ---- -- --- ------- --<br>------- ---------- ------ -- ----- -- ----- -- ---- ------<br>--- ----- --- --- ------ -------- ----- --- ------ ----- --<br>----- ----- ---------- --- --- market ------ ---- -- ------<br>------- --- ------ ----- --- ---- ------- -- ---- --- --<br>------- ------,218121.8400001526,218121.2949999608,217735.356,217750.24500023574,217752.003,218134.973,,38,market
screen,html.Screen,1_1_1_1_39,2021-04-23T10:36:01.132Z,,,,,,,,,,,,,,,,54,,,,,,,,,,,,,,362.06200000760145,,response,,,,100,,,,,,,Space,keypress(Space),,,,,,,,-- --- ---- --- ------ ----- ------- ---- -- --- ------- --<br>------- ---------- ------ -- ----- -- ----- -- ---- ------<br>--- ----- --- --- ------ -------- ----- --- ------ ----- --<br>----- ----- ---------- --- --- ------ became ---- -- ------<br>------- --- ------ ----- --- ---- ------- -- ---- --- --<br>------- ------,218497.64999980107,218497.0350000076,218118.34,218121.98500009254,218134.973,218501.287,,39,became
screen,html.Screen,1_1_1_1_40,2021-04-23T10:36:01.482Z,,,,,,,,,,,,,,,,54,,,,,,,,,,,,,,346.0930001665838,,response,,,,100,,,,,,,Space,keypress(Space),,,,,,,,-- --- ---- --- ------ ----- ------- ---- -- --- ------- --<br>------- ---------- ------ -- ----- -- ----- -- ---- ------<br>--- ----- --- --- ------ -------- ----- --- ------ ----- --<br>----- ----- ---------- --- --- ------ ------ wary -- ------<br>------- --- ------ ----- --- ---- ------- -- ---- --- --<br>------- ------,218847.92000008747,218847.3800001666,218484.588,218497.81000008807,218501.287,218867.622,,40,wary
screen,html.Screen,1_1_1_1_41,2021-04-23T10:36:01.812Z,,,,,,,,,,,,,,,,54,,,,,,,,,,,,,,309.27300004052813,,response,,,,100,,,,,,,Space,keypress(Space),,,,,,,,-- --- ---- --- ------ ----- ------- ---- -- --- ------- --<br>------- ---------- ------ -- ----- -- ----- -- ---- ------<br>--- ----- --- --- ------ -------- ----- --- ------ ----- --<br>----- ----- ---------- --- --- ------ ------ ---- of ------<br>------- --- ------ ----- --- ---- ------- -- ---- --- --<br>------- ------,219177.50500002876,219176.89500004053,218834.314,218848.0850001797,218867.622,219183.977,,41,of
screen,html.Screen,1_1_1_1_42,2021-04-23T10:36:02.278Z,,,,,,,,,,,,,,,,54,,,,,,,,,,,,,,458.6030002179905,,response,,,,100,,,,,,,Space,keypress(Space),,,,,,,,-- --- ---- --- ------ ----- ------- ---- -- --- ------- --<br>------- ---------- ------ -- ----- -- ----- -- ---- ------<br>--- ----- --- --- ------ -------- ----- --- ------ ----- --<br>----- ----- ---------- --- --- ------ ------ ---- -- French<br>------- --- ------ ----- --- ---- ------- -- ---- --- --<br>------- ------,219643.17499985918,219642.580000218,219167.357,219177.68999980763,219183.977,219650.187,,42,French
screen,html.Screen,1_1_1_1_43,2021-04-23T10:36:02.639Z,,,,,,,,,,,,,,,,54,,,,,,,,,,,,,,353.39800005676807,,response,,,,100,,,,,,,Space,keypress(Space),,,,,,,,-- --- ---- --- ------ ----- ------- ---- -- --- ------- --<br>------- ---------- ------ -- ----- -- ----- -- ---- ------<br>--- ----- --- --- ------ -------- ----- --- ------ ----- --<br>----- ----- ---------- --- --- ------ ------ ---- -- ------<br>credit. --- ------ ----- --- ---- ------- -- ---- --- --<br>------- ------,220004.31000022218,220003.58500005677,219633.585,219643.32500007004,219650.187,220016.56,,43,credit.
screen,html.Screen,1_1_1_1_44,2021-04-23T10:36:03.099Z,,,,,,,,,,,,,,,,54,,,,,,,,,,,,,,447.49499987304443,,response,,,,100,,,,,,,Space,keypress(Space),,,,,,,,-- --- ---- --- ------ ----- ------- ---- -- --- ------- --<br>------- ---------- ------ -- ----- -- ----- -- ---- ------<br>--- ----- --- --- ------ -------- ----- --- ------ ----- --<br>----- ----- ---------- --- --- ------ ------ ---- -- ------<br>------- The ------ ----- --- ---- ------- -- ---- --- --<br>------- ------,220464.56999983639,220464.05499987304,219999.902,220004.43999981508,220016.56,220466.093,,44,The
screen,html.Screen,1_1_1_1_45,2021-04-23T10:36:03.480Z,,,,,,,,,,,,,,,,54,,,,,,,,,,,,,,378.3470001317328,,response,,,,100,,,,,,,Space,keypress(Space),,,,,,,,-- --- ---- --- ------ ----- ------- ---- -- --- ------- --<br>------- ---------- ------ -- ----- -- ----- -- ---- ------<br>--- ----- --- --- ------ -------- ----- --- ------ ----- --<br>----- ----- ---------- --- --- ------ ------ ---- -- ------<br>------- --- French ----- --- ---- ------- -- ---- --- --<br>------- ------,220845.12499999255,220844.44000013173,220449.508,220464.6950000897,220466.093,220849.091,,45,French
screen,html.Screen,1_1_1_1_46,2021-04-23T10:36:03.810Z,,,,,,,,,,,,,,,,54,,,,,,,,,,,,,,325.81400025452604,,response,,,,100,,,,,,,Space,keypress(Space),,,,,,,,-- --- ---- --- ------ ----- ------- ---- -- --- ------- --<br>------- ---------- ------ -- ----- -- ----- -- ---- ------<br>--- ----- --- --- ------ -------- ----- --- ------ ----- --<br>----- ----- ---------- --- --- ------ ------ ---- -- ------<br>------- --- ------ state --- ---- ------- -- ---- --- --<br>------- ------,221175.61500007287,221174.9050002545,220832.467,220845.29499989003,220849.091,221182.3,,46,state
screen,html.Screen,1_1_1_1_47,2021-04-23T10:36:04.587Z,,,,,,,,,,,,,,,,54,,,,,,,,,,,,,,770.0999998346088,,response,,,,100,,,,,,,Space,keypress(Space),,,,,,,,-- --- ---- --- ------ ----- ------- ---- -- --- ------- --<br>------- ---------- ------ -- ----- -- ----- -- ---- ------<br>--- ----- --- --- ------ -------- ----- --- ------ ----- --<br>----- ----- ---------- --- --- ------ ------ ---- -- ------<br>------- --- ------ ----- was ---- ------- -- ---- --- --<br>------- ------,221952.91499979794,221952.3999998346,221165.468,221175.85000023246,221182.3,221964.725,,47,was
screen,html.Screen,1_1_1_1_48,2021-04-23T10:36:04.927Z,,,,,,,,,,,,,,,,54,,,,,,,,,,,,,,327.0349999345781,,response,,,,100,,,,,,,Space,keypress(Space),,,,,,,,-- --- ---- --- ------ ----- ------- ---- -- --- ------- --<br>------- ---------- ------ -- ----- -- ----- -- ---- ------<br>--- ----- --- --- ------ -------- ----- --- ------ ----- --<br>----- ----- ---------- --- --- ------ ------ ---- -- ------<br>------- --- ------ ----- --- left ------- -- ---- --- --<br>------- ------,222292.35500004143,222291.75999993458,221948.085,221952.9849998653,221964.725,222297.81,,48,left
screen,html.Screen,1_1_1_1_49,2021-04-23T10:36:05.303Z,,,,,,,,,,,,,,,,54,,,,,,,,,,,,,,369.780000201019,,response,,,,100,,,,,,,Space,keypress(Space),,,,,,,,-- --- ---- --- ------ ----- ------- ---- -- --- ------- --<br>------- ---------- ------ -- ----- -- ----- -- ---- ------<br>--- ----- --- --- ------ -------- ----- --- ------ ----- --<br>----- ----- ---------- --- --- ------ ------ ---- -- ------<br>------- --- ------ ----- --- ---- without -- ---- --- --<br>------- ------,222668.25499990955,222667.59000020102,222281.109,222292.5300002098,222297.81,222680.748,,49,without
screen,html.Screen,1_1_1_1_50,2021-04-23T10:36:05.633Z,,,,,,,,,,,,,,,,54,,,,,,,,,,,,,,316.66700010714703,,response,,,,100,,,,,,,Space,keypress(Space),,,,,,,,-- --- ---- --- ------ ----- ------- ---- -- --- ------- --<br>------- ---------- ------ -- ----- -- ----- -- ---- ------<br>--- ----- --- --- ------ -------- ----- --- ------ ----- --<br>----- ----- ---------- --- --- ------ ------ ---- -- ------<br>------- --- ------ ----- --- ---- ------- an ---- --- --<br>------- ------,222998.01000021398,222997.41500010714,222664.055,222668.4200000018,222680.748,223013.73,,50,an
screen,html.Screen,1_1_1_1_51,2021-04-23T10:36:05.979Z,,,,,,,,,,,,,,,,54,,,,,,,,,,,,,,329.7900001113012,,response,,,,100,,,,,,,Space,keypress(Space),,,,,,,,-- --- ---- --- ------ ----- ------- ---- -- --- ------- --<br>------- ---------- ------ -- ----- -- ----- -- ---- ------<br>--- ----- --- --- ------ -------- ----- --- ------ ----- --<br>----- ----- ---------- --- --- ------ ------ ---- -- ------<br>------- --- ------ ----- --- ---- ------- -- easy --- --<br>------- ------,223344.194999896,223343.5200001113,222997.101,222998.17000003532,223013.73,223346.765,,51,easy
screen,html.Screen,1_1_1_1_52,2021-04-23T10:36:06.370Z,,,,,,,,,,,,,,,,54,,,,,,,,,,,,,,388.1350000394741,,response,,,,100,,,,,,,Space,keypress(Space),,,,,,,,-- --- ---- --- ------ ----- ------- ---- -- --- ------- --<br>------- ---------- ------ -- ----- -- ----- -- ---- ------<br>--- ----- --- --- ------ -------- ----- --- ------ ----- --<br>----- ----- ---------- --- --- ------ ------ ---- -- ------<br>------- --- ------ ----- --- ---- ------- -- ---- way --<br>------- ------,223735.41999980807,223734.9000000395,223330.097,223344.3950000219,223346.765,223746.409,,52,way
screen,html.Screen,1_1_1_1_53,2021-04-23T10:36:06.776Z,,,,,,,,,,,,,,,,54,,,,,,,,,,,,,,393.9610001537658,,response,,,,100,,,,,,,Space,keypress(Space),,,,,,,,-- --- ---- --- ------ ----- ------- ---- -- --- ------- --<br>------- ---------- ------ -- ----- -- ----- -- ---- ------<br>--- ----- --- --- ------ -------- ----- --- ------ ----- --<br>----- ----- ---------- --- --- ------ ------ ---- -- ------<br>------- --- ------ ----- --- ---- ------- -- ---- --- of<br>------- ------,224141.11000020057,224140.37000015378,223729.738,223735.49999995157,223746.409,224146.117,,53,of
screen,html.Screen,1_1_1_1_54,2021-04-23T10:36:07.135Z,,,,,,,,,,,,,,,,54,,,,,,,,,,,,,,354.0680002445297,,response,,,,100,,,,,,,Space,keypress(Space),,,,,,,,-- --- ---- --- ------ ----- ------- ---- -- --- ------- --<br>------- ---------- ------ -- ----- -- ----- -- ---- ------<br>--- ----- --- --- ------ -------- ----- --- ------ ----- --<br>----- ----- ---------- --- --- ------ ------ ---- -- ------<br>------- --- ------ ----- --- ---- ------- -- ---- --- --<br>raising ------,224500.82499999553,224500.18500024453,224129.391,224141.30500005558,224146.117,224512.388,,54,raising
screen,html.Screen,1_1_1_1_55,2021-04-23T10:36:07.787Z,,,,,,,,,,,,,,,,54,,,,,,,,,,,,,,639.0870001951989,,response,,,,100,,,,,,,Space,keypress(Space),,,,,,,,-- --- ---- --- ------ ----- ------- ---- -- --- ------- --<br>------- ---------- ------ -- ----- -- ----- -- ---- ------<br>--- ----- --- --- ------ -------- ----- --- ------ ----- --<br>----- ----- ---------- --- --- ------ ------ ---- -- ------<br>------- --- ------ ----- --- ---- ------- -- ---- --- --<br>------- money.,225151.9949999638,225151.4750001952,224495.701,224500.98499981686,224512.388,225161.719,,55,money.
Item 100,flow.Loop,1_1_1_1,2021-04-23T10:36:07.787Z,,,,,,,,,,,,,,,,,,,,,,,,,,,,,,26298.359000195196,,completion,,,,,D,,,,,,,,,,,silence,,,,,225152.24500000477,225151.4750001952,198836.385,198837.31999993324,198853.116,225161.719,,,
Question 1,html.Screen,1_1_1_2,2021-04-23T10:36:11.067Z,,,,,,,,,,,,,,,,,,,,,,,,,,,true,TRUE,,3269.8510000151873,,response,,,,100,D,,,,,,TRUE,click #choice-1,,,,silence,,,,,228432.54500022158,228431.5700000152,225145.092,225152.3500001058,225161.719,228442.009,,,
Question 2,html.Screen,1_1_1_3,2021-04-23T10:36:13.222Z,,,,,,,,,,,,,,,,,,,,,,,,,,,true,FALSE,,2144.2009998630674,,response,,,,100,D,,,,,,FALSE,click #choice-2,,,,silence,,,,,230587.00999990106,230586.20999986306,228425.376,228432.70999984816,228442.009,230589.948,,,
Item 100,flow.Sequence,1_1_1,2021-04-23T10:36:13.222Z,,,,,,,,,,,,,,,,,,,,,,,,,,,,,,41740.44999986305,,completion,,,,,,,,,,,,,,,,,,,,,230587.2949999757,230586.20999986306,188829.084,188830.76999988407,188845.76,230589.948,,,
End of Practice,html.Page,1_1_2,2021-04-23T10:36:17.904Z,,,,,,,,,,,,,,,,,,,,,,,,,,,,,,4679.247000175383,,form submission,,,,,,,,,,,,,,,,,,,,,235269.49500013143,235269.1950001754,230573.361,230587.39499980584,230589.948,235285.631,,,
Practice,flow.Sequence,1_1,2021-04-23T10:36:17.904Z,,,,,,,,,,,,,,,,,,,,,,,,,,,,,,99840.18700017539,,completion,,,,,,,,,,,,,,,,,,,,,235269.77499993518,235269.1950001754,135412.348,135420.82000011578,135429.008,235285.631,,,
Trap_instruction,html.Page,1_2_0,2021-04-23T10:36:21.402Z,,,,,,,,,,,,,,,,,,,,,,,,,,,,,,3481.333999958879,,form submission,,,,,,,,,,,,,,,,,,,,,238767.23999995738,238766.96499995887,235252.477,235269.94499983266,235285.631,238782.306,,,
trap_trial,html.Screen,1_2_1,2021-04-23T10:36:27.905Z,,,,,,,,,,,,,,,,,,,,,,,,,,,true,1,,6487.243999851722,,response,,,,,,,,,,,1,click #choice-1,,,,,,,,,245270.40999988094,245269.54999985173,238765.644,238767.45499996468,238782.306,245276.265,,,
end of trap trial,html.Page,1_2_2,2021-04-23T10:36:29.816Z,,,,,,,,,,,,,,,,,,,,,,,,,,,,,,1904.8500000430504,,form submission,,,,,,,,,,,,,,,,,,,,,247181.34499993175,247181.11500004306,245259.629,245270.55000001565,245276.265,247191.201,,,
Trap 1,flow.Sequence,1_2,2021-04-23T10:36:29.816Z,,,,,,,,,,,,,,,,,,,,,,,,,,,,,,11895.48400004307,,completion,,,,,,,,,,,,,,,,,,,,,247181.54500005767,247181.11500004306,235252.477,235269.89000011235,235285.631,247191.201,,,
Standby,html.Page,1_3_0,2021-04-23T10:36:37.802Z,,,,,,,,,,,,,,,,,,,,,,,,,,,,,,7992.456000000006,,timeout,,,,,,,,,,,,,,,,,,,,,255167.80500020832,255167.017,247174.5,247181.70000007376,247191.201,255183.657,,,
Holding screen,html.Screen,1_3_1_0_0,2021-04-23T10:36:44.796Z,,,,,,,,,,,,,,,,,,,,,,,,,,,,,,6993.425999999978,,timeout,,,,,,,,,,,,,,,,,,,,,262161.1199998297,262160.423,255167.017,255168.07499993593,255183.657,262177.083,,,
screen,html.Screen,1_3_1_0_1_0,2021-04-23T10:36:46.750Z,,,,,,,,,,,,,,,,48,,,,,,,,,,,,,,1937.8120001225034,,response,,,,10,D,,,,,,Space,keypress(Space),,,,silence,,,,As -- --- ------ ------- --------- ----------- --------<br>--------- -------- --- ------- -- ------- ---- -- ------<br>-- --- -------- -------- ---------- ---- ---- ---- ------<br>-- --------- -- ---- -- --- -- --- ------- -- - -----<br>---------- -- -- -- ---- ----- -- ------ -- --- ------<br>-------,264115.6350001693,264114.8950001225,262160.423,262161.3549999893,262177.083,264125.316,,0,As
screen,html.Screen,1_3_1_0_1_1,2021-04-23T10:36:47.741Z,,,,,,,,,,,,,,,,48,,,,,,,,,,,,,,980.9289999153698,,response,,,,10,D,,,,,,Space,keypress(Space),,,,silence,,,,-- in --- ------ ------- --------- ----------- --------<br>--------- -------- --- ------- -- ------- ---- -- ------<br>-- --- -------- -------- ---------- ---- ---- ---- ------<br>-- --------- -- ---- -- --- -- --- ------- -- - -----<br>---------- -- -- -- ---- ----- -- ------ -- --- ------<br>-------,265106.8199998699,265106.24499991536,264108.63,264115.8000002615,264125.316,265129.164,,1,in
screen,html.Screen,1_3_1_0_1_2,2021-04-23T10:36:48.312Z,,,,,,,,,,,,,,,,48,,,,,,,,,,,,,,548.3160000712378,,response,,,,10,D,,,,,,Space,keypress(Space),,,,silence,,,,-- -- the ------ ------- --------- ----------- --------<br>--------- -------- --- ------- -- ------- ---- -- ------<br>-- --- -------- -------- ---------- ---- ---- ---- ------<br>-- --------- -- ---- -- --- -- --- ------- -- - -----<br>---------- -- -- -- ---- ----- -- ------ -- --- ------<br>-------,265678.20500023663,265677.4800000712,265091.058,265106.9600000046,265129.164,265690.526,,2,the
screen,html.Screen,1_3_1_0_1_3,2021-04-23T10:36:48.968Z,,,,,,,,,,,,,,,,48,,,,,,,,,,,,,,642.93900014885,,response,,,,10,D,,,,,,Space,keypress(Space),,,,silence,,,,-- -- --- United ------- --------- ----------- --------<br>--------- -------- --- ------- -- ------- ---- -- ------<br>-- --- -------- -------- ---------- ---- ---- ---- ------<br>-- --------- -- ---- -- --- -- --- ------- -- - -----<br>---------- -- -- -- ---- ----- -- ------ -- --- ------<br>-------,266334.1299998574,266333.46500014886,265673.862,265678.3699998632,265690.526,266339.921,,3,United
screen,html.Screen,1_3_1_0_1_4,2021-04-23T10:36:49.854Z,,,,,,,,,,,,,,,,48,,,,,,,,,,,,,,879.7840000541182,,response,,,,10,D,,,,,,Space,keypress(Space),,,,silence,,,,"-- -- --- ------ States, --------- ----------- --------<br>--------- -------- --- ------- -- ------- ---- -- ------<br>-- --- -------- -------- ---------- ---- ---- ---- ------<br>-- --------- -- ---- -- --- -- --- ------- -- - -----<br>---------- -- -- -- ---- ----- -- ------ -- --- ------<br>-------",267220.155000221,267219.7050000541,266323.25,266334.29499994963,266339.921,267222.353,,4,"States,"
screen,html.Screen,1_3_1_0_1_5,2021-04-23T10:36:50.430Z,,,,,,,,,,,,,,,,48,,,,,,,,,,,,,,573.3220001758309,,response,,,,10,D,,,,,,Space,keypress(Space),,,,silence,,,,-- -- --- ------ ------- Colombian ----------- --------<br>--------- -------- --- ------- -- ------- ---- -- ------<br>-- --- -------- -------- ---------- ---- ---- ---- ------<br>-- --------- -- ---- -- --- -- --- ------- -- - -----<br>---------- -- -- -- ---- ----- -- ------ -- --- ------<br>-------,267796.15999991074,267795.67500017583,267205.74,267220.26500012726,267222.353,267805.205,,5,Colombian
screen,html.Screen,1_3_1_0_1_6,2021-04-23T10:36:51.487Z,,,,,,,,,,,,,,,,48,,,,,,,,,,,,,,1047.445000248088,,response,,,,10,D,,,,,,Space,keypress(Space),,,,silence,,,,-- -- --- ------ ------- --------- legislation --------<br>--------- -------- --- ------- -- ------- ---- -- ------<br>-- --- -------- -------- ---------- ---- ---- ---- ------<br>-- --------- -- ---- -- --- -- --- ------- -- - -----<br>---------- -- -- -- ---- ----- -- ------ -- --- ------<br>-------,268853.22500020266,268852.6500002481,267788.531,267796.2950002402,267805.205,268871.961,,6,legislation
screen,html.Screen,1_3_1_0_1_7,2021-04-23T10:36:52.112Z,,,,,,,,,,,,,,,,48,,,,,,,,,,,,,,606.3289999990957,,response,,,,10,D,,,,,,Space,keypress(Space),,,,silence,,,,-- -- --- ------ ------- --------- ----------- requires<br>--------- -------- --- ------- -- ------- ---- -- ------<br>-- --- -------- -------- ---------- ---- ---- ---- ------<br>-- --------- -- ---- -- --- -- --- ------- -- - -----<br>---------- -- -- -- ---- ----- -- ------ -- --- ------<br>-------,269478.6600000225,269478.2899999991,268837.493,268853.4050001763,268871.961,269486.934,,7,requires
screen,html.Screen,1_3_1_0_1_8,2021-04-23T10:36:52.769Z,,,,,,,,,,,,,,,,48,,,,,,,,,,,,,,647.7259999815142,,response,,,,10,D,,,,,,Space,keypress(Space),,,,silence,,,,-- -- --- ------ ------- --------- ----------- --------<br>travelers -------- --- ------- -- ------- ---- -- ------<br>-- --- -------- -------- ---------- ---- ---- ---- ------<br>-- --------- -- ---- -- --- -- --- ------- -- - -----<br>---------- -- -- -- ---- ----- -- ------ -- --- ------<br>-------,270135.11499995366,270134.6599999815,269470.269,269478.7349998951,269486.934,270158.145,,8,travelers
screen,html.Screen,1_3_1_0_1_9,2021-04-23T10:36:53.515Z,,,,,,,,,,,,,,,,48,,,,,,,,,,,,,,722.5650001722388,,response,,,,10,D,,,,,,Space,keypress(Space),,,,silence,,,,-- -- --- ------ ------- --------- ----------- --------<br>--------- entering --- ------- -- ------- ---- -- ------<br>-- --- -------- -------- ---------- ---- ---- ---- ------<br>-- --------- -- ---- -- --- -- --- ------- -- - -----<br>---------- -- -- -- ---- ----- -- ------ -- --- ------<br>-------,270881.3399998471,270880.71000017226,270119.688,270135.25500008836,270158.145,270885.635,,9,entering
screen,html.Screen,1_3_1_0_1_10,2021-04-23T10:36:53.932Z,,,,,,,,,,,,,,,,48,,,,,,,,,,,,,,411.8000000731554,,response,,,,10,D,,,,,,Space,keypress(Space),,,,silence,,,,-- -- --- ------ ------- --------- ----------- --------<br>--------- -------- the ------- -- ------- ---- -- ------<br>-- --- -------- -------- ---------- ---- ---- ---- ------<br>-- --------- -- ---- -- --- -- --- ------- -- - -----<br>---------- -- -- -- ---- ----- -- ------ -- --- ------<br>-------,271297.93999996036,271297.43500007316,270868.937,270881.5000001341,270885.635,271301.904,,10,the
screen,html.Screen,1_3_1_0_1_11,2021-04-23T10:36:54.570Z,,,,,,,,,,,,,,,,48,,,,,,,,,,,,,,634.2160002022283,,response,,,,10,D,,,,,,Space,keypress(Space),,,,silence,,,,-- -- --- ------ ------- --------- ----------- --------<br>--------- -------- --- country -- ------- ---- -- ------<br>-- --- -------- -------- ---------- ---- ---- ---- ------<br>-- --------- -- ---- -- --- -- --- ------- -- - -----<br>---------- -- -- -- ---- ----- -- ------ -- --- ------<br>-------,271936.6549998522,271936.1200002022,271285.263,271298.08000009507,271301.904,271951.311,,11,country
screen,html.Screen,1_3_1_0_1_12,2021-04-23T10:36:55.149Z,,,,,,,,,,,,,,,,48,,,,,,,,,,,,,,563.26900019194,,response,,,,10,D,,,,,,Space,keypress(Space),,,,silence,,,,-- -- --- ------ ------- --------- ----------- --------<br>--------- -------- --- ------- to ------- ---- -- ------<br>-- --- -------- -------- ---------- ---- ---- ---- ------<br>-- --------- -- ---- -- --- -- --- ------- -- - -----<br>---------- -- -- -- ---- ----- -- ------ -- --- ------<br>-------,272515.08999988437,272514.5800001919,271934.615,271936.8150001392,271951.311,272517.416,,12,to
screen,html.Screen,1_3_1_0_1_13,2021-04-23T10:36:55.634Z,,,,,,,,,,,,,,,,48,,,,,,,,,,,,,,482.5889998052153,,response,,,,10,D,,,,,,Space,keypress(Space),,,,silence,,,,-- -- --- ------ ------- --------- ----------- --------<br>--------- -------- --- ------- -- declare ---- -- ------<br>-- --- -------- -------- ---------- ---- ---- ---- ------<br>-- --------- -- ---- -- --- -- --- ------- -- - -----<br>---------- -- -- -- ---- ----- -- ------ -- --- ------<br>-------,273000.53500011563,273000.00499980524,272500.748,272515.2199999429,272517.416,273016.996,,13,declare
screen,html.Screen,1_3_1_0_1_14,2021-04-23T10:36:56.144Z,,,,,,,,,,,,,,,,48,,,,,,,,,,,,,,492.6090002612327,,response,,,,10,D,,,,,,Space,keypress(Space),,,,silence,,,,-- -- --- ------ ------- --------- ----------- --------<br>--------- -------- --- ------- -- ------- cash -- ------<br>-- --- -------- -------- ---------- ---- ---- ---- ------<br>-- --------- -- ---- -- --- -- --- ------- -- - -----<br>---------- -- -- -- ---- ----- -- ------ -- --- ------<br>-------,273509.96500020847,273509.6050002612,273000.323,273000.6599999033,273016.996,273516.458,,14,cash
screen,html.Screen,1_3_1_0_1_15,2021-04-23T10:36:56.574Z,,,,,,,,,,,,,,,,48,,,,,,,,,,,,,,422.8770002356032,,response,,,,10,D,,,,,,Space,keypress(Space),,,,silence,,,,-- -- --- ------ ------- --------- ----------- --------<br>--------- -------- --- ------- -- ------- ---- in ------<br>-- --- -------- -------- ---------- ---- ---- ---- ------<br>-- --------- -- ---- -- --- -- --- ------- -- - -----<br>---------- -- -- -- ---- ----- -- ------ -- --- ------<br>-------,273939.95000002906,273939.3350002356,273499.866,273510.03499981016,273516.458,273949.474,,15,in
screen,html.Screen,1_3_1_0_1_16,2021-04-23T10:36:57.237Z,,,,,,,,,,,,,,,,48,,,,,,,,,,,,,,653.5160000430769,,response,,,,10,D,,,,,,Space,keypress(Space),,,,silence,,,,-- -- --- ------ ------- --------- ----------- --------<br>--------- -------- --- ------- -- ------- ---- -- excess<br>-- --- -------- -------- ---------- ---- ---- ---- ------<br>-- --------- -- ---- -- --- -- --- ------- -- - -----<br>---------- -- -- -- ---- ----- -- ------ -- --- ------<br>-------,274603.58999995515,274602.99000004306,273932.749,273940.0800000876,273949.474,274615.5,,16,excess
screen,html.Screen,1_3_1_0_1_17,2021-04-23T10:36:57.668Z,,,,,,,,,,,,,,,,48,,,,,,,,,,,,,,417.7349999807775,,response,,,,10,D,,,,,,Space,keypress(Space),,,,silence,,,,-- -- --- ------ ------- --------- ----------- --------<br>--------- -------- --- ------- -- ------- ---- -- ------<br>of --- -------- -------- ---------- ---- ---- ---- ------<br>-- --------- -- ---- -- --- -- --- ------- -- - -----<br>---------- -- -- -- ---- ----- -- ------ -- --- ------<br>-------,275033.97500002757,275033.2349999808,274598.833,274603.7349998951,274615.5,275048.377,,17,of
screen,html.Screen,1_3_1_0_1_18,2021-04-23T10:36:58.118Z,,,,,,,,,,,,,,,,48,,,,,,,,,,,,,,434.85800016706344,,response,,,,10,D,,,,,,Space,keypress(Space),,,,silence,,,,-- -- --- ------ ------- --------- ----------- --------<br>--------- -------- --- ------- -- ------- ---- -- ------<br>-- ten -------- -------- ---------- ---- ---- ---- ------<br>-- --------- -- ---- -- --- -- --- ------- -- - -----<br>---------- -- -- -- ---- ----- -- ------ -- --- ------<br>-------,275483.8849999942,275483.23500016704,275031.765,275034.1349998489,275048.377,275497.994,,18,ten
screen,html.Screen,1_3_1_0_1_19,2021-04-23T10:36:58.709Z,,,,,,,,,,,,,,,,48,,,,,,,,,,,,,,576.3760000457405,,response,,,,10,D,,,,,,Space,keypress(Space),,,,silence,,,,-- -- --- ------ ------- --------- ----------- --------<br>--------- -------- --- ------- -- ------- ---- -- ------<br>-- --- thousand -------- ---------- ---- ---- ---- ------<br>-- --------- -- ---- -- --- -- --- ------- -- - -----<br>---------- -- -- -- ---- ----- -- ------ -- --- ------<br>-------,276075.09500021115,276074.37000004575,275481.337,275484.0449998155,275497.994,276080.834,,19,thousand
screen,html.Screen,1_3_1_0_1_20,2021-04-23T10:37:00.277Z,,,,,,,,,,,,,,,,48,,,,,,,,,,,,,,1561.6359998460975,,response,,,,10,D,,,,,,Space,keypress(Space),,,,silence,,,,-- -- --- ------ ------- --------- ----------- --------<br>--------- -------- --- ------- -- ------- ---- -- ------<br>-- --- -------- dollars. ---------- ---- ---- ---- ------<br>-- --------- -- ---- -- --- -- --- ------- -- - -----<br>---------- -- -- -- ---- ----- -- ------ -- --- ------<br>-------,277643.01500003785,277642.4699998461,276064.102,276075.2550000325,276080.834,277645.944,,20,dollars.
screen,html.Screen,1_3_1_0_1_21,2021-04-23T10:37:01.298Z,,,,,,,,,,,,,,,,48,,,,,,,,,,,,,,1017.395999970031,,response,,,,10,D,,,,,,Space,keypress(Space),,,,silence,,,,-- -- --- ------ ------- --------- ----------- --------<br>--------- -------- --- ------- -- ------- ---- -- ------<br>-- --- -------- -------- Concealing ---- ---- ---- ------<br>-- --------- -- ---- -- --- -- --- ------- -- - -----<br>---------- -- -- -- ---- ----- -- ------ -- --- ------<br>-------,278663.8600002043,278663.33999997005,277629.313,277643.1650002487,277645.944,278678.347,,21,Concealing
screen,html.Screen,1_3_1_0_1_22,2021-04-23T10:37:01.828Z,,,,,,,,,,,,,,,,48,,,,,,,,,,,,,,515.8129999554367,,response,,,,10,D,,,,,,Space,keypress(Space),,,,silence,,,,-- -- --- ------ ------- --------- ----------- --------<br>--------- -------- --- ------- -- ------- ---- -- ------<br>-- --- -------- -------- ---------- more ---- ---- ------<br>-- --------- -- ---- -- --- -- --- ------- -- - -----<br>---------- -- -- -- ---- ----- -- ------ -- --- ------<br>-------,279194.66499984264,279194.15999995545,278661.675,278663.9899997972,278678.347,279211.166,,22,more
screen,html.Screen,1_3_1_0_1_23,2021-04-23T10:37:02.194Z,,,,,,,,,,,,,,,,48,,,,,,,,,,,,,,348.64899981132476,,response,,,,10,D,,,,,,Space,keypress(Space),,,,silence,,,,-- -- --- ------ ------- --------- ----------- --------<br>--------- -------- --- ------- -- ------- ---- -- ------<br>-- --- -------- -------- ---------- ---- than ---- ------<br>-- --------- -- ---- -- --- -- --- ------- -- - -----<br>---------- -- -- -- ---- ----- -- ------ -- --- ------<br>-------,279560.2950002067,279559.81499981135,279194.498,279194.7750002146,279211.166,279594.14,,23,than
screen,html.Screen,1_3_1_0_1_24,2021-04-23T10:37:02.570Z,,,,,,,,,,,,,,,,48,,,,,,,,,,,,,,341.29499987571035,,response,,,,10,D,,,,,,Space,keypress(Space),,,,silence,,,,-- -- --- ------ ------- --------- ----------- --------<br>--------- -------- --- ------- -- ------- ---- -- ------<br>-- --- -------- -------- ---------- ---- ---- that ------<br>-- --------- -- ---- -- --- -- --- ------- -- - -----<br>---------- -- -- -- ---- ----- -- ------ -- --- ------<br>-------,279936.0950002447,279935.4349998757,279577.474,279560.4099999182,279594.14,279943.846,,24,that
screen,html.Screen,1_3_1_0_1_25,2021-04-23T10:37:03.091Z,,,,,,,,,,,,,,,,48,,,,,,,,,,,,,,512.3940002032323,,response,,,,10,D,,,,,,Space,keypress(Space),,,,silence,,,,-- -- --- ------ ------- --------- ----------- --------<br>--------- -------- --- ------- -- ------- ---- -- ------<br>-- --- -------- -------- ---------- ---- ---- ---- amount<br>-- --------- -- ---- -- --- -- --- ------- -- - -----<br>---------- -- -- -- ---- ----- -- ------ -- --- ------<br>-------,280456.8099998869,280456.24000020325,279927.153,279936.26500014216,279943.846,280460.006,,25,amount
screen,html.Screen,1_3_1_0_1_26,2021-04-23T10:37:03.586Z,,,,,,,,,,,,,,,,48,,,,,,,,,,,,,,492.0939998785616,,response,,,,10,D,,,,,,Space,keypress(Space),,,,silence,,,,-- -- --- ------ ------- --------- ----------- --------<br>--------- -------- --- ------- -- ------- ---- -- ------<br>-- --- -------- -------- ---------- ---- ---- ---- ------<br>to --------- -- ---- -- --- -- --- ------- -- - -----<br>---------- -- -- -- ---- ----- -- ------ -- --- ------<br>-------,280952.6550001465,280952.09999987856,280443.356,280457.0100000128,280460.006,280959.559,,26,to
screen,html.Screen,1_3_1_0_1_27,2021-04-23T10:37:04.053Z,,,,,,,,,,,,,,,,48,,,,,,,,,,,,,,458.9009998406982,,response,,,,10,D,,,,,,Space,keypress(Space),,,,silence,,,,-- -- --- ------ ------- --------- ----------- --------<br>--------- -------- --- ------- -- ------- ---- -- ------<br>-- --- -------- -------- ---------- ---- ---- ---- ------<br>-- transport -- ---- -- --- -- --- ------- -- - -----<br>---------- -- -- -- ---- ----- -- ------ -- --- ------<br>-------,281419.0250001848,281418.4599998407,280942.896,280952.8350001201,280959.559,281425.792,,27,transport
screen,html.Screen,1_3_1_0_1_28,2021-04-23T10:37:04.439Z,,,,,,,,,,,,,,,,48,,,,,,,,,,,,,,378.96800020278897,,response,,,,10,D,,,,,,Space,keypress(Space),,,,silence,,,,-- -- --- ------ ------- --------- ----------- --------<br>--------- -------- --- ------- -- ------- ---- -- ------<br>-- --- -------- -------- ---------- ---- ---- ---- ------<br>-- --------- it ---- -- --- -- --- ------- -- - -----<br>---------- -- -- -- ---- ----- -- ------ -- --- ------<br>-------,281805.2050000988,281804.7600002028,281409.08,281419.1600000486,281425.792,281808.725,,28,it
screen,html.Screen,1_3_1_0_1_29,2021-04-23T10:37:05.114Z,,,,,,,,,,,,,,,,48,,,,,,,,,,,,,,670.7300002552802,,response,,,,10,D,,,,,,Space,keypress(Space),,,,silence,,,,-- -- --- ------ ------- --------- ----------- --------<br>--------- -------- --- ------- -- ------- ---- -- ------<br>-- --- -------- -------- ---------- ---- ---- ---- ------<br>-- --------- -- into -- --- -- --- ------- -- - -----<br>---------- -- -- -- ---- ----- -- ------ -- --- ------<br>-------,282480.03500001505,282479.45500025526,281792.102,281805.3100001998,281808.725,282491.428,,29,into
screen,html.Screen,1_3_1_0_1_30,2021-04-23T10:37:05.569Z,,,,,,,,,,,,,,,,48,,,,,,,,,,,,,,443.72199980105506,,response,,,,10,D,,,,,,Space,keypress(Space),,,,silence,,,,-- -- --- ------ ------- --------- ----------- --------<br>--------- -------- --- ------- -- ------- ---- -- ------<br>-- --- -------- -------- ---------- ---- ---- ---- ------<br>-- --------- -- ---- or --- -- --- ------- -- - -----<br>---------- -- -- -- ---- ----- -- ------ -- --- ------<br>-------,282935.70999987423,282935.14999980107,282474.708,282480.2000001073,282491.428,282941.062,,30,or
screen,html.Screen,1_3_1_0_1_31,2021-04-23T10:37:06.030Z,,,,,,,,,,,,,,,,48,,,,,,,,,,,,,,454.89799987798324,,response,,,,10,D,,,,,,Space,keypress(Space),,,,silence,,,,-- -- --- ------ ------- --------- ----------- --------<br>--------- -------- --- ------- -- ------- ---- -- ------<br>-- --- -------- -------- ---------- ---- ---- ---- ------<br>-- --------- -- ---- -- out -- --- ------- -- - -----<br>---------- -- -- -- ---- ----- -- ------ -- --- ------<br>-------,283396.6800002381,283395.95999987796,282924.335,282935.8450002037,282941.062,283407.234,,31,out
screen,html.Screen,1_3_1_0_1_32,2021-04-23T10:37:06.416Z,,,,,,,,,,,,,,,,48,,,,,,,,,,,,,,374.51099981105654,,response,,,,10,D,,,,,,Space,keypress(Space),,,,silence,,,,-- -- --- ------ ------- --------- ----------- --------<br>--------- -------- --- ------- -- ------- ---- -- ------<br>-- --- -------- -------- ---------- ---- ---- ---- ------<br>-- --------- -- ---- -- --- of --- ------- -- - -----<br>---------- -- -- -- ---- ----- -- ------ -- --- ------<br>-------,283782.38999983296,283781.74499981105,283390.578,283396.8500001356,283407.234,283790.24,,32,of
screen,html.Screen,1_3_1_0_1_33,2021-04-23T10:37:06.807Z,,,,,,,,,,,,,,,,48,,,,,,,,,,,,,,381.92000007466413,,response,,,,10,D,,,,,,Space,keypress(Space),,,,silence,,,,-- -- --- ------ ------- --------- ----------- --------<br>--------- -------- --- ------- -- ------- ---- -- ------<br>-- --- -------- -------- ---------- ---- ---- ---- ------<br>-- --------- -- ---- -- --- -- the ------- -- - -----<br>---------- -- -- -- ---- ----- -- ------ -- --- ------<br>-------,284172.83499985933,284172.16000007465,283773.538,283782.54499984905,283790.24,284189.863,,33,the
screen,html.Screen,1_3_1_0_1_34,2021-04-23T10:37:07.262Z,,,,,,,,,,,,,,,,48,,,,,,,,,,,,,,438.1619999835966,,response,,,,10,D,,,,,,Space,keypress(Space),,,,silence,,,,-- -- --- ------ ------- --------- ----------- --------<br>--------- -------- --- ------- -- ------- ---- -- ------<br>-- --- -------- -------- ---------- ---- ---- ---- ------<br>-- --------- -- ---- -- --- -- --- country -- - -----<br>---------- -- -- -- ---- ----- -- ------ -- --- ------<br>-------,284628.6650002003,284628.0249999836,284173.16,284172.9999999516,284189.863,284639.506,,34,country
screen,html.Screen,1_3_1_0_1_35,2021-04-23T10:37:07.703Z,,,,,,,,,,,,,,,,48,,,,,,,,,,,,,,429.4039999144734,,response,,,,10,D,,,,,,Space,keypress(Space),,,,silence,,,,-- -- --- ------ ------- --------- ----------- --------<br>--------- -------- --- ------- -- ------- ---- -- ------<br>-- --- -------- -------- ---------- ---- ---- ---- ------<br>-- --------- -- ---- -- --- -- --- ------- is - -----<br>---------- -- -- -- ---- ----- -- ------ -- --- ------<br>-------,285069.4599999115,285068.90999991447,284622.743,284628.78999998793,284639.506,285072.332,,35,is
screen,html.Screen,1_3_1_0_1_36,2021-04-23T10:37:08.068Z,,,,,,,,,,,,,,,,48,,,,,,,,,,,,,,361.92800000909483,,response,,,,10,D,,,,,,Space,keypress(Space),,,,silence,,,,-- -- --- ------ ------- --------- ----------- --------<br>--------- -------- --- ------- -- ------- ---- -- ------<br>-- --- -------- -------- ---------- ---- ---- ---- ------<br>-- --------- -- ---- -- --- -- --- ------- -- a -----<br>---------- -- -- -- ---- ----- -- ------ -- --- ------<br>-------,285434.75499982014,285434.2600000091,285055.693,285069.6399998851,285072.332,285438.715,,36,a
screen,html.Screen,1_3_1_0_1_37,2021-04-23T10:37:08.606Z,,,,,,,,,,,,,,,,48,,,,,,,,,,,,,,533.3249999059481,,response,,,,10,D,,,,,,Space,keypress(Space),,,,silence,,,,-- -- --- ------ ------- --------- ----------- --------<br>--------- -------- --- ------- -- ------- ---- -- ------<br>-- --- -------- -------- ---------- ---- ---- ---- ------<br>-- --------- -- ---- -- --- -- --- ------- -- - crime<br>---------- -- -- -- ---- ----- -- ------ -- --- ------<br>-------,285972.56499994546,285972.039999906,285422.004,285434.8650001921,285438.715,285988.172,,37,crime
screen,html.Screen,1_3_1_0_1_38,2021-04-23T10:37:09.062Z,,,,,,,,,,,,,,,,48,,,,,,,,,,,,,,439.24800007999875,,response,,,,10,D,,,,,,Space,keypress(Space),,,,silence,,,,-- -- --- ------ ------- --------- ----------- --------<br>--------- -------- --- ------- -- ------- ---- -- ------<br>-- --- -------- -------- ---------- ---- ---- ---- ------<br>-- --------- -- ---- -- --- -- --- ------- -- - -----<br>punishable -- -- -- ---- ----- -- ------ -- --- ------<br>-------,286427.9600000009,286427.42000008,285971.52,285972.69999980927,285988.172,286437.778,,38,punishable
screen,html.Screen,1_3_1_0_1_39,2021-04-23T10:37:09.471Z,,,,,,,,,,,,,,,,48,,,,,,,,,,,,,,399.06699980882695,,response,,,,10,D,,,,,,Space,keypress(Space),,,,silence,,,,-- -- --- ------ ------- --------- ----------- --------<br>--------- -------- --- ------- -- ------- ---- -- ------<br>-- --- -------- -------- ---------- ---- ---- ---- ------<br>-- --------- -- ---- -- --- -- --- ------- -- - -----<br>---------- by -- -- ---- ----- -- ------ -- --- ------<br>-------,286837.4149999581,286836.8449998088,286421.105,286428.09000005946,286437.778,286854.05,,39,by
screen,html.Screen,1_3_1_0_1_40,2021-04-23T10:37:09.917Z,,,,,,,,,,,,,,,,48,,,,,,,,,,,,,,428.3100000701961,,response,,,,10,D,,,,,,Space,keypress(Space),,,,silence,,,,-- -- --- ------ ------- --------- ----------- --------<br>--------- -------- --- ------- -- ------- ---- -- ------<br>-- --- -------- -------- ---------- ---- ---- ---- ------<br>-- --------- -- ---- -- --- -- --- ------- -- - -----<br>---------- -- up -- ---- ----- -- ------ -- --- ------<br>-------,287282.9300002195,287282.3600000702,286837.344,286837.54000021145,286854.05,287286.967,,40,up
screen,html.Screen,1_3_1_0_1_41,2021-04-23T10:37:10.297Z,,,,,,,,,,,,,,,,48,,,,,,,,,,,,,,375.91799999790965,,response,,,,10,D,,,,,,Space,keypress(Space),,,,silence,,,,-- -- --- ------ ------- --------- ----------- --------<br>--------- -------- --- ------- -- ------- ---- -- ------<br>-- --- -------- -------- ---------- ---- ---- ---- ------<br>-- --------- -- ---- -- --- -- --- ------- -- - -----<br>---------- -- -- to ---- ----- -- ------ -- --- ------<br>-------,287663.39999996126,287662.8849999979,287270.308,287283.7499999441,287286.967,287669.869,,41,to
