sender,sender_type,sender_id,timestamp,meta,,Blues,Classical,Country,Dance,Electronic,Folk,Gospel,Hip-Hop,Jazz,Latin,Musical/Film,New-age,Pop,Provo_ID,R&B,Rap,Reggae,Religious,Rock,Soul,Swing,Traditional,age,artist_name,correct,correctResponse,distraction,duration,education,ended_on,familiarity,gender,headphone_check_performance,item,list,music_frequency,offensiveness,pleasantness,position_correct,preference,response,response_action,snippet_file,song_name,song_rating,sound,stimulus_1,stimulus_2,stimulus_3,text,time_commit,time_end,time_render,time_run,time_show,time_switch,url,word,word_ID
Introduction,html.Screen,0_0,2021-04-26T12:10:06.247Z,"{""labjs_version"":""20.2.2"",""labjs_build"":{""flavor"":""production"",""commit"":""a25486e0c714a0ae2ce03ff94b7bb6896854dcfa""},""location"":""https://run.pavlovia.org/mvasilev/music_c/"",""userAgent"":""Mozilla/5.0 (Macintosh; Intel Mac OS X 10_15_7) AppleWebKit/605.1.15 (KHTML, like Gecko) Version/14.0.2 Safari/605.1.15"",""platform"":""MacIntel"",""language"":""en-gb"",""locale"":""en-GB"",""timeZone"":""Europe/London"",""timezoneOffset"":-60,""screen_width"":1440,""screen_height"":900,""scroll_width"":1440,""scroll_height"":789,""window_innerWidth"":1440,""window_innerHeight"":837,""devicePixelRatio"":2}",,,,,,,,,,,,,,,,,,,,,,,,,,,,,6905,,response,,,,,,,,,,,continue,click button,,,,,,,,,17189,17260,10355,10332,10374,17217,{},,
Volume calibration,html.Screen,0_1,2021-04-26T12:10:17.162Z,,,,,,,,,,,,,,,,,,,,,,,,,,,,,,11020,,response,,,,,,,,,,,continue,click button,,,,,,,,,28105,28219,17199,17190,17217,28132,,,
Task instructions,html.Screen,0_2,2021-04-26T12:10:34.477Z,,,,,,,,,,,,,,,,,,,,,,,,,,,,,,17420.000000000007,,response,,,,,,,,,,,continue,click button,,,,,,,,,45420,45535.00000000001,28115,28105,28132,45441,,,
Sounds,html.Screen,0_3_0_0,2021-04-26T12:10:38.736Z,,,,,,,,,,,,,,,,,,,,,,,,,,,,,,4256,,timeout,,,,,,,,,2,,,,,,,,O,S,I,,49680,49679,45424,45421,45441,49697,,,
Judgement,html.Screen,0_3_0_1,2021-04-26T12:10:42.213Z,,,,,,,,,,,,,,,,,,,,,,,,,,,true,2,,3594,,response,,,,,,,,,2,,2,click #choice-2,,,,,O,S,I,,53157,53273,49679,49680,49697,53180,,,
Trial,flow.Sequence,0_3_0,2021-04-26T12:10:42.213Z,,,,,,,,,,,,,,,,,,,,,,,,,,,,,,7832,,completion,,,,,,,,,2,,,,,,,,O,S,I,,53157,53273,45424,45421,45441,53180,,,
Sounds,html.Screen,0_3_1_0,2021-04-26T12:10:46.469Z,,,,,,,,,,,,,,,,,,,,,,,,,,,,,,4250,,timeout,,,,,,,,,1,,,,,,,,S,I,O,,57413.00000000001,57413,53163,53157,53180,57430,,,
Judgement,html.Screen,0_3_1_1,2021-04-26T12:10:48.181Z,,,,,,,,,,,,,,,,,,,,,,,,,,,true,1,,1828,,response,,,,,,,,,1,,1,click #choice-1,,,,,S,I,O,,59125,59241,57413,57413.00000000001,57430,59153,,,
Trial,flow.Sequence,0_3_1,2021-04-26T12:10:48.181Z,,,,,,,,,,,,,,,,,,,,,,,,,,,,,,6061,,completion,,,,,,,,,1,,,,,,,,S,I,O,,59126.00000000001,59241,53163,53157,53180,59153,,,
Sounds,html.Screen,0_3_2_0,2021-04-26T12:10:52.442Z,,,,,,,,,,,,,,,,,,,,,,,,,,,,,,4250,,timeout,,,,,,,,,3,,,,,,,,I,O,S,,63386,63386,59137,59126.00000000001,59153,63403,,,
Judgement,html.Screen,0_3_2_1,2021-04-26T12:10:53.531Z,,,,,,,,,,,,,,,,,,,,,,,,,,,true,3,,1206,,response,,,,,,,,,3,,3,click #choice-3,,,,,I,O,S,,64474.99999999999,64592,63386,63387,63403,64502,,,
Trial,flow.Sequence,0_3_2,2021-04-26T12:10:53.531Z,,,,,,,,,,,,,,,,,,,,,,,,,,,,,,5439,,completion,,,,,,,,,3,,,,,,,,I,O,S,,64476,64592,59137,59126.00000000001,59153,64502,,,
Sounds,html.Screen,0_3_3_0,2021-04-26T12:10:57.790Z,,,,,,,,,,,,,,,,,,,,,,,,,,,,,,4249,,timeout,,,,,,,,,3,,,,,,,,O,I,S,,68735,68735,64484,64476,64502,68751,,,
Judgement,html.Screen,0_3_3_1,2021-04-26T12:10:58.388Z,,,,,,,,,,,,,,,,,,,,,,,,,,,true,3,,713.0000000000146,,response,,,,,,,,,3,,3,click #choice-3,,,,,O,I,S,,69332.00000000001,69448.00000000001,68735,68735,68751,69353,,,
Trial,flow.Sequence,0_3_3,2021-04-26T12:10:58.388Z,,,,,,,,,,,,,,,,,,,,,,,,,,,,,,4946.000000000015,,completion,,,,,,,,,3,,,,,,,,O,I,S,,69333,69448.00000000001,64484,64476,64502,69353,,,
Sounds,html.Screen,0_3_4_0,2021-04-26T12:11:02.642Z,,,,,,,,,,,,,,,,,,,,,,,,,,,,,,4251,,timeout,,,,,,,,,2,,,,,,,,I,S,O,,73587,73586,69336,69333,69353,73604,,,
Judgement,html.Screen,0_3_4_1,2021-04-26T12:11:03.284Z,,,,,,,,,,,,,,,,,,,,,,,,,,,true,2,,760,,response,,,,,,,,,2,,2,click #choice-2,,,,,I,S,O,,74229,74346,73586,73587,73604,74261,,,
Trial,flow.Sequence,0_3_4,2021-04-26T12:11:03.284Z,,,,,,,,,,,,,,,,,,,,,,,,,,,,,,4993,,completion,,,,,,,,,2,,,,,,,,I,S,O,,74229,74346,69336,69333,69353,74261,,,
Sounds,html.Screen,0_3_5_0,2021-04-26T12:11:07.628Z,,,,,,,,,,,,,,,,,,,,,,,,,,,,,,4249,,timeout,,,,,,,,,1,,,,,,,,S,O,I,,78494,78493,74244,74229,74261,78510,,,
Judgement,html.Screen,0_3_5_1,2021-04-26T12:11:08.357Z,,,,,,,,,,,,,,,,,,,,,,,,,,,true,1,,728,,response,,,,,,,,,1,,1,click #choice-1,,,,,S,O,I,,79223,79221,78493,78494,78510,79246,,,
Trial,flow.Sequence,0_3_5,2021-04-26T12:11:08.357Z,,,,,,,,,,,,,,,,,,,,,,,,,,,,,,4960,,completion,,,,,,,,,1,,,,,,,,S,O,I,,79223,79221,74244,74229,74261,79246,,,
Task,flow.Loop,0_3,2021-04-26T12:11:08.359Z,,,,,,,,,,,,,,,,,,,,,,,,,,,,,,33780,,completion,,,1,,,,,,,,,,,,,,,,,,79225.00000000001,79221,45424,45421,45441,79246,,,
Trap,html.Screen,0_4,2021-04-26T12:11:08.360Z,,,,,,,,,,,,,,,,,,,,,,,,,,,,,,NaN,,skipped,,,,,,,,,,,,,,,,,,,,,79226,79221,,79226,,79246,,,
Thanks,html.Screen,0_5,2021-04-26T12:11:13.882Z,,,,,,,,,,,,,,,,,,,,,,,,,,,,,,5518,,response,,,,,,,,,,,continue,click button,,,,,,,,,84748,84746,79228,79226,79246,88420,,,
Headphone screening,flow.Sequence,0,2021-04-26T12:11:13.882Z,,,,,,,,,,,,,,,,,,,,,,,,,,,,,,74372,,completion,,,,,,,,,,,,,,,,,,,,,84748,84746,10355,10332,10374,88420,,,
Instructions,html.Page,1_0,2021-04-26T12:11:19.602Z,,,,,,,,,,,,,,,,,,,,,,,,,,,,,,2047,,form submission,,,,,,,,,,,,,,,,,,,,,90468,90467,88403,88379,88420,90491,,,
Holding screen,html.Screen,1_1_0_0,2021-04-26T12:11:29.615Z,,,,,,,,,,,,,,,,,,,,,,,,,,,,,,10013,,timeout,,,,,,,,,,,,,,,,,,,,,100482,100481,90475,90469.00000000001,90491,100504,,,
screen,html.Screen,1_1_0_1_0,2021-04-26T12:11:31.784Z,,,,,,,,,,,,,,,,53,,,,,,,,,,,,,,2167,,response,,,,99,,,,,,,Space,keypress(Space),,,,,,,,When -- ----- -- ------ - ------- --- ----------<br>------------- ------ ------ ---- ---- ------- ----- -- ----<br>-------- ------- -- ---------- --- - --- ----- ----- ----<br>---- --- --- ----- --- ---- ---- ------- ----- ---- -------<br>--- --- -- ----- -- --- ---- -- --- ---- -- ------ ------<br>--- ----- -- ----,102650,102648,100481,100482,100504,102681,,0,When
screen,html.Screen,1_1_0_1_1,2021-04-26T12:11:32.992Z,,,,,,,,,,,,,,,,53,,,,,,,,,,,,,,1193.0000000000146,,response,,,,99,,,,,,,Space,keypress(Space),,,,,,,,---- it ----- -- ------ - ------- --- ----------<br>------------- ------ ------ ---- ---- ------- ----- -- ----<br>-------- ------- -- ---------- --- - --- ----- ----- ----<br>---- --- --- ----- --- ---- ---- ------- ----- ---- -------<br>--- --- -- ----- -- --- ---- -- --- ---- -- ------ ------<br>--- ----- -- ----,103858,103856.00000000001,102663,102650,102681,103898,,1,it
screen,html.Screen,1_1_0_1_2,2021-04-26T12:11:33.933Z,,,,,,,,,,,,,,,,53,,,,,,,,,,,,,,917,,response,,,,99,,,,,,,Space,keypress(Space),,,,,,,,---- -- comes -- ------ - ------- --- ----------<br>------------- ------ ------ ---- ---- ------- ----- -- ----<br>-------- ------- -- ---------- --- - --- ----- ----- ----<br>---- --- --- ----- --- ---- ---- ------- ----- ---- -------<br>--- --- -- ----- -- --- ---- -- --- ---- -- ------ ------<br>--- ----- -- ----,104800,104798,103881,103858,103898,104831,,2,comes
screen,html.Screen,1_1_0_1_3,2021-04-26T12:11:34.617Z,,,,,,,,,,,,,,,,53,,,,,,,,,,,,,,666.0000000000146,,response,,,,99,,,,,,,Space,keypress(Space),,,,,,,,---- -- ----- to ------ - ------- --- ----------<br>------------- ------ ------ ---- ---- ------- ----- -- ----<br>-------- ------- -- ---------- --- - --- ----- ----- ----<br>---- --- --- ----- --- ---- ---- ------- ----- ---- -------<br>--- --- -- ----- -- --- ---- -- --- ---- -- ------ ------<br>--- ----- -- ----,105484.00000000001,105481.00000000001,104815,104800,104831,105518,,3,to
screen,html.Screen,1_1_0_1_4,2021-04-26T12:11:35.268Z,,,,,,,,,,,,,,,,53,,,,,,,,,,,,,,632,,response,,,,99,,,,,,,Space,keypress(Space),,,,,,,,---- -- ----- -- having - ------- --- ----------<br>------------- ------ ------ ---- ---- ------- ----- -- ----<br>-------- ------- -- ---------- --- - --- ----- ----- ----<br>---- --- --- ----- --- ---- ---- ------- ----- ---- -------<br>--- --- -- ----- -- --- ---- -- --- ---- -- ------ ------<br>--- ----- -- ----,106135,106133,105501,105484.00000000001,105518,106169,,4,having
screen,html.Screen,1_1_0_1_5,2021-04-26T12:11:35.770Z,,,,,,,,,,,,,,,,53,,,,,,,,,,,,,,483,,response,,,,99,,,,,,,Space,keypress(Space),,,,,,,,---- -- ----- -- ------ a ------- --- ----------<br>------------- ------ ------ ---- ---- ------- ----- -- ----<br>-------- ------- -- ---------- --- - --- ----- ----- ----<br>---- --- --- ----- --- ---- ---- ------- ----- ---- -------<br>--- --- -- ----- -- --- ---- -- --- ---- -- ------ ------<br>--- ----- -- ----,106637,106634,106151,106135,106169,106668,,5,a
screen,html.Screen,1_1_0_1_6,2021-04-26T12:11:36.590Z,,,,,,,,,,,,,,,,53,,,,,,,,,,,,,,803,,response,,,,99,,,,,,,Space,keypress(Space),,,,,,,,---- -- ----- -- ------ - lasting --- ----------<br>------------- ------ ------ ---- ---- ------- ----- -- ----<br>-------- ------- -- ---------- --- - --- ----- ----- ----<br>---- --- --- ----- --- ---- ---- ------- ----- ---- -------<br>--- --- -- ----- -- --- ---- -- --- ---- -- ------ ------<br>--- ----- -- ----,107457.00000000001,107455,106652,106637,106668,107485,,6,lasting
screen,html.Screen,1_1_0_1_7,2021-04-26T12:11:37.117Z,,,,,,,,,,,,,,,,53,,,,,,,,,,,,,,515,,response,,,,99,,,,,,,Space,keypress(Space),,,,,,,,---- -- ----- -- ------ - ------- and ----------<br>------------- ------ ------ ---- ---- ------- ----- -- ----<br>-------- ------- -- ---------- --- - --- ----- ----- ----<br>---- --- --- ----- --- ---- ---- ------- ----- ---- -------<br>--- --- -- ----- -- --- ---- -- --- ---- -- ------ ------<br>--- ----- -- ----,107984.00000000001,107983,107468,107457.00000000001,107485,108018,,7,and
screen,html.Screen,1_1_0_1_8,2021-04-26T12:11:37.935Z,,,,,,,,,,,,,,,,53,,,,,,,,,,,,,,798,,response,,,,99,,,,,,,Space,keypress(Space),,,,,,,,---- -- ----- -- ------ - ------- --- fulfilling<br>------------- ------ ------ ---- ---- ------- ----- -- ----<br>-------- ------- -- ---------- --- - --- ----- ----- ----<br>---- --- --- ----- --- ---- ---- ------- ----- ---- -------<br>--- --- -- ----- -- --- ---- -- --- ---- -- ------ ------<br>--- ----- -- ----,108802,108800,108002,107984.00000000001,108018,108835,,8,fulfilling
screen,html.Screen,1_1_0_1_9,2021-04-26T12:11:38.923Z,,,,,,,,,,,,,,,,53,,,,,,,,,,,,,,971,,response,,,,99,,,,,,,Space,keypress(Space),,,,,,,,"---- -- ----- -- ------ - ------- --- ----------<br>relationship, ------ ------ ---- ---- ------- ----- -- ----<br>-------- ------- -- ---------- --- - --- ----- ----- ----<br>---- --- --- ----- --- ---- ---- ------- ----- ---- -------<br>--- --- -- ----- -- --- ---- -- --- ---- -- ------ ------<br>--- ----- -- ----",109790,109789,108818,108802,108835,109818,,9,"relationship,"
screen,html.Screen,1_1_0_1_10,2021-04-26T12:11:39.610Z,,,,,,,,,,,,,,,,53,,,,,,,,,,,,,,674.0000000000146,,response,,,,99,,,,,,,Space,keypress(Space),,,,,,,,---- -- ----- -- ------ - ------- --- ----------<br>------------- common ------ ---- ---- ------- ----- -- ----<br>-------- ------- -- ---------- --- - --- ----- ----- ----<br>---- --- --- ----- --- ---- ---- ------- ----- ---- -------<br>--- --- -- ----- -- --- ---- -- --- ---- -- ------ ------<br>--- ----- -- ----,110477,110475.00000000001,109801,109791,109818,110506,,10,common
screen,html.Screen,1_1_0_1_11,2021-04-26T12:11:40.596Z,,,,,,,,,,,,,,,,53,,,,,,,,,,,,,,972,,response,,,,99,,,,,,,Space,keypress(Space),,,,,,,,---- -- ----- -- ------ - ------- --- ----------<br>------------- ------ wisdom ---- ---- ------- ----- -- ----<br>-------- ------- -- ---------- --- - --- ----- ----- ----<br>---- --- --- ----- --- ---- ---- ------- ----- ---- -------<br>--- --- -- ----- -- --- ---- -- --- ---- -- ------ ------<br>--- ----- -- ----,111463.00000000001,111461,110489,110477,110506,111506,,11,wisdom
screen,html.Screen,1_1_0_1_12,2021-04-26T12:11:41.877Z,,,,,,,,,,,,,,,,53,,,,,,,,,,,,,,1253,,response,,,,99,,,,,,,Space,keypress(Space),,,,,,,,---- -- ----- -- ------ - ------- --- ----------<br>------------- ------ ------ says ---- ------- ----- -- ----<br>-------- ------- -- ---------- --- - --- ----- ----- ----<br>---- --- --- ----- --- ---- ---- ------- ----- ---- -------<br>--- --- -- ----- -- --- ---- -- --- ---- -- ------ ------<br>--- ----- -- ----,112744,112742,111489,111463.00000000001,111506,112773,,12,says
screen,html.Screen,1_1_0_1_13,2021-04-26T12:11:42.547Z,,,,,,,,,,,,,,,,53,,,,,,,,,,,,,,657,,response,,,,99,,,,,,,Space,keypress(Space),,,,,,,,---- -- ----- -- ------ - ------- --- ----------<br>------------- ------ ------ ---- that ------- ----- -- ----<br>-------- ------- -- ---------- --- - --- ----- ----- ----<br>---- --- --- ----- --- ---- ---- ------- ----- ---- -------<br>--- --- -- ----- -- --- ---- -- --- ---- -- ------ ------<br>--- ----- -- ----,113414,113413,112756,112744,112773,113455,,13,that
screen,html.Screen,1_1_0_1_14,2021-04-26T12:11:43.622Z,,,,,,,,,,,,,,,,53,,,,,,,,,,,,,,1048.0000000000146,,response,,,,99,,,,,,,Space,keypress(Space),,,,,,,,---- -- ----- -- ------ - ------- --- ----------<br>------------- ------ ------ ---- ---- feeling ----- -- ----<br>-------- ------- -- ---------- --- - --- ----- ----- ----<br>---- --- --- ----- --- ---- ---- ------- ----- ---- -------<br>--- --- -- ----- -- --- ---- -- --- ---- -- ------ ------<br>--- ----- -- ----,114489,114487.00000000001,113439,113415,113455,114522,,14,feeling
screen,html.Screen,1_1_0_1_15,2021-04-26T12:11:44.205Z,,,,,,,,,,,,,,,,53,,,,,,,,,,,,,,564.0000000000146,,response,,,,99,,,,,,,Space,keypress(Space),,,,,,,,---- -- ----- -- ------ - ------- --- ----------<br>------------- ------ ------ ---- ---- ------- close -- ----<br>-------- ------- -- ---------- --- - --- ----- ----- ----<br>---- --- --- ----- --- ---- ---- ------- ----- ---- -------<br>--- --- -- ----- -- --- ---- -- --- ---- -- ------ ------<br>--- ----- -- ----,115072,115070.00000000001,114506,114489,114522,115105,,15,close
screen,html.Screen,1_1_0_1_16,2021-04-26T12:11:44.841Z,,,,,,,,,,,,,,,,53,,,,,,,,,,,,,,618.0000000000146,,response,,,,99,,,,,,,Space,keypress(Space),,,,,,,,---- -- ----- -- ------ - ------- --- ----------<br>------------- ------ ------ ---- ---- ------- ----- to ----<br>-------- ------- -- ---------- --- - --- ----- ----- ----<br>---- --- --- ----- --- ---- ---- ------- ----- ---- -------<br>--- --- -- ----- -- --- ---- -- --- ---- -- ------ ------<br>--- ----- -- ----,115708,115707.00000000001,115089,115072,115105,115743,,16,to
screen,html.Screen,1_1_0_1_17,2021-04-26T12:11:45.456Z,,,,,,,,,,,,,,,,53,,,,,,,,,,,,,,594,,response,,,,99,,,,,,,Space,keypress(Space),,,,,,,,---- -- ----- -- ------ - ------- --- ----------<br>------------- ------ ------ ---- ---- ------- ----- -- your<br>-------- ------- -- ---------- --- - --- ----- ----- ----<br>---- --- --- ----- --- ---- ---- ------- ----- ---- -------<br>--- --- -- ----- -- --- ---- -- --- ---- -- ------ ------<br>--- ----- -- ----,116323.00000000001,116321,115727,115708,115743,116359,,17,your
screen,html.Screen,1_1_0_1_18,2021-04-26T12:11:46.152Z,,,,,,,,,,,,,,,,53,,,,,,,,,,,,,,675,,response,,,,99,,,,,,,Space,keypress(Space),,,,,,,,---- -- ----- -- ------ - ------- --- ----------<br>------------- ------ ------ ---- ---- ------- ----- -- ----<br>romantic ------- -- ---------- --- - --- ----- ----- ----<br>---- --- --- ----- --- ---- ---- ------- ----- ---- -------<br>--- --- -- ----- -- --- ---- -- --- ---- -- ------ ------<br>--- ----- -- ----,117019,117018,116343,116323.00000000001,116359,117060,,18,romantic
screen,html.Screen,1_1_0_1_19,2021-04-26T12:11:46.848Z,,,,,,,,,,,,,,,,53,,,,,,,,,,,,,,671.0000000000146,,response,,,,99,,,,,,,Space,keypress(Space),,,,,,,,---- -- ----- -- ------ - ------- --- ----------<br>------------- ------ ------ ---- ---- ------- ----- -- ----<br>-------- partner -- ---------- --- - --- ----- ----- ----<br>---- --- --- ----- --- ---- ---- ------- ----- ---- -------<br>--- --- -- ----- -- --- ---- -- --- ---- -- ------ ------<br>--- ----- -- ----,117715,117713.00000000001,117042,117019,117060,117743,,19,partner
screen,html.Screen,1_1_0_1_20,2021-04-26T12:11:47.432Z,,,,,,,,,,,,,,,,53,,,,,,,,,,,,,,572,,response,,,,99,,,,,,,Space,keypress(Space),,,,,,,,---- -- ----- -- ------ - ------- --- ----------<br>------------- ------ ------ ---- ---- ------- ----- -- ----<br>-------- ------- is ---------- --- - --- ----- ----- ----<br>---- --- --- ----- --- ---- ---- ------- ----- ---- -------<br>--- --- -- ----- -- --- ---- -- --- ---- -- ------ ------<br>--- ----- -- ----,118299,118298,117726,117715,117743,118326,,20,is
screen,html.Screen,1_1_0_1_21,2021-04-26T12:11:48.771Z,,,,,,,,,,,,,,,,53,,,,,,,,,,,,,,1328,,response,,,,99,,,,,,,Space,keypress(Space),,,,,,,,---- -- ----- -- ------ - ------- --- ----------<br>------------- ------ ------ ---- ---- ------- ----- -- ----<br>-------- ------- -- paramount. --- - --- ----- ----- ----<br>---- --- --- ----- --- ---- ---- ------- ----- ---- -------<br>--- --- -- ----- -- --- ---- -- --- ---- -- ------ ------<br>--- ----- -- ----,119638,119637,118309,118300,118326,119676,,21,paramount.
screen,html.Screen,1_1_0_1_22,2021-04-26T12:11:49.393Z,,,,,,,,,,,,,,,,53,,,,,,,,,,,,,,599,,response,,,,99,,,,,,,Space,keypress(Space),,,,,,,,---- -- ----- -- ------ - ------- --- ----------<br>------------- ------ ------ ---- ---- ------- ----- -- ----<br>-------- ------- -- ---------- But - --- ----- ----- ----<br>---- --- --- ----- --- ---- ---- ------- ----- ---- -------<br>--- --- -- ----- -- --- ---- -- --- ---- -- ------ ------<br>--- ----- -- ----,120261,120259,119660,119638,119676,120293,,22,But
screen,html.Screen,1_1_0_1_23,2021-04-26T12:11:49.905Z,,,,,,,,,,,,,,,,53,,,,,,,,,,,,,,494,,response,,,,99,,,,,,,Space,keypress(Space),,,,,,,,---- -- ----- -- ------ - ------- --- ----------<br>------------- ------ ------ ---- ---- ------- ----- -- ----<br>-------- ------- -- ---------- --- a --- ----- ----- ----<br>---- --- --- ----- --- ---- ---- ------- ----- ---- -------<br>--- --- -- ----- -- --- ---- -- --- ---- -- ------ ------<br>--- ----- -- ----,120773,120771,120277,120261,120293,120814,,23,a
screen,html.Screen,1_1_0_1_24,2021-04-26T12:11:51.175Z,,,,,,,,,,,,,,,,53,,,,,,,,,,,,,,1243,,response,,,,99,,,,,,,Space,keypress(Space),,,,,,,,---- -- ----- -- ------ - ------- --- ----------<br>------------- ------ ------ ---- ---- ------- ----- -- ----<br>-------- ------- -- ---------- --- - new ----- ----- ----<br>---- --- --- ----- --- ---- ---- ------- ----- ---- -------<br>--- --- -- ----- -- --- ---- -- --- ---- -- ------ ------<br>--- ----- -- ----,122042,122041,120798,120773,120814,122081,,24,new
screen,html.Screen,1_1_0_1_25,2021-04-26T12:11:51.878Z,,,,,,,,,,,,,,,,53,,,,,,,,,,,,,,682,,response,,,,99,,,,,,,Space,keypress(Space),,,,,,,,---- -- ----- -- ------ - ------- --- ----------<br>------------- ------ ------ ---- ---- ------- ----- -- ----<br>-------- ------- -- ---------- --- - --- study ----- ----<br>---- --- --- ----- --- ---- ---- ------- ----- ---- -------<br>--- --- -- ----- -- --- ---- -- --- ---- -- ------ ------<br>--- ----- -- ----,122746.00000000001,122745,122063,122042,122081,122781,,25,study
screen,html.Screen,1_1_0_1_26,2021-04-26T12:11:52.668Z,,,,,,,,,,,,,,,,53,,,,,,,,,,,,,,770,,response,,,,99,,,,,,,Space,keypress(Space),,,,,,,,---- -- ----- -- ------ - ------- --- ----------<br>------------- ------ ------ ---- ---- ------- ----- -- ----<br>-------- ------- -- ---------- --- - --- ----- finds ----<br>---- --- --- ----- --- ---- ---- ------- ----- ---- -------<br>--- --- -- ----- -- --- ---- -- --- ---- -- ------ ------<br>--- ----- -- ----,123535,123534,122764,122746.00000000001,122781,123564,,26,finds
screen,html.Screen,1_1_0_1_27,2021-04-26T12:11:53.380Z,,,,,,,,,,,,,,,,53,,,,,,,,,,,,,,698.0000000000146,,response,,,,99,,,,,,,Space,keypress(Space),,,,,,,,---- -- ----- -- ------ - ------- --- ----------<br>------------- ------ ------ ---- ---- ------- ----- -- ----<br>-------- ------- -- ---------- --- - --- ----- ----- that<br>---- --- --- ----- --- ---- ---- ------- ----- ---- -------<br>--- --- -- ----- -- --- ---- -- --- ---- -- ------ ------<br>--- ----- -- ----,124247,124246.00000000001,123548,123535,123564,124281,,27,that
screen,html.Screen,1_1_0_1_28,2021-04-26T12:11:54.114Z,,,,,,,,,,,,,,,,53,,,,,,,,,,,,,,717,,response,,,,99,,,,,,,Space,keypress(Space),,,,,,,,---- -- ----- -- ------ - ------- --- ----------<br>------------- ------ ------ ---- ---- ------- ----- -- ----<br>-------- ------- -- ---------- --- - --- ----- ----- ----<br>it's --- --- ----- --- ---- ---- ------- ----- ---- -------<br>--- --- -- ----- -- --- ---- -- --- ---- -- ------ ------<br>--- ----- -- ----,124981.00000000001,124980,124263,124247,124281,125013,,28,it's
screen,html.Screen,1_1_0_1_29,2021-04-26T12:11:54.580Z,,,,,,,,,,,,,,,,53,,,,,,,,,,,,,,449,,response,,,,99,,,,,,,Space,keypress(Space),,,,,,,,---- -- ----- -- ------ - ------- --- ----------<br>------------- ------ ------ ---- ---- ------- ----- -- ----<br>-------- ------- -- ---------- --- - --- ----- ----- ----<br>---- not --- ----- --- ---- ---- ------- ----- ---- -------<br>--- --- -- ----- -- --- ---- -- --- ---- -- ------ ------<br>--- ----- -- ----,125447,125446,124997,124981.00000000001,125013,125480,,29,not
screen,html.Screen,1_1_0_1_30,2021-04-26T12:11:55.053Z,,,,,,,,,,,,,,,,53,,,,,,,,,,,,,,456,,response,,,,99,,,,,,,Space,keypress(Space),,,,,,,,---- -- ----- -- ------ - ------- --- ----------<br>------------- ------ ------ ---- ---- ------- ----- -- ----<br>-------- ------- -- ---------- --- - --- ----- ----- ----<br>---- --- how ----- --- ---- ---- ------- ----- ---- -------<br>--- --- -- ----- -- --- ---- -- --- ---- -- ------ ------<br>--- ----- -- ----,125921,125920,125464,125448.00000000001,125480,125951,,30,how
screen,html.Screen,1_1_0_1_31,2021-04-26T12:11:55.564Z,,,,,,,,,,,,,,,,53,,,,,,,,,,,,,,495,,response,,,,99,,,,,,,Space,keypress(Space),,,,,,,,---- -- ----- -- ------ - ------- --- ----------<br>------------- ------ ------ ---- ---- ------- ----- -- ----<br>-------- ------- -- ---------- --- - --- ----- ----- ----<br>---- --- --- close --- ---- ---- ------- ----- ---- -------<br>--- --- -- ----- -- --- ---- -- --- ---- -- ------ ------<br>--- ----- -- ----,126431,126431,125936,125921,125951,126469,,31,close
screen,html.Screen,1_1_0_1_32,2021-04-26T12:11:56.032Z,,,,,,,,,,,,,,,,53,,,,,,,,,,,,,,447,,response,,,,99,,,,,,,Space,keypress(Space),,,,,,,,---- -- ----- -- ------ - ------- --- ----------<br>------------- ------ ------ ---- ---- ------- ----- -- ----<br>-------- ------- -- ---------- --- - --- ----- ----- ----<br>---- --- --- ----- you ---- ---- ------- ----- ---- -------<br>--- --- -- ----- -- --- ---- -- --- ---- -- ------ ------<br>--- ----- -- ----,126900,126899,126452,126432,126469,126935,,32,you
screen,html.Screen,1_1_0_1_33,2021-04-26T12:11:56.478Z,,,,,,,,,,,,,,,,53,,,,,,,,,,,,,,426,,response,,,,99,,,,,,,Space,keypress(Space),,,,,,,,---- -- ----- -- ------ - ------- --- ----------<br>------------- ------ ------ ---- ---- ------- ----- -- ----<br>-------- ------- -- ---------- --- - --- ----- ----- ----<br>---- --- --- ----- --- feel ---- ------- ----- ---- -------<br>--- --- -- ----- -- --- ---- -- --- ---- -- ------ ------<br>--- ----- -- ----,127346,127345,126919,126900,126935,127385,,33,feel
screen,html.Screen,1_1_0_1_34,2021-04-26T12:11:57.002Z,,,,,,,,,,,,,,,,53,,,,,,,,,,,,,,501,,response,,,,99,,,,,,,Space,keypress(Space),,,,,,,,---- -- ----- -- ------ - ------- --- ----------<br>------------- ------ ------ ---- ---- ------- ----- -- ----<br>-------- ------- -- ---------- --- - --- ----- ----- ----<br>---- --- --- ----- --- ---- that ------- ----- ---- -------<br>--- --- -- ----- -- --- ---- -- --- ---- -- ------ ------<br>--- ----- -- ----,127869,127869,127368,127346,127385,127902,,34,that
screen,html.Screen,1_1_0_1_35,2021-04-26T12:11:57.536Z,,,,,,,,,,,,,,,,53,,,,,,,,,,,,,,516.9999999999854,,response,,,,99,,,,,,,Space,keypress(Space),,,,,,,,---- -- ----- -- ------ - ------- --- ----------<br>------------- ------ ------ ---- ---- ------- ----- -- ----<br>-------- ------- -- ---------- --- - --- ----- ----- ----<br>---- --- --- ----- --- ---- ---- matters ----- ---- -------<br>--- --- -- ----- -- --- ---- -- --- ---- -- ------ ------<br>--- ----- -- ----,128404,128402.99999999999,127886,127870,127902,128435,,35,matters
screen,html.Screen,1_1_0_1_36,2021-04-26T12:11:58.183Z,,,,,,,,,,,,,,,,53,,,,,,,,,,,,,,631.0000000000146,,response,,,,99,,,,,,,Space,keypress(Space),,,,,,,,"---- -- ----- -- ------ - ------- --- ----------<br>------------- ------ ------ ---- ---- ------- ----- -- ----<br>-------- ------- -- ---------- --- - --- ----- ----- ----<br>---- --- --- ----- --- ---- ---- ------- most, ---- -------<br>--- --- -- ----- -- --- ---- -- --- ---- -- ------ ------<br>--- ----- -- ----",129051.00000000001,129050.00000000001,128419,128404,128435,129085,,36,"most,"
screen,html.Screen,1_1_0_1_37,2021-04-26T12:11:58.735Z,,,,,,,,,,,,,,,,53,,,,,,,,,,,,,,533,,response,,,,99,,,,,,,Space,keypress(Space),,,,,,,,---- -- ----- -- ------ - ------- --- ----------<br>------------- ------ ------ ---- ---- ------- ----- -- ----<br>-------- ------- -- ---------- --- - --- ----- ----- ----<br>---- --- --- ----- --- ---- ---- ------- ----- it's -------<br>--- --- -- ----- -- --- ---- -- --- ---- -- ------ ------<br>--- ----- -- ----,129603.00000000001,129602,129069,129051.00000000001,129085,129635,,37,it's
screen,html.Screen,1_1_0_1_38,2021-04-26T12:11:59.342Z,,,,,,,,,,,,,,,,53,,,,,,,,,,,,,,591,,response,,,,99,,,,,,,Space,keypress(Space),,,,,,,,---- -- ----- -- ------ - ------- --- ----------<br>------------- ------ ------ ---- ---- ------- ----- -- ----<br>-------- ------- -- ---------- --- - --- ----- ----- ----<br>---- --- --- ----- --- ---- ---- ------- ----- ---- whether<br>--- --- -- ----- -- --- ---- -- --- ---- -- ------ ------<br>--- ----- -- ----,130210.00000000001,130209,129618,129603.00000000001,129635,130252,,38,whether
screen,html.Screen,1_1_0_1_39,2021-04-26T12:11:59.765Z,,,,,,,,,,,,,,,,53,,,,,,,,,,,,,,397,,response,,,,99,,,,,,,Space,keypress(Space),,,,,,,,---- -- ----- -- ------ - ------- --- ----------<br>------------- ------ ------ ---- ---- ------- ----- -- ----<br>-------- ------- -- ---------- --- - --- ----- ----- ----<br>---- --- --- ----- --- ---- ---- ------- ----- ---- -------<br>you --- -- ----- -- --- ---- -- --- ---- -- ------ ------<br>--- ----- -- ----,130633.00000000001,130632,130235,130210.00000000001,130252,130669,,39,you
screen,html.Screen,1_1_0_1_40,2021-04-26T12:12:00.188Z,,,,,,,,,,,,,,,,53,,,,,,,,,,,,,,403,,response,,,,99,,,,,,,Space,keypress(Space),,,,,,,,---- -- ----- -- ------ - ------- --- ----------<br>------------- ------ ------ ---- ---- ------- ----- -- ----<br>-------- ------- -- ---------- --- - --- ----- ----- ----<br>---- --- --- ----- --- ---- ---- ------- ----- ---- -------<br>--- are -- ----- -- --- ---- -- --- ---- -- ------ ------<br>--- ----- -- ----,131056.00000000001,131055,130652,130633.00000000001,130669,131088,,40,are
screen,html.Screen,1_1_0_1_41,2021-04-26T12:12:00.609Z,,,,,,,,,,,,,,,,53,,,,,,,,,,,,,,404,,response,,,,99,,,,,,,Space,keypress(Space),,,,,,,,---- -- ----- -- ------ - ------- --- ----------<br>------------- ------ ------ ---- ---- ------- ----- -- ----<br>-------- ------- -- ---------- --- - --- ----- ----- ----<br>---- --- --- ----- --- ---- ---- ------- ----- ---- -------<br>--- --- as ----- -- --- ---- -- --- ---- -- ------ ------<br>--- ----- -- ----,131476,131476,131072,131056.00000000001,131088,131506,,41,as
screen,html.Screen,1_1_0_1_42,2021-04-26T12:12:01.072Z,,,,,,,,,,,,,,,,53,,,,,,,,,,,,,,450,,response,,,,99,,,,,,,Space,keypress(Space),,,,,,,,---- -- ----- -- ------ - ------- --- ----------<br>------------- ------ ------ ---- ---- ------- ----- -- ----<br>-------- ------- -- ---------- --- - --- ----- ----- ----<br>---- --- --- ----- --- ---- ---- ------- ----- ---- -------<br>--- --- -- close -- --- ---- -- --- ---- -- ------ ------<br>--- ----- -- ----,131940,131939,131489,131477,131506,131973,,42,close
screen,html.Screen,1_1_0_1_43,2021-04-26T12:12:01.472Z,,,,,,,,,,,,,,,,53,,,,,,,,,,,,,,383,,response,,,,99,,,,,,,Space,keypress(Space),,,,,,,,---- -- ----- -- ------ - ------- --- ----------<br>------------- ------ ------ ---- ---- ------- ----- -- ----<br>-------- ------- -- ---------- --- - --- ----- ----- ----<br>---- --- --- ----- --- ---- ---- ------- ----- ---- -------<br>--- --- -- ----- as --- ---- -- --- ---- -- ------ ------<br>--- ----- -- ----,132340,132339,131956,131940,131973,132373,,43,as
screen,html.Screen,1_1_0_1_44,2021-04-26T12:12:01.948Z,,,,,,,,,,,,,,,,53,,,,,,,,,,,,,,459,,response,,,,99,,,,,,,Space,keypress(Space),,,,,,,,---- -- ----- -- ------ - ------- --- ----------<br>------------- ------ ------ ---- ---- ------- ----- -- ----<br>-------- ------- -- ---------- --- - --- ----- ----- ----<br>---- --- --- ----- --- ---- ---- ------- ----- ---- -------<br>--- --- -- ----- -- you ---- -- --- ---- -- ------ ------<br>--- ----- -- ----,132815,132815,132356,132340,132373,132856,,44,you
screen,html.Screen,1_1_0_1_45,2021-04-26T12:12:02.401Z,,,,,,,,,,,,,,,,53,,,,,,,,,,,,,,429,,response,,,,99,,,,,,,Space,keypress(Space),,,,,,,,---- -- ----- -- ------ - ------- --- ----------<br>------------- ------ ------ ---- ---- ------- ----- -- ----<br>-------- ------- -- ---------- --- - --- ----- ----- ----<br>---- --- --- ----- --- ---- ---- ------- ----- ---- -------<br>--- --- -- ----- -- --- want -- --- ---- -- ------ ------<br>--- ----- -- ----,133269,133268,132839,132815,132856,133306,,45,want
screen,html.Screen,1_1_0_1_46,2021-04-26T12:12:02.768Z,,,,,,,,,,,,,,,,53,,,,,,,,,,,,,,346,,response,,,,99,,,,,,,Space,keypress(Space),,,,,,,,---- -- ----- -- ------ - ------- --- ----------<br>------------- ------ ------ ---- ---- ------- ----- -- ----<br>-------- ------- -- ---------- --- - --- ----- ----- ----<br>---- --- --- ----- --- ---- ---- ------- ----- ---- -------<br>--- --- -- ----- -- --- ---- to --- ---- -- ------ ------<br>--- ----- -- ----,133636,133635,133289,133269,133306,133656,,46,to
screen,html.Screen,1_1_0_1_47,2021-04-26T12:12:03.196Z,,,,,,,,,,,,,,,,53,,,,,,,,,,,,,,424.0000000000291,,response,,,,99,,,,,,,Space,keypress(Space),,,,,,,,"---- -- ----- -- ------ - ------- --- ----------<br>------------- ------ ------ ---- ---- ------- ----- -- ----<br>-------- ------- -- ---------- --- - --- ----- ----- ----<br>---- --- --- ----- --- ---- ---- ------- ----- ---- -------<br>--- --- -- ----- -- --- ---- -- be, ---- -- ------ ------<br>--- ----- -- ----",134063.00000000003,134063.00000000003,133639,133636,133656,134106,,47,"be,"
screen,html.Screen,1_1_0_1_48,2021-04-26T12:12:03.841Z,,,,,,,,,,,,,,,,53,,,,,,,,,,,,,,619,,response,,,,99,,,,,,,Space,keypress(Space),,,,,,,,---- -- ----- -- ------ - ------- --- ----------<br>------------- ------ ------ ---- ---- ------- ----- -- ----<br>-------- ------- -- ---------- --- - --- ----- ----- ----<br>---- --- --- ----- --- ---- ---- ------- ----- ---- -------<br>--- --- -- ----- -- --- ---- -- --- even -- ------ ------<br>--- ----- -- ----,134709,134708,134089,134063.00000000003,134106,134739,,48,even
screen,html.Screen,1_1_0_1_49,2021-04-26T12:12:04.379Z,,,,,,,,,,,,,,,,53,,,,,,,,,,,,,,524,,response,,,,99,,,,,,,Space,keypress(Space),,,,,,,,---- -- ----- -- ------ - ------- --- ----------<br>------------- ------ ------ ---- ---- ------- ----- -- ----<br>-------- ------- -- ---------- --- - --- ----- ----- ----<br>---- --- --- ----- --- ---- ---- ------- ----- ---- -------<br>--- --- -- ----- -- --- ---- -- --- ---- if ------ ------<br>--- ----- -- ----,135247,135247,134723,134709,134739,135289,,49,if
screen,html.Screen,1_1_0_1_50,2021-04-26T12:12:04.932Z,,,,,,,,,,,,,,,,53,,,,,,,,,,,,,,526,,response,,,,99,,,,,,,Space,keypress(Space),,,,,,,,---- -- ----- -- ------ - ------- --- ----------<br>------------- ------ ------ ---- ---- ------- ----- -- ----<br>-------- ------- -- ---------- --- - --- ----- ----- ----<br>---- --- --- ----- --- ---- ---- ------- ----- ---- -------<br>--- --- -- ----- -- --- ---- -- --- ---- -- that's ------<br>--- ----- -- ----,135800,135799,135273,135247,135289,135839,,50,that's
screen,html.Screen,1_1_0_1_51,2021-04-26T12:12:05.339Z,,,,,,,,,,,,,,,,53,,,,,,,,,,,,,,383,,response,,,,99,,,,,,,Space,keypress(Space),,,,,,,,---- -- ----- -- ------ - ------- --- ----------<br>------------- ------ ------ ---- ---- ------- ----- -- ----<br>-------- ------- -- ---------- --- - --- ----- ----- ----<br>---- --- --- ----- --- ---- ---- ------- ----- ---- -------<br>--- --- -- ----- -- --- ---- -- --- ---- -- ------ really<br>--- ----- -- ----,136207,136206,135823,135800,135839,136227,,51,really
screen,html.Screen,1_1_0_1_52,2021-04-26T12:12:05.855Z,,,,,,,,,,,,,,,,53,,,,,,,,,,,,,,513,,response,,,,99,,,,,,,Space,keypress(Space),,,,,,,,---- -- ----- -- ------ - ------- --- ----------<br>------------- ------ ------ ---- ---- ------- ----- -- ----<br>-------- ------- -- ---------- --- - --- ----- ----- ----<br>---- --- --- ----- --- ---- ---- ------- ----- ---- -------<br>--- --- -- ----- -- --- ---- -- --- ---- -- ------ ------<br>not ----- -- ----,136723,136723,136210,136207,136227,136760,,52,not
screen,html.Screen,1_1_0_1_53,2021-04-26T12:12:06.317Z,,,,,,,,,,,,,,,,53,,,,,,,,,,,,,,441,,response,,,,99,,,,,,,Space,keypress(Space),,,,,,,,---- -- ----- -- ------ - ------- --- ----------<br>------------- ------ ------ ---- ---- ------- ----- -- ----<br>-------- ------- -- ---------- --- - --- ----- ----- ----<br>---- --- --- ----- --- ---- ---- ------- ----- ---- -------<br>--- --- -- ----- -- --- ---- -- --- ---- -- ------ ------<br>--- close -- ----,137185,137184,136743,136723,136760,137227,,53,close
screen,html.Screen,1_1_0_1_54,2021-04-26T12:12:06.682Z,,,,,,,,,,,,,,,,53,,,,,,,,,,,,,,339,,response,,,,99,,,,,,,Space,keypress(Space),,,,,,,,---- -- ----- -- ------ - ------- --- ----------<br>------------- ------ ------ ---- ---- ------- ----- -- ----<br>-------- ------- -- ---------- --- - --- ----- ----- ----<br>---- --- --- ----- --- ---- ---- ------- ----- ---- -------<br>--- --- -- ----- -- --- ---- -- --- ---- -- ------ ------<br>--- ----- at ----,137550,137549,137210,137185,137227,137577,,54,at
screen,html.Screen,1_1_0_1_55,2021-04-26T12:12:07.217Z,,,,,,,,,,,,,,,,53,,,,,,,,,,,,,,524,,response,,,,99,,,,,,,Space,keypress(Space),,,,,,,,---- -- ----- -- ------ - ------- --- ----------<br>------------- ------ ------ ---- ---- ------- ----- -- ----<br>-------- ------- -- ---------- --- - --- ----- ----- ----<br>---- --- --- ----- --- ---- ---- ------- ----- ---- -------<br>--- --- -- ----- -- --- ---- -- --- ---- -- ------ ------<br>--- ----- -- all.,138085,138084,137560,137550,137577,138127,,55,all.
Item 99,flow.Loop,1_1_0_1,2021-04-26T12:12:07.217Z,,,,,,,,,,,,,,,,,,,,,,,,,,,,,,37580,,completion,,,,,C,,,,,,,,,,,silence,,,,,138085,138084,100481,100482,100504,138127,,,
Question 1,html.Screen,1_1_0_2,2021-04-26T12:12:15.556Z,,,,,,,,,,,,,,,,,,,,,,,,,,,true,FALSE,,8313,,response,,,,99,C,,,,,,FALSE,click #choice-2,,,,silence,,,,,146424,146423,138110,138085,138127,146447,,,
Question 2,html.Screen,1_1_0_3,2021-04-26T12:12:21.313Z,,,,,,,,,,,,,,,,,,,,,,,,,,,true,TRUE,,5750,,response,,,,99,C,,,,,,TRUE,click #choice-1,,,,silence,,,,,152181,152180,146430,146424,146447,152212,,,
Item 99,flow.Sequence,1_1_0,2021-04-26T12:12:21.313Z,,,,,,,,,,,,,,,,,,,,,,,,,,,,,,61689,,completion,,,,,,,,,,,,,,,,,,,,,152182.00000000003,152180,90475,90469.00000000001,90491,152212,,,
Holding screen,html.Screen,1_1_1_0,2021-04-26T12:12:31.330Z,,,,,,,,,,,,,,,,,,,,,,,,,,,,,,10003,,timeout,,,,,,,,,,,,,,,,,,,,,162199,162199,152196,152182.00000000003,152212,162215,,,
screen,html.Screen,1_1_1_1_0,2021-04-26T12:12:32.615Z,,,,,,,,,,,,,,,,54,,,,,,,,,,,,,,1284,,response,,,,100,,,,,,,Space,keypress(Space),,,,,,,,At --- ---- --- ------ ----- ------- ---- -- --- ------- --<br>------- ---------- ------ -- ----- -- ----- -- ---- ------<br>--- ----- --- --- ------ -------- ----- --- ------ ----- --<br>----- ----- ---------- --- --- ------ ------ ---- -- ------<br>------- --- ------ ----- --- ---- ------- -- ---- --- --<br>------- ------,163484,163483,162199,162200.00000000003,162215,163519,,0,At
screen,html.Screen,1_1_1_1_1,2021-04-26T12:12:33.195Z,,,,,,,,,,,,,,,,54,,,,,,,,,,,,,,562,,response,,,,100,,,,,,,Space,keypress(Space),,,,,,,,-- the ---- --- ------ ----- ------- ---- -- --- ------- --<br>------- ---------- ------ -- ----- -- ----- -- ---- ------<br>--- ----- --- --- ------ -------- ----- --- ------ ----- --<br>----- ----- ---------- --- --- ------ ------ ---- -- ------<br>------- --- ------ ----- --- ---- ------- -- ---- --- --<br>------- ------,164064,164064,163502,163484,163519,164103,,1,the
screen,html.Screen,1_1_1_1_2,2021-04-26T12:12:33.834Z,,,,,,,,,,,,,,,,54,,,,,,,,,,,,,,618,,response,,,,100,,,,,,,Space,keypress(Space),,,,,,,,-- --- time --- ------ ----- ------- ---- -- --- ------- --<br>------- ---------- ------ -- ----- -- ----- -- ---- ------<br>--- ----- --- --- ------ -------- ----- --- ------ ----- --<br>----- ----- ---------- --- --- ------ ------ ---- -- ------<br>------- --- ------ ----- --- ---- ------- -- ---- --- --<br>------- ------,164703,164704,164086,164064,164103,164735,,2,time
screen,html.Screen,1_1_1_1_3,2021-04-26T12:12:34.492Z,,,,,,,,,,,,,,,,54,,,,,,,,,,,,,,641,,response,,,,100,,,,,,,Space,keypress(Space),,,,,,,,-- --- ---- the ------ ----- ------- ---- -- --- ------- --<br>------- ---------- ------ -- ----- -- ----- -- ---- ------<br>--- ----- --- --- ------ -------- ----- --- ------ ----- --<br>----- ----- ---------- --- --- ------ ------ ---- -- ------<br>------- --- ------ ----- --- ---- ------- -- ---- --- --<br>------- ------,165361,165361,164720,164703,164735,165403,,3,the
screen,html.Screen,1_1_1_1_4,2021-04-26T12:12:35.234Z,,,,,,,,,,,,,,,,54,,,,,,,,,,,,,,717,,response,,,,100,,,,,,,Space,keypress(Space),,,,,,,,-- --- ---- --- French ----- ------- ---- -- --- ------- --<br>------- ---------- ------ -- ----- -- ----- -- ---- ------<br>--- ----- --- --- ------ -------- ----- --- ------ ----- --<br>----- ----- ---------- --- --- ------ ------ ---- -- ------<br>------- --- ------ ----- --- ---- ------- -- ---- --- --<br>------- ------,166103,166103,165386,165361,165403,166136,,4,French
screen,html.Screen,1_1_1_1_5,2021-04-26T12:12:35.858Z,,,,,,,,,,,,,,,,54,,,,,,,,,,,,,,608,,response,,,,100,,,,,,,Space,keypress(Space),,,,,,,,-- --- ---- --- ------ crown ------- ---- -- --- ------- --<br>------- ---------- ------ -- ----- -- ----- -- ---- ------<br>--- ----- --- --- ------ -------- ----- --- ------ ----- --<br>----- ----- ---------- --- --- ------ ------ ---- -- ------<br>------- --- ------ ----- --- ---- ------- -- ---- --- --<br>------- ------,166727,166727,166119,166103,166136,166769,,5,crown
screen,html.Screen,1_1_1_1_6,2021-04-26T12:12:36.545Z,,,,,,,,,,,,,,,,54,,,,,,,,,,,,,,661.0000000000291,,response,,,,100,,,,,,,Space,keypress(Space),,,,,,,,-- --- ---- --- ------ ----- secured ---- -- --- ------- --<br>------- ---------- ------ -- ----- -- ----- -- ---- ------<br>--- ----- --- --- ------ -------- ----- --- ------ ----- --<br>----- ----- ---------- --- --- ------ ------ ---- -- ------<br>------- --- ------ ----- --- ---- ------- -- ---- --- --<br>------- ------,167414.00000000003,167414.00000000003,166753,166727,166769,167453,,6,secured
screen,html.Screen,1_1_1_1_7,2021-04-26T12:12:37.164Z,,,,,,,,,,,,,,,,54,,,,,,,,,,,,,,598.0000000000291,,response,,,,100,,,,,,,Space,keypress(Space),,,,,,,,-- --- ---- --- ------ ----- ------- much -- --- ------- --<br>------- ---------- ------ -- ----- -- ----- -- ---- ------<br>--- ----- --- --- ------ -------- ----- --- ------ ----- --<br>----- ----- ---------- --- --- ------ ------ ---- -- ------<br>------- --- ------ ----- --- ---- ------- -- ---- --- --<br>------- ------,168033.00000000003,168033.00000000003,167435,167414.00000000003,167453,168073,,7,much
screen,html.Screen,1_1_1_1_8,2021-04-26T12:12:37.649Z,,,,,,,,,,,,,,,,54,,,,,,,,,,,,,,462,,response,,,,100,,,,,,,Space,keypress(Space),,,,,,,,-- --- ---- --- ------ ----- ------- ---- of --- ------- --<br>------- ---------- ------ -- ----- -- ----- -- ---- ------<br>--- ----- --- --- ------ -------- ----- --- ------ ----- --<br>----- ----- ---------- --- --- ------ ------ ---- -- ------<br>------- --- ------ ----- --- ---- ------- -- ---- --- --<br>------- ------,168519,168519,168057,168033.00000000003,168073,168557,,8,of
screen,html.Screen,1_1_1_1_9,2021-04-26T12:12:38.137Z,,,,,,,,,,,,,,,,54,,,,,,,,,,,,,,466,,response,,,,100,,,,,,,Space,keypress(Space),,,,,,,,-- --- ---- --- ------ ----- ------- ---- -- its ------- --<br>------- ---------- ------ -- ----- -- ----- -- ---- ------<br>--- ----- --- --- ------ -------- ----- --- ------ ----- --<br>----- ----- ---------- --- --- ------ ------ ---- -- ------<br>------- --- ------ ----- --- ---- ------- -- ---- --- --<br>------- ------,169006,169006,168540,168519,168557,169039,,9,its
screen,html.Screen,1_1_1_1_10,2021-04-26T12:12:38.983Z,,,,,,,,,,,,,,,,54,,,,,,,,,,,,,,830,,response,,,,100,,,,,,,Space,keypress(Space),,,,,,,,-- --- ---- --- ------ ----- ------- ---- -- --- revenue --<br>------- ---------- ------ -- ----- -- ----- -- ---- ------<br>--- ----- --- --- ------ -------- ----- --- ------ ----- --<br>----- ----- ---------- --- --- ------ ------ ---- -- ------<br>------- --- ------ ----- --- ---- ------- -- ---- --- --<br>------- ------,169853,169853,169023,169006,169039,169890,,10,revenue
screen,html.Screen,1_1_1_1_11,2021-04-26T12:12:39.722Z,,,,,,,,,,,,,,,,54,,,,,,,,,,,,,,718,,response,,,,100,,,,,,,Space,keypress(Space),,,,,,,,-- --- ---- --- ------ ----- ------- ---- -- --- ------- by<br>------- ---------- ------ -- ----- -- ----- -- ---- ------<br>--- ----- --- --- ------ -------- ----- --- ------ ----- --<br>----- ----- ---------- --- --- ------ ------ ---- -- ------<br>------- --- ------ ----- --- ---- ------- -- ---- --- --<br>------- ------,170591,170591,169873,169853,169890,170623,,11,by
screen,html.Screen,1_1_1_1_12,2021-04-26T12:12:40.382Z,,,,,,,,,,,,,,,,54,,,,,,,,,,,,,,644,,response,,,,100,,,,,,,Space,keypress(Space),,,,,,,,-- --- ---- --- ------ ----- ------- ---- -- --- ------- --<br>issuing ---------- ------ -- ----- -- ----- -- ---- ------<br>--- ----- --- --- ------ -------- ----- --- ------ ----- --<br>----- ----- ---------- --- --- ------ ------ ---- -- ------<br>------- --- ------ ----- --- ---- ------- -- ---- --- --<br>------- ------,171251,171251,170607,170591,170623,171290,,12,issuing
screen,html.Screen,1_1_1_1_13,2021-04-26T12:12:41.082Z,,,,,,,,,,,,,,,,54,,,,,,,,,,,,,,678,,response,,,,100,,,,,,,Space,keypress(Space),,,,,,,,-- --- ---- --- ------ ----- ------- ---- -- --- ------- --<br>------- government ------ -- ----- -- ----- -- ---- ------<br>--- ----- --- --- ------ -------- ----- --- ------ ----- --<br>----- ----- ---------- --- --- ------ ------ ---- -- ------<br>------- --- ------ ----- --- ---- ------- -- ---- --- --<br>------- ------,171951,171952,171274,171251,171290,171990,,13,government
screen,html.Screen,1_1_1_1_14,2021-04-26T12:12:41.710Z,,,,,,,,,,,,,,,,54,,,,,,,,,,,,,,606,,response,,,,100,,,,,,,Space,keypress(Space),,,,,,,,-- --- ---- --- ------ ----- ------- ---- -- --- ------- --<br>------- ---------- bonds. -- ----- -- ----- -- ---- ------<br>--- ----- --- --- ------ -------- ----- --- ------ ----- --<br>----- ----- ---------- --- --- ------ ------ ---- -- ------<br>------- --- ------ ----- --- ---- ------- -- ---- --- --<br>------- ------,172579,172579,171973,171951,171990,172606,,14,bonds.
screen,html.Screen,1_1_1_1_15,2021-04-26T12:12:42.619Z,,,,,,,,,,,,,,,,54,,,,,,,,,,,,,,899,,response,,,,100,,,,,,,Space,keypress(Space),,,,,,,,-- --- ---- --- ------ ----- ------- ---- -- --- ------- --<br>------- ---------- ------ In ----- -- ----- -- ---- ------<br>--- ----- --- --- ------ -------- ----- --- ------ ----- --<br>----- ----- ---------- --- --- ------ ------ ---- -- ------<br>------- --- ------ ----- --- ---- ------- -- ---- --- --<br>------- ------,173488,173489,172590,172579,172606,173528,,15,In
screen,html.Screen,1_1_1_1_16,2021-04-26T12:12:44.087Z,,,,,,,,,,,,,,,,54,,,,,,,,,,,,,,1446,,response,,,,100,,,,,,,Space,keypress(Space),,,,,,,,"-- --- ---- --- ------ ----- ------- ---- -- --- ------- --<br>------- ---------- ------ -- 1727, -- ----- -- ---- ------<br>--- ----- --- --- ------ -------- ----- --- ------ ----- --<br>----- ----- ---------- --- --- ------ ------ ---- -- ------<br>------- --- ------ ----- --- ---- ------- -- ---- --- --<br>------- ------",174957,174957,173511,173489,173528,174994,,16,"1727,"
screen,html.Screen,1_1_1_1_17,2021-04-26T12:12:45.098Z,,,,,,,,,,,,,,,,54,,,,,,,,,,,,,,991.0000000000291,,response,,,,100,,,,,,,Space,keypress(Space),,,,,,,,-- --- ---- --- ------ ----- ------- ---- -- --- ------- --<br>------- ---------- ------ -- ----- in ----- -- ---- ------<br>--- ----- --- --- ------ -------- ----- --- ------ ----- --<br>----- ----- ---------- --- --- ------ ------ ---- -- ------<br>------- --- ------ ----- --- ---- ------- -- ---- --- --<br>------- ------,175968.00000000003,175968.00000000003,174977,174957,174994,176010,,17,in
screen,html.Screen,1_1_1_1_18,2021-04-26T12:12:45.659Z,,,,,,,,,,,,,,,,54,,,,,,,,,,,,,,536,,response,,,,100,,,,,,,Space,keypress(Space),,,,,,,,-- --- ---- --- ------ ----- ------- ---- -- --- ------- --<br>------- ---------- ------ -- ----- -- order -- ---- ------<br>--- ----- --- --- ------ -------- ----- --- ------ ----- --<br>----- ----- ---------- --- --- ------ ------ ---- -- ------<br>------- --- ------ ----- --- ---- ------- -- ---- --- --<br>------- ------,176529,176530,175994,175968.00000000003,176010,176561,,18,order
screen,html.Screen,1_1_1_1_19,2021-04-26T12:12:46.122Z,,,,,,,,,,,,,,,,54,,,,,,,,,,,,,,449,,response,,,,100,,,,,,,Space,keypress(Space),,,,,,,,-- --- ---- --- ------ ----- ------- ---- -- --- ------- --<br>------- ---------- ------ -- ----- -- ----- to ---- ------<br>--- ----- --- --- ------ -------- ----- --- ------ ----- --<br>----- ----- ---------- --- --- ------ ------ ---- -- ------<br>------- --- ------ ----- --- ---- ------- -- ---- --- --<br>------- ------,176992,176992,176543,176529,176561,177028,,19,to
screen,html.Screen,1_1_1_1_20,2021-04-26T12:12:46.577Z,,,,,,,,,,,,,,,,54,,,,,,,,,,,,,,437,,response,,,,100,,,,,,,Space,keypress(Space),,,,,,,,-- --- ---- --- ------ ----- ------- ---- -- --- ------- --<br>------- ---------- ------ -- ----- -- ----- -- save ------<br>--- ----- --- --- ------ -------- ----- --- ------ ----- --<br>----- ----- ---------- --- --- ------ ------ ---- -- ------<br>------- --- ------ ----- --- ---- ------- -- ---- --- --<br>------- ------,177446,177447,177010,176992,177028,177477,,20,save
screen,html.Screen,1_1_1_1_21,2021-04-26T12:12:47.017Z,,,,,,,,,,,,,,,,54,,,,,,,,,,,,,,426,,response,,,,100,,,,,,,Space,keypress(Space),,,,,,,,"-- --- ---- --- ------ ----- ------- ---- -- --- ------- --<br>------- ---------- ------ -- ----- -- ----- -- ---- money,<br>--- ----- --- --- ------ -------- ----- --- ------ ----- --<br>----- ----- ---------- --- --- ------ ------ ---- -- ------<br>------- --- ------ ----- --- ---- ------- -- ---- --- --<br>------- ------",177887,177887,177461,177447,177477,177927,,21,"money,"
screen,html.Screen,1_1_1_1_22,2021-04-26T12:12:47.795Z,,,,,,,,,,,,,,,,54,,,,,,,,,,,,,,754,,response,,,,100,,,,,,,Space,keypress(Space),,,,,,,,-- --- ---- --- ------ ----- ------- ---- -- --- ------- --<br>------- ---------- ------ -- ----- -- ----- -- ---- ------<br>the ----- --- --- ------ -------- ----- --- ------ ----- --<br>----- ----- ---------- --- --- ------ ------ ---- -- ------<br>------- --- ------ ----- --- ---- ------- -- ---- --- --<br>------- ------,178664.00000000003,178665,177911,177887,177927,178698,,22,the
screen,html.Screen,1_1_1_1_23,2021-04-26T12:12:48.439Z,,,,,,,,,,,,,,,,54,,,,,,,,,,,,,,627,,response,,,,100,,,,,,,Space,keypress(Space),,,,,,,,-- --- ---- --- ------ ----- ------- ---- -- --- ------- --<br>------- ---------- ------ -- ----- -- ----- -- ---- ------<br>--- state --- --- ------ -------- ----- --- ------ ----- --<br>----- ----- ---------- --- --- ------ ------ ---- -- ------<br>------- --- ------ ----- --- ---- ------- -- ---- --- --<br>------- ------,179309,179309,178682,178665,178698,179348,,23,state
screen,html.Screen,1_1_1_1_24,2021-04-26T12:12:48.997Z,,,,,,,,,,,,,,,,54,,,,,,,,,,,,,,535,,response,,,,100,,,,,,,Space,keypress(Space),,,,,,,,-- --- ---- --- ------ ----- ------- ---- -- --- ------- --<br>------- ---------- ------ -- ----- -- ----- -- ---- ------<br>--- ----- cut --- ------ -------- ----- --- ------ ----- --<br>----- ----- ---------- --- --- ------ ------ ---- -- ------<br>------- --- ------ ----- --- ---- ------- -- ---- --- --<br>------- ------,179867,179867,179332,179309,179348,179898,,24,cut
screen,html.Screen,1_1_1_1_25,2021-04-26T12:12:49.429Z,,,,,,,,,,,,,,,,54,,,,,,,,,,,,,,418,,response,,,,100,,,,,,,Space,keypress(Space),,,,,,,,-- --- ---- --- ------ ----- ------- ---- -- --- ------- --<br>------- ---------- ------ -- ----- -- ----- -- ---- ------<br>--- ----- --- the ------ -------- ----- --- ------ ----- --<br>----- ----- ---------- --- --- ------ ------ ---- -- ------<br>------- --- ------ ----- --- ---- ------- -- ---- --- --<br>------- ------,180298,180299,179881,179867,179898,180332,,25,the
screen,html.Screen,1_1_1_1_26,2021-04-26T12:12:50.229Z,,,,,,,,,,,,,,,,54,,,,,,,,,,,,,,785.0000000000291,,response,,,,100,,,,,,,Space,keypress(Space),,,,,,,,-- --- ---- --- ------ ----- ------- ---- -- --- ------- --<br>------- ---------- ------ -- ----- -- ----- -- ---- ------<br>--- ----- --- --- bonds' -------- ----- --- ------ ----- --<br>----- ----- ---------- --- --- ------ ------ ---- -- ------<br>------- --- ------ ----- --- ---- ------- -- ---- --- --<br>------- ------,181098,181099.00000000003,180314,180298,180332,181132,,26,bonds'
screen,html.Screen,1_1_1_1_27,2021-04-26T12:12:50.865Z,,,,,,,,,,,,,,,,54,,,,,,,,,,,,,,621,,response,,,,100,,,,,,,Space,keypress(Space),,,,,,,,-- --- ---- --- ------ ----- ------- ---- -- --- ------- --<br>------- ---------- ------ -- ----- -- ----- -- ---- ------<br>--- ----- --- --- ------ interest ----- --- ------ ----- --<br>----- ----- ---------- --- --- ------ ------ ---- -- ------<br>------- --- ------ ----- --- ---- ------- -- ---- --- --<br>------- ------,181735,181735,181114,181098,181132,181765,,27,interest
screen,html.Screen,1_1_1_1_28,2021-04-26T12:12:51.527Z,,,,,,,,,,,,,,,,54,,,,,,,,,,,,,,649,,response,,,,100,,,,,,,Space,keypress(Space),,,,,,,,-- --- ---- --- ------ ----- ------- ---- -- --- ------- --<br>------- ---------- ------ -- ----- -- ----- -- ---- ------<br>--- ----- --- --- ------ -------- rate. --- ------ ----- --<br>----- ----- ---------- --- --- ------ ------ ---- -- ------<br>------- --- ------ ----- --- ---- ------- -- ---- --- --<br>------- ------,182397,182397,181748,181735,181765,182432,,28,rate.
screen,html.Screen,1_1_1_1_29,2021-04-26T12:12:52.123Z,,,,,,,,,,,,,,,,54,,,,,,,,,,,,,,579,,response,,,,100,,,,,,,Space,keypress(Space),,,,,,,,-- --- ---- --- ------ ----- ------- ---- -- --- ------- --<br>------- ---------- ------ -- ----- -- ----- -- ---- ------<br>--- ----- --- --- ------ -------- ----- The ------ ----- --<br>----- ----- ---------- --- --- ------ ------ ---- -- ------<br>------- --- ------ ----- --- ---- ------- -- ---- --- --<br>------- ------,182993,182994,182415,182397,182432,183031,,29,The
screen,html.Screen,1_1_1_1_30,2021-04-26T12:12:52.708Z,,,,,,,,,,,,,,,,54,,,,,,,,,,,,,,564,,response,,,,100,,,,,,,Space,keypress(Space),,,,,,,,-- --- ---- --- ------ ----- ------- ---- -- --- ------- --<br>------- ---------- ------ -- ----- -- ----- -- ---- ------<br>--- ----- --- --- ------ -------- ----- --- market ----- --<br>----- ----- ---------- --- --- ------ ------ ---- -- ------<br>------- --- ------ ----- --- ---- ------- -- ---- --- --<br>------- ------,183578,183579,183015,182993,183031,183619,,30,market
screen,html.Screen,1_1_1_1_31,2021-04-26T12:12:53.156Z,,,,,,,,,,,,,,,,54,,,,,,,,,,,,,,424,,response,,,,100,,,,,,,Space,keypress(Space),,,,,,,,-- --- ---- --- ------ ----- ------- ---- -- --- ------- --<br>------- ---------- ------ -- ----- -- ----- -- ---- ------<br>--- ----- --- --- ------ -------- ----- --- ------ value --<br>----- ----- ---------- --- --- ------ ------ ---- -- ------<br>------- --- ------ ----- --- ---- ------- -- ---- --- --<br>------- ------,184025,184026,183602,183578,183619,184052,,31,value
screen,html.Screen,1_1_1_1_32,2021-04-26T12:12:53.609Z,,,,,,,,,,,,,,,,54,,,,,,,,,,,,,,444,,response,,,,100,,,,,,,Space,keypress(Space),,,,,,,,-- --- ---- --- ------ ----- ------- ---- -- --- ------- --<br>------- ---------- ------ -- ----- -- ----- -- ---- ------<br>--- ----- --- --- ------ -------- ----- --- ------ ----- of<br>----- ----- ---------- --- --- ------ ------ ---- -- ------<br>------- --- ------ ----- --- ---- ------- -- ---- --- --<br>------- ------,184479,184480,184036,184025,184052,184519,,32,of
screen,html.Screen,1_1_1_1_33,2021-04-26T12:12:54.081Z,,,,,,,,,,,,,,,,54,,,,,,,,,,,,,,448,,response,,,,100,,,,,,,Space,keypress(Space),,,,,,,,-- --- ---- --- ------ ----- ------- ---- -- --- ------- --<br>------- ---------- ------ -- ----- -- ----- -- ---- ------<br>--- ----- --- --- ------ -------- ----- --- ------ ----- --<br>these ----- ---------- --- --- ------ ------ ---- -- ------<br>------- --- ------ ----- --- ---- ------- -- ---- --- --<br>------- ------,184951,184951,184503,184479,184519,184986,,33,these
screen,html.Screen,1_1_1_1_34,2021-04-26T12:12:54.602Z,,,,,,,,,,,,,,,,54,,,,,,,,,,,,,,504,,response,,,,100,,,,,,,Space,keypress(Space),,,,,,,,-- --- ---- --- ------ ----- ------- ---- -- --- ------- --<br>------- ---------- ------ -- ----- -- ----- -- ---- ------<br>--- ----- --- --- ------ -------- ----- --- ------ ----- --<br>----- bonds ---------- --- --- ------ ------ ---- -- ------<br>------- --- ------ ----- --- ---- ------- -- ---- --- --<br>------- ------,185472,185473,184969,184951,184986,185502,,34,bonds
screen,html.Screen,1_1_1_1_35,2021-04-26T12:12:55.184Z,,,,,,,,,,,,,,,,54,,,,,,,,,,,,,,570,,response,,,,100,,,,,,,Space,keypress(Space),,,,,,,,"-- --- ---- --- ------ ----- ------- ---- -- --- ------- --<br>------- ---------- ------ -- ----- -- ----- -- ---- ------<br>--- ----- --- --- ------ -------- ----- --- ------ ----- --<br>----- ----- plummeted, --- --- ------ ------ ---- -- ------<br>------- --- ------ ----- --- ---- ------- -- ---- --- --<br>------- ------",186054,186055,185485,185472,185502,186085,,35,"plummeted,"
screen,html.Screen,1_1_1_1_36,2021-04-26T12:12:55.812Z,,,,,,,,,,,,,,,,54,,,,,,,,,,,,,,615,,response,,,,100,,,,,,,Space,keypress(Space),,,,,,,,-- --- ---- --- ------ ----- ------- ---- -- --- ------- --<br>------- ---------- ------ -- ----- -- ----- -- ---- ------<br>--- ----- --- --- ------ -------- ----- --- ------ ----- --<br>----- ----- ---------- and --- ------ ------ ---- -- ------<br>------- --- ------ ----- --- ---- ------- -- ---- --- --<br>------- ------,186682.00000000003,186683,186068,186054,186085,186719,,36,and
screen,html.Screen,1_1_1_1_37,2021-04-26T12:12:56.198Z,,,,,,,,,,,,,,,,54,,,,,,,,,,,,,,366.0000000000291,,response,,,,100,,,,,,,Space,keypress(Space),,,,,,,,-- --- ---- --- ------ ----- ------- ---- -- --- ------- --<br>------- ---------- ------ -- ----- -- ----- -- ---- ------<br>--- ----- --- --- ------ -------- ----- --- ------ ----- --<br>----- ----- ---------- --- the ------ ------ ---- -- ------<br>------- --- ------ ----- --- ---- ------- -- ---- --- --<br>------- ------,187068,187069.00000000003,186703,186682.00000000003,186719,187086,,37,the
screen,html.Screen,1_1_1_1_38,2021-04-26T12:12:56.702Z,,,,,,,,,,,,,,,,54,,,,,,,,,,,,,,504,,response,,,,100,,,,,,,Space,keypress(Space),,,,,,,,-- --- ---- --- ------ ----- ------- ---- -- --- ------- --<br>------- ---------- ------ -- ----- -- ----- -- ---- ------<br>--- ----- --- --- ------ -------- ----- --- ------ ----- --<br>----- ----- ---------- --- --- market ------ ---- -- ------<br>------- --- ------ ----- --- ---- ------- -- ---- --- --<br>------- ------,187571,187573,187069,187068,187086,187602,,38,market
screen,html.Screen,1_1_1_1_39,2021-04-26T12:12:57.135Z,,,,,,,,,,,,,,,,54,,,,,,,,,,,,,,421,,response,,,,100,,,,,,,Space,keypress(Space),,,,,,,,-- --- ---- --- ------ ----- ------- ---- -- --- ------- --<br>------- ---------- ------ -- ----- -- ----- -- ---- ------<br>--- ----- --- --- ------ -------- ----- --- ------ ----- --<br>----- ----- ---------- --- --- ------ became ---- -- ------<br>------- --- ------ ----- --- ---- ------- -- ---- --- --<br>------- ------,188005,188006,187585,187572,187602,188036,,39,became
screen,html.Screen,1_1_1_1_40,2021-04-26T12:12:57.626Z,,,,,,,,,,,,,,,,54,,,,,,,,,,,,,,478,,response,,,,100,,,,,,,Space,keypress(Space),,,,,,,,-- --- ---- --- ------ ----- ------- ---- -- --- ------- --<br>------- ---------- ------ -- ----- -- ----- -- ---- ------<br>--- ----- --- --- ------ -------- ----- --- ------ ----- --<br>----- ----- ---------- --- --- ------ ------ wary -- ------<br>------- --- ------ ----- --- ---- ------- -- ---- --- --<br>------- ------,188495,188497,188019,188005,188036,188522,,40,wary
screen,html.Screen,1_1_1_1_41,2021-04-26T12:12:58.182Z,,,,,,,,,,,,,,,,54,,,,,,,,,,,,,,547,,response,,,,100,,,,,,,Space,keypress(Space),,,,,,,,-- --- ---- --- ------ ----- ------- ---- -- --- ------- --<br>------- ---------- ------ -- ----- -- ----- -- ---- ------<br>--- ----- --- --- ------ -------- ----- --- ------ ----- --<br>----- ----- ---------- --- --- ------ ------ ---- of ------<br>------- --- ------ ----- --- ---- ------- -- ---- --- --<br>------- ------,189052,189053,188506,188496,188522,189090,,41,of
screen,html.Screen,1_1_1_1_42,2021-04-26T12:12:58.631Z,,,,,,,,,,,,,,,,54,,,,,,,,,,,,,,430,,response,,,,100,,,,,,,Space,keypress(Space),,,,,,,,-- --- ---- --- ------ ----- ------- ---- -- --- ------- --<br>------- ---------- ------ -- ----- -- ----- -- ---- ------<br>--- ----- --- --- ------ -------- ----- --- ------ ----- --<br>----- ----- ---------- --- --- ------ ------ ---- -- French<br>------- --- ------ ----- --- ---- ------- -- ---- --- --<br>------- ------,189501,189502,189072,189052,189090,189540,,42,French
screen,html.Screen,1_1_1_1_43,2021-04-26T12:12:59.214Z,,,,,,,,,,,,,,,,54,,,,,,,,,,,,,,563,,response,,,,100,,,,,,,Space,keypress(Space),,,,,,,,-- --- ---- --- ------ ----- ------- ---- -- --- ------- --<br>------- ---------- ------ -- ----- -- ----- -- ---- ------<br>--- ----- --- --- ------ -------- ----- --- ------ ----- --<br>----- ----- ---------- --- --- ------ ------ ---- -- ------<br>credit. --- ------ ----- --- ---- ------- -- ---- --- --<br>------- ------,190084,190085,189522,189501,189540,190123,,43,credit.
screen,html.Screen,1_1_1_1_44,2021-04-26T12:12:59.732Z,,,,,,,,,,,,,,,,54,,,,,,,,,,,,,,497,,response,,,,100,,,,,,,Space,keypress(Space),,,,,,,,-- --- ---- --- ------ ----- ------- ---- -- --- ------- --<br>------- ---------- ------ -- ----- -- ----- -- ---- ------<br>--- ----- --- --- ------ -------- ----- --- ------ ----- --<br>----- ----- ---------- --- --- ------ ------ ---- -- ------<br>------- The ------ ----- --- ---- ------- -- ---- --- --<br>------- ------,190602,190604,190107,190084,190123,190639,,44,The
screen,html.Screen,1_1_1_1_45,2021-04-26T12:13:00.345Z,,,,,,,,,,,,,,,,54,,,,,,,,,,,,,,593,,response,,,,100,,,,,,,Space,keypress(Space),,,,,,,,-- --- ---- --- ------ ----- ------- ---- -- --- ------- --<br>------- ---------- ------ -- ----- -- ----- -- ---- ------<br>--- ----- --- --- ------ -------- ----- --- ------ ----- --<br>----- ----- ---------- --- --- ------ ------ ---- -- ------<br>------- --- French ----- --- ---- ------- -- ---- --- --<br>------- ------,191215,191216,190623,190602,190639,191255,,45,French
screen,html.Screen,1_1_1_1_46,2021-04-26T12:13:00.772Z,,,,,,,,,,,,,,,,54,,,,,,,,,,,,,,403,,response,,,,100,,,,,,,Space,keypress(Space),,,,,,,,-- --- ---- --- ------ ----- ------- ---- -- --- ------- --<br>------- ---------- ------ -- ----- -- ----- -- ---- ------<br>--- ----- --- --- ------ -------- ----- --- ------ ----- --<br>----- ----- ---------- --- --- ------ ------ ---- -- ------<br>------- --- ------ state --- ---- ------- -- ---- --- --<br>------- ------,191642,191643,191240,191215,191255,191673,,46,state
screen,html.Screen,1_1_1_1_47,2021-04-26T12:13:01.223Z,,,,,,,,,,,,,,,,54,,,,,,,,,,,,,,440,,response,,,,100,,,,,,,Space,keypress(Space),,,,,,,,-- --- ---- --- ------ ----- ------- ---- -- --- ------- --<br>------- ---------- ------ -- ----- -- ----- -- ---- ------<br>--- ----- --- --- ------ -------- ----- --- ------ ----- --<br>----- ----- ---------- --- --- ------ ------ ---- -- ------<br>------- --- ------ ----- was ---- ------- -- ---- --- --<br>------- ------,192093.00000000003,192095,191655,191642,191673,192122,,47,was
screen,html.Screen,1_1_1_1_48,2021-04-26T12:13:01.689Z,,,,,,,,,,,,,,,,54,,,,,,,,,,,,,,455,,response,,,,100,,,,,,,Space,keypress(Space),,,,,,,,-- --- ---- --- ------ ----- ------- ---- -- --- ------- --<br>------- ---------- ------ -- ----- -- ----- -- ---- ------<br>--- ----- --- --- ------ -------- ----- --- ------ ----- --<br>----- ----- ---------- --- --- ------ ------ ---- -- ------<br>------- --- ------ ----- --- left ------- -- ---- --- --<br>------- ------,192559,192561,192106,192093.00000000003,192122,192589,,48,left
screen,html.Screen,1_1_1_1_49,2021-04-26T12:13:02.127Z,,,,,,,,,,,,,,,,54,,,,,,,,,,,,,,425,,response,,,,100,,,,,,,Space,keypress(Space),,,,,,,,-- --- ---- --- ------ ----- ------- ---- -- --- ------- --<br>------- ---------- ------ -- ----- -- ----- -- ---- ------<br>--- ----- --- --- ------ -------- ----- --- ------ ----- --<br>----- ----- ---------- --- --- ------ ------ ---- -- ------<br>------- --- ------ ----- --- ---- without -- ---- --- --<br>------- ------,192997,192998,192573,192559,192589,193039,,49,without
screen,html.Screen,1_1_1_1_50,2021-04-26T12:13:02.523Z,,,,,,,,,,,,,,,,54,,,,,,,,,,,,,,372,,response,,,,100,,,,,,,Space,keypress(Space),,,,,,,,-- --- ---- --- ------ ----- ------- ---- -- --- ------- --<br>------- ---------- ------ -- ----- -- ----- -- ---- ------<br>--- ----- --- --- ------ -------- ----- --- ------ ----- --<br>----- ----- ---------- --- --- ------ ------ ---- -- ------<br>------- --- ------ ----- --- ---- ------- an ---- --- --<br>------- ------,193393,193395,193023,192997,193039,193411,,50,an
screen,html.Screen,1_1_1_1_51,2021-04-26T12:13:02.928Z,,,,,,,,,,,,,,,,54,,,,,,,,,,,,,,406,,response,,,,100,,,,,,,Space,keypress(Space),,,,,,,,-- --- ---- --- ------ ----- ------- ---- -- --- ------- --<br>------- ---------- ------ -- ----- -- ----- -- ---- ------<br>--- ----- --- --- ------ -------- ----- --- ------ ----- --<br>----- ----- ---------- --- --- ------ ------ ---- -- ------<br>------- --- ------ ----- --- ---- ------- -- easy --- --<br>------- ------,193798,193800,193394,193393,193411,193828,,51,easy
screen,html.Screen,1_1_1_1_52,2021-04-26T12:13:03.359Z,,,,,,,,,,,,,,,,54,,,,,,,,,,,,,,421,,response,,,,100,,,,,,,Space,keypress(Space),,,,,,,,-- --- ---- --- ------ ----- ------- ---- -- --- ------- --<br>------- ---------- ------ -- ----- -- ----- -- ---- ------<br>--- ----- --- --- ------ -------- ----- --- ------ ----- --<br>----- ----- ---------- --- --- ------ ------ ---- -- ------<br>------- --- ------ ----- --- ---- ------- -- ---- way --<br>------- ------,194229,194231,193810,193798,193828,194260,,52,way
screen,html.Screen,1_1_1_1_53,2021-04-26T12:13:03.795Z,,,,,,,,,,,,,,,,54,,,,,,,,,,,,,,423,,response,,,,100,,,,,,,Space,keypress(Space),,,,,,,,-- --- ---- --- ------ ----- ------- ---- -- --- ------- --<br>------- ---------- ------ -- ----- -- ----- -- ---- ------<br>--- ----- --- --- ------ -------- ----- --- ------ ----- --<br>----- ----- ---------- --- --- ------ ------ ---- -- ------<br>------- --- ------ ----- --- ---- ------- -- ---- --- of<br>------- ------,194665,194667,194244,194229,194260,194694,,53,of
screen,html.Screen,1_1_1_1_54,2021-04-26T12:13:04.231Z,,,,,,,,,,,,,,,,54,,,,,,,,,,,,,,424,,response,,,,100,,,,,,,Space,keypress(Space),,,,,,,,-- --- ---- --- ------ ----- ------- ---- -- --- ------- --<br>------- ---------- ------ -- ----- -- ----- -- ---- ------<br>--- ----- --- --- ------ -------- ----- --- ------ ----- --<br>----- ----- ---------- --- --- ------ ------ ---- -- ------<br>------- --- ------ ----- --- ---- ------- -- ---- --- --<br>raising ------,195101,195102,194678,194665,194694,195143,,54,raising
screen,html.Screen,1_1_1_1_55,2021-04-26T12:13:04.631Z,,,,,,,,,,,,,,,,54,,,,,,,,,,,,,,375,,response,,,,100,,,,,,,Space,keypress(Space),,,,,,,,-- --- ---- --- ------ ----- ------- ---- -- --- ------- --<br>------- ---------- ------ -- ----- -- ----- -- ---- ------<br>--- ----- --- --- ------ -------- ----- --- ------ ----- --<br>----- ----- ---------- --- --- ------ ------ ---- -- ------<br>------- --- ------ ----- --- ---- ------- -- ---- --- --<br>------- money.,195501,195502,195127,195101,195143,195527,,55,money.
Item 100,flow.Loop,1_1_1_1,2021-04-26T12:13:04.631Z,,,,,,,,,,,,,,,,,,,,,,,,,,,,,,33287,,completion,,,,,C,,,,,,,,,,,silence,,,,,195501,195502,162199,162200.00000000003,162215,195527,,,
Question 1,html.Screen,1_1_1_2,2021-04-26T12:13:07.851Z,,,,,,,,,,,,,,,,,,,,,,,,,,,true,TRUE,,3213.000000000029,,response,,,,100,C,,,,,,TRUE,click #choice-1,,,,silence,,,,,198722,198724.00000000003,195511,195501,195527,198745,,,
Question 2,html.Screen,1_1_1_3,2021-04-26T12:13:09.762Z,,,,,,,,,,,,,,,,,,,,,,,,,,,true,FALSE,,1907,,response,,,,100,C,,,,,,FALSE,click #choice-2,,,,silence,,,,,200633,200636,198729,198722,198745,200663,,,
Item 100,flow.Sequence,1_1_1,2021-04-26T12:13:09.762Z,,,,,,,,,,,,,,,,,,,,,,,,,,,,,,48424,,completion,,,,,,,,,,,,,,,,,,,,,200633,200636,152196,152182.00000000003,152212,200663,,,
End of Practice,html.Page,1_1_2,2021-04-26T12:13:12.049Z,,,,,,,,,,,,,,,,,,,,,,,,,,,,,,2256,,form submission,,,,,,,,,,,,,,,,,,,,,202920.00000000003,202919,200646,200633,200663,202946,,,
Practice,flow.Sequence,1_1,2021-04-26T12:13:12.049Z,,,,,,,,,,,,,,,,,,,,,,,,,,,,,,112428,,completion,,,,,,,,,,,,,,,,,,,,,202920.00000000003,202919,90475,90469.00000000001,90491,202946,,,
Trap_instruction,html.Page,1_2_0,2021-04-26T12:13:17.138Z,,,,,,,,,,,,,,,,,,,,,,,,,,,,,,5062,,form submission,,,,,,,,,,,,,,,,,,,,,208008,208008,202930,202920.00000000003,202946,208038,,,
trap_trial,html.Screen,1_2_1,2021-04-26T12:13:20.790Z,,,,,,,,,,,,,,,,,,,,,,,,,,,true,1,,3643.000000000029,,response,,,,,,,,,,,1,click #choice-1,,,,,,,,,211661,211664.00000000003,208021,208008,208038,211698,,,
end of trap trial,html.Page,1_2_2,2021-04-26T12:13:22.711Z,,,,,,,,,,,,,,,,,,,,,,,,,,,,,,1884,,form submission,,,,,,,,,,,,,,,,,,,,,213582,213582,211694,211661,211698,213608,,,
Trap 1,flow.Sequence,1_2,2021-04-26T12:13:22.711Z,,,,,,,,,,,,,,,,,,,,,,,,,,,,,,10636,,completion,,,,,,,,,,,,,,,,,,,,,213582,213582,202930,202920.00000000003,202946,213608,,,
Standby,html.Page,1_3_0,2021-04-26T12:13:30.722Z,,,,,,,,,,,,,,,,,,,,,,,,,,,,,,8001,,timeout,,,,,,,,,,,,,,,,,,,,,221593.00000000003,221593,213593,213582,213608,221609,,,
Holding screen,html.Screen,1_3_1_0_0,2021-04-26T12:13:37.714Z,,,,,,,,,,,,,,,,,,,,,,,,,,,,,,6992,,timeout,,,,,,,,,,,,,,,,,,,,,228585,228585,221593,221593.00000000003,221609,228601,,,
screen,html.Screen,1_3_1_0_1_0,2021-04-26T12:13:41.049Z,,,,,,,,,,,,,,,,15,,,,,,,,,,,,,,3337,,response,,,,7,C,,,,,,Space,keypress(Space),,,,instrumental,,,,Greg --------- ---------- - --- ------- -- --- ------------<br>----- -- -------- ------- ---- ------ - -------- ---- -----<br>--- ------- ---- -- --- -------- --- - ----- ------ ---- --<br>-------- --- -------- -------- --- -------- ---- -- ----- -<br>-------- ---- --- ---------- --------- -- ------- ------ -<br>--------- ----- -----,231920.00000000003,231922,228585,228585,228601,231951,,0,Greg
screen,html.Screen,1_3_1_0_1_1,2021-04-26T12:13:42.038Z,,,,,,,,,,,,,,,,15,,,,,,,,,,,,,,979,,response,,,,7,C,,,,,,Space,keypress(Space),,,,instrumental,,,,"---- Anderson, ---------- - --- ------- -- --- ------------<br>----- -- -------- ------- ---- ------ - -------- ---- -----<br>--- ------- ---- -- --- -------- --- - ----- ------ ---- --<br>-------- --- -------- -------- --- -------- ---- -- ----- -<br>-------- ---- --- ---------- --------- -- ------- ------ -<br>--------- ----- -----",232910,232913,231934,231920.00000000003,231951,232949,,1,"Anderson,"
screen,html.Screen,1_3_1_0_1_2,2021-04-26T12:13:43.408Z,,,,,,,,,,,,,,,,15,,,,,,,,,,,,,,1350,,response,,,,7,C,,,,,,Space,keypress(Space),,,,instrumental,,,,---- --------- considered - --- ------- -- --- ------------<br>----- -- -------- ------- ---- ------ - -------- ---- -----<br>--- ------- ---- -- --- -------- --- - ----- ------ ---- --<br>-------- --- -------- -------- --- -------- ---- -- ----- -<br>-------- ---- --- ---------- --------- -- ------- ------ -<br>--------- ----- -----,234279,234282,232932,232910,232949,234314,,2,considered
screen,html.Screen,1_3_1_0_1_3,2021-04-26T12:13:44.335Z,,,,,,,,,,,,,,,,15,,,,,,,,,,,,,,912,,response,,,,7,C,,,,,,Space,keypress(Space),,,,instrumental,,,,---- --------- ---------- a --- ------- -- --- ------------<br>----- -- -------- ------- ---- ------ - -------- ---- -----<br>--- ------- ---- -- --- -------- --- - ----- ------ ---- --<br>-------- --- -------- -------- --- -------- ---- -- ----- -<br>-------- ---- --- ---------- --------- -- ------- ------ -<br>--------- ----- -----,235207,235210,234298,234280,234314,235247,,3,a
screen,html.Screen,1_3_1_0_1_4,2021-04-26T12:13:45.309Z,,,,,,,,,,,,,,,,15,,,,,,,,,,,,,,951,,response,,,,7,C,,,,,,Space,keypress(Space),,,,instrumental,,,,---- --------- ---------- - key ------- -- --- ------------<br>----- -- -------- ------- ---- ------ - -------- ---- -----<br>--- ------- ---- -- --- -------- --- - ----- ------ ---- --<br>-------- --- -------- -------- --- -------- ---- -- ----- -<br>-------- ---- --- ---------- --------- -- ------- ------ -<br>--------- ----- -----,236180,236183,235232,235207,235247,236215,,4,key
screen,html.Screen,1_3_1_0_1_5,2021-04-26T12:13:46.154Z,,,,,,,,,,,,,,,,15,,,,,,,,,,,,,,831,,response,,,,7,C,,,,,,Space,keypress(Space),,,,instrumental,,,,---- --------- ---------- - --- witness -- --- ------------<br>----- -- -------- ------- ---- ------ - -------- ---- -----<br>--- ------- ---- -- --- -------- --- - ----- ------ ---- --<br>-------- --- -------- -------- --- -------- ---- -- ----- -<br>-------- ---- --- ---------- --------- -- ------- ------ -<br>--------- ----- -----,237026,237029,236198,236180,236215,237065,,5,witness
screen,html.Screen,1_3_1_0_1_6,2021-04-26T12:13:47.055Z,,,,,,,,,,,,,,,,15,,,,,,,,,,,,,,882,,response,,,,7,C,,,,,,Space,keypress(Space),,,,instrumental,,,,---- --------- ---------- - --- ------- by --- ------------<br>----- -- -------- ------- ---- ------ - -------- ---- -----<br>--- ------- ---- -- --- -------- --- - ----- ------ ---- --<br>-------- --- -------- -------- --- -------- ---- -- ----- -<br>-------- ---- --- ---------- --------- -- ------- ------ -<br>--------- ----- -----,237927,237929,237047,237026,237065,237969,,6,by
screen,html.Screen,1_3_1_0_1_7,2021-04-26T12:13:49.163Z,,,,,,,,,,,,,,,,15,,,,,,,,,,,,,,2085,,response,,,,7,C,,,,,,Space,keypress(Space),,,,instrumental,,,,---- --------- ---------- - --- ------- -- the ------------<br>----- -- -------- ------- ---- ------ - -------- ---- -----<br>--- ------- ---- -- --- -------- --- - ----- ------ ---- --<br>-------- --- -------- -------- --- -------- ---- -- ----- -<br>-------- ---- --- ---------- --------- -- ------- ------ -<br>--------- ----- -----,240035,240038,237953,237927,237969,240069,,7,the
screen,html.Screen,1_3_1_0_1_8,2021-04-26T12:13:50.014Z,,,,,,,,,,,,,,,,15,,,,,,,,,,,,,,836,,response,,,,7,C,,,,,,Space,keypress(Space),,,,instrumental,,,,"---- --------- ---------- - --- ------- -- --- prosecution,<br>----- -- -------- ------- ---- ------ - -------- ---- -----<br>--- ------- ---- -- --- -------- --- - ----- ------ ---- --<br>-------- --- -------- -------- --- -------- ---- -- ----- -<br>-------- ---- --- ---------- --------- -- ------- ------ -<br>--------- ----- -----",240886,240889,240053,240035,240069,240919,,8,"prosecution,"
screen,html.Screen,1_3_1_0_1_9,2021-04-26T12:13:50.928Z,,,,,,,,,,,,,,,,15,,,,,,,,,,,,,,900,,response,,,,7,C,,,,,,Space,keypress(Space),,,,instrumental,,,,---- --------- ---------- - --- ------- -- --- ------------<br>vowed -- -------- ------- ---- ------ - -------- ---- -----<br>--- ------- ---- -- --- -------- --- - ----- ------ ---- --<br>-------- --- -------- -------- --- -------- ---- -- ----- -<br>-------- ---- --- ---------- --------- -- ------- ------ -<br>--------- ----- -----,241800,241803,240903,240886,240919,241836,,9,vowed
screen,html.Screen,1_3_1_0_1_10,2021-04-26T12:13:53.680Z,,,,,,,,,,,,,,,,15,,,,,,,,,,,,,,2735,,response,,,,7,C,,,,,,Space,keypress(Space),,,,instrumental,,,,---- --------- ---------- - --- ------- -- --- ------------<br>----- he -------- ------- ---- ------ - -------- ---- -----<br>--- ------- ---- -- --- -------- --- - ----- ------ ---- --<br>-------- --- -------- -------- --- -------- ---- -- ----- -<br>-------- ---- --- ---------- --------- -- ------- ------ -<br>--------- ----- -----,244552,244555,241820,241800,241836,244591,,10,he
screen,html.Screen,1_3_1_0_1_11,2021-04-26T12:13:54.488Z,,,,,,,,,,,,,,,,15,,,,,,,,,,,,,,788,,response,,,,7,C,,,,,,Space,keypress(Space),,,,instrumental,,,,---- --------- ---------- - --- ------- -- --- ------------<br>----- -- wouldn't ------- ---- ------ - -------- ---- -----<br>--- ------- ---- -- --- -------- --- - ----- ------ ---- --<br>-------- --- -------- -------- --- -------- ---- -- ----- -<br>-------- ---- --- ---------- --------- -- ------- ------ -<br>--------- ----- -----,245360,245363,244575,244552,244591,245391,,11,wouldn't
screen,html.Screen,1_3_1_0_1_12,2021-04-26T12:13:56.142Z,,,,,,,,,,,,,,,,15,,,,,,,,,,,,,,1642,,response,,,,7,C,,,,,,Space,keypress(Space),,,,instrumental,,,,---- --------- ---------- - --- ------- -- --- ------------<br>----- -- -------- testify ---- ------ - -------- ---- -----<br>--- ------- ---- -- --- -------- --- - ----- ------ ---- --<br>-------- --- -------- -------- --- -------- ---- -- ----- -<br>-------- ---- --- ---------- --------- -- ------- ------ -<br>--------- ----- -----,247014,247017,245375,245360,245391,247041,,12,testify
screen,html.Screen,1_3_1_0_1_13,2021-04-26T12:13:57.548Z,,,,,,,,,,,,,,,,15,,,,,,,,,,,,,,1399,,response,,,,7,C,,,,,,Space,keypress(Space),,,,instrumental,,,,---- --------- ---------- - --- ------- -- --- ------------<br>----- -- -------- ------- when ------ - -------- ---- -----<br>--- ------- ---- -- --- -------- --- - ----- ------ ---- --<br>-------- --- -------- -------- --- -------- ---- -- ----- -<br>-------- ---- --- ---------- --------- -- ------- ------ -<br>--------- ----- -----,248420.00000000003,248424,247025,247014,247041,248458,,13,when
screen,html.Screen,1_3_1_0_1_14,2021-04-26T12:13:58.705Z,,,,,,,,,,,,,,,,15,,,,,,,,,,,,,,1138,,response,,,,7,C,,,,,,Space,keypress(Space),,,,instrumental,,,,---- --------- ---------- - --- ------- -- --- ------------<br>----- -- -------- ------- ---- served - -------- ---- -----<br>--- ------- ---- -- --- -------- --- - ----- ------ ---- --<br>-------- --- -------- -------- --- -------- ---- -- ----- -<br>-------- ---- --- ---------- --------- -- ------- ------ -<br>--------- ----- -----,249577,249580,248442,248421,248458,249611,,14,served
screen,html.Screen,1_3_1_0_1_15,2021-04-26T12:13:59.455Z,,,,,,,,,,,,,,,,15,,,,,,,,,,,,,,735.0000000000291,,response,,,,7,C,,,,,,Space,keypress(Space),,,,instrumental,,,,---- --------- ---------- - --- ------- -- --- ------------<br>----- -- -------- ------- ---- ------ a -------- ---- -----<br>--- ------- ---- -- --- -------- --- - ----- ------ ---- --<br>-------- --- -------- -------- --- -------- ---- -- ----- -<br>-------- ---- --- ---------- --------- -- ------- ------ -<br>--------- ----- -----,250327,250331.00000000003,249596,249577,249611,250362,,15,a
screen,html.Screen,1_3_1_0_1_16,2021-04-26T12:14:00.406Z,,,,,,,,,,,,,,,,15,,,,,,,,,,,,,,936,,response,,,,7,C,,,,,,Space,keypress(Space),,,,instrumental,,,,---- --------- ---------- - --- ------- -- --- ------------<br>----- -- -------- ------- ---- ------ - subpoena ---- -----<br>--- ------- ---- -- --- -------- --- - ----- ------ ---- --<br>-------- --- -------- -------- --- -------- ---- -- ----- -<br>-------- ---- --- ---------- --------- -- ------- ------ -<br>--------- ----- -----,251278,251282,250346,250327,250362,251312,,16,subpoena
screen,html.Screen,1_3_1_0_1_17,2021-04-26T12:14:00.981Z,,,,,,,,,,,,,,,,15,,,,,,,,,,,,,,561,,response,,,,7,C,,,,,,Space,keypress(Space),,,,instrumental,,,,---- --------- ---------- - --- ------- -- --- ------------<br>----- -- -------- ------- ---- ------ - -------- last -----<br>--- ------- ---- -- --- -------- --- - ----- ------ ---- --<br>-------- --- -------- -------- --- -------- ---- -- ----- -<br>-------- ---- --- ---------- --------- -- ------- ------ -<br>--------- ----- -----,251854,251857,251296,251279,251312,251896,,17,last
screen,html.Screen,1_3_1_0_1_18,2021-04-26T12:14:01.632Z,,,,,,,,,,,,,,,,15,,,,,,,,,,,,,,629,,response,,,,7,C,,,,,,Space,keypress(Space),,,,instrumental,,,,---- --------- ---------- - --- ------- -- --- ------------<br>----- -- -------- ------- ---- ------ - -------- ---- week.<br>--- ------- ---- -- --- -------- --- - ----- ------ ---- --<br>-------- --- -------- -------- --- -------- ---- -- ----- -<br>-------- ---- --- ---------- --------- -- ------- ------ -<br>--------- ----- -----,252504.00000000003,252508,251879,251854,251896,252546,,18,week.
screen,html.Screen,1_3_1_0_1_19,2021-04-26T12:14:02.248Z,,,,,,,,,,,,,,,,15,,,,,,,,,,,,,,595,,response,,,,7,C,,,,,,Space,keypress(Space),,,,instrumental,,,,---- --------- ---------- - --- ------- -- --- ------------<br>----- -- -------- ------- ---- ------ - -------- ---- -----<br>His ------- ---- -- --- -------- --- - ----- ------ ---- --<br>-------- --- -------- -------- --- -------- ---- -- ----- -<br>-------- ---- --- ---------- --------- -- ------- ------ -<br>--------- ----- -----,253120,253124,252529,252505,252546,253161,,19,His
screen,html.Screen,1_3_1_0_1_20,2021-04-26T12:14:02.868Z,,,,,,,,,,,,,,,,15,,,,,,,,,,,,,,598,,response,,,,7,C,,,,,,Space,keypress(Space),,,,instrumental,,,,---- --------- ---------- - --- ------- -- --- ------------<br>----- -- -------- ------- ---- ------ - -------- ---- -----<br>--- lawyers ---- -- --- -------- --- - ----- ------ ---- --<br>-------- --- -------- -------- --- -------- ---- -- ----- -<br>-------- ---- --- ---------- --------- -- ------- ------ -<br>--------- ----- -----,253740,253744,253146,253120,253161,253779,,20,lawyers
screen,html.Screen,1_3_1_0_1_21,2021-04-26T12:14:03.478Z,,,,,,,,,,,,,,,,15,,,,,,,,,,,,,,592,,response,,,,7,C,,,,,,Space,keypress(Space),,,,instrumental,,,,---- --------- ---------- - --- ------- -- --- ------------<br>----- -- -------- ------- ---- ------ - -------- ---- -----<br>--- ------- said -- --- -------- --- - ----- ------ ---- --<br>-------- --- -------- -------- --- -------- ---- -- ----- -<br>-------- ---- --- ---------- --------- -- ------- ------ -<br>--------- ----- -----,254351,254354,253762,253740,253779,254383,,21,said
screen,html.Screen,1_3_1_0_1_22,2021-04-26T12:14:04.142Z,,,,,,,,,,,,,,,,15,,,,,,,,,,,,,,652,,response,,,,7,C,,,,,,Space,keypress(Space),,,,instrumental,,,,---- --------- ---------- - --- ------- -- --- ------------<br>----- -- -------- ------- ---- ------ - -------- ---- -----<br>--- ------- ---- he --- -------- --- - ----- ------ ---- --<br>-------- --- -------- -------- --- -------- ---- -- ----- -<br>-------- ---- --- ---------- --------- -- ------- ------ -<br>--------- ----- -----,255014,255018,254366,254351,254383,255050,,22,he
screen,html.Screen,1_3_1_0_1_23,2021-04-26T12:14:04.612Z,,,,,,,,,,,,,,,,15,,,,,,,,,,,,,,455,,response,,,,7,C,,,,,,Space,keypress(Space),,,,instrumental,,,,---- --------- ---------- - --- ------- -- --- ------------<br>----- -- -------- ------- ---- ------ - -------- ---- -----<br>--- ------- ---- -- was -------- --- - ----- ------ ---- --<br>-------- --- -------- -------- --- -------- ---- -- ----- -<br>-------- ---- --- ---------- --------- -- ------- ------ -<br>--------- ----- -----,255484,255488,255033,255014,255050,255516,,23,was
screen,html.Screen,1_3_1_0_1_24,2021-04-26T12:14:05.231Z,,,,,,,,,,,,,,,,15,,,,,,,,,,,,,,607.0000000000291,,response,,,,7,C,,,,,,Space,keypress(Space),,,,instrumental,,,,---- --------- ---------- - --- ------- -- --- ------------<br>----- -- -------- ------- ---- ------ - -------- ---- -----<br>--- ------- ---- -- --- prepared --- - ----- ------ ---- --<br>-------- --- -------- -------- --- -------- ---- -- ----- -<br>-------- ---- --- ---------- --------- -- ------- ------ -<br>--------- ----- -----,256103,256107.00000000003,255500,255484,255516,256133,,24,prepared
screen,html.Screen,1_3_1_0_1_25,2021-04-26T12:14:05.942Z,,,,,,,,,,,,,,,,15,,,,,,,,,,,,,,701.9999999999709,,response,,,,7,C,,,,,,Space,keypress(Space),,,,instrumental,,,,---- --------- ---------- - --- ------- -- --- ------------<br>----- -- -------- ------- ---- ------ - -------- ---- -----<br>--- ------- ---- -- --- -------- for - ----- ------ ---- --<br>-------- --- -------- -------- --- -------- ---- -- ----- -<br>-------- ---- --- ---------- --------- -- ------- ------ -<br>--------- ----- -----,256814.00000000003,256817.99999999997,256116,256103,256133,256850,,25,for
screen,html.Screen,1_3_1_0_1_26,2021-04-26T12:14:06.474Z,,,,,,,,,,,,,,,,15,,,,,,,,,,,,,,517.0000000000291,,response,,,,7,C,,,,,,Space,keypress(Space),,,,instrumental,,,,---- --------- ---------- - --- ------- -- --- ------------<br>----- -- -------- ------- ---- ------ - -------- ---- -----<br>--- ------- ---- -- --- -------- --- a ----- ------ ---- --<br>-------- --- -------- -------- --- -------- ---- -- ----- -<br>-------- ---- --- ---------- --------- -- ------- ------ -<br>--------- ----- -----,257346,257350.00000000003,256833,256814.00000000003,256850,257383,,26,a
screen,html.Screen,1_3_1_0_1_27,2021-04-26T12:14:07.161Z,,,,,,,,,,,,,,,,15,,,,,,,,,,,,,,670.9999999999709,,response,,,,7,C,,,,,,Space,keypress(Space),,,,instrumental,,,,---- --------- ---------- - --- ------- -- --- ------------<br>----- -- -------- ------- ---- ------ - -------- ---- -----<br>--- ------- ---- -- --- -------- --- - third ------ ---- --<br>-------- --- -------- -------- --- -------- ---- -- ----- -<br>-------- ---- --- ---------- --------- -- ------- ------ -<br>--------- ----- -----,258033.00000000003,258036.99999999997,257366,257346,257383,258066,,27,third
screen,html.Screen,1_3_1_0_1_28,2021-04-26T12:14:07.919Z,,,,,,,,,,,,,,,,15,,,,,,,,,,,,,,745.0000000000291,,response,,,,7,C,,,,,,Space,keypress(Space),,,,instrumental,,,,---- --------- ---------- - --- ------- -- --- ------------<br>----- -- -------- ------- ---- ------ - -------- ---- -----<br>--- ------- ---- -- --- -------- --- - ----- prison ---- --<br>-------- --- -------- -------- --- -------- ---- -- ----- -<br>-------- ---- --- ---------- --------- -- ------- ------ -<br>--------- ----- -----,258791,258795.00000000003,258050,258033.00000000003,258066,258833,,28,prison
screen,html.Screen,1_3_1_0_1_29,2021-04-26T12:14:08.606Z,,,,,,,,,,,,,,,,15,,,,,,,,,,,,,,665.0000000000291,,response,,,,7,C,,,,,,Space,keypress(Space),,,,instrumental,,,,---- --------- ---------- - --- ------- -- --- ------------<br>----- -- -------- ------- ---- ------ - -------- ---- -----<br>--- ------- ---- -- --- -------- --- - ----- ------ stay --<br>-------- --- -------- -------- --- -------- ---- -- ----- -<br>-------- ---- --- ---------- --------- -- ------- ------ -<br>--------- ----- -----,259478.99999999997,259482.00000000003,258817,258791,258833,259520,,29,stay
screen,html.Screen,1_3_1_0_1_30,2021-04-26T12:14:09.093Z,,,,,,,,,,,,,,,,15,,,,,,,,,,,,,,466,,response,,,,7,C,,,,,,Space,keypress(Space),,,,instrumental,,,,---- --------- ---------- - --- ------- -- --- ------------<br>----- -- -------- ------- ---- ------ - -------- ---- -----<br>--- ------- ---- -- --- -------- --- - ----- ------ ---- to<br>-------- --- -------- -------- --- -------- ---- -- ----- -<br>-------- ---- --- ---------- --------- -- ------- ------ -<br>--------- ----- -----,259965.00000000003,259969,259503,259478.99999999997,259520,260004,,30,to
screen,html.Screen,1_3_1_0_1_31,2021-04-26T12:14:09.770Z,,,,,,,,,,,,,,,,15,,,,,,,,,,,,,,659.0000000000291,,response,,,,7,C,,,,,,Space,keypress(Space),,,,instrumental,,,,---- --------- ---------- - --- ------- -- --- ------------<br>----- -- -------- ------- ---- ------ - -------- ---- -----<br>--- ------- ---- -- --- -------- --- - ----- ------ ---- --<br>maintain --- -------- -------- --- -------- ---- -- ----- -<br>-------- ---- --- ---------- --------- -- ------- ------ -<br>--------- ----- -----,260642,260646.00000000003,259987,259965.00000000003,260004,260670,,31,maintain
screen,html.Screen,1_3_1_0_1_32,2021-04-26T12:14:12.102Z,,,,,,,,,,,,,,,,15,,,,,,,,,,,,,,2324,,response,,,,7,C,,,,,,Space,keypress(Space),,,,instrumental,,,,---- --------- ---------- - --- ------- -- --- ------------<br>----- -- -------- ------- ---- ------ - -------- ---- -----<br>--- ------- ---- -- --- -------- --- - ----- ------ ---- --<br>-------- his -------- -------- --- -------- ---- -- ----- -<br>-------- ---- --- ---------- --------- -- ------- ------ -<br>--------- ----- -----,262974,262978,260654,260642,260670,263004,,32,his
screen,html.Screen,1_3_1_0_1_33,2021-04-26T12:14:12.907Z,,,,,,,,,,,,,,,,15,,,,,,,,,,,,,,796,,response,,,,7,C,,,,,,Space,keypress(Space),,,,instrumental,,,,---- --------- ---------- - --- ------- -- --- ------------<br>----- -- -------- ------- ---- ------ - -------- ---- -----<br>--- ------- ---- -- --- -------- --- - ----- ------ ---- --<br>-------- --- silence. -------- --- -------- ---- -- ----- -<br>-------- ---- --- ---------- --------- -- ------- ------ -<br>--------- ----- -----,263779,263783,262987,262974,263004,263820,,33,silence.
screen,html.Screen,1_3_1_0_1_34,2021-04-26T12:14:13.761Z,,,,,,,,,,,,,,,,15,,,,,,,,,,,,,,835.0000000000582,,response,,,,7,C,,,,,,Space,keypress(Space),,,,instrumental,,,,---- --------- ---------- - --- ------- -- --- ------------<br>----- -- -------- ------- ---- ------ - -------- ---- -----<br>--- ------- ---- -- --- -------- --- - ----- ------ ---- --<br>-------- --- -------- Anderson --- -------- ---- -- ----- -<br>-------- ---- --- ---------- --------- -- ------- ------ -<br>--------- ----- -----,264634,264638.00000000006,263803,263779,263820,264675,,34,Anderson
screen,html.Screen,1_3_1_0_1_35,2021-04-26T12:14:14.292Z,,,,,,,,,,,,,,,,15,,,,,,,,,,,,,,512,,response,,,,7,C,,,,,,Space,keypress(Space),,,,instrumental,,,,---- --------- ---------- - --- ------- -- --- ------------<br>----- -- -------- ------- ---- ------ - -------- ---- -----<br>--- ------- ---- -- --- -------- --- - ----- ------ ---- --<br>-------- --- -------- -------- was -------- ---- -- ----- -<br>-------- ---- --- ---------- --------- -- ------- ------ -<br>--------- ----- -----,265165,265169,264657,264634,264675,265207,,35,was
screen,html.Screen,1_3_1_0_1_36,2021-04-26T12:14:15.238Z,,,,,,,,,,,,,,,,15,,,,,,,,,,,,,,923.0000000000582,,response,,,,7,C,,,,,,Space,keypress(Space),,,,instrumental,,,,---- --------- ---------- - --- ------- -- --- ------------<br>----- -- -------- ------- ---- ------ - -------- ---- -----<br>--- ------- ---- -- --- -------- --- - ----- ------ ---- --<br>-------- --- -------- -------- --- released ---- -- ----- -<br>-------- ---- --- ---------- --------- -- ------- ------ -<br>--------- ----- -----,266110,266114.00000000006,265191,265165,265207,266142,,36,released
screen,html.Screen,1_3_1_0_1_37,2021-04-26T12:14:15.857Z,,,,,,,,,,,,,,,,15,,,,,,,,,,,,,,608,,response,,,,7,C,,,,,,Space,keypress(Space),,,,instrumental,,,,---- --------- ---------- - --- ------- -- --- ------------<br>----- -- -------- ------- ---- ------ - -------- ---- -----<br>--- ------- ---- -- --- -------- --- - ----- ------ ---- --<br>-------- --- -------- -------- --- -------- July -- ----- -<br>-------- ---- --- ---------- --------- -- ------- ------ -<br>--------- ----- -----,266729,266733,266125,266111,266142,266758,,37,July
screen,html.Screen,1_3_1_0_1_38,2021-04-26T12:14:16.317Z,,,,,,,,,,,,,,,,15,,,,,,,,,,,,,,453,,response,,,,7,C,,,,,,Space,keypress(Space),,,,instrumental,,,,---- --------- ---------- - --- ------- -- --- ------------<br>----- -- -------- ------- ---- ------ - -------- ---- -----<br>--- ------- ---- -- --- -------- --- - ----- ------ ---- --<br>-------- --- -------- -------- --- -------- ---- 20 ----- -<br>-------- ---- --- ---------- --------- -- ------- ------ -<br>--------- ----- -----,267190,267194,266741,266729,266758,267225,,38,20
screen,html.Screen,1_3_1_0_1_39,2021-04-26T12:14:17.023Z,,,,,,,,,,,,,,,,15,,,,,,,,,,,,,,693,,response,,,,7,C,,,,,,Space,keypress(Space),,,,instrumental,,,,---- --------- ---------- - --- ------- -- --- ------------<br>----- -- -------- ------- ---- ------ - -------- ---- -----<br>--- ------- ---- -- --- -------- --- - ----- ------ ---- --<br>-------- --- -------- -------- --- -------- ---- -- after -<br>-------- ---- --- ---------- --------- -- ------- ------ -<br>--------- ----- -----,267896,267900,267207,267190,267225,267924,,39,after
screen,html.Screen,1_3_1_0_1_40,2021-04-26T12:14:17.913Z,,,,,,,,,,,,,,,,15,,,,,,,,,,,,,,882,,response,,,,7,C,,,,,,Space,keypress(Space),,,,instrumental,,,,---- --------- ---------- - --- ------- -- --- ------------<br>----- -- -------- ------- ---- ------ - -------- ---- -----<br>--- ------- ---- -- --- -------- --- - ----- ------ ---- --<br>-------- --- -------- -------- --- -------- ---- -- ----- a<br>-------- ---- --- ---------- --------- -- ------- ------ -<br>--------- ----- -----,268786,268790,267908,267896,267924,268825,,40,a
screen,html.Screen,1_3_1_0_1_41,2021-04-26T12:14:18.478Z,,,,,,,,,,,,,,,,15,,,,,,,,,,,,,,547,,response,,,,7,C,,,,,,Space,keypress(Space),,,,instrumental,,,,---- --------- ---------- - --- ------- -- --- ------------<br>----- -- -------- ------- ---- ------ - -------- ---- -----<br>--- ------- ---- -- --- -------- --- - ----- ------ ---- --<br>-------- --- -------- -------- --- -------- ---- -- ----- -<br>two-week ---- --- ---------- --------- -- ------- ------ -<br>--------- ----- -----,269351,269355,268808,268786,268825,269378,,41,two-week
screen,html.Screen,1_3_1_0_1_42,2021-04-26T12:14:18.984Z,,,,,,,,,,,,,,,,15,,,,,,,,,,,,,,499,,response,,,,7,C,,,,,,Space,keypress(Space),,,,instrumental,,,,---- --------- ---------- - --- ------- -- --- ------------<br>----- -- -------- ------- ---- ------ - -------- ---- -----<br>--- ------- ---- -- --- -------- --- - ----- ------ ---- --<br>-------- --- -------- -------- --- -------- ---- -- ----- -<br>-------- stay --- ---------- --------- -- ------- ------ -<br>--------- ----- -----,269857,269861,269362,269351,269378,269895,,42,stay
screen,html.Screen,1_3_1_0_1_43,2021-04-26T12:14:19.465Z,,,,,,,,,,,,,,,,15,,,,,,,,,,,,,,463,,response,,,,7,C,,,,,,Space,keypress(Space),,,,instrumental,,,,---- --------- ---------- - --- ------- -- --- ------------<br>----- -- -------- ------- ---- ------ - -------- ---- -----<br>--- ------- ---- -- --- -------- --- - ----- ------ ---- --<br>-------- --- -------- -------- --- -------- ---- -- ----- -<br>-------- ---- for ---------- --------- -- ------- ------ -<br>--------- ----- -----,270338,270342,269879,269857,269895,270379,,43,for
screen,html.Screen,1_3_1_0_1_44,2021-04-26T12:14:19.961Z,,,,,,,,,,,,,,,,15,,,,,,,,,,,,,,476,,response,,,,7,C,,,,,,Space,keypress(Space),,,,instrumental,,,,---- --------- ---------- - --- ------- -- --- ------------<br>----- -- -------- ------- ---- ------ - -------- ---- -----<br>--- ------- ---- -- --- -------- --- - ----- ------ ---- --<br>-------- --- -------- -------- --- -------- ---- -- ----- -<br>-------- ---- --- previously --------- -- ------- ------ -<br>--------- ----- -----,270834,270838,270362,270338,270379,270862,,44,previously
screen,html.Screen,1_3_1_0_1_45,2021-04-26T12:14:20.398Z,,,,,,,,,,,,,,,,15,,,,,,,,,,,,,,430,,response,,,,7,C,,,,,,Space,keypress(Space),,,,instrumental,,,,---- --------- ---------- - --- ------- -- --- ------------<br>----- -- -------- ------- ---- ------ - -------- ---- -----<br>--- ------- ---- -- --- -------- --- - ----- ------ ---- --<br>-------- --- -------- -------- --- -------- ---- -- ----- -<br>-------- ---- --- ---------- declining -- ------- ------ -<br>--------- ----- -----,271271,271275,270845,270834,270862,271311,,45,declining
screen,html.Screen,1_3_1_0_1_46,2021-04-26T12:14:20.870Z,,,,,,,,,,,,,,,,15,,,,,,,,,,,,,,451,,response,,,,7,C,,,,,,Space,keypress(Space),,,,instrumental,,,,---- --------- ---------- - --- ------- -- --- ------------<br>----- -- -------- ------- ---- ------ - -------- ---- -----<br>--- ------- ---- -- --- -------- --- - ----- ------ ---- --<br>-------- --- -------- -------- --- -------- ---- -- ----- -<br>-------- ---- --- ---------- --------- to ------- ------ -<br>--------- ----- -----,271743,271746,271295,271272,271311,271778,,46,to
screen,html.Screen,1_3_1_0_1_47,2021-04-26T12:14:21.414Z,,,,,,,,,,,,,,,,15,,,,,,,,,,,,,,529,,response,,,,7,C,,,,,,Space,keypress(Space),,,,instrumental,,,,---- --------- ---------- - --- ------- -- --- ------------<br>----- -- -------- ------- ---- ------ - -------- ---- -----<br>--- ------- ---- -- --- -------- --- - ----- ------ ---- --<br>-------- --- -------- -------- --- -------- ---- -- ----- -<br>-------- ---- --- ---------- --------- -- testify ------ -<br>--------- ----- -----,272287,272291,271762,271743,271778,272329,,47,testify
screen,html.Screen,1_3_1_0_1_48,2021-04-26T12:14:21.841Z,,,,,,,,,,,,,,,,15,,,,,,,,,,,,,,406,,response,,,,7,C,,,,,,Space,keypress(Space),,,,instrumental,,,,---- --------- ---------- - --- ------- -- --- ------------<br>----- -- -------- ------- ---- ------ - -------- ---- -----<br>--- ------- ---- -- --- -------- --- - ----- ------ ---- --<br>-------- --- -------- -------- --- -------- ---- -- ----- -<br>-------- ---- --- ---------- --------- -- ------- before -<br>--------- ----- -----,272714,272718,272312,272287,272329,272746,,48,before
screen,html.Screen,1_3_1_0_1_49,2021-04-26T12:14:22.271Z,,,,,,,,,,,,,,,,15,,,,,,,,,,,,,,419,,response,,,,7,C,,,,,,Space,keypress(Space),,,,instrumental,,,,---- --------- ---------- - --- ------- -- --- ------------<br>----- -- -------- ------- ---- ------ - -------- ---- -----<br>--- ------- ---- -- --- -------- --- - ----- ------ ---- --<br>-------- --- -------- -------- --- -------- ---- -- ----- -<br>-------- ---- --- ---------- --------- -- ------- ------ a<br>--------- ----- -----,273144,273148,272729,272714,272746,273179,,49,a
screen,html.Screen,1_3_1_0_1_50,2021-04-26T12:14:22.660Z,,,,,,,,,,,,,,,,15,,,,,,,,,,,,,,375,,response,,,,7,C,,,,,,Space,keypress(Space),,,,instrumental,,,,---- --------- ---------- - --- ------- -- --- ------------<br>----- -- -------- ------- ---- ------ - -------- ---- -----<br>--- ------- ---- -- --- -------- --- - ----- ------ ---- --<br>-------- --- -------- -------- --- -------- ---- -- ----- -<br>-------- ---- --- ---------- --------- -- ------- ------ -<br>different ----- -----,273533,273537,273162,273144,273179,273562,,50,different
screen,html.Screen,1_3_1_0_1_51,2021-04-26T12:14:22.980Z,,,,,,,,,,,,,,,,15,,,,,,,,,,,,,,311,,response,,,,7,C,,,,,,Space,keypress(Space),,,,instrumental,,,,---- --------- ---------- - --- ------- -- --- ------------<br>----- -- -------- ------- ---- ------ - -------- ---- -----<br>--- ------- ---- -- --- -------- --- - ----- ------ ---- --<br>-------- --- -------- -------- --- -------- ---- -- ----- -<br>-------- ---- --- ---------- --------- -- ------- ------ -<br>--------- grand -----,273853,273857,273546,273533,273562,273879,,51,grand
screen,html.Screen,1_3_1_0_1_52,2021-04-26T12:14:23.402Z,,,,,,,,,,,,,,,,15,,,,,,,,,,,,,,417,,response,,,,7,C,,,,,,Space,keypress(Space),,,,instrumental,,,,---- --------- ---------- - --- ------- -- --- ------------<br>----- -- -------- ------- ---- ------ - -------- ---- -----<br>--- ------- ---- -- --- -------- --- - ----- ------ ---- --<br>-------- --- -------- -------- --- -------- ---- -- ----- -<br>-------- ---- --- ---------- --------- -- ------- ------ -<br>--------- ----- jury.,274275.00000000006,274279,273862,273853,273879,274316,,52,jury.
Item 7,flow.Loop,1_3_1_0_1,2021-04-26T12:14:23.402Z,,,,,,,,,,,,,,,,,,,,,,,,,,,,,,45678,,completion,,,,,,,,,,,,,,,,,,,,,274275.00000000006,274279,228585,228585,228601,274316,,,
Question 1,html.Screen,1_3_1_0_2,2021-04-26T12:14:27.269Z,,,,,,,,,,,,,,,,,,,,,,,,,,,true,FALSE,,3848,,response,,,,7,C,,,,,,FALSE,click #choice-2,,,,instrumental,,,,,278142,278148,274300,274275.00000000006,274316,278166,,,
Question 2,html.Screen,1_3_1_0_3,2021-04-26T12:14:30.239Z,,,,,,,,,,,,,,,,,,,,,,,,,,,true,TRUE,,2969,,response,,,,7,C,,,,,,TRUE,click #choice-1,,,,instrumental,,,,,281112,281118,278149,278142,278166,281137,,,
Item 7,flow.Sequence,1_3_1_0,2021-04-26T12:14:30.239Z,,,,,,,,,,,,,,,,,,,,,,,,,,,,,,59509,,completion,,,,,,,,,,,,,,,,,,,,,281113,281118,221593,221593.00000000003,221609,281137,,,
Holding screen,html.Screen,1_3_1_1_0,2021-04-26T12:14:37.250Z,,,,,,,,,,,,,,,,,,,,,,,,,,,,,,7003,,timeout,,,,,,,,,,,,,,,,,,,,,288124,288124,281119,281113,281137,288140,,,
screen,html.Screen,1_3_1_1_1_0,2021-04-26T12:14:40.549Z,,,,,,,,,,,,,,,,2,,,,,,,,,,,,,,3304,,response,,,,1,C,,,,,,Space,keypress(Space),,,,instrumental,,,,Two ---- ------ --- ------- ---------- ------- ----------<br>--- --------- --- ----------- ------- ----- ------- ---<br>--------- ---- -- --- ---- -- --------- -- ---- -------<br>-- --------- ------ --- ----- ------ ---- --- --------- --<br>------ - ---- -- --- ----------- ------- ---- ----- -----<br>--- -------- - ------ ---- -- ----- ---- --- --- -----------<br>-- -------,291423,291428,288124,288124,288140,291457,,0,Two
screen,html.Screen,1_3_1_1_1_1,2021-04-26T12:14:41.366Z,,,,,,,,,,,,,,,,2,,,,,,,,,,,,,,805,,response,,,,1,C,,,,,,Space,keypress(Space),,,,instrumental,,,,--- days ------ --- ------- ---------- ------- ----------<br>--- --------- --- ----------- ------- ----- ------- ---<br>--------- ---- -- --- ---- -- --------- -- ---- -------<br>-- --------- ------ --- ----- ------ ---- --- --------- --<br>------ - ---- -- --- ----------- ------- ---- ----- -----<br>--- -------- - ------ ---- -- ----- ---- --- --- -----------<br>-- -------,292240,292245,291440,291423,291457,292268,,1,days
screen,html.Screen,1_3_1_1_1_2,2021-04-26T12:14:42.225Z,,,,,,,,,,,,,,,,2,,,,,,,,,,,,,,853,,response,,,,1,C,,,,,,Space,keypress(Space),,,,instrumental,,,,"--- ---- later, --- ------- ---------- ------- ----------<br>--- --------- --- ----------- ------- ----- ------- ---<br>--------- ---- -- --- ---- -- --------- -- ---- -------<br>-- --------- ------ --- ----- ------ ---- --- --------- --<br>------ - ---- -- --- ----------- ------- ---- ----- -----<br>--- -------- - ------ ---- -- ----- ---- --- --- -----------<br>-- -------",293099,293104,292251,292240,292268,293134,,2,"later,"
