sender,sender_type,sender_id,timestamp,meta,,Blues,Classical,Country,Dance,Electronic,Folk,Gospel,Hip-Hop,Jazz,Latin,Musical/Film,New-age,Pop,Provo_ID,R&B,Rap,Reggae,Religious,Rock,Soul,Swing,Traditional,age,artist_name,correct,correctResponse,distraction,duration,education,ended_on,familiarity,gender,headphone_check_performance,item,list,music_frequency,offensiveness,pleasantness,position_correct,preference,response,response_action,snippet_file,song_name,song_rating,sound,stimulus_1,stimulus_2,stimulus_3,text,time_commit,time_end,time_render,time_run,time_show,time_switch,url,word,word_ID
Introduction,html.Screen,0_0,2021-04-23T13:27:46.288Z,"{""labjs_version"":""20.2.2"",""labjs_build"":{""flavor"":""production"",""commit"":""a25486e0c714a0ae2ce03ff94b7bb6896854dcfa""},""location"":""https://run.pavlovia.org/mvasilev/music_d/"",""userAgent"":""Mozilla/5.0 (Macintosh; Intel Mac OS X 10_14_6) AppleWebKit/605.1.15 (KHTML, like Gecko) Version/14.0.3 Safari/605.1.15"",""platform"":""MacIntel"",""language"":""en-gb"",""locale"":""en-GB"",""timeZone"":""Europe/London"",""timezoneOffset"":-60,""screen_width"":1440,""screen_height"":900,""scroll_width"":779,""scroll_height"":712,""window_innerWidth"":779,""window_innerHeight"":760,""devicePixelRatio"":2}",,,,,,,,,,,,,,,,,,,,,,,,,,,,,11908.000000000002,,response,,,,,,,,,,,continue,click button,,,,,,,,,16393,16362.000000000002,4454,4426,4469,16420,{},,
Volume calibration,html.Screen,0_1,2021-04-23T13:28:10.288Z,,,,,,,,,,,,,,,,,,,,,,,,,,,,,,23979,,response,,,,,,,,,,,continue,click button,,,,,,,,,40393,40382,16403,16394.000000000004,16420,40426,,,
Task instructions,html.Screen,0_2,2021-04-23T13:28:43.174Z,,,,,,,,,,,,,,,,,,,,,,,,,,,,,,32860,,response,,,,,,,,,,,continue,click button,,,,,,,,,73278,73269,40409,40393,40426,73313,,,
Sounds,html.Screen,0_3_0_0,2021-04-23T13:28:47.447Z,,,,,,,,,,,,,,,,,,,,,,,,,,,,,,4253,,timeout,,,,,,,,,2,,,,,,,,I,S,O,,77551,77550,73296,73278,73313,77566,,,
Judgement,html.Screen,0_3_0_1,2021-04-23T13:28:48.160Z,,,,,,,,,,,,,,,,,,,,,,,,,,,true,2,,706,,response,,,,,,,,,2,,2,click #choice-2,,,,,I,S,O,,78265,78256,77550,77551,77566,78284,,,
Trial,flow.Sequence,0_3_0,2021-04-23T13:28:48.161Z,,,,,,,,,,,,,,,,,,,,,,,,,,,,,,4943,,completion,,,,,,,,,2,,,,,,,,I,S,O,,78265,78256,73296,73278,73313,78284,,,
Sounds,html.Screen,0_3_1_0,2021-04-23T13:28:52.415Z,,,,,,,,,,,,,,,,,,,,,,,,,,,,,,4253,,timeout,,,,,,,,,1,,,,,,,,S,I,O,,82520,82519,78266,78265,78284,82537,,,
Judgement,html.Screen,0_3_1_1,2021-04-23T13:28:52.992Z,,,,,,,,,,,,,,,,,,,,,,,,,,,true,1,,569.0000000000146,,response,,,,,,,,,1,,1,click #choice-1,,,,,S,I,O,,83097.00000000001,83088.00000000001,82519,82520,82537,83120,,,
Trial,flow.Sequence,0_3_1,2021-04-23T13:28:52.993Z,,,,,,,,,,,,,,,,,,,,,,,,,,,,,,4804.000000000015,,completion,,,,,,,,,1,,,,,,,,S,I,O,,83097.00000000001,83088.00000000001,78266,78265,78284,83120,,,
Sounds,html.Screen,0_3_2_0,2021-04-23T13:28:57.254Z,,,,,,,,,,,,,,,,,,,,,,,,,,,,,,4254,,timeout,,,,,,,,,3,,,,,,,,I,O,S,,87358,87358,83104,83097.00000000001,83120,87374,,,
Judgement,html.Screen,0_3_2_1,2021-04-23T13:28:57.669Z,,,,,,,,,,,,,,,,,,,,,,,,,,,true,3,,408,,response,,,,,,,,,3,,3,click #choice-3,,,,,I,O,S,,87773,87766,87358,87359.00000000001,87374,87790,,,
Trial,flow.Sequence,0_3_2,2021-04-23T13:28:57.669Z,,,,,,,,,,,,,,,,,,,,,,,,,,,,,,4646,,completion,,,,,,,,,3,,,,,,,,I,O,S,,87774,87766,83104,83097.00000000001,83120,87790,,,
Sounds,html.Screen,0_3_3_0,2021-04-23T13:29:01.924Z,,,,,,,,,,,,,,,,,,,,,,,,,,,,,,4255,,timeout,,,,,,,,,3,,,,,,,,O,I,S,,92028,92028,87774,87774,87790,92045,,,
Judgement,html.Screen,0_3_3_1,2021-04-23T13:29:02.311Z,,,,,,,,,,,,,,,,,,,,,,,,,,,true,3,,379,,response,,,,,,,,,3,,3,click #choice-3,,,,,O,I,S,,92415,92407,92028,92028,92045,92444,,,
Trial,flow.Sequence,0_3_3,2021-04-23T13:29:02.311Z,,,,,,,,,,,,,,,,,,,,,,,,,,,,,,4617,,completion,,,,,,,,,3,,,,,,,,O,I,S,,92415,92407,87774,87774,87790,92444,,,
Sounds,html.Screen,0_3_4_0,2021-04-23T13:29:06.577Z,,,,,,,,,,,,,,,,,,,,,,,,,,,,,,4253,,timeout,,,,,,,,,2,,,,,,,,O,S,I,,96681,96681,92428,92415,92444,96697,,,
Judgement,html.Screen,0_3_4_1,2021-04-23T13:29:06.983Z,,,,,,,,,,,,,,,,,,,,,,,,,,,true,2,,398.00000000001455,,response,,,,,,,,,2,,2,click #choice-2,,,,,O,S,I,,97087,97079.00000000001,96681,96681,96697,97114,,,
Trial,flow.Sequence,0_3_4,2021-04-23T13:29:06.983Z,,,,,,,,,,,,,,,,,,,,,,,,,,,,,,4635.000000000015,,completion,,,,,,,,,2,,,,,,,,O,S,I,,97087,97079.00000000001,92428,92415,92444,97114,,,
Sounds,html.Screen,0_3_5_0,2021-04-23T13:29:11.249Z,,,,,,,,,,,,,,,,,,,,,,,,,,,,,,4255,,timeout,,,,,,,,,1,,,,,,,,S,O,I,,101353.00000000001,101353,97097,97087,97114,101369,,,
Judgement,html.Screen,0_3_5_1,2021-04-23T13:29:11.645Z,,,,,,,,,,,,,,,,,,,,,,,,,,,true,1,,387.00000000001455,,response,,,,,,,,,1,,1,click #choice-1,,,,,S,O,I,,101749,101740.00000000001,101353,101353.00000000001,101369,101786,,,
Trial,flow.Sequence,0_3_5,2021-04-23T13:29:11.645Z,,,,,,,,,,,,,,,,,,,,,,,,,,,,,,4626.000000000015,,completion,,,,,,,,,1,,,,,,,,S,O,I,,101749,101740.00000000001,97097,97087,97114,101786,,,
Task,flow.Loop,0_3,2021-04-23T13:29:11.647Z,,,,,,,,,,,,,,,,,,,,,,,,,,,,,,28427.000000000015,,completion,,,1,,,,,,,,,,,,,,,,,,101751,101740.00000000001,73296,73278,73313,101786,,,
Trap,html.Screen,0_4,2021-04-23T13:29:11.648Z,,,,,,,,,,,,,,,,,,,,,,,,,,,,,,NaN,,skipped,,,,,,,,,,,,,,,,,,,,,101752,101740.00000000001,,101752,,101786,,,
Thanks,html.Screen,0_5,2021-04-23T13:29:15.200Z,,,,,,,,,,,,,,,,,,,,,,,,,,,,,,3526,,response,,,,,,,,,,,continue,click button,,,,,,,,,105304,105295,101769,101752,101786,110438,,,
Headphone screening,flow.Sequence,0,2021-04-23T13:29:15.200Z,,,,,,,,,,,,,,,,,,,,,,,,,,,,,,100826,,completion,,,,,,,,,,,,,,,,,,,,,105304,105295,4454,4426,4469,110438,,,
Instructions,html.Page,1_0,2021-04-23T13:29:52.398Z,,,,,,,,,,,,,,,,,,,,,,,,,,,,,,32063,,form submission,,,,,,,,,,,,,,,,,,,,,142501,142501,110420,110410,110438,142518,,,
Holding screen,html.Screen,1_1_0_0,2021-04-23T13:30:02.406Z,,,,,,,,,,,,,,,,,,,,,,,,,,,,,,10008,,timeout,,,,,,,,,,,,,,,,,,,,,152509,152509,142505,142501,142518,152526,,,
screen,html.Screen,1_1_0_1_0,2021-04-23T13:30:03.637Z,,,,,,,,,,,,,,,,53,,,,,,,,,,,,,,1222,,response,,,,99,,,,,,,Space,keypress(Space),,,,,,,,When -- ----- -- ------ - ------- --- ----------<br>------------- ------ ------ ---- ---- ------- ----- -- ----<br>-------- ------- -- ---------- --- - --- ----- ----- ----<br>---- --- --- ----- --- ---- ---- ------- ----- ---- -------<br>--- --- -- ----- -- --- ---- -- --- ---- -- ------ ------<br>--- ----- -- ----,153741,153731,152509,152509,152526,153775,,0,When
screen,html.Screen,1_1_0_1_1,2021-04-23T13:30:04.484Z,,,,,,,,,,,,,,,,53,,,,,,,,,,,,,,819,,response,,,,99,,,,,,,Space,keypress(Space),,,,,,,,---- it ----- -- ------ - ------- --- ----------<br>------------- ------ ------ ---- ---- ------- ----- -- ----<br>-------- ------- -- ---------- --- - --- ----- ----- ----<br>---- --- --- ----- --- ---- ---- ------- ----- ---- -------<br>--- --- -- ----- -- --- ---- -- --- ---- -- ------ ------<br>--- ----- -- ----,154587,154578,153759,153741,153775,154626,,1,it
screen,html.Screen,1_1_0_1_2,2021-04-23T13:30:05.222Z,,,,,,,,,,,,,,,,53,,,,,,,,,,,,,,707,,response,,,,99,,,,,,,Space,keypress(Space),,,,,,,,---- -- comes -- ------ - ------- --- ----------<br>------------- ------ ------ ---- ---- ------- ----- -- ----<br>-------- ------- -- ---------- --- - --- ----- ----- ----<br>---- --- --- ----- --- ---- ---- ------- ----- ---- -------<br>--- --- -- ----- -- --- ---- -- --- ---- -- ------ ------<br>--- ----- -- ----,155326,155316,154609,154587,154626,155359,,2,comes
screen,html.Screen,1_1_0_1_3,2021-04-23T13:30:05.847Z,,,,,,,,,,,,,,,,53,,,,,,,,,,,,,,599,,response,,,,99,,,,,,,Space,keypress(Space),,,,,,,,---- -- ----- to ------ - ------- --- ----------<br>------------- ------ ------ ---- ---- ------- ----- -- ----<br>-------- ------- -- ---------- --- - --- ----- ----- ----<br>---- --- --- ----- --- ---- ---- ------- ----- ---- -------<br>--- --- -- ----- -- --- ---- -- --- ---- -- ------ ------<br>--- ----- -- ----,155951,155942,155343,155326,155359,155980,,3,to
screen,html.Screen,1_1_0_1_4,2021-04-23T13:30:06.459Z,,,,,,,,,,,,,,,,53,,,,,,,,,,,,,,590,,response,,,,99,,,,,,,Space,keypress(Space),,,,,,,,---- -- ----- -- having - ------- --- ----------<br>------------- ------ ------ ---- ---- ------- ----- -- ----<br>-------- ------- -- ---------- --- - --- ----- ----- ----<br>---- --- --- ----- --- ---- ---- ------- ----- ---- -------<br>--- --- -- ----- -- --- ---- -- --- ---- -- ------ ------<br>--- ----- -- ----,156562,156553,155963,155951,155980,156596,,4,having
screen,html.Screen,1_1_0_1_5,2021-04-23T13:30:06.940Z,,,,,,,,,,,,,,,,53,,,,,,,,,,,,,,454,,response,,,,99,,,,,,,Space,keypress(Space),,,,,,,,---- -- ----- -- ------ a ------- --- ----------<br>------------- ------ ------ ---- ---- ------- ----- -- ----<br>-------- ------- -- ---------- --- - --- ----- ----- ----<br>---- --- --- ----- --- ---- ---- ------- ----- ---- -------<br>--- --- -- ----- -- --- ---- -- --- ---- -- ------ ------<br>--- ----- -- ----,157043,157034,156580,156563.00000000003,156596,157079,,5,a
screen,html.Screen,1_1_0_1_6,2021-04-23T13:30:07.419Z,,,,,,,,,,,,,,,,53,,,,,,,,,,,,,,450,,response,,,,99,,,,,,,Space,keypress(Space),,,,,,,,---- -- ----- -- ------ - lasting --- ----------<br>------------- ------ ------ ---- ---- ------- ----- -- ----<br>-------- ------- -- ---------- --- - --- ----- ----- ----<br>---- --- --- ----- --- ---- ---- ------- ----- ---- -------<br>--- --- -- ----- -- --- ---- -- --- ---- -- ------ ------<br>--- ----- -- ----,157522,157513,157063,157044,157079,157562,,6,lasting
screen,html.Screen,1_1_0_1_7,2021-04-23T13:30:07.899Z,,,,,,,,,,,,,,,,53,,,,,,,,,,,,,,447,,response,,,,99,,,,,,,Space,keypress(Space),,,,,,,,---- -- ----- -- ------ - ------- and ----------<br>------------- ------ ------ ---- ---- ------- ----- -- ----<br>-------- ------- -- ---------- --- - --- ----- ----- ----<br>---- --- --- ----- --- ---- ---- ------- ----- ---- -------<br>--- --- -- ----- -- --- ---- -- --- ---- -- ------ ------<br>--- ----- -- ----,158003,157993,157546,157523,157562,158029,,7,and
screen,html.Screen,1_1_0_1_8,2021-04-23T13:30:08.327Z,,,,,,,,,,,,,,,,53,,,,,,,,,,,,,,409,,response,,,,99,,,,,,,Space,keypress(Space),,,,,,,,---- -- ----- -- ------ - ------- --- fulfilling<br>------------- ------ ------ ---- ---- ------- ----- -- ----<br>-------- ------- -- ---------- --- - --- ----- ----- ----<br>---- --- --- ----- --- ---- ---- ------- ----- ---- -------<br>--- --- -- ----- -- --- ---- -- --- ---- -- ------ ------<br>--- ----- -- ----,158431,158422,158013,158003,158029,158462,,8,fulfilling
screen,html.Screen,1_1_0_1_9,2021-04-23T13:30:09.416Z,,,,,,,,,,,,,,,,53,,,,,,,,,,,,,,1064,,response,,,,99,,,,,,,Space,keypress(Space),,,,,,,,"---- -- ----- -- ------ - ------- --- ----------<br>relationship, ------ ------ ---- ---- ------- ----- -- ----<br>-------- ------- -- ---------- --- - --- ----- ----- ----<br>---- --- --- ----- --- ---- ---- ------- ----- ---- -------<br>--- --- -- ----- -- --- ---- -- --- ---- -- ------ ------<br>--- ----- -- ----",159519,159510,158446,158431,158462,159546,,9,"relationship,"
screen,html.Screen,1_1_0_1_10,2021-04-23T13:30:09.972Z,,,,,,,,,,,,,,,,53,,,,,,,,,,,,,,537,,response,,,,99,,,,,,,Space,keypress(Space),,,,,,,,---- -- ----- -- ------ - ------- --- ----------<br>------------- common ------ ---- ---- ------- ----- -- ----<br>-------- ------- -- ---------- --- - --- ----- ----- ----<br>---- --- --- ----- --- ---- ---- ------- ----- ---- -------<br>--- --- -- ----- -- --- ---- -- --- ---- -- ------ ------<br>--- ----- -- ----,160075.00000000003,160066,159529,159519,159546,160113,,10,common
screen,html.Screen,1_1_0_1_11,2021-04-23T13:30:10.368Z,,,,,,,,,,,,,,,,53,,,,,,,,,,,,,,367,,response,,,,99,,,,,,,Space,keypress(Space),,,,,,,,---- -- ----- -- ------ - ------- --- ----------<br>------------- ------ wisdom ---- ---- ------- ----- -- ----<br>-------- ------- -- ---------- --- - --- ----- ----- ----<br>---- --- --- ----- --- ---- ---- ------- ----- ---- -------<br>--- --- -- ----- -- --- ---- -- --- ---- -- ------ ------<br>--- ----- -- ----,160472,160463,160096,160075.00000000003,160113,160495,,11,wisdom
screen,html.Screen,1_1_0_1_12,2021-04-23T13:30:11.012Z,,,,,,,,,,,,,,,,53,,,,,,,,,,,,,,628,,response,,,,99,,,,,,,Space,keypress(Space),,,,,,,,---- -- ----- -- ------ - ------- --- ----------<br>------------- ------ ------ says ---- ------- ----- -- ----<br>-------- ------- -- ---------- --- - --- ----- ----- ----<br>---- --- --- ----- --- ---- ---- ------- ----- ---- -------<br>--- --- -- ----- -- --- ---- -- --- ---- -- ------ ------<br>--- ----- -- ----,161116,161107,160479,160472,160495,161150,,12,says
screen,html.Screen,1_1_0_1_13,2021-04-23T13:30:11.538Z,,,,,,,,,,,,,,,,53,,,,,,,,,,,,,,499,,response,,,,99,,,,,,,Space,keypress(Space),,,,,,,,---- -- ----- -- ------ - ------- --- ----------<br>------------- ------ ------ ---- that ------- ----- -- ----<br>-------- ------- -- ---------- --- - --- ----- ----- ----<br>---- --- --- ----- --- ---- ---- ------- ----- ---- -------<br>--- --- -- ----- -- --- ---- -- --- ---- -- ------ ------<br>--- ----- -- ----,161642,161633,161134,161116,161150,161683,,13,that
screen,html.Screen,1_1_0_1_14,2021-04-23T13:30:12.200Z,,,,,,,,,,,,,,,,53,,,,,,,,,,,,,,628.0000000000291,,response,,,,99,,,,,,,Space,keypress(Space),,,,,,,,---- -- ----- -- ------ - ------- --- ----------<br>------------- ------ ------ ---- ---- feeling ----- -- ----<br>-------- ------- -- ---------- --- - --- ----- ----- ----<br>---- --- --- ----- --- ---- ---- ------- ----- ---- -------<br>--- --- -- ----- -- --- ---- -- --- ---- -- ------ ------<br>--- ----- -- ----,162304,162295.00000000003,161667,161642,161683,162332,,14,feeling
screen,html.Screen,1_1_0_1_15,2021-04-23T13:30:12.698Z,,,,,,,,,,,,,,,,53,,,,,,,,,,,,,,476,,response,,,,99,,,,,,,Space,keypress(Space),,,,,,,,---- -- ----- -- ------ - ------- --- ----------<br>------------- ------ ------ ---- ---- ------- close -- ----<br>-------- ------- -- ---------- --- - --- ----- ----- ----<br>---- --- --- ----- --- ---- ---- ------- ----- ---- -------<br>--- --- -- ----- -- --- ---- -- --- ---- -- ------ ------<br>--- ----- -- ----,162802,162793,162317,162304,162332,162834,,15,close
screen,html.Screen,1_1_0_1_16,2021-04-23T13:30:13.195Z,,,,,,,,,,,,,,,,53,,,,,,,,,,,,,,473,,response,,,,99,,,,,,,Space,keypress(Space),,,,,,,,---- -- ----- -- ------ - ------- --- ----------<br>------------- ------ ------ ---- ---- ------- ----- to ----<br>-------- ------- -- ---------- --- - --- ----- ----- ----<br>---- --- --- ----- --- ---- ---- ------- ----- ---- -------<br>--- --- -- ----- -- --- ---- -- --- ---- -- ------ ------<br>--- ----- -- ----,163299,163290,162817,162802,162834,163333,,16,to
screen,html.Screen,1_1_0_1_17,2021-04-23T13:30:13.854Z,,,,,,,,,,,,,,,,53,,,,,,,,,,,,,,632,,response,,,,99,,,,,,,Space,keypress(Space),,,,,,,,---- -- ----- -- ------ - ------- --- ----------<br>------------- ------ ------ ---- ---- ------- ----- -- your<br>-------- ------- -- ---------- --- - --- ----- ----- ----<br>---- --- --- ----- --- ---- ---- ------- ----- ---- -------<br>--- --- -- ----- -- --- ---- -- --- ---- -- ------ ------<br>--- ----- -- ----,163958,163949,163317,163299,163333,163999,,17,your
screen,html.Screen,1_1_0_1_18,2021-04-23T13:30:14.576Z,,,,,,,,,,,,,,,,53,,,,,,,,,,,,,,686.0000000000291,,response,,,,99,,,,,,,Space,keypress(Space),,,,,,,,---- -- ----- -- ------ - ------- --- ----------<br>------------- ------ ------ ---- ---- ------- ----- -- ----<br>romantic ------- -- ---------- --- - --- ----- ----- ----<br>---- --- --- ----- --- ---- ---- ------- ----- ---- -------<br>--- --- -- ----- -- --- ---- -- --- ---- -- ------ ------<br>--- ----- -- ----,164679,164670.00000000003,163984,163958,163999,164717,,18,romantic
screen,html.Screen,1_1_0_1_19,2021-04-23T13:30:15.010Z,,,,,,,,,,,,,,,,53,,,,,,,,,,,,,,404,,response,,,,99,,,,,,,Space,keypress(Space),,,,,,,,---- -- ----- -- ------ - ------- --- ----------<br>------------- ------ ------ ---- ---- ------- ----- -- ----<br>-------- partner -- ---------- --- - --- ----- ----- ----<br>---- --- --- ----- --- ---- ---- ------- ----- ---- -------<br>--- --- -- ----- -- --- ---- -- --- ---- -- ------ ------<br>--- ----- -- ----,165114,165104,164700,164679,164717,165150,,19,partner
screen,html.Screen,1_1_0_1_20,2021-04-23T13:30:15.447Z,,,,,,,,,,,,,,,,53,,,,,,,,,,,,,,407,,response,,,,99,,,,,,,Space,keypress(Space),,,,,,,,---- -- ----- -- ------ - ------- --- ----------<br>------------- ------ ------ ---- ---- ------- ----- -- ----<br>-------- ------- is ---------- --- - --- ----- ----- ----<br>---- --- --- ----- --- ---- ---- ------- ----- ---- -------<br>--- --- -- ----- -- --- ---- -- --- ---- -- ------ ------<br>--- ----- -- ----,165550,165541,165134,165114,165150,165583,,20,is
screen,html.Screen,1_1_0_1_21,2021-04-23T13:30:15.986Z,,,,,,,,,,,,,,,,53,,,,,,,,,,,,,,514,,response,,,,99,,,,,,,Space,keypress(Space),,,,,,,,---- -- ----- -- ------ - ------- --- ----------<br>------------- ------ ------ ---- ---- ------- ----- -- ----<br>-------- ------- -- paramount. --- - --- ----- ----- ----<br>---- --- --- ----- --- ---- ---- ------- ----- ---- -------<br>--- --- -- ----- -- --- ---- -- --- ---- -- ------ ------<br>--- ----- -- ----,166090,166080,165566,165550,165583,166119,,21,paramount.
screen,html.Screen,1_1_0_1_22,2021-04-23T13:30:16.608Z,,,,,,,,,,,,,,,,53,,,,,,,,,,,,,,600,,response,,,,99,,,,,,,Space,keypress(Space),,,,,,,,---- -- ----- -- ------ - ------- --- ----------<br>------------- ------ ------ ---- ---- ------- ----- -- ----<br>-------- ------- -- ---------- But - --- ----- ----- ----<br>---- --- --- ----- --- ---- ---- ------- ----- ---- -------<br>--- --- -- ----- -- --- ---- -- --- ---- -- ------ ------<br>--- ----- -- ----,166712.00000000003,166703,166103,166090,166119,166753,,22,But
screen,html.Screen,1_1_0_1_23,2021-04-23T13:30:17.062Z,,,,,,,,,,,,,,,,53,,,,,,,,,,,,,,421,,response,,,,99,,,,,,,Space,keypress(Space),,,,,,,,---- -- ----- -- ------ - ------- --- ----------<br>------------- ------ ------ ---- ---- ------- ----- -- ----<br>-------- ------- -- ---------- --- a --- ----- ----- ----<br>---- --- --- ----- --- ---- ---- ------- ----- ---- -------<br>--- --- -- ----- -- --- ---- -- --- ---- -- ------ ------<br>--- ----- -- ----,167166,167157,166736,166712.00000000003,166753,167203,,23,a
screen,html.Screen,1_1_0_1_24,2021-04-23T13:30:17.460Z,,,,,,,,,,,,,,,,53,,,,,,,,,,,,,,368,,response,,,,99,,,,,,,Space,keypress(Space),,,,,,,,---- -- ----- -- ------ - ------- --- ----------<br>------------- ------ ------ ---- ---- ------- ----- -- ----<br>-------- ------- -- ---------- --- - new ----- ----- ----<br>---- --- --- ----- --- ---- ---- ------- ----- ---- -------<br>--- --- -- ----- -- --- ---- -- --- ---- -- ------ ------<br>--- ----- -- ----,167564,167555,167187,167166,167203,167586,,24,new
screen,html.Screen,1_1_0_1_25,2021-04-23T13:30:17.868Z,,,,,,,,,,,,,,,,53,,,,,,,,,,,,,,392.0000000000291,,response,,,,99,,,,,,,Space,keypress(Space),,,,,,,,---- -- ----- -- ------ - ------- --- ----------<br>------------- ------ ------ ---- ---- ------- ----- -- ----<br>-------- ------- -- ---------- --- - --- study ----- ----<br>---- --- --- ----- --- ---- ---- ------- ----- ---- -------<br>--- --- -- ----- -- --- ---- -- --- ---- -- ------ ------<br>--- ----- -- ----,167971,167962.00000000003,167570,167564,167586,168003,,25,study
screen,html.Screen,1_1_0_1_26,2021-04-23T13:30:18.289Z,,,,,,,,,,,,,,,,53,,,,,,,,,,,,,,397,,response,,,,99,,,,,,,Space,keypress(Space),,,,,,,,---- -- ----- -- ------ - ------- --- ----------<br>------------- ------ ------ ---- ---- ------- ----- -- ----<br>-------- ------- -- ---------- --- - --- ----- finds ----<br>---- --- --- ----- --- ---- ---- ------- ----- ---- -------<br>--- --- -- ----- -- --- ---- -- --- ---- -- ------ ------<br>--- ----- -- ----,168393,168384,167987,167971,168003,168420,,26,finds
screen,html.Screen,1_1_0_1_27,2021-04-23T13:30:18.772Z,,,,,,,,,,,,,,,,53,,,,,,,,,,,,,,463,,response,,,,99,,,,,,,Space,keypress(Space),,,,,,,,---- -- ----- -- ------ - ------- --- ----------<br>------------- ------ ------ ---- ---- ------- ----- -- ----<br>-------- ------- -- ---------- --- - --- ----- ----- that<br>---- --- --- ----- --- ---- ---- ------- ----- ---- -------<br>--- --- -- ----- -- --- ---- -- --- ---- -- ------ ------<br>--- ----- -- ----,168876,168867,168404,168393,168420,168903,,27,that
screen,html.Screen,1_1_0_1_28,2021-04-23T13:30:19.307Z,,,,,,,,,,,,,,,,53,,,,,,,,,,,,,,514,,response,,,,99,,,,,,,Space,keypress(Space),,,,,,,,---- -- ----- -- ------ - ------- --- ----------<br>------------- ------ ------ ---- ---- ------- ----- -- ----<br>-------- ------- -- ---------- --- - --- ----- ----- ----<br>it's --- --- ----- --- ---- ---- ------- ----- ---- -------<br>--- --- -- ----- -- --- ---- -- --- ---- -- ------ ------<br>--- ----- -- ----,169411,169401,168887,168876,168903,169453,,28,it's
screen,html.Screen,1_1_0_1_29,2021-04-23T13:30:19.706Z,,,,,,,,,,,,,,,,53,,,,,,,,,,,,,,363,,response,,,,99,,,,,,,Space,keypress(Space),,,,,,,,---- -- ----- -- ------ - ------- --- ----------<br>------------- ------ ------ ---- ---- ------- ----- -- ----<br>-------- ------- -- ---------- --- - --- ----- ----- ----<br>---- not --- ----- --- ---- ---- ------- ----- ---- -------<br>--- --- -- ----- -- --- ---- -- --- ---- -- ------ ------<br>--- ----- -- ----,169810,169800,169437,169411,169453,169837,,29,not
screen,html.Screen,1_1_0_1_30,2021-04-23T13:30:20.106Z,,,,,,,,,,,,,,,,53,,,,,,,,,,,,,,381.0000000000291,,response,,,,99,,,,,,,Space,keypress(Space),,,,,,,,---- -- ----- -- ------ - ------- --- ----------<br>------------- ------ ------ ---- ---- ------- ----- -- ----<br>-------- ------- -- ---------- --- - --- ----- ----- ----<br>---- --- how ----- --- ---- ---- ------- ----- ---- -------<br>--- --- -- ----- -- --- ---- -- --- ---- -- ------ ------<br>--- ----- -- ----,170210,170200.00000000003,169819,169810,169837,170237,,30,how
screen,html.Screen,1_1_0_1_31,2021-04-23T13:30:20.535Z,,,,,,,,,,,,,,,,53,,,,,,,,,,,,,,409,,response,,,,99,,,,,,,Space,keypress(Space),,,,,,,,---- -- ----- -- ------ - ------- --- ----------<br>------------- ------ ------ ---- ---- ------- ----- -- ----<br>-------- ------- -- ---------- --- - --- ----- ----- ----<br>---- --- --- close --- ---- ---- ------- ----- ---- -------<br>--- --- -- ----- -- --- ---- -- --- ---- -- ------ ------<br>--- ----- -- ----,170639,170629,170220,170210,170237,170674,,31,close
screen,html.Screen,1_1_0_1_32,2021-04-23T13:30:20.975Z,,,,,,,,,,,,,,,,53,,,,,,,,,,,,,,413,,response,,,,99,,,,,,,Space,keypress(Space),,,,,,,,---- -- ----- -- ------ - ------- --- ----------<br>------------- ------ ------ ---- ---- ------- ----- -- ----<br>-------- ------- -- ---------- --- - --- ----- ----- ----<br>---- --- --- ----- you ---- ---- ------- ----- ---- -------<br>--- --- -- ----- -- --- ---- -- --- ---- -- ------ ------<br>--- ----- -- ----,171079,171070,170657,170639,170674,171107,,32,you
screen,html.Screen,1_1_0_1_33,2021-04-23T13:30:21.475Z,,,,,,,,,,,,,,,,53,,,,,,,,,,,,,,478.0000000000291,,response,,,,99,,,,,,,Space,keypress(Space),,,,,,,,---- -- ----- -- ------ - ------- --- ----------<br>------------- ------ ------ ---- ---- ------- ----- -- ----<br>-------- ------- -- ---------- --- - --- ----- ----- ----<br>---- --- --- ----- --- feel ---- ------- ----- ---- -------<br>--- --- -- ----- -- --- ---- -- --- ---- -- ------ ------<br>--- ----- -- ----,171579,171569.00000000003,171091,171079,171107,171607,,33,feel
screen,html.Screen,1_1_0_1_34,2021-04-23T13:30:22.018Z,,,,,,,,,,,,,,,,53,,,,,,,,,,,,,,521,,response,,,,99,,,,,,,Space,keypress(Space),,,,,,,,---- -- ----- -- ------ - ------- --- ----------<br>------------- ------ ------ ---- ---- ------- ----- -- ----<br>-------- ------- -- ---------- --- - --- ----- ----- ----<br>---- --- --- ----- --- ---- that ------- ----- ---- -------<br>--- --- -- ----- -- --- ---- -- --- ---- -- ------ ------<br>--- ----- -- ----,172122,172112,171591,171579,171607,172157,,34,that
screen,html.Screen,1_1_0_1_35,2021-04-23T13:30:22.522Z,,,,,,,,,,,,,,,,53,,,,,,,,,,,,,,475,,response,,,,99,,,,,,,Space,keypress(Space),,,,,,,,---- -- ----- -- ------ - ------- --- ----------<br>------------- ------ ------ ---- ---- ------- ----- -- ----<br>-------- ------- -- ---------- --- - --- ----- ----- ----<br>---- --- --- ----- --- ---- ---- matters ----- ---- -------<br>--- --- -- ----- -- --- ---- -- --- ---- -- ------ ------<br>--- ----- -- ----,172626,172616,172141,172122,172157,172657,,35,matters
screen,html.Screen,1_1_0_1_36,2021-04-23T13:30:23.047Z,,,,,,,,,,,,,,,,53,,,,,,,,,,,,,,500,,response,,,,99,,,,,,,Space,keypress(Space),,,,,,,,"---- -- ----- -- ------ - ------- --- ----------<br>------------- ------ ------ ---- ---- ------- ----- -- ----<br>-------- ------- -- ---------- --- - --- ----- ----- ----<br>---- --- --- ----- --- ---- ---- ------- most, ---- -------<br>--- --- -- ----- -- --- ---- -- --- ---- -- ------ ------<br>--- ----- -- ----",173151,173141,172641,172626,172657,173190,,36,"most,"
screen,html.Screen,1_1_0_1_37,2021-04-23T13:30:23.634Z,,,,,,,,,,,,,,,,53,,,,,,,,,,,,,,555,,response,,,,99,,,,,,,Space,keypress(Space),,,,,,,,---- -- ----- -- ------ - ------- --- ----------<br>------------- ------ ------ ---- ---- ------- ----- -- ----<br>-------- ------- -- ---------- --- - --- ----- ----- ----<br>---- --- --- ----- --- ---- ---- ------- ----- it's -------<br>--- --- -- ----- -- --- ---- -- --- ---- -- ------ ------<br>--- ----- -- ----,173738,173728,173173,173151,173190,173774,,37,it's
screen,html.Screen,1_1_0_1_38,2021-04-23T13:30:24.061Z,,,,,,,,,,,,,,,,53,,,,,,,,,,,,,,398,,response,,,,99,,,,,,,Space,keypress(Space),,,,,,,,---- -- ----- -- ------ - ------- --- ----------<br>------------- ------ ------ ---- ---- ------- ----- -- ----<br>-------- ------- -- ---------- --- - --- ----- ----- ----<br>---- --- --- ----- --- ---- ---- ------- ----- ---- whether<br>--- --- -- ----- -- --- ---- -- --- ---- -- ------ ------<br>--- ----- -- ----,174164.00000000003,174155,173757,173738,173774,174206,,38,whether
screen,html.Screen,1_1_0_1_39,2021-04-23T13:30:25.389Z,,,,,,,,,,,,,,,,53,,,,,,,,,,,,,,1292,,response,,,,99,,,,,,,Space,keypress(Space),,,,,,,,---- -- ----- -- ------ - ------- --- ----------<br>------------- ------ ------ ---- ---- ------- ----- -- ----<br>-------- ------- -- ---------- --- - --- ----- ----- ----<br>---- --- --- ----- --- ---- ---- ------- ----- ---- -------<br>you --- -- ----- -- --- ---- -- --- ---- -- ------ ------<br>--- ----- -- ----,175493,175483,174191,174164.00000000003,174206,175524,,39,you
screen,html.Screen,1_1_0_1_40,2021-04-23T13:30:25.868Z,,,,,,,,,,,,,,,,53,,,,,,,,,,,,,,455.0000000000291,,response,,,,99,,,,,,,Space,keypress(Space),,,,,,,,---- -- ----- -- ------ - ------- --- ----------<br>------------- ------ ------ ---- ---- ------- ----- -- ----<br>-------- ------- -- ---------- --- - --- ----- ----- ----<br>---- --- --- ----- --- ---- ---- ------- ----- ---- -------<br>--- are -- ----- -- --- ---- -- --- ---- -- ------ ------<br>--- ----- -- ----,175971,175962.00000000003,175507,175493,175524,176010,,40,are
screen,html.Screen,1_1_0_1_41,2021-04-23T13:30:26.381Z,,,,,,,,,,,,,,,,53,,,,,,,,,,,,,,480,,response,,,,99,,,,,,,Space,keypress(Space),,,,,,,,---- -- ----- -- ------ - ------- --- ----------<br>------------- ------ ------ ---- ---- ------- ----- -- ----<br>-------- ------- -- ---------- --- - --- ----- ----- ----<br>---- --- --- ----- --- ---- ---- ------- ----- ---- -------<br>--- --- as ----- -- --- ---- -- --- ---- -- ------ ------<br>--- ----- -- ----,176484,176475,175995,175972,176010,176528,,41,as
screen,html.Screen,1_1_0_1_42,2021-04-23T13:30:26.867Z,,,,,,,,,,,,,,,,53,,,,,,,,,,,,,,451,,response,,,,99,,,,,,,Space,keypress(Space),,,,,,,,---- -- ----- -- ------ - ------- --- ----------<br>------------- ------ ------ ---- ---- ------- ----- -- ----<br>-------- ------- -- ---------- --- - --- ----- ----- ----<br>---- --- --- ----- --- ---- ---- ------- ----- ---- -------<br>--- --- -- close -- --- ---- -- --- ---- -- ------ ------<br>--- ----- -- ----,176971,176961,176510,176485,176528,177010,,42,close
screen,html.Screen,1_1_0_1_43,2021-04-23T13:30:27.354Z,,,,,,,,,,,,,,,,53,,,,,,,,,,,,,,454,,response,,,,99,,,,,,,Space,keypress(Space),,,,,,,,---- -- ----- -- ------ - ------- --- ----------<br>------------- ------ ------ ---- ---- ------- ----- -- ----<br>-------- ------- -- ---------- --- - --- ----- ----- ----<br>---- --- --- ----- --- ---- ---- ------- ----- ---- -------<br>--- --- -- ----- as --- ---- -- --- ---- -- ------ ------<br>--- ----- -- ----,177458,177448,176994,176971,177010,177494,,43,as
screen,html.Screen,1_1_0_1_44,2021-04-23T13:30:27.778Z,,,,,,,,,,,,,,,,53,,,,,,,,,,,,,,394,,response,,,,99,,,,,,,Space,keypress(Space),,,,,,,,---- -- ----- -- ------ - ------- --- ----------<br>------------- ------ ------ ---- ---- ------- ----- -- ----<br>-------- ------- -- ---------- --- - --- ----- ----- ----<br>---- --- --- ----- --- ---- ---- ------- ----- ---- -------<br>--- --- -- ----- -- you ---- -- --- ---- -- ------ ------<br>--- ----- -- ----,177881,177872,177478,177458,177494,177911,,44,you
screen,html.Screen,1_1_0_1_45,2021-04-23T13:30:28.209Z,,,,,,,,,,,,,,,,53,,,,,,,,,,,,,,407,,response,,,,99,,,,,,,Space,keypress(Space),,,,,,,,---- -- ----- -- ------ - ------- --- ----------<br>------------- ------ ------ ---- ---- ------- ----- -- ----<br>-------- ------- -- ---------- --- - --- ----- ----- ----<br>---- --- --- ----- --- ---- ---- ------- ----- ---- -------<br>--- --- -- ----- -- --- want -- --- ---- -- ------ ------<br>--- ----- -- ----,178312,178302,177895,177881,177911,178343,,45,want
screen,html.Screen,1_1_0_1_46,2021-04-23T13:30:28.589Z,,,,,,,,,,,,,,,,53,,,,,,,,,,,,,,355,,response,,,,99,,,,,,,Space,keypress(Space),,,,,,,,---- -- ----- -- ------ - ------- --- ----------<br>------------- ------ ------ ---- ---- ------- ----- -- ----<br>-------- ------- -- ---------- --- - --- ----- ----- ----<br>---- --- --- ----- --- ---- ---- ------- ----- ---- -------<br>--- --- -- ----- -- --- ---- to --- ---- -- ------ ------<br>--- ----- -- ----,178693,178683,178328,178312,178343,178711,,46,to
screen,html.Screen,1_1_0_1_47,2021-04-23T13:30:29.053Z,,,,,,,,,,,,,,,,53,,,,,,,,,,,,,,454,,response,,,,99,,,,,,,Space,keypress(Space),,,,,,,,"---- -- ----- -- ------ - ------- --- ----------<br>------------- ------ ------ ---- ---- ------- ----- -- ----<br>-------- ------- -- ---------- --- - --- ----- ----- ----<br>---- --- --- ----- --- ---- ---- ------- ----- ---- -------<br>--- --- -- ----- -- --- ---- -- be, ---- -- ------ ------<br>--- ----- -- ----",179156,179147,178693,178693,178711,179194,,47,"be,"
screen,html.Screen,1_1_0_1_48,2021-04-23T13:30:29.901Z,,,,,,,,,,,,,,,,53,,,,,,,,,,,,,,818,,response,,,,99,,,,,,,Space,keypress(Space),,,,,,,,---- -- ----- -- ------ - ------- --- ----------<br>------------- ------ ------ ---- ---- ------- ----- -- ----<br>-------- ------- -- ---------- --- - --- ----- ----- ----<br>---- --- --- ----- --- ---- ---- ------- ----- ---- -------<br>--- --- -- ----- -- --- ---- -- --- even -- ------ ------<br>--- ----- -- ----,180004,179995,179177,179156,179194,180044,,48,even
screen,html.Screen,1_1_0_1_49,2021-04-23T13:30:30.510Z,,,,,,,,,,,,,,,,53,,,,,,,,,,,,,,576,,response,,,,99,,,,,,,Space,keypress(Space),,,,,,,,---- -- ----- -- ------ - ------- --- ----------<br>------------- ------ ------ ---- ---- ------- ----- -- ----<br>-------- ------- -- ---------- --- - --- ----- ----- ----<br>---- --- --- ----- --- ---- ---- ------- ----- ---- -------<br>--- --- -- ----- -- --- ---- -- --- ---- if ------ ------<br>--- ----- -- ----,180614,180604,180028,180005,180044,180644,,49,if
screen,html.Screen,1_1_0_1_50,2021-04-23T13:30:30.924Z,,,,,,,,,,,,,,,,53,,,,,,,,,,,,,,390,,response,,,,99,,,,,,,Space,keypress(Space),,,,,,,,---- -- ----- -- ------ - ------- --- ----------<br>------------- ------ ------ ---- ---- ------- ----- -- ----<br>-------- ------- -- ---------- --- - --- ----- ----- ----<br>---- --- --- ----- --- ---- ---- ------- ----- ---- -------<br>--- --- -- ----- -- --- ---- -- --- ---- -- that's ------<br>--- ----- -- ----,181027.00000000003,181018,180628,180614,180644,181065,,50,that's
screen,html.Screen,1_1_0_1_51,2021-04-23T13:30:31.337Z,,,,,,,,,,,,,,,,53,,,,,,,,,,,,,,382,,response,,,,99,,,,,,,Space,keypress(Space),,,,,,,,---- -- ----- -- ------ - ------- --- ----------<br>------------- ------ ------ ---- ---- ------- ----- -- ----<br>-------- ------- -- ---------- --- - --- ----- ----- ----<br>---- --- --- ----- --- ---- ---- ------- ----- ---- -------<br>--- --- -- ----- -- --- ---- -- --- ---- -- ------ really<br>--- ----- -- ----,181440,181431,181049,181028,181065,181481,,51,really
screen,html.Screen,1_1_0_1_52,2021-04-23T13:30:31.786Z,,,,,,,,,,,,,,,,53,,,,,,,,,,,,,,415,,response,,,,99,,,,,,,Space,keypress(Space),,,,,,,,---- -- ----- -- ------ - ------- --- ----------<br>------------- ------ ------ ---- ---- ------- ----- -- ----<br>-------- ------- -- ---------- --- - --- ----- ----- ----<br>---- --- --- ----- --- ---- ---- ------- ----- ---- -------<br>--- --- -- ----- -- --- ---- -- --- ---- -- ------ ------<br>not ----- -- ----,181890.00000000003,181880,181465,181440,181481,181932,,52,not
screen,html.Screen,1_1_0_1_53,2021-04-23T13:30:32.340Z,,,,,,,,,,,,,,,,53,,,,,,,,,,,,,,519,,response,,,,99,,,,,,,Space,keypress(Space),,,,,,,,---- -- ----- -- ------ - ------- --- ----------<br>------------- ------ ------ ---- ---- ------- ----- -- ----<br>-------- ------- -- ---------- --- - --- ----- ----- ----<br>---- --- --- ----- --- ---- ---- ------- ----- ---- -------<br>--- --- -- ----- -- --- ---- -- --- ---- -- ------ ------<br>--- close -- ----,182443,182434,181915,181890.00000000003,181932,182482,,53,close
screen,html.Screen,1_1_0_1_54,2021-04-23T13:30:32.796Z,,,,,,,,,,,,,,,,53,,,,,,,,,,,,,,425.0000000000291,,response,,,,99,,,,,,,Space,keypress(Space),,,,,,,,---- -- ----- -- ------ - ------- --- ----------<br>------------- ------ ------ ---- ---- ------- ----- -- ----<br>-------- ------- -- ---------- --- - --- ----- ----- ----<br>---- --- --- ----- --- ---- ---- ------- ----- ---- -------<br>--- --- -- ----- -- --- ---- -- --- ---- -- ------ ------<br>--- ----- at ----,182899,182890.00000000003,182465,182443,182482,182932,,54,at
screen,html.Screen,1_1_0_1_55,2021-04-23T13:30:33.338Z,,,,,,,,,,,,,,,,53,,,,,,,,,,,,,,517.0000000000291,,response,,,,99,,,,,,,Space,keypress(Space),,,,,,,,---- -- ----- -- ------ - ------- --- ----------<br>------------- ------ ------ ---- ---- ------- ----- -- ----<br>-------- ------- -- ---------- --- - --- ----- ----- ----<br>---- --- --- ----- --- ---- ---- ------- ----- ---- -------<br>--- --- -- ----- -- --- ---- -- --- ---- -- ------ ------<br>--- ----- -- all.,183441,183432.00000000003,182915,182899,182932,183481,,55,all.
Item 99,flow.Loop,1_1_0_1,2021-04-23T13:30:33.338Z,,,,,,,,,,,,,,,,,,,,,,,,,,,,,,30906.00000000003,,completion,,,,,D,,,,,,,,,,,silence,,,,,183441,183432.00000000003,152509,152509,152526,183481,,,
Question 1,html.Screen,1_1_0_2,2021-04-23T13:30:36.928Z,,,,,,,,,,,,,,,,,,,,,,,,,,,true,FALSE,,3505,,response,,,,99,D,,,,,,FALSE,click #choice-2,,,,silence,,,,,187032,186970,183465,183442,183481,187069,,,
Question 2,html.Screen,1_1_0_3,2021-04-23T13:30:44.260Z,,,,,,,,,,,,,,,,,,,,,,,,,,,false,TRUE,,7302,,response,,,,99,D,,,,,,FALSE,click #choice-2,,,,silence,,,,,194363,194354,187052,187032,187069,194389,,,
Item 99,flow.Sequence,1_1_0,2021-04-23T13:30:44.261Z,,,,,,,,,,,,,,,,,,,,,,,,,,,,,,51836,,completion,,,,,,,,,,,,,,,,,,,,,194364,194354,142505,142501,142518,194389,,,
Holding screen,html.Screen,1_1_1_0,2021-04-23T13:30:54.277Z,,,,,,,,,,,,,,,,,,,,,,,,,,,,,,10006,,timeout,,,,,,,,,,,,,,,,,,,,,204380,204380,194372,194364,194389,204395,,,
screen,html.Screen,1_1_1_1_0,2021-04-23T13:30:55.728Z,,,,,,,,,,,,,,,,54,,,,,,,,,,,,,,1441,,response,,,,100,,,,,,,Space,keypress(Space),,,,,,,,At --- ---- --- ------ ----- ------- ---- -- --- ------- --<br>------- ---------- ------ -- ----- -- ----- -- ---- ------<br>--- ----- --- --- ------ -------- ----- --- ------ ----- --<br>----- ----- ---------- --- --- ------ ------ ---- -- ------<br>------- --- ------ ----- --- ---- ------- -- ---- --- --<br>------- ------,205831.00000000003,205821,204380,204381,204395,205866,,0,At
screen,html.Screen,1_1_1_1_1,2021-04-23T13:30:56.156Z,,,,,,,,,,,,,,,,54,,,,,,,,,,,,,,399,,response,,,,100,,,,,,,Space,keypress(Space),,,,,,,,-- the ---- --- ------ ----- ------- ---- -- --- ------- --<br>------- ---------- ------ -- ----- -- ----- -- ---- ------<br>--- ----- --- --- ------ -------- ----- --- ------ ----- --<br>----- ----- ---------- --- --- ------ ------ ---- -- ------<br>------- --- ------ ----- --- ---- ------- -- ---- --- --<br>------- ------,206259,206249,205850,205831.00000000003,205866,206300,,1,the
screen,html.Screen,1_1_1_1_2,2021-04-23T13:30:56.814Z,,,,,,,,,,,,,,,,54,,,,,,,,,,,,,,623,,response,,,,100,,,,,,,Space,keypress(Space),,,,,,,,-- --- time --- ------ ----- ------- ---- -- --- ------- --<br>------- ---------- ------ -- ----- -- ----- -- ---- ------<br>--- ----- --- --- ------ -------- ----- --- ------ ----- --<br>----- ----- ---------- --- --- ------ ------ ---- -- ------<br>------- --- ------ ----- --- ---- ------- -- ---- --- --<br>------- ------,206917,206907,206284,206259,206300,206950,,2,time
screen,html.Screen,1_1_1_1_3,2021-04-23T13:30:57.842Z,,,,,,,,,,,,,,,,54,,,,,,,,,,,,,,1003,,response,,,,100,,,,,,,Space,keypress(Space),,,,,,,,-- --- ---- the ------ ----- ------- ---- -- --- ------- --<br>------- ---------- ------ -- ----- -- ----- -- ---- ------<br>--- ----- --- --- ------ -------- ----- --- ------ ----- --<br>----- ----- ---------- --- --- ------ ------ ---- -- ------<br>------- --- ------ ----- --- ---- ------- -- ---- --- --<br>------- ------,207946,207936,206933,206917,206950,207983,,3,the
screen,html.Screen,1_1_1_1_4,2021-04-23T13:30:58.244Z,,,,,,,,,,,,,,,,54,,,,,,,,,,,,,,370.0000000000291,,response,,,,100,,,,,,,Space,keypress(Space),,,,,,,,-- --- ---- --- French ----- ------- ---- -- --- ------- --<br>------- ---------- ------ -- ----- -- ----- -- ---- ------<br>--- ----- --- --- ------ -------- ----- --- ------ ----- --<br>----- ----- ---------- --- --- ------ ------ ---- -- ------<br>------- --- ------ ----- --- ---- ------- -- ---- --- --<br>------- ------,208348,208337.00000000003,207967,207946,207983,208367,,4,French
screen,html.Screen,1_1_1_1_5,2021-04-23T13:30:58.588Z,,,,,,,,,,,,,,,,54,,,,,,,,,,,,,,331,,response,,,,100,,,,,,,Space,keypress(Space),,,,,,,,-- --- ---- --- ------ crown ------- ---- -- --- ------- --<br>------- ---------- ------ -- ----- -- ----- -- ---- ------<br>--- ----- --- --- ------ -------- ----- --- ------ ----- --<br>----- ----- ---------- --- --- ------ ------ ---- -- ------<br>------- --- ------ ----- --- ---- ------- -- ---- --- --<br>------- ------,208691,208681,208350,208348,208367,208717,,5,crown
screen,html.Screen,1_1_1_1_6,2021-04-23T13:30:58.961Z,,,,,,,,,,,,,,,,54,,,,,,,,,,,,,,354,,response,,,,100,,,,,,,Space,keypress(Space),,,,,,,,-- --- ---- --- ------ ----- secured ---- -- --- ------- --<br>------- ---------- ------ -- ----- -- ----- -- ---- ------<br>--- ----- --- --- ------ -------- ----- --- ------ ----- --<br>----- ----- ---------- --- --- ------ ------ ---- -- ------<br>------- --- ------ ----- --- ---- ------- -- ---- --- --<br>------- ------,209064,209054,208700,208691,208717,209084,,6,secured
screen,html.Screen,1_1_1_1_7,2021-04-23T13:30:59.355Z,,,,,,,,,,,,,,,,54,,,,,,,,,,,,,,382,,response,,,,100,,,,,,,Space,keypress(Space),,,,,,,,-- --- ---- --- ------ ----- ------- much -- --- ------- --<br>------- ---------- ------ -- ----- -- ----- -- ---- ------<br>--- ----- --- --- ------ -------- ----- --- ------ ----- --<br>----- ----- ---------- --- --- ------ ------ ---- -- ------<br>------- --- ------ ----- --- ---- ------- -- ---- --- --<br>------- ------,209458,209448,209066,209064,209084,209500,,7,much
screen,html.Screen,1_1_1_1_8,2021-04-23T13:30:59.737Z,,,,,,,,,,,,,,,,54,,,,,,,,,,,,,,347,,response,,,,100,,,,,,,Space,keypress(Space),,,,,,,,-- --- ---- --- ------ ----- ------- ---- of --- ------- --<br>------- ---------- ------ -- ----- -- ----- -- ---- ------<br>--- ----- --- --- ------ -------- ----- --- ------ ----- --<br>----- ----- ---------- --- --- ------ ------ ---- -- ------<br>------- --- ------ ----- --- ---- ------- -- ---- --- --<br>------- ------,209840,209830,209483,209458,209500,209867,,8,of
screen,html.Screen,1_1_1_1_9,2021-04-23T13:31:00.120Z,,,,,,,,,,,,,,,,54,,,,,,,,,,,,,,363,,response,,,,100,,,,,,,Space,keypress(Space),,,,,,,,-- --- ---- --- ------ ----- ------- ---- -- its ------- --<br>------- ---------- ------ -- ----- -- ----- -- ---- ------<br>--- ----- --- --- ------ -------- ----- --- ------ ----- --<br>----- ----- ---------- --- --- ------ ------ ---- -- ------<br>------- --- ------ ----- --- ---- ------- -- ---- --- --<br>------- ------,210223,210213,209850,209840,209867,210250,,9,its
screen,html.Screen,1_1_1_1_10,2021-04-23T13:31:00.929Z,,,,,,,,,,,,,,,,54,,,,,,,,,,,,,,789,,response,,,,100,,,,,,,Space,keypress(Space),,,,,,,,-- --- ---- --- ------ ----- ------- ---- -- --- revenue --<br>------- ---------- ------ -- ----- -- ----- -- ---- ------<br>--- ----- --- --- ------ -------- ----- --- ------ ----- --<br>----- ----- ---------- --- --- ------ ------ ---- -- ------<br>------- --- ------ ----- --- ---- ------- -- ---- --- --<br>------- ------,211032,211022,210233,210223,210250,211070,,10,revenue
screen,html.Screen,1_1_1_1_11,2021-04-23T13:31:01.766Z,,,,,,,,,,,,,,,,54,,,,,,,,,,,,,,805,,response,,,,100,,,,,,,Space,keypress(Space),,,,,,,,-- --- ---- --- ------ ----- ------- ---- -- --- ------- by<br>------- ---------- ------ -- ----- -- ----- -- ---- ------<br>--- ----- --- --- ------ -------- ----- --- ------ ----- --<br>----- ----- ---------- --- --- ------ ------ ---- -- ------<br>------- --- ------ ----- --- ---- ------- -- ---- --- --<br>------- ------,211870,211860,211055,211032,211070,211905,,11,by
screen,html.Screen,1_1_1_1_12,2021-04-23T13:31:02.268Z,,,,,,,,,,,,,,,,54,,,,,,,,,,,,,,473.0000000000291,,response,,,,100,,,,,,,Space,keypress(Space),,,,,,,,-- --- ---- --- ------ ----- ------- ---- -- --- ------- --<br>issuing ---------- ------ -- ----- -- ----- -- ---- ------<br>--- ----- --- --- ------ -------- ----- --- ------ ----- --<br>----- ----- ---------- --- --- ------ ------ ---- -- ------<br>------- --- ------ ----- --- ---- ------- -- ---- --- --<br>------- ------,212371,212361.00000000003,211888,211870,211905,212405,,12,issuing
screen,html.Screen,1_1_1_1_13,2021-04-23T13:31:02.706Z,,,,,,,,,,,,,,,,54,,,,,,,,,,,,,,412,,response,,,,100,,,,,,,Space,keypress(Space),,,,,,,,-- --- ---- --- ------ ----- ------- ---- -- --- ------- --<br>------- government ------ -- ----- -- ----- -- ---- ------<br>--- ----- --- --- ------ -------- ----- --- ------ ----- --<br>----- ----- ---------- --- --- ------ ------ ---- -- ------<br>------- --- ------ ----- --- ---- ------- -- ---- --- --<br>------- ------,212810,212800,212388,212371,212405,212838,,13,government
screen,html.Screen,1_1_1_1_14,2021-04-23T13:31:03.441Z,,,,,,,,,,,,,,,,54,,,,,,,,,,,,,,713,,response,,,,100,,,,,,,Space,keypress(Space),,,,,,,,-- --- ---- --- ------ ----- ------- ---- -- --- ------- --<br>------- ---------- bonds. -- ----- -- ----- -- ---- ------<br>--- ----- --- --- ------ -------- ----- --- ------ ----- --<br>----- ----- ---------- --- --- ------ ------ ---- -- ------<br>------- --- ------ ----- --- ---- ------- -- ---- --- --<br>------- ------,213544,213534,212821,212810,212838,213571,,14,bonds.
screen,html.Screen,1_1_1_1_15,2021-04-23T13:31:03.868Z,,,,,,,,,,,,,,,,54,,,,,,,,,,,,,,406,,response,,,,100,,,,,,,Space,keypress(Space),,,,,,,,-- --- ---- --- ------ ----- ------- ---- -- --- ------- --<br>------- ---------- ------ In ----- -- ----- -- ---- ------<br>--- ----- --- --- ------ -------- ----- --- ------ ----- --<br>----- ----- ---------- --- --- ------ ------ ---- -- ------<br>------- --- ------ ----- --- ---- ------- -- ---- --- --<br>------- ------,213971,213961,213555,213544,213571,214005,,15,In
screen,html.Screen,1_1_1_1_16,2021-04-23T13:31:04.665Z,,,,,,,,,,,,,,,,54,,,,,,,,,,,,,,770,,response,,,,100,,,,,,,Space,keypress(Space),,,,,,,,"-- --- ---- --- ------ ----- ------- ---- -- --- ------- --<br>------- ---------- ------ -- 1727, -- ----- -- ---- ------<br>--- ----- --- --- ------ -------- ----- --- ------ ----- --<br>----- ----- ---------- --- --- ------ ------ ---- -- ------<br>------- --- ------ ----- --- ---- ------- -- ---- --- --<br>------- ------",214768,214758,213988,213971,214005,214803,,16,"1727,"
screen,html.Screen,1_1_1_1_17,2021-04-23T13:31:05.747Z,,,,,,,,,,,,,,,,54,,,,,,,,,,,,,,1052,,response,,,,100,,,,,,,Space,keypress(Space),,,,,,,,-- --- ---- --- ------ ----- ------- ---- -- --- ------- --<br>------- ---------- ------ -- ----- in ----- -- ---- ------<br>--- ----- --- --- ------ -------- ----- --- ------ ----- --<br>----- ----- ---------- --- --- ------ ------ ---- -- ------<br>------- --- ------ ----- --- ---- ------- -- ---- --- --<br>------- ------,215850,215840,214788,214768,214803,215892,,17,in
screen,html.Screen,1_1_1_1_18,2021-04-23T13:31:06.540Z,,,,,,,,,,,,,,,,54,,,,,,,,,,,,,,758,,response,,,,100,,,,,,,Space,keypress(Space),,,,,,,,-- --- ---- --- ------ ----- ------- ---- -- --- ------- --<br>------- ---------- ------ -- ----- -- order -- ---- ------<br>--- ----- --- --- ------ -------- ----- --- ------ ----- --<br>----- ----- ---------- --- --- ------ ------ ---- -- ------<br>------- --- ------ ----- --- ---- ------- -- ---- --- --<br>------- ------,216644,216634,215876,215850,215892,216676,,18,order
screen,html.Screen,1_1_1_1_19,2021-04-23T13:31:06.938Z,,,,,,,,,,,,,,,,54,,,,,,,,,,,,,,372,,response,,,,100,,,,,,,Space,keypress(Space),,,,,,,,-- --- ---- --- ------ ----- ------- ---- -- --- ------- --<br>------- ---------- ------ -- ----- -- ----- to ---- ------<br>--- ----- --- --- ------ -------- ----- --- ------ ----- --<br>----- ----- ---------- --- --- ------ ------ ---- -- ------<br>------- --- ------ ----- --- ---- ------- -- ---- --- --<br>------- ------,217041,217031,216659,216644,216676,217058,,19,to
screen,html.Screen,1_1_1_1_20,2021-04-23T13:31:07.304Z,,,,,,,,,,,,,,,,54,,,,,,,,,,,,,,356,,response,,,,100,,,,,,,Space,keypress(Space),,,,,,,,-- --- ---- --- ------ ----- ------- ---- -- --- ------- --<br>------- ---------- ------ -- ----- -- ----- -- save ------<br>--- ----- --- --- ------ -------- ----- --- ------ ----- --<br>----- ----- ---------- --- --- ------ ------ ---- -- ------<br>------- --- ------ ----- --- ---- ------- -- ---- --- --<br>------- ------,217408.00000000003,217398,217042,217041,217058,217442,,20,save
screen,html.Screen,1_1_1_1_21,2021-04-23T13:31:07.820Z,,,,,,,,,,,,,,,,54,,,,,,,,,,,,,,489.0000000000291,,response,,,,100,,,,,,,Space,keypress(Space),,,,,,,,"-- --- ---- --- ------ ----- ------- ---- -- --- ------- --<br>------- ---------- ------ -- ----- -- ----- -- ---- money,<br>--- ----- --- --- ------ -------- ----- --- ------ ----- --<br>----- ----- ---------- --- --- ------ ------ ---- -- ------<br>------- --- ------ ----- --- ---- ------- -- ---- --- --<br>------- ------",217924,217914.00000000003,217425,217408.00000000003,217442,217958,,21,"money,"
screen,html.Screen,1_1_1_1_22,2021-04-23T13:31:08.365Z,,,,,,,,,,,,,,,,54,,,,,,,,,,,,,,516,,response,,,,100,,,,,,,Space,keypress(Space),,,,,,,,-- --- ---- --- ------ ----- ------- ---- -- --- ------- --<br>------- ---------- ------ -- ----- -- ----- -- ---- ------<br>the ----- --- --- ------ -------- ----- --- ------ ----- --<br>----- ----- ---------- --- --- ------ ------ ---- -- ------<br>------- --- ------ ----- --- ---- ------- -- ---- --- --<br>------- ------,218468.00000000003,218458,217942,217924,217958,218509,,22,the
screen,html.Screen,1_1_1_1_23,2021-04-23T13:31:08.816Z,,,,,,,,,,,,,,,,54,,,,,,,,,,,,,,418,,response,,,,100,,,,,,,Space,keypress(Space),,,,,,,,-- --- ---- --- ------ ----- ------- ---- -- --- ------- --<br>------- ---------- ------ -- ----- -- ----- -- ---- ------<br>--- state --- --- ------ -------- ----- --- ------ ----- --<br>----- ----- ---------- --- --- ------ ------ ---- -- ------<br>------- --- ------ ----- --- ---- ------- -- ---- --- --<br>------- ------,218920.00000000003,218910,218492,218468.00000000003,218509,218959,,23,state
screen,html.Screen,1_1_1_1_24,2021-04-23T13:31:09.291Z,,,,,,,,,,,,,,,,54,,,,,,,,,,,,,,443,,response,,,,100,,,,,,,Space,keypress(Space),,,,,,,,-- --- ---- --- ------ ----- ------- ---- -- --- ------- --<br>------- ---------- ------ -- ----- -- ----- -- ---- ------<br>--- ----- cut --- ------ -------- ----- --- ------ ----- --<br>----- ----- ---------- --- --- ------ ------ ---- -- ------<br>------- --- ------ ----- --- ---- ------- -- ---- --- --<br>------- ------,219395,219385,218942,218920.00000000003,218959,219425,,24,cut
screen,html.Screen,1_1_1_1_25,2021-04-23T13:31:09.685Z,,,,,,,,,,,,,,,,54,,,,,,,,,,,,,,369,,response,,,,100,,,,,,,Space,keypress(Space),,,,,,,,-- --- ---- --- ------ ----- ------- ---- -- --- ------- --<br>------- ---------- ------ -- ----- -- ----- -- ---- ------<br>--- ----- --- the ------ -------- ----- --- ------ ----- --<br>----- ----- ---------- --- --- ------ ------ ---- -- ------<br>------- --- ------ ----- --- ---- ------- -- ---- --- --<br>------- ------,219788,219778,219409,219395,219425,219809,,25,the
screen,html.Screen,1_1_1_1_26,2021-04-23T13:31:10.122Z,,,,,,,,,,,,,,,,54,,,,,,,,,,,,,,425,,response,,,,100,,,,,,,Space,keypress(Space),,,,,,,,-- --- ---- --- ------ ----- ------- ---- -- --- ------- --<br>------- ---------- ------ -- ----- -- ----- -- ---- ------<br>--- ----- --- --- bonds' -------- ----- --- ------ ----- --<br>----- ----- ---------- --- --- ------ ------ ---- -- ------<br>------- --- ------ ----- --- ---- ------- -- ---- --- --<br>------- ------,220225,220216,219791,219788,219809,220258,,26,bonds'
screen,html.Screen,1_1_1_1_27,2021-04-23T13:31:10.707Z,,,,,,,,,,,,,,,,54,,,,,,,,,,,,,,559.0000000000291,,response,,,,100,,,,,,,Space,keypress(Space),,,,,,,,-- --- ---- --- ------ ----- ------- ---- -- --- ------- --<br>------- ---------- ------ -- ----- -- ----- -- ---- ------<br>--- ----- --- --- ------ interest ----- --- ------ ----- --<br>----- ----- ---------- --- --- ------ ------ ---- -- ------<br>------- --- ------ ----- --- ---- ------- -- ---- --- --<br>------- ------,220811,220801.00000000003,220242,220225,220258,220845,,27,interest
screen,html.Screen,1_1_1_1_28,2021-04-23T13:31:11.205Z,,,,,,,,,,,,,,,,54,,,,,,,,,,,,,,470,,response,,,,100,,,,,,,Space,keypress(Space),,,,,,,,-- --- ---- --- ------ ----- ------- ---- -- --- ------- --<br>------- ---------- ------ -- ----- -- ----- -- ---- ------<br>--- ----- --- --- ------ -------- rate. --- ------ ----- --<br>----- ----- ---------- --- --- ------ ------ ---- -- ------<br>------- --- ------ ----- --- ---- ------- -- ---- --- --<br>------- ------,221308,221299,220829,220811,220845,221346,,28,rate.
screen,html.Screen,1_1_1_1_29,2021-04-23T13:31:11.812Z,,,,,,,,,,,,,,,,54,,,,,,,,,,,,,,577,,response,,,,100,,,,,,,Space,keypress(Space),,,,,,,,-- --- ---- --- ------ ----- ------- ---- -- --- ------- --<br>------- ---------- ------ -- ----- -- ----- -- ---- ------<br>--- ----- --- --- ------ -------- ----- The ------ ----- --<br>----- ----- ---------- --- --- ------ ------ ---- -- ------<br>------- --- ------ ----- --- ---- ------- -- ---- --- --<br>------- ------,221915,221906,221329,221308,221346,221945,,29,The
screen,html.Screen,1_1_1_1_30,2021-04-23T13:31:12.399Z,,,,,,,,,,,,,,,,54,,,,,,,,,,,,,,563.0000000000291,,response,,,,100,,,,,,,Space,keypress(Space),,,,,,,,-- --- ---- --- ------ ----- ------- ---- -- --- ------- --<br>------- ---------- ------ -- ----- -- ----- -- ---- ------<br>--- ----- --- --- ------ -------- ----- --- market ----- --<br>----- ----- ---------- --- --- ------ ------ ---- -- ------<br>------- --- ------ ----- --- ---- ------- -- ---- --- --<br>------- ------,222502,222492.00000000003,221929,221915,221945,222529,,30,market
screen,html.Screen,1_1_1_1_31,2021-04-23T13:31:13.065Z,,,,,,,,,,,,,,,,54,,,,,,,,,,,,,,647.0000000000291,,response,,,,100,,,,,,,Space,keypress(Space),,,,,,,,-- --- ---- --- ------ ----- ------- ---- -- --- ------- --<br>------- ---------- ------ -- ----- -- ----- -- ---- ------<br>--- ----- --- --- ------ -------- ----- --- ------ value --<br>----- ----- ---------- --- --- ------ ------ ---- -- ------<br>------- --- ------ ----- --- ---- ------- -- ---- --- --<br>------- ------,223168,223158.00000000003,222511,222502,222529,223196,,31,value
screen,html.Screen,1_1_1_1_32,2021-04-23T13:31:13.769Z,,,,,,,,,,,,,,,,54,,,,,,,,,,,,,,684,,response,,,,100,,,,,,,Space,keypress(Space),,,,,,,,-- --- ---- --- ------ ----- ------- ---- -- --- ------- --<br>------- ---------- ------ -- ----- -- ----- -- ---- ------<br>--- ----- --- --- ------ -------- ----- --- ------ ----- of<br>----- ----- ---------- --- --- ------ ------ ---- -- ------<br>------- --- ------ ----- --- ---- ------- -- ---- --- --<br>------- ------,223872,223862,223178,223168,223196,223911,,32,of
screen,html.Screen,1_1_1_1_33,2021-04-23T13:31:14.147Z,,,,,,,,,,,,,,,,54,,,,,,,,,,,,,,345,,response,,,,100,,,,,,,Space,keypress(Space),,,,,,,,-- --- ---- --- ------ ----- ------- ---- -- --- ------- --<br>------- ---------- ------ -- ----- -- ----- -- ---- ------<br>--- ----- --- --- ------ -------- ----- --- ------ ----- --<br>these ----- ---------- --- --- ------ ------ ---- -- ------<br>------- --- ------ ----- --- ---- ------- -- ---- --- --<br>------- ------,224250,224241,223896,223872,223911,224279,,33,these
screen,html.Screen,1_1_1_1_34,2021-04-23T13:31:14.558Z,,,,,,,,,,,,,,,,54,,,,,,,,,,,,,,390.0000000000291,,response,,,,100,,,,,,,Space,keypress(Space),,,,,,,,-- --- ---- --- ------ ----- ------- ---- -- --- ------- --<br>------- ---------- ------ -- ----- -- ----- -- ---- ------<br>--- ----- --- --- ------ -------- ----- --- ------ ----- --<br>----- bonds ---------- --- --- ------ ------ ---- -- ------<br>------- --- ------ ----- --- ---- ------- -- ---- --- --<br>------- ------,224662,224652.00000000003,224262,224250,224279,224695,,34,bonds
screen,html.Screen,1_1_1_1_35,2021-04-23T13:31:15.044Z,,,,,,,,,,,,,,,,54,,,,,,,,,,,,,,459,,response,,,,100,,,,,,,Space,keypress(Space),,,,,,,,"-- --- ---- --- ------ ----- ------- ---- -- --- ------- --<br>------- ---------- ------ -- ----- -- ----- -- ---- ------<br>--- ----- --- --- ------ -------- ----- --- ------ ----- --<br>----- ----- plummeted, --- --- ------ ------ ---- -- ------<br>------- --- ------ ----- --- ---- ------- -- ---- --- --<br>------- ------",225148,225138,224679,224662,224695,225178,,35,"plummeted,"
screen,html.Screen,1_1_1_1_36,2021-04-23T13:31:15.523Z,,,,,,,,,,,,,,,,54,,,,,,,,,,,,,,455.0000000000291,,response,,,,100,,,,,,,Space,keypress(Space),,,,,,,,-- --- ---- --- ------ ----- ------- ---- -- --- ------- --<br>------- ---------- ------ -- ----- -- ----- -- ---- ------<br>--- ----- --- --- ------ -------- ----- --- ------ ----- --<br>----- ----- ---------- and --- ------ ------ ---- -- ------<br>------- --- ------ ----- --- ---- ------- -- ---- --- --<br>------- ------,225626,225617.00000000003,225162,225148,225178,225662,,36,and
screen,html.Screen,1_1_1_1_37,2021-04-23T13:31:15.999Z,,,,,,,,,,,,,,,,54,,,,,,,,,,,,,,448.0000000000291,,response,,,,100,,,,,,,Space,keypress(Space),,,,,,,,-- --- ---- --- ------ ----- ------- ---- -- --- ------- --<br>------- ---------- ------ -- ----- -- ----- -- ---- ------<br>--- ----- --- --- ------ -------- ----- --- ------ ----- --<br>----- ----- ---------- --- the ------ ------ ---- -- ------<br>------- --- ------ ----- --- ---- ------- -- ---- --- --<br>------- ------,226102,226093.00000000003,225645,225627,225662,226131,,37,the
screen,html.Screen,1_1_1_1_38,2021-04-23T13:31:16.489Z,,,,,,,,,,,,,,,,54,,,,,,,,,,,,,,469,,response,,,,100,,,,,,,Space,keypress(Space),,,,,,,,-- --- ---- --- ------ ----- ------- ---- -- --- ------- --<br>------- ---------- ------ -- ----- -- ----- -- ---- ------<br>--- ----- --- --- ------ -------- ----- --- ------ ----- --<br>----- ----- ---------- --- --- market ------ ---- -- ------<br>------- --- ------ ----- --- ---- ------- -- ---- --- --<br>------- ------,226593.00000000003,226583,226114,226102,226131,226631,,38,market
screen,html.Screen,1_1_1_1_39,2021-04-23T13:31:16.948Z,,,,,,,,,,,,,,,,54,,,,,,,,,,,,,,426,,response,,,,100,,,,,,,Space,keypress(Space),,,,,,,,-- --- ---- --- ------ ----- ------- ---- -- --- ------- --<br>------- ---------- ------ -- ----- -- ----- -- ---- ------<br>--- ----- --- --- ------ -------- ----- --- ------ ----- --<br>----- ----- ---------- --- --- ------ became ---- -- ------<br>------- --- ------ ----- --- ---- ------- -- ---- --- --<br>------- ------,227051.00000000003,227041,226615,226593.00000000003,226631,227080,,39,became
screen,html.Screen,1_1_1_1_40,2021-04-23T13:31:17.658Z,,,,,,,,,,,,,,,,54,,,,,,,,,,,,,,686,,response,,,,100,,,,,,,Space,keypress(Space),,,,,,,,-- --- ---- --- ------ ----- ------- ---- -- --- ------- --<br>------- ---------- ------ -- ----- -- ----- -- ---- ------<br>--- ----- --- --- ------ -------- ----- --- ------ ----- --<br>----- ----- ---------- --- --- ------ ------ wary -- ------<br>------- --- ------ ----- --- ---- ------- -- ---- --- --<br>------- ------,227761,227751,227065,227051.00000000003,227080,227798,,40,wary
screen,html.Screen,1_1_1_1_41,2021-04-23T13:31:18.063Z,,,,,,,,,,,,,,,,54,,,,,,,,,,,,,,375,,response,,,,100,,,,,,,Space,keypress(Space),,,,,,,,-- --- ---- --- ------ ----- ------- ---- -- --- ------- --<br>------- ---------- ------ -- ----- -- ----- -- ---- ------<br>--- ----- --- --- ------ -------- ----- --- ------ ----- --<br>----- ----- ---------- --- --- ------ ------ ---- of ------<br>------- --- ------ ----- --- ---- ------- -- ---- --- --<br>------- ------,228166,228157,227782,227761,227798,228198,,41,of
screen,html.Screen,1_1_1_1_42,2021-04-23T13:31:18.512Z,,,,,,,,,,,,,,,,54,,,,,,,,,,,,,,424.0000000000291,,response,,,,100,,,,,,,Space,keypress(Space),,,,,,,,-- --- ---- --- ------ ----- ------- ---- -- --- ------- --<br>------- ---------- ------ -- ----- -- ----- -- ---- ------<br>--- ----- --- --- ------ -------- ----- --- ------ ----- --<br>----- ----- ---------- --- --- ------ ------ ---- -- French<br>------- --- ------ ----- --- ---- ------- -- ---- --- --<br>------- ------,228615,228605.00000000003,228181,228166,228198,228647,,42,French
screen,html.Screen,1_1_1_1_43,2021-04-23T13:31:18.962Z,,,,,,,,,,,,,,,,54,,,,,,,,,,,,,,425,,response,,,,100,,,,,,,Space,keypress(Space),,,,,,,,-- --- ---- --- ------ ----- ------- ---- -- --- ------- --<br>------- ---------- ------ -- ----- -- ----- -- ---- ------<br>--- ----- --- --- ------ -------- ----- --- ------ ----- --<br>----- ----- ---------- --- --- ------ ------ ---- -- ------<br>credit. --- ------ ----- --- ---- ------- -- ---- --- --<br>------- ------,229065,229056,228631,228615,228647,229098,,43,credit.
screen,html.Screen,1_1_1_1_44,2021-04-23T13:31:19.439Z,,,,,,,,,,,,,,,,54,,,,,,,,,,,,,,450,,response,,,,100,,,,,,,Space,keypress(Space),,,,,,,,-- --- ---- --- ------ ----- ------- ---- -- --- ------- --<br>------- ---------- ------ -- ----- -- ----- -- ---- ------<br>--- ----- --- --- ------ -------- ----- --- ------ ----- --<br>----- ----- ---------- --- --- ------ ------ ---- -- ------<br>------- The ------ ----- --- ---- ------- -- ---- --- --<br>------- ------,229542,229532,229082,229065,229098,229581,,44,The
screen,html.Screen,1_1_1_1_45,2021-04-23T13:31:19.873Z,,,,,,,,,,,,,,,,54,,,,,,,,,,,,,,401,,response,,,,100,,,,,,,Space,keypress(Space),,,,,,,,-- --- ---- --- ------ ----- ------- ---- -- --- ------- --<br>------- ---------- ------ -- ----- -- ----- -- ---- ------<br>--- ----- --- --- ------ -------- ----- --- ------ ----- --<br>----- ----- ---------- --- --- ------ ------ ---- -- ------<br>------- --- French ----- --- ---- ------- -- ---- --- --<br>------- ------,229976,229966,229565,229542,229581,230014,,45,French
screen,html.Screen,1_1_1_1_46,2021-04-23T13:31:20.275Z,,,,,,,,,,,,,,,,54,,,,,,,,,,,,,,370,,response,,,,100,,,,,,,Space,keypress(Space),,,,,,,,-- --- ---- --- ------ ----- ------- ---- -- --- ------- --<br>------- ---------- ------ -- ----- -- ----- -- ---- ------<br>--- ----- --- --- ------ -------- ----- --- ------ ----- --<br>----- ----- ---------- --- --- ------ ------ ---- -- ------<br>------- --- ------ state --- ---- ------- -- ---- --- --<br>------- ------,230379,230368,229998,229976,230014,230398,,46,state
screen,html.Screen,1_1_1_1_47,2021-04-23T13:31:20.738Z,,,,,,,,,,,,,,,,54,,,,,,,,,,,,,,450.0000000000291,,response,,,,100,,,,,,,Space,keypress(Space),,,,,,,,-- --- ---- --- ------ ----- ------- ---- -- --- ------- --<br>------- ---------- ------ -- ----- -- ----- -- ---- ------<br>--- ----- --- --- ------ -------- ----- --- ------ ----- --<br>----- ----- ---------- --- --- ------ ------ ---- -- ------<br>------- --- ------ ----- was ---- ------- -- ---- --- --<br>------- ------,230841,230831.00000000003,230381,230379,230398,230869,,47,was
screen,html.Screen,1_1_1_1_48,2021-04-23T13:31:21.197Z,,,,,,,,,,,,,,,,54,,,,,,,,,,,,,,437,,response,,,,100,,,,,,,Space,keypress(Space),,,,,,,,-- --- ---- --- ------ ----- ------- ---- -- --- ------- --<br>------- ---------- ------ -- ----- -- ----- -- ---- ------<br>--- ----- --- --- ------ -------- ----- --- ------ ----- --<br>----- ----- ---------- --- --- ------ ------ ---- -- ------<br>------- --- ------ ----- --- left ------- -- ---- --- --<br>------- ------,231300,231290,230853,230841,230869,231335,,48,left
screen,html.Screen,1_1_1_1_49,2021-04-23T13:31:21.615Z,,,,,,,,,,,,,,,,54,,,,,,,,,,,,,,388,,response,,,,100,,,,,,,Space,keypress(Space),,,,,,,,-- --- ---- --- ------ ----- ------- ---- -- --- ------- --<br>------- ---------- ------ -- ----- -- ----- -- ---- ------<br>--- ----- --- --- ------ -------- ----- --- ------ ----- --<br>----- ----- ---------- --- --- ------ ------ ---- -- ------<br>------- --- ------ ----- --- ---- without -- ---- --- --<br>------- ------,231718.00000000003,231707,231319,231300,231335,231751,,49,without
screen,html.Screen,1_1_1_1_50,2021-04-23T13:31:22.003Z,,,,,,,,,,,,,,,,54,,,,,,,,,,,,,,360,,response,,,,100,,,,,,,Space,keypress(Space),,,,,,,,-- --- ---- --- ------ ----- ------- ---- -- --- ------- --<br>------- ---------- ------ -- ----- -- ----- -- ---- ------<br>--- ----- --- --- ------ -------- ----- --- ------ ----- --<br>----- ----- ---------- --- --- ------ ------ ---- -- ------<br>------- --- ------ ----- --- ---- ------- an ---- --- --<br>------- ------,232106,232096,231736,231718.00000000003,231751,232136,,50,an
screen,html.Screen,1_1_1_1_51,2021-04-23T13:31:22.412Z,,,,,,,,,,,,,,,,54,,,,,,,,,,,,,,386,,response,,,,100,,,,,,,Space,keypress(Space),,,,,,,,-- --- ---- --- ------ ----- ------- ---- -- --- ------- --<br>------- ---------- ------ -- ----- -- ----- -- ---- ------<br>--- ----- --- --- ------ -------- ----- --- ------ ----- --<br>----- ----- ---------- --- --- ------ ------ ---- -- ------<br>------- --- ------ ----- --- ---- ------- -- easy --- --<br>------- ------,232515.00000000003,232505,232119,232106,232136,232551,,51,easy
screen,html.Screen,1_1_1_1_52,2021-04-23T13:31:22.798Z,,,,,,,,,,,,,,,,54,,,,,,,,,,,,,,355,,response,,,,100,,,,,,,Space,keypress(Space),,,,,,,,-- --- ---- --- ------ ----- ------- ---- -- --- ------- --<br>------- ---------- ------ -- ----- -- ----- -- ---- ------<br>--- ----- --- --- ------ -------- ----- --- ------ ----- --<br>----- ----- ---------- --- --- ------ ------ ---- -- ------<br>------- --- ------ ----- --- ---- ------- -- ---- way --<br>------- ------,232901,232891,232536,232515.00000000003,232551,232935,,52,way
screen,html.Screen,1_1_1_1_53,2021-04-23T13:31:23.220Z,,,,,,,,,,,,,,,,54,,,,,,,,,,,,,,395.0000000000291,,response,,,,100,,,,,,,Space,keypress(Space),,,,,,,,-- --- ---- --- ------ ----- ------- ---- -- --- ------- --<br>------- ---------- ------ -- ----- -- ----- -- ---- ------<br>--- ----- --- --- ------ -------- ----- --- ------ ----- --<br>----- ----- ---------- --- --- ------ ------ ---- -- ------<br>------- --- ------ ----- --- ---- ------- -- ---- --- of<br>------- ------,233323,233313.00000000003,232918,232901,232935,233351,,53,of
screen,html.Screen,1_1_1_1_54,2021-04-23T13:31:23.634Z,,,,,,,,,,,,,,,,54,,,,,,,,,,,,,,393,,response,,,,100,,,,,,,Space,keypress(Space),,,,,,,,-- --- ---- --- ------ ----- ------- ---- -- --- ------- --<br>------- ---------- ------ -- ----- -- ----- -- ---- ------<br>--- ----- --- --- ------ -------- ----- --- ------ ----- --<br>----- ----- ---------- --- --- ------ ------ ---- -- ------<br>------- --- ------ ----- --- ---- ------- -- ---- --- --<br>raising ------,233737,233728,233335,233323,233351,233769,,54,raising
screen,html.Screen,1_1_1_1_55,2021-04-23T13:31:23.995Z,,,,,,,,,,,,,,,,54,,,,,,,,,,,,,,337,,response,,,,100,,,,,,,Space,keypress(Space),,,,,,,,-- --- ---- --- ------ ----- ------- ---- -- --- ------- --<br>------- ---------- ------ -- ----- -- ----- -- ---- ------<br>--- ----- --- --- ------ -------- ----- --- ------ ----- --<br>----- ----- ---------- --- --- ------ ------ ---- -- ------<br>------- --- ------ ----- --- ---- ------- -- ---- --- --<br>------- money.,234098,234088,233751,233737,233769,234119,,55,money.
Item 100,flow.Loop,1_1_1_1,2021-04-23T13:31:23.995Z,,,,,,,,,,,,,,,,,,,,,,,,,,,,,,29693,,completion,,,,,D,,,,,,,,,,,silence,,,,,234098,234088,204380,204381,204395,234119,,,
Question 1,html.Screen,1_1_1_2,2021-04-23T13:31:28.180Z,,,,,,,,,,,,,,,,,,,,,,,,,,,false,TRUE,,4171,,response,,,,100,D,,,,,,FALSE,click #choice-2,,,,silence,,,,,238283.00000000003,238273,234102,234099.00000000003,234119,238306,,,
Question 2,html.Screen,1_1_1_3,2021-04-23T13:31:34.085Z,,,,,,,,,,,,,,,,,,,,,,,,,,,false,FALSE,,5889,,response,,,,100,D,,,,,,TRUE,click #choice-1,,,,silence,,,,,244188.00000000003,244179,238290,238283.00000000003,238306,244214,,,
Item 100,flow.Sequence,1_1_1,2021-04-23T13:31:34.085Z,,,,,,,,,,,,,,,,,,,,,,,,,,,,,,49790,,completion,,,,,,,,,,,,,,,,,,,,,244188.00000000003,244179,194372,194364,194389,244214,,,
End of Practice,html.Page,1_1_2,2021-04-23T13:31:38.595Z,,,,,,,,,,,,,,,,,,,,,,,,,,,,,,4484,,form submission,,,,,,,,,,,,,,,,,,,,,248698,248698,244197,244188.00000000003,244214,248715,,,
Practice,flow.Sequence,1_1,2021-04-23T13:31:38.595Z,,,,,,,,,,,,,,,,,,,,,,,,,,,,,,106180,,completion,,,,,,,,,,,,,,,,,,,,,248698,248698,142505,142501,142518,248715,,,
Trap_instruction,html.Page,1_2_0,2021-04-23T13:31:44.524Z,,,,,,,,,,,,,,,,,,,,,,,,,,,,,,5912,,form submission,,,,,,,,,,,,,,,,,,,,,254627,254627,248701,248698,248715,254652,,,
trap_trial,html.Screen,1_2_1,2021-04-23T13:31:48.077Z,,,,,,,,,,,,,,,,,,,,,,,,,,,true,1,,3535,,response,,,,,,,,,,,1,click #choice-1,,,,,,,,,258180,258171,254636,254627,254652,258221,,,
end of trap trial,html.Page,1_2_2,2021-04-23T13:31:50.584Z,,,,,,,,,,,,,,,,,,,,,,,,,,,,,,2466,,form submission,,,,,,,,,,,,,,,,,,,,,260687,260687,258216,258180,258221,260719,,,
Trap 1,flow.Sequence,1_2,2021-04-23T13:31:50.584Z,,,,,,,,,,,,,,,,,,,,,,,,,,,,,,11972,,completion,,,,,,,,,,,,,,,,,,,,,260687,260687,248701,248698,248715,260719,,,
Standby,html.Page,1_3_0,2021-04-23T13:31:58.607Z,,,,,,,,,,,,,,,,,,,,,,,,,,,,,,8008,,timeout,,,,,,,,,,,,,,,,,,,,,268709,268709,260702,260687,260719,268727,,,
Holding screen,html.Screen,1_3_1_0_0,2021-04-23T13:32:05.608Z,,,,,,,,,,,,,,,,,,,,,,,,,,,,,,7000,,timeout,,,,,,,,,,,,,,,,,,,,,275710,275710,268709,268710,268727,275727,,,
screen,html.Screen,1_3_1_0_1_0,2021-04-23T13:32:06.423Z,,,,,,,,,,,,,,,,48,,,,,,,,,,,,,,803.0000000000582,,response,,,,10,D,,,,,,Space,keypress(Space),,,,silence,,,,As -- --- ------ ------- --------- ----------- --------<br>--------- -------- --- ------- -- ------- ---- -- ------<br>-- --- -------- -------- ---------- ---- ---- ---- ------<br>-- --------- -- ---- -- --- -- --- ------- -- - -----<br>---------- -- -- -- ---- ----- -- ------ -- --- ------<br>-------,276526,276513.00000000006,275710,275711,275727,276563,,0,As
screen,html.Screen,1_3_1_0_1_1,2021-04-23T13:32:06.782Z,,,,,,,,,,,,,,,,48,,,,,,,,,,,,,,327,,response,,,,10,D,,,,,,Space,keypress(Space),,,,silence,,,,-- in --- ------ ------- --------- ----------- --------<br>--------- -------- --- ------- -- ------- ---- -- ------<br>-- --- -------- -------- ---------- ---- ---- ---- ------<br>-- --------- -- ---- -- --- -- --- ------- -- - -----<br>---------- -- -- -- ---- ----- -- ------ -- --- ------<br>-------,276884,276874,276547,276526,276563,276913,,1,in
screen,html.Screen,1_3_1_0_1_2,2021-04-23T13:32:07.213Z,,,,,,,,,,,,,,,,48,,,,,,,,,,,,,,409,,response,,,,10,D,,,,,,Space,keypress(Space),,,,silence,,,,-- -- the ------ ------- --------- ----------- --------<br>--------- -------- --- ------- -- ------- ---- -- ------<br>-- --- -------- -------- ---------- ---- ---- ---- ------<br>-- --------- -- ---- -- --- -- --- ------- -- - -----<br>---------- -- -- -- ---- ----- -- ------ -- --- ------<br>-------,277315,277305,276896,276884,276913,277346,,2,the
screen,html.Screen,1_3_1_0_1_3,2021-04-23T13:32:07.926Z,,,,,,,,,,,,,,,,48,,,,,,,,,,,,,,684,,response,,,,10,D,,,,,,Space,keypress(Space),,,,silence,,,,-- -- --- United ------- --------- ----------- --------<br>--------- -------- --- ------- -- ------- ---- -- ------<br>-- --- -------- -------- ---------- ---- ---- ---- ------<br>-- --------- -- ---- -- --- -- --- ------- -- - -----<br>---------- -- -- -- ---- ----- -- ------ -- --- ------<br>-------,278029,278014,277330,277316.00000000006,277346,278063,,3,United
screen,html.Screen,1_3_1_0_1_4,2021-04-23T13:32:09.356Z,,,,,,,,,,,,,,,,48,,,,,,,,,,,,,,1401,,response,,,,10,D,,,,,,Space,keypress(Space),,,,silence,,,,"-- -- --- ------ States, --------- ----------- --------<br>--------- -------- --- ------- -- ------- ---- -- ------<br>-- --- -------- -------- ---------- ---- ---- ---- ------<br>-- --------- -- ---- -- --- -- --- ------- -- - -----<br>---------- -- -- -- ---- ----- -- ------ -- --- ------<br>-------",279458,279448,278047,278029,278063,279497,,4,"States,"
screen,html.Screen,1_3_1_0_1_5,2021-04-23T13:32:09.831Z,,,,,,,,,,,,,,,,48,,,,,,,,,,,,,,443,,response,,,,10,D,,,,,,Space,keypress(Space),,,,silence,,,,-- -- --- ------ ------- Colombian ----------- --------<br>--------- -------- --- ------- -- ------- ---- -- ------<br>-- --- -------- -------- ---------- ---- ---- ---- ------<br>-- --------- -- ---- -- --- -- --- ------- -- - -----<br>---------- -- -- -- ---- ----- -- ------ -- --- ------<br>-------,279933,279923,279480,279459,279497,279963,,5,Colombian
screen,html.Screen,1_3_1_0_1_6,2021-04-23T13:32:10.414Z,,,,,,,,,,,,,,,,48,,,,,,,,,,,,,,559,,response,,,,10,D,,,,,,Space,keypress(Space),,,,silence,,,,-- -- --- ------ ------- --------- legislation --------<br>--------- -------- --- ------- -- ------- ---- -- ------<br>-- --- -------- -------- ---------- ---- ---- ---- ------<br>-- --------- -- ---- -- --- -- --- ------- -- - -----<br>---------- -- -- -- ---- ----- -- ------ -- --- ------<br>-------,280516,280506,279947,279934,279963,280546,,6,legislation
screen,html.Screen,1_3_1_0_1_7,2021-04-23T13:32:10.900Z,,,,,,,,,,,,,,,,48,,,,,,,,,,,,,,462,,response,,,,10,D,,,,,,Space,keypress(Space),,,,silence,,,,-- -- --- ------ ------- --------- ----------- requires<br>--------- -------- --- ------- -- ------- ---- -- ------<br>-- --- -------- -------- ---------- ---- ---- ---- ------<br>-- --------- -- ---- -- --- -- --- ------- -- - -----<br>---------- -- -- -- ---- ----- -- ------ -- --- ------<br>-------,281002,280992,280530,280516,280546,281031,,7,requires
screen,html.Screen,1_3_1_0_1_8,2021-04-23T13:32:11.490Z,,,,,,,,,,,,,,,,48,,,,,,,,,,,,,,567,,response,,,,10,D,,,,,,Space,keypress(Space),,,,silence,,,,-- -- --- ------ ------- --------- ----------- --------<br>travelers -------- --- ------- -- ------- ---- -- ------<br>-- --- -------- -------- ---------- ---- ---- ---- ------<br>-- --------- -- ---- -- --- -- --- ------- -- - -----<br>---------- -- -- -- ---- ----- -- ------ -- --- ------<br>-------,281592,281582,281015,281003,281031,281631,,8,travelers
screen,html.Screen,1_3_1_0_1_9,2021-04-23T13:32:11.961Z,,,,,,,,,,,,,,,,48,,,,,,,,,,,,,,438,,response,,,,10,D,,,,,,Space,keypress(Space),,,,silence,,,,-- -- --- ------ ------- --------- ----------- --------<br>--------- entering --- ------- -- ------- ---- -- ------<br>-- --- -------- -------- ---------- ---- ---- ---- ------<br>-- --------- -- ---- -- --- -- --- ------- -- - -----<br>---------- -- -- -- ---- ----- -- ------ -- --- ------<br>-------,282064,282053,281615,281592,281631,282098,,9,entering
screen,html.Screen,1_3_1_0_1_10,2021-04-23T13:32:12.448Z,,,,,,,,,,,,,,,,48,,,,,,,,,,,,,,459,,response,,,,10,D,,,,,,Space,keypress(Space),,,,silence,,,,-- -- --- ------ ------- --------- ----------- --------<br>--------- -------- the ------- -- ------- ---- -- ------<br>-- --- -------- -------- ---------- ---- ---- ---- ------<br>-- --------- -- ---- -- --- -- --- ------- -- - -----<br>---------- -- -- -- ---- ----- -- ------ -- --- ------<br>-------,282550,282540,282081,282064,282098,282580,,10,the
screen,html.Screen,1_3_1_0_1_11,2021-04-23T13:32:13.260Z,,,,,,,,,,,,,,,,48,,,,,,,,,,,,,,787.0000000000582,,response,,,,10,D,,,,,,Space,keypress(Space),,,,silence,,,,-- -- --- ------ ------- --------- ----------- --------<br>--------- -------- --- country -- ------- ---- -- ------<br>-- --- -------- -------- ---------- ---- ---- ---- ------<br>-- --------- -- ---- -- --- -- --- ------- -- - -----<br>---------- -- -- -- ---- ----- -- ------ -- --- ------<br>-------,283363,283352.00000000006,282565,282550,282580,283398,,11,country
screen,html.Screen,1_3_1_0_1_12,2021-04-23T13:32:13.677Z,,,,,,,,,,,,,,,,48,,,,,,,,,,,,,,389,,response,,,,10,D,,,,,,Space,keypress(Space),,,,silence,,,,-- -- --- ------ ------- --------- ----------- --------<br>--------- -------- --- ------- to ------- ---- -- ------<br>-- --- -------- -------- ---------- ---- ---- ---- ------<br>-- --------- -- ---- -- --- -- --- ------- -- - -----<br>---------- -- -- -- ---- ----- -- ------ -- --- ------<br>-------,283780.00000000006,283770,283381,283363,283398,283815,,12,to
screen,html.Screen,1_3_1_0_1_13,2021-04-23T13:32:14.103Z,,,,,,,,,,,,,,,,48,,,,,,,,,,,,,,397,,response,,,,10,D,,,,,,Space,keypress(Space),,,,silence,,,,-- -- --- ------ ------- --------- ----------- --------<br>--------- -------- --- ------- -- declare ---- -- ------<br>-- --- -------- -------- ---------- ---- ---- ---- ------<br>-- --------- -- ---- -- --- -- --- ------- -- - -----<br>---------- -- -- -- ---- ----- -- ------ -- --- ------<br>-------,284205,284195,283798,283780.00000000006,283815,284247,,13,declare
screen,html.Screen,1_3_1_0_1_14,2021-04-23T13:32:14.472Z,,,,,,,,,,,,,,,,48,,,,,,,,,,,,,,334,,response,,,,10,D,,,,,,Space,keypress(Space),,,,silence,,,,-- -- --- ------ ------- --------- ----------- --------<br>--------- -------- --- ------- -- ------- cash -- ------<br>-- --- -------- -------- ---------- ---- ---- ---- ------<br>-- --------- -- ---- -- --- -- --- ------- -- - -----<br>---------- -- -- -- ---- ----- -- ------ -- --- ------<br>-------,284575,284565,284231,284205,284247,284598,,14,cash
screen,html.Screen,1_3_1_0_1_15,2021-04-23T13:32:14.931Z,,,,,,,,,,,,,,,,48,,,,,,,,,,,,,,442,,response,,,,10,D,,,,,,Space,keypress(Space),,,,silence,,,,-- -- --- ------ ------- --------- ----------- --------<br>--------- -------- --- ------- -- ------- ---- in ------<br>-- --- -------- -------- ---------- ---- ---- ---- ------<br>-- --------- -- ---- -- --- -- --- ------- -- - -----<br>---------- -- -- -- ---- ----- -- ------ -- --- ------<br>-------,285033,285023,284581,284575,284598,285065,,15,in
screen,html.Screen,1_3_1_0_1_16,2021-04-23T13:32:15.458Z,,,,,,,,,,,,,,,,48,,,,,,,,,,,,,,503,,response,,,,10,D,,,,,,Space,keypress(Space),,,,silence,,,,-- -- --- ------ ------- --------- ----------- --------<br>--------- -------- --- ------- -- ------- ---- -- excess<br>-- --- -------- -------- ---------- ---- ---- ---- ------<br>-- --------- -- ---- -- --- -- --- ------- -- - -----<br>---------- -- -- -- ---- ----- -- ------ -- --- ------<br>-------,285560,285550,285047,285033,285065,285598,,16,excess
screen,html.Screen,1_3_1_0_1_17,2021-04-23T13:32:15.875Z,,,,,,,,,,,,,,,,48,,,,,,,,,,,,,,386,,response,,,,10,D,,,,,,Space,keypress(Space),,,,silence,,,,-- -- --- ------ ------- --------- ----------- --------<br>--------- -------- --- ------- -- ------- ---- -- ------<br>of --- -------- -------- ---------- ---- ---- ---- ------<br>-- --------- -- ---- -- --- -- --- ------- -- - -----<br>---------- -- -- -- ---- ----- -- ------ -- --- ------<br>-------,285977.00000000006,285967,285581,285560,285598,286018,,17,of
screen,html.Screen,1_3_1_0_1_18,2021-04-23T13:32:16.235Z,,,,,,,,,,,,,,,,48,,,,,,,,,,,,,,325,,response,,,,10,D,,,,,,Space,keypress(Space),,,,silence,,,,-- -- --- ------ ------- --------- ----------- --------<br>--------- -------- --- ------- -- ------- ---- -- ------<br>-- ten -------- -------- ---------- ---- ---- ---- ------<br>-- --------- -- ---- -- --- -- --- ------- -- - -----<br>---------- -- -- -- ---- ----- -- ------ -- --- ------<br>-------,286337,286327,286002,285977.00000000006,286018,286367,,18,ten
screen,html.Screen,1_3_1_0_1_19,2021-04-23T13:32:16.709Z,,,,,,,,,,,,,,,,48,,,,,,,,,,,,,,451,,response,,,,10,D,,,,,,Space,keypress(Space),,,,silence,,,,-- -- --- ------ ------- --------- ----------- --------<br>--------- -------- --- ------- -- ------- ---- -- ------<br>-- --- thousand -------- ---------- ---- ---- ---- ------<br>-- --------- -- ---- -- --- -- --- ------- -- - -----<br>---------- -- -- -- ---- ----- -- ------ -- --- ------<br>-------,286812,286802,286351,286337,286367,286851,,19,thousand
screen,html.Screen,1_3_1_0_1_20,2021-04-23T13:32:17.328Z,,,,,,,,,,,,,,,,48,,,,,,,,,,,,,,585,,response,,,,10,D,,,,,,Space,keypress(Space),,,,silence,,,,-- -- --- ------ ------- --------- ----------- --------<br>--------- -------- --- ------- -- ------- ---- -- ------<br>-- --- -------- dollars. ---------- ---- ---- ---- ------<br>-- --------- -- ---- -- --- -- --- ------- -- - -----<br>---------- -- -- -- ---- ----- -- ------ -- --- ------<br>-------,287430,287420,286835,286812,286851,287468,,20,dollars.
screen,html.Screen,1_3_1_0_1_21,2021-04-23T13:32:17.848Z,,,,,,,,,,,,,,,,48,,,,,,,,,,,,,,488,,response,,,,10,D,,,,,,Space,keypress(Space),,,,silence,,,,-- -- --- ------ ------- --------- ----------- --------<br>--------- -------- --- ------- -- ------- ---- -- ------<br>-- --- -------- -------- Concealing ---- ---- ---- ------<br>-- --------- -- ---- -- --- -- --- ------- -- - -----<br>---------- -- -- -- ---- ----- -- ------ -- --- ------<br>-------,287950,287940,287452,287430,287468,287984,,21,Concealing
screen,html.Screen,1_3_1_0_1_22,2021-04-23T13:32:18.244Z,,,,,,,,,,,,,,,,48,,,,,,,,,,,,,,368,,response,,,,10,D,,,,,,Space,keypress(Space),,,,silence,,,,-- -- --- ------ ------- --------- ----------- --------<br>--------- -------- --- ------- -- ------- ---- -- ------<br>-- --- -------- -------- ---------- more ---- ---- ------<br>-- --------- -- ---- -- --- -- --- ------- -- - -----<br>---------- -- -- -- ---- ----- -- ------ -- --- ------<br>-------,288346,288336,287968,287950,287984,288367,,22,more
screen,html.Screen,1_3_1_0_1_23,2021-04-23T13:32:18.718Z,,,,,,,,,,,,,,,,48,,,,,,,,,,,,,,459,,response,,,,10,D,,,,,,Space,keypress(Space),,,,silence,,,,-- -- --- ------ ------- --------- ----------- --------<br>--------- -------- --- ------- -- ------- ---- -- ------<br>-- --- -------- -------- ---------- ---- than ---- ------<br>-- --------- -- ---- -- --- -- --- ------- -- - -----<br>---------- -- -- -- ---- ----- -- ------ -- --- ------<br>-------,288820,288810,288351,288346,288367,288851,,23,than
screen,html.Screen,1_3_1_0_1_24,2021-04-23T13:32:19.154Z,,,,,,,,,,,,,,,,48,,,,,,,,,,,,,,411,,response,,,,10,D,,,,,,Space,keypress(Space),,,,silence,,,,-- -- --- ------ ------- --------- ----------- --------<br>--------- -------- --- ------- -- ------- ---- -- ------<br>-- --- -------- -------- ---------- ---- ---- that ------<br>-- --------- -- ---- -- --- -- --- ------- -- - -----<br>---------- -- -- -- ---- ----- -- ------ -- --- ------<br>-------,289256,289246,288835,288820,288851,289285,,24,that
screen,html.Screen,1_3_1_0_1_25,2021-04-23T13:32:19.621Z,,,,,,,,,,,,,,,,48,,,,,,,,,,,,,,445,,response,,,,10,D,,,,,,Space,keypress(Space),,,,silence,,,,-- -- --- ------ ------- --------- ----------- --------<br>--------- -------- --- ------- -- ------- ---- -- ------<br>-- --- -------- -------- ---------- ---- ---- ---- amount<br>-- --------- -- ---- -- --- -- --- ------- -- - -----<br>---------- -- -- -- ---- ----- -- ------ -- --- ------<br>-------,289723,289713,289268,289256,289285,289751,,25,amount
screen,html.Screen,1_3_1_0_1_26,2021-04-23T13:32:20.064Z,,,,,,,,,,,,,,,,48,,,,,,,,,,,,,,422,,response,,,,10,D,,,,,,Space,keypress(Space),,,,silence,,,,-- -- --- ------ ------- --------- ----------- --------<br>--------- -------- --- ------- -- ------- ---- -- ------<br>-- --- -------- -------- ---------- ---- ---- ---- ------<br>to --------- -- ---- -- --- -- --- ------- -- - -----<br>---------- -- -- -- ---- ----- -- ------ -- --- ------<br>-------,290167.00000000006,290157,289735,289723,289751,290201,,26,to
screen,html.Screen,1_3_1_0_1_27,2021-04-23T13:32:20.511Z,,,,,,,,,,,,,,,,48,,,,,,,,,,,,,,418,,response,,,,10,D,,,,,,Space,keypress(Space),,,,silence,,,,-- -- --- ------ ------- --------- ----------- --------<br>--------- -------- --- ------- -- ------- ---- -- ------<br>-- --- -------- -------- ---------- ---- ---- ---- ------<br>-- transport -- ---- -- --- -- --- ------- -- - -----<br>---------- -- -- -- ---- ----- -- ------ -- --- ------<br>-------,290613,290603,290185,290167.00000000006,290201,290651,,27,transport
screen,html.Screen,1_3_1_0_1_28,2021-04-23T13:32:21.090Z,,,,,,,,,,,,,,,,48,,,,,,,,,,,,,,547,,response,,,,10,D,,,,,,Space,keypress(Space),,,,silence,,,,-- -- --- ------ ------- --------- ----------- --------<br>--------- -------- --- ------- -- ------- ---- -- ------<br>-- --- -------- -------- ---------- ---- ---- ---- ------<br>-- --------- it ---- -- --- -- --- ------- -- - -----<br>---------- -- -- -- ---- ----- -- ------ -- --- ------<br>-------,291192,291182,290635,290613,290651,291222,,28,it
screen,html.Screen,1_3_1_0_1_29,2021-04-23T13:32:21.552Z,,,,,,,,,,,,,,,,48,,,,,,,,,,,,,,439,,response,,,,10,D,,,,,,Space,keypress(Space),,,,silence,,,,-- -- --- ------ ------- --------- ----------- --------<br>--------- -------- --- ------- -- ------- ---- -- ------<br>-- --- -------- -------- ---------- ---- ---- ---- ------<br>-- --------- -- into -- --- -- --- ------- -- - -----<br>---------- -- -- -- ---- ----- -- ------ -- --- ------<br>-------,291655.00000000006,291645,291206,291192,291222,291689,,29,into
screen,html.Screen,1_3_1_0_1_30,2021-04-23T13:32:21.958Z,,,,,,,,,,,,,,,,48,,,,,,,,,,,,,,380,,response,,,,10,D,,,,,,Space,keypress(Space),,,,silence,,,,-- -- --- ------ ------- --------- ----------- --------<br>--------- -------- --- ------- -- ------- ---- -- ------<br>-- --- -------- -------- ---------- ---- ---- ---- ------<br>-- --------- -- ---- or --- -- --- ------- -- - -----<br>---------- -- -- -- ---- ----- -- ------ -- --- ------<br>-------,292061,292051,291671,291655.00000000006,291689,292089,,30,or
screen,html.Screen,1_3_1_0_1_31,2021-04-23T13:32:22.363Z,,,,,,,,,,,,,,,,48,,,,,,,,,,,,,,384,,response,,,,10,D,,,,,,Space,keypress(Space),,,,silence,,,,-- -- --- ------ ------- --------- ----------- --------<br>--------- -------- --- ------- -- ------- ---- -- ------<br>-- --- -------- -------- ---------- ---- ---- ---- ------<br>-- --------- -- ---- -- out -- --- ------- -- - -----<br>---------- -- -- -- ---- ----- -- ------ -- --- ------<br>-------,292466,292456,292072,292061,292089,292506,,31,out
screen,html.Screen,1_3_1_0_1_32,2021-04-23T13:32:22.755Z,,,,,,,,,,,,,,,,48,,,,,,,,,,,,,,358,,response,,,,10,D,,,,,,Space,keypress(Space),,,,silence,,,,-- -- --- ------ ------- --------- ----------- --------<br>--------- -------- --- ------- -- ------- ---- -- ------<br>-- --- -------- -------- ---------- ---- ---- ---- ------<br>-- --------- -- ---- -- --- of --- ------- -- - -----<br>---------- -- -- -- ---- ----- -- ------ -- --- ------<br>-------,292858,292847,292489,292466,292506,292889,,32,of
screen,html.Screen,1_3_1_0_1_33,2021-04-23T13:32:23.125Z,,,,,,,,,,,,,,,,48,,,,,,,,,,,,,,346,,response,,,,10,D,,,,,,Space,keypress(Space),,,,silence,,,,-- -- --- ------ ------- --------- ----------- --------<br>--------- -------- --- ------- -- ------- ---- -- ------<br>-- --- -------- -------- ---------- ---- ---- ---- ------<br>-- --------- -- ---- -- --- -- the ------- -- - -----<br>---------- -- -- -- ---- ----- -- ------ -- --- ------<br>-------,293227.00000000006,293217,292871,292858,292889,293255,,33,the
screen,html.Screen,1_3_1_0_1_34,2021-04-23T13:32:23.583Z,,,,,,,,,,,,,,,,48,,,,,,,,,,,,,,436,,response,,,,10,D,,,,,,Space,keypress(Space),,,,silence,,,,-- -- --- ------ ------- --------- ----------- --------<br>--------- -------- --- ------- -- ------- ---- -- ------<br>-- --- -------- -------- ---------- ---- ---- ---- ------<br>-- --------- -- ---- -- --- -- --- country -- - -----<br>---------- -- -- -- ---- ----- -- ------ -- --- ------<br>-------,293685,293675,293239,293227.00000000006,293255,293722,,34,country
screen,html.Screen,1_3_1_0_1_35,2021-04-23T13:32:23.993Z,,,,,,,,,,,,,,,,48,,,,,,,,,,,,,,380,,response,,,,10,D,,,,,,Space,keypress(Space),,,,silence,,,,-- -- --- ------ ------- --------- ----------- --------<br>--------- -------- --- ------- -- ------- ---- -- ------<br>-- --- -------- -------- ---------- ---- ---- ---- ------<br>-- --------- -- ---- -- --- -- --- ------- is - -----<br>---------- -- -- -- ---- ----- -- ------ -- --- ------<br>-------,294096,294086,293706,293685,293722,294138,,35,is
screen,html.Screen,1_3_1_0_1_36,2021-04-23T13:32:24.383Z,,,,,,,,,,,,,,,,48,,,,,,,,,,,,,,353,,response,,,,10,D,,,,,,Space,keypress(Space),,,,silence,,,,-- -- --- ------ ------- --------- ----------- --------<br>--------- -------- --- ------- -- ------- ---- -- ------<br>-- --- -------- -------- ---------- ---- ---- ---- ------<br>-- --------- -- ---- -- --- -- --- ------- -- a -----<br>---------- -- -- -- ---- ----- -- ------ -- --- ------<br>-------,294486,294475,294122,294096,294138,294505,,36,a
screen,html.Screen,1_3_1_0_1_37,2021-04-23T13:32:24.887Z,,,,,,,,,,,,,,,,48,,,,,,,,,,,,,,491,,response,,,,10,D,,,,,,Space,keypress(Space),,,,silence,,,,-- -- --- ------ ------- --------- ----------- --------<br>--------- -------- --- ------- -- ------- ---- -- ------<br>-- --- -------- -------- ---------- ---- ---- ---- ------<br>-- --------- -- ---- -- --- -- --- ------- -- - crime<br>---------- -- -- -- ---- ----- -- ------ -- --- ------<br>-------,294990,294980,294489,294486,294505,295022,,37,crime
screen,html.Screen,1_3_1_0_1_38,2021-04-23T13:32:25.437Z,,,,,,,,,,,,,,,,48,,,,,,,,,,,,,,524.0000000000582,,response,,,,10,D,,,,,,Space,keypress(Space),,,,silence,,,,-- -- --- ------ ------- --------- ----------- --------<br>--------- -------- --- ------- -- ------- ---- -- ------<br>-- --- -------- -------- ---------- ---- ---- ---- ------<br>-- --------- -- ---- -- --- -- --- ------- -- - -----<br>punishable -- -- -- ---- ----- -- ------ -- --- ------<br>-------,295540,295530.00000000006,295006,294990,295022,295572,,38,punishable
screen,html.Screen,1_3_1_0_1_39,2021-04-23T13:32:25.832Z,,,,,,,,,,,,,,,,48,,,,,,,,,,,,,,368,,response,,,,10,D,,,,,,Space,keypress(Space),,,,silence,,,,-- -- --- ------ ------- --------- ----------- --------<br>--------- -------- --- ------- -- ------- ---- -- ------<br>-- --- -------- -------- ---------- ---- ---- ---- ------<br>-- --------- -- ---- -- --- -- --- ------- -- - -----<br>---------- by -- -- ---- ----- -- ------ -- --- ------<br>-------,295934,295924,295556,295540,295572,295961,,39,by
screen,html.Screen,1_3_1_0_1_40,2021-04-23T13:32:26.189Z,,,,,,,,,,,,,,,,48,,,,,,,,,,,,,,339,,response,,,,10,D,,,,,,Space,keypress(Space),,,,silence,,,,-- -- --- ------ ------- --------- ----------- --------<br>--------- -------- --- ------- -- ------- ---- -- ------<br>-- --- -------- -------- ---------- ---- ---- ---- ------<br>-- --------- -- ---- -- --- -- --- ------- -- - -----<br>---------- -- up -- ---- ----- -- ------ -- --- ------<br>-------,296292.00000000006,296282,295943,295934,295961,296310,,40,up
screen,html.Screen,1_3_1_0_1_41,2021-04-23T13:32:26.559Z,,,,,,,,,,,,,,,,48,,,,,,,,,,,,,,358,,response,,,,10,D,,,,,,Space,keypress(Space),,,,silence,,,,-- -- --- ------ ------- --------- ----------- --------<br>--------- -------- --- ------- -- ------- ---- -- ------<br>-- --- -------- -------- ---------- ---- ---- ---- ------<br>-- --------- -- ---- -- --- -- --- ------- -- - -----<br>---------- -- -- to ---- ----- -- ------ -- --- ------<br>-------,296662.00000000006,296651,296293,296292.00000000006,296310,296693,,41,to
screen,html.Screen,1_3_1_0_1_42,2021-04-23T13:32:26.922Z,,,,,,,,,,,,,,,,48,,,,,,,,,,,,,,337,,response,,,,10,D,,,,,,Space,keypress(Space),,,,silence,,,,-- -- --- ------ ------- --------- ----------- --------<br>--------- -------- --- ------- -- ------- ---- -- ------<br>-- --- -------- -------- ---------- ---- ---- ---- ------<br>-- --------- -- ---- -- --- -- --- ------- -- - -----<br>---------- -- -- -- five ----- -- ------ -- --- ------<br>-------,297025.00000000006,297014,296677,296662.00000000006,296693,297044,,42,five
screen,html.Screen,1_3_1_0_1_43,2021-04-23T13:32:27.340Z,,,,,,,,,,,,,,,,48,,,,,,,,,,,,,,406,,response,,,,10,D,,,,,,Space,keypress(Space),,,,silence,,,,-- -- --- ------ ------- --------- ----------- --------<br>--------- -------- --- ------- -- ------- ---- -- ------<br>-- --- -------- -------- ---------- ---- ---- ---- ------<br>-- --------- -- ---- -- --- -- --- ------- -- - -----<br>---------- -- -- -- ---- years -- ------ -- --- ------<br>-------,297443,297432,297026,297025.00000000006,297044,297476,,43,years
screen,html.Screen,1_3_1_0_1_44,2021-04-23T13:32:27.729Z,,,,,,,,,,,,,,,,48,,,,,,,,,,,,,,360,,response,,,,10,D,,,,,,Space,keypress(Space),,,,silence,,,,-- -- --- ------ ------- --------- ----------- --------<br>--------- -------- --- ------- -- ------- ---- -- ------<br>-- --- -------- -------- ---------- ---- ---- ---- ------<br>-- --------- -- ---- -- --- -- --- ------- -- - -----<br>---------- -- -- -- ---- ----- in ------ -- --- ------<br>-------,297831,297820,297460,297443,297476,297860,,44,in
screen,html.Screen,1_3_1_0_1_45,2021-04-23T13:32:28.186Z,,,,,,,,,,,,,,,,48,,,,,,,,,,,,,,436,,response,,,,10,D,,,,,,Space,keypress(Space),,,,silence,,,,-- -- --- ------ ------- --------- ----------- --------<br>--------- -------- --- ------- -- ------- ---- -- ------<br>-- --- -------- -------- ---------- ---- ---- ---- ------<br>-- --------- -- ---- -- --- -- --- ------- -- - -----<br>---------- -- -- -- ---- ----- -- prison -- --- ------<br>-------,298289,298278,297842,297831,297860,298326,,45,prison
screen,html.Screen,1_3_1_0_1_46,2021-04-23T13:32:28.620Z,,,,,,,,,,,,,,,,48,,,,,,,,,,,,,,403,,response,,,,10,D,,,,,,Space,keypress(Space),,,,silence,,,,-- -- --- ------ ------- --------- ----------- --------<br>--------- -------- --- ------- -- ------- ---- -- ------<br>-- --- -------- -------- ---------- ---- ---- ---- ------<br>-- --------- -- ---- -- --- -- --- ------- -- - -----<br>---------- -- -- -- ---- ----- -- ------ in --- ------<br>-------,298723,298712,298309,298289,298326,298759,,46,in
screen,html.Screen,1_3_1_0_1_47,2021-04-23T13:32:29.066Z,,,,,,,,,,,,,,,,48,,,,,,,,,,,,,,415,,response,,,,10,D,,,,,,Space,keypress(Space),,,,silence,,,,-- -- --- ------ ------- --------- ----------- --------<br>--------- -------- --- ------- -- ------- ---- -- ------<br>-- --- -------- -------- ---------- ---- ---- ---- ------<br>-- --------- -- ---- -- --- -- --- ------- -- - -----<br>---------- -- -- -- ---- ----- -- ------ -- the ------<br>-------,299169,299158,298743,298723,298759,299210,,47,the
screen,html.Screen,1_3_1_0_1_48,2021-04-23T13:32:29.501Z,,,,,,,,,,,,,,,,48,,,,,,,,,,,,,,400,,response,,,,10,D,,,,,,Space,keypress(Space),,,,silence,,,,-- -- --- ------ ------- --------- ----------- --------<br>--------- -------- --- ------- -- ------- ---- -- ------<br>-- --- -------- -------- ---------- ---- ---- ---- ------<br>-- --------- -- ---- -- --- -- --- ------- -- - -----<br>---------- -- -- -- ---- ----- -- ------ -- --- United<br>-------,299604,299593,299193,299169,299210,299642,,48,United
screen,html.Screen,1_3_1_0_1_49,2021-04-23T13:32:29.832Z,,,,,,,,,,,,,,,,48,,,,,,,,,,,,,,297,,response,,,,10,D,,,,,,Space,keypress(Space),,,,silence,,,,-- -- --- ------ ------- --------- ----------- --------<br>--------- -------- --- ------- -- ------- ---- -- ------<br>-- --- -------- -------- ---------- ---- ---- ---- ------<br>-- --------- -- ---- -- --- -- --- ------- -- - -----<br>---------- -- -- -- ---- ----- -- ------ -- --- ------<br>States.,299934,299923,299626,299604,299642,299959,,49,States.
Item 10,flow.Loop,1_3_1_0_1,2021-04-23T13:32:29.832Z,,,,,,,,,,,,,,,,,,,,,,,,,,,,,,24196,,completion,,,,,,,,,,,,,,,,,,,,,299934,299923,275710,275711,275727,299959,,,
Question 1,html.Screen,1_3_1_0_2,2021-04-23T13:32:34.685Z,,,,,,,,,,,,,,,,,,,,,,,,,,,true,TRUE,,4834,,response,,,,10,D,,,,,,TRUE,click #choice-1,,,,silence,,,,,304787.00000000006,304777,299943,299934,299959,304809,,,
Question 2,html.Screen,1_3_1_0_3,2021-04-23T13:32:40.495Z,,,,,,,,,,,,,,,,,,,,,,,,,,,true,TRUE,,5793,,response,,,,10,D,,,,,,TRUE,click #choice-1,,,,silence,,,,,310598,310586,304793,304788,304809,310629,,,
Item 10,flow.Sequence,1_3_1_0,2021-04-23T13:32:40.496Z,,,,,,,,,,,,,,,,,,,,,,,,,,,,,,41859,,completion,,,,,,,,,,,,,,,,,,,,,310598,310586,268709,268710,268727,310629,,,
Holding screen,html.Screen,1_3_1_1_0,2021-04-23T13:32:47.516Z,,,,,,,,,,,,,,,,,,,,,,,,,,,,,,7006,,timeout,,,,,,,,,,,,,,,,,,,,,317618,317618,310611,310598,310629,317635,,,
screen,html.Screen,1_3_1_1_1_0,2021-04-23T13:32:48.815Z,,,,,,,,,,,,,,,,51,,,,,,,,,,,,,,1288,,response,,,,13,D,,,,,,Space,keypress(Space),,,,silence,,,,American -------- --- --- ---- --- --- ------ -- --------<br>---- --------- --- ------- ------------ ---------- ---------<br>--- ---------- ------- ---------- ------- -- -------- ----<br>---- --- ------ ----- ------ -- ---- --- ----- -- - -------<br>-------- -- --- --- -- ----- ----------- ----- -----------<br>---- --- ---------- --- ---- --- -- ----------,318917.00000000006,318906,317618,317619,317635,318951,,0,American
screen,html.Screen,1_3_1_1_1_1,2021-04-23T13:32:49.424Z,,,,,,,,,,,,,,,,51,,,,,,,,,,,,,,581,,response,,,,13,D,,,,,,Space,keypress(Space),,,,silence,,,,-------- industry --- --- ---- --- --- ------ -- --------<br>---- --------- --- ------- ------------ ---------- ---------<br>--- ---------- ------- ---------- ------- -- -------- ----<br>---- --- ------ ----- ------ -- ---- --- ----- -- - -------<br>-------- -- --- --- -- ----- ----------- ----- -----------<br>---- --- ---------- --- ---- --- -- ----------,319526,319516,318935,318917.00000000006,318951,319569,,1,industry
screen,html.Screen,1_3_1_1_1_2,2021-04-23T13:32:49.964Z,,,,,,,,,,,,,,,,51,,,,,,,,,,,,,,505,,response,,,,13,D,,,,,,Space,keypress(Space),,,,silence,,,,-------- -------- may --- ---- --- --- ------ -- --------<br>---- --------- --- ------- ------------ ---------- ---------<br>--- ---------- ------- ---------- ------- -- -------- ----<br>---- --- ------ ----- ------ -- ---- --- ----- -- - -------<br>-------- -- --- --- -- ----- ----------- ----- -----------<br>---- --- ---------- --- ---- --- -- ----------,320066.00000000006,320056,319551,319527,319569,320102,,2,may
screen,html.Screen,1_3_1_1_1_3,2021-04-23T13:32:50.439Z,,,,,,,,,,,,,,,,51,,,,,,,,,,,,,,445.0000000000582,,response,,,,13,D,,,,,,Space,keypress(Space),,,,silence,,,,-------- -------- --- not ---- --- --- ------ -- --------<br>---- --------- --- ------- ------------ ---------- ---------<br>--- ---------- ------- ---------- ------- -- -------- ----<br>---- --- ------ ----- ------ -- ---- --- ----- -- - -------<br>-------- -- --- --- -- ----- ----------- ----- -----------<br>---- --- ---------- --- ---- --- -- ----------,320541,320530.00000000006,320085,320066.00000000006,320102,320568,,3,not
screen,html.Screen,1_3_1_1_1_4,2021-04-23T13:32:51.001Z,,,,,,,,,,,,,,,,51,,,,,,,,,,,,,,539,,response,,,,13,D,,,,,,Space,keypress(Space),,,,silence,,,,-------- -------- --- --- know --- --- ------ -- --------<br>---- --------- --- ------- ------------ ---------- ---------<br>--- ---------- ------- ---------- ------- -- -------- ----<br>---- --- ------ ----- ------ -- ---- --- ----- -- - -------<br>-------- -- --- --- -- ----- ----------- ----- -----------<br>---- --- ---------- --- ---- --- -- ----------,321103,321091,320552,320541,320568,321140,,4,know
screen,html.Screen,1_3_1_1_1_5,2021-04-23T13:32:51.542Z,,,,,,,,,,,,,,,,51,,,,,,,,,,,,,,510,,response,,,,13,D,,,,,,Space,keypress(Space),,,,silence,,,,"-------- -------- --- --- ---- it, --- ------ -- --------<br>---- --------- --- ------- ------------ ---------- ---------<br>--- ---------- ------- ---------- ------- -- -------- ----<br>---- --- ------ ----- ------ -- ---- --- ----- -- - -------<br>-------- -- --- --- -- ----- ----------- ----- -----------<br>---- --- ---------- --- ---- --- -- ----------",321644,321634,321124,321103,321140,321673,,5,"it,"
screen,html.Screen,1_3_1_1_1_6,2021-04-23T13:32:52.212Z,,,,,,,,,,,,,,,,51,,,,,,,,,,,,,,647,,response,,,,13,D,,,,,,Space,keypress(Space),,,,silence,,,,-------- -------- --- --- ---- --- but ------ -- --------<br>---- --------- --- ------- ------------ ---------- ---------<br>--- ---------- ------- ---------- ------- -- -------- ----<br>---- --- ------ ----- ------ -- ---- --- ----- -- - -------<br>-------- -- --- --- -- ----- ----------- ----- -----------<br>---- --- ---------- --- ---- --- -- ----------,322314,322303,321656,321644,321673,322357,,6,but
screen,html.Screen,1_3_1_1_1_7,2021-04-23T13:32:52.691Z,,,,,,,,,,,,,,,,51,,,,,,,,,,,,,,442,,response,,,,13,D,,,,,,Space,keypress(Space),,,,silence,,,,-------- -------- --- --- ---- --- --- debate -- --------<br>---- --------- --- ------- ------------ ---------- ---------<br>--- ---------- ------- ---------- ------- -- -------- ----<br>---- --- ------ ----- ------ -- ---- --- ----- -- - -------<br>-------- -- --- --- -- ----- ----------- ----- -----------<br>---- --- ---------- --- ---- --- -- ----------,322793,322783,322341,322314,322357,322823,,7,debate
screen,html.Screen,1_3_1_1_1_8,2021-04-23T13:32:53.249Z,,,,,,,,,,,,,,,,51,,,,,,,,,,,,,,534.0000000000582,,response,,,,13,D,,,,,,Space,keypress(Space),,,,silence,,,,-------- -------- --- --- ---- --- --- ------ in --------<br>---- --------- --- ------- ------------ ---------- ---------<br>--- ---------- ------- ---------- ------- -- -------- ----<br>---- --- ------ ----- ------ -- ---- --- ----- -- - -------<br>-------- -- --- --- -- ----- ----------- ----- -----------<br>---- --- ---------- --- ---- --- -- ----------,323351,323340.00000000006,322806,322793,322823,323390,,8,in
screen,html.Screen,1_3_1_1_1_9,2021-04-23T13:32:54.001Z,,,,,,,,,,,,,,,,51,,,,,,,,,,,,,,718,,response,,,,13,D,,,,,,Space,keypress(Space),,,,silence,,,,-------- -------- --- --- ---- --- --- ------ -- Congress<br>---- --------- --- ------- ------------ ---------- ---------<br>--- ---------- ------- ---------- ------- -- -------- ----<br>---- --- ------ ----- ------ -- ---- --- ----- -- - -------<br>-------- -- --- --- -- ----- ----------- ----- -----------<br>---- --- ---------- --- ---- --- -- ----------,324103,324092,323374,323351,323390,324140,,9,Congress
