sender,sender_type,sender_id,timestamp,meta,,Blues,Classical,Country,Dance,Electronic,Folk,Gospel,Hip-Hop,Jazz,Latin,Musical/Film,New-age,Pop,Provo_ID,R&B,Rap,Reggae,Religious,Rock,Soul,Swing,Traditional,age,artist_name,correct,correctResponse,distraction,duration,ended_on,familiarity,gender,headphone_check_performance,item,list,offensiveness,pleasantness,position_correct,preference,response,response_action,snippet_file,song_name,song_rating,sound,stimulus_1,stimulus_2,stimulus_3,text,time_commit,time_end,time_render,time_run,time_show,time_switch,url,word,word_ID
Introduction,html.Screen,0_0,2021-03-25T02:29:41.498Z,"{""labjs_version"":""20.2.2"",""labjs_build"":{""flavor"":""production"",""commit"":""a25486e0c714a0ae2ce03ff94b7bb6896854dcfa""},""location"":""https://run.pavlovia.org/mvasilev/music_c/"",""userAgent"":""Mozilla/5.0 (Windows NT 10.0; Win64; x64) AppleWebKit/537.36 (KHTML, like Gecko) Chrome/89.0.4389.90 Safari/537.36"",""platform"":""Win32"",""language"":""de-DE"",""locale"":""en-US"",""timeZone"":""Europe/London"",""timezoneOffset"":0,""screen_width"":2560,""screen_height"":1440,""scroll_width"":3200,""scroll_height"":1621,""window_innerWidth"":3200,""window_innerHeight"":1668,""devicePixelRatio"":0.800000011920929}",,,,,,,,,,,,,,,,,,,,,,,,,,,,,7111.575999954701,response,,,,,,,,,,continue,click button,,,,,,,,,15266.084999952,15264.6099999547,8120.286,8128.904999990482,8153.034,15274.395,{},,
Volume calibration,html.Screen,0_1,2021-03-25T02:29:43.235Z,,,,,,,,,,,,,,,,,,,,,,,,,,,,,,1725.8350000051032,response,,,,,,,,,,continue,click button,,,,,,,,,17002.860000007786,17000.230000005104,15257.759,15266.354999970645,15274.395,17008.877,,,
Task instructions,html.Screen,0_2,2021-03-25T02:29:44.456Z,,,,,,,,,,,,,,,,,,,,,,,,,,,,,,1215.152999983031,response,,,,,,,,,,continue,click button,,,,,,,,,18224.6799999848,18224.02999998303,16992.229,17003.01499996567,17008.877,18226.325,,,
Sounds,html.Screen,0_3_0_0,2021-03-25T02:29:48.698Z,,,,,,,,,,,,,,,,,,,,,,,,,,,,,,4252.807000000001,timeout,,,,,,,,3,,,,,,,,I,O,S,,22466.769999999087,22462.473,18209.687,18224.894999992102,18226.325,22479.132,,,
Judgement,html.Screen,0_3_0_1,2021-03-25T02:29:49.272Z,,,,,,,,,,,,,,,,,,,,,,,,,,,true,3,,560.0979999948577,response,,,,,,,,3,,3,click #choice-3,,,,,I,O,S,,23039.984999981243,23039.22999999486,22462.473,22467.06999995513,22479.132,23046.081,,,
Trial,flow.Sequence,0_3_0,2021-03-25T02:29:49.272Z,,,,,,,,,,,,,,,,,,,,,,,,,,,,,,4812.904999994858,completion,,,,,,,,3,,,,,,,,I,O,S,,23040.309999953024,23039.22999999486,18209.687,18224.849999998696,18226.325,23046.081,,,
Sounds,html.Screen,0_3_1_0,2021-03-25T02:29:53.515Z,,,,,,,,,,,,,,,,,,,,,,,,,,,,,,4252.858,timeout,,,,,,,,2,,,,,,,,I,S,O,,27283.394999976736,27282.304,23029.531,23040.45499995118,23046.081,27298.939,,,
Judgement,html.Screen,0_3_1_1,2021-03-25T02:29:54.023Z,,,,,,,,,,,,,,,,,,,,,,,,,,,true,2,,491.61599995593133,response,,,,,,,,2,,2,click #choice-2,,,,,I,S,O,,27791.30499996245,27790.55499995593,27282.304,27287.099999957718,27298.939,27799.282,,,
Trial,flow.Sequence,0_3_1,2021-03-25T02:29:54.023Z,,,,,,,,,,,,,,,,,,,,,,,,,,,,,,4744.4739999559315,completion,,,,,,,,2,,,,,,,,I,S,O,,27791.540000005625,27790.55499995593,23029.531,23040.414999995846,23046.081,27799.282,,,
Sounds,html.Screen,0_3_2_0,2021-03-25T02:29:58.268Z,,,,,,,,,,,,,,,,,,,,,,,,,,,,,,4252.823,timeout,,,,,,,,2,,,,,,,,O,S,I,,32036.199999973178,32035.425,27782.654,27791.689999983646,27799.282,32052.105,,,
Judgement,html.Screen,0_3_2_1,2021-03-25T02:29:58.799Z,,,,,,,,,,,,,,,,,,,,,,,,,,,true,2,,513.6849999641818,response,,,,,,,,2,,2,click #choice-2,,,,,O,S,I,,32566.575000004377,32565.78999996418,32035.425,32036.444999976084,32052.105,32569.082,,,
Trial,flow.Sequence,0_3_2,2021-03-25T02:29:58.799Z,,,,,,,,,,,,,,,,,,,,,,,,,,,,,,4766.507999964182,completion,,,,,,,,2,,,,,,,,O,S,I,,32566.784999973606,32565.78999996418,27782.654,27791.64499999024,27799.282,32569.082,,,
Sounds,html.Screen,0_3_3_0,2021-03-25T02:30:03.038Z,,,,,,,,,,,,,,,,,,,,,,,,,,,,,,4252.778999999999,timeout,,,,,,,,1,,,,,,,,S,I,O,,36805.95999996876,36805.22,32552.45,32566.919999953825,32569.082,36821.861,,,
Judgement,html.Screen,0_3_3_1,2021-03-25T02:30:03.750Z,,,,,,,,,,,,,,,,,,,,,,,,,,,true,1,,695.2539999951041,response,,,,,,,,1,,1,click #choice-1,,,,,S,I,O,,37517.88499997929,37517.1149999951,36805.22,36806.174999976065,36821.861,37522.282,,,
Trial,flow.Sequence,0_3_3,2021-03-25T02:30:03.750Z,,,,,,,,,,,,,,,,,,,,,,,,,,,,,,4948.032999995103,completion,,,,,,,,1,,,,,,,,S,I,O,,37518.079999950714,37517.1149999951,32552.45,32566.869999980554,32569.082,37522.282,,,
Sounds,html.Screen,0_3_4_0,2021-03-25T02:30:07.992Z,,,,,,,,,,,,,,,,,,,,,,,,,,,,,,4252.881000000001,timeout,,,,,,,,1,,,,,,,,S,O,I,,41759.309999994,41758.471,37505.704,37518.2049999712,37522.282,41775.163,,,
Judgement,html.Screen,0_3_4_1,2021-03-25T02:30:08.781Z,,,,,,,,,,,,,,,,,,,,,,,,,,,true,1,,773.0519999588723,response,,,,,,,,1,,1,click #choice-1,,,,,S,O,I,,42548.91499999212,42548.21499995887,41758.471,41759.539999999106,41775.163,42558.889,,,
Trial,flow.Sequence,0_3_4,2021-03-25T02:30:08.781Z,,,,,,,,,,,,,,,,,,,,,,,,,,,,,,5025.932999958874,completion,,,,,,,,1,,,,,,,,S,O,I,,42549.10000000382,42548.21499995887,37505.704,37518.169999995735,37522.282,42558.889,,,
Sounds,html.Screen,0_3_5_0,2021-03-25T02:30:13.028Z,,,,,,,,,,,,,,,,,,,,,,,,,,,,,,4252.917999999998,timeout,,,,,,,,3,,,,,,,,O,I,S,,46795.89499998838,46795.115,42542.344,42549.219999986235,42558.889,46811.807,,,
Judgement,html.Screen,0_3_5_1,2021-03-25T02:30:13.764Z,,,,,,,,,,,,,,,,,,,,,,,,,,,true,3,,719.673000005103,response,,,,,,,,3,,3,click #choice-3,,,,,O,I,S,,47532.145000004675,47531.480000005104,46795.115,46796.12499999348,46811.807,47545.473,,,
Trial,flow.Sequence,0_3_5,2021-03-25T02:30:13.765Z,,,,,,,,,,,,,,,,,,,,,,,,,,,,,,4972.591000005101,completion,,,,,,,,3,,,,,,,,O,I,S,,47532.329999958165,47531.480000005104,42542.344,42549.18499995256,42558.889,47545.473,,,
Task,flow.Loop,0_3,2021-03-25T02:30:13.769Z,,,,,,,,,,,,,,,,,,,,,,,,,,,,,,29305.155000005103,completion,,,1,,,,,,,,,,,,,,,,,47536.26999998232,47531.480000005104,18209.687,18224.799999967217,18226.325,47545.473,,,
Trap,html.Screen,0_4,2021-03-25T02:30:13.771Z,,,,,,,,,,,,,,,,,,,,,,,,,,,,,,NaN,skipped,,,,,,,,,,,,,,,,,,,,47538.46499999054,47531.480000005104,,47538.334999990184,,47545.473,,,
Thanks,html.Screen,0_5,2021-03-25T02:30:19.868Z,,,,,,,,,,,,,,,,,,,,,,,,,,,,,,6089.031999965431,response,,,,,,,,,,continue,click button,,,,,,,,,53635.299999965355,53634.50499996543,47528.963,47538.57999999309,47545.473,54916.951,,,
Headphone screening,flow.Sequence,0,2021-03-25T02:30:19.868Z,,,,,,,,,,,,,,,,,,,,,,,,,,,,,,45481.47099996543,completion,,,,,,,,,,,,,,,,,,,,53635.52999997046,53634.50499996543,8120.286,8128.8799999747425,8153.034,54916.951,,,
Instructions,html.Page,1_0,2021-03-25T02:30:29.933Z,,,,,,,,,,,,,,,,,,,,,,,,,,,,,,8783.67399999767,form submission,,,,,,,,,,,,,,,,,,,,63701.02499995846,63700.62499999767,54900.382,54912.384999974165,54916.951,63706.198,,,
Holding screen,html.Screen,1_1_0_0,2021-03-25T02:30:36.927Z,,,,,,,,,,,,,,,,,,,,,,,,,,,,,,7021.303000000007,timeout,,,,,,,,,,,,,,,,,,,,70694.86499996856,70694.144,63689.596,63701.2349999859,63706.198,70727.501,,,
screen,html.Screen,1_1_0_1_0,2021-03-25T02:30:37.670Z,,,,,,,,,,,,,,,,53,,,,,,,,,,,,,,705.52399997662,response,,,,99,,,,,,Space,keypress(Space),,,,,,,,When -- ----- -- ------ - ------- --- ----------<br>------------- ------ ------ ---- ---- ------- ----- -- ----<br>-------- ------- -- ---------- --- - --- ----- ----- ----<br>---- --- --- ----- --- ---- ---- ------- ----- ---- -------<br>--- --- -- ----- -- --- ---- -- --- ---- -- ------ ------<br>--- ----- -- ----,71437.4700000044,71433.02499997662,70694.144,70695.20499999635,70727.501,71444.614,,0,When
screen,html.Screen,1_1_0_1_1,2021-03-25T02:30:38.065Z,,,,,,,,,,,,,,,,53,,,,,,,,,,,,,,387.35599999927217,response,,,,99,,,,,,Space,keypress(Space),,,,,,,,---- it ----- -- ------ - ------- --- ----------<br>------------- ------ ------ ---- ---- ------- ----- -- ----<br>-------- ------- -- ---------- --- - --- ----- ----- ----<br>---- --- --- ----- --- ---- ---- ------- ----- ---- -------<br>--- --- -- ----- -- --- ---- -- --- ---- -- ------ ------<br>--- ----- -- ----,71832.7350000036,71831.96999999927,71428.055,71437.7450000029,71444.614,71844.87,,1,it
screen,html.Screen,1_1_0_1_2,2021-03-25T02:30:38.473Z,,,,,,,,,,,,,,,,53,,,,,,,,,,,,,,394.96999999473337,response,,,,99,,,,,,Space,keypress(Space),,,,,,,,---- -- comes -- ------ - ------- --- ----------<br>------------- ------ ------ ---- ---- ------- ----- -- ----<br>-------- ------- -- ---------- --- - --- ----- ----- ----<br>---- --- --- ----- --- ---- ---- ------- ----- ---- -------<br>--- --- -- ----- -- --- ---- -- --- ---- -- ------ ------<br>--- ----- -- ----,72240.66499999026,72239.83999999473,71828.271,71832.95999997063,71844.87,72245.167,,2,comes
screen,html.Screen,1_1_0_1_3,2021-03-25T02:30:38.905Z,,,,,,,,,,,,,,,,53,,,,,,,,,,,,,,426.68299998425937,response,,,,99,,,,,,Space,keypress(Space),,,,,,,,---- -- ----- to ------ - ------- --- ----------<br>------------- ------ ------ ---- ---- ------- ----- -- ----<br>-------- ------- -- ---------- --- - --- ----- ----- ----<br>---- --- --- ----- --- ---- ---- ------- ----- ---- -------<br>--- --- -- ----- -- --- ---- -- --- ---- -- ------ ------<br>--- ----- -- ----,72672.61999996845,72671.84999998426,72228.535,72240.88999995729,72245.167,72678.795,,3,to
screen,html.Screen,1_1_0_1_4,2021-03-25T02:30:39.377Z,,,,,,,,,,,,,,,,53,,,,,,,,,,,,,,465.0099999997037,response,,,,99,,,,,,Space,keypress(Space),,,,,,,,---- -- ----- -- having - ------- --- ----------<br>------------- ------ ------ ---- ---- ------- ----- -- ----<br>-------- ------- -- ---------- --- - --- ----- ----- ----<br>---- --- --- ----- --- ---- ---- ------- ----- ---- -------<br>--- --- -- ----- -- --- ---- -- --- ---- -- ------ ------<br>--- ----- -- ----,73144.59999999963,73143.8049999997,72662.159,72672.84999997355,72678.795,73162.448,,4,having
screen,html.Screen,1_1_0_1_5,2021-03-25T02:30:39.793Z,,,,,,,,,,,,,,,,53,,,,,,,,,,,,,,397.2019999519398,response,,,,99,,,,,,Space,keypress(Space),,,,,,,,---- -- ----- -- ------ a ------- --- ----------<br>------------- ------ ------ ---- ---- ------- ----- -- ----<br>-------- ------- -- ---------- --- - --- ----- ----- ----<br>---- --- --- ----- --- ---- ---- ------- ----- ---- -------<br>--- --- -- ----- -- --- ---- -- --- ---- -- ------ ------<br>--- ----- -- ----,73560.34999998519,73559.64999995194,73129.144,73144.82499996666,73162.448,73562.702,,5,a
screen,html.Screen,1_1_0_1_6,2021-03-25T02:30:40.273Z,,,,,,,,,,,,,,,,53,,,,,,,,,,,,,,477.0129999625933,response,,,,99,,,,,,Space,keypress(Space),,,,,,,,---- -- ----- -- ------ - lasting --- ----------<br>------------- ------ ------ ---- ---- ------- ----- -- ----<br>-------- ------- -- ---------- --- - --- ----- ----- ----<br>---- --- --- ----- --- ---- ---- ------- ----- ---- -------<br>--- --- -- ----- -- --- ---- -- --- ---- -- ------ ------<br>--- ----- -- ----,74040.50499998266,74039.7149999626,73546.075,73560.56999997236,73562.702,74046.292,,6,lasting
screen,html.Screen,1_1_0_1_7,2021-03-25T02:30:40.737Z,,,,,,,,,,,,,,,,53,,,,,,,,,,,,,,457.3529999897728,response,,,,99,,,,,,Space,keypress(Space),,,,,,,,---- -- ----- -- ------ - ------- and ----------<br>------------- ------ ------ ---- ---- ------- ----- -- ----<br>-------- ------- -- ---------- --- - --- ----- ----- ----<br>---- --- --- ----- --- ---- ---- ------- ----- ---- -------<br>--- --- -- ----- -- --- ---- -- --- ---- -- ------ ------<br>--- ----- -- ----,74504.48999996297,74503.64499998977,74029.697,74040.72499996983,74046.292,74513.236,,7,and
screen,html.Screen,1_1_0_1_8,2021-03-25T02:30:41.137Z,,,,,,,,,,,,,,,,53,,,,,,,,,,,,,,390.27899995449116,response,,,,99,,,,,,Space,keypress(Space),,,,,,,,---- -- ----- -- ------ - ------- --- fulfilling<br>------------- ------ ------ ---- ---- ------- ----- -- ----<br>-------- ------- -- ---------- --- - --- ----- ----- ----<br>---- --- --- ----- --- ---- ---- ------- ----- ---- -------<br>--- --- -- ----- -- --- ---- -- --- ---- -- ------ ------<br>--- ----- -- ----,74904.25999998115,74903.5149999545,74496.701,74504.72999998601,74513.236,74913.475,,8,fulfilling
screen,html.Screen,1_1_0_1_9,2021-03-25T02:30:41.577Z,,,,,,,,,,,,,,,,53,,,,,,,,,,,,,,429.99499996341183,response,,,,99,,,,,,Space,keypress(Space),,,,,,,,"---- -- ----- -- ------ - ------- --- ----------<br>relationship, ------ ------ ---- ---- ------- ----- -- ----<br>-------- ------- -- ---------- --- - --- ----- ----- ----<br>---- --- --- ----- --- ---- ---- ------- ----- ---- -------<br>--- --- -- ----- -- --- ---- -- --- ---- -- ------ ------<br>--- ----- -- ----",75344.22999998787,75343.46999996342,74896.957,74904.47999996832,74913.475,75347.207,,9,"relationship,"
screen,html.Screen,1_1_0_1_10,2021-03-25T02:30:42.008Z,,,,,,,,,,,,,,,,53,,,,,,,,,,,,,,428.1730000064126,response,,,,99,,,,,,Space,keypress(Space),,,,,,,,---- -- ----- -- ------ - ------- --- ----------<br>------------- common ------ ---- ---- ------- ----- -- ----<br>-------- ------- -- ---------- --- - --- ----- ----- ----<br>---- --- --- ----- --- ---- ---- ------- ----- ---- -------<br>--- --- -- ----- -- --- ---- -- --- ---- -- ------ ------<br>--- ----- -- ----,75776.11999999499,75775.38000000641,75330.581,75344.4549999549,75347.207,75780.825,,10,common
screen,html.Screen,1_1_0_1_11,2021-03-25T02:30:42.328Z,,,,,,,,,,,,,,,,53,,,,,,,,,,,,,,314.4799999661773,response,,,,99,,,,,,Space,keypress(Space),,,,,,,,---- -- ----- -- ------ - ------- --- ----------<br>------------- ------ wisdom ---- ---- ------- ----- -- ----<br>-------- ------- -- ---------- --- - --- ----- ----- ----<br>---- --- --- ----- --- ---- ---- ------- ----- ---- -------<br>--- --- -- ----- -- --- ---- -- --- ---- -- ------ ------<br>--- ----- -- ----,76096.04499995476,76095.30499996617,75764.196,75776.34499996202,75780.825,76117.987,,11,wisdom
screen,html.Screen,1_1_0_1_12,2021-03-25T02:30:42.672Z,,,,,,,,,,,,,,,,53,,,,,,,,,,,,,,321.3029999511491,response,,,,99,,,,,,Space,keypress(Space),,,,,,,,---- -- ----- -- ------ - ------- --- ----------<br>------------- ------ ------ says ---- ------- ----- -- ----<br>-------- ------- -- ---------- --- - --- ----- ----- ----<br>---- --- --- ----- --- ---- ---- ------- ----- ---- -------<br>--- --- -- ----- -- --- ---- -- --- ---- -- ------ ------<br>--- ----- -- ----,76440.0349999778,76439.28999995114,76081.059,76096.27499995986,76117.987,76447.838,,12,says
screen,html.Screen,1_1_0_1_13,2021-03-25T02:30:43.040Z,,,,,,,,,,,,,,,,53,,,,,,,,,,,,,,359.3669999609556,response,,,,99,,,,,,Space,keypress(Space),,,,,,,,---- -- ----- -- ------ - ------- --- ----------<br>------------- ------ ------ ---- that ------- ----- -- ----<br>-------- ------- -- ---------- --- - --- ----- ----- ----<br>---- --- --- ----- --- ---- ---- ------- ----- ---- -------<br>--- --- -- ----- -- --- ---- -- --- ---- -- ------ ------<br>--- ----- -- ----,76807.94500000775,76807.20499996096,76431.286,76440.26999996277,76447.838,76814.785,,13,that
screen,html.Screen,1_1_0_1_14,2021-03-25T02:30:43.368Z,,,,,,,,,,,,,,,,53,,,,,,,,,,,,,,320.3799999851326,response,,,,99,,,,,,Space,keypress(Space),,,,,,,,---- -- ----- -- ------ - ------- --- ----------<br>------------- ------ ------ ---- ---- feeling ----- -- ----<br>-------- ------- -- ---------- --- - --- ----- ----- ----<br>---- --- --- ----- --- ---- ---- ------- ----- ---- -------<br>--- --- -- ----- -- --- ---- -- --- ---- -- ------ ------<br>--- ----- -- ----,77135.91499999166,77135.16499998514,76798.2,76808.16999997478,76814.785,77148.376,,14,feeling
screen,html.Screen,1_1_0_1_15,2021-03-25T02:30:43.872Z,,,,,,,,,,,,,,,,53,,,,,,,,,,,,,,490.67399999794725,response,,,,99,,,,,,Space,keypress(Space),,,,,,,,---- -- ----- -- ------ - ------- --- ----------<br>------------- ------ ------ ---- ---- ------- close -- ----<br>-------- ------- -- ---------- --- - --- ----- ----- ----<br>---- --- --- ----- --- ---- ---- ------- ----- ---- -------<br>--- --- -- ----- -- --- ---- -- --- ---- -- ------ ------<br>--- ----- -- ----,77639.7949999664,77639.04999999795,77131.752,77136.15499995649,77148.376,77648.7,,15,close
screen,html.Screen,1_1_0_1_16,2021-03-25T02:30:43.904Z,,,,,,,,,,,,,,,,53,,,,,,,,,,,,,,21.909999971932848,response,,,,99,,,,,,Space,keypress(Space),,,,,,,,---- -- ----- -- ------ - ------- --- ----------<br>------------- ------ ------ ---- ---- ------- ----- to ----<br>-------- ------- -- ---------- --- - --- ----- ----- ----<br>---- --- --- ----- --- ---- ---- ------- ----- ---- -------<br>--- --- -- ----- -- --- ---- -- --- ---- -- ------ ------<br>--- ----- -- ----,77671.23999999603,77670.60999997193,77632.104,77640.01999999164,77648.7,77682.06,,16,to
screen,html.Screen,1_1_0_1_17,2021-03-25T02:30:43.935Z,,,,,,,,,,,,,,,,53,,,,,,,,,,,,,,19.469999962078873,response,,,,99,,,,,,Space,keypress(Space),,,,,,,,---- -- ----- -- ------ - ------- --- ----------<br>------------- ------ ------ ---- ---- ------- ----- -- your<br>-------- ------- -- ---------- --- - --- ----- ----- ----<br>---- --- --- ----- --- ---- ---- ------- ----- ---- -------<br>--- --- -- ----- -- --- ---- -- --- ---- -- ------ ------<br>--- ----- -- ----,77702.16499996604,77701.52999996208,77665.392,77671.47999996087,77682.06,77715.464,,17,your
screen,html.Screen,1_1_0_1_18,2021-03-25T02:30:43.982Z,,,,,,,,,,,,,,,,53,,,,,,,,,,,,,,33.55099995029741,response,,,,99,,,,,,Space,keypress(Space),,,,,,,,---- -- ----- -- ------ - ------- --- ----------<br>------------- ------ ------ ---- ---- ------- ----- -- ----<br>romantic ------- -- ---------- --- - --- ----- ----- ----<br>---- --- --- ----- --- ---- ---- ------- ----- ---- -------<br>--- --- -- ----- -- --- ---- -- --- ---- -- ------ ------<br>--- ----- -- ----,77749.60999999894,77749.0149999503,77698.745,77702.38999999128,77715.464,77782.168,,18,romantic
screen,html.Screen,1_1_0_1_19,2021-03-25T02:30:44.013Z,,,,,,,,,,,,,,,,53,,,,,,,,,,,,,,14.398999971570447,response,,,,99,,,,,,Space,keypress(Space),,,,,,,,---- -- ----- -- ------ - ------- --- ----------<br>------------- ------ ------ ---- ---- ------- ----- -- ----<br>-------- partner -- ---------- --- - --- ----- ----- ----<br>---- --- --- ----- --- ---- ---- ------- ----- ---- -------<br>--- --- -- ----- -- --- ---- -- --- ---- -- ------ ------<br>--- ----- -- ----,77780.6049999781,77779.85499997158,77765.456,77749.8299999861,,77798.848,,19,partner
screen,html.Screen,1_1_0_1_20,2021-03-25T02:30:44.043Z,,,,,,,,,,,,,,,,53,,,,,,,,,,,,,,11.111999984132126,response,,,,99,,,,,,Space,keypress(Space),,,,,,,,---- -- ----- -- ------ - ------- --- ----------<br>------------- ------ ------ ---- ---- ------- ----- -- ----<br>-------- ------- is ---------- --- - --- ----- ----- ----<br>---- --- --- ----- --- ---- ---- ------- ----- ---- -------<br>--- --- -- ----- -- --- ---- -- --- ---- -- ------ ------<br>--- ----- -- ----,77810.62000000384,77809.95999998413,77782.168,77780.8199999854,77798.848,77832.209,,20,is
screen,html.Screen,1_1_0_1_21,2021-03-25T02:30:44.074Z,,,,,,,,,,,,,,,,53,,,,,,,,,,,,,,9.011000002064975,response,,,,99,,,,,,Space,keypress(Space),,,,,,,,---- -- ----- -- ------ - ------- --- ----------<br>------------- ------ ------ ---- ---- ------- ----- -- ----<br>-------- ------- -- paramount. --- - --- ----- ----- ----<br>---- --- --- ----- --- ---- ---- ------- ----- ---- -------<br>--- --- -- ----- -- --- ---- -- --- ---- -- ------ ------<br>--- ----- -- ----,77841.88500000164,77841.22000000207,77815.495,77810.82999997307,77832.209,77865.558,,21,paramount.
screen,html.Screen,1_1_0_1_22,2021-03-25T02:30:44.106Z,,,,,,,,,,,,,,,,53,,,,,,,,,,,,,,7.046999982281704,response,,,,99,,,,,,Space,keypress(Space),,,,,,,,---- -- ----- -- ------ - ------- --- ----------<br>------------- ------ ------ ---- ---- ------- ----- -- ----<br>-------- ------- -- ---------- But - --- ----- ----- ----<br>---- --- --- ----- --- ---- ---- ------- ----- ---- -------<br>--- --- -- ----- -- --- ---- -- --- ---- -- ------ ------<br>--- ----- -- ----,77873.265000002,77872.60499998229,77848.851,77842.09999995073,77865.558,77898.919,,22,But
screen,html.Screen,1_1_0_1_23,2021-03-25T02:30:44.137Z,,,,,,,,,,,,,,,,53,,,,,,,,,,,,,,4.740999952657148,response,,,,99,,,,,,Space,keypress(Space),,,,,,,,---- -- ----- -- ------ - ------- --- ----------<br>------------- ------ ------ ---- ---- ------- ----- -- ----<br>-------- ------- -- ---------- --- a --- ----- ----- ----<br>---- --- --- ----- --- ---- ---- ------- ----- ---- -------<br>--- --- -- ----- -- --- ---- -- --- ---- -- ------ ------<br>--- ----- -- ----,77904.33499997016,77903.65999995265,77882.205,77873.47999995109,77898.919,77932.276,,23,a
screen,html.Screen,1_1_0_1_24,2021-03-25T02:30:44.168Z,,,,,,,,,,,,,,,,53,,,,,,,,,,,,,,3.093999962860835,response,,,,99,,,,,,Space,keypress(Space),,,,,,,,---- -- ----- -- ------ - ------- --- ----------<br>------------- ------ ------ ---- ---- ------- ----- -- ----<br>-------- ------- -- ---------- --- - new ----- ----- ----<br>---- --- --- ----- --- ---- ---- ------- ----- ---- -------<br>--- --- -- ----- -- --- ---- -- --- ---- -- ------ ------<br>--- ----- -- ----,77936.09999999171,77935.36999996286,77915.565,77904.5449999976,77932.276,77965.625,,24,new
screen,html.Screen,1_1_0_1_25,2021-03-25T02:30:44.201Z,,,,,,,,,,,,,,,,53,,,,,,,,,,,,,,2.044999983627349,response,,,,99,,,,,,Space,keypress(Space),,,,,,,,---- -- ----- -- ------ - ------- --- ----------<br>------------- ------ ------ ---- ---- ------- ----- -- ----<br>-------- ------- -- ---------- --- - --- study ----- ----<br>---- --- --- ----- --- ---- ---- ------- ----- ---- -------<br>--- --- -- ----- -- --- ---- -- --- ---- -- ------ ------<br>--- ----- -- ----,77968.24499999639,77967.66999998363,77948.917,77936.30999996094,77965.625,77998.988,,25,study
screen,html.Screen,1_1_0_1_26,2021-03-25T02:30:44.232Z,,,,,,,,,,,,,,,,53,,,,,,,,,,,,,,16.651999983630958,response,,,,99,,,,,,Space,keypress(Space),,,,,,,,---- -- ----- -- ------ - ------- --- ----------<br>------------- ------ ------ ---- ---- ------- ----- -- ----<br>-------- ------- -- ---------- --- - --- ----- finds ----<br>---- --- --- ----- --- ---- ---- ------- ----- ---- -------<br>--- --- -- ----- -- --- ---- -- --- ---- -- ------ ------<br>--- ----- -- ----,77999.62499999674,77998.91999998363,77982.268,77968.44999998575,,78015.662,,26,finds
screen,html.Screen,1_1_0_1_27,2021-03-25T02:30:44.279Z,,,,,,,,,,,,,,,,53,,,,,,,,,,,,,,30.013000001214095,response,,,,99,,,,,,Space,keypress(Space),,,,,,,,---- -- ----- -- ------ - ------- --- ----------<br>------------- ------ ------ ---- ---- ------- ----- -- ----<br>-------- ------- -- ---------- --- - --- ----- ----- that<br>---- --- --- ----- --- ---- ---- ------- ----- ---- -------<br>--- --- -- ----- -- --- ---- -- --- ---- -- ------ ------<br>--- ----- -- ----,78046.32500000298,78045.67500000121,77998.988,77999.84000000404,78015.662,78048.979,,27,that
screen,html.Screen,1_1_0_1_28,2021-03-25T02:30:44.310Z,,,,,,,,,,,,,,,,53,,,,,,,,,,,,,,27.700999998298357,response,,,,99,,,,,,Space,keypress(Space),,,,,,,,---- -- ----- -- ------ - ------- --- ----------<br>------------- ------ ------ ---- ---- ------- ----- -- ----<br>-------- ------- -- ---------- --- - --- ----- ----- ----<br>it's --- --- ----- --- ---- ---- ------- ----- ---- -------<br>--- --- -- ----- -- --- ---- -- --- ---- -- ------ ------<br>--- ----- -- ----,78077.30499998434,78076.6799999983,78032.299,78046.53999995207,78048.979,78082.238,,28,it's
screen,html.Screen,1_1_0_1_29,2021-03-25T02:30:44.341Z,,,,,,,,,,,,,,,,53,,,,,,,,,,,,,,25.306999977110536,response,,,,99,,,,,,Space,keypress(Space),,,,,,,,---- -- ----- -- ------ - ------- --- ----------<br>------------- ------ ------ ---- ---- ------- ----- -- ----<br>-------- ------- -- ---------- --- - --- ----- ----- ----<br>---- not --- ----- --- ---- ---- ------- ----- ---- -------<br>--- --- -- ----- -- --- ---- -- --- ---- -- ------ ------<br>--- ----- -- ----,78108.22999995435,78107.54499997711,78065.693,78077.51499995356,78082.238,78115.681,,29,not
screen,html.Screen,1_1_0_1_30,2021-03-25T02:30:44.371Z,,,,,,,,,,,,,,,,53,,,,,,,,,,,,,,22.163999961092486,response,,,,99,,,,,,Space,keypress(Space),,,,,,,,---- -- ----- -- ------ - ------- --- ----------<br>------------- ------ ------ ---- ---- ------- ----- -- ----<br>-------- ------- -- ---------- --- - --- ----- ----- ----<br>---- --- how ----- --- ---- ---- ------- ----- ---- -------<br>--- --- -- ----- -- --- ---- -- --- ---- -- ------ ------<br>--- ----- -- ----,78138.50999996066,78137.84499996109,78099.061,78108.43999998178,78115.681,78149.083,,30,how
screen,html.Screen,1_1_0_1_31,2021-03-25T02:30:44.402Z,,,,,,,,,,,,,,,,53,,,,,,,,,,,,,,19.4819999999454,response,,,,99,,,,,,Space,keypress(Space),,,,,,,,---- -- ----- -- ------ - ------- --- ----------<br>------------- ------ ------ ---- ---- ------- ----- -- ----<br>-------- ------- -- ---------- --- - --- ----- ----- ----<br>---- --- --- close --- ---- ---- ------- ----- ---- -------<br>--- --- -- ----- -- --- ---- -- --- ---- -- ------ ------<br>--- ----- -- ----,78169.20499998378,78168.56499999994,78132.364,78138.7199999881,78149.083,78182.427,,31,close
screen,html.Screen,1_1_0_1_32,2021-03-25T02:30:44.433Z,,,,,,,,,,,,,,,,53,,,,,,,,,,,,,,17.897999983426416,response,,,,99,,,,,,Space,keypress(Space),,,,,,,,---- -- ----- -- ------ - ------- --- ----------<br>------------- ------ ------ ---- ---- ------- ----- -- ----<br>-------- ------- -- ---------- --- - --- ----- ----- ----<br>---- --- --- ----- you ---- ---- ------- ----- ---- -------<br>--- --- -- ----- -- --- ---- -- --- ---- -- ------ ------<br>--- ----- -- ----,78200.96499996725,78200.32499998342,78165.718,78169.46499998448,78182.427,78215.797,,32,you
screen,html.Screen,1_1_0_1_33,2021-03-25T02:30:44.466Z,,,,,,,,,,,,,,,,53,,,,,,,,,,,,,,16.282999987030053,response,,,,99,,,,,,Space,keypress(Space),,,,,,,,---- -- ----- -- ------ - ------- --- ----------<br>------------- ------ ------ ---- ---- ------- ----- -- ----<br>-------- ------- -- ---------- --- - --- ----- ----- ----<br>---- --- --- ----- --- feel ---- ------- ----- ---- -------<br>--- --- -- ----- -- --- ---- -- --- ---- -- ------ ------<br>--- ----- -- ----,78234.07000000589,78232.07999998704,78199.078,78201.17499999469,78215.797,78249.151,,33,feel
screen,html.Screen,1_1_0_1_34,2021-03-25T02:30:44.496Z,,,,,,,,,,,,,,,,53,,,,,,,,,,,,,,13.698999999163789,response,,,,99,,,,,,Space,keypress(Space),,,,,,,,---- -- ----- -- ------ - ------- --- ----------<br>------------- ------ ------ ---- ---- ------- ----- -- ----<br>-------- ------- -- ---------- --- - --- ----- ----- ----<br>---- --- --- ----- --- ---- that ------- ----- ---- -------<br>--- --- -- ----- -- --- ---- -- --- ---- -- ------ ------<br>--- ----- -- ----,78263.50000000093,78262.84999999916,78232.436,78234.27499999525,78249.151,78282.448,,34,that
screen,html.Screen,1_1_0_1_35,2021-03-25T02:30:44.542Z,,,,,,,,,,,,,,,,53,,,,,,,,,,,,,,26.781999955273932,response,,,,99,,,,,,Space,keypress(Space),,,,,,,,---- -- ----- -- ------ - ------- --- ----------<br>------------- ------ ------ ---- ---- ------- ----- -- ----<br>-------- ------- -- ---------- --- - --- ----- ----- ----<br>---- --- --- ----- --- ---- ---- matters ----- ---- -------<br>--- --- -- ----- -- --- ---- -- --- ---- -- ------ ------<br>--- ----- -- ----,78309.89999999292,78309.22999995528,78265.789,78263.70999997016,78282.448,78315.699,,35,matters
screen,html.Screen,1_1_0_1_36,2021-03-25T02:30:44.573Z,,,,,,,,,,,,,,,,53,,,,,,,,,,,,,,24.080999980244087,response,,,,99,,,,,,Space,keypress(Space),,,,,,,,"---- -- ----- -- ------ - ------- --- ----------<br>------------- ------ ------ ---- ---- ------- ----- -- ----<br>-------- ------- -- ---------- --- - --- ----- ----- ----<br>---- --- --- ----- --- ---- ---- ------- most, ---- -------<br>--- --- -- ----- -- --- ---- -- --- ---- -- ------ ------<br>--- ----- -- ----",78340.51499998895,78339.77999998024,78299.148,78310.10999996215,78315.699,78349.173,,36,"most,"
screen,html.Screen,1_1_0_1_37,2021-03-25T02:30:44.604Z,,,,,,,,,,,,,,,,53,,,,,,,,,,,,,,22.09199996521056,response,,,,99,,,,,,Space,keypress(Space),,,,,,,,---- -- ----- -- ------ - ------- --- ----------<br>------------- ------ ------ ---- ---- ------- ----- -- ----<br>-------- ------- -- ---------- --- - --- ----- ----- ----<br>---- --- --- ----- --- ---- ---- ------- ----- it's -------<br>--- --- -- ----- -- --- ---- -- --- ---- -- ------ ------<br>--- ----- -- ----,78371.93999998271,78371.2649999652,78332.535,78340.72999999626,78349.173,78382.53,,37,it's
screen,html.Screen,1_1_0_1_38,2021-03-25T02:30:44.636Z,,,,,,,,,,,,,,,,53,,,,,,,,,,,,,,20.10999998569605,response,,,,99,,,,,,Space,keypress(Space),,,,,,,,---- -- ----- -- ------ - ------- --- ----------<br>------------- ------ ------ ---- ---- ------- ----- -- ----<br>-------- ------- -- ---------- --- - --- ----- ----- ----<br>---- --- --- ----- --- ---- ---- ------- ----- ---- whether<br>--- --- -- ----- -- --- ---- -- --- ---- -- ------ ------<br>--- ----- -- ----,78403.30499998527,78402.6399999857,78365.854,78372.15499999002,78382.53,78415.928,,38,whether
screen,html.Screen,1_1_0_1_39,2021-03-25T02:30:44.667Z,,,,,,,,,,,,,,,,53,,,,,,,,,,,,,,17.926999952018377,response,,,,99,,,,,,Space,keypress(Space),,,,,,,,---- -- ----- -- ------ - ------- --- ----------<br>------------- ------ ------ ---- ---- ------- ----- -- ----<br>-------- ------- -- ---------- --- - --- ----- ----- ----<br>---- --- --- ----- --- ---- ---- ------- ----- ---- -------<br>you --- -- ----- -- --- ---- -- --- ---- -- ------ ------<br>--- ----- -- ----,78434.50999999186,78433.85499995202,78399.207,78403.51999999257,78415.928,78449.23,,39,you
screen,html.Screen,1_1_0_1_40,2021-03-25T02:30:44.697Z,,,,,,,,,,,,,,,,53,,,,,,,,,,,,,,15.255000004064641,response,,,,99,,,,,,Space,keypress(Space),,,,,,,,---- -- ----- -- ------ - ------- --- ----------<br>------------- ------ ------ ---- ---- ------- ----- -- ----<br>-------- ------- -- ---------- --- - --- ----- ----- ----<br>---- --- --- ----- --- ---- ---- ------- ----- ---- -------<br>--- are -- ----- -- --- ---- -- --- ---- -- ------ ------<br>--- ----- -- ----,78465.10499995202,78464.48500000406,78432.612,78434.72499999916,78449.23,78482.582,,40,are
screen,html.Screen,1_1_0_1_41,2021-03-25T02:30:44.728Z,,,,,,,,,,,,,,,,53,,,,,,,,,,,,,,12.532999997900333,response,,,,99,,,,,,Space,keypress(Space),,,,,,,,---- -- ----- -- ------ - ------- --- ----------<br>------------- ------ ------ ---- ---- ------- ----- -- ----<br>-------- ------- -- ---------- --- - --- ----- ----- ----<br>---- --- --- ----- --- ---- ---- ------- ----- ---- -------<br>--- --- as ----- -- --- ---- -- --- ---- -- ------ ------<br>--- ----- -- ----,78495.72499998612,78495.1149999979,78465.917,78465.31999995932,78482.582,78515.98,,41,as
screen,html.Screen,1_1_0_1_42,2021-03-25T02:30:44.774Z,,,,,,,,,,,,,,,,53,,,,,,,,,,,,,,25.319999982588342,response,,,,99,,,,,,Space,keypress(Space),,,,,,,,---- -- ----- -- ------ - ------- --- ----------<br>------------- ------ ------ ---- ---- ------- ----- -- ----<br>-------- ------- -- ---------- --- - --- ----- ----- ----<br>---- --- --- ----- --- ---- ---- ------- ----- ---- -------<br>--- --- -- close -- --- ---- -- --- ---- -- ------ ------<br>--- ----- -- ----,78541.94500000449,78541.29999998258,78499.271,78495.93999999342,78515.98,78549.28,,42,close
screen,html.Screen,1_1_0_1_43,2021-03-25T02:30:44.805Z,,,,,,,,,,,,,,,,53,,,,,,,,,,,,,,23.074999952950748,response,,,,99,,,,,,Space,keypress(Space),,,,,,,,---- -- ----- -- ------ - ------- --- ----------<br>------------- ------ ------ ---- ---- ------- ----- -- ----<br>-------- ------- -- ---------- --- - --- ----- ----- ----<br>---- --- --- ----- --- ---- ---- ------- ----- ---- -------<br>--- --- -- ----- as --- ---- -- --- ---- -- ------ ------<br>--- ----- -- ----,78573.02999997046,78572.35499995295,78532.626,78542.16499999166,78549.28,78582.646,,43,as
screen,html.Screen,1_1_0_1_44,2021-03-25T02:30:44.837Z,,,,,,,,,,,,,,,,53,,,,,,,,,,,,,,21.768999950683792,response,,,,99,,,,,,Space,keypress(Space),,,,,,,,---- -- ----- -- ------ - ------- --- ----------<br>------------- ------ ------ ---- ---- ------- ----- -- ----<br>-------- ------- -- ---------- --- - --- ----- ----- ----<br>---- --- --- ----- --- ---- ---- ------- ----- ---- -------<br>--- --- -- ----- -- you ---- -- --- ---- -- ------ ------<br>--- ----- -- ----,78605.05999997258,78604.41499995068,78565.981,78573.24499997776,78582.646,78616.044,,44,you
screen,html.Screen,1_1_0_1_45,2021-03-25T02:30:44.868Z,,,,,,,,,,,,,,,,53,,,,,,,,,,,,,,18.65599999506958,response,,,,99,,,,,,Space,keypress(Space),,,,,,,,---- -- ----- -- ------ - ------- --- ----------<br>------------- ------ ------ ---- ---- ------- ----- -- ----<br>-------- ------- -- ---------- --- - --- ----- ----- ----<br>---- --- --- ----- --- ---- ---- ------- ----- ---- -------<br>--- --- -- ----- -- --- want -- --- ---- -- ------ ------<br>--- ----- -- ----,78635.27499994962,78634.69999999506,78599.337,78605.28499999782,78616.044,78649.377,,45,want
screen,html.Screen,1_1_0_1_46,2021-03-25T02:30:44.898Z,,,,,,,,,,,,,,,,53,,,,,,,,,,,,,,16.123000002800836,response,,,,99,,,,,,Space,keypress(Space),,,,,,,,---- -- ----- -- ------ - ------- --- ----------<br>------------- ------ ------ ---- ---- ------- ----- -- ----<br>-------- ------- -- ---------- --- - --- ----- ----- ----<br>---- --- --- ----- --- ---- ---- ------- ----- ---- -------<br>--- --- -- ----- -- --- ---- to --- ---- -- ------ ------<br>--- ----- -- ----,78666.15000000456,78665.5000000028,78632.691,78635.47999999719,78649.377,78682.784,,46,to
screen,html.Screen,1_1_0_1_47,2021-03-25T02:30:44.929Z,,,,,,,,,,,,,,,,53,,,,,,,,,,,,,,13.286000005420647,response,,,,99,,,,,,Space,keypress(Space),,,,,,,,"---- -- ----- -- ------ - ------- --- ----------<br>------------- ------ ------ ---- ---- ------- ----- -- ----<br>-------- ------- -- ---------- --- - --- ----- ----- ----<br>---- --- --- ----- --- ---- ---- ------- ----- ---- -------<br>--- --- -- ----- -- --- ---- -- be, ---- -- ------ ------<br>--- ----- -- ----",78696.72499998705,78696.07000000542,78666.051,78666.3749999716,78682.784,78716.127,,47,"be,"
screen,html.Screen,1_1_0_1_48,2021-03-25T02:30:44.961Z,,,,,,,,,,,,,,,,53,,,,,,,,,,,,,,11.927999955936684,response,,,,99,,,,,,Space,keypress(Space),,,,,,,,---- -- ----- -- ------ - ------- --- ----------<br>------------- ------ ------ ---- ---- ------- ----- -- ----<br>-------- ------- -- ---------- --- - --- ----- ----- ----<br>---- --- --- ----- --- ---- ---- ------- ----- ---- -------<br>--- --- -- ----- -- --- ---- -- --- even -- ------ ------<br>--- ----- -- ----,78728.66999998223,78728.05499995593,78699.415,78696.94999995409,78716.127,78749.475,,48,even
screen,html.Screen,1_1_0_1_49,2021-03-25T02:30:44.992Z,,,,,,,,,,,,,,,,53,,,,,,,,,,,,,,9.944999958475819,response,,,,99,,,,,,Space,keypress(Space),,,,,,,,---- -- ----- -- ------ - ------- --- ----------<br>------------- ------ ------ ---- ---- ------- ----- -- ----<br>-------- ------- -- ---------- --- - --- ----- ----- ----<br>---- --- --- ----- --- ---- ---- ------- ----- ---- -------<br>--- --- -- ----- -- --- ---- -- --- ---- if ------ ------<br>--- ----- -- ----,78759.97499999357,78759.41999995848,78732.766,78728.8899999694,78749.475,78782.831,,49,if
screen,html.Screen,1_1_0_1_50,2021-03-25T02:30:45.024Z,,,,,,,,,,,,,,,,53,,,,,,,,,,,,,,7.803999983007088,response,,,,99,,,,,,Space,keypress(Space),,,,,,,,---- -- ----- -- ------ - ------- --- ----------<br>------------- ------ ------ ---- ---- ------- ----- -- ----<br>-------- ------- -- ---------- --- - --- ----- ----- ----<br>---- --- --- ----- --- ---- ---- ------- ----- ---- -------<br>--- --- -- ----- -- --- ---- -- --- ---- -- that's ------<br>--- ----- -- ----,78791.19499999797,78790.63499998301,78766.108,78760.19000000088,78782.831,78816.185,,50,that's
screen,html.Screen,1_1_0_1_51,2021-03-25T02:30:45.069Z,,,,,,,,,,,,,,,,53,,,,,,,,,,,,,,20.294999998121057,response,,,,99,,,,,,Space,keypress(Space),,,,,,,,---- -- ----- -- ------ - ------- --- ----------<br>------------- ------ ------ ---- ---- ------- ----- -- ----<br>-------- ------- -- ---------- --- - --- ----- ----- ----<br>---- --- --- ----- --- ---- ---- ------- ----- ---- -------<br>--- --- -- ----- -- --- ---- -- --- ---- -- ------ really<br>--- ----- -- ----,78837.05499995267,78836.47999999812,78799.476,78791.39999998733,78816.185,78849.541,,51,really
screen,html.Screen,1_1_0_1_52,2021-03-25T02:30:45.101Z,,,,,,,,,,,,,,,,53,,,,,,,,,,,,,,18.673999965860276,response,,,,99,,,,,,Space,keypress(Space),,,,,,,,---- -- ----- -- ------ - ------- --- ----------<br>------------- ------ ------ ---- ---- ------- ----- -- ----<br>-------- ------- -- ---------- --- - --- ----- ----- ----<br>---- --- --- ----- --- ---- ---- ------- ----- ---- -------<br>--- --- -- ----- -- --- ---- -- --- ---- -- ------ ------<br>not ----- -- ----,78868.54499997571,78868.21499996586,78832.821,78837.2649999801,78849.541,78882.897,,52,not
screen,html.Screen,1_1_0_1_53,2021-03-25T02:30:45.132Z,,,,,,,,,,,,,,,,53,,,,,,,,,,,,,,16.31300000322517,response,,,,99,,,,,,Space,keypress(Space),,,,,,,,---- -- ----- -- ------ - ------- --- ----------<br>------------- ------ ------ ---- ---- ------- ----- -- ----<br>-------- ------- -- ---------- --- - --- ----- ----- ----<br>---- --- --- ----- --- ---- ---- ------- ----- ---- -------<br>--- --- -- ----- -- --- ---- -- --- ---- -- ------ ------<br>--- close -- ----,78899.95499997167,78899.21000000322,78866.115,78868.6400000006,78882.897,78916.252,,53,close
screen,html.Screen,1_1_0_1_54,2021-03-25T02:30:45.163Z,,,,,,,,,,,,,,,,53,,,,,,,,,,,,,,14.042999969198718,response,,,,99,,,,,,Space,keypress(Space),,,,,,,,---- -- ----- -- ------ - ------- --- ----------<br>------------- ------ ------ ---- ---- ------- ----- -- ----<br>-------- ------- -- ---------- --- - --- ----- ----- ----<br>---- --- --- ----- --- ---- ---- ------- ----- ---- -------<br>--- --- -- ----- -- --- ---- -- --- ---- -- ------ ------<br>--- ----- at ----,78930.85999996401,78930.29499996919,78899.491,78900.15499998117,78916.252,78949.608,,54,at
screen,html.Screen,1_1_0_1_55,2021-03-25T02:30:45.195Z,,,,,,,,,,,,,,,,53,,,,,,,,,,,,,,11.961999984938302,response,,,,99,,,,,,Space,keypress(Space),,,,,,,,---- -- ----- -- ------ - ------- --- ----------<br>------------- ------ ------ ---- ---- ------- ----- -- ----<br>-------- ------- -- ---------- --- - --- ----- ----- ----<br>---- --- --- ----- --- ---- ---- ------- ----- ---- -------<br>--- --- -- ----- -- --- ---- -- --- ---- -- ------ ------<br>--- ----- -- all.,78962.1749999933,78961.56999998493,78932.883,78931.06499995338,78949.608,78982.931,,55,all.
Item 99,flow.Loop,1_1_0_1,2021-03-25T02:30:45.195Z,,,,,,,,,,,,,,,,,,,,,,,,,,,,,,8234.068999984927,completion,,,,,C,,,,,,,,,,silence,,,,,78962.58999995189,78961.56999998493,70694.144,70695.10999997146,70727.501,78982.931,,,
Question 1,html.Screen,1_1_0_2,2021-03-25T02:30:47.639Z,,,,,,,,,,,,,,,,,,,,,,,,,,,true,FALSE,,2423.3839999710763,response,,,,99,C,,,,,FALSE,click #choice-2,,,,silence,,,,,81407.05999999773,81406.31499997107,78966.242,78962.78999996139,78982.931,81417.835,,,
Question 2,html.Screen,1_1_0_3,2021-03-25T02:30:48.023Z,,,,,,,,,,,,,,,,,,,,,,,,,,,false,TRUE,,372.4149999618094,response,,,,99,C,,,,,FALSE,click #choice-2,,,,silence,,,,,81791.05499997968,81790.24999996182,81401.187,81407.19499997795,81417.835,81801.423,,,
Item 99,flow.Sequence,1_1_0,2021-03-25T02:30:48.024Z,,,,,,,,,,,,,,,,,,,,,,,,,,,,,,18084.05199996182,completion,,,,,,,,,,,,,,,,,,,,81791.28999996465,81790.24999996182,63689.596,63701.204999990296,63706.198,81801.423,,,
Holding screen,html.Screen,1_1_1_0,2021-03-25T02:30:55.022Z,,,,,,,,,,,,,,,,,,,,,,,,,,,,,,7004.582000000009,timeout,,,,,,,,,,,,,,,,,,,,88790.05499999039,88789.313,81784.79,81791.419999965,81801.423,88806.005,,,
screen,html.Screen,1_1_1_1_0,2021-03-25T02:30:55.567Z,,,,,,,,,,,,,,,,54,,,,,,,,,,,,,,527.3449999716831,response,,,,100,,,,,,Space,keypress(Space),,,,,,,,At --- ---- --- ------ ----- ------- ---- -- --- ------- --<br>------- ---------- ------ -- ----- -- ----- -- ---- ------<br>--- ----- --- --- ------ -------- ----- --- ------ ----- --<br>----- ----- ---------- --- --- ------ ------ ---- -- ------<br>------- --- ------ ----- --- ---- ------- -- ---- --- --<br>------- ------,89334.16500000749,89333.34999997169,88789.313,88790.3449999867,88806.005,89339.673,,0,At
screen,html.Screen,1_1_1_1_1,2021-03-25T02:30:56.073Z,,,,,,,,,,,,,,,,54,,,,,,,,,,,,,,499.81699998393015,response,,,,100,,,,,,Space,keypress(Space),,,,,,,,-- the ---- --- ------ ----- ------- ---- -- --- ------- --<br>------- ---------- ------ -- ----- -- ----- -- ---- ------<br>--- ----- --- --- ------ -------- ----- --- ------ ----- --<br>----- ----- ---------- --- --- ------ ------ ---- -- ------<br>------- --- ------ ----- --- ---- ------- -- ---- --- --<br>------- ------,89840.26500000618,89839.48999998393,89323.122,89334.41499999026,89339.673,89856.807,,1,the
screen,html.Screen,1_1_1_1_2,2021-03-25T02:30:56.103Z,,,,,,,,,,,,,,,,54,,,,,,,,,,,,,,13.532999964925693,response,,,,100,,,,,,Space,keypress(Space),,,,,,,,-- --- time --- ------ ----- ------- ---- -- --- ------- --<br>------- ---------- ------ -- ----- -- ----- -- ---- ------<br>--- ----- --- --- ------ -------- ----- --- ------ ----- --<br>----- ----- ---------- --- --- ------ ------ ---- -- ------<br>------- --- ------ ----- --- ---- ------- -- ---- --- --<br>------- ------,89871.0049999645,89870.33999996493,89840.123,89840.48499999335,89856.807,89890.127,,2,time
screen,html.Screen,1_1_1_1_3,2021-03-25T02:30:56.133Z,,,,,,,,,,,,,,,,54,,,,,,,,,,,,,,10.287999981883331,response,,,,100,,,,,,Space,keypress(Space),,,,,,,,-- --- ---- the ------ ----- ------- ---- -- --- ------- --<br>------- ---------- ------ -- ----- -- ----- -- ---- ------<br>--- ----- --- --- ------ -------- ----- --- ------ ----- --<br>----- ----- ---------- --- --- ------ ------ ---- -- ------<br>------- --- ------ ----- --- ---- ------- -- ---- --- --<br>------- ------,89901.08999999939,89900.41499998188,89873.409,89871.2199999718,89890.127,89923.488,,3,the
screen,html.Screen,1_1_1_1_4,2021-03-25T02:30:56.179Z,,,,,,,,,,,,,,,,54,,,,,,,,,,,,,,22.901999997338862,response,,,,100,,,,,,Space,keypress(Space),,,,,,,,-- --- ---- --- French ----- ------- ---- -- --- ------- --<br>------- ---------- ------ -- ----- -- ----- -- ---- ------<br>--- ----- --- --- ------ -------- ----- --- ------ ----- --<br>----- ----- ---------- --- --- ------ ------ ---- -- ------<br>------- --- ------ ----- --- ---- ------- -- ---- --- --<br>------- ------,89947.01499998337,89946.38999999734,89906.766,89901.30500000669,89923.488,89956.727,,4,French
screen,html.Screen,1_1_1_1_5,2021-03-25T02:30:56.210Z,,,,,,,,,,,,,,,,54,,,,,,,,,,,,,,20.182999968485092,response,,,,100,,,,,,Space,keypress(Space),,,,,,,,-- --- ---- --- ------ crown ------- ---- -- --- ------- --<br>------- ---------- ------ -- ----- -- ----- -- ---- ------<br>--- ----- --- --- ------ -------- ----- --- ------ ----- --<br>----- ----- ---------- --- --- ------ ------ ---- -- ------<br>------- --- ------ ----- --- ---- ------- -- ---- --- --<br>------- ------,89977.57499996806,89976.90999996848,89940.124,89947.2249999526,89956.727,89990.186,,5,crown
screen,html.Screen,1_1_1_1_6,2021-03-25T02:30:56.242Z,,,,,,,,,,,,,,,,54,,,,,,,,,,,,,,19.34899996103195,response,,,,100,,,,,,Space,keypress(Space),,,,,,,,-- --- ---- --- ------ ----- secured ---- -- --- ------- --<br>------- ---------- ------ -- ----- -- ----- -- ---- ------<br>--- ----- --- --- ------ -------- ----- --- ------ ----- --<br>----- ----- ---------- --- --- ------ ------ ---- -- ------<br>------- --- ------ ----- --- ---- ------- -- ---- --- --<br>------- ------,90010.14500000747,90009.53499996103,89973.476,89977.77999995742,89990.186,90023.544,,6,secured
screen,html.Screen,1_1_1_1_7,2021-03-25T02:30:56.271Z,,,,,,,,,,,,,,,,54,,,,,,,,,,,,,,14.285999986575916,response,,,,100,,,,,,Space,keypress(Space),,,,,,,,-- --- ---- --- ------ ----- ------- much -- --- ------- --<br>------- ---------- ------ -- ----- -- ----- -- ---- ------<br>--- ----- --- --- ------ -------- ----- --- ------ ----- --<br>----- ----- ---------- --- --- ------ ------ ---- -- ------<br>------- --- ------ ----- --- ---- ------- -- ---- --- --<br>------- ------,90038.4549999726,90037.82999998657,90006.8,90010.36499999464,90023.544,90056.911,,7,much
screen,html.Screen,1_1_1_1_8,2021-03-25T02:30:56.301Z,,,,,,,,,,,,,,,,54,,,,,,,,,,,,,,11.358999988849973,response,,,,100,,,,,,Space,keypress(Space),,,,,,,,-- --- ---- --- ------ ----- ------- ---- of --- ------- --<br>------- ---------- ------ -- ----- -- ----- -- ---- ------<br>--- ----- --- --- ------ -------- ----- --- ------ ----- --<br>----- ----- ---------- --- --- ------ ------ ---- -- ------<br>------- --- ------ ----- --- ---- ------- -- ---- --- --<br>------- ------,90068.94500000635,90068.26999998884,90040.196,90038.66500000004,90056.911,90090.207,,8,of
screen,html.Screen,1_1_1_1_9,2021-03-25T02:30:56.331Z,,,,,,,,,,,,,,,,54,,,,,,,,,,,,,,8.298000001756009,response,,,,100,,,,,,Space,keypress(Space),,,,,,,,-- --- ---- --- ------ ----- ------- ---- -- its ------- --<br>------- ---------- ------ -- ----- -- ----- -- ---- ------<br>--- ----- --- --- ------ -------- ----- --- ------ ----- --<br>----- ----- ---------- --- --- ------ ------ ---- -- ------<br>------- --- ------ ----- --- ---- ------- -- ---- --- --<br>------- ------,90099.14999996545,90098.50500000175,90073.547,90069.14999999572,90090.207,90123.606,,9,its
screen,html.Screen,1_1_1_1_10,2021-03-25T02:30:56.378Z,,,,,,,,,,,,,,,,54,,,,,,,,,,,,,,21.54399999664747,response,,,,100,,,,,,Space,keypress(Space),,,,,,,,-- --- ---- --- ------ ----- ------- ---- -- --- revenue --<br>------- ---------- ------ -- ----- -- ----- -- ---- ------<br>--- ----- --- --- ------ -------- ----- --- ------ ----- --<br>----- ----- ---------- --- --- ------ ------ ---- -- ------<br>------- --- ------ ----- --- ---- ------- -- ---- --- --<br>------- ------,90145.58999997098,90145.14999999665,90106.9,90099.35999999288,90123.606,90157.038,,10,revenue
screen,html.Screen,1_1_1_1_11,2021-03-25T02:30:56.409Z,,,,,,,,,,,,,,,,54,,,,,,,,,,,,,,18.981999955314677,response,,,,100,,,,,,Space,keypress(Space),,,,,,,,-- --- ---- --- ------ ----- ------- ---- -- --- ------- by<br>------- ---------- ------ -- ----- -- ----- -- ---- ------<br>--- ----- --- --- ------ -------- ----- --- ------ ----- --<br>----- ----- ---------- --- --- ------ ------ ---- -- ------<br>------- --- ------ ----- --- ---- ------- -- ---- --- --<br>------- ------,90176.73499998637,90176.01999995532,90140.253,90145.67999995779,90157.038,90190.314,,11,by
screen,html.Screen,1_1_1_1_12,2021-03-25T02:30:56.440Z,,,,,,,,,,,,,,,,54,,,,,,,,,,,,,,16.57599997219222,response,,,,100,,,,,,Space,keypress(Space),,,,,,,,-- --- ---- --- ------ ----- ------- ---- -- --- ------- --<br>issuing ---------- ------ -- ----- -- ----- -- ---- ------<br>--- ----- --- --- ------ -------- ----- --- ------ ----- --<br>----- ----- ---------- --- --- ------ ------ ---- -- ------<br>------- --- ------ ----- --- ---- ------- -- ---- --- --<br>------- ------,90207.63999997871,90206.88999997219,90173.61,90176.9449999556,90190.314,90223.672,,12,issuing
screen,html.Screen,1_1_1_1_13,2021-03-25T02:30:56.470Z,,,,,,,,,,,,,,,,54,,,,,,,,,,,,,,13.337999982541078,response,,,,100,,,,,,Space,keypress(Space),,,,,,,,-- --- ---- --- ------ ----- ------- ---- -- --- ------- --<br>------- government ------ -- ----- -- ----- -- ---- ------<br>--- ----- --- --- ------ -------- ----- --- ------ ----- --<br>----- ----- ---------- --- --- ------ ------ ---- -- ------<br>------- --- ------ ----- --- ---- ------- -- ---- --- --<br>------- ------,90237.65999998432,90237.00999998255,90206.922,90207.84499996807,90223.672,90257.023,,13,government
screen,html.Screen,1_1_1_1_14,2021-03-25T02:30:56.500Z,,,,,,,,,,,,,,,,54,,,,,,,,,,,,,,10.086999957027729,response,,,,100,,,,,,Space,keypress(Space),,,,,,,,-- --- ---- --- ------ ----- ------- ---- -- --- ------- --<br>------- ---------- bonds. -- ----- -- ----- -- ---- ------<br>--- ----- --- --- ------ -------- ----- --- ------ ----- --<br>----- ----- ---------- --- --- ------ ------ ---- -- ------<br>------- --- ------ ----- --- ---- ------- -- ---- --- --<br>------- ------,90267.76499999687,90267.10999995703,90240.28,90237.86499997368,90257.023,90290.391,,14,bonds.
screen,html.Screen,1_1_1_1_15,2021-03-25T02:30:56.532Z,,,,,,,,,,,,,,,,54,,,,,,,,,,,,,,8.174000004597474,response,,,,100,,,,,,Space,keypress(Space),,,,,,,,-- --- ---- --- ------ ----- ------- ---- -- --- ------- --<br>------- ---------- ------ In ----- -- ----- -- ---- ------<br>--- ----- --- --- ------ -------- ----- --- ------ ----- --<br>----- ----- ---------- --- --- ------ ------ ---- -- ------<br>------- --- ------ ----- --- ---- ------- -- ---- --- --<br>------- ------,90299.16999995476,90298.5650000046,90273.677,90267.96999998624,90290.391,90323.748,,15,In
screen,html.Screen,1_1_1_1_16,2021-03-25T02:30:56.563Z,,,,,,,,,,,,,,,,54,,,,,,,,,,,,,,6.296999951489852,response,,,,100,,,,,,Space,keypress(Space),,,,,,,,"-- --- ---- --- ------ ----- ------- ---- -- --- ------- --<br>------- ---------- ------ -- 1727, -- ----- -- ---- ------<br>--- ----- --- --- ------ -------- ----- --- ------ ----- --<br>----- ----- ---------- --- --- ------ ------ ---- -- ------<br>------- --- ------ ----- --- ---- ------- -- ---- --- --<br>------- ------",90330.69999999134,90330.0449999515,90307.028,90299.37500000233,90323.748,90357.099,,16,"1727,"
screen,html.Screen,1_1_1_1_17,2021-03-25T02:30:56.610Z,,,,,,,,,,,,,,,,54,,,,,,,,,,,,,,19.505999997651088,response,,,,100,,,,,,Space,keypress(Space),,,,,,,,-- --- ---- --- ------ ----- ------- ---- -- --- ------- --<br>------- ---------- ------ -- ----- in ----- -- ---- ------<br>--- ----- --- --- ------ -------- ----- --- ------ ----- --<br>----- ----- ---------- --- --- ------ ------ ---- -- ------<br>------- --- ------ ----- --- ---- ------- -- ---- --- --<br>------- ------,90377.26999999722,90376.60499999765,90340.385,90330.90000000084,90357.099,90390.454,,17,in
screen,html.Screen,1_1_1_1_18,2021-03-25T02:30:56.641Z,,,,,,,,,,,,,,,,54,,,,,,,,,,,,,,17.761000003112713,response,,,,100,,,,,,Space,keypress(Space),,,,,,,,-- --- ---- --- ------ ----- ------- ---- -- --- ------- --<br>------- ---------- ------ -- ----- -- order -- ---- ------<br>--- ----- --- --- ------ -------- ----- --- ------ ----- --<br>----- ----- ---------- --- --- ------ ------ ---- -- ------<br>------- --- ------ ----- --- ---- ------- -- ---- --- --<br>------- ------,90408.89999998035,90408.21500000311,90373.736,90377.47000000672,90390.454,90423.809,,18,order
screen,html.Screen,1_1_1_1_19,2021-03-25T02:30:56.672Z,,,,,,,,,,,,,,,,54,,,,,,,,,,,,,,15.251000004253001,response,,,,100,,,,,,Space,keypress(Space),,,,,,,,-- --- ---- --- ------ ----- ------- ---- -- --- ------- --<br>------- ---------- ------ -- ----- -- ----- to ---- ------<br>--- ----- --- --- ------ -------- ----- --- ------ ----- --<br>----- ----- ---------- --- --- ------ ------ ---- -- ------<br>------- --- ------ ----- --- ---- ------- -- ---- --- --<br>------- ------,90439.71499998588,90439.06000000425,90407.097,90409.10499996971,90423.809,90457.16,,19,to
screen,html.Screen,1_1_1_1_20,2021-03-25T02:30:56.702Z,,,,,,,,,,,,,,,,54,,,,,,,,,,,,,,11.909999991912628,response,,,,100,,,,,,Space,keypress(Space),,,,,,,,-- --- ---- --- ------ ----- ------- ---- -- --- ------- --<br>------- ---------- ------ -- ----- -- ----- -- save ------<br>--- ----- --- --- ------ -------- ----- --- ------ ----- --<br>----- ----- ---------- --- --- ------ ------ ---- -- ------<br>------- --- ------ ----- --- ---- ------- -- ---- --- --<br>------- ------,90469.72499997355,90469.06999999192,90440.407,90439.92499995511,90457.16,90490.533,,20,save
screen,html.Screen,1_1_1_1_21,2021-03-25T02:30:56.733Z,,,,,,,,,,,,,,,,54,,,,,,,,,,,,,,9.116999954276253,response,,,,100,,,,,,Space,keypress(Space),,,,,,,,"-- --- ---- --- ------ ----- ------- ---- -- --- ------- --<br>------- ---------- ------ -- ----- -- ----- -- ---- money,<br>--- ----- --- --- ------ -------- ----- --- ------ ----- --<br>----- ----- ---------- --- --- ------ ------ ---- -- ------<br>------- --- ------ ----- --- ---- ------- -- ---- --- --<br>------- ------",90500.29999995604,90499.64999995427,90473.811,90469.92999996291,90490.533,90523.877,,21,"money,"
screen,html.Screen,1_1_1_1_22,2021-03-25T02:30:56.763Z,,,,,,,,,,,,,,,,54,,,,,,,,,,,,,,6.527999968602671,response,,,,100,,,,,,Space,keypress(Space),,,,,,,,-- --- ---- --- ------ ----- ------- ---- -- --- ------- --<br>------- ---------- ------ -- ----- -- ----- -- ---- ------<br>the ----- --- --- ------ -------- ----- --- ------ ----- --<br>----- ----- ---------- --- --- ------ ------ ---- -- ------<br>------- --- ------ ----- --- ---- ------- -- ---- --- --<br>------- ------,90531.07500000624,90530.4049999686,90507.164,90500.50999998348,90523.877,90557.233,,22,the
screen,html.Screen,1_1_1_1_23,2021-03-25T02:30:56.794Z,,,,,,,,,,,,,,,,54,,,,,,,,,,,,,,3.94699996059353,response,,,,100,,,,,,Space,keypress(Space),,,,,,,,-- --- ---- --- ------ ----- ------- ---- -- --- ------- --<br>------- ---------- ------ -- ----- -- ----- -- ---- ------<br>--- state --- --- ------ -------- ----- --- ------ ----- --<br>----- ----- ---------- --- --- ------ ------ ---- -- ------<br>------- --- ------ ----- --- ---- ------- -- ---- --- --<br>------- ------,90561.78499996895,90561.17999996059,90540.518,90531.27499995753,90557.233,90590.538,,23,state
screen,html.Screen,1_1_1_1_24,2021-03-25T02:30:56.840Z,,,,,,,,,,,,,,,,54,,,,,,,,,,,,,,15.951999976474326,response,,,,100,,,,,,Space,keypress(Space),,,,,,,,-- --- ---- --- ------ ----- ------- ---- -- --- ------- --<br>------- ---------- ------ -- ----- -- ----- -- ---- ------<br>--- ----- cut --- ------ -------- ----- --- ------ ----- --<br>----- ----- ---------- --- --- ------ ------ ---- -- ------<br>------- --- ------ ----- --- ---- ------- -- ---- --- --<br>------- ------,90607.17499995371,90606.48999997647,90573.889,90561.98999995831,90590.538,90623.945,,24,cut
screen,html.Screen,1_1_1_1_25,2021-03-25T02:30:56.870Z,,,,,,,,,,,,,,,,54,,,,,,,,,,,,,,13.10999999922933,response,,,,100,,,,,,Space,keypress(Space),,,,,,,,-- --- ---- --- ------ ----- ------- ---- -- --- ------- --<br>------- ---------- ------ -- ----- -- ----- -- ---- ------<br>--- ----- --- the ------ -------- ----- --- ------ ----- --<br>----- ----- ---------- --- --- ------ ------ ---- -- ------<br>------- --- ------ ----- --- ---- ------- -- ---- --- --<br>------- ------,90637.69499998307,90637.05499999924,90607.231,90607.36999998335,90623.945,90657.297,,25,the
screen,html.Screen,1_1_1_1_26,2021-03-25T02:30:56.901Z,,,,,,,,,,,,,,,,54,,,,,,,,,,,,,,10.277999970378005,response,,,,100,,,,,,Space,keypress(Space),,,,,,,,-- --- ---- --- ------ ----- ------- ---- -- --- ------- --<br>------- ---------- ------ -- ----- -- ----- -- ---- ------<br>--- ----- --- --- bonds' -------- ----- --- ------ ----- --<br>----- ----- ---------- --- --- ------ ------ ---- -- ------<br>------- --- ------ ----- --- ---- ------- -- ---- --- --<br>------- ------,90668.21999999229,90667.57499997038,90640.582,90637.89499999257,90657.297,90690.653,,26,bonds'
screen,html.Screen,1_1_1_1_27,2021-03-25T02:30:56.931Z,,,,,,,,,,,,,,,,54,,,,,,,,,,,,,,7.2769999657029985,response,,,,100,,,,,,Space,keypress(Space),,,,,,,,-- --- ---- --- ------ ----- ------- ---- -- --- ------- --<br>------- ---------- ------ -- ----- -- ----- -- ---- ------<br>--- ----- --- --- ------ interest ----- --- ------ ----- --<br>----- ----- ---------- --- --- ------ ------ ---- -- ------<br>------- --- ------ ----- --- ---- ------- -- ---- --- --<br>------- ------,90698.60000000335,90697.92999996571,90673.941,90668.42499998165,90690.653,90724.008,,27,interest
screen,html.Screen,1_1_1_1_28,2021-03-25T02:30:56.962Z,,,,,,,,,,,,,,,,54,,,,,,,,,,,,,,4.911999964999268,response,,,,100,,,,,,Space,keypress(Space),,,,,,,,-- --- ---- --- ------ ----- ------- ---- -- --- ------- --<br>------- ---------- ------ -- ----- -- ----- -- ---- ------<br>--- ----- --- --- ------ -------- rate. --- ------ ----- --<br>----- ----- ---------- --- --- ------ ------ ---- -- ------<br>------- --- ------ ----- --- ---- ------- -- ---- --- --<br>------- ------,90729.54499995103,90728.919999965,90707.294,90698.80499999272,90724.008,90757.37,,28,rate.
screen,html.Screen,1_1_1_1_29,2021-03-25T02:30:56.994Z,,,,,,,,,,,,,,,,54,,,,,,,,,,,,,,3.5499999715248123,response,,,,100,,,,,,Space,keypress(Space),,,,,,,,-- --- ---- --- ------ ----- ------- ---- -- --- ------- --<br>------- ---------- ------ -- ----- -- ----- -- ---- ------<br>--- ----- --- --- ------ -------- ----- The ------ ----- --<br>----- ----- ---------- --- --- ------ ------ ---- -- ------<br>------- --- ------ ----- --- ---- ------- -- ---- --- --<br>------- ------,90761.49000000441,90760.91999997152,90740.654,90729.7499999986,90757.37,90790.676,,29,The
screen,html.Screen,1_1_1_1_30,2021-03-25T02:30:57.024Z,,,,,,,,,,,,,,,,54,,,,,,,,,,,,,,0.6689999759837519,response,,,,100,,,,,,Space,keypress(Space),,,,,,,,-- --- ---- --- ------ ----- ------- ---- -- --- ------- --<br>------- ---------- ------ -- ----- -- ----- -- ---- ------<br>--- ----- --- --- ------ -------- ----- --- market ----- --<br>----- ----- ---------- --- --- ------ ------ ---- -- ------<br>------- --- ------ ----- --- ---- ------- -- ---- --- --<br>------- ------,90791.90999997081,90791.34499997599,90773.986,90761.69499999378,90790.676,90824.074,,30,market
screen,html.Screen,1_1_1_1_31,2021-03-25T02:30:57.070Z,,,,,,,,,,,,,,,,54,,,,,,,,,,,,,,13.725999979331391,response,,,,100,,,,,,Space,keypress(Space),,,,,,,,-- --- ---- --- ------ ----- ------- ---- -- --- ------- --<br>------- ---------- ------ -- ----- -- ----- -- ---- ------<br>--- ----- --- --- ------ -------- ----- --- ------ value --<br>----- ----- ---------- --- --- ------ ------ ---- -- ------<br>------- --- ------ ----- --- ---- ------- -- ---- --- --<br>------- ------,90838.14000000712,90837.79999997932,90807.362,90792.11999999825,90824.074,90857.368,,31,value
screen,html.Screen,1_1_1_1_32,2021-03-25T02:30:57.101Z,,,,,,,,,,,,,,,,54,,,,,,,,,,,,,,10.791999954511994,response,,,,100,,,,,,Space,keypress(Space),,,,,,,,-- --- ---- --- ------ ----- ------- ---- -- --- ------- --<br>------- ---------- ------ -- ----- -- ----- -- ---- ------<br>--- ----- --- --- ------ -------- ----- --- ------ ----- of<br>----- ----- ---------- --- --- ------ ------ ---- -- ------<br>------- --- ------ ----- --- ---- ------- -- ---- --- --<br>------- ------,90868.71999996947,90868.15999995451,90840.684,90839.14999995613,90857.368,90890.729,,32,of
screen,html.Screen,1_1_1_1_33,2021-03-25T02:30:57.132Z,,,,,,,,,,,,,,,,54,,,,,,,,,,,,,,8.33600000505976,response,,,,100,,,,,,Space,keypress(Space),,,,,,,,-- --- ---- --- ------ ----- ------- ---- -- --- ------- --<br>------- ---------- ------ -- ----- -- ----- -- ---- ------<br>--- ----- --- --- ------ -------- ----- --- ------ ----- --<br>these ----- ---------- --- --- ------ ------ ---- -- ------<br>------- --- ------ ----- --- ---- ------- -- ---- --- --<br>------- ------,90899.61999998195,90899.06500000507,90874.027,90868.9149999991,90890.729,90924.086,,33,these
screen,html.Screen,1_1_1_1_34,2021-03-25T02:30:57.164Z,,,,,,,,,,,,,,,,54,,,,,,,,,,,,,,6.77900000209047,response,,,,100,,,,,,Space,keypress(Space),,,,,,,,-- --- ---- --- ------ ----- ------- ---- -- --- ------- --<br>------- ---------- ------ -- ----- -- ----- -- ---- ------<br>--- ----- --- --- ------ -------- ----- --- ------ ----- --<br>----- bonds ---------- --- --- ------ ------ ---- -- ------<br>------- --- ------ ----- --- ---- ------- -- ---- --- --<br>------- ------,90931.55999999726,90930.86500000209,90907.384,90899.80999997351,90924.086,90957.337,,34,bonds
screen,html.Screen,1_1_1_1_35,2021-03-25T02:30:57.195Z,,,,,,,,,,,,,,,,54,,,,,,,,,,,,,,4.2280000050668605,response,,,,100,,,,,,Space,keypress(Space),,,,,,,,"-- --- ---- --- ------ ----- ------- ---- -- --- ------- --<br>------- ---------- ------ -- ----- -- ----- -- ---- ------<br>--- ----- --- --- ------ -------- ----- --- ------ ----- --<br>----- ----- plummeted, --- --- ------ ------ ---- -- ------<br>------- --- ------ ----- --- ---- ------- -- ---- --- --<br>------- ------",90962.25499996217,90961.56500000507,90940.738,90931.74999998882,90957.337,90990.792,,35,"plummeted,"
screen,html.Screen,1_1_1_1_36,2021-03-25T02:30:57.226Z,,,,,,,,,,,,,,,,54,,,,,,,,,,,,,,2.472999997335137,response,,,,100,,,,,,Space,keypress(Space),,,,,,,,-- --- ---- --- ------ ----- ------- ---- -- --- ------- --<br>------- ---------- ------ -- ----- -- ----- -- ---- ------<br>--- ----- --- --- ------ -------- ----- --- ------ ----- --<br>----- ----- ---------- and --- ------ ------ ---- -- ------<br>------- --- ------ ----- --- ---- ------- -- ---- --- --<br>------- ------,90993.94999997457,90993.26499999734,90974.09,90962.4499999918,90990.792,91024.195,,36,and
screen,html.Screen,1_1_1_1_37,2021-03-25T02:30:57.258Z,,,,,,,,,,,,,,,,54,,,,,,,,,,,,,,0.7699999895994551,response,,,,100,,,,,,Space,keypress(Space),,,,,,,,-- --- ---- --- ------ ----- ------- ---- -- --- ------- --<br>------- ---------- ------ -- ----- -- ----- -- ---- ------<br>--- ----- --- --- ------ -------- ----- --- ------ ----- --<br>----- ----- ---------- --- the ------ ------ ---- -- ------<br>------- --- ------ ----- --- ---- ------- -- ---- --- --<br>------- ------,91025.42499999981,91024.9649999896,91007.443,90994.14500000421,91024.195,91057.506,,37,the
screen,html.Screen,1_1_1_1_38,2021-03-25T02:30:57.290Z,,,,,,,,,,,,,,,,54,,,,,,,,,,,,,,15.935999991022982,response,,,,100,,,,,,Space,keypress(Space),,,,,,,,-- --- ---- --- ------ ----- ------- ---- -- --- ------- --<br>------- ---------- ------ -- ----- -- ----- -- ---- ------<br>--- ----- --- --- ------ -------- ----- --- ------ ----- --<br>----- ----- ---------- --- --- market ------ ---- -- ------<br>------- --- ------ ----- --- ---- ------- -- ---- --- --<br>------- ------,91057.46999999974,91056.73499999102,91040.799,91025.6099999533,,91074.242,,38,market
screen,html.Screen,1_1_1_1_39,2021-03-25T02:30:57.321Z,,,,,,,,,,,,,,,,54,,,,,,,,,,,,,,13.892999969044467,response,,,,100,,,,,,Space,keypress(Space),,,,,,,,-- --- ---- --- ------ ----- ------- ---- -- --- ------- --<br>------- ---------- ------ -- ----- -- ----- -- ---- ------<br>--- ----- --- --- ------ -------- ----- --- ------ ----- --<br>----- ----- ---------- --- --- ------ became ---- -- ------<br>------- --- ------ ----- --- ---- ------- -- ---- --- --<br>------- ------,91088.86999997776,91088.13499996904,91057.506,91057.66999995103,91074.242,91107.587,,39,became
screen,html.Screen,1_1_1_1_40,2021-03-25T02:30:57.368Z,,,,,,,,,,,,,,,,54,,,,,,,,,,,,,,27.192999963939656,response,,,,100,,,,,,Space,keypress(Space),,,,,,,,-- --- ---- --- ------ ----- ------- ---- -- --- ------- --<br>------- ---------- ------ -- ----- -- ----- -- ---- ------<br>--- ----- --- --- ------ -------- ----- --- ------ ----- --<br>----- ----- ---------- --- --- ------ ------ wary -- ------<br>------- --- ------ ----- --- ---- ------- -- ---- --- --<br>------- ------,91135.50499995472,91134.77999996394,91090.84,91089.05999996932,91107.587,91157.628,,40,wary
screen,html.Screen,1_1_1_1_41,2021-03-25T02:30:57.399Z,,,,,,,,,,,,,,,,54,,,,,,,,,,,,,,8.286999961390393,response,,,,100,,,,,,Space,keypress(Space),,,,,,,,-- --- ---- --- ------ ----- ------- ---- -- --- ------- --<br>------- ---------- ------ -- ----- -- ----- -- ---- ------<br>--- ----- --- --- ------ -------- ----- --- ------ ----- --<br>----- ----- ---------- --- --- ------ ------ ---- of ------<br>------- --- ------ ----- --- ---- ------- -- ---- --- --<br>------- ------,91166.59999999683,91165.91499996139,91140.913,91135.69999998435,91157.628,91190.976,,41,of
screen,html.Screen,1_1_1_1_42,2021-03-25T02:30:57.431Z,,,,,,,,,,,,,,,,54,,,,,,,,,,,,,,6.7239999606099445,response,,,,100,,,,,,Space,keypress(Space),,,,,,,,-- --- ---- --- ------ ----- ------- ---- -- --- ------- --<br>------- ---------- ------ -- ----- -- ----- -- ---- ------<br>--- ----- --- --- ------ -------- ----- --- ------ ----- --<br>----- ----- ---------- --- --- ------ ------ ---- -- French<br>------- --- ------ ----- --- ---- ------- -- ---- --- --<br>------- ------,91198.44999996712,91197.6999999606,91174.289,91166.7899999884,91190.976,91224.356,,42,French
screen,html.Screen,1_1_1_1_43,2021-03-25T02:30:57.463Z,,,,,,,,,,,,,,,,54,,,,,,,,,,,,,,5.283999975916231,response,,,,100,,,,,,Space,keypress(Space),,,,,,,,-- --- ---- --- ------ ----- ------- ---- -- --- ------- --<br>------- ---------- ------ -- ----- -- ----- -- ---- ------<br>--- ----- --- --- ------ -------- ----- --- ------ ----- --<br>----- ----- ---------- --- --- ------ ------ ---- -- ------<br>credit. --- ------ ----- --- ---- ------- -- ---- --- --<br>------- ------,91230.28999997769,91229.63999997592,91207.634,91198.64499999676,91224.356,91257.697,,43,credit.
screen,html.Screen,1_1_1_1_44,2021-03-25T02:30:57.493Z,,,,,,,,,,,,,,,,54,,,,,,,,,,,,,,2.6829999924375443,response,,,,100,,,,,,Space,keypress(Space),,,,,,,,-- --- ---- --- ------ ----- ------- ---- -- --- ------- --<br>------- ---------- ------ -- ----- -- ----- -- ---- ------<br>--- ----- --- --- ------ -------- ----- --- ------ ----- --<br>----- ----- ---------- --- --- ------ ------ ---- -- ------<br>------- The ------ ----- --- ---- ------- -- ---- --- --<br>------- ------,91261.03999995394,91260.37999999244,91240.982,91230.48500000732,91257.697,91291.03,,44,The
screen,html.Screen,1_1_1_1_45,2021-03-25T02:30:57.525Z,,,,,,,,,,,,,,,,54,,,,,,,,,,,,,,1.1449999513861258,response,,,,100,,,,,,Space,keypress(Space),,,,,,,,-- --- ---- --- ------ ----- ------- ---- -- --- ------- --<br>------- ---------- ------ -- ----- -- ----- -- ---- ------<br>--- ----- --- --- ------ -------- ----- --- ------ ----- --<br>----- ----- ---------- --- --- ------ ------ ---- -- ------<br>------- --- French ----- --- ---- ------- -- ---- --- --<br>------- ------,91292.7099999506,91292.17499995138,91274.336,91261.23499998357,91291.03,91324.407,,45,French
screen,html.Screen,1_1_1_1_46,2021-03-25T02:30:57.555Z,,,,,,,,,,,,,,,,54,,,,,,,,,,,,,,14.41499997896608,response,,,,100,,,,,,Space,keypress(Space),,,,,,,,-- --- ---- --- ------ ----- ------- ---- -- --- ------- --<br>------- ---------- ------ -- ----- -- ----- -- ---- ------<br>--- ----- --- --- ------ -------- ----- --- ------ ----- --<br>----- ----- ---------- --- --- ------ ------ ---- -- ------<br>------- --- ------ state --- ---- ------- -- ---- --- --<br>------- ------,91322.81499996316,91322.04499997897,91307.63,91292.9099999601,,91341.073,,46,state
screen,html.Screen,1_1_1_1_47,2021-03-25T02:30:57.586Z,,,,,,,,,,,,,,,,54,,,,,,,,,,,,,,11.746999970957404,response,,,,100,,,,,,Space,keypress(Space),,,,,,,,-- --- ---- --- ------ ----- ------- ---- -- --- ------- --<br>------- ---------- ------ -- ----- -- ----- -- ---- ------<br>--- ----- --- --- ------ -------- ----- --- ------ ----- --<br>----- ----- ---------- --- --- ------ ------ ---- -- ------<br>------- --- ------ ----- was ---- ------- -- ---- --- --<br>------- ------,91353.53999998188,91352.81999997096,91324.407,91323.01499997266,91341.073,91374.45,,47,was
screen,html.Screen,1_1_1_1_48,2021-03-25T02:30:57.632Z,,,,,,,,,,,,,,,,54,,,,,,,,,,,,,,24.41999997543462,response,,,,100,,,,,,Space,keypress(Space),,,,,,,,-- --- ---- --- ------ ----- ------- ---- -- --- ------- --<br>------- ---------- ------ -- ----- -- ----- -- ---- ------<br>--- ----- --- --- ------ -------- ----- --- ------ ----- --<br>----- ----- ---------- --- --- ------ ------ ---- -- ------<br>------- --- ------ ----- --- left ------- -- ---- --- --<br>------- ------,91399.459999986,91398.86999997543,91357.72,91353.7349999533,91374.45,91424.454,,48,left
screen,html.Screen,1_1_1_1_49,2021-03-25T02:30:57.664Z,,,,,,,,,,,,,,,,54,,,,,,,,,,,,,,6.530999984504888,response,,,,100,,,,,,Space,keypress(Space),,,,,,,,-- --- ---- --- ------ ----- ------- ---- -- --- ------- --<br>------- ---------- ------ -- ----- -- ----- -- ---- ------<br>--- ----- --- --- ------ -------- ----- --- ------ ----- --<br>----- ----- ---------- --- --- ------ ------ ---- -- ------<br>------- --- ------ ----- --- ---- without -- ---- --- --<br>------- ------,91431.53000000166,91430.9849999845,91407.76,91399.65999999549,91424.454,91457.811,,49,without
screen,html.Screen,1_1_1_1_50,2021-03-25T02:30:57.695Z,,,,,,,,,,,,,,,,54,,,,,,,,,,,,,,3.8690000076167053,response,,,,100,,,,,,Space,keypress(Space),,,,,,,,-- --- ---- --- ------ ----- ------- ---- -- --- ------- --<br>------- ---------- ------ -- ----- -- ----- -- ---- ------<br>--- ----- --- --- ------ -------- ----- --- ------ ----- --<br>----- ----- ---------- --- --- ------ ------ ---- -- ------<br>------- --- ------ ----- --- ---- ------- an ---- --- --<br>------- ------,91462.2649999801,91461.68000000762,91441.105,91431.71999999322,91457.811,91491.177,,50,an
screen,html.Screen,1_1_1_1_51,2021-03-25T02:30:57.726Z,,,,,,,,,,,,,,,,54,,,,,,,,,,,,,,1.74799996954971,response,,,,100,,,,,,Space,keypress(Space),,,,,,,,-- --- ---- --- ------ ----- ------- ---- -- --- ------- --<br>------- ---------- ------ -- ----- -- ----- -- ---- ------<br>--- ----- --- --- ------ -------- ----- --- ------ ----- --<br>----- ----- ---------- --- --- ------ ------ ---- -- ------<br>------- --- ------ ----- --- ---- ------- -- easy --- --<br>------- ------,91493.44999995083,91492.92499996955,91474.465,91462.45999995153,91491.177,91524.473,,51,easy
screen,html.Screen,1_1_1_1_52,2021-03-25T02:30:57.758Z,,,,,,,,,,,,,,,,54,,,,,,,,,,,,,,16.723999961468508,response,,,,100,,,,,,Space,keypress(Space),,,,,,,,-- --- ---- --- ------ ----- ------- ---- -- --- ------- --<br>------- ---------- ------ -- ----- -- ----- -- ---- ------<br>--- ----- --- --- ------ -------- ----- --- ------ ----- --<br>----- ----- ---------- --- --- ------ ------ ---- -- ------<br>------- --- ------ ----- --- ---- ------- -- ---- way --<br>------- ------,91525.25000000605,91524.49499996146,91507.771,91493.6400000006,,91541.199,,52,way
screen,html.Screen,1_1_1_1_53,2021-03-25T02:30:57.789Z,,,,,,,,,,,,,,,,54,,,,,,,,,,,,,,14.99099997387384,response,,,,100,,,,,,Space,keypress(Space),,,,,,,,-- --- ---- --- ------ ----- ------- ---- -- --- ------- --<br>------- ---------- ------ -- ----- -- ----- -- ---- ------<br>--- ----- --- --- ------ -------- ----- --- ------ ----- --<br>----- ----- ---------- --- --- ------ ------ ---- -- ------<br>------- --- ------ ----- --- ---- ------- -- ---- --- of<br>------- ------,91556.61999998847,91556.18999997387,91524.473,91525.44999995735,91541.199,91574.562,,53,of
screen,html.Screen,1_1_1_1_54,2021-03-25T02:30:57.821Z,,,,,,,,,,,,,,,,54,,,,,,,,,,,,,,13.222999981517205,response,,,,100,,,,,,Space,keypress(Space),,,,,,,,-- --- ---- --- ------ ----- ------- ---- -- --- ------- --<br>------- ---------- ------ -- ----- -- ----- -- ---- ------<br>--- ----- --- --- ------ -------- ----- --- ------ ----- --<br>----- ----- ---------- --- --- ------ ------ ---- -- ------<br>------- --- ------ ----- --- ---- ------- -- ---- --- --<br>raising ------,91588.4799999767,91587.78499998152,91557.823,91556.70999997528,91574.562,91607.946,,54,raising
screen,html.Screen,1_1_1_1_55,2021-03-25T02:30:57.853Z,,,,,,,,,,,,,,,,54,,,,,,,,,,,,,,11.928999974858016,response,,,,100,,,,,,Space,keypress(Space),,,,,,,,-- --- ---- --- ------ ----- ------- ---- -- --- ------- --<br>------- ---------- ------ -- ----- -- ----- -- ---- ------<br>--- ----- --- --- ------ -------- ----- --- ------ ----- --<br>----- ----- ---------- --- --- ------ ------ ---- -- ------<br>------- --- ------ ----- --- ---- ------- -- ---- --- --<br>------- money.,91620.5599999521,91619.87499997485,91591.213,91588.66999996826,91607.946,91641.264,,55,money.
Item 100,flow.Loop,1_1_1_1,2021-03-25T02:30:57.853Z,,,,,,,,,,,,,,,,,,,,,,,,,,,,,,2813.8699999748496,completion,,,,,C,,,,,,,,,,silence,,,,,91620.91499997769,91619.87499997485,88789.313,88790.26999999769,88806.005,91641.264,,,
Question 1,html.Screen,1_1_1_2,2021-03-25T02:31:01.349Z,,,,,,,,,,,,,,,,,,,,,,,,,,,false,TRUE,,3474.9209999916784,response,,,,100,C,,,,,FALSE,click #choice-2,,,,silence,,,,,95116.92499998026,95116.18499999167,91624.568,91621.07499997364,91641.264,95126.699,,,
Question 2,html.Screen,1_1_1_3,2021-03-25T02:31:01.877Z,,,,,,,,,,,,,,,,,,,,,,,,,,,true,FALSE,,517.5309999762394,response,,,,100,C,,,,,FALSE,click #choice-2,,,,silence,,,,,95644.94500000728,95644.22999997623,95110.212,95117.05000000075,95126.699,95660.538,,,
Item 100,flow.Sequence,1_1_1,2021-03-25T02:31:01.878Z,,,,,,,,,,,,,,,,,,,,,,,,,,,,,,13842.806999976237,completion,,,,,,,,,,,,,,,,,,,,95645.12000000104,95644.22999997623,81784.79,81791.3749999716,81801.423,95660.538,,,
End of Practice,html.Page,1_1_2,2021-03-25T02:31:03.774Z,,,,,,,,,,,,,,,,,,,,,,,,,,,,,,1880.4319999727304,form submission,,,,,,,,,,,,,,,,,,,,97541.28999996465,97540.96999997273,95643.88,95645.19499999005,95660.538,97545.099,,,
Practice,flow.Sequence,1_1,2021-03-25T02:31:03.774Z,,,,,,,,,,,,,,,,,,,,,,,,,,,,,,33834.771999972734,completion,,,,,,,,,,,,,,,,,,,,97541.45999997854,97540.96999997273,63689.596,63701.15999999689,63706.198,97545.099,,,
Trap_instruction,html.Page,1_2_0,2021-03-25T02:31:05.214Z,,,,,,,,,,,,,,,,,,,,,,,,,,,,,,1435.7859999681095,form submission,,,,,,,,,,,,,,,,,,,,98981.18499998236,98980.88499996811,97528.449,97541.56499996316,97545.099,98996.052,,,
trap_trial,html.Screen,1_2_1,2021-03-25T02:31:11.332Z,,,,,,,,,,,,,,,,,,,,,,,,,,,true,1,,6102.53299997063,response,,,,,,,,,,1,click #choice-1,,,,,,,,,105099.22999999253,105098.58499997063,98979.403,98981.29999998491,98996.052,105100.049,,,
end of trap trial,html.Page,1_2_2,2021-03-25T02:31:12.629Z,,,,,,,,,,,,,,,,,,,,,,,,,,,,,,1295.6910000072094,form submission,,,,,,,,,,,,,,,,,,,,106396.10499999253,106395.74000000721,105083.401,105099.35999999288,105100.049,106400.923,,,
Trap 1,flow.Sequence,1_2,2021-03-25T02:31:12.629Z,,,,,,,,,,,,,,,,,,,,,,,,,,,,,,8850.641000007206,completion,,,,,,,,,,,,,,,,,,,,106396.3099999819,106395.74000000721,97528.449,97541.52999998769,97545.099,106400.923,,,
Holding screen,html.Screen,1_3_0_0,2021-03-25T02:31:19.622Z,,,,,,,,,,,,,,,,,,,,,,,,,,,,,,7004.457000000009,timeout,,,,,,,,,,,,,,,,,,,,113389.71999997739,113388.878,106384.265,106396.44499996211,106400.923,113405.38,,,
screen,html.Screen,1_3_0_1_0,2021-03-25T02:31:20.291Z,,,,,,,,,,,,,,,,15,,,,,,,,,,,,,,652.1449999528704,response,,,,7,C,,,,,Space,keypress(Space),,,,instrumental,,,,Greg --------- ---------- - --- ------- -- --- ------------<br>----- -- -------- ------- ---- ------ - -------- ---- -----<br>--- ------- ---- -- --- -------- --- - ----- ------ ---- --<br>-------- --- -------- -------- --- -------- ---- -- ----- -<br>-------- ---- --- ---------- --------- -- ------- ------ -<br>--------- ----- -----,114058.37499996414,114057.52499995288,113388.878,113389.96999996016,113405.38,114072.669,,0,Greg
screen,html.Screen,1_3_0_1_1,2021-03-25T02:31:20.619Z,,,,,,,,,,,,,,,,15,,,,,,,,,,,,,,312.9259999997448,response,,,,7,C,,,,,Space,keypress(Space),,,,instrumental,,,,"---- Anderson, ---------- - --- ------- -- --- ------------<br>----- -- -------- ------- ---- ------ - -------- ---- -----<br>--- ------- ---- -- --- -------- --- - ----- ------ ---- --<br>-------- --- -------- -------- --- -------- ---- -- ----- -<br>-------- ---- --- ---------- --------- -- ------- ------ -<br>--------- ----- -----",114386.47999998648,114385.59499999974,114055.987,114058.64000000292,114072.669,114406.182,,1,"Anderson,"
screen,html.Screen,1_3_0_1_2,2021-03-25T02:31:20.915Z,,,,,,,,,,,,,,,,15,,,,,,,,,,,,,,275.29299999031355,response,,,,7,C,,,,,Space,keypress(Space),,,,instrumental,,,,---- --------- considered - --- ------- -- --- ------------<br>----- -- -------- ------- ---- ------ - -------- ---- -----<br>--- ------- ---- -- --- -------- --- - ----- ------ ---- --<br>-------- --- -------- -------- --- -------- ---- -- ----- -<br>-------- ---- --- ---------- --------- -- ------- ------ -<br>--------- ----- -----,114682.3999999906,114681.47499999031,114389.478,114386.86500000767,114406.182,114706.381,,2,considered
screen,html.Screen,1_3_0_1_3,2021-03-25T02:31:21.331Z,,,,,,,,,,,,,,,,15,,,,,,,,,,,,,,391.67399995127926,response,,,,7,C,,,,,Space,keypress(Space),,,,instrumental,,,,---- --------- ---------- a --- ------- -- --- ------------<br>----- -- -------- ------- ---- ------ - -------- ---- -----<br>--- ------- ---- -- --- -------- --- - ----- ------ ---- --<br>-------- --- -------- -------- --- -------- ---- -- ----- -<br>-------- ---- --- ---------- --------- -- ------- ------ -<br>--------- ----- -----,115098.78999995999,115098.05499995127,114689.681,114682.59499996202,114706.381,115106.566,,3,a
screen,html.Screen,1_3_0_1_4,2021-03-25T02:31:21.674Z,,,,,,,,,,,,,,,,15,,,,,,,,,,,,,,334.60899998537207,response,,,,7,C,,,,,Space,keypress(Space),,,,instrumental,,,,---- --------- ---------- - key ------- -- --- ------------<br>----- -- -------- ------- ---- ------ - -------- ---- -----<br>--- ------- ---- -- --- -------- --- - ----- ------ ---- --<br>-------- --- -------- -------- --- -------- ---- -- ----- -<br>-------- ---- --- ---------- --------- -- ------- ------ -<br>--------- ----- -----,115441.85000000289,115441.17499998538,115089.975,115098.97999995155,115106.566,115456.927,,4,key
screen,html.Screen,1_3_0_1_5,2021-03-25T02:31:22.034Z,,,,,,,,,,,,,,,,15,,,,,,,,,,,,,,344.26299996921443,response,,,,7,C,,,,,Space,keypress(Space),,,,instrumental,,,,---- --------- ---------- - --- witness -- --- ------------<br>----- -- -------- ------- ---- ------ - -------- ---- -----<br>--- ------- ---- -- --- -------- --- - ----- ------ ---- --<br>-------- --- -------- -------- --- -------- ---- -- ----- -<br>-------- ---- --- ---------- --------- -- ------- ------ -<br>--------- ----- -----,115801.89499998232,115801.18999996921,115440.186,115442.04499997431,115456.927,115807.08,,5,witness
screen,html.Screen,1_3_0_1_6,2021-03-25T02:31:22.346Z,,,,,,,,,,,,,,,,15,,,,,,,,,,,,,,305.9650000055117,response,,,,7,C,,,,,Space,keypress(Space),,,,instrumental,,,,---- --------- ---------- - --- ------- by --- ------------<br>----- -- -------- ------- ---- ------ - -------- ---- -----<br>--- ------- ---- -- --- -------- --- - ----- ------ ---- --<br>-------- --- -------- -------- --- -------- ---- -- ----- -<br>-------- ---- --- ---------- --------- -- ------- ------ -<br>--------- ----- -----,116113.77999995602,116113.04500000551,115790.476,115802.08499997389,115807.08,116123.974,,6,by
screen,html.Screen,1_3_0_1_7,2021-03-25T02:31:22.762Z,,,,,,,,,,,,,,,,15,,,,,,,,,,,,,,405.0559999760444,response,,,,7,C,,,,,Space,keypress(Space),,,,instrumental,,,,---- --------- ---------- - --- ------- -- the ------------<br>----- -- -------- ------- ---- ------ - -------- ---- -----<br>--- ------- ---- -- --- -------- --- - ----- ------ ---- --<br>-------- --- -------- -------- --- -------- ---- -- ----- -<br>-------- ---- --- ---------- --------- -- ------- ------ -<br>--------- ----- -----,116529.74999998696,116529.02999997605,116107.311,116113.9700000058,116123.974,116540.91,,7,the
screen,html.Screen,1_3_0_1_8,2021-03-25T02:31:23.170Z,,,,,,,,,,,,,,,,15,,,,,,,,,,,,,,396.04000000297674,response,,,,7,C,,,,,Space,keypress(Space),,,,instrumental,,,,"---- --------- ---------- - --- ------- -- --- prosecution,<br>----- -- -------- ------- ---- ------ - -------- ---- -----<br>--- ------- ---- -- --- -------- --- - ----- ------ ---- --<br>-------- --- -------- -------- --- -------- ---- -- ----- -<br>-------- ---- --- ---------- --------- -- ------- ------ -<br>--------- ----- -----",116937.64999997802,116936.95000000298,116524.299,116529.94499995839,116540.91,116941.199,,8,"prosecution,"
screen,html.Screen,1_3_0_1_9,2021-03-25T02:31:23.578Z,,,,,,,,,,,,,,,,15,,,,,,,,,,,,,,403.6709999717132,response,,,,7,C,,,,,Space,keypress(Space),,,,instrumental,,,,---- --------- ---------- - --- ------- -- --- ------------<br>vowed -- -------- ------- ---- ------ - -------- ---- -----<br>--- ------- ---- -- --- -------- --- - ----- ------ ---- --<br>-------- --- -------- -------- --- -------- ---- -- ----- -<br>-------- ---- --- ---------- --------- -- ------- ------ -<br>--------- ----- -----,117345.60000000056,117344.8699999717,116924.566,116937.84500000766,116941.199,117358.126,,9,vowed
screen,html.Screen,1_3_0_1_10,2021-03-25T02:31:23.970Z,,,,,,,,,,,,,,,,15,,,,,,,,,,,,,,378.70399995071057,response,,,,7,C,,,,,Space,keypress(Space),,,,instrumental,,,,---- --------- ---------- - --- ------- -- --- ------------<br>----- he -------- ------- ---- ------ - -------- ---- -----<br>--- ------- ---- -- --- -------- --- - ----- ------ ---- --<br>-------- --- -------- -------- --- -------- ---- -- ----- -<br>-------- ---- --- ---------- --------- -- ------- ------ -<br>--------- ----- -----,117737.49999998836,117736.82999995071,117341.508,117345.79499997199,117358.126,117741.723,,10,he
screen,html.Screen,1_3_0_1_11,2021-03-25T02:31:24.378Z,,,,,,,,,,,,,,,,15,,,,,,,,,,,,,,403.0619999531191,response,,,,7,C,,,,,Space,keypress(Space),,,,instrumental,,,,---- --------- ---------- - --- ------- -- --- ------------<br>----- -- wouldn't ------- ---- ------ - -------- ---- -----<br>--- ------- ---- -- --- -------- --- - ----- ------ ---- --<br>-------- --- -------- -------- --- -------- ---- -- ----- -<br>-------- ---- --- ---------- --------- -- ------- ------ -<br>--------- ----- -----,118145.51499998197,118144.78499995312,117725.087,117737.69499995979,117741.723,118158.668,,11,wouldn't
screen,html.Screen,1_3_0_1_12,2021-03-25T02:31:24.818Z,,,,,,,,,,,,,,,,15,,,,,,,,,,,,,,426.08199997997144,response,,,,7,C,,,,,Space,keypress(Space),,,,instrumental,,,,---- --------- ---------- - --- ------- -- --- ------------<br>----- -- -------- testify ---- ------ - -------- ---- -----<br>--- ------- ---- -- --- -------- --- - ----- ------ ---- --<br>-------- --- -------- -------- --- -------- ---- -- ----- -<br>-------- ---- --- ---------- --------- -- ------- ------ -<br>--------- ----- -----,118585.4849999887,118584.74999997998,118142.036,118145.7099999534,118158.668,118592.202,,12,testify
screen,html.Screen,1_3_0_1_13,2021-03-25T02:31:25.274Z,,,,,,,,,,,,,,,,15,,,,,,,,,,,,,,448.48299995627895,response,,,,7,C,,,,,Space,keypress(Space),,,,instrumental,,,,---- --------- ---------- - --- ------- -- --- ------------<br>----- -- -------- ------- when ------ - -------- ---- -----<br>--- ------- ---- -- --- -------- --- - ----- ------ ---- --<br>-------- --- -------- -------- --- -------- ---- -- ----- -<br>-------- ---- --- ---------- --------- -- ------- ------ -<br>--------- ----- -----,119041.39999998733,119040.68499995628,118575.654,118585.6849999982,118592.202,119059.257,,13,when
screen,html.Screen,1_3_0_1_14,2021-03-25T02:31:25.714Z,,,,,,,,,,,,,,,,15,,,,,,,,,,,,,,421.33799997180176,response,,,,7,C,,,,,Space,keypress(Space),,,,instrumental,,,,---- --------- ---------- - --- ------- -- --- ------------<br>----- -- -------- ------- ---- served - -------- ---- -----<br>--- ------- ---- -- --- -------- --- - ----- ------ ---- --<br>-------- --- -------- -------- --- -------- ---- -- ----- -<br>-------- ---- --- ---------- --------- -- ------- ------ -<br>--------- ----- -----,119481.31499998271,119480.5949999718,119025.96,119041.59499995876,119059.257,119492.862,,14,served
screen,html.Screen,1_3_0_1_15,2021-03-25T02:31:26.154Z,,,,,,,,,,,,,,,,15,,,,,,,,,,,,,,427.6979999986652,response,,,,7,C,,,,,Space,keypress(Space),,,,instrumental,,,,---- --------- ---------- - --- ------- -- --- ------------<br>----- -- -------- ------- ---- ------ a -------- ---- -----<br>--- ------- ---- -- --- -------- --- - ----- ------ ---- --<br>-------- --- -------- -------- --- -------- ---- -- ----- -<br>-------- ---- --- ---------- --------- -- ------- ------ -<br>--------- ----- -----,119921.26499995356,119920.55999999866,119476.242,119481.51499999221,119492.862,119926.416,,15,a
screen,html.Screen,1_3_0_1_16,2021-03-25T02:31:26.602Z,,,,,,,,,,,,,,,,15,,,,,,,,,,,,,,442.0790000024426,response,,,,7,C,,,,,Space,keypress(Space),,,,instrumental,,,,---- --------- ---------- - --- ------- -- --- ------------<br>----- -- -------- ------- ---- ------ - subpoena ---- -----<br>--- ------- ---- -- --- -------- --- - ----- ------ ---- --<br>-------- --- -------- -------- --- -------- ---- -- ----- -<br>-------- ---- --- ---------- --------- -- ------- ------ -<br>--------- ----- -----,120369.23999997089,120368.49500000244,119909.861,119921.4599999832,119926.416,120376.696,,16,subpoena
screen,html.Screen,1_3_0_1_17,2021-03-25T02:31:27.017Z,,,,,,,,,,,,,,,,15,,,,,,,,,,,,,,407.6689999704249,response,,,,7,C,,,,,Space,keypress(Space),,,,instrumental,,,,---- --------- ---------- - --- ------- -- --- ------------<br>----- -- -------- ------- ---- ------ - -------- last -----<br>--- ------- ---- -- --- -------- --- - ----- ------ ---- --<br>-------- --- -------- -------- --- -------- ---- -- ----- -<br>-------- ---- --- ---------- --------- -- ------- ------ -<br>--------- ----- -----,120785.05000000587,120784.36499997042,120360.157,120369.42999996245,120376.696,120793.713,,17,last
screen,html.Screen,1_3_0_1_18,2021-03-25T02:31:27.506Z,,,,,,,,,,,,,,,,15,,,,,,,,,,,,,,478.62199998692086,response,,,,7,C,,,,,Space,keypress(Space),,,,instrumental,,,,---- --------- ---------- - --- ------- -- --- ------------<br>----- -- -------- ------- ---- ------ - -------- ---- week.<br>--- ------- ---- -- --- -------- --- - ----- ------ ---- --<br>-------- --- -------- -------- --- -------- ---- -- ----- -<br>-------- ---- --- ---------- --------- -- ------- ------ -<br>--------- ----- -----,121273.14499998465,121272.33499998692,120777.127,120785.23999999743,120793.713,121293.971,,18,week.
screen,html.Screen,1_3_0_1_19,2021-03-25T02:31:27.953Z,,,,,,,,,,,,,,,,15,,,,,,,,,,,,,,426.20399996581546,response,,,,7,C,,,,,Space,keypress(Space),,,,instrumental,,,,---- --------- ---------- - --- ------- -- --- ------------<br>----- -- -------- ------- ---- ------ - -------- ---- -----<br>His ------- ---- -- --- -------- --- - ----- ------ ---- --<br>-------- --- -------- -------- --- -------- ---- -- ----- -<br>-------- ---- --- ---------- --------- -- ------- ------ -<br>--------- ----- -----,121720.869999961,121720.17499996582,121277.333,121273.33499997621,121293.971,121727.651,,19,His
screen,html.Screen,1_3_0_1_20,2021-03-25T02:31:28.345Z,,,,,,,,,,,,,,,,15,,,,,,,,,,,,,,384.4939999627677,response,,,,7,C,,,,,Space,keypress(Space),,,,instrumental,,,,---- --------- ---------- - --- ------- -- --- ------------<br>----- -- -------- ------- ---- ------ - -------- ---- -----<br>--- lawyers ---- -- --- -------- --- - ----- ------ ---- --<br>-------- --- -------- -------- --- -------- ---- -- ----- -<br>-------- ---- --- ---------- --------- -- ------- ------ -<br>--------- ----- -----,122112.87999997148,122112.14499996277,121710.994,121721.05999995256,121727.651,122127.967,,20,lawyers
screen,html.Screen,1_3_0_1_21,2021-03-25T02:31:28.721Z,,,,,,,,,,,,,,,,15,,,,,,,,,,,,,,360.22799998353,response,,,,7,C,,,,,Space,keypress(Space),,,,instrumental,,,,---- --------- ---------- - --- ------- -- --- ------------<br>----- -- -------- ------- ---- ------ - -------- ---- -----<br>--- ------- said -- --- -------- --- - ----- ------ ---- --<br>-------- --- -------- -------- --- -------- ---- -- ----- -<br>-------- ---- --- ---------- --------- -- ------- ------ -<br>--------- ----- -----,122488.95999998786,122488.19499998353,122111.301,122113.06499998318,122127.967,122494.796,,21,said
screen,html.Screen,1_3_0_1_22,2021-03-25T02:31:29.153Z,,,,,,,,,,,,,,,,15,,,,,,,,,,,,,,425.3039999884495,response,,,,7,C,,,,,Space,keypress(Space),,,,instrumental,,,,---- --------- ---------- - --- ------- -- --- ------------<br>----- -- -------- ------- ---- ------ - -------- ---- -----<br>--- ------- ---- he --- -------- --- - ----- ------ ---- --<br>-------- --- -------- -------- --- -------- ---- -- ----- -<br>-------- ---- --- ---------- --------- -- ------- ------ -<br>--------- ----- -----,122920.8149999613,122920.09999998845,122478.2,122489.15499995928,122494.796,122928.381,,22,he
screen,html.Screen,1_3_0_1_23,2021-03-25T02:31:29.553Z,,,,,,,,,,,,,,,,15,,,,,,,,,,,,,,391.63899998465786,response,,,,7,C,,,,,Space,keypress(Space),,,,instrumental,,,,---- --------- ---------- - --- ------- -- --- ------------<br>----- -- -------- ------- ---- ------ - -------- ---- -----<br>--- ------- ---- -- was -------- --- - ----- ------ ---- --<br>-------- --- -------- -------- --- -------- ---- -- ----- -<br>-------- ---- --- ---------- --------- -- ------- ------ -<br>--------- ----- -----,123320.72499999776,123320.01999998465,122911.836,122921.00999999093,122928.381,123328.714,,23,was
screen,html.Screen,1_3_0_1_24,2021-03-25T02:31:29.953Z,,,,,,,,,,,,,,,,15,,,,,,,,,,,,,,391.270999974251,response,,,,7,C,,,,,Space,keypress(Space),,,,instrumental,,,,---- --------- ---------- - --- ------- -- --- ------------<br>----- -- -------- ------- ---- ------ - -------- ---- -----<br>--- ------- ---- -- --- prepared --- - ----- ------ ---- --<br>-------- --- -------- -------- --- -------- ---- -- ----- -<br>-------- ---- --- ---------- --------- -- ------- ------ -<br>--------- ----- -----,123720.71500000311,123719.98499997426,123312.104,123320.91499998933,123328.714,123728.971,,24,prepared
screen,html.Screen,1_3_0_1_25,2021-03-25T02:31:30.385Z,,,,,,,,,,,,,,,,15,,,,,,,,,,,,,,422.90399998136854,response,,,,7,C,,,,,Space,keypress(Space),,,,instrumental,,,,---- --------- ---------- - --- ------- -- --- ------------<br>----- -- -------- ------- ---- ------ - -------- ---- -----<br>--- ------- ---- -- --- -------- for - ----- ------ ---- --<br>-------- --- -------- -------- --- -------- ---- -- ----- -<br>-------- ---- --- ---------- --------- -- ------- ------ -<br>--------- ----- -----,124152.58499997435,124151.87499998137,123712.354,123720.90999997454,123728.971,124162.604,,25,for
screen,html.Screen,1_3_0_1_26,2021-03-25T02:31:30.825Z,,,,,,,,,,,,,,,,15,,,,,,,,,,,,,,429.2909999613621,response,,,,7,C,,,,,Space,keypress(Space),,,,instrumental,,,,---- --------- ---------- - --- ------- -- --- ------------<br>----- -- -------- ------- ---- ------ - -------- ---- -----<br>--- ------- ---- -- --- -------- --- a ----- ------ ---- --<br>-------- --- -------- -------- --- -------- ---- -- ----- -<br>-------- ---- --- ---------- --------- -- ------- ------ -<br>--------- ----- -----,124592.65999996569,124591.89499996137,124145.977,124152.78000000399,124162.604,124596.23,,26,a
screen,html.Screen,1_3_0_1_27,2021-03-25T02:31:31.209Z,,,,,,,,,,,,,,,,15,,,,,,,,,,,,,,379.55499995870923,response,,,,7,C,,,,,Space,keypress(Space),,,,instrumental,,,,---- --------- ---------- - --- ------- -- --- ------------<br>----- -- -------- ------- ---- ------ - -------- ---- -----<br>--- ------- ---- -- --- -------- --- - third ------ ---- --<br>-------- --- -------- -------- --- -------- ---- -- ----- -<br>-------- ---- --- ---------- --------- -- ------- ------ -<br>--------- ----- -----,124976.48499999195,124975.7849999587,124579.6,124592.85999997519,124596.23,124979.808,,27,third
screen,html.Screen,1_3_0_1_28,2021-03-25T02:31:31.626Z,,,,,,,,,,,,,,,,15,,,,,,,,,,,,,,412.68699997822114,response,,,,7,C,,,,,Space,keypress(Space),,,,instrumental,,,,---- --------- ---------- - --- ------- -- --- ------------<br>----- -- -------- ------- ---- ------ - -------- ---- -----<br>--- ------- ---- -- --- -------- --- - ----- prison ---- --<br>-------- --- -------- -------- --- -------- ---- -- ----- -<br>-------- ---- --- ---------- --------- -- ------- ------ -<br>--------- ----- -----,125393.20999995107,125392.49499997823,124963.123,124976.67999996338,124979.808,125396.749,,28,prison
screen,html.Screen,1_3_0_1_29,2021-03-25T02:31:31.969Z,,,,,,,,,,,,,,,,15,,,,,,,,,,,,,,338.990999974616,response,,,,7,C,,,,,Space,keypress(Space),,,,instrumental,,,,---- --------- ---------- - --- ------- -- --- ------------<br>----- -- -------- ------- ---- ------ - -------- ---- -----<br>--- ------- ---- -- --- -------- --- - ----- ------ stay --<br>-------- --- -------- -------- --- -------- ---- -- ----- -<br>-------- ---- --- ---------- --------- -- ------- ------ -<br>--------- ----- -----,125736.494999961,125735.73999997461,125380.117,125393.40000000084,125396.749,125746.973,,29,stay
screen,html.Screen,1_3_0_1_30,2021-03-25T02:31:32.233Z,,,,,,,,,,,,,,,,15,,,,,,,,,,,,,,252.6319999608677,response,,,,7,C,,,,,Space,keypress(Space),,,,instrumental,,,,---- --------- ---------- - --- ------- -- --- ------------<br>----- -- -------- ------- ---- ------ - -------- ---- -----<br>--- ------- ---- -- --- -------- --- - ----- ------ ---- to<br>-------- --- -------- -------- --- -------- ---- -- ----- -<br>-------- ---- --- ---------- --------- -- ------- ------ -<br>--------- ----- -----,126000.32999995165,125999.60499996087,125730.337,125736.70499998843,125746.973,126013.861,,30,to
screen,html.Screen,1_3_0_1_31,2021-03-25T02:31:32.739Z,,,,,,,,,,,,,,,,15,,,,,,,,,,,,,,492.23399996061926,response,,,,7,C,,,,,Space,keypress(Space),,,,instrumental,,,,---- --------- ---------- - --- ------- -- --- ------------<br>----- -- -------- ------- ---- ------ - -------- ---- -----<br>--- ------- ---- -- --- -------- --- - ----- ------ ---- --<br>maintain --- -------- -------- --- -------- ---- -- ----- -<br>-------- ---- --- ---------- --------- -- ------- ------ -<br>--------- ----- -----,126506.82999996934,126506.09499996062,125997.195,126000.53499999922,126013.861,126514.106,,31,maintain
screen,html.Screen,1_3_0_1_32,2021-03-25T02:31:32.770Z,,,,,,,,,,,,,,,,15,,,,,,,,,,,,,,23.128999996144557,response,,,,7,C,,,,,Space,keypress(Space),,,,instrumental,,,,---- --------- ---------- - --- ------- -- --- ------------<br>----- -- -------- ------- ---- ------ - -------- ---- -----<br>--- ------- ---- -- --- -------- --- - ----- ------ ---- --<br>-------- his -------- -------- --- -------- ---- -- ----- -<br>-------- ---- --- ---------- --------- -- ------- ------ -<br>--------- ----- -----,126537.91999997338,126537.23499999614,126497.531,126508.25499999337,126514.106,126547.487,,32,his
screen,html.Screen,1_3_0_1_33,2021-03-25T02:31:32.801Z,,,,,,,,,,,,,,,,15,,,,,,,,,,,,,,20.43799998119357,response,,,,7,C,,,,,Space,keypress(Space),,,,instrumental,,,,---- --------- ---------- - --- ------- -- --- ------------<br>----- -- -------- ------- ---- ------ - -------- ---- -----<br>--- ------- ---- -- --- -------- --- - ----- ------ ---- --<br>-------- --- silence. -------- --- -------- ---- -- ----- -<br>-------- ---- --- ---------- --------- -- ------- ------ -<br>--------- ----- -----,126568.5850000009,126567.92499998119,126530.864,126538.11500000302,126547.487,126580.904,,33,silence.
screen,html.Screen,1_3_0_1_34,2021-03-25T02:31:32.831Z,,,,,,,,,,,,,,,,15,,,,,,,,,,,,,,17.580999965881347,response,,,,7,C,,,,,Space,keypress(Space),,,,instrumental,,,,---- --------- ---------- - --- ------- -- --- ------------<br>----- -- -------- ------- ---- ------ - -------- ---- -----<br>--- ------- ---- -- --- -------- --- - ----- ------ ---- --<br>-------- --- -------- Anderson --- -------- ---- -- ----- -<br>-------- ---- --- ---------- --------- -- ------- ------ -<br>--------- ----- -----,126599.04000000097,126598.48499996588,126564.177,126568.78999999026,126580.904,126614.248,,34,Anderson
screen,html.Screen,1_3_0_1_35,2021-03-25T02:31:32.863Z,,,,,,,,,,,,,,,,15,,,,,,,,,,,,,,15.611999986358569,response,,,,7,C,,,,,Space,keypress(Space),,,,instrumental,,,,---- --------- ---------- - --- ------- -- --- ------------<br>----- -- -------- ------- ---- ------ - -------- ---- -----<br>--- ------- ---- -- --- -------- --- - ----- ------ ---- --<br>-------- --- -------- -------- was -------- ---- -- ----- -<br>-------- ---- --- ---------- --------- -- ------- ------ -<br>--------- ----- -----,126630.52000000607,126629.85999998637,126597.528,126599.2349999724,126614.248,126647.534,,35,was
screen,html.Screen,1_3_0_1_36,2021-03-25T02:31:32.894Z,,,,,,,,,,,,,,,,15,,,,,,,,,,,,,,12.965999998137704,response,,,,7,C,,,,,Space,keypress(Space),,,,instrumental,,,,---- --------- ---------- - --- ------- -- --- ------------<br>----- -- -------- ------- ---- ------ - -------- ---- -----<br>--- ------- ---- -- --- -------- --- - ----- ------ ---- --<br>-------- --- -------- -------- --- released ---- -- ----- -<br>-------- ---- --- ---------- --------- -- ------- ------ -<br>--------- ----- -----,126661.16499999771,126660.49999999814,126630.901,126630.70999999763,126647.534,126680.967,,36,released
screen,html.Screen,1_3_0_1_37,2021-03-25T02:31:32.940Z,,,,,,,,,,,,,,,,15,,,,,,,,,,,,,,26.462999951269012,response,,,,7,C,,,,,Space,keypress(Space),,,,instrumental,,,,---- --------- ---------- - --- ------- -- --- ------------<br>----- -- -------- ------- ---- ------ - -------- ---- -----<br>--- ------- ---- -- --- -------- --- - ----- ------ ---- --<br>-------- --- -------- -------- --- -------- July -- ----- -<br>-------- ---- --- ---------- --------- -- ------- ------ -<br>--------- ----- -----,126708.08999997098,126707.42999995127,126664.183,126661.35999996914,126680.967,126714.118,,37,July
screen,html.Screen,1_3_0_1_38,2021-03-25T02:31:32.971Z,,,,,,,,,,,,,,,,15,,,,,,,,,,,,,,24.166999970344477,response,,,,7,C,,,,,Space,keypress(Space),,,,instrumental,,,,---- --------- ---------- - --- ------- -- --- ------------<br>----- -- -------- ------- ---- ------ - -------- ---- -----<br>--- ------- ---- -- --- -------- --- - ----- ------ ---- --<br>-------- --- -------- -------- --- -------- ---- 20 ----- -<br>-------- ---- --- ---------- --------- -- ------- ------ -<br>--------- ----- -----,126738.96499996772,126738.28499997035,126697.604,126708.28500000061,126714.118,126747.562,,38,20
screen,html.Screen,1_3_0_1_39,2021-03-25T02:31:33.003Z,,,,,,,,,,,,,,,,15,,,,,,,,,,,,,,22.13800000437186,response,,,,7,C,,,,,Space,keypress(Space),,,,instrumental,,,,---- --------- ---------- - --- ------- -- --- ------------<br>----- -- -------- ------- ---- ------ - -------- ---- -----<br>--- ------- ---- -- --- -------- --- - ----- ------ ---- --<br>-------- --- -------- -------- --- -------- ---- -- after -<br>-------- ---- --- ---------- --------- -- ------- ------ -<br>--------- ----- -----,126770.33999998821,126769.70000000438,126730.994,126739.15999999736,126747.562,126781.028,,39,after
screen,html.Screen,1_3_0_1_40,2021-03-25T02:31:33.033Z,,,,,,,,,,,,,,,,15,,,,,,,,,,,,,,18.741999983249116,response,,,,7,C,,,,,Space,keypress(Space),,,,instrumental,,,,---- --------- ---------- - --- ------- -- --- ------------<br>----- -- -------- ------- ---- ------ - -------- ---- -----<br>--- ------- ---- -- --- -------- --- - ----- ------ ---- --<br>-------- --- -------- -------- --- -------- ---- -- ----- a<br>-------- ---- --- ---------- --------- -- ------- ------ -<br>--------- ----- -----,126800.4699999583,126799.76999998325,126764.318,126770.53999999771,126781.028,126814.333,,40,a
screen,html.Screen,1_3_0_1_41,2021-03-25T02:31:33.064Z,,,,,,,,,,,,,,,,15,,,,,,,,,,,,,,16.156999963903218,response,,,,7,C,,,,,Space,keypress(Space),,,,instrumental,,,,---- --------- ---------- - --- ------- -- --- ------------<br>----- -- -------- ------- ---- ------ - -------- ---- -----<br>--- ------- ---- -- --- -------- --- - ----- ------ ---- --<br>-------- --- -------- -------- --- -------- ---- -- ----- -<br>two-week ---- --- ---------- --------- -- ------- ------ -<br>--------- ----- -----,126831.1349999858,126830.4899999639,126797.666,126800.6699999678,126814.333,126847.737,,41,two-week
