sender,sender_type,sender_id,timestamp,meta,,Blues,Classical,Country,Dance,Electronic,Folk,Gospel,Hip-Hop,Jazz,Latin,Musical/Film,New-age,Pop,Provo_ID,R&B,Rap,Reggae,Religious,Rock,Soul,Swing,Traditional,age,artist_name,correct,correctResponse,distraction,duration,education,ended_on,familiarity,gender,headphone_check_performance,item,list,music_frequency,offensiveness,pleasantness,position_correct,preference,response,response_action,snippet_file,song_name,song_rating,sound,stimulus_1,stimulus_2,stimulus_3,text,time_commit,time_end,time_render,time_run,time_show,time_switch,url,word,word_ID
Introduction,html.Screen,0_0,2021-04-27T19:29:14.121Z,"{""labjs_version"":""20.2.2"",""labjs_build"":{""flavor"":""production"",""commit"":""a25486e0c714a0ae2ce03ff94b7bb6896854dcfa""},""location"":""https://run.pavlovia.org/mvasilev/music_a/"",""userAgent"":""Mozilla/5.0 (Macintosh; Intel Mac OS X 11_2_1) AppleWebKit/537.36 (KHTML, like Gecko) Chrome/89.0.4389.90 Safari/537.36"",""platform"":""MacIntel"",""language"":""en-GB"",""locale"":""en-GB"",""timeZone"":""Europe/London"",""timezoneOffset"":-60,""screen_width"":1280,""screen_height"":800,""scroll_width"":1280,""scroll_height"":616,""window_innerWidth"":1280,""window_innerHeight"":664,""devicePixelRatio"":2}",,,,,,,,,,,,,,,,,,,,,,,,,,,,,51374.88400002582,,response,,,,,,,,,,,continue,click button,,,,,,,,,76409.04000005685,76404.22000002582,24979.317,24988.08999999892,25029.336,76412.573,{},,
Volume calibration,html.Screen,0_1,2021-04-27T19:30:12.818Z,,,,,,,,,,,,,,,,,,,,,,,,,,,,,,58682.46200000573,,response,,,,,,,,,,,continue,click button,,,,,,,,,135104.94500002824,135095.03500000574,76395.9,76409.56000005826,76412.573,135113.661,,,
Task instructions,html.Screen,0_2,2021-04-27T19:30:29.181Z,,,,,,,,,,,,,,,,,,,,,,,,,,,,,,16350.459000018745,,response,,,,,,,,,,,continue,click button,,,,,,,,,151467.41000004113,151464.12000001874,135096.988,135105.135000078,135113.661,151475.785,,,
Sounds,html.Screen,0_3_0_0,2021-04-27T19:30:33.429Z,,,,,,,,,,,,,,,,,,,,,,,,,,,,,,4251.614999999991,,timeout,,,,,,,,,3,,,,,,,,I,O,S,,155715.58000007644,155710.727,151459.112,151467.8449999774,151475.785,155727.4,,,
Judgement,html.Screen,0_3_0_1,2021-04-27T19:30:35.463Z,,,,,,,,,,,,,,,,,,,,,,,,,,,true,3,,2017.8800000319316,,response,,,,,,,,,3,,3,click #choice-3,,,,,I,O,S,,157748.84500005282,157745.28000003193,155710.727,155715.8599999966,155727.4,157761.506,,,
Trial,flow.Sequence,0_3_0,2021-04-27T19:30:35.463Z,,,,,,,,,,,,,,,,,,,,,,,,,,,,,,6269.495000031922,,completion,,,,,,,,,3,,,,,,,,I,O,S,,157749.46500000078,157745.28000003193,151459.112,151467.73500007112,151475.785,157761.506,,,
Sounds,html.Screen,0_3_1_0,2021-04-27T19:30:39.714Z,,,,,,,,,,,,,,,,,,,,,,,,,,,,,,4251.61500000002,,timeout,,,,,,,,,2,,,,,,,,I,S,O,,161999.70000004396,161996.448,157744.833,157749.7399999993,157761.506,162013.121,,,
Judgement,html.Screen,0_3_1_1,2021-04-27T19:30:43.380Z,,,,,,,,,,,,,,,,,,,,,,,,,,,true,2,,3649.8089999913063,,response,,,,,,,,,2,,2,click #choice-2,,,,,I,S,O,,165666.29500000272,165662.92999999132,161996.448,161999.93000004906,162013.121,165682.443,,,
Trial,flow.Sequence,0_3_1,2021-04-27T19:30:43.381Z,,,,,,,,,,,,,,,,,,,,,,,,,,,,,,7901.423999991326,,completion,,,,,,,,,2,,,,,,,,I,S,O,,165666.65500006638,165662.92999999132,157744.833,157749.6599999722,157761.506,165682.443,,,
Sounds,html.Screen,0_3_2_0,2021-04-27T19:30:47.635Z,,,,,,,,,,,,,,,,,,,,,,,,,,,,,,4251.614999999991,,timeout,,,,,,,,,1,,,,,,,,S,I,O,,169920.33500003163,169917.385,165665.77,165666.9150000671,165682.443,169934.058,,,
Judgement,html.Screen,0_3_2_1,2021-04-27T19:30:48.593Z,,,,,,,,,,,,,,,,,,,,,,,,,,,true,1,,941.0870000563737,,response,,,,,,,,,1,,1,click #choice-1,,,,,S,I,O,,170878.63000005018,170875.14500005636,169917.385,169920.53500004113,169934.058,170884.419,,,
Trial,flow.Sequence,0_3_2,2021-04-27T19:30:48.593Z,,,,,,,,,,,,,,,,,,,,,,,,,,,,,,5192.702000056364,,completion,,,,,,,,,1,,,,,,,,S,I,O,,170879.03499999084,170875.14500005636,165665.77,165666.83500004,165682.443,170884.419,,,
Sounds,html.Screen,0_3_3_0,2021-04-27T19:30:52.836Z,,,,,,,,,,,,,,,,,,,,,,,,,,,,,,4251.61500000002,,timeout,,,,,,,,,3,,,,,,,,O,I,S,,175121.3749999879,175119.361,170867.746,170879.43500000983,170884.419,175136.034,,,
Judgement,html.Screen,0_3_3_1,2021-04-27T19:30:53.530Z,,,,,,,,,,,,,,,,,,,,,,,,,,,true,3,,675.9710000725172,,response,,,,,,,,,3,,3,click #choice-3,,,,,O,I,S,,175815.6799999997,175812.00500007253,175119.361,175121.53500004206,175136.034,175830.181,,,
Trial,flow.Sequence,0_3_3,2021-04-27T19:30:53.530Z,,,,,,,,,,,,,,,,,,,,,,,,,,,,,,4927.586000072537,,completion,,,,,,,,,3,,,,,,,,O,I,S,,175815.99999999162,175812.00500007253,170867.746,170879.3350000633,170884.419,175830.181,,,
Sounds,html.Screen,0_3_4_0,2021-04-27T19:30:57.783Z,,,,,,,,,,,,,,,,,,,,,,,,,,,,,,4251.614999999991,,timeout,,,,,,,,,1,,,,,,,,S,O,I,,180067.9699999746,180065.123,175813.508,175816.2050000392,175830.181,180081.796,,,
Judgement,html.Screen,0_3_4_1,2021-04-27T19:30:58.435Z,,,,,,,,,,,,,,,,,,,,,,,,,,,true,1,,635.6140000411251,,response,,,,,,,,,1,,1,click #choice-1,,,,,S,O,I,,180720.8850000752,180717.41000004113,180065.123,180068.17500002217,180081.796,180732.043,,,
Trial,flow.Sequence,0_3_4,2021-04-27T19:30:58.436Z,,,,,,,,,,,,,,,,,,,,,,,,,,,,,,4887.229000041116,,completion,,,,,,,,,1,,,,,,,,S,O,I,,180721.19499999098,180717.41000004113,175813.508,175816.14500004798,175830.181,180732.043,,,
Sounds,html.Screen,0_3_5_0,2021-04-27T19:31:02.683Z,,,,,,,,,,,,,,,,,,,,,,,,,,,,,,4251.614999999991,,timeout,,,,,,,,,2,,,,,,,,O,S,I,,184968.18500000518,184966.985,180715.37,180721.39500000048,180732.043,184983.658,,,
Judgement,html.Screen,0_3_5_1,2021-04-27T19:31:03.300Z,,,,,,,,,,,,,,,,,,,,,,,,,,,true,2,,598.4470000377041,,response,,,,,,,,,2,,2,click #choice-2,,,,,O,S,I,,185585.74999996927,185582.1050000377,184966.985,184968.37500005495,184983.658,185589.075,,,
Trial,flow.Sequence,0_3_5,2021-04-27T19:31:03.301Z,,,,,,,,,,,,,,,,,,,,,,,,,,,,,,4850.062000037695,,completion,,,,,,,,,2,,,,,,,,O,S,I,,185586.05000004172,185582.1050000377,180715.37,180721.33500000928,180732.043,185589.075,,,
Task,flow.Loop,0_3,2021-04-27T19:31:03.308Z,,,,,,,,,,,,,,,,,,,,,,,,,,,,,,34106.3200000377,,completion,,,1,,,,,,,,,,,,,,,,,,185593.6900000088,185582.1050000377,151459.112,151467.6299999701,151475.785,185589.075,,,
Trap,html.Screen,0_4,2021-04-27T19:31:03.310Z,,,,,,,,,,,,,,,,,,,,,,,,,,,,,,NaN,,skipped,,,,,,,,,,,,,,,,,,,,,185595.22000001743,185582.1050000377,,185595.06500000134,,185589.075,,,
Thanks,html.Screen,0_5,2021-04-27T19:31:06.896Z,,,,,,,,,,,,,,,,,,,,,,,,,,,,,,3588.7449999825913,,response,,,,,,,,,,,continue,click button,,,,,,,,,189181.5400000196,189177.8199999826,185572.402,185595.44499998447,185589.075,194792.571,,,
Headphone screening,flow.Sequence,0,2021-04-27T19:31:06.897Z,,,,,,,,,,,,,,,,,,,,,,,,,,,,,,164148.4839999826,,completion,,,,,,,,,,,,,,,,,,,,,189181.8600000115,189177.8199999826,24979.317,24987.960000056773,25029.336,194792.571,,,
Instructions,html.Page,1_0,2021-04-27T19:31:49.659Z,,,,,,,,,,,,,,,,,,,,,,,,,,,,,,37150.16400004784,,form submission,,,,,,,,,,,,,,,,,,,,,231943.02500004414,231942.73500004783,194775.898,194782.5750000775,194792.571,231940.218,,,
Holding screen,html.Screen,1_1_0_0,2021-04-27T19:31:59.646Z,,,,,,,,,,,,,,,,,,,,,,,,,,,,,,10003.800000000017,,timeout,,,,,,,,,,,,,,,,,,,,,241929.4350000564,241927.345,231923.545,231943.33500007633,231940.218,241944.018,,,
screen,html.Screen,1_1_0_1_0,2021-04-27T19:32:00.713Z,,,,,,,,,,,,,,,,53,,,,,,,,,,,,,,1042.3820000525157,,response,,,,99,,,,,,,Space,keypress(Space),,,,,,,,When -- ----- -- ------ - ------- --- ----------<br>------------- ------ ------ ---- ---- ------- ----- -- ----<br>-------- ------- -- ---------- --- - --- ----- ----- ----<br>---- --- --- ----- --- ---- ---- ------- ----- ---- -------<br>--- --- -- ----- -- --- ---- -- --- ---- -- ------ ------<br>--- ----- -- ----,242996.95000005886,242986.40000005253,241927.345,241929.75500004832,241944.018,243011.09,,0,When
screen,html.Screen,1_1_0_1_1,2021-04-27T19:32:01.562Z,,,,,,,,,,,,,,,,53,,,,,,,,,,,,,,827.9250000341272,,response,,,,99,,,,,,,Space,keypress(Space),,,,,,,,---- it ----- -- ------ - ------- --- ----------<br>------------- ------ ------ ---- ---- ------- ----- -- ----<br>-------- ------- -- ---------- --- - --- ----- ----- ----<br>---- --- --- ----- --- ---- ---- ------- ----- ---- -------<br>--- --- -- ----- -- --- ---- -- --- ---- -- ------ ------<br>--- ----- -- ----,243845.5800000811,243839.01500003412,242994.417,242997.18000006396,243011.09,243858.371,,1,it
screen,html.Screen,1_1_0_1_2,2021-04-27T19:32:02.375Z,,,,,,,,,,,,,,,,53,,,,,,,,,,,,,,793.4240000706923,,response,,,,99,,,,,,,Space,keypress(Space),,,,,,,,---- -- comes -- ------ - ------- --- ----------<br>------------- ------ ------ ---- ---- ------- ----- -- ----<br>-------- ------- -- ---------- --- - --- ----- ----- ----<br>---- --- --- ----- --- ---- ---- ------- ----- ---- -------<br>--- --- -- ----- -- --- ---- -- --- ---- -- ------ ------<br>--- ----- -- ----,244658.46499998588,244651.7950000707,243841.698,243845.76499997638,243858.371,244675.348,,2,comes
screen,html.Screen,1_1_0_1_3,2021-04-27T19:32:02.976Z,,,,,,,,,,,,,,,,53,,,,,,,,,,,,,,577.6970000194851,,response,,,,99,,,,,,,Space,keypress(Space),,,,,,,,---- -- ----- to ------ - ------- --- ----------<br>------------- ------ ------ ---- ---- ------- ----- -- ----<br>-------- ------- -- ---------- --- - --- ----- ----- ----<br>---- --- --- ----- --- ---- ---- ------- ----- ---- -------<br>--- --- -- ----- -- --- ---- -- --- ---- -- ------ ------<br>--- ----- -- ----,245259.2949999962,245253.04500001948,244658.675,244658.64999999758,244675.348,245275.576,,3,to
screen,html.Screen,1_1_0_1_4,2021-04-27T19:32:03.553Z,,,,,,,,,,,,,,,,53,,,,,,,,,,,,,,553.4540000226116,,response,,,,99,,,,,,,Space,keypress(Space),,,,,,,,---- -- ----- -- having - ------- --- ----------<br>------------- ------ ------ ---- ---- ------- ----- -- ----<br>-------- ------- -- ---------- --- - --- ----- ----- ----<br>---- --- --- ----- --- ---- ---- ------- ----- ---- -------<br>--- --- -- ----- -- --- ---- -- --- ---- -- ------ ------<br>--- ----- -- ----,245836.03000000585,245829.0300000226,245258.903,245259.4800000079,245275.576,245842.458,,4,having
screen,html.Screen,1_1_0_1_5,2021-04-27T19:32:03.937Z,,,,,,,,,,,,,,,,53,,,,,,,,,,,,,,371.51200004070415,,response,,,,99,,,,,,,Space,keypress(Space),,,,,,,,---- -- ----- -- ------ a ------- --- ----------<br>------------- ------ ------ ---- ---- ------- ----- -- ----<br>-------- ------- -- ---------- --- - --- ----- ----- ----<br>---- --- --- ----- --- ---- ---- ------- ----- ---- -------<br>--- --- -- ----- -- --- ---- -- --- ---- -- ------ ------<br>--- ----- -- ----,246220.22999997716,246213.97000004072,245825.785,245836.22499997728,245842.458,246225.937,,5,a
screen,html.Screen,1_1_0_1_6,2021-04-27T19:32:04.488Z,,,,,,,,,,,,,,,,53,,,,,,,,,,,,,,538.9979999846837,,response,,,,99,,,,,,,Space,keypress(Space),,,,,,,,---- -- ----- -- ------ - lasting --- ----------<br>------------- ------ ------ ---- ---- ------- ----- -- ----<br>-------- ------- -- ---------- --- - --- ----- ----- ----<br>---- --- --- ----- --- ---- ---- ------- ----- ---- -------<br>--- --- -- ----- -- --- ---- -- --- ---- -- ------ ------<br>--- ----- -- ----,246771.17500000168,246764.9349999847,246209.264,246220.4550000606,246225.937,246776.146,,6,lasting
screen,html.Screen,1_1_0_1_7,2021-04-27T19:32:05.261Z,,,,,,,,,,,,,,,,53,,,,,,,,,,,,,,761.7689999935101,,response,,,,99,,,,,,,Space,keypress(Space),,,,,,,,---- -- ----- -- ------ - ------- and ----------<br>------------- ------ ------ ---- ---- ------- ----- -- ----<br>-------- ------- -- ---------- --- - --- ----- ----- ----<br>---- --- --- ----- --- ---- ---- ------- ----- ---- -------<br>--- --- -- ----- -- --- ---- -- --- ---- -- ------ ------<br>--- ----- -- ----,247543.90000004787,247537.91499999352,246759.473,246771.36500005145,246776.146,247559.777,,7,and
screen,html.Screen,1_1_0_1_8,2021-04-27T19:32:05.970Z,,,,,,,,,,,,,,,,53,,,,,,,,,,,,,,687.1080000295769,,response,,,,99,,,,,,,Space,keypress(Space),,,,,,,,---- -- ----- -- ------ - ------- --- fulfilling<br>------------- ------ ------ ---- ---- ------- ----- -- ----<br>-------- ------- -- ---------- --- - --- ----- ----- ----<br>---- --- --- ----- --- ---- ---- ------- ----- ---- -------<br>--- --- -- ----- -- --- ---- -- --- ---- -- ------ ------<br>--- ----- -- ----,248253.4250000026,248246.88500002958,247543.104,247544.08999998122,247559.777,248260.043,,8,fulfilling
screen,html.Screen,1_1_0_1_9,2021-04-27T19:32:07.208Z,,,,,,,,,,,,,,,,53,,,,,,,,,,,,,,1224.8169999677339,,response,,,,99,,,,,,,Space,keypress(Space),,,,,,,,"---- -- ----- -- ------ - ------- --- ----------<br>relationship, ------ ------ ---- ---- ------- ----- -- ----<br>-------- ------- -- ---------- --- - --- ----- ----- ----<br>---- --- --- ----- --- ---- ---- ------- ----- ---- -------<br>--- --- -- ----- -- --- ---- -- --- ---- -- ------ ------<br>--- ----- -- ----",249491.48500000592,249484.85999996774,248243.37,248253.6100000143,248260.043,249493.845,,9,"relationship,"
screen,html.Screen,1_1_0_1_10,2021-04-27T19:32:08.349Z,,,,,,,,,,,,,,,,53,,,,,,,,,,,,,,1131.985000033601,,response,,,,99,,,,,,,Space,keypress(Space),,,,,,,,---- -- ----- -- ------ - ------- --- ----------<br>------------- common ------ ---- ---- ------- ----- -- ----<br>-------- ------- -- ---------- --- - --- ----- ----- ----<br>---- --- --- ----- --- ---- ---- ------- ----- ---- -------<br>--- --- -- ----- -- --- ---- -- --- ---- -- ------ ------<br>--- ----- -- ----,250632.02999997884,250625.8300000336,249477.172,249491.6750000557,249493.845,250644.282,,10,common
screen,html.Screen,1_1_0_1_11,2021-04-27T19:32:09.006Z,,,,,,,,,,,,,,,,53,,,,,,,,,,,,,,638.5180000445107,,response,,,,99,,,,,,,Space,keypress(Space),,,,,,,,---- -- ----- -- ------ - ------- --- ----------<br>------------- ------ wisdom ---- ---- ------- ----- -- ----<br>-------- ------- -- ---------- --- - --- ----- ----- ----<br>---- --- --- ----- --- ---- ---- ------- ----- ---- -------<br>--- --- -- ----- -- --- ---- -- --- ---- -- ------ ------<br>--- ----- -- ----,251289.08999997657,251282.80000004452,250627.609,250632.2200000286,250644.282,251294.529,,11,wisdom
screen,html.Screen,1_1_0_1_12,2021-04-27T19:32:09.832Z,,,,,,,,,,,,,,,,53,,,,,,,,,,,,,,813.0109999972337,,response,,,,99,,,,,,,Space,keypress(Space),,,,,,,,---- -- ----- -- ------ - ------- --- ----------<br>------------- ------ ------ says ---- ------- ----- -- ----<br>-------- ------- -- ---------- --- - --- ----- ----- ----<br>---- --- --- ----- --- ---- ---- ------- ----- ---- -------<br>--- --- -- ----- -- --- ---- -- --- ---- -- ------ ------<br>--- ----- -- ----,252115.01000006683,252107.53999999724,251277.856,251289.28000002634,251294.529,252128.179,,12,says
screen,html.Screen,1_1_0_1_13,2021-04-27T19:32:10.695Z,,,,,,,,,,,,,,,,53,,,,,,,,,,,,,,843.3410000209697,,response,,,,99,,,,,,,Space,keypress(Space),,,,,,,,---- -- ----- -- ------ - ------- --- ----------<br>------------- ------ ------ ---- that ------- ----- -- ----<br>-------- ------- -- ---------- --- - --- ----- ----- ----<br>---- --- --- ----- --- ---- ---- ------- ----- ---- -------<br>--- --- -- ----- -- --- ---- -- --- ---- -- ------ ------<br>--- ----- -- ----,252977.93000005186,252971.52000002097,252111.506,252115.57500006165,252128.179,252995.175,,13,that
screen,html.Screen,1_1_0_1_14,2021-04-27T19:32:11.294Z,,,,,,,,,,,,,,,,53,,,,,,,,,,,,,,574.6250000557047,,response,,,,99,,,,,,,Space,keypress(Space),,,,,,,,---- -- ----- -- ------ - ------- --- ----------<br>------------- ------ ------ ---- ---- feeling ----- -- ----<br>-------- ------- -- ---------- --- - --- ----- ----- ----<br>---- --- --- ----- --- ---- ---- ------- ----- ---- -------<br>--- --- -- ----- -- --- ---- -- --- ---- -- ------ ------<br>--- ----- -- ----,253576.93500001915,253569.8000000557,252978.502,252978.14000002109,252995.175,253595.197,,14,feeling
screen,html.Screen,1_1_0_1_15,2021-04-27T19:32:11.856Z,,,,,,,,,,,,,,,,53,,,,,,,,,,,,,,537.5529999897699,,response,,,,99,,,,,,,Space,keypress(Space),,,,,,,,---- -- ----- -- ------ - ------- --- ----------<br>------------- ------ ------ ---- ---- ------- close -- ----<br>-------- ------- -- ---------- --- - --- ----- ----- ----<br>---- --- --- ----- --- ---- ---- ------- ----- ---- -------<br>--- --- -- ----- -- --- ---- -- --- ---- -- ------ ------<br>--- ----- -- ----,254139.29500000086,254132.74999998976,253578.524,253577.14499998838,253595.197,254145.406,,15,close
screen,html.Screen,1_1_0_1_16,2021-04-27T19:32:12.332Z,,,,,,,,,,,,,,,,53,,,,,,,,,,,,,,463.27899998470093,,response,,,,99,,,,,,,Space,keypress(Space),,,,,,,,---- -- ----- -- ------ - ------- --- ----------<br>------------- ------ ------ ---- ---- ------- ----- to ----<br>-------- ------- -- ---------- --- - --- ----- ----- ----<br>---- --- --- ----- --- ---- ---- ------- ----- ---- -------<br>--- --- -- ----- -- --- ---- -- --- ---- -- ------ ------<br>--- ----- -- ----,254614.8599999724,254608.6849999847,254128.733,254139.51500004623,254145.406,254628.923,,16,to
screen,html.Screen,1_1_0_1_17,2021-04-27T19:32:12.811Z,,,,,,,,,,,,,,,,53,,,,,,,,,,,,,,458.7719999947003,,response,,,,99,,,,,,,Space,keypress(Space),,,,,,,,---- -- ----- -- ------ - ------- --- ----------<br>------------- ------ ------ ---- ---- ------- ----- -- your<br>-------- ------- -- ---------- --- - --- ----- ----- ----<br>---- --- --- ----- --- ---- ---- ------- ----- ---- -------<br>--- --- -- ----- -- --- ---- -- --- ---- -- ------ ------<br>--- ----- -- ----,255094.00500007905,255087.6949999947,254612.25,254615.08500005584,254628.923,255095.767,,17,your
screen,html.Screen,1_1_0_1_18,2021-04-27T19:32:13.394Z,,,,,,,,,,,,,,,,53,,,,,,,,,,,,,,574.7230000477284,,response,,,,99,,,,,,,Space,keypress(Space),,,,,,,,---- -- ----- -- ------ - ------- --- ----------<br>------------- ------ ------ ---- ---- ------- ----- -- ----<br>romantic ------- -- ---------- --- - --- ----- ----- ----<br>---- --- --- ----- --- ---- ---- ------- ----- ---- -------<br>--- --- -- ----- -- --- ---- -- --- ---- -- ------ ------<br>--- ----- -- ----,255677.21500003245,255670.49000004772,255079.094,255094.23000004608,255095.767,255679.322,,18,romantic
screen,html.Screen,1_1_0_1_19,2021-04-27T19:32:14.513Z,,,,,,,,,,,,,,,,53,,,,,,,,,,,,,,1110.3380000094767,,response,,,,99,,,,,,,Space,keypress(Space),,,,,,,,---- -- ----- -- ------ - ------- --- ----------<br>------------- ------ ------ ---- ---- ------- ----- -- ----<br>-------- partner -- ---------- --- - --- ----- ----- ----<br>---- --- --- ----- --- ---- ---- ------- ----- ---- -------<br>--- --- -- ----- -- --- ---- -- --- ---- -- ------ ------<br>--- ----- -- ----,256796.42500006594,256789.66000000946,255662.649,255677.42500000168,255679.322,256813.086,,19,partner
screen,html.Screen,1_1_0_1_20,2021-04-27T19:32:15.081Z,,,,,,,,,,,,,,,,53,,,,,,,,,,,,,,545.2890000689076,,response,,,,99,,,,,,,Space,keypress(Space),,,,,,,,---- -- ----- -- ------ - ------- --- ----------<br>------------- ------ ------ ---- ---- ------- ----- -- ----<br>-------- ------- is ---------- --- - --- ----- ----- ----<br>---- --- --- ----- --- ---- ---- ------- ----- ---- -------<br>--- --- -- ----- -- --- ---- -- --- ---- -- ------ ------<br>--- ----- -- ----,257364.47999998927,257358.37500006892,256796.413,256796.6299999971,256813.086,257379.968,,20,is
screen,html.Screen,1_1_0_1_21,2021-04-27T19:32:16.065Z,,,,,,,,,,,,,,,,53,,,,,,,,,,,,,,961.6170000456041,,response,,,,99,,,,,,,Space,keypress(Space),,,,,,,,---- -- ----- -- ------ - ------- --- ----------<br>------------- ------ ------ ---- ---- ------- ----- -- ----<br>-------- ------- -- paramount. --- - --- ----- ----- ----<br>---- --- --- ----- --- ---- ---- ------- ----- ---- -------<br>--- --- -- ----- -- --- ---- -- --- ---- -- ------ ------<br>--- ----- -- ----,258347.9900000384,258341.5850000456,257363.295,257364.67999999877,257379.968,258363.675,,21,paramount.
screen,html.Screen,1_1_0_1_22,2021-04-27T19:32:16.628Z,,,,,,,,,,,,,,,,53,,,,,,,,,,,,,,540.9150000492227,,response,,,,99,,,,,,,Space,keypress(Space),,,,,,,,---- -- ----- -- ------ - ------- --- ----------<br>------------- ------ ------ ---- ---- ------- ----- -- ----<br>-------- ------- -- ---------- But - --- ----- ----- ----<br>---- --- --- ----- --- ---- ---- ------- ----- ---- -------<br>--- --- -- ----- -- --- ---- -- --- ---- -- ------ ------<br>--- ----- -- ----,258910.67000001203,258904.5900000492,258347.002,258348.2050000457,258363.675,258913.884,,22,But
screen,html.Screen,1_1_0_1_23,2021-04-27T19:32:17.057Z,,,,,,,,,,,,,,,,53,,,,,,,,,,,,,,419.70600005294546,,response,,,,99,,,,,,,Space,keypress(Space),,,,,,,,---- -- ----- -- ------ - ------- --- ----------<br>------------- ------ ------ ---- ---- ------- ----- -- ----<br>-------- ------- -- ---------- --- a --- ----- ----- ----<br>---- --- --- ----- --- ---- ---- ------- ----- ---- -------<br>--- --- -- ----- -- --- ---- -- --- ---- -- ------ ------<br>--- ----- -- ----,259339.90000002086,259333.59000005294,258897.211,258910.8600000618,258913.884,259347.382,,23,a
screen,html.Screen,1_1_0_1_24,2021-04-27T19:32:17.486Z,,,,,,,,,,,,,,,,53,,,,,,,,,,,,,,415.1730000229727,,response,,,,99,,,,,,,Space,keypress(Space),,,,,,,,---- -- ----- -- ------ - ------- --- ----------<br>------------- ------ ------ ---- ---- ------- ----- -- ----<br>-------- ------- -- ---------- --- - new ----- ----- ----<br>---- --- --- ----- --- ---- ---- ------- ----- ---- -------<br>--- --- -- ----- -- --- ---- -- --- ---- -- ------ ------<br>--- ----- -- ----,259768.93999997992,259762.55500002299,259330.709,259340.10500006843,259347.382,259780.88,,24,new
screen,html.Screen,1_1_0_1_25,2021-04-27T19:32:17.911Z,,,,,,,,,,,,,,,,53,,,,,,,,,,,,,,406.55499997071456,,response,,,,99,,,,,,,Space,keypress(Space),,,,,,,,---- -- ----- -- ------ - ------- --- ----------<br>------------- ------ ------ ---- ---- ------- ----- -- ----<br>-------- ------- -- ---------- --- - --- study ----- ----<br>---- --- --- ----- --- ---- ---- ------- ----- ---- -------<br>--- --- -- ----- -- --- ---- -- --- ---- -- ------ ------<br>--- ----- -- ----,260193.6299999943,260187.43499997072,259764.207,259769.15000006557,259780.88,260197.705,,25,study
screen,html.Screen,1_1_0_1_26,2021-04-27T19:32:18.318Z,,,,,,,,,,,,,,,,53,,,,,,,,,,,,,,396.79500000653206,,response,,,,99,,,,,,,Space,keypress(Space),,,,,,,,---- -- ----- -- ------ - ------- --- ----------<br>------------- ------ ------ ---- ---- ------- ----- -- ----<br>-------- ------- -- ---------- --- - --- ----- finds ----<br>---- --- --- ----- --- ---- ---- ------- ----- ---- -------<br>--- --- -- ----- -- --- ---- -- --- ---- -- ------ ------<br>--- ----- -- ----,260600.5100000184,260594.50000000652,260181.032,260193.84000007994,260197.705,260614.53,,26,finds
screen,html.Screen,1_1_0_1_27,2021-04-27T19:32:18.785Z,,,,,,,,,,,,,,,,53,,,,,,,,,,,,,,447.75000007104245,,response,,,,99,,,,,,,Space,keypress(Space),,,,,,,,---- -- ----- -- ------ - ------- --- ----------<br>------------- ------ ------ ---- ---- ------- ----- -- ----<br>-------- ------- -- ---------- --- - --- ----- ----- that<br>---- --- --- ----- --- ---- ---- ------- ----- ---- -------<br>--- --- -- ----- -- --- ---- -- --- ---- -- ------ ------<br>--- ----- -- ----,261068.39500006754,261062.28000007104,260597.857,260600.7250000257,260614.53,261081.374,,27,that
screen,html.Screen,1_1_0_1_28,2021-04-27T19:32:19.278Z,,,,,,,,,,,,,,,,53,,,,,,,,,,,,,,473.12599996925564,,response,,,,99,,,,,,,Space,keypress(Space),,,,,,,,---- -- ----- -- ------ - ------- --- ----------<br>------------- ------ ------ ---- ---- ------- ----- -- ----<br>-------- ------- -- ---------- --- - --- ----- ----- ----<br>it's --- --- ----- --- ---- ---- ------- ----- ---- -------<br>--- --- -- ----- -- --- ---- -- --- ---- -- ------ ------<br>--- ----- -- ----,261560.6100000441,261554.49999996927,261064.701,261068.6149999965,261081.374,261564.891,,28,it's
screen,html.Screen,1_1_0_1_29,2021-04-27T19:32:19.693Z,,,,,,,,,,,,,,,,53,,,,,,,,,,,,,,404.44400003069313,,response,,,,99,,,,,,,Space,keypress(Space),,,,,,,,---- -- ----- -- ------ - ------- --- ----------<br>------------- ------ ------ ---- ---- ------- ----- -- ----<br>-------- ------- -- ---------- --- - --- ----- ----- ----<br>---- not --- ----- --- ---- ---- ------- ----- ---- -------<br>--- --- -- ----- -- --- ---- -- --- ---- -- ------ ------<br>--- ----- -- ----,261975.6800000323,261969.3350000307,261548.218,261560.82000001334,261564.891,261981.716,,29,not
screen,html.Screen,1_1_0_1_30,2021-04-27T19:32:20.077Z,,,,,,,,,,,,,,,,53,,,,,,,,,,,,,,371.738999974943,,response,,,,99,,,,,,,Space,keypress(Space),,,,,,,,---- -- ----- -- ------ - ------- --- ----------<br>------------- ------ ------ ---- ---- ------- ----- -- ----<br>-------- ------- -- ---------- --- - --- ----- ----- ----<br>---- --- how ----- --- ---- ---- ------- ----- ---- -------<br>--- --- -- ----- -- --- ---- -- --- ---- -- ------ ------<br>--- ----- -- ----,262359.70000003,262353.4549999749,261965.043,261975.90499999933,261981.716,262365.195,,30,how
screen,html.Screen,1_1_0_1_31,2021-04-27T19:32:20.584Z,,,,,,,,,,,,,,,,53,,,,,,,,,,,,,,495.27999999403255,,response,,,,99,,,,,,,Space,keypress(Space),,,,,,,,---- -- ----- -- ------ - ------- --- ----------<br>------------- ------ ------ ---- ---- ------- ----- -- ----<br>-------- ------- -- ---------- --- - --- ----- ----- ----<br>---- --- --- close --- ---- ---- ------- ----- ---- -------<br>--- --- -- ----- -- --- ---- -- --- ---- -- ------ ------<br>--- ----- -- ----,262866.8300000718,262860.47499999404,262348.522,262361.23999999836,262365.195,262882.058,,31,close
screen,html.Screen,1_1_0_1_32,2021-04-27T19:32:20.968Z,,,,,,,,,,,,,,,,53,,,,,,,,,,,,,,362.41700007225154,,response,,,,99,,,,,,,Space,keypress(Space),,,,,,,,---- -- ----- -- ------ - ------- --- ----------<br>------------- ------ ------ ---- ---- ------- ----- -- ----<br>-------- ------- -- ---------- --- - --- ----- ----- ----<br>---- --- --- ----- you ---- ---- ------- ----- ---- -------<br>--- --- -- ----- -- --- ---- -- --- ---- -- ------ ------<br>--- ----- -- ----,263250.48499996774,263244.47500007227,262865.385,262867.040000041,262882.058,263254.804,,32,you
screen,html.Screen,1_1_0_1_33,2021-04-27T19:32:21.331Z,,,,,,,,,,,,,,,,53,,,,,,,,,,,,,,352.66100000822917,,response,,,,99,,,,,,,Space,keypress(Space),,,,,,,,---- -- ----- -- ------ - ------- --- ----------<br>------------- ------ ------ ---- ---- ------- ----- -- ----<br>-------- ------- -- ---------- --- - --- ----- ----- ----<br>---- --- --- ----- --- feel ---- ------- ----- ---- -------<br>--- --- -- ----- -- --- ---- -- --- ---- -- ------ ------<br>--- ----- -- ----,263614.3650000449,263607.46500000823,263238.131,263250.6600000197,263254.804,263621.61,,33,feel
screen,html.Screen,1_1_0_1_34,2021-04-27T19:32:21.925Z,,,,,,,,,,,,,,,,53,,,,,,,,,,,,,,580.0800000162562,,response,,,,99,,,,,,,Space,keypress(Space),,,,,,,,---- -- ----- -- ------ - ------- --- ----------<br>------------- ------ ------ ---- ---- ------- ----- -- ----<br>-------- ------- -- ---------- --- - --- ----- ----- ----<br>---- --- --- ----- --- ---- that ------- ----- ---- -------<br>--- --- -- ----- -- --- ---- -- --- ---- -- ------ ------<br>--- ----- -- ----,264208.195000072,264201.69000001624,263604.937,263614.5399999805,263621.61,264221.838,,34,that
screen,html.Screen,1_1_0_1_35,2021-04-27T19:32:22.665Z,,,,,,,,,,,,,,,,53,,,,,,,,,,,,,,719.5820000465028,,response,,,,99,,,,,,,Space,keypress(Space),,,,,,,,---- -- ----- -- ------ - ------- --- ----------<br>------------- ------ ------ ---- ---- ------- ----- -- ----<br>-------- ------- -- ---------- --- - --- ----- ----- ----<br>---- --- --- ----- --- ---- ---- matters ----- ---- -------<br>--- --- -- ----- -- --- ---- -- --- ---- -- ------ ------<br>--- ----- -- ----,264947.82000000123,264941.4200000465,264205.165,264208.3799999673,264221.838,264955.45,,35,matters
screen,html.Screen,1_1_0_1_36,2021-04-27T19:32:23.197Z,,,,,,,,,,,,,,,,53,,,,,,,,,,,,,,517.4900000069174,,response,,,,99,,,,,,,Space,keypress(Space),,,,,,,,"---- -- ----- -- ------ - ------- --- ----------<br>------------- ------ ------ ---- ---- ------- ----- -- ----<br>-------- ------- -- ---------- --- - --- ----- ----- ----<br>---- --- --- ----- --- ---- ---- ------- most, ---- -------<br>--- --- -- ----- -- --- ---- -- --- ---- -- ------ ------<br>--- ----- -- ----",265479.89499999676,265472.9400000069,264938.777,264948.0050000129,264955.45,265488.986,,36,"most,"
screen,html.Screen,1_1_0_1_37,2021-04-27T19:32:23.604Z,,,,,,,,,,,,,,,,53,,,,,,,,,,,,,,391.4689999768161,,response,,,,99,,,,,,,Space,keypress(Space),,,,,,,,---- -- ----- -- ------ - ------- --- ----------<br>------------- ------ ------ ---- ---- ------- ----- -- ----<br>-------- ------- -- ---------- --- - --- ----- ----- ----<br>---- --- --- ----- --- ---- ---- ------- ----- it's -------<br>--- --- -- ----- -- --- ---- -- --- ---- -- ------ ------<br>--- ----- -- ----,265886.75000006333,265880.4549999768,265472.313,265480.0749999704,265488.986,265889.138,,37,it's
screen,html.Screen,1_1_0_1_38,2021-04-27T19:32:24.050Z,,,,,,,,,,,,,,,,53,,,,,,,,,,,,,,438.3320000183885,,response,,,,99,,,,,,,Space,keypress(Space),,,,,,,,---- -- ----- -- ------ - ------- --- ----------<br>------------- ------ ------ ---- ---- ------- ----- -- ----<br>-------- ------- -- ---------- --- - --- ----- ----- ----<br>---- --- --- ----- --- ---- ---- ------- ----- ---- whether<br>--- --- -- ----- -- --- ---- -- --- ---- -- ------ ------<br>--- ----- -- ----,266333.28000002075,266327.47000001837,265872.465,265886.935000075,265889.138,266339.309,,38,whether
screen,html.Screen,1_1_0_1_39,2021-04-27T19:32:24.410Z,,,,,,,,,,,,,,,,53,,,,,,,,,,,,,,347.0660000484204,,response,,,,99,,,,,,,Space,keypress(Space),,,,,,,,---- -- ----- -- ------ - ------- --- ----------<br>------------- ------ ------ ---- ---- ------- ----- -- ----<br>-------- ------- -- ---------- --- - --- ----- ----- ----<br>---- --- --- ----- --- ---- ---- ------- ----- ---- -------<br>you --- -- ----- -- --- ---- -- --- ---- -- ------ ------<br>--- ----- -- ----,266692.62500002515,266686.3750000484,266322.636,266333.46500003245,266339.309,266706.115,,39,you
screen,html.Screen,1_1_0_1_40,2021-04-27T19:32:24.717Z,,,,,,,,,,,,,,,,53,,,,,,,,,,,,,,287.2600000782404,,response,,,,99,,,,,,,Space,keypress(Space),,,,,,,,---- -- ----- -- ------ - ------- --- ----------<br>------------- ------ ------ ---- ---- ------- ----- -- ----<br>-------- ------- -- ---------- --- - --- ----- ----- ----<br>---- --- --- ----- --- ---- ---- ------- ----- ---- -------<br>--- are -- ----- -- --- ---- -- --- ---- -- ------ ------<br>--- ----- -- ----,266999.524999992,266993.37500007823,266689.442,266692.81000003684,266706.115,267006.229,,40,are
screen,html.Screen,1_1_0_1_41,2021-04-27T19:32:25.094Z,,,,,,,,,,,,,,,,53,,,,,,,,,,,,,,364.27599999896483,,response,,,,99,,,,,,,Space,keypress(Space),,,,,,,,---- -- ----- -- ------ - ------- --- ----------<br>------------- ------ ------ ---- ---- ------- ----- -- ----<br>-------- ------- -- ---------- --- - --- ----- ----- ----<br>---- --- --- ----- --- ---- ---- ------- ----- ---- -------<br>--- --- as ----- -- --- ---- -- --- ---- -- ------ ------<br>--- ----- -- ----,267376.79000000935,267370.50499999896,266989.556,266999.7100000037,267006.229,267389.708,,41,as
screen,html.Screen,1_1_0_1_42,2021-04-27T19:32:25.507Z,,,,,,,,,,,,,,,,53,,,,,,,,,,,,,,393.6220000056783,,response,,,,99,,,,,,,Space,keypress(Space),,,,,,,,---- -- ----- -- ------ - ------- --- ----------<br>------------- ------ ------ ---- ---- ------- ----- -- ----<br>-------- ------- -- ---------- --- - --- ----- ----- ----<br>---- --- --- ----- --- ---- ---- ------- ----- ---- -------<br>--- --- -- close -- --- ---- -- --- ---- -- ------ ------<br>--- ----- -- ----,267789.5000000717,267783.33000000566,267373.035,267379.2300000787,267389.708,267806.533,,42,close
screen,html.Screen,1_1_0_1_43,2021-04-27T19:32:25.929Z,,,,,,,,,,,,,,,,53,,,,,,,,,,,,,,398.7870000664261,,response,,,,99,,,,,,,Space,keypress(Space),,,,,,,,---- -- ----- -- ------ - ------- --- ----------<br>------------- ------ ------ ---- ---- ------- ----- -- ----<br>-------- ------- -- ---------- --- - --- ----- ----- ----<br>---- --- --- ----- --- ---- ---- ------- ----- ---- -------<br>--- --- -- ----- as --- ---- -- --- ---- -- ------ ------<br>--- ----- -- ----,268211.29000000656,268205.3200000664,267789.86,267789.70500000287,267806.533,268223.358,,43,as
screen,html.Screen,1_1_0_1_44,2021-04-27T19:32:26.330Z,,,,,,,,,,,,,,,,53,,,,,,,,,,,,,,382.96700005885214,,response,,,,99,,,,,,,Space,keypress(Space),,,,,,,,---- -- ----- -- ------ - ------- --- ----------<br>------------- ------ ------ ---- ---- ------- ----- -- ----<br>-------- ------- -- ---------- --- - --- ----- ----- ----<br>---- --- --- ----- --- ---- ---- ------- ----- ---- -------<br>--- --- -- ----- -- you ---- -- --- ---- -- ------ ------<br>--- ----- -- ----,268612.5999999931,268606.32500005886,268206.685,268211.4650000585,268223.358,268623.51,,44,you
screen,html.Screen,1_1_0_1_45,2021-04-27T19:32:26.741Z,,,,,,,,,,,,,,,,53,,,,,,,,,,,,,,393.7550000313204,,response,,,,99,,,,,,,Space,keypress(Space),,,,,,,,---- -- ----- -- ------ - ------- --- ----------<br>------------- ------ ------ ---- ---- ------- ----- -- ----<br>-------- ------- -- ---------- --- - --- ----- ----- ----<br>---- --- --- ----- --- ---- ---- ------- ----- ---- -------<br>--- --- -- ----- -- --- want -- --- ---- -- ------ ------<br>--- ----- -- ----,269024.1200000746,269017.26500003133,268606.837,268612.770000007,268623.51,269040.335,,45,want
screen,html.Screen,1_1_0_1_46,2021-04-27T19:32:27.138Z,,,,,,,,,,,,,,,,53,,,,,,,,,,,,,,373.780000050494,,response,,,,99,,,,,,,Space,keypress(Space),,,,,,,,---- -- ----- -- ------ - ------- --- ----------<br>------------- ------ ------ ---- ---- ------- ----- -- ----<br>-------- ------- -- ---------- --- - --- ----- ----- ----<br>---- --- --- ----- --- ---- ---- ------- ----- ---- -------<br>--- --- -- ----- -- --- ---- to --- ---- -- ------ ------<br>--- ----- -- ----,269420.35000002943,269414.1150000505,269023.662,269024.2899999721,269040.335,269423.814,,46,to
screen,html.Screen,1_1_0_1_47,2021-04-27T19:32:27.718Z,,,,,,,,,,,,,,,,53,,,,,,,,,,,,,,570.4260000290815,,response,,,,99,,,,,,,Space,keypress(Space),,,,,,,,"---- -- ----- -- ------ - ------- --- ----------<br>------------- ------ ------ ---- ---- ------- ----- -- ----<br>-------- ------- -- ---------- --- - --- ----- ----- ----<br>---- --- --- ----- --- ---- ---- ------- ----- ---- -------<br>--- --- -- ----- -- --- ---- -- be, ---- -- ------ ------<br>--- ----- -- ----",270000.4450000124,269994.2400000291,269407.141,269420.5250000814,269423.814,270007.369,,47,"be,"
screen,html.Screen,1_1_0_1_48,2021-04-27T19:32:28.097Z,,,,,,,,,,,,,,,,53,,,,,,,,,,,,,,365.99099996866425,,response,,,,99,,,,,,,Space,keypress(Space),,,,,,,,---- -- ----- -- ------ - ------- --- ----------<br>------------- ------ ------ ---- ---- ------- ----- -- ----<br>-------- ------- -- ---------- --- - --- ----- ----- ----<br>---- --- --- ----- --- ---- ---- ------- ----- ---- -------<br>--- --- -- ----- -- --- ---- -- --- even -- ------ ------<br>--- ----- -- ----,270379.7000000486,270373.35999996867,269990.696,270000.6200000644,270007.369,270390.848,,48,even
screen,html.Screen,1_1_0_1_49,2021-04-27T19:32:28.467Z,,,,,,,,,,,,,,,,53,,,,,,,,,,,,,,352.1820000123698,,response,,,,99,,,,,,,Space,keypress(Space),,,,,,,,---- -- ----- -- ------ - ------- --- ----------<br>------------- ------ ------ ---- ---- ------- ----- -- ----<br>-------- ------- -- ---------- --- - --- ----- ----- ----<br>---- --- --- ----- --- ---- ---- ------- ----- ---- -------<br>--- --- -- ----- -- --- ---- -- --- ---- if ------ ------<br>--- ----- -- ----,270749.2450000718,270743.03000001237,270374.175,270379.8700000625,270390.848,270757.654,,49,if
screen,html.Screen,1_1_0_1_50,2021-04-27T19:32:28.852Z,,,,,,,,,,,,,,,,53,,,,,,,,,,,,,,371.55600004282314,,response,,,,99,,,,,,,Space,keypress(Space),,,,,,,,---- -- ----- -- ------ - ------- --- ----------<br>------------- ------ ------ ---- ---- ------- ----- -- ----<br>-------- ------- -- ---------- --- - --- ----- ----- ----<br>---- --- --- ----- --- ---- ---- ------- ----- ---- -------<br>--- --- -- ----- -- --- ---- -- --- ---- -- that's ------<br>--- ----- -- ----,271135.1600000635,271129.2100000428,270740.981,270749.4299999671,270757.654,271141.133,,50,that's
screen,html.Screen,1_1_0_1_51,2021-04-27T19:32:29.289Z,,,,,,,,,,,,,,,,53,,,,,,,,,,,,,,424.14699998073047,,response,,,,99,,,,,,,Space,keypress(Space),,,,,,,,---- -- ----- -- ------ - ------- --- ----------<br>------------- ------ ------ ---- ---- ------- ----- -- ----<br>-------- ------- -- ---------- --- - --- ----- ----- ----<br>---- --- --- ----- --- ---- ---- ------- ----- ---- -------<br>--- --- -- ----- -- --- ---- -- --- ---- -- ------ really<br>--- ----- -- ----,271571.43500004895,271565.2799999807,271124.46,271135.3300000774,271141.133,271574.631,,51,really
screen,html.Screen,1_1_0_1_52,2021-04-27T19:32:29.767Z,,,,,,,,,,,,,,,,53,,,,,,,,,,,,,,468.3139999937848,,response,,,,99,,,,,,,Space,keypress(Space),,,,,,,,---- -- ----- -- ------ - ------- --- ----------<br>------------- ------ ------ ---- ---- ------- ----- -- ----<br>-------- ------- -- ---------- --- - --- ----- ----- ----<br>---- --- --- ----- --- ---- ---- ------- ----- ---- -------<br>--- --- -- ----- -- --- ---- -- --- ---- -- ------ ------<br>not ----- -- ----,272049.3499999866,272042.9449999938,271557.958,271571.60500006285,271574.631,272058.148,,52,not
screen,html.Screen,1_1_0_1_53,2021-04-27T19:32:30.245Z,,,,,,,,,,,,,,,,53,,,,,,,,,,,,,,463.0869999928982,,response,,,,99,,,,,,,Space,keypress(Space),,,,,,,,---- -- ----- -- ------ - ------- --- ----------<br>------------- ------ ------ ---- ---- ------- ----- -- ----<br>-------- ------- -- ---------- --- - --- ----- ----- ----<br>---- --- --- ----- --- ---- ---- ------- ----- ---- -------<br>--- --- -- ----- -- --- ---- -- --- ---- -- ------ ------<br>--- close -- ----,272527.7299999725,272521.2349999929,272041.475,272049.4750000071,272058.148,272541.665,,53,close
screen,html.Screen,1_1_0_1_54,2021-04-27T19:32:30.753Z,,,,,,,,,,,,,,,,53,,,,,,,,,,,,,,487.5049999943585,,response,,,,99,,,,,,,Space,keypress(Space),,,,,,,,---- -- ----- -- ------ - ------- --- ----------<br>------------- ------ ------ ---- ---- ------- ----- -- ----<br>-------- ------- -- ---------- --- - --- ----- ----- ----<br>---- --- --- ----- --- ---- ---- ------- ----- ---- -------<br>--- --- -- ----- -- --- ---- -- --- ---- -- ------ ------<br>--- ----- at ----,273035.4400000069,273029.16999999434,272524.992,272527.89500006475,272541.665,273041.855,,54,at
screen,html.Screen,1_1_0_1_55,2021-04-27T19:32:31.409Z,,,,,,,,,,,,,,,,53,,,,,,,,,,,,,,642.3000000244938,,response,,,,99,,,,,,,Space,keypress(Space),,,,,,,,---- -- ----- -- ------ - ------- --- ----------<br>------------- ------ ------ ---- ---- ------- ----- -- ----<br>-------- ------- -- ---------- --- - --- ----- ----- ----<br>---- --- --- ----- --- ---- ---- ------- ----- ---- -------<br>--- --- -- ----- -- --- ---- -- --- ---- -- ------ ------<br>--- ----- -- all.,273691.3450000575,273684.1550000245,273025.182,273035.6100000208,273041.855,273707.499,,55,all.
Item 99,flow.Loop,1_1_0_1,2021-04-27T19:32:31.409Z,,,,,,,,,,,,,,,,,,,,,,,,,,,,,,31740.137000024464,,completion,,,,,A,,,,,,,,,,,silence,,,,,273691.7100000428,273684.1550000245,241927.345,241929.67500002123,241944.018,273707.499,,,
Question 1,html.Screen,1_1_0_2,2021-04-27T19:32:36.426Z,,,,,,,,,,,,,,,,,,,,,,,,,,,true,FALSE,,4997.245999995444,,response,,,,99,A,,,,,,FALSE,click #choice-2,,,,silence,,,,,278708.17500003614,278704.74499999546,273690.826,273692.29999999516,273707.499,278726.072,,,
Question 2,html.Screen,1_1_0_3,2021-04-27T19:32:42.663Z,,,,,,,,,,,,,,,,,,,,,,,,,,,true,TRUE,,6216.113000050827,,response,,,,99,A,,,,,,TRUE,click #choice-1,,,,silence,,,,,284944.86499996856,284942.1850000508,278709.399,278708.3649999695,278726.072,284948.711,,,
Item 99,flow.Sequence,1_1_0,2021-04-27T19:32:42.663Z,,,,,,,,,,,,,,,,,,,,,,,,,,,,,,53001.96700005082,,completion,,,,,,,,,,,,,,,,,,,,,284945.0250000227,284942.1850000508,231923.545,231943.30000004265,231940.218,284948.711,,,
Holding screen,html.Screen,1_1_1_0,2021-04-27T19:32:52.656Z,,,,,,,,,,,,,,,,,,,,,,,,,,,,,,10004.289999999979,,timeout,,,,,,,,,,,,,,,,,,,,,294938.1150000263,294936.328,284932.038,284945.1350000454,284948.711,294953.001,,,
screen,html.Screen,1_1_1_1_0,2021-04-27T19:32:53.514Z,,,,,,,,,,,,,,,,54,,,,,,,,,,,,,,835.5989999707672,,response,,,,100,,,,,,,Space,keypress(Space),,,,,,,,At --- ---- --- ------ ----- ------- ---- -- --- ------- --<br>------- ---------- ------ -- ----- -- ----- -- ---- ------<br>--- ----- --- --- ------ -------- ----- --- ------ ----- --<br>----- ----- ---------- --- --- ------ ------ ---- -- ------<br>------- --- ------ ----- --- ---- ------- -- ---- --- --<br>------- ------,295796.325000003,295788.59999997076,294936.328,294938.38499998674,294953.001,295803.324,,0,At
screen,html.Screen,1_1_1_1_1,2021-04-27T19:32:54.376Z,,,,,,,,,,,,,,,,54,,,,,,,,,,,,,,848.1610000384971,,response,,,,100,,,,,,,Space,keypress(Space),,,,,,,,-- the ---- --- ------ ----- ------- ---- -- --- ------- --<br>------- ---------- ------ -- ----- -- ----- -- ---- ------<br>--- ----- --- --- ------ -------- ----- --- ------ ----- --<br>----- ----- ---------- --- --- ------ ------ ---- -- ------<br>------- --- ------ ----- --- ---- ------- -- ---- --- --<br>------- ------,296657.6600000262,296651.4850000385,295786.651,295796.5199999744,295803.324,296670.32,,1,the
screen,html.Screen,1_1_1_1_2,2021-04-27T19:32:54.988Z,,,,,,,,,,,,,,,,54,,,,,,,,,,,,,,593.2050000748714,,response,,,,100,,,,,,,Space,keypress(Space),,,,,,,,-- --- time --- ------ ----- ------- ---- -- --- ------- --<br>------- ---------- ------ -- ----- -- ----- -- ---- ------<br>--- ----- --- --- ------ -------- ----- --- ------ ----- --<br>----- ----- ---------- --- --- ------ ------ ---- -- ------<br>------- --- ------ ----- --- ---- ------- -- ---- --- --<br>------- ------,297269.65999999084,297263.5250000749,296653.647,296657.9899999779,296670.32,297287.221,,2,time
screen,html.Screen,1_1_1_1_3,2021-04-27T19:32:55.476Z,,,,,,,,,,,,,,,,54,,,,,,,,,,,,,,464.28899997274857,,response,,,,100,,,,,,,Space,keypress(Space),,,,,,,,-- --- ---- the ------ ----- ------- ---- -- --- ------- --<br>------- ---------- ------ -- ----- -- ----- -- ---- ------<br>--- ----- --- --- ------ -------- ----- --- ------ ----- --<br>----- ----- ---------- --- --- ------ ------ ---- -- ------<br>------- --- ------ ----- --- ---- ------- -- ---- --- --<br>------- ------,297757.4950000271,297751.50999997277,297270.548,297269.84500000253,297287.221,297770.738,,3,the
screen,html.Screen,1_1_1_1_4,2021-04-27T19:32:56.101Z,,,,,,,,,,,,,,,,54,,,,,,,,,,,,,,605.7869999705581,,response,,,,100,,,,,,,Space,keypress(Space),,,,,,,,-- --- ---- --- French ----- ------- ---- -- --- ------- --<br>------- ---------- ------ -- ----- -- ----- -- ---- ------<br>--- ----- --- --- ------ -------- ----- --- ------ ----- --<br>----- ----- ---------- --- --- ------ ------ ---- -- ------<br>------- --- ------ ----- --- ---- ------- -- ---- --- --<br>------- ------,298382.5250000227,298376.52499997057,297754.065,297757.665000041,297770.738,298387.639,,4,French
screen,html.Screen,1_1_1_1_5,2021-04-27T19:32:56.759Z,,,,,,,,,,,,,,,,54,,,,,,,,,,,,,,646.6410000216565,,response,,,,100,,,,,,,Space,keypress(Space),,,,,,,,-- --- ---- --- ------ crown ------- ---- -- --- ------- --<br>------- ---------- ------ -- ----- -- ----- -- ---- ------<br>--- ----- --- --- ------ -------- ----- --- ------ ----- --<br>----- ----- ---------- --- --- ------ ------ ---- -- ------<br>------- --- ------ ----- --- ---- ------- -- ---- --- --<br>------- ------,299040.5800000299,299034.2800000217,298370.966,298382.7000000747,298387.639,299054.559,,5,crown
screen,html.Screen,1_1_1_1_6,2021-04-27T19:32:57.460Z,,,,,,,,,,,,,,,,54,,,,,,,,,,,,,,680.9360000299057,,response,,,,100,,,,,,,Space,keypress(Space),,,,,,,,-- --- ---- --- ------ ----- secured ---- -- --- ------- --<br>------- ---------- ------ -- ----- -- ----- -- ---- ------<br>--- ----- --- --- ------ -------- ----- --- ------ ----- --<br>----- ----- ---------- --- --- ------ ------ ---- -- ------<br>------- --- ------ ----- --- ---- ------- -- ---- --- --<br>------- ------,299741.5800000308,299735.4950000299,299037.886,299040.7500000438,299054.559,299754.825,,6,secured
screen,html.Screen,1_1_1_1_7,2021-04-27T19:32:57.922Z,,,,,,,,,,,,,,,,54,,,,,,,,,,,,,,442.6450000136974,,response,,,,100,,,,,,,Space,keypress(Space),,,,,,,,-- --- ---- --- ------ ----- ------- much -- --- ------- --<br>------- ---------- ------ -- ----- -- ----- -- ---- ------<br>--- ----- --- --- ------ -------- ----- --- ------ ----- --<br>----- ----- ---------- --- --- ------ ------ ---- -- ------<br>------- --- ------ ----- --- ---- ------- -- ---- --- --<br>------- ------,300203.85499997064,300197.4700000137,299738.152,299741.75499996636,299754.825,300221.669,,7,much
screen,html.Screen,1_1_1_1_8,2021-04-27T19:32:58.357Z,,,,,,,,,,,,,,,,54,,,,,,,,,,,,,,410.80599999125116,,response,,,,100,,,,,,,Space,keypress(Space),,,,,,,,-- --- ---- --- ------ ----- ------- ---- of --- ------- --<br>------- ---------- ------ -- ----- -- ----- -- ---- ------<br>--- ----- --- --- ------ -------- ----- --- ------ ----- --<br>----- ----- ---------- --- --- ------ ------ ---- -- ------<br>------- --- ------ ----- --- ---- ------- -- ---- --- --<br>------- ------,300638.74500000384,300632.47499999125,300204.996,300204.02499998454,300221.669,300655.167,,8,of
screen,html.Screen,1_1_1_1_9,2021-04-27T19:32:58.840Z,,,,,,,,,,,,,,,,54,,,,,,,,,,,,,,460.2380000477424,,response,,,,100,,,,,,,Space,keypress(Space),,,,,,,,-- --- ---- --- ------ ----- ------- ---- -- its ------- --<br>------- ---------- ------ -- ----- -- ----- -- ---- ------<br>--- ----- --- --- ------ -------- ----- --- ------ ----- --<br>----- ----- ---------- --- --- ------ ------ ---- -- ------<br>------- --- ------ ----- --- ---- ------- -- ---- --- --<br>------- ------,301121.78000004496,301115.40500004776,300638.494,300638.90999997966,300655.167,301138.684,,9,its
screen,html.Screen,1_1_1_1_10,2021-04-27T19:32:59.399Z,,,,,,,,,,,,,,,,54,,,,,,,,,,,,,,535.7210000561317,,response,,,,100,,,,,,,Space,keypress(Space),,,,,,,,-- --- ---- --- ------ ----- ------- ---- -- --- revenue --<br>------- ---------- ------ -- ----- -- ----- -- ---- ------<br>--- ----- --- --- ------ -------- ----- --- ------ ----- --<br>----- ----- ---------- --- --- ------ ------ ---- -- ------<br>------- --- ------ ----- --- ---- ------- -- ---- --- --<br>------- ------,301680.79500005115,301674.40500005614,301122.011,301121.9450000208,301138.684,301688.893,,10,revenue
screen,html.Screen,1_1_1_1_11,2021-04-27T19:32:59.894Z,,,,,,,,,,,,,,,,54,,,,,,,,,,,,,,480.41700002661673,,response,,,,100,,,,,,,Space,keypress(Space),,,,,,,,-- --- ---- --- ------ ----- ------- ---- -- --- ------- by<br>------- ---------- ------ -- ----- -- ----- -- ---- ------<br>--- ----- --- --- ------ -------- ----- --- ------ ----- --<br>----- ----- ---------- --- --- ------ ------ ---- -- ------<br>------- --- ------ ----- --- ---- ------- -- ---- --- --<br>------- ------,302175.61500007287,302169.3100000266,301672.22,301680.960000027,301688.893,302189.083,,11,by
screen,html.Screen,1_1_1_1_12,2021-04-27T19:33:00.810Z,,,,,,,,,,,,,,,,54,,,,,,,,,,,,,,896.2419999927515,,response,,,,100,,,,,,,Space,keypress(Space),,,,,,,,-- --- ---- --- ------ ----- ------- ---- -- --- ------- --<br>issuing ---------- ------ -- ----- -- ----- -- ---- ------<br>--- ----- --- --- ------ -------- ----- --- ------ ----- --<br>----- ----- ---------- --- --- ------ ------ ---- -- ------<br>------- --- ------ ----- --- ---- ------- -- ---- --- --<br>------- ------,303091.8100000126,303085.32499999274,302172.41,302175.7800000487,302189.083,303106.098,,12,issuing
screen,html.Screen,1_1_1_1_13,2021-04-27T19:33:02.087Z,,,,,,,,,,,,,,,,54,,,,,,,,,,,,,,1256.2820000641514,,response,,,,100,,,,,,,Space,keypress(Space),,,,,,,,-- --- ---- --- ------ ----- ------- ---- -- --- ------- --<br>------- government ------ -- ----- -- ----- -- ---- ------<br>--- ----- --- --- ------ -------- ----- --- ------ ----- --<br>----- ----- ---------- --- --- ------ ------ ---- -- ------<br>------- --- ------ ----- --- ---- ------- -- ---- --- --<br>------- ------,304368.75500006136,304362.38000006415,303089.425,303092.0150000602,303106.098,304373.246,,13,government
screen,html.Screen,1_1_1_1_14,2021-04-27T19:33:02.746Z,,,,,,,,,,,,,,,,54,,,,,,,,,,,,,,648.0939999775146,,response,,,,100,,,,,,,Space,keypress(Space),,,,,,,,-- --- ---- --- ------ ----- ------- ---- -- --- ------- --<br>------- ---------- bonds. -- ----- -- ----- -- ---- ------<br>--- ----- --- --- ------ -------- ----- --- ------ ----- --<br>----- ----- ---------- --- --- ------ ------ ---- -- ------<br>------- --- ------ ----- --- ---- ------- -- ---- --- --<br>------- ------,305027.79000008013,305021.3399999775,304356.573,304368.9299999969,304373.246,305041.853,,14,bonds.
screen,html.Screen,1_1_1_1_15,2021-04-27T19:33:03.316Z,,,,,,,,,,,,,,,,54,,,,,,,,,,,,,,549.5520000719698,,response,,,,100,,,,,,,Space,keypress(Space),,,,,,,,-- --- ---- --- ------ ----- ------- ---- -- --- ------- --<br>------- ---------- ------ In ----- -- ----- -- ---- ------<br>--- ----- --- --- ------ -------- ----- --- ------ ----- --<br>----- ----- ---------- --- --- ------ ------ ---- -- ------<br>------- --- ------ ----- --- ---- ------- -- ---- --- --<br>------- ------,305597.6500000106,305591.405000072,305025.18,305027.9599999776,305041.853,305608.735,,15,In
screen,html.Screen,1_1_1_1_16,2021-04-27T19:33:04.036Z,,,,,,,,,,,,,,,,54,,,,,,,,,,,,,,701.3800000002375,,response,,,,100,,,,,,,Space,keypress(Space),,,,,,,,"-- --- ---- --- ------ ----- ------- ---- -- --- ------- --<br>------- ---------- ------ -- 1727, -- ----- -- ---- ------<br>--- ----- --- --- ------ -------- ----- --- ------ ----- --<br>----- ----- ---------- --- --- ------ ------ ---- -- ------<br>------- --- ------ ----- --- ---- ------- -- ---- --- --<br>------- ------",306317.1550000552,306310.1150000002,305592.062,305597.8200000245,305608.735,306325.674,,16,"1727,"
screen,html.Screen,1_1_1_1_17,2021-04-27T19:33:04.393Z,,,,,,,,,,,,,,,,54,,,,,,,,,,,,,,342.71099996811245,,response,,,,100,,,,,,,Space,keypress(Space),,,,,,,,-- --- ---- --- ------ ----- ------- ---- -- --- ------- --<br>------- ---------- ------ -- ----- in ----- -- ---- ------<br>--- ----- --- --- ------ -------- ----- --- ------ ----- --<br>----- ----- ---------- --- --- ------ ------ ---- -- ------<br>------- --- ------ ----- --- ---- ------- -- ---- --- --<br>------- ------,306674.6750000166,306668.3849999681,306309.001,306317.3250000691,306325.674,306692.48,,17,in
screen,html.Screen,1_1_1_1_18,2021-04-27T19:33:05.235Z,,,,,,,,,,,,,,,,54,,,,,,,,,,,,,,817.6650000656955,,response,,,,100,,,,,,,Space,keypress(Space),,,,,,,,-- --- ---- --- ------ ----- ------- ---- -- --- ------- --<br>------- ---------- ------ -- ----- -- order -- ---- ------<br>--- ----- --- --- ------ -------- ----- --- ------ ----- --<br>----- ----- ---------- --- --- ------ ------ ---- -- ------<br>------- --- ------ ----- --- ---- ------- -- ---- --- --<br>------- ------,307516.5450000204,307510.1450000657,306675.807,306674.85000006855,306692.48,307526.13,,18,order
screen,html.Screen,1_1_1_1_19,2021-04-27T19:33:05.747Z,,,,,,,,,,,,,,,,54,,,,,,,,,,,,,,496.0499999708263,,response,,,,100,,,,,,,Space,keypress(Space),,,,,,,,-- --- ---- --- ------ ----- ------- ---- -- --- ------- --<br>------- ---------- ------ -- ----- -- ----- to ---- ------<br>--- ----- --- --- ------ -------- ----- --- ------ ----- --<br>----- ----- ---------- --- --- ------ ------ ---- -- ------<br>------- --- ------ ----- --- ---- ------- -- ---- --- --<br>------- ------,308028.8850000361,308022.17999997083,307509.457,307516.70999999624,307526.13,308042.993,,19,to
screen,html.Screen,1_1_1_1_20,2021-04-27T19:33:06.317Z,,,,,,,,,,,,,,,,54,,,,,,,,,,,,,,549.301999980351,,response,,,,100,,,,,,,Space,keypress(Space),,,,,,,,-- --- ---- --- ------ ----- ------- ---- -- --- ------- --<br>------- ---------- ------ -- ----- -- ----- -- save ------<br>--- ----- --- --- ------ -------- ----- --- ------ ----- --<br>----- ----- ---------- --- --- ------ ------ ---- -- ------<br>------- --- ------ ----- --- ---- ------- -- ---- --- --<br>------- ------,308598.51999999955,308592.29499998037,308026.32,308029.05999997165,308042.993,308609.875,,20,save
screen,html.Screen,1_1_1_1_21,2021-04-27T19:33:06.828Z,,,,,,,,,,,,,,,,54,,,,,,,,,,,,,,493.41499999910593,,response,,,,100,,,,,,,Space,keypress(Space),,,,,,,,"-- --- ---- --- ------ ----- ------- ---- -- --- ------- --<br>------- ---------- ------ -- ----- -- ----- -- ---- money,<br>--- ----- --- --- ------ -------- ----- --- ------ ----- --<br>----- ----- ---------- --- --- ------ ------ ---- -- ------<br>------- --- ------ ----- --- ---- ------- -- ---- --- --<br>------- ------",309109.6649999963,309103.2899999991,308593.202,308598.6950000515,308609.875,309126.738,,21,"money,"
screen,html.Screen,1_1_1_1_22,2021-04-27T19:33:07.254Z,,,,,,,,,,,,,,,,54,,,,,,,,,,,,,,402.5720000126166,,response,,,,100,,,,,,,Space,keypress(Space),,,,,,,,-- --- ---- --- ------ ----- ------- ---- -- --- ------- --<br>------- ---------- ------ -- ----- -- ----- -- ---- ------<br>the ----- --- --- ------ -------- ----- --- ------ ----- --<br>----- ----- ---------- --- --- ------ ------ ---- -- ------<br>------- --- ------ ----- --- ---- ------- -- ---- --- --<br>------- ------,309535.520000034,309529.3100000126,309110.065,309109.8350000102,309126.738,309543.563,,22,the
screen,html.Screen,1_1_1_1_23,2021-04-27T19:33:07.984Z,,,,,,,,,,,,,,,,54,,,,,,,,,,,,,,715.6320000496344,,response,,,,100,,,,,,,Space,keypress(Space),,,,,,,,-- --- ---- --- ------ ----- ------- ---- -- --- ------- --<br>------- ---------- ------ -- ----- -- ----- -- ---- ------<br>--- state --- --- ------ -------- ----- --- ------ ----- --<br>----- ----- ---------- --- --- ------ ------ ---- -- ------<br>------- --- ------ ----- --- ---- ------- -- ---- --- --<br>------- ------,310265.2399999788,310259.19500004966,309526.89,309535.6900000479,309543.563,310277.175,,23,state
screen,html.Screen,1_1_1_1_24,2021-04-27T19:33:08.441Z,,,,,,,,,,,,,,,,54,,,,,,,,,,,,,,439.07999997754814,,response,,,,100,,,,,,,Space,keypress(Space),,,,,,,,-- --- ---- --- ------ ----- ------- ---- -- --- ------- --<br>------- ---------- ------ -- ----- -- ----- -- ---- ------<br>--- ----- cut --- ------ -------- ----- --- ------ ----- --<br>----- ----- ---------- --- --- ------ ------ ---- -- ------<br>------- --- ------ ----- --- ---- ------- -- ---- --- --<br>------- ------,310722.23000007216,310716.25499997754,310260.502,310265.4099999927,310277.175,310727.346,,24,cut
screen,html.Screen,1_1_1_1_25,2021-04-27T19:33:08.905Z,,,,,,,,,,,,,,,,54,,,,,,,,,,,,,,452.8490000226302,,response,,,,100,,,,,,,Space,keypress(Space),,,,,,,,-- --- ---- --- ------ ----- ------- ---- -- --- ------- --<br>------- ---------- ------ -- ----- -- ----- -- ---- ------<br>--- ----- --- the ------ -------- ----- --- ------ ----- --<br>----- ----- ---------- --- --- ------ ------ ---- -- ------<br>------- --- ------ ----- --- ---- ------- -- ---- --- --<br>------- ------,311186.1650000792,311180.19500002265,310710.673,310722.39999996964,310727.346,311194.19,,25,the
screen,html.Screen,1_1_1_1_26,2021-04-27T19:33:09.577Z,,,,,,,,,,,,,,,,54,,,,,,,,,,,,,,657.9550000116578,,response,,,,100,,,,,,,Space,keypress(Space),,,,,,,,-- --- ---- --- ------ ----- ------- ---- -- --- ------- --<br>------- ---------- ------ -- ----- -- ----- -- ---- ------<br>--- ----- --- --- bonds' -------- ----- --- ------ ----- --<br>----- ----- ---------- --- --- ------ ------ ---- -- ------<br>------- --- ------ ----- --- ---- ------- -- ---- --- --<br>------- ------,311858.6399999913,311852.14500001166,311177.517,311186.330000055,311194.19,311861.11,,26,bonds'
screen,html.Screen,1_1_1_1_27,2021-04-27T19:33:10.343Z,,,,,,,,,,,,,,,,54,,,,,,,,,,,,,,757.0699999904027,,response,,,,100,,,,,,,Space,keypress(Space),,,,,,,,-- --- ---- --- ------ ----- ------- ---- -- --- ------- --<br>------- ---------- ------ -- ----- -- ----- -- ---- ------<br>--- ----- --- --- ------ interest ----- --- ------ ----- --<br>----- ----- ---------- --- --- ------ ------ ---- -- ------<br>------- --- ------ ----- --- ---- ------- -- ---- --- --<br>------- ------,312624.3249999825,312618.1799999904,311844.437,311858.8100000052,311861.11,312628.068,,27,interest
screen,html.Screen,1_1_1_1_28,2021-04-27T19:33:11.038Z,,,,,,,,,,,,,,,,54,,,,,,,,,,,,,,684.8620000145747,,response,,,,100,,,,,,,Space,keypress(Space),,,,,,,,-- --- ---- --- ------ ----- ------- ---- -- --- ------- --<br>------- ---------- ------ -- ----- -- ----- -- ---- ------<br>--- ----- --- --- ------ -------- rate. --- ------ ----- --<br>----- ----- ---------- --- --- ------ ------ ---- -- ------<br>------- --- ------ ----- --- ---- ------- -- ---- --- --<br>------- ------,313319.540000055,313312.9300000146,312611.395,312624.4949999964,312628.068,313328.334,,28,rate.
screen,html.Screen,1_1_1_1_29,2021-04-27T19:33:11.524Z,,,,,,,,,,,,,,,,54,,,,,,,,,,,,,,470.72599999030354,,response,,,,100,,,,,,,Space,keypress(Space),,,,,,,,-- --- ---- --- ------ ----- ------- ---- -- --- ------- --<br>------- ---------- ------ -- ----- -- ----- -- ---- ------<br>--- ----- --- --- ------ -------- ----- The ------ ----- --<br>----- ----- ---------- --- --- ------ ------ ---- -- ------<br>------- --- ------ ----- --- ---- ------- -- ---- --- --<br>------- ------,313805.4000000702,313799.0599999903,313311.661,313319.7100000689,313328.334,313811.851,,29,The
screen,html.Screen,1_1_1_1_30,2021-04-27T19:33:12.126Z,,,,,,,,,,,,,,,,54,,,,,,,,,,,,,,589.0090000524651,,response,,,,100,,,,,,,Space,keypress(Space),,,,,,,,-- --- ---- --- ------ ----- ------- ---- -- --- ------- --<br>------- ---------- ------ -- ----- -- ----- -- ---- ------<br>--- ----- --- --- ------ -------- ----- --- market ----- --<br>----- ----- ---------- --- --- ------ ------ ---- -- ------<br>------- --- ------ ----- --- ---- ------- -- ---- --- --<br>------- ------,314407.0300000021,314400.8600000525,313795.178,313805.5699999677,313811.851,314409.251,,30,market
screen,html.Screen,1_1_1_1_31,2021-04-27T19:33:12.764Z,,,,,,,,,,,,,,,,54,,,,,,,,,,,,,,629.924000041734,,response,,,,100,,,,,,,Space,keypress(Space),,,,,,,,-- --- ---- --- ------ ----- ------- ---- -- --- ------- --<br>------- ---------- ------ -- ----- -- ----- -- ---- ------<br>--- ----- --- --- ------ -------- ----- --- ------ value --<br>----- ----- ---------- --- --- ------ ------ ---- -- ------<br>------- --- ------ ----- --- ---- ------- -- ---- --- --<br>------- ------,315045.5099999672,315039.1750000417,314392.578,314407.200000016,314409.251,315059.498,,31,value
screen,html.Screen,1_1_1_1_32,2021-04-27T19:33:13.294Z,,,,,,,,,,,,,,,,54,,,,,,,,,,,,,,508.60700007120613,,response,,,,100,,,,,,,Space,keypress(Space),,,,,,,,-- --- ---- --- ------ ----- ------- ---- -- --- ------- --<br>------- ---------- ------ -- ----- -- ----- -- ---- ------<br>--- ----- --- --- ------ -------- ----- --- ------ ----- of<br>----- ----- ---------- --- --- ------ ------ ---- -- ------<br>------- --- ------ ----- --- ---- ------- -- ---- --- --<br>------- ------,315574.92000004277,315568.1050000712,315042.825,315045.68500001915,315059.498,315593.034,,32,of
screen,html.Screen,1_1_1_1_33,2021-04-27T19:33:13.981Z,,,,,,,,,,,,,,,,54,,,,,,,,,,,,,,663.1210000682622,,response,,,,100,,,,,,,Space,keypress(Space),,,,,,,,-- --- ---- --- ------ ----- ------- ---- -- --- ------- --<br>------- ---------- ------ -- ----- -- ----- -- ---- ------<br>--- ----- --- --- ------ -------- ----- --- ------ ----- --<br>these ----- ---------- --- --- ------ ------ ---- -- ------<br>------- --- ------ ----- --- ---- ------- -- ---- --- --<br>------- ------,316262.7550000325,316256.15500006825,315576.361,315575.0949999783,315593.034,316276.627,,33,these
screen,html.Screen,1_1_1_1_34,2021-04-27T19:33:16.270Z,,,,,,,,,,,,,,,,54,,,,,,,,,,,,,,2267.4680000193184,,response,,,,100,,,,,,,Space,keypress(Space),,,,,,,,-- --- ---- --- ------ ----- ------- ---- -- --- ------- --<br>------- ---------- ------ -- ----- -- ----- -- ---- ------<br>--- ----- --- --- ------ -------- ----- --- ------ ----- --<br>----- bonds ---------- --- --- ------ ------ ---- -- ------<br>------- --- ------ ----- --- ---- ------- -- ---- --- --<br>------- ------,318551.4050000347,318544.0950000193,316259.954,316262.9400000442,316276.627,318560.828,,34,bonds
screen,html.Screen,1_1_1_1_35,2021-04-27T19:33:17.548Z,,,,,,,,,,,,,,,,54,,,,,,,,,,,,,,1261.1570000459906,,response,,,,100,,,,,,,Space,keypress(Space),,,,,,,,"-- --- ---- --- ------ ----- ------- ---- -- --- ------- --<br>------- ---------- ------ -- ----- -- ----- -- ---- ------<br>--- ----- --- --- ------ -------- ----- --- ------ ----- --<br>----- ----- plummeted, --- --- ------ ------ ---- -- ------<br>------- --- ------ ----- --- ---- ------- -- ---- --- --<br>------- ------",319829.3050000211,319821.98500004597,318544.155,318551.5799999703,318560.828,319844.649,,35,"plummeted,"
screen,html.Screen,1_1_1_1_36,2021-04-27T19:33:19.196Z,,,,,,,,,,,,,,,,54,,,,,,,,,,,,,,1626.2960000664461,,response,,,,100,,,,,,,Space,keypress(Space),,,,,,,,-- --- ---- --- ------ ----- ------- ---- -- --- ------- --<br>------- ---------- ------ -- ----- -- ----- -- ---- ------<br>--- ----- --- --- ------ -------- ----- --- ------ ----- --<br>----- ----- ---------- and --- ------ ------ ---- -- ------<br>------- --- ------ ----- --- ---- ------- -- ---- --- --<br>------- ------,321477.28500002995,321470.9450000664,319827.976,319829.4900000328,319844.649,321495.276,,36,and
screen,html.Screen,1_1_1_1_37,2021-04-27T19:33:20.403Z,,,,,,,,,,,,,,,,54,,,,,,,,,,,,,,1182.4790000697249,,response,,,,100,,,,,,,Space,keypress(Space),,,,,,,,-- --- ---- --- ------ ----- ------- ---- -- --- ------- --<br>------- ---------- ------ -- ----- -- ----- -- ---- ------<br>--- ----- --- --- ------ -------- ----- --- ------ ----- --<br>----- ----- ---------- --- the ------ ------ ---- -- ------<br>------- --- ------ ----- --- ---- ------- -- ---- --- --<br>------- ------,322684.19000005815,322677.75500006974,321478.603,321477.4600000819,321495.276,322695.732,,37,the
screen,html.Screen,1_1_1_1_38,2021-04-27T19:33:22.629Z,,,,,,,,,,,,,,,,54,,,,,,,,,,,,,,2207.103000073519,,response,,,,100,,,,,,,Space,keypress(Space),,,,,,,,-- --- ---- --- ------ ----- ------- ---- -- --- ------- --<br>------- ---------- ------ -- ----- -- ----- -- ---- ------<br>--- ----- --- --- ------ -------- ----- --- ------ ----- --<br>----- ----- ---------- --- --- market ------ ---- -- ------<br>------- --- ------ ----- --- ---- ------- -- ---- --- --<br>------- ------,324909.8000000231,324902.83500007354,322679.059,322684.36000007205,322695.732,324913.241,,38,market
screen,html.Screen,1_1_1_1_39,2021-04-27T19:33:23.578Z,,,,,,,,,,,,,,,,54,,,,,,,,,,,,,,939.7790000386885,,response,,,,100,,,,,,,Space,keypress(Space),,,,,,,,-- --- ---- --- ------ ----- ------- ---- -- --- ------- --<br>------- ---------- ------ -- ----- -- ----- -- ---- ------<br>--- ----- --- --- ------ -------- ----- --- ------ ----- --<br>----- ----- ---------- --- --- ------ became ---- -- ------<br>------- --- ------ ----- --- ---- ------- -- ---- --- --<br>------- ------,325859.12500007544,325853.02000003867,324896.568,324909.99000007287,324913.241,325863.602,,39,became
screen,html.Screen,1_1_1_1_40,2021-04-27T19:33:27.954Z,,,,,,,,,,,,,,,,54,,,,,,,,,,,,,,4363.758000018948,,response,,,,100,,,,,,,Space,keypress(Space),,,,,,,,-- --- ---- --- ------ ----- ------- ---- -- --- ------- --<br>------- ---------- ------ -- ----- -- ----- -- ---- ------<br>--- ----- --- --- ------ -------- ----- --- ------ ----- --<br>----- ----- ---------- --- --- ------ ------ wary -- ------<br>------- --- ------ ----- --- ---- ------- -- ---- --- --<br>------- ------,330234.8700000439,330227.36000001896,325846.929,325859.300000011,325863.602,330238.488,,40,wary
screen,html.Screen,1_1_1_1_41,2021-04-27T19:33:29.117Z,,,,,,,,,,,,,,,,54,,,,,,,,,,,,,,1152.582000012393,,response,,,,100,,,,,,,Space,keypress(Space),,,,,,,,-- --- ---- --- ------ ----- ------- ---- -- --- ------- --<br>------- ---------- ------ -- ----- -- ----- -- ---- ------<br>--- ----- --- --- ------ -------- ----- --- ------ ----- --<br>----- ----- ---------- --- --- ------ ------ ---- of ------<br>------- --- ------ ----- --- ---- ------- -- ---- --- --<br>------- ------,331397.51500007696,331391.0700000124,330221.815,330235.0400000578,330238.488,331405.598,,41,of
screen,html.Screen,1_1_1_1_42,2021-04-27T19:33:30.106Z,,,,,,,,,,,,,,,,54,,,,,,,,,,,,,,975.4519999672193,,response,,,,100,,,,,,,Space,keypress(Space),,,,,,,,-- --- ---- --- ------ ----- ------- ---- -- --- ------- --<br>------- ---------- ------ -- ----- -- ----- -- ---- ------<br>--- ----- --- --- ------ -------- ----- --- ------ ----- --<br>----- ----- ---------- --- --- ------ ------ ---- -- French<br>------- --- ------ ----- --- ---- ------- -- ---- --- --<br>------- ------,332387.0899999747,332381.0499999672,331388.925,331397.68499997444,331405.598,332389.305,,42,French
screen,html.Screen,1_1_1_1_43,2021-04-27T19:33:31.839Z,,,,,,,,,,,,,,,,54,,,,,,,,,,,,,,1724.675000023737,,response,,,,100,,,,,,,Space,keypress(Space),,,,,,,,-- --- ---- --- ------ ----- ------- ---- -- --- ------- --<br>------- ---------- ------ -- ----- -- ----- -- ---- ------<br>--- ----- --- --- ------ -------- ----- --- ------ ----- --<br>----- ----- ---------- --- --- ------ ------ ---- -- ------<br>credit. --- ------ ----- --- ---- ------- -- ---- --- --<br>------- ------,334120.28500007,334113.98000002373,332372.632,332387.2599999886,332389.305,334123.297,,43,credit.
screen,html.Screen,1_1_1_1_44,2021-04-27T19:33:37.346Z,,,,,,,,,,,,,,,,54,,,,,,,,,,,,,,5496.633000044385,,response,,,,100,,,,,,,Space,keypress(Space),,,,,,,,-- --- ---- --- ------ ----- ------- ---- -- --- ------- --<br>------- ---------- ------ -- ----- -- ----- -- ---- ------<br>--- ----- --- --- ------ -------- ----- --- ------ ----- --<br>----- ----- ---------- --- --- ------ ------ ---- -- ------<br>------- The ------ ----- --- ---- ------- -- ---- --- --<br>------- ------,339627.0900000818,339619.9300000444,334106.624,334120.46000000555,334123.297,339642.06,,44,The
screen,html.Screen,1_1_1_1_45,2021-04-27T19:33:37.997Z,,,,,,,,,,,,,,,,54,,,,,,,,,,,,,,628.5550000449293,,response,,,,100,,,,,,,Space,keypress(Space),,,,,,,,-- --- ---- --- ------ ----- ------- ---- -- --- ------- --<br>------- ---------- ------ -- ----- -- ----- -- ---- ------<br>--- ----- --- --- ------ -------- ----- --- ------ ----- --<br>----- ----- ---------- --- --- ------ ------ ---- -- ------<br>------- --- French ----- --- ---- ------- -- ---- --- --<br>------- ------,340277.6099999901,340270.6150000449,339625.387,339627.2599999793,339642.06,340292.307,,45,French
screen,html.Screen,1_1_1_1_46,2021-04-27T19:33:39.371Z,,,,,,,,,,,,,,,,54,,,,,,,,,,,,,,1353.218000058143,,response,,,,100,,,,,,,Space,keypress(Space),,,,,,,,-- --- ---- --- ------ ----- ------- ---- -- --- ------- --<br>------- ---------- ------ -- ----- -- ----- -- ---- ------<br>--- ----- --- --- ------ -------- ----- --- ------ ----- --<br>----- ----- ---------- --- --- ------ ------ ---- -- ------<br>------- --- ------ state --- ---- ------- -- ---- --- --<br>------- ------,341651.8850000575,341645.5250000581,340275.634,340277.7950000018,340292.307,341657.765,,46,state
screen,html.Screen,1_1_1_1_47,2021-04-27T19:33:39.921Z,,,,,,,,,,,,,,,,54,,,,,,,,,,,,,,537.615000048303,,response,,,,100,,,,,,,Space,keypress(Space),,,,,,,,-- --- ---- --- ------ ----- ------- ---- -- --- ------- --<br>------- ---------- ------ -- ----- -- ----- -- ---- ------<br>--- ----- --- --- ------ -------- ----- --- ------ ----- --<br>----- ----- ---------- --- --- ------ ------ ---- -- ------<br>------- --- ------ ----- was ---- ------- -- ---- --- --<br>------- ------,342201.43000001553,342195.3800000483,341641.092,341652.0550000714,341657.765,342207.974,,47,was
screen,html.Screen,1_1_1_1_48,2021-04-27T19:33:40.317Z,,,,,,,,,,,,,,,,54,,,,,,,,,,,,,,383.5610000141314,,response,,,,100,,,,,,,Space,keypress(Space),,,,,,,,-- --- ---- --- ------ ----- ------- ---- -- --- ------- --<br>------- ---------- ------ -- ----- -- ----- -- ---- ------<br>--- ----- --- --- ------ -------- ----- --- ------ ----- --<br>----- ----- ---------- --- --- ------ ------ ---- -- ------<br>------- --- ------ ----- --- left ------- -- ---- --- --<br>------- ------,342597.7350000758,342591.5350000141,342191.301,342201.6050000675,342207.974,342608.126,,48,left
screen,html.Screen,1_1_1_1_49,2021-04-27T19:33:40.936Z,,,,,,,,,,,,,,,,54,,,,,,,,,,,,,,602.3940000805887,,response,,,,100,,,,,,,Space,keypress(Space),,,,,,,,-- --- ---- --- ------ ----- ------- ---- -- --- ------- --<br>------- ---------- ------ -- ----- -- ----- -- ---- ------<br>--- ----- --- --- ------ -------- ----- --- ------ ----- --<br>----- ----- ---------- --- --- ------ ------ ---- -- ------<br>------- --- ------ ----- --- ---- without -- ---- --- --<br>------- ------,343216.7950000148,343210.5200000806,342591.453,342597.9100000113,342608.126,343225.027,,49,without
screen,html.Screen,1_1_1_1_50,2021-04-27T19:33:41.360Z,,,,,,,,,,,,,,,,54,,,,,,,,,,,,,,407.5630000520032,,response,,,,100,,,,,,,Space,keypress(Space),,,,,,,,-- --- ---- --- ------ ----- ------- ---- -- --- ------- --<br>------- ---------- ------ -- ----- -- ----- -- ---- ------<br>--- ----- --- --- ------ -------- ----- --- ------ ----- --<br>----- ----- ---------- --- --- ------ ------ ---- -- ------<br>------- --- ------ ----- --- ---- ------- an ---- --- --<br>------- ------,343640.06500004325,343632.590000052,343208.354,343216.97499998845,343225.027,343641.852,,50,an
screen,html.Screen,1_1_1_1_51,2021-04-27T19:33:41.824Z,,,,,,,,,,,,,,,,54,,,,,,,,,,,,,,456.64300004200777,,response,,,,100,,,,,,,Space,keypress(Space),,,,,,,,-- --- ---- --- ------ ----- ------- ---- -- --- ------- --<br>------- ---------- ------ -- ----- -- ----- -- ---- ------<br>--- ----- --- --- ------ -------- ----- --- ------ ----- --<br>----- ----- ---------- --- --- ------ ------ ---- -- ------<br>------- --- ------ ----- --- ---- ------- -- easy --- --<br>------- ------,344104.8149999697,344098.495000042,343625.179,343640.2549999766,343641.852,344108.696,,51,easy
screen,html.Screen,1_1_1_1_52,2021-04-27T19:33:42.234Z,,,,,,,,,,,,,,,,54,,,,,,,,,,,,,,399.78899999847636,,response,,,,100,,,,,,,Space,keypress(Space),,,,,,,,-- --- ---- --- ------ ----- ------- ---- -- --- ------- --<br>------- ---------- ------ -- ----- -- ----- -- ---- ------<br>--- ----- --- --- ------ -------- ----- --- ------ ----- --<br>----- ----- ---------- --- --- ------ ------ ---- -- ------<br>------- --- ------ ----- --- ---- ------- -- ---- way --<br>------- ------,344514.8150000023,344508.4849999985,344092.023,344104.99000002164,344108.696,344525.521,,52,way
screen,html.Screen,1_1_1_1_53,2021-04-27T19:33:42.719Z,,,,,,,,,,,,,,,,54,,,,,,,,,,,,,,467.70399998378707,,response,,,,100,,,,,,,Space,keypress(Space),,,,,,,,-- --- ---- --- ------ ----- ------- ---- -- --- ------- --<br>------- ---------- ------ -- ----- -- ----- -- ---- ------<br>--- ----- --- --- ------ -------- ----- --- ------ ----- --<br>----- ----- ---------- --- --- ------ ------ ---- -- ------<br>------- --- ------ ----- --- ---- ------- -- ---- --- of<br>------- ------,344999.38000005204,344993.2249999838,344508.848,344514.9799999781,344525.521,345009.038,,53,of
screen,html.Screen,1_1_1_1_54,2021-04-27T19:33:43.165Z,,,,,,,,,,,,,,,,54,,,,,,,,,,,,,,430.4270000613178,,response,,,,100,,,,,,,Space,keypress(Space),,,,,,,,-- --- ---- --- ------ ----- ------- ---- -- --- ------- --<br>------- ---------- ------ -- ----- -- ----- -- ---- ------<br>--- ----- --- --- ------ -------- ----- --- ------ ----- --<br>----- ----- ---------- --- --- ------ ------ ---- -- ------<br>------- --- ------ ----- --- ---- ------- -- ---- --- --<br>raising ------,345445.5699999817,345439.4650000613,344992.365,344999.55000006594,345009.038,345459.209,,54,raising
screen,html.Screen,1_1_1_1_55,2021-04-27T19:33:43.676Z,,,,,,,,,,,,,,,,54,,,,,,,,,,,,,,491.2010000486043,,response,,,,100,,,,,,,Space,keypress(Space),,,,,,,,-- --- ---- --- ------ ----- ------- ---- -- --- ------- --<br>------- ---------- ------ -- ----- -- ----- -- ---- ------<br>--- ----- --- --- ------ -------- ----- --- ------ ----- --<br>----- ----- ---------- --- --- ------ ------ ---- -- ------<br>------- --- ------ ----- --- ---- ------- -- ---- --- --<br>------- money.,345956.5500000026,345950.4100000486,345442.536,345445.74500003364,345459.209,345959.399,,55,money.
Item 100,flow.Loop,1_1_1_1,2021-04-27T19:33:43.676Z,,,,,,,,,,,,,,,,,,,,,,,,,,,,,,50997.40900004859,,completion,,,,,A,,,,,,,,,,,silence,,,,,345956.845000037,345950.4100000486,294936.328,294938.3200000739,294953.001,345959.399,,,
Question 1,html.Screen,1_1_1_2,2021-04-27T19:33:46.751Z,,,,,,,,,,,,,,,,,,,,,,,,,,,true,TRUE,,3068.206000068458,,response,,,,100,A,,,,,,TRUE,click #choice-1,,,,silence,,,,,349031.18000004906,349027.60500006843,345942.726,345956.97499997914,345959.399,349043.904,,,
Question 2,html.Screen,1_1_1_3,2021-04-27T19:33:50.968Z,,,,,,,,,,,,,,,,,,,,,,,,,,,true,FALSE,,4200.426000015927,,response,,,,100,A,,,,,,FALSE,click #choice-2,,,,silence,,,,,353247.73499998264,353244.3300000159,349027.231,349031.3600000227,349043.904,353261.623,,,
Item 100,flow.Sequence,1_1_1,2021-04-27T19:33:50.968Z,,,,,,,,,,,,,,,,,,,,,,,,,,,,,,68295.6190000159,,completion,,,,,,,,,,,,,,,,,,,,,353248.0050000595,353244.3300000159,284932.038,284945.1050000498,284948.711,353261.623,,,
End of Practice,html.Page,1_1_2,2021-04-27T19:33:58.557Z,,,,,,,,,,,,,,,,,,,,,,,,,,,,,,7574.7419999955455,,form submission,,,,,,,,,,,,,,,,,,,,,360836.7299999809,360836.36499999557,353244.95,353248.1400000397,353261.623,360847.838,,,
Practice,flow.Sequence,1_1,2021-04-27T19:33:58.557Z,,,,,,,,,,,,,,,,,,,,,,,,,,,,,,128896.14699999557,,completion,,,,,,,,,,,,,,,,,,,,,360837.0400000131,360836.36499999557,231923.545,231943.1999999797,231940.218,360847.838,,,
Trap_instruction,html.Page,1_2_0,2021-04-27T19:34:01.358Z,,,,,,,,,,,,,,,,,,,,,,,,,,,,,,2789.8319999673404,,form submission,,,,,,,,,,,,,,,,,,,,,363637.9949999973,363637.66999996733,360831.165,360837.2250000248,360847.838,363653.884,,,
trap_trial,html.Screen,1_2_1,2021-04-27T19:34:07.295Z,,,,,,,,,,,,,,,,,,,,,,,,,,,true,1,,5918.741000029782,,response,,,,,,,,,,,1,click #choice-1,,,,,,,,,369575.18500008155,369572.6250000298,363637.211,363638.15999997314,363653.884,369589.472,,,
end of trap trial,html.Page,1_2_2,2021-04-27T19:34:09.259Z,,,,,,,,,,,,,,,,,,,,,,,,,,,,,,1949.13300000882,,form submission,,,,,,,,,,,,,,,,,,,,,371539.1600000439,371538.6050000088,369572.799,369575.4050000105,369589.472,371544.115,,,
Trap 1,flow.Sequence,1_2,2021-04-27T19:34:09.260Z,,,,,,,,,,,,,,,,,,,,,,,,,,,,,,10690.76700000884,,completion,,,,,,,,,,,,,,,,,,,,,371539.4550000783,371538.6050000088,360831.165,360837.17000007164,360847.838,371544.115,,,
Standby,html.Page,1_3_0,2021-04-27T19:34:17.252Z,,,,,,,,,,,,,,,,,,,,,,,,,,,,,,8003.040000000037,,timeout,,,,,,,,,,,,,,,,,,,,,379531.8200000329,379530.482,371527.442,371539.65000004973,371544.115,379547.155,,,
Holding screen,html.Screen,1_3_1_0_0,2021-04-27T19:34:24.248Z,,,,,,,,,,,,,,,,,,,,,,,,,,,,,,6994.986999999965,,timeout,,,,,,,,,,,,,,,,,,,,,386526.8250000663,386525.469,379530.482,379532.0950000314,379547.155,386542.142,,,
screen,html.Screen,1_3_1_0_1_0,2021-04-27T19:34:25.469Z,,,,,,,,,,,,,,,,2,,,,,,,,,,,,,,1197.7930000778288,,response,,,,1,A,,,,,,Space,keypress(Space),,,,silence,,,,Two ---- ------ --- ------- ---------- ------- ----------<br>--- --------- --- ----------- ------- ----- ------- ---<br>--------- ---- -- --- ---- -- --------- -- ---- -------<br>-- --------- ------ --- ----- ------ ---- --- --------- --<br>------ - ---- -- --- ----------- ------- ---- ----- -----<br>--- -------- - ------ ---- -- ----- ---- --- --- -----------<br>-- -------,387748.09999996796,387739.9350000778,386525.469,386527.11000002455,386542.142,387759.271,,0,Two
screen,html.Screen,1_3_1_0_1_1,2021-04-27T19:34:26.055Z,,,,,,,,,,,,,,,,2,,,,,,,,,,,,,,569.0489999714191,,response,,,,1,A,,,,,,Space,keypress(Space),,,,silence,,,,--- days ------ --- ------- ---------- ------- ----------<br>--- --------- --- ----------- ------- ----- ------- ---<br>--------- ---- -- --- ---- -- --------- -- ---- -------<br>-- --------- ------ --- ----- ------ ---- --- --------- --<br>------ - ---- -- --- ----------- ------- ---- ----- -----<br>--- -------- - ------ ---- -- ----- ---- --- --- -----------<br>-- -------,388334.5599999884,388328.3199999714,387742.598,387748.38000000454,387759.271,388342.826,,1,days
screen,html.Screen,1_3_1_0_1_2,2021-04-27T19:34:26.791Z,,,,,,,,,,,,,,,,2,,,,,,,,,,,,,,719.284000057145,,response,,,,1,A,,,,,,Space,keypress(Space),,,,silence,,,,"--- ---- later, --- ------- ---------- ------- ----------<br>--- --------- --- ----------- ------- ----- ------- ---<br>--------- ---- -- --- ---- -- --------- -- ---- -------<br>-- --------- ------ --- ----- ------ ---- --- --------- --<br>------ - ---- -- --- ----------- ------- ---- ----- -----<br>--- -------- - ------ ---- -- ----- ---- --- --- -----------<br>-- -------",389070.415000082,389062.11000005715,388326.153,388334.7300000023,388342.826,389076.438,,2,"later,"
screen,html.Screen,1_3_1_0_1_3,2021-04-27T19:34:27.352Z,,,,,,,,,,,,,,,,2,,,,,,,,,,,,,,548.8470000746311,,response,,,,1,A,,,,,,Space,keypress(Space),,,,silence,,,,--- ---- ------ the ------- ---------- ------- ----------<br>--- --------- --- ----------- ------- ----- ------- ---<br>--------- ---- -- --- ---- -- --------- -- ---- -------<br>-- --------- ------ --- ----- ------ ---- --- --------- --<br>------ - ---- -- --- ----------- ------- ---- ----- -----<br>--- -------- - ------ ---- -- ----- ---- --- --- -----------<br>-- -------,389631.5450000111,389625.28500007465,389059.765,389070.53999998607,389076.438,389643.32,,3,the
screen,html.Screen,1_3_1_0_1_4,2021-04-27T19:34:27.983Z,,,,,,,,,,,,,,,,2,,,,,,,,,,,,,,614.6749999926542,,response,,,,1,A,,,,,,Space,keypress(Space),,,,silence,,,,--- ---- ------ --- British ---------- ------- ----------<br>--- --------- --- ----------- ------- ----- ------- ---<br>--------- ---- -- --- ---- -- --------- -- ---- -------<br>-- --------- ------ --- ----- ------ ---- --- --------- --<br>------ - ---- -- --- ----------- ------- ---- ----- -----<br>--- -------- - ------ ---- -- ----- ---- --- --- -----------<br>-- -------,390262.33000005595,390257.99499999266,389626.647,389631.715000025,389643.32,390276.894,,4,British
screen,html.Screen,1_3_1_0_1_5,2021-04-27T19:34:28.898Z,,,,,,,,,,,,,,,,2,,,,,,,,,,,,,,894.3610000520712,,response,,,,1,A,,,,,,Space,keypress(Space),,,,silence,,,,--- ---- ------ --- ------- astronomer ------- ----------<br>--- --------- --- ----------- ------- ----- ------- ---<br>--------- ---- -- --- ---- -- --------- -- ---- -------<br>-- --------- ------ --- ----- ------ ---- --- --------- --<br>------ - ---- -- --- ----------- ------- ---- ----- -----<br>--- -------- - ------ ---- -- ----- ---- --- --- -----------<br>-- -------,391177.47500003316,391171.25500005204,390260.221,390262.44000007864,390276.894,391193.909,,5,astronomer
screen,html.Screen,1_3_1_0_1_6,2021-04-27T19:34:29.511Z,,,,,,,,,,,,,,,,2,,,,,,,,,,,,,,590.3209999902174,,response,,,,1,A,,,,,,Space,keypress(Space),,,,silence,,,,--- ---- ------ --- ------- ---------- Richard ----------<br>--- --------- --- ----------- ------- ----- ------- ---<br>--------- ---- -- --- ---- -- --------- -- ---- -------<br>-- --------- ------ --- ----- ------ ---- --- --------- --<br>------ - ---- -- --- ----------- ------- ---- ----- -----<br>--- -------- - ------ ---- -- ----- ---- --- --- -----------<br>-- -------,391790.3749999823,391784.2299999902,391177.236,391177.64500004705,391193.909,391794.137,,6,Richard
screen,html.Screen,1_3_1_0_1_7,2021-04-27T19:34:30.645Z,,,,,,,,,,,,,,,,2,,,,,,,,,,,,,,1123.9030000186758,,response,,,,1,A,,,,,,Space,keypress(Space),,,,silence,,,,--- ---- ------ --- ------- ---------- ------- Carrington<br>--- --------- --- ----------- ------- ----- ------- ---<br>--------- ---- -- --- ---- -- --------- -- ---- -------<br>-- --------- ------ --- ----- ------ ---- --- --------- --<br>------ - ---- -- --- ----------- ------- ---- ----- -----<br>--- -------- - ------ ---- -- ----- ---- --- --- -----------<br>-- -------,392924.4900000049,392918.04000001866,391777.464,391790.5500000343,391794.137,392927.901,,7,Carrington
screen,html.Screen,1_3_1_0_1_8,2021-04-27T19:34:32.176Z,,,,,,,,,,,,,,,,2,,,,,,,,,,,,,,1521.0189999952563,,response,,,,1,A,,,,,,Space,keypress(Space),,,,silence,,,,--- ---- ------ --- ------- ---------- ------- ----------<br>was --------- --- ----------- ------- ----- ------- ---<br>--------- ---- -- --- ---- -- --------- -- ---- -------<br>-- --------- ------ --- ----- ------ ---- --- --------- --<br>------ - ---- -- --- ----------- ------- ---- ----- -----<br>--- -------- - ------ ---- -- ----- ---- --- --- -----------<br>-- -------,394455.4599999683,394448.91999999527,392911.228,392924.6600000188,392927.901,394465.081,,8,was
screen,html.Screen,1_3_1_0_1_9,2021-04-27T19:34:33.185Z,,,,,,,,,,,,,,,,2,,,,,,,,,,,,,,992.8889999885578,,response,,,,1,A,,,,,,Space,keypress(Space),,,,silence,,,,--- ---- ------ --- ------- ---------- ------- ----------<br>--- observing --- ----------- ------- ----- ------- ---<br>--------- ---- -- --- ---- -- --------- -- ---- -------<br>-- --------- ------ --- ----- ------ ---- --- --------- --<br>------ - ---- -- --- ----------- ------- ---- ----- -----<br>--- -------- - ------ ---- -- ----- ---- --- --- -----------<br>-- -------,395464.0150000341,395457.96999998856,394448.408,394455.6599999778,394465.081,395465.461,,9,observing
screen,html.Screen,1_3_1_0_1_10,2021-04-27T19:34:33.829Z,,,,,,,,,,,,,,,,2,,,,,,,,,,,,,,635.6740000044229,,response,,,,1,A,,,,,,Space,keypress(Space),,,,silence,,,,--- ---- ------ --- ------- ---------- ------- ----------<br>--- --------- the ----------- ------- ----- ------- ---<br>--------- ---- -- --- ---- -- --------- -- ---- -------<br>-- --------- ------ --- ----- ------ ---- --- --------- --<br>------ - ---- -- --- ----------- ------- ---- ----- -----<br>--- -------- - ------ ---- -- ----- ---- --- --- -----------<br>-- -------,396107.44499997236,396101.13500000443,395448.788,395464.185000048,395465.461,396115.708,,10,the
screen,html.Screen,1_3_1_0_1_11,2021-04-27T19:34:35.088Z,,,,,,,,,,,,,,,,2,,,,,,,,,,,,,,1244.3770000512013,,response,,,,1,A,,,,,,Space,keypress(Space),,,,silence,,,,--- ---- ------ --- ------- ---------- ------- ----------<br>--- --------- --- interesting ------- ----- ------- ---<br>--------- ---- -- --- ---- -- --------- -- ---- -------<br>-- --------- ------ --- ----- ------ ---- --- --------- --<br>------ - ---- -- --- ----------- ------- ---- ----- -----<br>--- -------- - ------ ---- -- ----- ---- --- --- -----------<br>-- -------,397366.7300000088,397360.0850000512,396099.035,396107.6200000243,396115.708,397382.856,,11,interesting
screen,html.Screen,1_3_1_0_1_12,2021-04-27T19:34:36.044Z,,,,,,,,,,,,,,,,2,,,,,,,,,,,,,,933.0090000113705,,response,,,,1,A,,,,,,Space,keypress(Space),,,,silence,,,,--- ---- ------ --- ------- ---------- ------- ----------<br>--- --------- --- ----------- sunspot ----- ------- ---<br>--------- ---- -- --- ---- -- --------- -- ---- -------<br>-- --------- ------ --- ----- ------ ---- --- --------- --<br>------ - ---- -- --- ----------- ------- ---- ----- -----<br>--- -------- - ------ ---- -- ----- ---- --- --- -----------<br>-- -------,398322.5749999983,398315.8650000114,397366.183,397366.9050000608,397382.856,398333.217,,12,sunspot
screen,html.Screen,1_3_1_0_1_13,2021-04-27T19:34:37.134Z,,,,,,,,,,,,,,,,2,,,,,,,,,,,,,,1072.8029999948922,,response,,,,1,A,,,,,,Space,keypress(Space),,,,silence,,,,--- ---- ------ --- ------- ---------- ------- ----------<br>--- --------- --- ----------- ------- group ------- ---<br>--------- ---- -- --- ---- -- --------- -- ---- -------<br>-- --------- ------ --- ----- ------ ---- --- --------- --<br>------ - ---- -- --- ----------- ------- ---- ----- -----<br>--- -------- - ------ ---- -- ----- ---- --- --- -----------<br>-- -------,399412.40500006825,399406.0199999949,398316.544,398322.75499997195,398333.217,399416.962,,13,group
screen,html.Screen,1_3_1_0_1_14,2021-04-27T19:34:37.814Z,,,,,,,,,,,,,,,,2,,,,,,,,,,,,,,670.0530000555445,,response,,,,1,A,,,,,,Space,keypress(Space),,,,silence,,,,--- ---- ------ --- ------- ---------- ------- ----------<br>--- --------- --- ----------- ------- ----- through ---<br>--------- ---- -- --- ---- -- --------- -- ---- -------<br>-- --------- ------ --- ----- ------ ---- --- --------- --<br>------ - ---- -- --- ----------- ------- ---- ----- -----<br>--- -------- - ------ ---- -- ----- ---- --- --- -----------<br>-- -------,400093.0449999869,400087.01500005554,399400.289,399412.5749999657,399416.962,400100.555,,14,through
screen,html.Screen,1_3_1_0_1_15,2021-04-27T19:34:38.790Z,,,,,,,,,,,,,,,,2,,,,,,,,,,,,,,961.4050000791322,,response,,,,1,A,,,,,,Space,keypress(Space),,,,silence,,,,--- ---- ------ --- ------- ---------- ------- ----------<br>--- --------- --- ----------- ------- ----- ------- his<br>--------- ---- -- --- ---- -- --------- -- ---- -------<br>-- --------- ------ --- ----- ------ ---- --- --------- --<br>------ - ---- -- --- ----------- ------- ---- ----- -----<br>--- -------- - ------ ---- -- ----- ---- --- --- -----------<br>-- -------,401068.80500004627,401061.9600000791,400083.882,400093.22000003885,400100.555,401084.262,,15,his
screen,html.Screen,1_3_1_0_1_16,2021-04-27T19:34:39.794Z,,,,,,,,,,,,,,,,2,,,,,,,,,,,,,,982.6979999673786,,response,,,,1,A,,,,,,Space,keypress(Space),,,,silence,,,,--- ---- ------ --- ------- ---------- ------- ----------<br>--- --------- --- ----------- ------- ----- ------- ---<br>telescope ---- -- --- ---- -- --------- -- ---- -------<br>-- --------- ------ --- ----- ------ ---- --- --------- --<br>------ - ---- -- --- ----------- ------- ---- ----- -----<br>--- -------- - ------ ---- -- ----- ---- --- --- -----------<br>-- -------,402073.08000000194,402066.95999996737,401067.589,401068.97500006016,401084.262,402084.642,,16,telescope
screen,html.Screen,1_3_1_0_1_17,2021-04-27T19:34:40.502Z,,,,,,,,,,,,,,,,2,,,,,,,,,,,,,,689.3180000204593,,response,,,,1,A,,,,,,Space,keypress(Space),,,,silence,,,,--- ---- ------ --- ------- ---------- ------- ----------<br>--- --------- --- ----------- ------- ----- ------- ---<br>--------- when -- --- ---- -- --------- -- ---- -------<br>-- --------- ------ --- ----- ------ ---- --- --------- --<br>------ - ---- -- --- ----------- ------- ---- ----- -----<br>--- -------- - ------ ---- -- ----- ---- --- --- -----------<br>-- -------,402780.2500000689,402773.96000002045,402067.969,402073.2550000539,402084.642,402784.908,,17,when
screen,html.Screen,1_3_1_0_1_18,2021-04-27T19:34:41.073Z,,,,,,,,,,,,,,,,2,,,,,,,,,,,,,,561.007000070822,,response,,,,1,A,,,,,,Space,keypress(Space),,,,silence,,,,--- ---- ------ --- ------- ---------- ------- ----------<br>--- --------- --- ----------- ------- ----- ------- ---<br>--------- ---- he --- ---- -- --------- -- ---- -------<br>-- --------- ------ --- ----- ------ ---- --- --------- --<br>------ - ---- -- --- ----------- ------- ---- ----- -----<br>--- -------- - ------ ---- -- ----- ---- --- --- -----------<br>-- -------,403351.94500000216,403345.9150000708,402768.235,402780.42500000447,402784.908,403355.653,,18,he
screen,html.Screen,1_3_1_0_1_19,2021-04-27T19:34:41.794Z,,,,,,,,,,,,,,,,2,,,,,,,,,,,,,,711.2270000567078,,response,,,,1,A,,,,,,Space,keypress(Space),,,,silence,,,,--- ---- ------ --- ------- ---------- ------- ----------<br>--- --------- --- ----------- ------- ----- ------- ---<br>--------- ---- -- saw ---- -- --------- -- ---- -------<br>-- --------- ------ --- ----- ------ ---- --- --------- --<br>------ - ---- -- --- ----------- ------- ---- ----- -----<br>--- -------- - ------ ---- -- ----- ---- --- --- -----------<br>-- -------,404073.04499996826,404066.8800000567,403338.98,403352.11500001606,403355.653,404089.265,,19,saw
screen,html.Screen,1_3_1_0_1_20,2021-04-27T19:34:42.518Z,,,,,,,,,,,,,,,,2,,,,,,,,,,,,,,700.6250000145519,,response,,,,1,A,,,,,,Space,keypress(Space),,,,silence,,,,--- ---- ------ --- ------- ---------- ------- ----------<br>--- --------- --- ----------- ------- ----- ------- ---<br>--------- ---- -- --- what -- --------- -- ---- -------<br>-- --------- ------ --- ----- ------ ---- --- --------- --<br>------ - ---- -- --- ----------- ------- ---- ----- -----<br>--- -------- - ------ ---- -- ----- ---- --- --- -----------<br>-- -------,404796.800000011,404789.89000001457,404072.592,404073.22999997996,404089.265,404806.204,,20,what
screen,html.Screen,1_3_1_0_1_21,2021-04-27T19:34:43.126Z,,,,,,,,,,,,,,,,2,,,,,,,,,,,,,,591.7259999773232,,response,,,,1,A,,,,,,Space,keypress(Space),,,,silence,,,,--- ---- ------ --- ------- ---------- ------- ----------<br>--- --------- --- ----------- ------- ----- ------- ---<br>--------- ---- -- --- ---- he --------- -- ---- -------<br>-- --------- ------ --- ----- ------ ---- --- --------- --<br>------ - ---- -- --- ----------- ------- ---- ----- -----<br>--- -------- - ------ ---- -- ----- ---- --- --- -----------<br>-- -------,405404.280000017,405397.92999997735,404789.531,404796.9700000249,404806.204,405406.432,,21,he
screen,html.Screen,1_3_1_0_1_22,2021-04-27T19:34:43.692Z,,,,,,,,,,,,,,,,2,,,,,,,,,,,,,,557.2280000085593,,response,,,,1,A,,,,,,Space,keypress(Space),,,,silence,,,,--- ---- ------ --- ------- ---------- ------- ----------<br>--- --------- --- ----------- ------- ----- ------- ---<br>--------- ---- -- --- ---- -- described -- ---- -------<br>-- --------- ------ --- ----- ------ ---- --- --------- --<br>------ - ---- -- --- ----------- ------- ---- ----- -----<br>--- -------- - ------ ---- -- ----- ---- --- --- -----------<br>-- -------,405970.4700000584,405963.66000000853,405389.759,405404.44499999285,405406.432,405973.314,,22,described
screen,html.Screen,1_3_1_0_1_23,2021-04-27T19:34:44.236Z,,,,,,,,,,,,,,,,2,,,,,,,,,,,,,,534.8110000512097,,response,,,,1,A,,,,,,Space,keypress(Space),,,,silence,,,,--- ---- ------ --- ------- ---------- ------- ----------<br>--- --------- --- ----------- ------- ----- ------- ---<br>--------- ---- -- --- ---- -- --------- as ---- -------<br>-- --------- ------ --- ----- ------ ---- --- --------- --<br>------ - ---- -- --- ----------- ------- ---- ----- -----<br>--- -------- - ------ ---- -- ----- ---- --- --- -----------<br>-- -------,406514.28000000305,406508.1250000512,405956.641,405970.64499999397,405973.314,406523.523,,23,as
screen,html.Screen,1_3_1_0_1_24,2021-04-27T19:34:44.836Z,,,,,,,,,,,,,,,,2,,,,,,,,,,,,,,584.2970000338391,,response,,,,1,A,,,,,,Space,keypress(Space),,,,silence,,,,"--- ---- ------ --- ------- ---------- ------- ----------<br>--- --------- --- ----------- ------- ----- ------- ---<br>--------- ---- -- --- ---- -- --------- -- ""two -------<br>-- --------- ------ --- ----- ------ ---- --- --------- --<br>------ - ---- -- --- ----------- ------- ---- ----- -----<br>--- -------- - ------ ---- -- ----- ---- --- --- -----------<br>-- -------",407114.1550000757,407107.8200000338,406506.85,406514.45000001695,406523.523,407123.751,,24,"""two"
screen,html.Screen,1_3_1_0_1_25,2021-04-27T19:34:45.616Z,,,,,,,,,,,,,,,,2,,,,,,,,,,,,,,764.054000063974,,response,,,,1,A,,,,,,Space,keypress(Space),,,,silence,,,,--- ---- ------ --- ------- ---------- ------- ----------<br>--- --------- --- ----------- ------- ----- ------- ---<br>--------- ---- -- --- ---- -- --------- -- ---- patches<br>-- --------- ------ --- ----- ------ ---- --- --------- --<br>------ - ---- -- --- ----------- ------- ---- ----- -----<br>--- -------- - ------ ---- -- ----- ---- --- --- -----------<br>-- -------,407894.3300000392,407887.80500006396,407107.078,407114.3249999732,407123.751,407907.382,,25,patches
screen,html.Screen,1_3_1_0_1_26,2021-04-27T19:34:46.177Z,,,,,,,,,,,,,,,,2,,,,,,,,,,,,,,541.4380000487436,,response,,,,1,A,,,,,,Space,keypress(Space),,,,silence,,,,--- ---- ------ --- ------- ---------- ------- ----------<br>--- --------- --- ----------- ------- ----- ------- ---<br>--------- ---- -- --- ---- -- --------- -- ---- -------<br>of --------- ------ --- ----- ------ ---- --- --------- --<br>------ - ---- -- --- ----------- ------- ---- ----- -----<br>--- -------- - ------ ---- -- ----- ---- --- --- -----------<br>-- -------,408455.82500007004,408448.8200000487,407890.709,407894.5000000531,407907.382,408457.591,,26,of
screen,html.Screen,1_3_1_0_1_27,2021-04-27T19:34:46.870Z,,,,,,,,,,,,,,,,2,,,,,,,,,,,,,,685.0039999829605,,response,,,,1,A,,,,,,Space,keypress(Space),,,,silence,,,,--- ---- ------ --- ------- ---------- ------- ----------<br>--- --------- --- ----------- ------- ----- ------- ---<br>--------- ---- -- --- ---- -- --------- -- ---- -------<br>-- intensely ------ --- ----- ------ ---- --- --------- --<br>------ - ---- -- --- ----------- ------- ---- ----- -----<br>--- -------- - ------ ---- -- ----- ---- --- --- -----------<br>-- -------,409148.765000049,409142.594999983,408440.918,408456.0150000034,408457.591,409157.857,,27,intensely
screen,html.Screen,1_3_1_0_1_28,2021-04-27T19:34:47.373Z,,,,,,,,,,,,,,,,2,,,,,,,,,,,,,,486.8929999776301,,response,,,,1,A,,,,,,Space,keypress(Space),,,,silence,,,,--- ---- ------ --- ------- ---------- ------- ----------<br>--- --------- --- ----------- ------- ----- ------- ---<br>--------- ---- -- --- ---- -- --------- -- ---- -------<br>-- --------- bright --- ----- ------ ---- --- --------- --<br>------ - ---- -- --- ----------- ------- ---- ----- -----<br>--- -------- - ------ ---- -- ----- ---- --- --- -----------<br>-- -------,409651.0900000576,409644.74999997765,409141.184,409148.9350000629,409157.857,409658.047,,28,bright
screen,html.Screen,1_3_1_0_1_29,2021-04-27T19:34:47.834Z,,,,,,,,,,,,,,,,2,,,,,,,,,,,,,,448.7129999950994,,response,,,,1,A,,,,,,Space,keypress(Space),,,,silence,,,,--- ---- ------ --- ------- ---------- ------- ----------<br>--- --------- --- ----------- ------- ----- ------- ---<br>--------- ---- -- --- ---- -- --------- -- ---- -------<br>-- --------- ------ and ----- ------ ---- --- --------- --<br>------ - ---- -- --- ----------- ------- ---- ----- -----<br>--- -------- - ------ ---- -- ----- ---- --- --- -----------<br>-- -------,410112.9850000143,410106.7599999951,409641.374,409651.2600000715,409658.047,410124.891,,29,and
screen,html.Screen,1_3_1_0_1_30,2021-04-27T19:34:48.346Z,,,,,,,,,,,,,,,,2,,,,,,,,,,,,,,492.9039999691886,,response,,,,1,A,,,,,,Space,keypress(Space),,,,silence,,,,--- ---- ------ --- ------- ---------- ------- ----------<br>--- --------- --- ----------- ------- ----- ------- ---<br>--------- ---- -- --- ---- -- --------- -- ---- -------<br>-- --------- ------ --- white ------ ---- --- --------- --<br>------ - ---- -- --- ----------- ------- ---- ----- -----<br>--- -------- - ------ ---- -- ----- ---- --- --- -----------<br>-- -------,410624.2349999957,410617.7949999692,410108.218,410113.1499999901,410124.891,410641.754,,30,white
screen,html.Screen,1_3_1_0_1_31,2021-04-27T19:34:48.943Z,,,,,,,,,,,,,,,,2,,,,,,,,,,,,,,572.9660000472213,,response,,,,1,A,,,,,,Space,keypress(Space),,,,silence,,,,"--- ---- ------ --- ------- ---------- ------- ----------<br>--- --------- --- ----------- ------- ----- ------- ---<br>--------- ---- -- --- ---- -- --------- -- ---- -------<br>-- --------- ------ --- ----- light"" ---- --- --------- --<br>------ - ---- -- --- ----------- ------- ---- ----- -----<br>--- -------- - ------ ---- -- ----- ---- --- --- -----------<br>-- -------",411221.0699999705,411214.72000004724,410625.081,410624.4050000096,410641.754,411225.309,,31,"light"""
screen,html.Screen,1_3_1_0_1_32,2021-04-27T19:34:49.565Z,,,,,,,,,,,,,,,,2,,,,,,,,,,,,,,612.3859999947017,,response,,,,1,A,,,,,,Space,keypress(Space),,,,silence,,,,--- ---- ------ --- ------- ---------- ------- ----------<br>--- --------- --- ----------- ------- ----- ------- ---<br>--------- ---- -- --- ---- -- --------- -- ---- -------<br>-- --------- ------ --- ----- ------ over --- --------- --<br>------ - ---- -- --- ----------- ------- ---- ----- -----<br>--- -------- - ------ ---- -- ----- ---- --- --- -----------<br>-- -------,411843.6699999729,411837.6949999947,411208.636,411221.2399999844,411225.309,411858.883,,32,over
screen,html.Screen,1_3_1_0_1_33,2021-04-27T19:34:50.289Z,,,,,,,,,,,,,,,,2,,,,,,,,,,,,,,702.5970000330708,,response,,,,1,A,,,,,,Space,keypress(Space),,,,silence,,,,--- ---- ------ --- ------- ---------- ------- ----------<br>--- --------- --- ----------- ------- ----- ------- ---<br>--------- ---- -- --- ---- -- --------- -- ---- -------<br>-- --------- ------ --- ----- ------ ---- the --------- --<br>------ - ---- -- --- ----------- ------- ---- ----- -----<br>--- -------- - ------ ---- -- ----- ---- --- --- -----------<br>-- -------,412567.42500001565,412561.48000003304,411842.21,411843.8450000249,411858.883,412575.822,,33,the
screen,html.Screen,1_3_1_0_1_34,2021-04-27T19:34:51.114Z,,,,,,,,,,,,,,,,2,,,,,,,,,,,,,,809.8479999887641,,response,,,,1,A,,,,,,Space,keypress(Space),,,,silence,,,,--- ---- ------ --- ------- ---------- ------- ----------<br>--- --------- --- ----------- ------- ----- ------- ---<br>--------- ---- -- --- ---- -- --------- -- ---- -------<br>-- --------- ------ --- ----- ------ ---- --- sunspots. --<br>------ - ---- -- --- ----------- ------- ---- ----- -----<br>--- -------- - ------ ---- -- ----- ---- --- --- -----------<br>-- -------,413392.450000043,413385.66999998875,412559.149,412567.58999999147,412575.822,413409.472,,34,sunspots.
screen,html.Screen,1_3_1_0_1_35,2021-04-27T19:34:51.706Z,,,,,,,,,,,,,,,,2,,,,,,,,,,,,,,568.8730000686483,,response,,,,1,A,,,,,,Space,keypress(Space),,,,silence,,,,--- ---- ------ --- ------- ---------- ------- ----------<br>--- --------- --- ----------- ------- ----- ------- ---<br>--------- ---- -- --- ---- -- --------- -- ---- -------<br>-- --------- ------ --- ----- ------ ---- --- --------- He<br>------ - ---- -- --- ----------- ------- ---- ----- -----<br>--- -------- - ------ ---- -- ----- ---- --- --- -----------<br>-- -------,413984.7450000234,413978.34500006866,413392.799,413392.6249999786,413409.472,413998.134,,35,He
screen,html.Screen,1_3_1_0_1_36,2021-04-27T19:34:52.497Z,,,,,,,,,,,,,,,,2,,,,,,,,,,,,,,770.5510000172653,,response,,,,1,A,,,,,,Space,keypress(Space),,,,silence,,,,--- ---- ------ --- ------- ---------- ------- ----------<br>--- --------- --- ----------- ------- ----- ------- ---<br>--------- ---- -- --- ---- -- --------- -- ---- -------<br>-- --------- ------ --- ----- ------ ---- --- --------- --<br>jotted - ---- -- --- ----------- ------- ---- ----- -----<br>--- -------- - ------ ---- -- ----- ---- --- --- -----------<br>-- -------,414775.1799999969,414768.6850000173,413981.461,413984.8550000461,413998.134,414781.765,,36,jotted
