sender,sender_type,sender_id,timestamp,meta,,Blues,Classical,Country,Dance,Electronic,Folk,Gospel,Hip-Hop,Jazz,Latin,Musical/Film,New-age,Pop,Provo_ID,R&B,Rap,Reggae,Religious,Rock,Soul,Swing,Traditional,age,artist_name,correct,correctResponse,distraction,duration,education,ended_on,familiarity,gender,headphone_check_performance,item,list,music_frequency,offensiveness,pleasantness,position_correct,preference,response,response_action,snippet_file,song_name,song_rating,sound,stimulus_1,stimulus_2,stimulus_3,text,time_commit,time_end,time_render,time_run,time_show,time_switch,url,word,word_ID
Introduction,html.Screen,0_0,2021-04-18T10:14:18.477Z,"{""labjs_version"":""20.2.2"",""labjs_build"":{""flavor"":""production"",""commit"":""a25486e0c714a0ae2ce03ff94b7bb6896854dcfa""},""location"":""https://run.pavlovia.org/mvasilev/music_e/"",""userAgent"":""Mozilla/5.0 (Windows NT 10.0; Win64; x64) AppleWebKit/537.36 (KHTML, like Gecko) Chrome/89.0.4389.128 Safari/537.36"",""platform"":""Win32"",""language"":""en-GB"",""locale"":""en-GB"",""timeZone"":""Europe/London"",""timezoneOffset"":-60,""screen_width"":1536,""screen_height"":864,""scroll_width"":1536,""scroll_height"":706,""window_innerWidth"":1536,""window_innerHeight"":754,""devicePixelRatio"":1.25}",,,,,,,,,,,,,,,,,,,,,,,,,,,,,12652.579999976213,,response,,,,,,,,,,,continue,click button,,,,,,,,,45010.23000001442,45007.709999976214,32302.824,32304.04499999713,32355.13,45022.331,{},,
Volume calibration,html.Screen,0_1,2021-04-18T10:15:17.329Z,,,,,,,,,,,,,,,,,,,,,,,,,,,,,,58835.30399996392,,response,,,,,,,,,,,continue,click button,,,,,,,,,103862.48499999056,103857.63499996392,45005.685,45011.189999990165,45022.331,103874.973,,,
Task instructions,html.Screen,0_2,2021-04-18T10:15:36.177Z,,,,,,,,,,,,,,,,,,,,,,,,,,,,,,18833.421999965096,,response,,,,,,,,,,,continue,click button,,,,,,,,,122710.85999999195,122708.3949999651,103842.322,103862.7850000048,103874.973,122725.801,,,
Sounds,html.Screen,0_3_0_0,2021-04-18T10:15:40.432Z,,,,,,,,,,,,,,,,,,,,,,,,,,,,,,4250.900999999998,,timeout,,,,,,,,,2,,,,,,,,I,S,O,,126965.5849999981,126959.5,122709.258,122711.34499995969,122725.801,126976.702,,,
Judgement,html.Screen,0_3_0_1,2021-04-18T10:15:42.093Z,,,,,,,,,,,,,,,,,,,,,,,,,,,true,2,,1649.248000016014,,response,,,,,,,,,2,,2,click #choice-2,,,,,I,S,O,,128627.41000001552,128625.95000001602,126959.5,126965.87499999441,126976.702,128643.045,,,
Trial,flow.Sequence,0_3_0,2021-04-18T10:15:42.094Z,,,,,,,,,,,,,,,,,,,,,,,,,,,,,,5900.149000016012,,completion,,,,,,,,,2,,,,,,,,I,S,O,,128627.9799999902,128625.95000001602,122709.258,122711.23000001535,122725.801,128643.045,,,
Sounds,html.Screen,0_3_1_0,2021-04-18T10:15:46.344Z,,,,,,,,,,,,,,,,,,,,,,,,,,,,,,4249.979000000007,,timeout,,,,,,,,,1,,,,,,,,S,O,I,,132877.84999998985,132876.876,128626.334,128628.35999997333,128643.045,132893.024,,,
Judgement,html.Screen,0_3_1_1,2021-04-18T10:15:49.995Z,,,,,,,,,,,,,,,,,,,,,,,,,,,true,1,,3633.3260000000882,,response,,,,,,,,,1,,1,click #choice-1,,,,,S,O,I,,136528.69499998633,136526.3500000001,132876.876,132878.08499997482,132893.024,136543.196,,,
Trial,flow.Sequence,0_3_1,2021-04-18T10:15:49.995Z,,,,,,,,,,,,,,,,,,,,,,,,,,,,,,7883.305000000095,,completion,,,,,,,,,1,,,,,,,,S,O,I,,136529.0549999918,136526.3500000001,128626.334,128628.25499998871,128643.045,136543.196,,,
Sounds,html.Screen,0_3_2_0,2021-04-18T10:15:54.245Z,,,,,,,,,,,,,,,,,,,,,,,,,,,,,,4250.168000000005,,timeout,,,,,,,,,2,,,,,,,,O,S,I,,140779.0549999918,140777.446,136526.959,136529.3149999925,136543.196,140793.364,,,
Judgement,html.Screen,0_3_2_1,2021-04-18T10:15:56.538Z,,,,,,,,,,,,,,,,,,,,,,,,,,,true,2,,2276.8159999806085,,response,,,,,,,,,2,,2,click #choice-2,,,,,O,S,I,,143071.4900000021,143070.1799999806,140777.446,140779.2999999947,140793.364,143076.823,,,
Trial,flow.Sequence,0_3_2,2021-04-18T10:15:56.538Z,,,,,,,,,,,,,,,,,,,,,,,,,,,,,,6526.983999980614,,completion,,,,,,,,,2,,,,,,,,O,S,I,,143071.8399999896,143070.1799999806,136526.959,136529.2349999654,136543.196,143076.823,,,
Sounds,html.Screen,0_3_3_0,2021-04-18T10:16:00.780Z,,,,,,,,,,,,,,,,,,,,,,,,,,,,,,4250.222999999998,,timeout,,,,,,,,,3,,,,,,,,O,I,S,,147313.47499997355,147310.363,143060.708,143072.08000001265,143076.823,147327.046,,,
Judgement,html.Screen,0_3_3_1,2021-04-18T10:16:02.142Z,,,,,,,,,,,,,,,,,,,,,,,,,,,true,3,,1347.028999988077,,response,,,,,,,,,3,,3,click #choice-3,,,,,O,I,S,,148675.46499997843,148674.07499998808,147310.363,147313.68999998085,147327.046,148677.259,,,
Trial,flow.Sequence,0_3_3,2021-04-18T10:16:02.142Z,,,,,,,,,,,,,,,,,,,,,,,,,,,,,,5597.251999988075,,completion,,,,,,,,,3,,,,,,,,O,I,S,,148675.78499997035,148674.07499998808,143060.708,143071.9950000057,143076.823,148677.259,,,
Sounds,html.Screen,0_3_4_0,2021-04-18T10:16:06.378Z,,,,,,,,,,,,,,,,,,,,,,,,,,,,,,4250.956999999995,,timeout,,,,,,,,,1,,,,,,,,S,I,O,,152912.1799999848,152911.198,148660.412,148676.00500001572,148677.259,152928.216,,,
Judgement,html.Screen,0_3_4_1,2021-04-18T10:16:08.205Z,,,,,,,,,,,,,,,,,,,,,,,,,,,true,1,,1809.2889999682375,,response,,,,,,,,,1,,1,click #choice-1,,,,,S,I,O,,154738.8449999853,154737.50499996822,152911.198,152912.38499997417,152928.216,154744.025,,,
Trial,flow.Sequence,0_3_4,2021-04-18T10:16:08.205Z,,,,,,,,,,,,,,,,,,,,,,,,,,,,,,6060.245999968232,,completion,,,,,,,,,1,,,,,,,,S,I,O,,154739.30999997538,154737.50499996822,148660.412,148675.9449999663,148677.259,154744.025,,,
Sounds,html.Screen,0_3_5_0,2021-04-18T10:16:12.445Z,,,,,,,,,,,,,,,,,,,,,,,,,,,,,,4250.141000000003,,timeout,,,,,,,,,3,,,,,,,,I,O,S,,158978.86500001187,158977.574,154727.745,154739.53500000061,154744.025,158994.166,,,
Judgement,html.Screen,0_3_5_1,2021-04-18T10:16:13.445Z,,,,,,,,,,,,,,,,,,,,,,,,,,,true,3,,983.5590000042866,,response,,,,,,,,,3,,3,click #choice-3,,,,,I,O,S,,159979.1499999701,159977.72500000428,158977.574,158979.0749999811,158994.166,159994.552,,,
Trial,flow.Sequence,0_3_5,2021-04-18T10:16:13.446Z,,,,,,,,,,,,,,,,,,,,,,,,,,,,,,5233.70000000429,,completion,,,,,,,,,3,,,,,,,,I,O,S,,159979.46999996202,159977.72500000428,154727.745,154739.46999997133,154744.025,159994.552,,,
Task,flow.Loop,0_3,2021-04-18T10:16:13.452Z,,,,,,,,,,,,,,,,,,,,,,,,,,,,,,37251.92400000428,,completion,,,1,,,,,,,,,,,,,,,,,,159986.0650000046,159977.72500000428,122709.258,122711.13999997033,122725.801,159994.552,,,
Trap,html.Screen,0_4,2021-04-18T10:16:13.456Z,,,,,,,,,,,,,,,,,,,,,,,,,,,,,,NaN,,skipped,,,,,,,,,,,,,,,,,,,,,159990.2599999914,159977.72500000428,,159990.02500000643,,159994.552,,,
Thanks,html.Screen,0_5,2021-04-18T10:16:19.081Z,,,,,,,,,,,,,,,,,,,,,,,,,,,,,,5618.6679999992775,,response,,,,,,,,,,,continue,click button,,,,,,,,,165614.79500000132,165613.21999999927,159978.014,159990.46999996062,159994.552,169928.104,,,
Headphone screening,flow.Sequence,0,2021-04-18T10:16:19.081Z,,,,,,,,,,,,,,,,,,,,,,,,,,,,,,133258.08999999927,,completion,,,,,,,,,,,,,,,,,,,,,165615.09500001557,165613.21999999927,32302.824,32303.985000005923,32355.13,169928.104,,,
Instructions,html.Page,1_0,2021-04-18T10:16:53.902Z,,,,,,,,,,,,,,,,,,,,,,,,,,,,,,30507.906000004907,,form submission,,,,,,,,,,,,,,,,,,,,,200436.40000000596,200436.0100000049,169894.679,169916.95499996422,169928.104,200446.606,,,
Holding screen,html.Screen,1_1_0_0,2021-04-18T10:17:03.898Z,,,,,,,,,,,,,,,,,,,,,,,,,,,,,,10016.59599999999,,timeout,,,,,,,,,,,,,,,,,,,,,210431.94499996025,210430.001,200429.592,200436.74999999348,200446.606,210463.202,,,
screen,html.Screen,1_1_0_1_0,2021-04-18T10:17:05.413Z,,,,,,,,,,,,,,,,53,,,,,,,,,,,,,,1478.9279999812716,,response,,,,99,,,,,,,Space,keypress(Space),,,,,,,,When -- ----- -- ------ - ------- --- ----------<br>------------- ------ ------ ---- ---- ------- ----- -- ----<br>-------- ------- -- ---------- --- - --- ----- ----- ----<br>---- --- --- ----- --- ---- ---- ------- ----- ---- -------<br>--- --- -- ----- -- --- ---- -- --- ---- -- ------ ------<br>--- ----- -- ----,211945.88000001386,211942.12999998126,210430.001,210432.2599999723,210463.202,211963.374,,0,When
screen,html.Screen,1_1_0_1_1,2021-04-18T10:17:06.022Z,,,,,,,,,,,,,,,,53,,,,,,,,,,,,,,591.040999962308,,response,,,,99,,,,,,,Space,keypress(Space),,,,,,,,---- it ----- -- ------ - ------- --- ----------<br>------------- ------ ------ ---- ---- ------- ----- -- ----<br>-------- ------- -- ---------- --- - --- ----- ----- ----<br>---- --- --- ----- --- ---- ---- ------- ----- ---- -------<br>--- --- -- ----- -- --- ---- -- --- ---- -- ------ ------<br>--- ----- -- ----,212555.62499997905,212554.41499996232,211946.564,211946.14499999443,211963.374,212563.278,,1,it
screen,html.Screen,1_1_0_1_2,2021-04-18T10:17:06.640Z,,,,,,,,,,,,,,,,53,,,,,,,,,,,,,,609.1269999611541,,response,,,,99,,,,,,,Space,keypress(Space),,,,,,,,---- -- comes -- ------ - ------- --- ----------<br>------------- ------ ------ ---- ---- ------- ----- -- ----<br>-------- ------- -- ---------- --- - --- ----- ----- ----<br>---- --- --- ----- --- ---- ---- ------- ----- ---- -------<br>--- --- -- ----- -- --- ---- -- --- ---- -- ------ ------<br>--- ----- -- ----,213173.59999998007,213172.40499996115,212547.446,212555.83999998635,212563.278,213179.975,,2,comes
screen,html.Screen,1_1_0_1_3,2021-04-18T10:17:07.193Z,,,,,,,,,,,,,,,,53,,,,,,,,,,,,,,545.5349999601895,,response,,,,99,,,,,,,Space,keypress(Space),,,,,,,,---- -- ----- to ------ - ------- --- ----------<br>------------- ------ ------ ---- ---- ------- ----- -- ----<br>-------- ------- -- ---------- --- - --- ----- ----- ----<br>---- --- --- ----- --- ---- ---- ------- ----- ---- -------<br>--- --- -- ----- -- --- ---- -- --- ---- -- ------ ------<br>--- ----- -- ----,213726.64999996778,213725.5099999602,213163.737,213173.79999998957,213179.975,213730.012,,3,to
screen,html.Screen,1_1_0_1_4,2021-04-18T10:17:07.906Z,,,,,,,,,,,,,,,,53,,,,,,,,,,,,,,707.7730000164593,,response,,,,99,,,,,,,Space,keypress(Space),,,,,,,,---- -- ----- -- having - ------- --- ----------<br>------------- ------ ------ ---- ---- ------- ----- -- ----<br>-------- ------- -- ---------- --- - --- ----- ----- ----<br>---- --- --- ----- --- ---- ---- ------- ----- ---- -------<br>--- --- -- ----- -- --- ---- -- --- ---- -- ------ ------<br>--- ----- -- ----,214438.9749999973,214437.78500001645,213713.842,213726.84999997728,213730.012,214446.708,,4,having
screen,html.Screen,1_1_0_1_5,2021-04-18T10:17:08.384Z,,,,,,,,,,,,,,,,53,,,,,,,,,,,,,,469.191999963572,,response,,,,99,,,,,,,Space,keypress(Space),,,,,,,,---- -- ----- -- ------ a ------- --- ----------<br>------------- ------ ------ ---- ---- ------- ----- -- ----<br>-------- ------- -- ---------- --- - --- ----- ----- ----<br>---- --- --- ----- --- ---- ---- ------- ----- ---- -------<br>--- --- -- ----- -- --- ---- -- --- ---- -- ------ ------<br>--- ----- -- ----,214917.0799999847,214915.89999996359,214430.474,214439.1900000046,214446.708,214930.174,,5,a
screen,html.Screen,1_1_0_1_6,2021-04-18T10:17:08.966Z,,,,,,,,,,,,,,,,53,,,,,,,,,,,,,,567.690999982995,,response,,,,99,,,,,,,Space,keypress(Space),,,,,,,,---- -- ----- -- ------ - lasting --- ----------<br>------------- ------ ------ ---- ---- ------- ----- -- ----<br>-------- ------- -- ---------- --- - --- ----- ----- ----<br>---- --- --- ----- --- ---- ---- ------- ----- ---- -------<br>--- --- -- ----- -- --- ---- -- --- ---- -- ------ ------<br>--- ----- -- ----,215499.07999997959,215497.864999983,214913.452,214917.29000001214,214930.174,215513.939,,6,lasting
screen,html.Screen,1_1_0_1_7,2021-04-18T10:17:09.439Z,,,,,,,,,,,,,,,,53,,,,,,,,,,,,,,457.12100001075305,,response,,,,99,,,,,,,Space,keypress(Space),,,,,,,,---- -- ----- -- ------ - ------- and ----------<br>------------- ------ ------ ---- ---- ------- ----- -- ----<br>-------- ------- -- ---------- --- - --- ----- ----- ----<br>---- --- --- ----- --- ---- ---- ------- ----- ---- -------<br>--- --- -- ----- -- --- ---- -- --- ---- -- ------ ------<br>--- ----- -- ----,215972.21500001615,215971.06000001077,215497.015,215499.28499996895,215513.939,215980.151,,7,and
screen,html.Screen,1_1_0_1_8,2021-04-18T10:17:10.087Z,,,,,,,,,,,,,,,,53,,,,,,,,,,,,,,639.1689999979571,,response,,,,99,,,,,,,Space,keypress(Space),,,,,,,,---- -- ----- -- ------ - ------- --- fulfilling<br>------------- ------ ------ ---- ---- ------- ----- -- ----<br>-------- ------- -- ---------- --- - --- ----- ----- ----<br>---- --- --- ----- --- ---- ---- ------- ----- ---- -------<br>--- --- -- ----- -- --- ---- -- --- ---- -- ------ ------<br>--- ----- -- ----,216620.46499998542,216619.31999999797,215964.091,215972.42999996524,215980.151,216630.543,,8,fulfilling
screen,html.Screen,1_1_0_1_9,2021-04-18T10:17:10.679Z,,,,,,,,,,,,,,,,53,,,,,,,,,,,,,,580.6320000039996,,response,,,,99,,,,,,,Space,keypress(Space),,,,,,,,"---- -- ----- -- ------ - ------- --- ----------<br>relationship, ------ ------ ---- ---- ------- ----- -- ----<br>-------- ------- -- ---------- --- - --- ----- ----- ----<br>---- --- --- ----- --- ---- ---- ------- ----- ---- -------<br>--- --- -- ----- -- --- ---- -- --- ---- -- ------ ------<br>--- ----- -- ----",217212.3450000072,217211.175000004,216613.911,216620.67999999272,216630.543,217245.745,,9,"relationship,"
screen,html.Screen,1_1_0_1_10,2021-04-18T10:17:11.212Z,,,,,,,,,,,,,,,,53,,,,,,,,,,,,,,498.4749999932246,,response,,,,99,,,,,,,Space,keypress(Space),,,,,,,,---- -- ----- -- ------ - ------- --- ----------<br>------------- common ------ ---- ---- ------- ----- -- ----<br>-------- ------- -- ---------- --- - --- ----- ----- ----<br>---- --- --- ----- --- ---- ---- ------- ----- ---- -------<br>--- --- -- ----- -- --- ---- -- --- ---- -- ------ ------<br>--- ----- -- ----,217745.40999997407,217744.21999999322,217197.366,217212.54999999655,217245.745,217771.586,,10,common
screen,html.Screen,1_1_0_1_11,2021-04-18T10:17:11.995Z,,,,,,,,,,,,,,,,53,,,,,,,,,,,,,,755.7239999758312,,response,,,,99,,,,,,,Space,keypress(Space),,,,,,,,---- -- ----- -- ------ - ------- --- ----------<br>------------- ------ wisdom ---- ---- ------- ----- -- ----<br>-------- ------- -- ---------- --- - --- ----- ----- ----<br>---- --- --- ----- --- ---- ---- ------- ----- ---- -------<br>--- --- -- ----- -- --- ---- -- --- ---- -- ------ ------<br>--- ----- -- ----,218528.49499997683,218527.30999997584,217730.194,217745.5600000103,217771.586,218530.211,,11,wisdom
screen,html.Screen,1_1_0_1_12,2021-04-18T10:17:12.488Z,,,,,,,,,,,,,,,,53,,,,,,,,,,,,,,490.0339999633143,,response,,,,99,,,,,,,Space,keypress(Space),,,,,,,,---- -- ----- -- ------ - ------- --- ----------<br>------------- ------ ------ says ---- ------- ----- -- ----<br>-------- ------- -- ---------- --- - --- ----- ----- ----<br>---- --- --- ----- --- ---- ---- ------- ----- ---- -------<br>--- --- -- ----- -- --- ---- -- --- ---- -- ------ ------<br>--- ----- -- ----,219021.43500000238,219020.24499996332,218514.137,218528.6999999662,218530.211,219030.261,,12,says
screen,html.Screen,1_1_0_1_13,2021-04-18T10:17:12.916Z,,,,,,,,,,,,,,,,53,,,,,,,,,,,,,,418.3789999586879,,response,,,,99,,,,,,,Space,keypress(Space),,,,,,,,---- -- ----- -- ------ - ------- --- ----------<br>------------- ------ ------ ---- that ------- ----- -- ----<br>-------- ------- -- ---------- --- - --- ----- ----- ----<br>---- --- --- ----- --- ---- ---- ------- ----- ---- -------<br>--- --- -- ----- -- --- ---- -- --- ---- -- ------ ------<br>--- ----- -- ----,219449.84499999555,219448.6399999587,219014.031,219021.63999999175,219030.261,219464.117,,13,that
screen,html.Screen,1_1_0_1_14,2021-04-18T10:17:13.270Z,,,,,,,,,,,,,,,,53,,,,,,,,,,,,,,338.3829999906884,,response,,,,99,,,,,,,Space,keypress(Space),,,,,,,,---- -- ----- -- ------ - ------- --- ----------<br>------------- ------ ------ ---- ---- feeling ----- -- ----<br>-------- ------- -- ---------- --- - --- ----- ----- ----<br>---- --- --- ----- --- ---- ---- ------- ----- ---- -------<br>--- --- -- ----- -- --- ---- -- --- ---- -- ------ ------<br>--- ----- -- ----,219803.7749999785,219802.4999999907,219447.708,219450.06000000285,219464.117,219813.641,,14,feeling
screen,html.Screen,1_1_0_1_15,2021-04-18T10:17:14.077Z,,,,,,,,,,,,,,,,53,,,,,,,,,,,,,,795.5689999659662,,response,,,,99,,,,,,,Space,keypress(Space),,,,,,,,---- -- ----- -- ------ - ------- --- ----------<br>------------- ------ ------ ---- ---- ------- close -- ----<br>-------- ------- -- ---------- --- - --- ----- ----- ----<br>---- --- --- ----- --- ---- ---- ------- ----- ---- -------<br>--- --- -- ----- -- --- ---- -- --- ---- -- ------ ------<br>--- ----- -- ----,220610.4499999783,220609.20999996597,219797.587,219803.97999996785,219813.641,220613.838,,15,close
screen,html.Screen,1_1_0_1_16,2021-04-18T10:17:14.505Z,,,,,,,,,,,,,,,,53,,,,,,,,,,,,,,423.4719999851659,,response,,,,99,,,,,,,Space,keypress(Space),,,,,,,,---- -- ----- -- ------ - ------- --- ----------<br>------------- ------ ------ ---- ---- ------- ----- to ----<br>-------- ------- -- ---------- --- - --- ----- ----- ----<br>---- --- --- ----- --- ---- ---- ------- ----- ---- -------<br>--- --- -- ----- -- --- ---- -- --- ---- -- ------ ------<br>--- ----- -- ----,221038.47500000848,221037.30999998515,220598.159,220610.68499996327,220613.838,221049.779,,16,to
screen,html.Screen,1_1_0_1_17,2021-04-18T10:17:15.022Z,,,,,,,,,,,,,,,,53,,,,,,,,,,,,,,504.860999987548,,response,,,,99,,,,,,,Space,keypress(Space),,,,,,,,---- -- ----- -- ------ - ------- --- ----------<br>------------- ------ ------ ---- ---- ------- ----- -- your<br>-------- ------- -- ---------- --- - --- ----- ----- ----<br>---- --- --- ----- --- ---- ---- ------- ----- ---- -------<br>--- --- -- ----- -- --- ---- -- --- ---- -- ------ ------<br>--- ----- -- ----,221555.79499999294,221554.63999998756,221030.802,221038.67999999784,221049.779,221563.771,,17,your
screen,html.Screen,1_1_0_1_18,2021-04-18T10:17:15.875Z,,,,,,,,,,,,,,,,53,,,,,,,,,,,,,,843.5789999940316,,response,,,,99,,,,,,,Space,keypress(Space),,,,,,,,---- -- ----- -- ------ - ------- --- ----------<br>------------- ------ ------ ---- ---- ------- ----- -- ----<br>romantic ------- -- ---------- --- - --- ----- ----- ----<br>---- --- --- ----- --- ---- ---- ------- ----- ---- -------<br>--- --- -- ----- -- --- ---- -- --- ---- -- ------ ------<br>--- ----- -- ----,222408.5099999793,222407.34999999404,221547.075,221556.01000000024,221563.771,222413.777,,18,romantic
screen,html.Screen,1_1_0_1_19,2021-04-18T10:17:16.403Z,,,,,,,,,,,,,,,,53,,,,,,,,,,,,,,521.3380000002217,,response,,,,99,,,,,,,Space,keypress(Space),,,,,,,,---- -- ----- -- ------ - ------- --- ----------<br>------------- ------ ------ ---- ---- ------- ----- -- ----<br>-------- partner -- ---------- --- - --- ----- ----- ----<br>---- --- --- ----- --- ---- ---- ------- ----- ---- -------<br>--- --- -- ----- -- --- ---- -- --- ---- -- ------ ------<br>--- ----- -- ----,222936.2850000034,222935.11500000022,222397.552,222408.72999996645,222413.777,222947.124,,19,partner
screen,html.Screen,1_1_0_1_20,2021-04-18T10:17:16.910Z,,,,,,,,,,,,,,,,53,,,,,,,,,,,,,,495.16599997720914,,response,,,,99,,,,,,,Space,keypress(Space),,,,,,,,---- -- ----- -- ------ - ------- --- ----------<br>------------- ------ ------ ---- ---- ------- ----- -- ----<br>-------- ------- is ---------- --- - --- ----- ----- ----<br>---- --- --- ----- --- ---- ---- ------- ----- ---- -------<br>--- --- -- ----- -- --- ---- -- --- ---- -- ------ ------<br>--- ----- -- ----,223443.46499996027,223442.28999997722,222930.858,222936.49499997264,222947.124,223447.499,,20,is
screen,html.Screen,1_1_0_1_21,2021-04-18T10:17:17.558Z,,,,,,,,,,,,,,,,53,,,,,,,,,,,,,,643.2659999717143,,response,,,,99,,,,,,,Space,keypress(Space),,,,,,,,---- -- ----- -- ------ - ------- --- ----------<br>------------- ------ ------ ---- ---- ------- ----- -- ----<br>-------- ------- -- paramount. --- - --- ----- ----- ----<br>---- --- --- ----- --- ---- ---- ------- ----- ---- -------<br>--- --- -- ----- -- --- ---- -- --- ---- -- ------ ------<br>--- ----- -- ----,224091.58000000753,224090.76499997173,223430.451,223443.67999996757,223447.499,224097.178,,21,paramount.
screen,html.Screen,1_1_0_1_22,2021-04-18T10:17:18.126Z,,,,,,,,,,,,,,,,53,,,,,,,,,,,,,,561.201999978919,,response,,,,99,,,,,,,Space,keypress(Space),,,,,,,,---- -- ----- -- ------ - ------- --- ----------<br>------------- ------ ------ ---- ---- ------- ----- -- ----<br>-------- ------- -- ---------- But - --- ----- ----- ----<br>---- --- --- ----- --- ---- ---- ------- ----- ---- -------<br>--- --- -- ----- -- --- ---- -- --- ---- -- ------ ------<br>--- ----- -- ----,224659.68499996234,224658.37999997893,224080.528,224091.77499997895,224097.178,224664.39,,22,But
screen,html.Screen,1_1_0_1_23,2021-04-18T10:17:18.594Z,,,,,,,,,,,,,,,,53,,,,,,,,,,,,,,462.1049999749521,,response,,,,99,,,,,,,Space,keypress(Space),,,,,,,,---- -- ----- -- ------ - ------- --- ----------<br>------------- ------ ------ ---- ---- ------- ----- -- ----<br>-------- ------- -- ---------- --- a --- ----- ----- ----<br>---- --- --- ----- --- ---- ---- ------- ----- ---- -------<br>--- --- -- ----- -- --- ---- -- --- ---- -- ------ ------<br>--- ----- -- ----,225127.67000001622,225126.49499997497,224647.195,224659.89499998977,224664.39,225130.57,,23,a
screen,html.Screen,1_1_0_1_24,2021-04-18T10:17:19.406Z,,,,,,,,,,,,,,,,53,,,,,,,,,,,,,,807.2049999985029,,response,,,,99,,,,,,,Space,keypress(Space),,,,,,,,---- -- ----- -- ------ - ------- --- ----------<br>------------- ------ ------ ---- ---- ------- ----- -- ----<br>-------- ------- -- ---------- --- - new ----- ----- ----<br>---- --- --- ----- --- ---- ---- ------- ----- ---- -------<br>--- --- -- ----- -- --- ---- -- --- ---- -- ------ ------<br>--- ----- -- ----,225938.95499996142,225937.7749999985,225114.316,225127.8750000056,225130.57,225947.259,,24,new
screen,html.Screen,1_1_0_1_25,2021-04-18T10:17:19.899Z,,,,,,,,,,,,,,,,53,,,,,,,,,,,,,,483.51600001528277,,response,,,,99,,,,,,,Space,keypress(Space),,,,,,,,---- -- ----- -- ------ - ------- --- ----------<br>------------- ------ ------ ---- ---- ------- ----- -- ----<br>-------- ------- -- ---------- --- - --- study ----- ----<br>---- --- --- ----- --- ---- ---- ------- ----- ---- -------<br>--- --- -- ----- -- --- ---- -- --- ---- -- ------ ------<br>--- ----- -- ----,226431.92999996245,226430.77500001527,225931.004,225939.160000009,225947.259,226447.763,,25,study
screen,html.Screen,1_1_0_1_26,2021-04-18T10:17:20.358Z,,,,,,,,,,,,,,,,53,,,,,,,,,,,,,,442.0169999685895,,response,,,,99,,,,,,,Space,keypress(Space),,,,,,,,---- -- ----- -- ------ - ------- --- ----------<br>------------- ------ ------ ---- ---- ------- ----- -- ----<br>-------- ------- -- ---------- --- - --- ----- finds ----<br>---- --- --- ----- --- ---- ---- ------- ----- ---- -------<br>--- --- -- ----- -- --- ---- -- --- ---- -- ------ ------<br>--- ----- -- ----,226891.01500000106,226889.7799999686,226430.652,226432.14499996975,226447.763,226897.308,,26,finds
screen,html.Screen,1_1_0_1_27,2021-04-18T10:17:20.890Z,,,,,,,,,,,,,,,,53,,,,,,,,,,,,,,524.6119999934162,,response,,,,99,,,,,,,Space,keypress(Space),,,,,,,,---- -- ----- -- ------ - ------- --- ----------<br>------------- ------ ------ ---- ---- ------- ----- -- ----<br>-------- ------- -- ---------- --- - --- ----- ----- that<br>---- --- --- ----- --- ---- ---- ------- ----- ---- -------<br>--- --- -- ----- -- --- ---- -- --- ---- -- ------ ------<br>--- ----- -- ----,227423.07999997865,227421.9199999934,226880.661,226891.21999999043,226897.308,227430.662,,27,that
screen,html.Screen,1_1_0_1_28,2021-04-18T10:17:21.404Z,,,,,,,,,,,,,,,,53,,,,,,,,,,,,,,505.58299998985603,,response,,,,99,,,,,,,Space,keypress(Space),,,,,,,,---- -- ----- -- ------ - ------- --- ----------<br>------------- ------ ------ ---- ---- ------- ----- -- ----<br>-------- ------- -- ---------- --- - --- ----- ----- ----<br>it's --- --- ----- --- ---- ---- ------- ----- ---- -------<br>--- --- -- ----- -- --- ---- -- --- ---- -- ------ ------<br>--- ----- -- ----,227937.425000011,227936.24499998987,227414.016,227423.2900000061,227430.662,227947.335,,28,it's
screen,html.Screen,1_1_0_1_29,2021-04-18T10:17:21.794Z,,,,,,,,,,,,,,,,53,,,,,,,,,,,,,,376.11499996713246,,response,,,,99,,,,,,,Space,keypress(Space),,,,,,,,---- -- ----- -- ------ - ------- --- ----------<br>------------- ------ ------ ---- ---- ------- ----- -- ----<br>-------- ------- -- ---------- --- - --- ----- ----- ----<br>---- not --- ----- --- ---- ---- ------- ----- ---- -------<br>--- --- -- ----- -- --- ---- -- --- ---- -- ------ ------<br>--- ----- -- ----,228326.9250000012,228323.44999996712,227931.118,227937.63000000035,227947.335,228331.982,,29,not
screen,html.Screen,1_1_0_1_30,2021-04-18T10:17:22.156Z,,,,,,,,,,,,,,,,53,,,,,,,,,,,,,,355.83799999192706,,response,,,,99,,,,,,,Space,keypress(Space),,,,,,,,---- -- ----- -- ------ - ------- --- ----------<br>------------- ------ ------ ---- ---- ------- ----- -- ----<br>-------- ------- -- ---------- --- - --- ----- ----- ----<br>---- --- how ----- --- ---- ---- ------- ----- ---- -------<br>--- --- -- ----- -- --- ---- -- --- ---- -- ------ ------<br>--- ----- -- ----,228689.24500001594,228687.81999999192,228314.1,228327.21499999752,228331.982,228697.451,,30,how
screen,html.Screen,1_1_0_1_31,2021-04-18T10:17:22.573Z,,,,,,,,,,,,,,,,53,,,,,,,,,,,,,,408.0040000117151,,response,,,,99,,,,,,,Space,keypress(Space),,,,,,,,---- -- ----- -- ------ - ------- --- ----------<br>------------- ------ ------ ---- ---- ------- ----- -- ----<br>-------- ------- -- ---------- --- - --- ----- ----- ----<br>---- --- --- close --- ---- ---- ------- ----- ---- -------<br>--- --- -- ----- -- --- ---- -- --- ---- -- ------ ------<br>--- ----- -- ----,229106.61499999696,229105.45500001172,228681.393,228689.43999998737,228697.451,229114.032,,31,close
screen,html.Screen,1_1_0_1_32,2021-04-18T10:17:22.962Z,,,,,,,,,,,,,,,,53,,,,,,,,,,,,,,379.8979999969015,,response,,,,99,,,,,,,Space,keypress(Space),,,,,,,,---- -- ----- -- ------ - ------- --- ----------<br>------------- ------ ------ ---- ---- ------- ----- -- ----<br>-------- ------- -- ---------- --- - --- ----- ----- ----<br>---- --- --- ----- you ---- ---- ------- ----- ---- -------<br>--- --- -- ----- -- --- ---- -- --- ---- -- ------ ------<br>--- ----- -- ----,229495.10499997996,229493.9299999969,229097.454,229106.81500000646,229114.032,229497.394,,32,you
screen,html.Screen,1_1_0_1_33,2021-04-18T10:17:23.297Z,,,,,,,,,,,,,,,,53,,,,,,,,,,,,,,331.8309999940393,,response,,,,99,,,,,,,Space,keypress(Space),,,,,,,,---- -- ----- -- ------ - ------- --- ----------<br>------------- ------ ------ ---- ---- ------- ----- -- ----<br>-------- ------- -- ---------- --- - --- ----- ----- ----<br>---- --- --- ----- --- feel ---- ------- ----- ---- -------<br>--- --- -- ----- -- --- ---- -- --- ---- -- ------ ------<br>--- ----- -- ----,229830.3849999793,229829.22499999404,229481.904,229495.29499997152,229497.394,229847.936,,33,feel
screen,html.Screen,1_1_0_1_34,2021-04-18T10:17:23.709Z,,,,,,,,,,,,,,,,53,,,,,,,,,,,,,,393.1290000092704,,response,,,,99,,,,,,,Space,keypress(Space),,,,,,,,---- -- ----- -- ------ - ------- --- ----------<br>------------- ------ ------ ---- ---- ------- ----- -- ----<br>-------- ------- -- ---------- --- - --- ----- ----- ----<br>---- --- --- ----- --- ---- that ------- ----- ---- -------<br>--- --- -- ----- -- --- ---- -- --- ---- -- ------ ------<br>--- ----- -- ----,230242.25000001024,230241.06500000926,229830.817,229831.97499997914,229847.936,230248.161,,34,that
screen,html.Screen,1_1_0_1_35,2021-04-18T10:17:24.128Z,,,,,,,,,,,,,,,,53,,,,,,,,,,,,,,411.75900000552065,,response,,,,99,,,,,,,Space,keypress(Space),,,,,,,,---- -- ----- -- ------ - ------- --- ----------<br>------------- ------ ------ ---- ---- ------- ----- -- ----<br>-------- ------- -- ---------- --- - --- ----- ----- ----<br>---- --- --- ----- --- ---- ---- matters ----- ---- -------<br>--- --- -- ----- -- --- ---- -- --- ---- -- ------ ------<br>--- ----- -- ----,230661.0600000131,230659.9200000055,230230.827,230242.52999998862,230248.161,230664.127,,35,matters
screen,html.Screen,1_1_0_1_36,2021-04-18T10:17:24.590Z,,,,,,,,,,,,,,,,53,,,,,,,,,,,,,,458.3229999661853,,response,,,,99,,,,,,,Space,keypress(Space),,,,,,,,"---- -- ----- -- ------ - ------- --- ----------<br>------------- ------ ------ ---- ---- ------- ----- -- ----<br>-------- ------- -- ---------- --- - --- ----- ----- ----<br>---- --- --- ----- --- ---- ---- ------- most, ---- -------<br>--- --- -- ----- -- --- ---- -- --- ---- -- ------ ------<br>--- ----- -- ----",231123.2500000042,231122.4499999662,230647.48,230661.305000016,230664.127,231130.964,,36,"most,"
screen,html.Screen,1_1_0_1_37,2021-04-18T10:17:25.099Z,,,,,,,,,,,,,,,,53,,,,,,,,,,,,,,499.9109999734501,,response,,,,99,,,,,,,Space,keypress(Space),,,,,,,,---- -- ----- -- ------ - ------- --- ----------<br>------------- ------ ------ ---- ---- ------- ----- -- ----<br>-------- ------- -- ---------- --- - --- ----- ----- ----<br>---- --- --- ----- --- ---- ---- ------- ----- it's -------<br>--- --- -- ----- -- --- ---- -- --- ---- -- ------ ------<br>--- ----- -- ----,231632.0199999609,231630.87499997346,231114.587,231123.44499997562,231130.964,231648.119,,37,it's
screen,html.Screen,1_1_0_1_38,2021-04-18T10:17:25.462Z,,,,,,,,,,,,,,,,53,,,,,,,,,,,,,,346.3209999803803,,response,,,,99,,,,,,,Space,keypress(Space),,,,,,,,---- -- ----- -- ------ - ------- --- ----------<br>------------- ------ ------ ---- ---- ------- ----- -- ----<br>-------- ------- -- ---------- --- - --- ----- ----- ----<br>---- --- --- ----- --- ---- ---- ------- ----- ---- whether<br>--- --- -- ----- -- --- ---- -- --- ---- -- ------ ------<br>--- ----- -- ----,231995.24499999825,231994.4399999804,231631.495,231632.2199999704,231648.119,231997.54,,38,whether
screen,html.Screen,1_1_0_1_39,2021-04-18T10:17:25.881Z,,,,,,,,,,,,,,,,53,,,,,,,,,,,,,,415.0550000015937,,response,,,,99,,,,,,,Space,keypress(Space),,,,,,,,---- -- ----- -- ------ - ------- --- ----------<br>------------- ------ ------ ---- ---- ------- ----- -- ----<br>-------- ------- -- ---------- --- - --- ----- ----- ----<br>---- --- --- ----- --- ---- ---- ------- ----- ---- -------<br>you --- -- ----- -- --- ---- -- --- ---- -- ------ ------<br>--- ----- -- ----,232413.8549999916,232412.5950000016,231980.91,231995.43999996968,231997.54,232431.029,,39,you
screen,html.Screen,1_1_0_1_40,2021-04-18T10:17:26.170Z,,,,,,,,,,,,,,,,53,,,,,,,,,,,,,,271.4109999645443,,response,,,,99,,,,,,,Space,keypress(Space),,,,,,,,---- -- ----- -- ------ - ------- --- ----------<br>------------- ------ ------ ---- ---- ------- ----- -- ----<br>-------- ------- -- ---------- --- - --- ----- ----- ----<br>---- --- --- ----- --- ---- ---- ------- ----- ---- -------<br>--- are -- ----- -- --- ---- -- --- ---- -- ------ ------<br>--- ----- -- ----,232703.5700000124,232702.43999996455,232414.256,232414.11999997217,232431.029,232714.824,,40,are
screen,html.Screen,1_1_0_1_41,2021-04-18T10:17:26.448Z,,,,,,,,,,,,,,,,53,,,,,,,,,,,,,,265.67099996705656,,response,,,,99,,,,,,,Space,keypress(Space),,,,,,,,---- -- ----- -- ------ - ------- --- ----------<br>------------- ------ ------ ---- ---- ------- ----- -- ----<br>-------- ------- -- ---------- --- - --- ----- ----- ----<br>---- --- --- ----- --- ---- ---- ------- ----- ---- -------<br>--- --- as ----- -- --- ---- -- --- ---- -- ------ ------<br>--- ----- -- ----,232981.32500000065,232980.49499996705,232697.991,232703.7699999637,232714.824,232998.05,,41,as
screen,html.Screen,1_1_0_1_42,2021-04-18T10:17:26.777Z,,,,,,,,,,,,,,,,53,,,,,,,,,,,,,,311.0699999908102,,response,,,,99,,,,,,,Space,keypress(Space),,,,,,,,---- -- ----- -- ------ - ------- --- ----------<br>------------- ------ ------ ---- ---- ------- ----- -- ----<br>-------- ------- -- ---------- --- - --- ----- ----- ----<br>---- --- --- ----- --- ---- ---- ------- ----- ---- -------<br>--- --- -- close -- --- ---- -- --- ---- -- ------ ------<br>--- ----- -- ----,233310.50500000129,233309.1199999908,232981.629,232981.52999999002,232998.05,233315.004,,42,close
screen,html.Screen,1_1_0_1_43,2021-04-18T10:17:27.057Z,,,,,,,,,,,,,,,,53,,,,,,,,,,,,,,273.8160000045027,,response,,,,99,,,,,,,Space,keypress(Space),,,,,,,,---- -- ----- -- ------ - ------- --- ----------<br>------------- ------ ------ ---- ---- ------- ----- -- ----<br>-------- ------- -- ---------- --- - --- ----- ----- ----<br>---- --- --- ----- --- ---- ---- ------- ----- ---- -------<br>--- --- -- ----- as --- ---- -- --- ---- -- ------ ------<br>--- ----- -- ----,233589.9999999674,233588.8200000045,233297.638,233310.69499999285,233315.004,233597.653,,43,as
screen,html.Screen,1_1_0_1_44,2021-04-18T10:17:27.410Z,,,,,,,,,,,,,,,,53,,,,,,,,,,,,,,344.696999968437,,response,,,,99,,,,,,,Space,keypress(Space),,,,,,,,---- -- ----- -- ------ - ------- --- ----------<br>------------- ------ ------ ---- ---- ------- ----- -- ----<br>-------- ------- -- ---------- --- - --- ----- ----- ----<br>---- --- --- ----- --- ---- ---- ------- ----- ---- -------<br>--- --- -- ----- -- you ---- -- --- ---- -- ------ ------<br>--- ----- -- ----,233943.51499999175,233942.34999996843,233581.521,233590.19499999704,233597.653,233948.414,,44,you
screen,html.Screen,1_1_0_1_45,2021-04-18T10:17:27.733Z,,,,,,,,,,,,,,,,53,,,,,,,,,,,,,,317.01099999051075,,response,,,,99,,,,,,,Space,keypress(Space),,,,,,,,---- -- ----- -- ------ - ------- --- ----------<br>------------- ------ ------ ---- ---- ------- ----- -- ----<br>-------- ------- -- ---------- --- - --- ----- ----- ----<br>---- --- --- ----- --- ---- ---- ------- ----- ---- -------<br>--- --- -- ----- -- --- want -- --- ---- -- ------ ------<br>--- ----- -- ----,234266.56999997795,234265.4249999905,233931.009,233943.7049999833,233948.414,234281.06,,45,want
screen,html.Screen,1_1_0_1_46,2021-04-18T10:17:28.167Z,,,,,,,,,,,,,,,,53,,,,,,,,,,,,,,418.42000001022825,,response,,,,99,,,,,,,Space,keypress(Space),,,,,,,,---- -- ----- -- ------ - ------- --- ----------<br>------------- ------ ------ ---- ---- ------- ----- -- ----<br>-------- ------- -- ---------- --- - --- ----- ----- ----<br>---- --- --- ----- --- ---- ---- ------- ----- ---- -------<br>--- --- -- ----- -- --- ---- to --- ---- -- ------ ------<br>--- ----- -- ----,234700.68999996874,234699.48000001023,234264.351,234266.7599999695,234281.06,234714.858,,46,to
screen,html.Screen,1_1_0_1_47,2021-04-18T10:17:28.590Z,,,,,,,,,,,,,,,,53,,,,,,,,,,,,,,407.57699996838346,,response,,,,99,,,,,,,Space,keypress(Space),,,,,,,,"---- -- ----- -- ------ - ------- --- ----------<br>------------- ------ ------ ---- ---- ------- ----- -- ----<br>-------- ------- -- ---------- --- - --- ----- ----- ----<br>---- --- --- ----- --- ---- ---- ------- ----- ---- -------<br>--- --- -- ----- -- --- ---- -- be, ---- -- ------ ------<br>--- ----- -- ----",235123.65999998292,235122.4349999684,234697.686,234700.88499999838,234714.858,235131.062,,47,"be,"
screen,html.Screen,1_1_0_1_48,2021-04-18T10:17:28.943Z,,,,,,,,,,,,,,,,53,,,,,,,,,,,,,,344.5779999605438,,response,,,,99,,,,,,,Space,keypress(Space),,,,,,,,---- -- ----- -- ------ - ------- --- ----------<br>------------- ------ ------ ---- ---- ------- ----- -- ----<br>-------- ------- -- ---------- --- - --- ----- ----- ----<br>---- --- --- ----- --- ---- ---- ------- ----- ---- -------<br>--- --- -- ----- -- --- ---- -- --- even -- ------ ------<br>--- ----- -- ----,235476.82499996154,235475.63999996055,235115.079,235123.85500001255,235131.062,235481.544,,48,even
screen,html.Screen,1_1_0_1_49,2021-04-18T10:17:29.283Z,,,,,,,,,,,,,,,,53,,,,,,,,,,,,,,332.8460000141058,,response,,,,99,,,,,,,Space,keypress(Space),,,,,,,,---- -- ----- -- ------ - ------- --- ----------<br>------------- ------ ------ ---- ---- ------- ----- -- ----<br>-------- ------- -- ---------- --- - --- ----- ----- ----<br>---- --- --- ----- --- ---- ---- ------- ----- ---- -------<br>--- --- -- ----- -- --- ---- -- --- ---- if ------ ------<br>--- ----- -- ----,235816.2499999744,235814.3900000141,235465.171,235477.0150000113,235481.544,235831.15,,49,if
screen,html.Screen,1_1_0_1_50,2021-04-18T10:17:29.617Z,,,,,,,,,,,,,,,,53,,,,,,,,,,,,,,317.6100000109582,,response,,,,99,,,,,,,Space,keypress(Space),,,,,,,,---- -- ----- -- ------ - ------- --- ----------<br>------------- ------ ------ ---- ---- ------- ----- -- ----<br>-------- ------- -- ---------- --- - --- ----- ----- ----<br>---- --- --- ----- --- ---- ---- ------- ----- ---- -------<br>--- --- -- ----- -- --- ---- -- --- ---- -- that's ------<br>--- ----- -- ----,236149.9499999918,236148.76000001095,235814.838,235816.48499995936,235831.15,236164.514,,50,that's
screen,html.Screen,1_1_0_1_51,2021-04-18T10:17:29.970Z,,,,,,,,,,,,,,,,53,,,,,,,,,,,,,,337.47599996064673,,response,,,,99,,,,,,,Space,keypress(Space),,,,,,,,---- -- ----- -- ------ - ------- --- ----------<br>------------- ------ ------ ---- ---- ------- ----- -- ----<br>-------- ------- -- ---------- --- - --- ----- ----- ----<br>---- --- --- ----- --- ---- ---- ------- ----- ---- -------<br>--- --- -- ----- -- --- ---- -- --- ---- -- ------ really<br>--- ----- -- ----,236503.1050000107,236501.98999996064,236147.774,236150.14499996323,236164.514,236514.45,,51,really
screen,html.Screen,1_1_0_1_52,2021-04-18T10:17:30.373Z,,,,,,,,,,,,,,,,53,,,,,,,,,,,,,,390.74499999935506,,response,,,,99,,,,,,,Space,keypress(Space),,,,,,,,---- -- ----- -- ------ - ------- --- ----------<br>------------- ------ ------ ---- ---- ------- ----- -- ----<br>-------- ------- -- ---------- --- - --- ----- ----- ----<br>---- --- --- ----- --- ---- ---- ------- ----- ---- -------<br>--- --- -- ----- -- --- ---- -- --- ---- -- ------ ------<br>not ----- -- ----,236906.3399999868,236905.19499999937,236498.498,236503.29500000225,236514.45,236914.461,,52,not
screen,html.Screen,1_1_0_1_53,2021-04-18T10:17:30.777Z,,,,,,,,,,,,,,,,53,,,,,,,,,,,,,,394.81400000688154,,response,,,,99,,,,,,,Space,keypress(Space),,,,,,,,---- -- ----- -- ------ - ------- --- ----------<br>------------- ------ ------ ---- ---- ------- ----- -- ----<br>-------- ------- -- ---------- --- - --- ----- ----- ----<br>---- --- --- ----- --- ---- ---- ------- ----- ---- -------<br>--- --- -- ----- -- --- ---- -- --- ---- -- ------ ------<br>--- close -- ----,237310.38999999873,237309.2750000069,236898.554,236906.5399999963,236914.461,237314.95,,53,close
screen,html.Screen,1_1_0_1_54,2021-04-18T10:17:31.166Z,,,,,,,,,,,,,,,,53,,,,,,,,,,,,,,382.86499996314524,,response,,,,99,,,,,,,Space,keypress(Space),,,,,,,,---- -- ----- -- ------ - ------- --- ----------<br>------------- ------ ------ ---- ---- ------- ----- -- ----<br>-------- ------- -- ---------- --- - --- ----- ----- ----<br>---- --- --- ----- --- ---- ---- ------- ----- ---- -------<br>--- --- -- ----- -- --- ---- -- --- ---- -- ------ ------<br>--- ----- at ----,237698.95499997074,237697.81499996316,237298.214,237310.5799999903,237314.95,237714.982,,54,at
screen,html.Screen,1_1_0_1_55,2021-04-18T10:17:31.764Z,,,,,,,,,,,,,,,,53,,,,,,,,,,,,,,580.9679999997315,,response,,,,99,,,,,,,Space,keypress(Space),,,,,,,,---- -- ----- -- ------ - ------- --- ----------<br>------------- ------ ------ ---- ---- ------- ----- -- ----<br>-------- ------- -- ---------- --- - --- ----- ----- ----<br>---- --- --- ----- --- ---- ---- ------- ----- ---- -------<br>--- --- -- ----- -- --- ---- -- --- ---- -- ------ ------<br>--- ----- -- all.,238297.09999996703,238295.94999999972,237698.226,237699.1449999623,237714.982,238314.502,,55,all.
Item 99,flow.Loop,1_1_0_1,2021-04-18T10:17:31.764Z,,,,,,,,,,,,,,,,,,,,,,,,,,,,,,27832.74799999973,,completion,,,,,E,,,,,,,,,,,silence,,,,,238297.46999999043,238295.94999999972,210430.001,210432.17499996535,210463.202,238314.502,,,
Question 1,html.Screen,1_1_0_2,2021-04-18T10:17:35.450Z,,,,,,,,,,,,,,,,,,,,,,,,,,,false,FALSE,,3667.24299999731,,response,,,,99,E,,,,,,TRUE,click #choice-1,,,,silence,,,,,241983.1450000056,241981.74499999732,238281.989,238297.63499996625,238314.502,241998.489,,,
Question 2,html.Screen,1_1_0_3,2021-04-18T10:17:41.011Z,,,,,,,,,,,,,,,,,,,,,,,,,,,true,TRUE,,5543.840999967477,,response,,,,99,E,,,,,,TRUE,click #choice-1,,,,silence,,,,,247543.8950000098,247542.32999996748,241981.796,241983.34999999497,241998.489,247548.263,,,
Item 99,flow.Sequence,1_1_0,2021-04-18T10:17:41.011Z,,,,,,,,,,,,,,,,,,,,,,,,,,,,,,47095.72399996748,,completion,,,,,,,,,,,,,,,,,,,,,247544.1850000061,247542.32999996748,200429.592,200436.69000000227,200446.606,247548.263,,,
Holding screen,html.Screen,1_1_1_0,2021-04-18T10:17:51.000Z,,,,,,,,,,,,,,,,,,,,,,,,,,,,,,10000.391999999993,,timeout,,,,,,,,,,,,,,,,,,,,,257533.31999998773,257532.044,247532.082,247544.3850000156,247548.263,257548.655,,,
screen,html.Screen,1_1_1_1_0,2021-04-18T10:17:51.980Z,,,,,,,,,,,,,,,,54,,,,,,,,,,,,,,962.76499999527,,response,,,,100,,,,,,,Space,keypress(Space),,,,,,,,At --- ---- --- ------ ----- ------- ---- -- --- ------- --<br>------- ---------- ------ -- ----- -- ----- -- ---- ------<br>--- ----- --- --- ------ -------- ----- --- ------ ----- --<br>----- ----- ---------- --- --- ------ ------ ---- -- ------<br>------- --- ------ ----- --- ---- ------- -- ---- --- --<br>------- ------,258512.9650000017,258511.41999999527,257532.044,257533.56000001077,257548.655,258515.414,,0,At
screen,html.Screen,1_1_1_1_1,2021-04-18T10:17:52.467Z,,,,,,,,,,,,,,,,54,,,,,,,,,,,,,,484.25100001029205,,response,,,,100,,,,,,,Space,keypress(Space),,,,,,,,-- the ---- --- ------ ----- ------- ---- -- --- ------- --<br>------- ---------- ------ -- ----- -- ----- -- ---- ------<br>--- ----- --- --- ------ -------- ----- --- ------ ----- --<br>----- ----- ---------- --- --- ------ ------ ---- -- ------<br>------- --- ------ ----- --- ---- ------- -- ---- --- --<br>------- ------,259000.69999997504,258999.66500001028,258498.742,258513.15999997314,258515.414,259015.45,,1,the
screen,html.Screen,1_1_1_1_2,2021-04-18T10:17:53.145Z,,,,,,,,,,,,,,,,54,,,,,,,,,,,,,,661.6049999782699,,response,,,,100,,,,,,,Space,keypress(Space),,,,,,,,-- --- time --- ------ ----- ------- ---- -- --- ------- --<br>------- ---------- ------ -- ----- -- ----- -- ---- ------<br>--- ----- --- --- ------ -------- ----- --- ------ ----- --<br>----- ----- ---------- --- --- ------ ------ ---- -- ------<br>------- --- ------ ----- --- ---- ------- -- ---- --- --<br>------- ------,259678.27500001295,259677.05499997828,258999.207,259000.88000000687,259015.45,259682.943,,2,time
screen,html.Screen,1_1_1_1_3,2021-04-18T10:17:53.622Z,,,,,,,,,,,,,,,,54,,,,,,,,,,,,,,471.2070000166714,,response,,,,100,,,,,,,Space,keypress(Space),,,,,,,,-- --- ---- the ------ ----- ------- ---- -- --- ------- --<br>------- ---------- ------ -- ----- -- ----- -- ---- ------<br>--- ----- --- --- ------ -------- ----- --- ------ ----- --<br>----- ----- ---------- --- --- ------ ------ ---- -- ------<br>------- --- ------ ----- --- ---- ------- -- ---- --- --<br>------- ------,260155.22499999497,260154.15000001667,259665.486,259678.53500001365,259682.943,260165.504,,3,the
screen,html.Screen,1_1_1_1_4,2021-04-18T10:17:54.299Z,,,,,,,,,,,,,,,,54,,,,,,,,,,,,,,665.9909999912779,,response,,,,100,,,,,,,Space,keypress(Space),,,,,,,,-- --- ---- --- French ----- ------- ---- -- --- ------- --<br>------- ---------- ------ -- ----- -- ----- -- ---- ------<br>--- ----- --- --- ------ -------- ----- --- ------ ----- --<br>----- ----- ---------- --- --- ------ ------ ---- -- ------<br>------- --- ------ ----- --- ---- ------- -- ---- --- --<br>------- ------,260832.54500001203,260831.49499999126,260149.265,260155.41000000667,260165.504,260849.244,,4,French
screen,html.Screen,1_1_1_1_5,2021-04-18T10:17:54.882Z,,,,,,,,,,,,,,,,54,,,,,,,,,,,,,,564.9810000149882,,response,,,,100,,,,,,,Space,keypress(Space),,,,,,,,-- --- ---- --- ------ crown ------- ---- -- --- ------- --<br>------- ---------- ------ -- ----- -- ----- -- ---- ------<br>--- ----- --- --- ------ -------- ----- --- ------ ----- --<br>----- ----- ---------- --- --- ------ ------ ---- -- ------<br>------- --- ------ ----- --- ---- ------- -- ---- --- --<br>------- ------,261415.24499998195,261414.225000015,260833.023,260832.72999996552,260849.244,261432.32,,5,crown
screen,html.Screen,1_1_1_1_6,2021-04-18T10:17:55.704Z,,,,,,,,,,,,,,,,54,,,,,,,,,,,,,,803.6399999617715,,response,,,,100,,,,,,,Space,keypress(Space),,,,,,,,-- --- ---- --- ------ ----- secured ---- -- --- ------- --<br>------- ---------- ------ -- ----- -- ----- -- ---- ------<br>--- ----- --- --- ------ -------- ----- --- ------ ----- --<br>----- ----- ---------- --- --- ------ ------ ---- -- ------<br>------- --- ------ ----- --- ---- ------- -- ---- --- --<br>------- ------,262237.0349999983,262235.9599999618,261415.569,261415.4349999735,261432.32,262248.974,,6,secured
screen,html.Screen,1_1_1_1_7,2021-04-18T10:17:56.243Z,,,,,,,,,,,,,,,,54,,,,,,,,,,,,,,525.7459999867133,,response,,,,100,,,,,,,Space,keypress(Space),,,,,,,,-- --- ---- --- ------ ----- ------- much -- --- ------- --<br>------- ---------- ------ -- ----- -- ----- -- ---- ------<br>--- ----- --- --- ------ -------- ----- --- ------ ----- --<br>----- ----- ---------- --- --- ------ ------ ---- -- ------<br>------- --- ------ ----- --- ---- ------- -- ---- --- --<br>------- ------,262775.8700000122,262774.7199999867,262232.888,262237.22499998985,262248.974,262782.274,,7,much
screen,html.Screen,1_1_1_1_8,2021-04-18T10:17:56.680Z,,,,,,,,,,,,,,,,54,,,,,,,,,,,,,,429.91599999112077,,response,,,,100,,,,,,,Space,keypress(Space),,,,,,,,-- --- ---- --- ------ ----- ------- ---- of --- ------- --<br>------- ---------- ------ -- ----- -- ----- -- ---- ------<br>--- ----- --- --- ------ -------- ----- --- ------ ----- --<br>----- ----- ---------- --- --- ------ ------ ---- -- ------<br>------- --- ------ ----- --- ---- ------- -- ---- --- --<br>------- ------,263213.37999997195,263212.1899999911,262765.629,262776.06499998365,262782.274,263215.62,,8,of
screen,html.Screen,1_1_1_1_9,2021-04-18T10:17:57.030Z,,,,,,,,,,,,,,,,54,,,,,,,,,,,,,,345.9950000132667,,response,,,,100,,,,,,,Space,keypress(Space),,,,,,,,-- --- ---- --- ------ ----- ------- ---- -- its ------- --<br>------- ---------- ------ -- ----- -- ----- -- ---- ------<br>--- ----- --- --- ------ -------- ----- --- ------ ----- --<br>----- ----- ---------- --- --- ------ ------ ---- -- ------<br>------- --- ------ ----- --- ---- ------- -- ---- --- --<br>------- ------,263562.86000000546,263561.61500001326,263199.381,263213.65499997046,263215.62,263565.629,,9,its
screen,html.Screen,1_1_1_1_10,2021-04-18T10:17:57.508Z,,,,,,,,,,,,,,,,54,,,,,,,,,,,,,,474.1359999940614,,response,,,,100,,,,,,,Space,keypress(Space),,,,,,,,-- --- ---- --- ------ ----- ------- ---- -- --- revenue --<br>------- ---------- ------ -- ----- -- ----- -- ---- ------<br>--- ----- --- --- ------ -------- ----- --- ------ ----- --<br>----- ----- ---------- --- --- ------ ------ ---- -- ------<br>------- --- ------ ----- --- ---- ------- -- ---- --- --<br>------- ------,264040.94999999506,264039.7649999941,263548.966,263563.04499995895,263565.629,264049.055,,10,revenue
screen,html.Screen,1_1_1_1_11,2021-04-18T10:17:58.136Z,,,,,,,,,,,,,,,,54,,,,,,,,,,,,,,619.0399999718065,,response,,,,100,,,,,,,Space,keypress(Space),,,,,,,,-- --- ---- --- ------ ----- ------- ---- -- --- ------- by<br>------- ---------- ------ -- ----- -- ----- -- ---- ------<br>--- ----- --- --- ------ -------- ----- --- ------ ----- --<br>----- ----- ---------- --- --- ------ ------ ---- -- ------<br>------- --- ------ ----- --- ---- ------- -- ---- --- --<br>------- ------,264669.27000001306,264668.0949999718,264032.631,264041.13500000676,264049.055,264682.869,,11,by
screen,html.Screen,1_1_1_1_12,2021-04-18T10:17:58.971Z,,,,,,,,,,,,,,,,54,,,,,,,,,,,,,,820.2009999770089,,response,,,,100,,,,,,,Space,keypress(Space),,,,,,,,-- --- ---- --- ------ ----- ------- ---- -- --- ------- --<br>issuing ---------- ------ -- ----- -- ----- -- ---- ------<br>--- ----- --- --- ------ -------- ----- --- ------ ----- --<br>----- ----- ---------- --- --- ------ ------ ---- -- ------<br>------- --- ------ ----- --- ---- ------- -- ---- --- --<br>------- ------,265504.22999996226,265503.069999977,264666.203,264669.4600000046,264682.869,265515.752,,12,issuing
screen,html.Screen,1_1_1_1_13,2021-04-18T10:17:59.415Z,,,,,,,,,,,,,,,,54,,,,,,,,,,,,,,431.3280000126688,,response,,,,100,,,,,,,Space,keypress(Space),,,,,,,,-- --- ---- --- ------ ----- ------- ---- -- --- ------- --<br>------- government ------ -- ----- -- ----- -- ---- ------<br>--- ----- --- --- ------ -------- ----- --- ------ ----- --<br>----- ----- ---------- --- --- ------ ------ ---- -- ------<br>------- --- ------ ----- --- ---- ------- -- ---- --- --<br>------- ------,265948.219999962,265947.08000001265,265499.868,265504.4099999941,265515.752,265966.538,,13,government
screen,html.Screen,1_1_1_1_14,2021-04-18T10:18:04.769Z,,,,,,,,,,,,,,,,54,,,,,,,,,,,,,,5334.821999983105,,response,,,,100,,,,,,,Space,keypress(Space),,,,,,,,-- --- ---- --- ------ ----- ------- ---- -- --- ------- --<br>------- ---------- bonds. -- ----- -- ----- -- ---- ------<br>--- ----- --- --- ------ -------- ----- --- ------ ----- --<br>----- ----- ---------- --- --- ------ ------ ---- -- ------<br>------- --- ------ ----- --- ---- ------- -- ---- --- --<br>------- ------,271302.47499997495,271301.3599999831,265932.905,265948.4049999737,265966.538,271316.935,,14,bonds.
screen,html.Screen,1_1_1_1_15,2021-04-18T10:18:06.348Z,,,,,,,,,,,,,,,,54,,,,,,,,,,,,,,1562.844999959285,,response,,,,100,,,,,,,Space,keypress(Space),,,,,,,,-- --- ---- --- ------ ----- ------- ---- -- --- ------- --<br>------- ---------- ------ In ----- -- ----- -- ---- ------<br>--- ----- --- --- ------ -------- ----- --- ------ ----- --<br>----- ----- ---------- --- --- ------ ------ ---- -- ------<br>------- --- ------ ----- --- ---- ------- -- ---- --- --<br>------- ------,272880.93499996467,272879.7799999593,271299.415,271302.6550000068,271316.935,272882.723,,15,In
screen,html.Screen,1_1_1_1_16,2021-04-18T10:18:06.994Z,,,,,,,,,,,,,,,,54,,,,,,,,,,,,,,643.6919999711681,,response,,,,100,,,,,,,Space,keypress(Space),,,,,,,,"-- --- ---- --- ------ ----- ------- ---- -- --- ------- --<br>------- ---------- ------ -- 1727, -- ----- -- ---- ------<br>--- ----- --- --- ------ -------- ----- --- ------ ----- --<br>----- ----- ---------- --- --- ------ ------ ---- -- ------<br>------- --- ------ ----- --- ---- ------- -- ---- --- --<br>------- ------",273527.5600000168,273526.41499997117,272865.993,272881.11999997636,272882.723,273532.791,,16,"1727,"
screen,html.Screen,1_1_1_1_17,2021-04-18T10:18:07.552Z,,,,,,,,,,,,,,,,54,,,,,,,,,,,,,,551.4639999942738,,response,,,,100,,,,,,,Space,keypress(Space),,,,,,,,-- --- ---- --- ------ ----- ------- ---- -- --- ------- --<br>------- ---------- ------ -- ----- in ----- -- ---- ------<br>--- ----- --- --- ------ -------- ----- --- ------ ----- --<br>----- ----- ---------- --- --- ------ ------ ---- -- ------<br>------- --- ------ ----- --- ---- ------- -- ---- --- --<br>------- ------,274085.4699999909,274084.2549999943,273516.118,273527.7350000106,273532.791,274099.637,,17,in
screen,html.Screen,1_1_1_1_18,2021-04-18T10:18:08.087Z,,,,,,,,,,,,,,,,54,,,,,,,,,,,,,,519.0329999962123,,response,,,,100,,,,,,,Space,keypress(Space),,,,,,,,-- --- ---- --- ------ ----- ------- ---- -- --- ------- --<br>------- ---------- ------ -- ----- -- order -- ---- ------<br>--- ----- --- --- ------ -------- ----- --- ------ ----- --<br>----- ----- ---------- --- --- ------ ------ ---- -- ------<br>------- --- ------ ----- --- ---- ------- -- ---- --- --<br>------- ------,274619.8499999591,274618.6699999962,274082.842,274085.6499999645,274099.637,274632.968,,18,order
screen,html.Screen,1_1_1_1_19,2021-04-18T10:18:08.474Z,,,,,,,,,,,,,,,,54,,,,,,,,,,,,,,373.33200000820216,,response,,,,100,,,,,,,Space,keypress(Space),,,,,,,,-- --- ---- --- ------ ----- ------- ---- -- --- ------- --<br>------- ---------- ------ -- ----- -- ----- to ---- ------<br>--- ----- --- --- ------ -------- ----- --- ------ ----- --<br>----- ----- ---------- --- --- ------ ------ ---- -- ------<br>------- --- ------ ----- --- ---- ------- -- ---- --- --<br>------- ------,275007.4550000136,275006.3000000082,274616.949,274620.02999999095,274632.968,275016.169,,19,to
screen,html.Screen,1_1_1_1_20,2021-04-18T10:18:09.231Z,,,,,,,,,,,,,,,,54,,,,,,,,,,,,,,746.385999964783,,response,,,,100,,,,,,,Space,keypress(Space),,,,,,,,-- --- ---- --- ------ ----- ------- ---- -- --- ------- --<br>------- ---------- ------ -- ----- -- ----- -- save ------<br>--- ----- --- --- ------ -------- ----- --- ------ ----- --<br>----- ----- ---------- --- --- ------ ------ ---- -- ------<br>------- --- ------ ----- --- ---- ------- -- ---- --- --<br>------- ------,275763.6850000126,275762.5549999648,274999.54,275007.6349999872,275016.169,275766.189,,20,save
screen,html.Screen,1_1_1_1_21,2021-04-18T10:18:09.803Z,,,,,,,,,,,,,,,,54,,,,,,,,,,,,,,569.1809999861289,,response,,,,100,,,,,,,Space,keypress(Space),,,,,,,,"-- --- ---- --- ------ ----- ------- ---- -- --- ------- --<br>------- ---------- ------ -- ----- -- ----- -- ---- money,<br>--- ----- --- --- ------ -------- ----- --- ------ ----- --<br>----- ----- ---------- --- --- ------ ------ ---- -- ------<br>------- --- ------ ----- --- ---- ------- -- ---- --- --<br>------- ------",276336.4999999758,276335.36999998614,275749.524,275763.86499998625,275766.189,276349.661,,21,"money,"
screen,html.Screen,1_1_1_1_22,2021-04-18T10:18:10.257Z,,,,,,,,,,,,,,,,54,,,,,,,,,,,,,,438.929000011005,,response,,,,100,,,,,,,Space,keypress(Space),,,,,,,,-- --- ---- --- ------ ----- ------- ---- -- --- ------- --<br>------- ---------- ------ -- ----- -- ----- -- ---- ------<br>the ----- --- --- ------ -------- ----- --- ------ ----- --<br>----- ----- ---------- --- --- ------ ------ ---- -- ------<br>------- --- ------ ----- --- ---- ------- -- ---- --- --<br>------- ------,276789.7499999963,276788.590000011,276332.851,276336.6849999875,276349.661,276799.647,,22,the
screen,html.Screen,1_1_1_1_23,2021-04-18T10:18:10.550Z,,,,,,,,,,,,,,,,54,,,,,,,,,,,,,,282.7229999600677,,response,,,,100,,,,,,,Space,keypress(Space),,,,,,,,-- --- ---- --- ------ ----- ------- ---- -- --- ------- --<br>------- ---------- ------ -- ----- -- ----- -- ---- ------<br>--- state --- --- ------ -------- ----- --- ------ ----- --<br>----- ----- ---------- --- --- ------ ------ ---- -- ------<br>------- --- ------ ----- --- ---- ------- -- ---- --- --<br>------- ------,277083.5199999856,277082.36999996006,276782.949,276789.93999998784,276799.647,277099.704,,23,state
screen,html.Screen,1_1_1_1_24,2021-04-18T10:18:11.035Z,,,,,,,,,,,,,,,,54,,,,,,,,,,,,,,467.5360000039218,,response,,,,100,,,,,,,Space,keypress(Space),,,,,,,,-- --- ---- --- ------ ----- ------- ---- -- --- ------- --<br>------- ---------- ------ -- ----- -- ----- -- ---- ------<br>--- ----- cut --- ------ -------- ----- --- ------ ----- --<br>----- ----- ---------- --- --- ------ ------ ---- -- ------<br>------- --- ------ ----- --- ---- ------- -- ---- --- --<br>------- ------,277568.37499997346,277567.24000000395,277083.492,277083.7049999973,277099.704,277583.129,,24,cut
screen,html.Screen,1_1_1_1_25,2021-04-18T10:18:11.352Z,,,,,,,,,,,,,,,,54,,,,,,,,,,,,,,301.04099997569574,,response,,,,100,,,,,,,Space,keypress(Space),,,,,,,,-- --- ---- --- ------ ----- ------- ---- -- --- ------- --<br>------- ---------- ------ -- ----- -- ----- -- ---- ------<br>--- ----- --- the ------ -------- ----- --- ------ ----- --<br>----- ----- ---------- --- --- ------ ------ ---- -- ------<br>------- --- ------ ----- --- ---- ------- -- ---- --- --<br>------- ------,277885.32000000123,277884.1699999757,277566.308,277568.5499999672,277583.129,277899.764,,25,the
screen,html.Screen,1_1_1_1_26,2021-04-18T10:18:11.617Z,,,,,,,,,,,,,,,,54,,,,,,,,,,,,,,249.14599998894846,,response,,,,100,,,,,,,Space,keypress(Space),,,,,,,,-- --- ---- --- ------ ----- ------- ---- -- --- ------- --<br>------- ---------- ------ -- ----- -- ----- -- ---- ------<br>--- ----- --- --- bonds' -------- ----- --- ------ ----- --<br>----- ----- ---------- --- --- ------ ------ ---- -- ------<br>------- --- ------ ----- --- ---- ------- -- ---- --- --<br>------- ------,278150.1500000013,278148.909999989,277883.506,277885.494999995,277899.764,278166.979,,26,bonds'
screen,html.Screen,1_1_1_1_27,2021-04-18T10:18:12.114Z,,,,,,,,,,,,,,,,54,,,,,,,,,,,,,,479.1459999702056,,response,,,,100,,,,,,,Space,keypress(Space),,,,,,,,-- --- ---- --- ------ ----- ------- ---- -- --- ------- --<br>------- ---------- ------ -- ----- -- ----- -- ---- ------<br>--- ----- --- --- ------ interest ----- --- ------ ----- --<br>----- ----- ---------- --- --- ------ ------ ---- -- ------<br>------- --- ------ ----- --- ---- ------- -- ---- --- --<br>------- ------,278647.27000001585,278646.1249999702,278150.449,278150.3500000108,278166.979,278649.673,,27,interest
screen,html.Screen,1_1_1_1_28,2021-04-18T10:18:12.548Z,,,,,,,,,,,,,,,,54,,,,,,,,,,,,,,429.77699996106094,,response,,,,100,,,,,,,Space,keypress(Space),,,,,,,,-- --- ---- --- ------ ----- ------- ---- -- --- ------- --<br>------- ---------- ------ -- ----- -- ----- -- ---- ------<br>--- ----- --- --- ------ -------- rate. --- ------ ----- --<br>----- ----- ---------- --- --- ------ ------ ---- -- ------<br>------- --- ------ ----- --- ---- ------- -- ---- --- --<br>------- ------,279080.719999969,279079.44999996107,278633.454,278647.4499999895,278649.673,279083.049,,28,rate.
screen,html.Screen,1_1_1_1_29,2021-04-18T10:18:14.884Z,,,,,,,,,,,,,,,,54,,,,,,,,,,,,,,2333.316000011866,,response,,,,100,,,,,,,Space,keypress(Space),,,,,,,,-- --- ---- --- ------ ----- ------- ---- -- --- ------- --<br>------- ---------- ------ -- ----- -- ----- -- ---- ------<br>--- ----- --- --- ------ -------- ----- The ------ ----- --<br>----- ----- ---------- --- --- ------ ------ ---- -- ------<br>------- --- ------ ----- --- ---- ------- -- ---- --- --<br>------- ------,281417.4800000037,281416.36500001187,279066.788,279080.9799999697,279083.049,281433.23,,29,The
screen,html.Screen,1_1_1_1_30,2021-04-18T10:18:15.282Z,,,,,,,,,,,,,,,,54,,,,,,,,,,,,,,380.3950000097975,,response,,,,100,,,,,,,Space,keypress(Space),,,,,,,,-- --- ---- --- ------ ----- ------- ---- -- --- ------- --<br>------- ---------- ------ -- ----- -- ----- -- ---- ------<br>--- ----- --- --- ------ -------- ----- --- market ----- --<br>----- ----- ---------- --- --- ------ ------ ---- -- ------<br>------- --- ------ ----- --- ---- ------- -- ---- --- --<br>------- ------,281814.7549999994,281813.6250000098,281416.72,281417.65999997733,281433.23,281816.493,,30,market
screen,html.Screen,1_1_1_1_31,2021-04-18T10:18:15.799Z,,,,,,,,,,,,,,,,54,,,,,,,,,,,,,,515.0570000025909,,response,,,,100,,,,,,,Space,keypress(Space),,,,,,,,-- --- ---- --- ------ ----- ------- ---- -- --- ------- --<br>------- ---------- ------ -- ----- -- ----- -- ---- ------<br>--- ----- --- --- ------ -------- ----- --- ------ value --<br>----- ----- ---------- --- --- ------ ------ ---- -- ------<br>------- --- ------ ----- --- ---- ------- -- ---- --- --<br>------- ------,282332.66499999445,282331.5500000026,281800.154,281814.9400000111,281816.493,282349.94,,31,value
screen,html.Screen,1_1_1_1_32,2021-04-18T10:18:16.348Z,,,,,,,,,,,,,,,,54,,,,,,,,,,,,,,530.2349999984144,,response,,,,100,,,,,,,Space,keypress(Space),,,,,,,,-- --- ---- --- ------ ----- ------- ---- -- --- ------- --<br>------- ---------- ------ -- ----- -- ----- -- ---- ------<br>--- ----- --- --- ------ -------- ----- --- ------ ----- of<br>----- ----- ---------- --- --- ------ ------ ---- -- ------<br>------- --- ------ ----- --- ---- ------- -- ---- --- --<br>------- ------,282881.34999998147,282880.1749999984,282333.192,282332.854999986,282349.94,282883.162,,32,of
screen,html.Screen,1_1_1_1_33,2021-04-18T10:18:16.771Z,,,,,,,,,,,,,,,,54,,,,,,,,,,,,,,419.56799999577925,,response,,,,100,,,,,,,Space,keypress(Space),,,,,,,,-- --- ---- --- ------ ----- ------- ---- -- --- ------- --<br>------- ---------- ------ -- ----- -- ----- -- ---- ------<br>--- ----- --- --- ------ -------- ----- --- ------ ----- --<br>these ----- ---------- --- --- ------ ------ ---- -- ------<br>------- --- ------ ----- --- ---- ------- -- ---- --- --<br>------- ------,283303.87499998324,283302.7299999958,282867.27,282881.5249999752,282883.162,283317.048,,33,these
screen,html.Screen,1_1_1_1_34,2021-04-18T10:18:17.125Z,,,,,,,,,,,,,,,,54,,,,,,,,,,,,,,340.11200000246754,,response,,,,100,,,,,,,Space,keypress(Space),,,,,,,,-- --- ---- --- ------ ----- ------- ---- -- --- ------- --<br>------- ---------- ------ -- ----- -- ----- -- ---- ------<br>--- ----- --- --- ------ -------- ----- --- ------ ----- --<br>----- bonds ---------- --- --- ------ ------ ---- -- ------<br>------- --- ------ ----- --- ---- ------- -- ---- --- --<br>------- ------,283658.2899999921,283657.1600000025,283299.933,283304.05500001507,283317.048,283667.062,,34,bonds
screen,html.Screen,1_1_1_1_35,2021-04-18T10:18:17.523Z,,,,,,,,,,,,,,,,54,,,,,,,,,,,,,,388.43800001678756,,response,,,,100,,,,,,,Space,keypress(Space),,,,,,,,"-- --- ---- --- ------ ----- ------- ---- -- --- ------- --<br>------- ---------- ------ -- ----- -- ----- -- ---- ------<br>--- ----- --- --- ------ -------- ----- --- ------ ----- --<br>----- ----- plummeted, --- --- ------ ------ ---- -- ------<br>------- --- ------ ----- --- ---- ------- -- ---- --- --<br>------- ------",284056.63999996614,284055.50000001676,283649.95,283658.46999996575,283667.062,284066.7,,35,"plummeted,"
screen,html.Screen,1_1_1_1_36,2021-04-18T10:18:17.966Z,,,,,,,,,,,,,,,,54,,,,,,,,,,,,,,431.28499996539904,,response,,,,100,,,,,,,Space,keypress(Space),,,,,,,,-- --- ---- --- ------ ----- ------- ---- -- --- ------- --<br>------- ---------- ------ -- ----- -- ----- -- ---- ------<br>--- ----- --- --- ------ -------- ----- --- ------ ----- --<br>----- ----- ---------- and --- ------ ------ ---- -- ------<br>------- --- ------ ----- --- ---- ------- -- ---- --- --<br>------- ------,284499.14999998873,284497.9849999654,284050.522,284056.82499997783,284066.7,284533.78,,36,and
screen,html.Screen,1_1_1_1_37,2021-04-18T10:18:18.295Z,,,,,,,,,,,,,,,,54,,,,,,,,,,,,,,293.5999999733176,,response,,,,100,,,,,,,Space,keypress(Space),,,,,,,,-- --- ---- --- ------ ----- ------- ---- -- --- ------- --<br>------- ---------- ------ -- ----- -- ----- -- ---- ------<br>--- ----- --- --- ------ -------- ----- --- ------ ----- --<br>----- ----- ---------- --- the ------ ------ ---- -- ------<br>------- --- ------ ----- --- ---- ------- -- ---- --- --<br>------- ------,284828.56499997433,284827.37999997335,284517.397,284499.3399999803,284533.78,284833.507,,37,the
screen,html.Screen,1_1_1_1_38,2021-04-18T10:18:18.784Z,,,,,,,,,,,,,,,,54,,,,,,,,,,,,,,482.072999994969,,response,,,,100,,,,,,,Space,keypress(Space),,,,,,,,-- --- ---- --- ------ ----- ------- ---- -- --- ------- --<br>------- ---------- ------ -- ----- -- ----- -- ---- ------<br>--- ----- --- --- ------ -------- ----- --- ------ ----- --<br>----- ----- ---------- --- --- market ------ ---- -- ------<br>------- --- ------ ----- --- ---- ------- -- ---- --- --<br>------- ------,285316.8200000073,285315.57999999495,284817.118,284828.7349999882,284833.507,285333.385,,38,market
screen,html.Screen,1_1_1_1_39,2021-04-18T10:18:19.107Z,,,,,,,,,,,,,,,,54,,,,,,,,,,,,,,305.709999991348,,response,,,,100,,,,,,,Space,keypress(Space),,,,,,,,-- --- ---- --- ------ ----- ------- ---- -- --- ------- --<br>------- ---------- ------ -- ----- -- ----- -- ---- ------<br>--- ----- --- --- ------ -------- ----- --- ------ ----- --<br>----- ----- ---------- --- --- ------ became ---- -- ------<br>------- --- ------ ----- --- ---- ------- -- ---- --- --<br>------- ------,285640.2600000147,285639.09499999136,285317.089,285317.0149999787,285333.385,285650.711,,39,became
screen,html.Screen,1_1_1_1_40,2021-04-18T10:18:19.506Z,,,,,,,,,,,,,,,,54,,,,,,,,,,,,,,386.89399996132124,,response,,,,100,,,,,,,Space,keypress(Space),,,,,,,,-- --- ---- --- ------ ----- ------- ---- -- --- ------- --<br>------- ---------- ------ -- ----- -- ----- -- ---- ------<br>--- ----- --- --- ------ -------- ----- --- ------ ----- --<br>----- ----- ---------- --- --- ------ ------ wary -- ------<br>------- --- ------ ----- --- ---- ------- -- ---- --- --<br>------- ------,286038.72499999125,286037.60499996133,285633.33,285640.44499996817,285650.711,286050.036,,40,wary
screen,html.Screen,1_1_1_1_41,2021-04-18T10:18:19.849Z,,,,,,,,,,,,,,,,54,,,,,,,,,,,,,,331.0589999606018,,response,,,,100,,,,,,,Space,keypress(Space),,,,,,,,-- --- ---- --- ------ ----- ------- ---- -- --- ------- --<br>------- ---------- ------ -- ----- -- ----- -- ---- ------<br>--- ----- --- --- ------ -------- ----- --- ------ ----- --<br>----- ----- ---------- --- --- ------ ------ ---- of ------<br>------- --- ------ ----- --- ---- ------- -- ---- --- --<br>------- ------,286382.2250000085,286381.0949999606,286033.945,286038.91000000294,286050.036,286433.488,,41,of
screen,html.Screen,1_1_1_1_42,2021-04-18T10:18:20.288Z,,,,,,,,,,,,,,,,54,,,,,,,,,,,,,,386.0620000147028,,response,,,,100,,,,,,,Space,keypress(Space),,,,,,,,-- --- ---- --- ------ ----- ------- ---- -- --- ------- --<br>------- ---------- ------ -- ----- -- ----- -- ---- ------<br>--- ----- --- --- ------ -------- ----- --- ------ ----- --<br>----- ----- ---------- --- --- ------ ------ ---- -- French<br>------- --- ------ ----- --- ---- ------- -- ---- --- --<br>------- ------,286820.699999982,286819.5500000147,286416.948,286382.40000000224,286433.488,286833.492,,42,French
screen,html.Screen,1_1_1_1_43,2021-04-18T10:18:20.736Z,,,,,,,,,,,,,,,,54,,,,,,,,,,,,,,434.28300001478055,,response,,,,100,,,,,,,Space,keypress(Space),,,,,,,,-- --- ---- --- ------ ----- ------- ---- -- --- ------- --<br>------- ---------- ------ -- ----- -- ----- -- ---- ------<br>--- ----- --- --- ------ -------- ----- --- ------ ----- --<br>----- ----- ---------- --- --- ------ ------ ---- -- ------<br>credit. --- ------ ----- --- ---- ------- -- ---- --- --<br>------- ------,287268.9099999843,287267.7750000148,286816.755,286820.8849999937,286833.492,287283.925,,43,credit.
screen,html.Screen,1_1_1_1_44,2021-04-18T10:18:21.263Z,,,,,,,,,,,,,,,,54,,,,,,,,,,,,,,511.0599999859114,,response,,,,100,,,,,,,Space,keypress(Space),,,,,,,,-- --- ---- --- ------ ----- ------- ---- -- --- ------- --<br>------- ---------- ------ -- ----- -- ----- -- ---- ------<br>--- ----- --- --- ------ -------- ----- --- ------ ----- --<br>----- ----- ---------- --- --- ------ ------ ---- -- ------<br>------- The ------ ----- --- ---- ------- -- ---- --- --<br>------- ------,287796.1200000136,287794.9849999859,287267.494,287269.09000001615,287283.925,287801.763,,44,The
screen,html.Screen,1_1_1_1_45,2021-04-18T10:18:21.511Z,,,,,,,,,,,,,,,,54,,,,,,,,,,,,,,242.13699998968514,,response,,,,100,,,,,,,Space,keypress(Space),,,,,,,,-- --- ---- --- ------ ----- ------- ---- -- --- ------- --<br>------- ---------- ------ -- ----- -- ----- -- ---- ------<br>--- ----- --- --- ------ -------- ----- --- ------ ----- --<br>----- ----- ---------- --- --- ------ ------ ---- -- ------<br>------- --- French ----- --- ---- ------- -- ---- --- --<br>------- ------,288044.66999997385,288043.89999998966,287784.218,287796.29999998724,287801.763,288050.109,,45,French
screen,html.Screen,1_1_1_1_46,2021-04-18T10:18:21.747Z,,,,,,,,,,,,,,,,54,,,,,,,,,,,,,,228.64599997753976,,response,,,,100,,,,,,,Space,keypress(Space),,,,,,,,-- --- ---- --- ------ ----- ------- ---- -- --- ------- --<br>------- ---------- ------ -- ----- -- ----- -- ---- ------<br>--- ----- --- --- ------ -------- ----- --- ------ ----- --<br>----- ----- ---------- --- --- ------ ------ ---- -- ------<br>------- --- ------ state --- ---- ------- -- ---- --- --<br>------- ------,288279.9549999763,288278.75499997754,288033.913,288044.8650000035,288050.109,288284.202,,46,state
screen,html.Screen,1_1_1_1_47,2021-04-18T10:18:22.245Z,,,,,,,,,,,,,,,,54,,,,,,,,,,,,,,492.5529999989667,,response,,,,100,,,,,,,Space,keypress(Space),,,,,,,,-- --- ---- --- ------ ----- ------- ---- -- --- ------- --<br>------- ---------- ------ -- ----- -- ----- -- ---- ------<br>--- ----- --- --- ------ -------- ----- --- ------ ----- --<br>----- ----- ---------- --- --- ------ ------ ---- -- ------<br>------- --- ------ ----- was ---- ------- -- ---- --- --<br>------- ------,288777.8999999864,288776.75499999896,288267.408,288280.1449999679,288284.202,288783.459,,47,was
screen,html.Screen,1_1_1_1_48,2021-04-18T10:18:22.578Z,,,,,,,,,,,,,,,,54,,,,,,,,,,,,,,326.12099998939084,,response,,,,100,,,,,,,Space,keypress(Space),,,,,,,,-- --- ---- --- ------ ----- ------- ---- -- --- ------- --<br>------- ---------- ------ -- ----- -- ----- -- ---- ------<br>--- ----- --- --- ------ -------- ----- --- ------ ----- --<br>----- ----- ---------- --- --- ------ ------ ---- -- ------<br>------- --- ------ ----- --- left ------- -- ---- --- --<br>------- ------,289110.7999999658,289109.57999998936,288767.285,288778.09500001604,288783.459,289116.917,,48,left
screen,html.Screen,1_1_1_1_49,2021-04-18T10:18:22.982Z,,,,,,,,,,,,,,,,54,,,,,,,,,,,,,,397.1829999712063,,response,,,,100,,,,,,,Space,keypress(Space),,,,,,,,-- --- ---- --- ------ ----- ------- ---- -- --- ------- --<br>------- ---------- ------ -- ----- -- ----- -- ---- ------<br>--- ----- --- --- ------ -------- ----- --- ------ ----- --<br>----- ----- ---------- --- --- ------ ------ ---- -- ------<br>------- --- ------ ----- --- ---- without -- ---- --- --<br>------- ------,289515.224999981,289514.0999999712,289100.712,289110.99499999546,289116.917,289549.224,,49,without
screen,html.Screen,1_1_1_1_50,2021-04-18T10:18:23.335Z,,,,,,,,,,,,,,,,54,,,,,,,,,,,,,,318.29599997069454,,response,,,,100,,,,,,,Space,keypress(Space),,,,,,,,-- --- ---- --- ------ ----- ------- ---- -- --- ------- --<br>------- ---------- ------ -- ----- -- ----- -- ---- ------<br>--- ----- --- --- ------ -------- ----- --- ------ ----- --<br>----- ----- ---------- --- --- ------ ------ ---- -- ------<br>------- --- ------ ----- --- ---- ------- an ---- --- --<br>------- ------,289868.6699999962,289867.5199999707,289500.241,289515.41499997256,289549.224,289883.849,,50,an
screen,html.Screen,1_1_1_1_51,2021-04-18T10:18:23.634Z,,,,,,,,,,,,,,,,54,,,,,,,,,,,,,,282.44099996465957,,response,,,,100,,,,,,,Space,keypress(Space),,,,,,,,-- --- ---- --- ------ ----- ------- ---- -- --- ------- --<br>------- ---------- ------ -- ----- -- ----- -- ---- ------<br>--- ----- --- --- ------ -------- ----- --- ------ ----- --<br>----- ----- ---------- --- --- ------ ------ ---- -- ------<br>------- --- ------ ----- --- ---- ------- -- easy --- --<br>------- ------,290167.45499998797,290166.28999996465,289866.903,289868.8649999676,289883.849,290184.032,,51,easy
screen,html.Screen,1_1_1_1_52,2021-04-18T10:18:23.912Z,,,,,,,,,,,,,,,,54,,,,,,,,,,,,,,260.3929999942193,,response,,,,100,,,,,,,Space,keypress(Space),,,,,,,,-- --- ---- --- ------ ----- ------- ---- -- --- ------- --<br>------- ---------- ------ -- ----- -- ----- -- ---- ------<br>--- ----- --- --- ------ -------- ----- --- ------ ----- --<br>----- ----- ---------- --- --- ------ ------ ---- -- ------<br>------- --- ------ ----- --- ---- ------- -- ---- way --<br>------- ------,290445.5699999817,290444.4249999942,290166.856,290167.6499999594,290184.032,290450.522,,52,way
screen,html.Screen,1_1_1_1_53,2021-04-18T10:18:24.291Z,,,,,,,,,,,,,,,,54,,,,,,,,,,,,,,372.4779999748571,,response,,,,100,,,,,,,Space,keypress(Space),,,,,,,,-- --- ---- --- ------ ----- ------- ---- -- --- ------- --<br>------- ---------- ------ -- ----- -- ----- -- ---- ------<br>--- ----- --- --- ------ -------- ----- --- ------ ----- --<br>----- ----- ---------- --- --- ------ ------ ---- -- ------<br>------- --- ------ ----- --- ---- ------- -- ---- --- of<br>------- ------,290824.19999997364,290822.99999997485,290434.352,290445.7650000113,290450.522,290833.676,,53,of
screen,html.Screen,1_1_1_1_54,2021-04-18T10:18:24.700Z,,,,,,,,,,,,,,,,54,,,,,,,,,,,,,,398.18399999989197,,response,,,,100,,,,,,,Space,keypress(Space),,,,,,,,-- --- ---- --- ------ ----- ------- ---- -- --- ------- --<br>------- ---------- ------ -- ----- -- ----- -- ---- ------<br>--- ----- --- --- ------ -------- ----- --- ------ ----- --<br>----- ----- ---------- --- --- ------ ------ ---- -- ------<br>------- --- ------ ----- --- ---- ------- -- ---- --- --<br>raising ------,291232.9949999694,291231.85999999987,290816.946,290824.4549999945,290833.676,291267.455,,54,raising
screen,html.Screen,1_1_1_1_55,2021-04-18T10:18:25.352Z,,,,,,,,,,,,,,,,54,,,,,,,,,,,,,,616.6399999866844,,response,,,,100,,,,,,,Space,keypress(Space),,,,,,,,-- --- ---- --- ------ ----- ------- ---- -- --- ------- --<br>------- ---------- ------ -- ----- -- ----- -- ---- ------<br>--- ----- --- --- ------ -------- ----- --- ------ ----- --<br>----- ----- ---------- --- --- ------ ------ ---- -- ------<br>------- --- ------ ----- --- ---- ------- -- ---- --- --<br>------- money.,291885.2150000166,291884.0949999867,291250.315,291233.18499996094,291267.455,291900.268,,55,money.
Item 100,flow.Loop,1_1_1_1,2021-04-18T10:18:25.352Z,,,,,,,,,,,,,,,,,,,,,,,,,,,,,,34335.4399999867,,completion,,,,,E,,,,,,,,,,,silence,,,,,291885.54499996826,291884.0949999867,257532.044,257533.49999996135,257548.655,291900.268,,,
Question 1,html.Screen,1_1_1_2,2021-04-18T10:18:29.181Z,,,,,,,,,,,,,,,,,,,,,,,,,,,true,TRUE,,3812.3569999855827,,response,,,,100,E,,,,,,TRUE,click #choice-1,,,,silence,,,,,295713.89999997336,295712.62499998556,291883.575,291885.6899999664,291900.268,295717.144,,,
Question 2,html.Screen,1_1_1_3,2021-04-18T10:18:32.280Z,,,,,,,,,,,,,,,,,,,,,,,,,,,true,FALSE,,3094.135999965365,,response,,,,100,E,,,,,,FALSE,click #choice-2,,,,silence,,,,,298812.83000000985,298811.27999996534,295700.904,295714.095000003,295717.144,298817.288,,,
Item 100,flow.Sequence,1_1_1,2021-04-18T10:18:32.280Z,,,,,,,,,,,,,,,,,,,,,,,,,,,,,,51263.01699996533,,completion,,,,,,,,,,,,,,,,,,,,,298813.1099999882,298811.27999996534,247532.082,247544.33000000427,247548.263,298817.288,,,
End of Practice,html.Page,1_1_2,2021-04-18T10:18:39.413Z,,,,,,,,,,,,,,,,,,,,,,,,,,,,,,7128.986999994784,,form submission,,,,,,,,,,,,,,,,,,,,,305946.660000016,305946.2749999948,298801.07,298813.2549999864,298817.288,305952.637,,,
Practice,flow.Sequence,1_1,2021-04-18T10:18:39.414Z,,,,,,,,,,,,,,,,,,,,,,,,,,,,,,105499.66899999478,,completion,,,,,,,,,,,,,,,,,,,,,305946.9950000057,305946.2749999948,200429.592,200436.61999999313,200446.606,305952.637,,,
Trap_instruction,html.Page,1_2_0,2021-04-18T10:18:51.543Z,,,,,,,,,,,,,,,,,,,,,,,,,,,,,,12123.00799997535,,form submission,,,,,,,,,,,,,,,,,,,,,318076.00000000093,318075.64499997534,305934.303,305947.19999999506,305952.637,318101.818,,,
trap_trial,html.Screen,1_2_1,2021-04-18T10:18:55.112Z,,,,,,,,,,,,,,,,,,,,,,,,,,,true,1,,3541.4619999601855,,response,,,,,,,,,,,1,click #choice-1,,,,,,,,,321645.3249999904,321643.2799999602,318068.627,318076.1749999947,318101.818,321654.307,,,
end of trap trial,html.Page,1_2_2,2021-04-18T10:19:02.948Z,,,,,,,,,,,,,,,,,,,,,,,,,,,,,,7826.327999985369,,form submission,,,,,,,,,,,,,,,,,,,,,329480.9649999952,329480.63499998534,321635.022,321645.6199999666,321654.307,329485.336,,,
Trap 1,flow.Sequence,1_2,2021-04-18T10:19:02.948Z,,,,,,,,,,,,,,,,,,,,,,,,,,,,,,23527.997999985353,,completion,,,,,,,,,,,,,,,,,,,,,329481.2249999959,329480.63499998534,305934.303,305947.1449999837,305952.637,329485.336,,,
Standby,html.Page,1_3_0,2021-04-18T10:19:10.937Z,,,,,,,,,,,,,,,,,,,,,,,,,,,,,,8000.456999999995,,timeout,,,,,,,,,,,,,,,,,,,,,337470.00999999,337469.143,329468.743,329481.4049999695,329485.336,337485.793,,,
Holding screen,html.Screen,1_3_1_0_0,2021-04-18T10:19:17.937Z,,,,,,,,,,,,,,,,,,,,,,,,,,,,,,7000.42300000001,,timeout,,,,,,,,,,,,,,,,,,,,,344470.6850000075,344469.823,337469.143,337470.3049999662,337485.793,344486.216,,,
screen,html.Screen,1_3_1_0_1_0,2021-04-18T10:19:19.295Z,,,,,,,,,,,,,,,,11,,,,,,,,,,,,,,1340.933999968227,,response,,,,4,E,,,,,,Space,keypress(Space),,,,lyrical,,,,Known -- ---- --- -- --- -------- ------------ ---------- --<br>- ------- ------ --------- -- ------------ -- --- ---- -----<br>------ ---- ---- ------ ------ ------- --- ----- ---------<br>---- --- -------- -------- --- --- -- ------- --- --- -----<br>-- --- ------ ------- --- --- -------- ---- --------- --<br>---------- -- -------- ----------------,345828.76499998383,345827.14999996824,344469.823,344470.960000006,344486.216,345836.158,,0,Known
screen,html.Screen,1_3_1_0_1_1,2021-04-18T10:19:19.848Z,,,,,,,,,,,,,,,,11,,,,,,,,,,,,,,543.7369999618386,,response,,,,4,E,,,,,,Space,keypress(Space),,,,lyrical,,,,----- as ---- --- -- --- -------- ------------ ---------- --<br>- ------- ------ --------- -- ------------ -- --- ---- -----<br>------ ---- ---- ------ ------ ------- --- ----- ---------<br>---- --- -------- -------- --- --- -- ------- --- --- -----<br>-- --- ------ ------- --- --- -------- ---- --------- --<br>---------- -- -------- ----------------,346381.0400000075,346379.89499996183,345819.357,345828.984999971,345836.158,346386.122,,1,as
screen,html.Screen,1_3_1_0_1_2,2021-04-18T10:19:20.355Z,,,,,,,,,,,,,,,,11,,,,,,,,,,,,,,501.1229999908246,,response,,,,4,E,,,,,,Space,keypress(Space),,,,lyrical,,,,----- -- Rapa --- -- --- -------- ------------ ---------- --<br>- ------- ------ --------- -- ------------ -- --- ---- -----<br>------ ---- ---- ------ ------ ------- --- ----- ---------<br>---- --- -------- -------- --- --- -- ------- --- --- -----<br>-- --- ------ ------- --- --- -------- ---- --------- --<br>---------- -- -------- ----------------,346888.31000000937,346887.2449999908,346369.888,346381.2349999789,346386.122,346902.915,,2,Rapa
screen,html.Screen,1_3_1_0_1_3,2021-04-18T10:19:21.007Z,,,,,,,,,,,,,,,,11,,,,,,,,,,,,,,636.6549999644631,,response,,,,4,E,,,,,,Space,keypress(Space),,,,lyrical,,,,----- -- ---- Nui -- --- -------- ------------ ---------- --<br>- ------- ------ --------- -- ------------ -- --- ---- -----<br>------ ---- ---- ------ ------ ------- --- ----- ---------<br>---- --- -------- -------- --- --- -- ------- --- --- -----<br>-- --- ------ ------- --- --- -------- ---- --------- --<br>---------- -- -------- ----------------,347540.68999999436,347539.56999996444,346886.575,346888.5049999808,346902.915,347552.852,,3,Nui
screen,html.Screen,1_3_1_0_1_4,2021-04-18T10:19:21.545Z,,,,,,,,,,,,,,,,11,,,,,,,,,,,,,,524.5930000026128,,response,,,,4,E,,,,,,Space,keypress(Space),,,,lyrical,,,,----- -- ---- --- to --- -------- ------------ ---------- --<br>- ------- ------ --------- -- ------------ -- --- ---- -----<br>------ ---- ---- ------ ------ ------- --- ----- ---------<br>---- --- -------- -------- --- --- -- ------- --- --- -----<br>-- --- ------ ------- --- --- -------- ---- --------- --<br>---------- -- -------- ----------------,348078.5400000168,348077.4450000026,347536.186,347540.87500000605,347552.852,348086.224,,4,to
screen,html.Screen,1_3_1_0_1_5,2021-04-18T10:19:21.954Z,,,,,,,,,,,,,,,,11,,,,,,,,,,,,,,400.16599997639423,,response,,,,4,E,,,,,,Space,keypress(Space),,,,lyrical,,,,----- -- ---- --- -- the -------- ------------ ---------- --<br>- ------- ------ --------- -- ------------ -- --- ---- -----<br>------ ---- ---- ------ ------ ------- --- ----- ---------<br>---- --- -------- -------- --- --- -- ------- --- --- -----<br>-- --- ------ ------- --- --- -------- ---- --------- --<br>---------- -- -------- ----------------,348487.444999977,348486.3899999764,348069.574,348078.73000000836,348086.224,348502.984,,5,the
screen,html.Screen,1_3_1_0_1_6,2021-04-18T10:19:22.492Z,,,,,,,,,,,,,,,,11,,,,,,,,,,,,,,520.8009999684873,,response,,,,4,E,,,,,,Space,keypress(Space),,,,lyrical,,,,----- -- ---- --- -- --- island's ------------ ---------- --<br>- ------- ------ --------- -- ------------ -- --- ---- -----<br>------ ---- ---- ------ ------ ------- --- ----- ---------<br>---- --- -------- -------- --- --- -- ------- --- --- -----<br>-- --- ------ ------- --- --- -------- ---- --------- --<br>---------- -- -------- ----------------,349024.8099999735,349023.7849999685,348486.274,348487.6349999686,348502.984,349036.745,,6,island's
screen,html.Screen,1_3_1_0_1_7,2021-04-18T10:19:28.612Z,,,,,,,,,,,,,,,,11,,,,,,,,,,,,,,6107.059999999707,,response,,,,4,E,,,,,,Space,keypress(Space),,,,lyrical,,,,"----- -- ---- --- -- --- -------- inhabitants, ---------- --<br>- ------- ------ --------- -- ------------ -- --- ---- -----<br>------ ---- ---- ------ ------ ------- --- ----- ---------<br>---- --- -------- -------- --- --- -- ------- --- --- -----<br>-- --- ------ ------- --- --- -------- ---- --------- --<br>---------- -- -------- ----------------",355145.5699999933,355143.8049999997,349019.596,349024.9999999651,349036.745,355153.231,,7,"inhabitants,"
screen,html.Screen,1_3_1_0_1_8,2021-04-18T10:19:29.270Z,,,,,,,,,,,,,,,,11,,,,,,,,,,,,,,648.6389999665553,,response,,,,4,E,,,,,,Space,keypress(Space),,,,lyrical,,,,----- -- ---- --- -- --- -------- ------------ Rongorongo --<br>- ------- ------ --------- -- ------------ -- --- ---- -----<br>------ ---- ---- ------ ------ ------- --- ----- ---------<br>---- --- -------- -------- --- --- -- ------- --- --- -----<br>-- --- ------ ------- --- --- -------- ---- --------- --<br>---------- -- -------- ----------------,355803.0549999676,355801.8699999666,355136.24,355145.755000005,355153.231,355819.947,,8,Rongorongo
screen,html.Screen,1_3_1_0_1_9,2021-04-18T10:19:30.051Z,,,,,,,,,,,,,,,,11,,,,,,,,,,,,,,763.2480000138166,,response,,,,4,E,,,,,,Space,keypress(Space),,,,lyrical,,,,----- -- ---- --- -- --- -------- ------------ ---------- is<br>- ------- ------ --------- -- ------------ -- --- ---- -----<br>------ ---- ---- ------ ------ ------- --- ----- ---------<br>---- --- -------- -------- --- --- -- ------- --- --- -----<br>-- --- ------ ------- --- --- -------- ---- --------- --<br>---------- -- -------- ----------------,356584.7949999734,356583.1950000138,355803.198,355803.2349999994,355819.947,356586.592,,9,is
screen,html.Screen,1_3_1_0_1_10,2021-04-18T10:19:30.634Z,,,,,,,,,,,,,,,,11,,,,,,,,,,,,,,579.7779999917257,,response,,,,4,E,,,,,,Space,keypress(Space),,,,lyrical,,,,----- -- ---- --- -- --- -------- ------------ ---------- --<br>a ------- ------ --------- -- ------------ -- --- ---- -----<br>------ ---- ---- ------ ------ ------- --- ----- ---------<br>---- --- -------- -------- --- --- -- ------- --- --- -----<br>-- --- ------ ------- --- --- -------- ---- --------- --<br>---------- -- -------- ----------------,357167.51999995904,357166.36999999173,356570.515,356585.064999992,356586.592,357169.955,,10,a
screen,html.Screen,1_3_1_0_1_11,2021-04-18T10:19:31.470Z,,,,,,,,,,,,,,,,11,,,,,,,,,,,,,,832.3799999682815,,response,,,,4,E,,,,,,Space,keypress(Space),,,,lyrical,,,,----- -- ---- --- -- --- -------- ------------ ---------- --<br>- writing ------ --------- -- ------------ -- --- ---- -----<br>------ ---- ---- ------ ------ ------- --- ----- ---------<br>---- --- -------- -------- --- --- -- ------- --- --- -----<br>-- --- ------ ------- --- --- -------- ---- --------- --<br>---------- -- -------- ----------------,358003.52500000736,358002.3349999683,357153.994,357167.70499997074,357169.955,358020.51,,11,writing
screen,html.Screen,1_3_1_0_1_12,2021-04-18T10:19:32.541Z,,,,,,,,,,,,,,,,11,,,,,,,,,,,,,,1052.3399999968242,,response,,,,4,E,,,,,,Space,keypress(Space),,,,lyrical,,,,----- -- ---- --- -- --- -------- ------------ ---------- --<br>- ------- system --------- -- ------------ -- --- ---- -----<br>------ ---- ---- ------ ------ ------- --- ----- ---------<br>---- --- -------- -------- --- --- -- ------- --- --- -----<br>-- --- ------ ------- --- --- -------- ---- --------- --<br>---------- -- -------- ----------------,359074.0349999978,359072.84999999683,358003.679,358003.70999996085,358020.51,359087.382,,12,system
screen,html.Screen,1_3_1_0_1_13,2021-04-18T10:19:33.965Z,,,,,,,,,,,,,,,,11,,,,,,,,,,,,,,1409.647999969544,,response,,,,4,E,,,,,,Space,keypress(Space),,,,lyrical,,,,----- -- ---- --- -- --- -------- ------------ ---------- --<br>- ------- ------ comprised -- ------------ -- --- ---- -----<br>------ ---- ---- ------ ------ ------- --- ----- ---------<br>---- --- -------- -------- --- --- -- ------- --- --- -----<br>-- --- ------ ------- --- --- -------- ---- --------- --<br>---------- -- -------- ----------------,360498.1750000152,360497.0299999695,359070.019,359074.2200000095,359087.382,360505.017,,13,comprised
screen,html.Screen,1_3_1_0_1_14,2021-04-18T10:19:34.483Z,,,,,,,,,,,,,,,,11,,,,,,,,,,,,,,510.36799997696653,,response,,,,4,E,,,,,,Space,keypress(Space),,,,lyrical,,,,----- -- ---- --- -- --- -------- ------------ ---------- --<br>- ------- ------ --------- of ------------ -- --- ---- -----<br>------ ---- ---- ------ ------ ------- --- ----- ---------<br>---- --- -------- -------- --- --- -- ------- --- --- -----<br>-- --- ------ ------- --- --- -------- ---- --------- --<br>---------- -- -------- ----------------,361016.59999997355,361015.38499997696,360486.718,360498.3699999866,360505.017,361020.147,,14,of
screen,html.Screen,1_3_1_0_1_15,2021-04-18T10:19:36.116Z,,,,,,,,,,,,,,,,11,,,,,,,,,,,,,,1628.1479999626754,,response,,,,4,E,,,,,,Space,keypress(Space),,,,lyrical,,,,----- -- ---- --- -- --- -------- ------------ ---------- --<br>- ------- ------ --------- -- pictographs. -- --- ---- -----<br>------ ---- ---- ------ ------ ------- --- ----- ---------<br>---- --- -------- -------- --- --- -- ------- --- --- -----<br>-- --- ------ ------- --- --- -------- ---- --------- --<br>---------- -- -------- ----------------,362649.4400000083,362648.2949999627,361003.491,361016.7950000032,361020.147,362653.896,,15,pictographs.
screen,html.Screen,1_3_1_0_1_16,2021-04-18T10:19:36.561Z,,,,,,,,,,,,,,,,11,,,,,,,,,,,,,,438.0639999906416,,response,,,,4,E,,,,,,Space,keypress(Space),,,,lyrical,,,,----- -- ---- --- -- --- -------- ------------ ---------- --<br>- ------- ------ --------- -- ------------ It --- ---- -----<br>------ ---- ---- ------ ------ ------- --- ----- ---------<br>---- --- -------- -------- --- --- -- ------- --- --- -----<br>-- --- ------ ------- --- --- -------- ---- --------- --<br>---------- -- -------- ----------------,363093.8599999645,363091.95999999065,362636.84,362649.6249999618,362653.896,363103.511,,16,It
screen,html.Screen,1_3_1_0_1_17,2021-04-18T10:19:36.893Z,,,,,,,,,,,,,,,,11,,,,,,,,,,,,,,322.03899998537963,,response,,,,4,E,,,,,,Space,keypress(Space),,,,lyrical,,,,----- -- ---- --- -- --- -------- ------------ ---------- --<br>- ------- ------ --------- -- ------------ -- has ---- -----<br>------ ---- ---- ------ ------ ------- --- ----- ---------<br>---- --- -------- -------- --- --- -- ------- --- --- -----<br>-- --- ------ ------- --- --- -------- ---- --------- --<br>---------- -- -------- ----------------,363426.71999998856,363425.5499999854,363086.974,363094.09500000766,363103.511,363436.927,,17,has
screen,html.Screen,1_3_1_0_1_18,2021-04-18T10:19:37.277Z,,,,,,,,,,,,,,,,11,,,,,,,,,,,,,,372.2129999684403,,response,,,,4,E,,,,,,Space,keypress(Space),,,,lyrical,,,,----- -- ---- --- -- --- -------- ------------ ---------- --<br>- ------- ------ --------- -- ------------ -- --- been -----<br>------ ---- ---- ------ ------ ------- --- ----- ---------<br>---- --- -------- -------- --- --- -- ------- --- --- -----<br>-- --- ------ ------- --- --- -------- ---- --------- --<br>---------- -- -------- ----------------,363810.33999996725,363809.13999996847,363420.291,363426.9099999801,363436.927,363820.818,,18,been
screen,html.Screen,1_3_1_0_1_19,2021-04-18T10:19:37.804Z,,,,,,,,,,,,,,,,11,,,,,,,,,,,,,,515.6320000024862,,response,,,,4,E,,,,,,Space,keypress(Space),,,,lyrical,,,,----- -- ---- --- -- --- -------- ------------ ---------- --<br>- ------- ------ --------- -- ------------ -- --- ---- found<br>------ ---- ---- ------ ------ ------- --- ----- ---------<br>---- --- -------- -------- --- --- -- ------- --- --- -----<br>-- --- ------ ------- --- --- -------- ---- --------- --<br>---------- -- -------- ----------------,364337.65999996103,364336.4500000025,363803.638,363810.5299999588,363820.818,364353.719,,19,found
screen,html.Screen,1_3_1_0_1_20,2021-04-18T10:19:38.712Z,,,,,,,,,,,,,,,,11,,,,,,,,,,,,,,889.9509999962174,,response,,,,4,E,,,,,,Space,keypress(Space),,,,lyrical,,,,----- -- ---- --- -- --- -------- ------------ ---------- --<br>- ------- ------ --------- -- ------------ -- --- ---- -----<br>carved ---- ---- ------ ------ ------- --- ----- ---------<br>---- --- -------- -------- --- --- -- ------- --- --- -----<br>-- --- ------ ------- --- --- -------- ---- --------- --<br>---------- -- -------- ----------------,365245.3899999964,365243.6699999962,364337.023,364337.8500000108,364353.719,365253.739,,20,carved
screen,html.Screen,1_3_1_0_1_21,2021-04-18T10:19:39.184Z,,,,,,,,,,,,,,,,11,,,,,,,,,,,,,,462.0460000075982,,response,,,,4,E,,,,,,Space,keypress(Space),,,,lyrical,,,,----- -- ---- --- -- --- -------- ------------ ---------- --<br>- ------- ------ --------- -- ------------ -- --- ---- -----<br>------ into ---- ------ ------ ------- --- ----- ---------<br>---- --- -------- -------- --- --- -- ------- --- --- -----<br>-- --- ------ ------- --- --- -------- ---- --------- --<br>---------- -- -------- ----------------,365716.9700000086,365715.7850000076,365236.971,365245.57999998797,365253.739,365720.418,,21,into
screen,html.Screen,1_3_1_0_1_22,2021-04-18T10:19:39.703Z,,,,,,,,,,,,,,,,11,,,,,,,,,,,,,,514.6920000087121,,response,,,,4,E,,,,,,Space,keypress(Space),,,,lyrical,,,,----- -- ---- --- -- --- -------- ------------ ---------- --<br>- ------- ------ --------- -- ------------ -- --- ---- -----<br>------ ---- many ------ ------ ------- --- ----- ---------<br>---- --- -------- -------- --- --- -- ------- --- --- -----<br>-- --- ------ ------- --- --- -------- ---- --------- --<br>---------- -- -------- ----------------,366236.2800000119,366235.1100000087,365703.705,365717.16000000015,365720.418,366270.46,,22,many
screen,html.Screen,1_3_1_0_1_23,2021-04-18T10:19:40.494Z,,,,,,,,,,,,,,,,11,,,,,,,,,,,,,,755.9649999890826,,response,,,,4,E,,,,,,Space,keypress(Space),,,,lyrical,,,,----- -- ---- --- -- --- -------- ------------ ---------- --<br>- ------- ------ --------- -- ------------ -- --- ---- -----<br>------ ---- ---- oblong ------ ------- --- ----- ---------<br>---- --- -------- -------- --- --- -- ------- --- --- -----<br>-- --- ------ ------- --- --- -------- ---- --------- --<br>---------- -- -------- ----------------,367027.5649999967,367026.4249999891,366254.242,366236.47000000346,366270.46,367037.704,,23,oblong
screen,html.Screen,1_3_1_0_1_24,2021-04-18T10:19:40.972Z,,,,,,,,,,,,,,,,11,,,,,,,,,,,,,,466.03099997655954,,response,,,,4,E,,,,,,Space,keypress(Space),,,,lyrical,,,,----- -- ---- --- -- --- -------- ------------ ---------- --<br>- ------- ------ --------- -- ------------ -- --- ---- -----<br>------ ---- ---- ------ wooden ------- --- ----- ---------<br>---- --- -------- -------- --- --- -- ------- --- --- -----<br>-- --- ------ ------- --- --- -------- ---- --------- --<br>---------- -- -------- ----------------,367505.5599999614,367503.7349999766,367020.399,367027.7500000084,367037.704,367520.623,,24,wooden
screen,html.Screen,1_3_1_0_1_25,2021-04-18T10:19:42.262Z,,,,,,,,,,,,,,,,11,,,,,,,,,,,,,,1272.6919999589445,,response,,,,4,E,,,,,,Space,keypress(Space),,,,lyrical,,,,----- -- ---- --- -- --- -------- ------------ ---------- --<br>- ------- ------ --------- -- ------------ -- --- ---- -----<br>------ ---- ---- ------ ------ tablets --- ----- ---------<br>---- --- -------- -------- --- --- -- ------- --- --- -----<br>-- --- ------ ------- --- --- -------- ---- --------- --<br>---------- -- -------- ----------------,368795.0599999749,368793.31499995897,367503.746,367505.839999998,367520.623,368803.866,,25,tablets
screen,html.Screen,1_3_1_0_1_26,2021-04-18T10:19:42.770Z,,,,,,,,,,,,,,,,11,,,,,,,,,,,,,,497.9289999775938,,response,,,,4,E,,,,,,Space,keypress(Space),,,,lyrical,,,,----- -- ---- --- -- --- -------- ------------ ---------- --<br>- ------- ------ --------- -- ------------ -- --- ---- -----<br>------ ---- ---- ------ ------ ------- and ----- ---------<br>---- --- -------- -------- --- --- -- ------- --- --- -----<br>-- --- ------ ------- --- --- -------- ---- --------- --<br>---------- -- -------- ----------------,369303.0049999943,369301.7949999776,368787.109,368795.3400000115,368803.866,369337.267,,26,and
screen,html.Screen,1_3_1_0_1_27,2021-04-18T10:19:43.148Z,,,,,,,,,,,,,,,,11,,,,,,,,,,,,,,342.7079999772832,,response,,,,4,E,,,,,,Space,keypress(Space),,,,lyrical,,,,----- -- ---- --- -- --- -------- ------------ ---------- --<br>- ------- ------ --------- -- ------------ -- --- ---- -----<br>------ ---- ---- ------ ------ ------- --- other ---------<br>---- --- -------- -------- --- --- -- ------- --- --- -----<br>-- --- ------ ------- --- --- -------- ---- --------- --<br>---------- -- -------- ----------------,369681.1999999918,369679.9749999773,369320.538,369303.1999999657,369337.267,369687.353,,27,other
screen,html.Screen,1_3_1_0_1_28,2021-04-18T10:19:44.338Z,,,,,,,,,,,,,,,,11,,,,,,,,,,,,,,1182.84700000484,,response,,,,4,E,,,,,,Space,keypress(Space),,,,lyrical,,,,----- -- ---- --- -- --- -------- ------------ ---------- --<br>- ------- ------ --------- -- ------------ -- --- ---- -----<br>------ ---- ---- ------ ------ ------- --- ----- artifacts<br>---- --- -------- -------- --- --- -- ------- --- --- -----<br>-- --- ------ ------- --- --- -------- ---- --------- --<br>---------- -- -------- ----------------,370871.4049999835,370870.20000000484,369670.562,369681.38999998337,369687.353,370887.337,,28,artifacts
screen,html.Screen,1_3_1_0_1_29,2021-04-18T10:19:45.209Z,,,,,,,,,,,,,,,,11,,,,,,,,,,,,,,853.8529999715392,,response,,,,4,E,,,,,,Space,keypress(Space),,,,lyrical,,,,----- -- ---- --- -- --- -------- ------------ ---------- --<br>- ------- ------ --------- -- ------------ -- --- ---- -----<br>------ ---- ---- ------ ------ ------- --- ----- ---------<br>from --- -------- -------- --- --- -- ------- --- --- -----<br>-- --- ------ ------- --- --- -------- ---- --------- --<br>---------- -- -------- ----------------,371742.3449999769,371741.18999997154,370870.52,370872.50499997754,370887.337,371754.661,,29,from
screen,html.Screen,1_3_1_0_1_30,2021-04-18T10:19:45.719Z,,,,,,,,,,,,,,,,11,,,,,,,,,,,,,,496.2989999757265,,response,,,,4,E,,,,,,Space,keypress(Space),,,,lyrical,,,,----- -- ---- --- -- --- -------- ------------ ---------- --<br>- ------- ------ --------- -- ------------ -- --- ---- -----<br>------ ---- ---- ------ ------ ------- --- ----- ---------<br>---- the -------- -------- --- --- -- ------- --- --- -----<br>-- --- ------ ------- --- --- -------- ---- --------- --<br>---------- -- -------- ----------------,372252.2250000038,372250.95999997575,371737.7,371742.5449999864,371754.661,372253.958,,30,the
screen,html.Screen,1_3_1_0_1_31,2021-04-18T10:19:46.320Z,,,,,,,,,,,,,,,,11,,,,,,,,,,,,,,597.7619999769377,,response,,,,4,E,,,,,,Space,keypress(Space),,,,lyrical,,,,----- -- ---- --- -- --- -------- ------------ ---------- --<br>- ------- ------ --------- -- ------------ -- --- ---- -----<br>------ ---- ---- ------ ------ ------- --- ----- ---------<br>---- --- island's -------- --- --- -- ------- --- --- -----<br>-- --- ------ ------- --- --- -------- ---- --------- --<br>---------- -- -------- ----------------,372852.87000000244,372851.7199999769,372237.336,372252.4149999954,372253.958,372885.243,,31,island's
screen,html.Screen,1_3_1_0_1_32,2021-04-18T10:19:49.184Z,,,,,,,,,,,,,,,,11,,,,,,,,,,,,,,2830.576999983052,,response,,,,4,E,,,,,,Space,keypress(Space),,,,lyrical,,,,----- -- ---- --- -- --- -------- ------------ ---------- --<br>- ------- ------ --------- -- ------------ -- --- ---- -----<br>------ ---- ---- ------ ------ ------- --- ----- ---------<br>---- --- -------- history. --- --- -- ------- --- --- -----<br>-- --- ------ ------- --- --- -------- ---- --------- --<br>---------- -- -------- ----------------,375717.0000000042,375715.81999998307,372837.784,372853.059999994,372885.243,375721.431,,32,history.
screen,html.Screen,1_3_1_0_1_33,2021-04-18T10:19:49.653Z,,,,,,,,,,,,,,,,11,,,,,,,,,,,,,,462.65899999521207,,response,,,,4,E,,,,,,Space,keypress(Space),,,,lyrical,,,,----- -- ---- --- -- --- -------- ------------ ---------- --<br>- ------- ------ --------- -- ------------ -- --- ---- -----<br>------ ---- ---- ------ ------ ------- --- ----- ---------<br>---- --- -------- -------- The --- -- ------- --- --- -----<br>-- --- ------ ------- --- --- -------- ---- --------- --<br>---------- -- -------- ----------------,376185.9800000093,376184.0899999952,375704.005,375717.20499999356,375721.431,376205.574,,33,The
screen,html.Screen,1_3_1_0_1_34,2021-04-18T10:19:50.034Z,,,,,,,,,,,,,,,,11,,,,,,,,,,,,,,360.92600001534447,,response,,,,4,E,,,,,,Space,keypress(Space),,,,lyrical,,,,----- -- ---- --- -- --- -------- ------------ ---------- --<br>- ------- ------ --------- -- ------------ -- --- ---- -----<br>------ ---- ---- ------ ------ ------- --- ----- ---------<br>---- --- -------- -------- --- art -- ------- --- --- -----<br>-- --- ------ ------- --- --- -------- ---- --------- --<br>---------- -- -------- ----------------,376567.6749999984,376566.50000001537,376170.824,376186.17000000086,376205.574,376570.838,,34,art
screen,html.Screen,1_3_1_0_1_35,2021-04-18T10:19:50.444Z,,,,,,,,,,,,,,,,11,,,,,,,,,,,,,,404.9369999989867,,response,,,,4,E,,,,,,Space,keypress(Space),,,,lyrical,,,,----- -- ---- --- -- --- -------- ------------ ---------- --<br>- ------- ------ --------- -- ------------ -- --- ---- -----<br>------ ---- ---- ------ ------ ------- --- ----- ---------<br>---- --- -------- -------- --- --- of ------- --- --- -----<br>-- --- ------ ------- --- --- -------- ---- --------- --<br>---------- -- -------- ----------------,376976.9049999886,376975.774999999,376554.451,376567.86999996984,376570.838,376987.548,,35,of
screen,html.Screen,1_3_1_0_1_36,2021-04-18T10:19:50.977Z,,,,,,,,,,,,,,,,11,,,,,,,,,,,,,,521.146999967692,,response,,,,4,E,,,,,,Space,keypress(Space),,,,lyrical,,,,----- -- ---- --- -- --- -------- ------------ ---------- --<br>- ------- ------ --------- -- ------------ -- --- ---- -----<br>------ ---- ---- ------ ------ ------- --- ----- ---------<br>---- --- -------- -------- --- --- -- writing --- --- -----<br>-- --- ------ ------- --- --- -------- ---- --------- --<br>---------- -- -------- ----------------,377509.82500001555,377508.6949999677,376970.925,376977.0949999802,376987.548,377520.905,,36,writing
screen,html.Screen,1_3_1_0_1_37,2021-04-18T10:19:51.703Z,,,,,,,,,,,,,,,,11,,,,,,,,,,,,,,714.6849999965634,,response,,,,4,E,,,,,,Space,keypress(Space),,,,lyrical,,,,----- -- ---- --- -- --- -------- ------------ ---------- --<br>- ------- ------ --------- -- ------------ -- --- ---- -----<br>------ ---- ---- ------ ------ ------- --- ----- ---------<br>---- --- -------- -------- --- --- -- ------- was --- -----<br>-- --- ------ ------- --- --- -------- ---- --------- --<br>---------- -- -------- ----------------,378236.49999999907,378235.5899999966,377504.252,377510.0150000071,377520.905,378261.163,,37,was
screen,html.Screen,1_3_1_0_1_38,2021-04-18T10:19:52.157Z,,,,,,,,,,,,,,,,11,,,,,,,,,,,,,,427.9419999976526,,response,,,,4,E,,,,,,Space,keypress(Space),,,,lyrical,,,,----- -- ---- --- -- --- -------- ------------ ---------- --<br>- ------- ------ --------- -- ------------ -- --- ---- -----<br>------ ---- ---- ------ ------ ------- --- ----- ---------<br>---- --- -------- -------- --- --- -- ------- --- not -----<br>-- --- ------ ------- --- --- -------- ---- --------- --<br>---------- -- -------- ----------------,378690.28999999864,378689.10499999765,378220.909,378236.6949999705,378261.163,378704.391,,38,not
