sender,sender_type,sender_id,timestamp,meta,,Blues,Classical,Country,Dance,Electronic,Folk,Gospel,Hip-Hop,Jazz,Latin,Musical/Film,New-age,Pop,Provo_ID,R&B,Rap,Reggae,Religious,Rock,Soul,Swing,Traditional,age,artist_name,correct,correctResponse,distraction,duration,education,ended_on,familiarity,gender,headphone_check_performance,item,list,music_frequency,offensiveness,pleasantness,position_correct,preference,response,response_action,snippet_file,song_name,song_rating,sound,stimulus_1,stimulus_2,stimulus_3,text,time_commit,time_end,time_render,time_run,time_show,time_switch,url,word,word_ID
Introduction,html.Screen,0_0,2021-04-22T13:14:55.244Z,"{""labjs_version"":""20.2.2"",""labjs_build"":{""flavor"":""production"",""commit"":""a25486e0c714a0ae2ce03ff94b7bb6896854dcfa""},""location"":""https://run.pavlovia.org/mvasilev/music_f/"",""userAgent"":""Mozilla/5.0 (Windows NT 10.0; Win64; x64) AppleWebKit/537.36 (KHTML, like Gecko) Chrome/89.0.4389.128 Safari/537.36"",""platform"":""Win32"",""language"":""en-GB"",""locale"":""en-GB"",""timeZone"":""Europe/London"",""timezoneOffset"":-60,""screen_width"":1280,""screen_height"":720,""scroll_width"":1280,""scroll_height"":562,""window_innerWidth"":1280,""window_innerHeight"":610,""devicePixelRatio"":1.5}",,,,,,,,,,,,,,,,,,,,,,,,,,,,,40715.985000348686,,response,,,,,,,,,,,continue,click button,,,,,,,,,65765.06499992684,65763.77500034869,25013.732,25021.14999992773,25047.79,65776.681,{},,
Volume calibration,html.Screen,0_1,2021-04-22T13:15:26.410Z,,,,,,,,,,,,,,,,,,,,,,,,,,,,,,31148.349000042173,,response,,,,,,,,,,,continue,click button,,,,,,,,,96931.77000014111,96925.03000004217,65760.199,65765.33000031486,65776.681,96936.194,,,
Task instructions,html.Screen,0_2,2021-04-22T13:15:36.203Z,,,,,,,,,,,,,,,,,,,,,,,,,,,,,,9786.911000331995,,response,,,,,,,,,,,continue,click button,,,,,,,,,106724.6850002557,106723.105000332,96919.542,96932.2950001806,96936.194,106739.079,,,
Sounds,html.Screen,0_3_0_0,2021-04-22T13:15:40.456Z,,,,,,,,,,,,,,,,,,,,,,,,,,,,,,4251.198000000004,,timeout,,,,,,,,,3,,,,,,,,I,O,S,,110977.33000013977,110973.642,106722.467,106725.30500032008,106739.079,110990.277,,,
Judgement,html.Screen,0_3_0_1,2021-04-22T13:15:44.444Z,,,,,,,,,,,,,,,,,,,,,,,,,,,true,3,,3972.923000114737,,response,,,,,,,,,3,,3,click #choice-3,,,,,I,O,S,,114965.27000004426,114963.20000011474,110973.642,110977.5900002569,110990.277,114974.887,,,
Trial,flow.Sequence,0_3_0,2021-04-22T13:15:44.448Z,,,,,,,,,,,,,,,,,,,,,,,,,,,,,,8224.121000114741,,completion,,,,,,,,,3,,,,,,,,I,O,S,,114969.83500011265,114963.20000011474,106722.467,106725.16999999061,106739.079,114974.887,,,
Sounds,html.Screen,0_3_1_0,2021-04-22T13:15:48.691Z,,,,,,,,,,,,,,,,,,,,,,,,,,,,,,4251.237999999998,,timeout,,,,,,,,,1,,,,,,,,S,I,O,,119211.51000028476,119209.901,114958.472,114970.3550003469,114974.887,119226.125,,,
Judgement,html.Screen,0_3_1_1,2021-04-22T13:15:49.588Z,,,,,,,,,,,,,,,,,,,,,,,,,,,true,1,,880.9750001393259,,response,,,,,,,,,1,,1,click #choice-1,,,,,S,I,O,,120108.82500000298,120107.10000013933,119209.901,119211.84500027448,119226.125,120109.835,,,
Trial,flow.Sequence,0_3_1,2021-04-22T13:15:49.589Z,,,,,,,,,,,,,,,,,,,,,,,,,,,,,,5132.213000139323,,completion,,,,,,,,,1,,,,,,,,S,I,O,,120109.42000010982,120107.10000013933,114958.472,114970.21500021219,114974.887,120109.835,,,
Sounds,html.Screen,0_3_2_0,2021-04-22T13:15:53.825Z,,,,,,,,,,,,,,,,,,,,,,,,,,,,,,4251.23599999999,,timeout,,,,,,,,,1,,,,,,,,S,O,I,,124346.05500008911,124344.59,120093.435,120109.85000012442,120109.835,124361.071,,,
Judgement,html.Screen,0_3_2_1,2021-04-22T13:15:54.786Z,,,,,,,,,,,,,,,,,,,,,,,,,,,true,1,,943.8340001427568,,response,,,,,,,,,1,,1,click #choice-1,,,,,S,O,I,,125306.48000026122,125304.90500014275,124344.59,124346.38000000268,124361.071,125311.307,,,
Trial,flow.Sequence,0_3_2,2021-04-22T13:15:54.786Z,,,,,,,,,,,,,,,,,,,,,,,,,,,,,,5195.070000142747,,completion,,,,,,,,,1,,,,,,,,S,O,I,,125306.98500014842,125304.90500014275,120093.435,120109.72500033677,120109.835,125311.307,,,
Sounds,html.Screen,0_3_3_0,2021-04-22T13:15:59.027Z,,,,,,,,,,,,,,,,,,,,,,,,,,,,,,4251.255000000005,,timeout,,,,,,,,,2,,,,,,,,I,S,O,,129547.85000020638,129546.24,125295.047,125307.32499994338,125311.307,129562.562,,,
Judgement,html.Screen,0_3_3_1,2021-04-22T13:15:59.964Z,,,,,,,,,,,,,,,,,,,,,,,,,,,true,2,,921.4730002050346,,response,,,,,,,,,2,,2,click #choice-2,,,,,I,S,O,,130485.15000008047,130484.03500020504,129546.24,129548.15499996766,129562.562,130496.257,,,
Trial,flow.Sequence,0_3_3,2021-04-22T13:15:59.965Z,,,,,,,,,,,,,,,,,,,,,,,,,,,,,,5172.728000205039,,completion,,,,,,,,,2,,,,,,,,I,S,O,,130485.4649999179,130484.03500020504,125295.047,125307.20499996096,125311.307,130496.257,,,
Sounds,html.Screen,0_3_4_0,2021-04-22T13:16:04.212Z,,,,,,,,,,,,,,,,,,,,,,,,,,,,,,4251.270999999993,,timeout,,,,,,,,,2,,,,,,,,O,S,I,,134732.90499998257,134731.206,130479.934,130485.67500011995,130496.257,134747.528,,,
Judgement,html.Screen,0_3_4_1,2021-04-22T13:16:04.865Z,,,,,,,,,,,,,,,,,,,,,,,,,,,true,2,,635.9470000387519,,response,,,,,,,,,2,,2,click #choice-2,,,,,O,S,I,,135385.25500008836,135383.47500003874,134731.206,134733.21500001475,134747.528,135397.763,,,
Trial,flow.Sequence,0_3_4,2021-04-22T13:16:04.865Z,,,,,,,,,,,,,,,,,,,,,,,,,,,,,,4887.218000038745,,completion,,,,,,,,,2,,,,,,,,O,S,I,,135385.75999997556,135383.47500003874,130479.934,130485.6100003235,130496.257,135397.763,,,
Sounds,html.Screen,0_3_5_0,2021-04-22T13:16:09.113Z,,,,,,,,,,,,,,,,,,,,,,,,,,,,,,4251.237999999983,,timeout,,,,,,,,,3,,,,,,,,O,I,S,,139633.79000034183,139632.319,135381.365,135386.13500026986,135397.763,139649.001,,,
Judgement,html.Screen,0_3_5_1,2021-04-22T13:16:09.903Z,,,,,,,,,,,,,,,,,,,,,,,,,,,true,3,,773.0840002020705,,response,,,,,,,,,3,,3,click #choice-3,,,,,O,I,S,,140423.7649999559,140422.08500020206,139632.319,139634.07499995083,139649.001,140432.581,,,
Trial,flow.Sequence,0_3_5,2021-04-22T13:16:09.904Z,,,,,,,,,,,,,,,,,,,,,,,,,,,,,,5024.3220002020535,,completion,,,,,,,,,3,,,,,,,,O,I,S,,140424.275000114,140422.08500020206,135381.365,135386.03000016883,135397.763,140432.581,,,
Task,flow.Loop,0_3,2021-04-22T13:16:09.914Z,,,,,,,,,,,,,,,,,,,,,,,,,,,,,,33683.00600020206,,completion,,,1,,,,,,,,,,,,,,,,,,140434.72000025213,140422.08500020206,106722.467,106725.03999993205,106739.079,140432.581,,,
Trap,html.Screen,0_4,2021-04-22T13:16:09.918Z,,,,,,,,,,,,,,,,,,,,,,,,,,,,,,NaN,,skipped,,,,,,,,,,,,,,,,,,,,,140438.85000003502,140422.08500020206,,140438.744999934,,140432.581,,,
Thanks,html.Screen,0_5,2021-04-22T13:16:14.357Z,,,,,,,,,,,,,,,,,,,,,,,,,,,,,,4443.518999994034,,response,,,,,,,,,,,continue,click button,,,,,,,,,144877.72500002757,144876.09999999404,140416.209,140438.94000025466,140432.581,166273.561,,,
Headphone screening,flow.Sequence,0,2021-04-22T13:16:14.358Z,,,,,,,,,,,,,,,,,,,,,,,,,,,,,,119828.30999999403,,completion,,,,,,,,,,,,,,,,,,,,,144878.25000006706,144876.09999999404,25013.732,25021.120000164956,25047.79,166273.561,,,
Instructions,html.Page,1_0,2021-04-22T13:17:12.442Z,,,,,,,,,,,,,,,,,,,,,,,,,,,,,,36688.5540000021,,form submission,,,,,,,,,,,,,,,,,,,,,202962.9750000313,202962.1150000021,166257.028,166276.83500014246,166273.561,202968.035,,,
Holding screen,html.Screen,1_1_0_0,2021-04-22T13:17:22.435Z,,,,,,,,,,,,,,,,,,,,,,,,,,,,,,10019.682,,timeout,,,,,,,,,,,,,,,,,,,,,212956.06000022963,212954.817,202951.43,202963.45000015572,202968.035,212987.717,,,
screen,html.Screen,1_1_0_1_0,2021-04-22T13:17:25.117Z,,,,,,,,,,,,,,,,53,,,,,,,,,,,,,,2644.713000230666,,response,,,,99,,,,,,,Space,keypress(Space),,,,,,,,When -- ----- -- ------ - ------- --- ----------<br>------------- ------ ------ ---- ---- ------- ----- -- ----<br>-------- ------- -- ---------- --- - --- ----- ----- ----<br>---- --- --- ----- --- ---- ---- ------- ----- ---- -------<br>--- --- -- ----- -- --- ---- -- --- ---- -- ------ ------<br>--- ----- -- ----,215638.22000008076,215632.43000023067,212954.817,212956.58500026911,212987.717,215655.586,,0,When
screen,html.Screen,1_1_0_1_1,2021-04-22T13:17:26.167Z,,,,,,,,,,,,,,,,53,,,,,,,,,,,,,,1031.289000130375,,response,,,,99,,,,,,,Space,keypress(Space),,,,,,,,---- it ----- -- ------ - ------- --- ----------<br>------------- ------ ------ ---- ---- ------- ----- -- ----<br>-------- ------- -- ---------- --- - --- ----- ----- ----<br>---- --- --- ----- --- ---- ---- ------- ----- ---- -------<br>--- --- -- ----- -- --- ---- -- --- ---- -- ------ ------<br>--- ----- -- ----,216688.03500011563,216686.87500013039,215638.601,215638.5600003414,215655.586,216705.774,,1,it
screen,html.Screen,1_1_0_1_2,2021-04-22T13:17:26.803Z,,,,,,,,,,,,,,,,53,,,,,,,,,,,,,,617.4610000180255,,response,,,,99,,,,,,,Space,keypress(Space),,,,,,,,---- -- comes -- ------ - ------- --- ----------<br>------------- ------ ------ ---- ---- ------- ----- -- ----<br>-------- ------- -- ---------- --- - --- ----- ----- ----<br>---- --- --- ----- --- ---- ---- ------- ----- ---- -------<br>--- --- -- ----- -- --- ---- -- --- ---- -- ------ ------<br>--- ----- -- ----,217324.29500017315,217323.23500001803,216689.018,216688.3650003001,216705.774,217339.44,,2,comes
screen,html.Screen,1_1_0_1_3,2021-04-22T13:17:27.980Z,,,,,,,,,,,,,,,,53,,,,,,,,,,,,,,1160.985000209359,,response,,,,99,,,,,,,Space,keypress(Space),,,,,,,,---- -- ----- to ------ - ------- --- ----------<br>------------- ------ ------ ---- ---- ------- ----- -- ----<br>-------- ------- -- ---------- --- - --- ----- ----- ----<br>---- --- --- ----- --- ---- ---- ------- ----- ---- -------<br>--- --- -- ----- -- --- ---- -- --- ---- -- ------ ------<br>--- ----- -- ----,218501.39999995008,218500.42500020936,217322.613,217324.5800002478,217339.44,218506.07,,3,to
screen,html.Screen,1_1_0_1_4,2021-04-22T13:17:28.445Z,,,,,,,,,,,,,,,,53,,,,,,,,,,,,,,458.7849999110331,,response,,,,99,,,,,,,Space,keypress(Space),,,,,,,,---- -- ----- -- having - ------- --- ----------<br>------------- ------ ------ ---- ---- ------- ----- -- ----<br>-------- ------- -- ---------- --- - --- ----- ----- ----<br>---- --- --- ----- --- ---- ---- ------- ----- ---- -------<br>--- --- -- ----- -- --- ---- -- --- ---- -- ------ ------<br>--- ----- -- ----,218966.05500020087,218964.85499991104,218489.622,218501.68500002474,218506.07,218972.842,,4,having
screen,html.Screen,1_1_0_1_5,2021-04-22T13:17:28.914Z,,,,,,,,,,,,,,,,53,,,,,,,,,,,,,,461.5530003385502,,response,,,,99,,,,,,,Space,keypress(Space),,,,,,,,---- -- ----- -- ------ a ------- --- ----------<br>------------- ------ ------ ---- ---- ------- ----- -- ----<br>-------- ------- -- ---------- --- - --- ----- ----- ----<br>---- --- --- ----- --- ---- ---- ------- ----- ---- -------<br>--- --- -- ----- -- --- ---- -- --- ---- -- ------ ------<br>--- ----- -- ----,219435.4950003326,219434.39500033855,218956.386,218966.38499991968,218972.842,219439.686,,5,a
screen,html.Screen,1_1_0_1_6,2021-04-22T13:17:29.792Z,,,,,,,,,,,,,,,,53,,,,,,,,,,,,,,872.7040000937413,,response,,,,99,,,,,,,Space,keypress(Space),,,,,,,,---- -- ----- -- ------ - lasting --- ----------<br>------------- ------ ------ ---- ---- ------- ----- -- ----<br>-------- ------- -- ---------- --- - --- ----- ----- ----<br>---- --- --- ----- --- ---- ---- ------- ----- ---- -------<br>--- --- -- ----- -- --- ---- -- --- ---- -- ------ ------<br>--- ----- -- ----,220313.41500021517,220312.39000009373,219423.206,219435.81000017002,219439.686,220323.585,,6,lasting
screen,html.Screen,1_1_0_1_7,2021-04-22T13:17:30.456Z,,,,,,,,,,,,,,,,53,,,,,,,,,,,,,,652.4500002907298,,response,,,,99,,,,,,,Space,keypress(Space),,,,,,,,---- -- ----- -- ------ - ------- and ----------<br>------------- ------ ------ ---- ---- ------- ----- -- ----<br>-------- ------- -- ---------- --- - --- ----- ----- ----<br>---- --- --- ----- --- ---- ---- ------- ----- ---- -------<br>--- --- -- ----- -- --- ---- -- --- ---- -- ------ ------<br>--- ----- -- ----,220976.99500015005,220976.03500029072,220306.632,220313.7099999003,220323.585,220990.173,,7,and
screen,html.Screen,1_1_0_1_8,2021-04-22T13:17:31.037Z,,,,,,,,,,,,,,,,53,,,,,,,,,,,,,,566.8570002582273,,response,,,,99,,,,,,,Space,keypress(Space),,,,,,,,---- -- ----- -- ------ - ------- --- fulfilling<br>------------- ------ ------ ---- ---- ------- ----- -- ----<br>-------- ------- -- ---------- --- - --- ----- ----- ----<br>---- --- --- ----- --- ---- ---- ------- ----- ---- -------<br>--- --- -- ----- -- --- ---- -- --- ---- -- ------ ------<br>--- ----- -- ----,221558.30000014976,221557.03000025824,220973.768,220977.2749999538,220990.173,221574.033,,8,fulfilling
screen,html.Screen,1_1_0_1_9,2021-04-22T13:17:31.947Z,,,,,,,,,,,,,,,,53,,,,,,,,,,,,,,892.7670000529033,,response,,,,99,,,,,,,Space,keypress(Space),,,,,,,,"---- -- ----- -- ------ - ------- --- ----------<br>relationship, ------ ------ ---- ---- ------- ----- -- ----<br>-------- ------- -- ---------- --- - --- ----- ----- ----<br>---- --- --- ----- --- ---- ---- ------- ----- ---- -------<br>--- --- -- ----- -- --- ---- -- --- ---- -- ------ ------<br>--- ----- -- ----",222467.78500033543,222466.8000000529,221556.954,221558.62500006333,221574.033,222473.931,,9,"relationship,"
screen,html.Screen,1_1_0_1_10,2021-04-22T13:17:32.652Z,,,,,,,,,,,,,,,,53,,,,,,,,,,,,,,698.2439999560302,,response,,,,99,,,,,,,Space,keypress(Space),,,,,,,,---- -- ----- -- ------ - ------- --- ----------<br>------------- common ------ ---- ---- ------- ----- -- ----<br>-------- ------- -- ---------- --- - --- ----- ----- ----<br>---- --- --- ----- --- ---- ---- ------- ----- ---- -------<br>--- --- -- ----- -- --- ---- -- --- ---- -- ------ ------<br>--- ----- -- ----,223173.2399999164,223172.17499995604,222457.434,222468.06500013918,222473.931,223207.739,,10,common
screen,html.Screen,1_1_0_1_11,2021-04-22T13:17:33.212Z,,,,,,,,,,,,,,,,53,,,,,,,,,,,,,,524.5360003077076,,response,,,,99,,,,,,,Space,keypress(Space),,,,,,,,---- -- ----- -- ------ - ------- --- ----------<br>------------- ------ wisdom ---- ---- ------- ----- -- ----<br>-------- ------- -- ---------- --- - --- ----- ----- ----<br>---- --- --- ----- --- ---- ---- ------- ----- ---- -------<br>--- --- -- ----- -- --- ---- -- --- ---- -- ------ ------<br>--- ----- -- ----,223733.25000004843,223732.2750003077,223191.134,223173.53000026196,223207.739,223740.973,,11,wisdom
screen,html.Screen,1_1_0_1_12,2021-04-22T13:17:33.740Z,,,,,,,,,,,,,,,,53,,,,,,,,,,,,,,518.8870001074392,,response,,,,99,,,,,,,Space,keypress(Space),,,,,,,,---- -- ----- -- ------ - ------- --- ----------<br>------------- ------ ------ says ---- ------- ----- -- ----<br>-------- ------- -- ---------- --- - --- ----- ----- ----<br>---- --- --- ----- --- ---- ---- ------- ----- ---- -------<br>--- --- -- ----- -- --- ---- -- --- ---- -- ------ ------<br>--- ----- -- ----,224260.81999996677,224259.86000010744,223724.587,223733.53999992833,223740.973,224274.868,,12,says
screen,html.Screen,1_1_0_1_13,2021-04-22T13:17:34.251Z,,,,,,,,,,,,,,,,53,,,,,,,,,,,,,,495.70699997319025,,response,,,,99,,,,,,,Space,keypress(Space),,,,,,,,---- -- ----- -- ------ - ------- --- ----------<br>------------- ------ ------ ---- that ------- ----- -- ----<br>-------- ------- -- ---------- --- - --- ----- ----- ----<br>---- --- --- ----- --- ---- ---- ------- ----- ---- -------<br>--- --- -- ----- -- --- ---- -- --- ---- -- ------ ------<br>--- ----- -- ----,224771.75999991596,224770.57499997318,224258.082,224261.10500004143,224274.868,224774.574,,13,that
screen,html.Screen,1_1_0_1_14,2021-04-22T13:17:35.452Z,,,,,,,,,,,,,,,,53,,,,,,,,,,,,,,1197.3960003042885,,response,,,,99,,,,,,,Space,keypress(Space),,,,,,,,---- -- ----- -- ------ - ------- --- ----------<br>------------- ------ ------ ---- ---- feeling ----- -- ----<br>-------- ------- -- ---------- --- - --- ----- ----- ----<br>---- --- --- ----- --- ---- ---- ------- ----- ---- -------<br>--- --- -- ----- -- --- ---- -- --- ---- -- ------ ------<br>--- ----- -- ----,225972.945000045,225971.97000030428,224758.147,224772.02500030398,224774.574,226001.657,,14,feeling
screen,html.Screen,1_1_0_1_15,2021-04-22T13:17:36.668Z,,,,,,,,,,,,,,,,53,,,,,,,,,,,,,,1186.158000303083,,response,,,,99,,,,,,,Space,keypress(Space),,,,,,,,---- -- ----- -- ------ - ------- --- ----------<br>------------- ------ ------ ---- ---- ------- close -- ----<br>-------- ------- -- ---------- --- - --- ----- ----- ----<br>---- --- --- ----- --- ---- ---- ------- ----- ---- -------<br>--- --- -- ----- -- --- ---- -- --- ---- -- ------ ------<br>--- ----- -- ----,227188.85000003502,227187.8150003031,225958.207,225973.2250003144,226001.657,227191.985,,15,close
screen,html.Screen,1_1_0_1_16,2021-04-22T13:17:37.584Z,,,,,,,,,,,,,,,,53,,,,,,,,,,,,,,911.8650000722846,,response,,,,99,,,,,,,Space,keypress(Space),,,,,,,,---- -- ----- -- ------ - ------- --- ----------<br>------------- ------ ------ ---- ---- ------- ----- to ----<br>-------- ------- -- ---------- --- - --- ----- ----- ----<br>---- --- --- ----- --- ---- ---- ------- ----- ---- -------<br>--- --- -- ----- -- --- ---- -- --- ---- -- ------ ------<br>--- ----- -- ----,228104.86500011757,228103.85000007227,227175.498,227189.1749999486,227191.985,228108.899,,16,to
screen,html.Screen,1_1_0_1_17,2021-04-22T13:17:38.250Z,,,,,,,,,,,,,,,,53,,,,,,,,,,,,,,661.8660000229429,,response,,,,99,,,,,,,Space,keypress(Space),,,,,,,,---- -- ----- -- ------ - ------- --- ----------<br>------------- ------ ------ ---- ---- ------- ----- -- your<br>-------- ------- -- ---------- --- - --- ----- ----- ----<br>---- --- --- ----- --- ---- ---- ------- ----- ---- -------<br>--- --- -- ----- -- --- ---- -- --- ---- -- ------ ------<br>--- ----- -- ----,228771.73499995843,228770.76500002295,228092.259,228105.16000026837,228108.899,228775.791,,17,your
screen,html.Screen,1_1_0_1_18,2021-04-22T13:17:39.051Z,,,,,,,,,,,,,,,,53,,,,,,,,,,,,,,795.7139998834755,,response,,,,99,,,,,,,Space,keypress(Space),,,,,,,,---- -- ----- -- ------ - ------- --- ----------<br>------------- ------ ------ ---- ---- ------- ----- -- ----<br>romantic ------- -- ---------- --- - --- ----- ----- ----<br>---- --- --- ----- --- ---- ---- ------- ----- ---- -------<br>--- --- -- ----- -- --- ---- -- --- ---- -- ------ ------<br>--- ----- -- ----,229572.50000024214,229571.50499988347,228759.333,228772.01500022784,228775.791,229576.059,,18,romantic
screen,html.Screen,1_1_0_1_19,2021-04-22T13:17:39.807Z,,,,,,,,,,,,,,,,53,,,,,,,,,,,,,,751.071000106982,,response,,,,99,,,,,,,Space,keypress(Space),,,,,,,,---- -- ----- -- ------ - ------- --- ----------<br>------------- ------ ------ ---- ---- ------- ----- -- ----<br>-------- partner -- ---------- --- - --- ----- ----- ----<br>---- --- --- ----- --- ---- ---- ------- ----- ---- -------<br>--- --- -- ----- -- --- ---- -- --- ---- -- ------ ------<br>--- ----- -- ----,230328.1100001186,230327.130000107,229559.379,229572.7800000459,229576.059,230342.916,,19,partner
screen,html.Screen,1_1_0_1_20,2021-04-22T13:17:40.292Z,,,,,,,,,,,,,,,,53,,,,,,,,,,,,,,469.10400007033604,,response,,,,99,,,,,,,Space,keypress(Space),,,,,,,,---- -- ----- -- ------ - ------- --- ----------<br>------------- ------ ------ ---- ---- ------- ----- -- ----<br>-------- ------- is ---------- --- - --- ----- ----- ----<br>---- --- --- ----- --- ---- ---- ------- ----- ---- -------<br>--- --- -- ----- -- --- ---- -- --- ---- -- ------ ------<br>--- ----- -- ----,230813.0250000395,230812.02000007033,230326.55,230328.38999992236,230342.916,230826.703,,20,is
screen,html.Screen,1_1_0_1_21,2021-04-22T13:17:40.926Z,,,,,,,,,,,,,,,,53,,,,,,,,,,,,,,619.927000136784,,response,,,,99,,,,,,,Space,keypress(Space),,,,,,,,---- -- ----- -- ------ - ------- --- ----------<br>------------- ------ ------ ---- ---- ------- ----- -- ----<br>-------- ------- -- paramount. --- - --- ----- ----- ----<br>---- --- --- ----- --- ---- ---- ------- ----- ---- -------<br>--- --- -- ----- -- --- ---- -- --- ---- -- ------ ------<br>--- ----- -- ----,231447.59500026703,231446.6300001368,230809.808,230813.3050003089,230826.703,231460.295,,21,paramount.
screen,html.Screen,1_1_0_1_22,2021-04-22T13:17:41.428Z,,,,,,,,,,,,,,,,53,,,,,,,,,,,,,,488.3650002273789,,response,,,,99,,,,,,,Space,keypress(Space),,,,,,,,---- -- ----- -- ------ - ------- --- ----------<br>------------- ------ ------ ---- ---- ------- ----- -- ----<br>-------- ------- -- ---------- But - --- ----- ----- ----<br>---- --- --- ----- --- ---- ---- ------- ----- ---- -------<br>--- --- -- ----- -- --- ---- -- --- ---- -- ------ ------<br>--- ----- -- ----,231949.6750002727,231948.6600002274,231443.57,231447.87500007078,231460.295,231960.461,,22,But
screen,html.Screen,1_1_0_1_23,2021-04-22T13:17:41.901Z,,,,,,,,,,,,,,,,53,,,,,,,,,,,,,,461.52399990626145,,response,,,,99,,,,,,,Space,keypress(Space),,,,,,,,---- -- ----- -- ------ - ------- --- ----------<br>------------- ------ ------ ---- ---- ------- ----- -- ----<br>-------- ------- -- ---------- --- a --- ----- ----- ----<br>---- --- --- ----- --- ---- ---- ------- ----- ---- -------<br>--- --- -- ----- -- --- ---- -- --- ---- -- ------ ------<br>--- ----- -- ----,232422.64500027522,232421.98499990627,231943.625,231949.98500030488,231960.461,232426.848,,23,a
screen,html.Screen,1_1_0_1_24,2021-04-22T13:17:42.338Z,,,,,,,,,,,,,,,,53,,,,,,,,,,,,,,430.87700000894256,,response,,,,99,,,,,,,Space,keypress(Space),,,,,,,,---- -- ----- -- ------ - ------- --- ----------<br>------------- ------ ------ ---- ---- ------- ----- -- ----<br>-------- ------- -- ---------- --- - new ----- ----- ----<br>---- --- --- ----- --- ---- ---- ------- ----- ---- -------<br>--- --- -- ----- -- --- ---- -- --- ---- -- ------ ------<br>--- ----- -- ----,232858.77500008792,232857.72500000894,232410.551,232422.81999997795,232426.848,232883.302,,24,new
screen,html.Screen,1_1_0_1_25,2021-04-22T13:17:42.899Z,,,,,,,,,,,,,,,,53,,,,,,,,,,,,,,536.3480000543932,,response,,,,99,,,,,,,Space,keypress(Space),,,,,,,,---- -- ----- -- ------ - ------- --- ----------<br>------------- ------ ------ ---- ---- ------- ----- -- ----<br>-------- ------- -- ---------- --- - --- study ----- ----<br>---- --- --- ----- --- ---- ---- ------- ----- ---- -------<br>--- --- -- ----- -- --- ---- -- --- ---- -- ------ ------<br>--- ----- -- ----,233420.6449999474,233419.6500000544,232843.865,232859.11500034854,232883.302,233427.223,,25,study
screen,html.Screen,1_1_0_1_26,2021-04-22T13:17:43.351Z,,,,,,,,,,,,,,,,53,,,,,,,,,,,,,,444.21699990076013,,response,,,,99,,,,,,,Space,keypress(Space),,,,,,,,---- -- ----- -- ------ - ------- --- ----------<br>------------- ------ ------ ---- ---- ------- ----- -- ----<br>-------- ------- -- ---------- --- - --- ----- finds ----<br>---- --- --- ----- --- ---- ---- ------- ----- ---- -------<br>--- --- -- ----- -- --- ---- -- --- ---- -- ------ ------<br>--- ----- -- ----,233872.17000033706,233871.43999990076,233410.743,233420.93000002205,233427.223,233877.333,,26,finds
screen,html.Screen,1_1_0_1_27,2021-04-22T13:17:43.864Z,,,,,,,,,,,,,,,,53,,,,,,,,,,,,,,507.42700027729734,,response,,,,99,,,,,,,Space,keypress(Space),,,,,,,,---- -- ----- -- ------ - ------- --- ----------<br>------------- ------ ------ ---- ---- ------- ----- -- ----<br>-------- ------- -- ---------- --- - --- ----- ----- that<br>---- --- --- ----- --- ---- ---- ------- ----- ---- -------<br>--- --- -- ----- -- --- ---- -- --- ---- -- ------ ------<br>--- ----- -- ----,234385.69999998435,234384.7600002773,233860.983,233872.3500003107,233877.333,234394.147,,27,that
screen,html.Screen,1_1_0_1_28,2021-04-22T13:17:44.407Z,,,,,,,,,,,,,,,,53,,,,,,,,,,,,,,533.6930000184802,,response,,,,99,,,,,,,Space,keypress(Space),,,,,,,,---- -- ----- -- ------ - ------- --- ----------<br>------------- ------ ------ ---- ---- ------- ----- -- ----<br>-------- ------- -- ---------- --- - --- ----- ----- ----<br>it's --- --- ----- --- ---- ---- ------- ----- ---- -------<br>--- --- -- ----- -- --- ---- -- --- ---- -- ------ ------<br>--- ----- -- ----,234928.6700002849,234927.84000001848,234377.722,234385.9900003299,234394.147,234944.708,,28,it's
screen,html.Screen,1_1_0_1_29,2021-04-22T13:17:44.898Z,,,,,,,,,,,,,,,,53,,,,,,,,,,,,,,473.1370000472234,,response,,,,99,,,,,,,Space,keypress(Space),,,,,,,,---- -- ----- -- ------ - ------- --- ----------<br>------------- ------ ------ ---- ---- ------- ----- -- ----<br>-------- ------- -- ---------- --- - --- ----- ----- ----<br>---- not --- ----- --- ---- ---- ------- ----- ---- -------<br>--- --- -- ----- -- --- ---- -- --- ---- -- ------ ------<br>--- ----- -- ----,235418.9300001599,235417.84500004724,234927.621,234928.90499997884,234944.708,235427.828,,29,not
screen,html.Screen,1_1_0_1_30,2021-04-22T13:17:45.354Z,,,,,,,,,,,,,,,,53,,,,,,,,,,,,,,445.98700005721184,,response,,,,99,,,,,,,Space,keypress(Space),,,,,,,,---- -- ----- -- ------ - ------- --- ----------<br>------------- ------ ------ ---- ---- ------- ----- -- ----<br>-------- ------- -- ---------- --- - --- ----- ----- ----<br>---- --- how ----- --- ---- ---- ------- ----- ---- -------<br>--- --- -- ----- -- --- ---- -- --- ---- -- ------ ------<br>--- ----- -- ----,235875.18500024453,235873.81500005722,235411.344,235419.26000034437,235427.828,235877.98,,30,how
screen,html.Screen,1_1_0_1_31,2021-04-22T13:17:45.810Z,,,,,,,,,,,,,,,,53,,,,,,,,,,,,,,452.69500032483484,,response,,,,99,,,,,,,Space,keypress(Space),,,,,,,,---- -- ----- -- ------ - ------- --- ----------<br>------------- ------ ------ ---- ---- ------- ----- -- ----<br>-------- ------- -- ---------- --- - --- ----- ----- ----<br>---- --- --- close --- ---- ---- ------- ----- ---- -------<br>--- --- -- ----- -- --- ---- -- --- ---- -- ------ ------<br>--- ----- -- ----,236331.66499994695,236330.67500032485,235861.557,235875.4900000058,235877.98,236345.154,,31,close
screen,html.Screen,1_1_0_1_32,2021-04-22T13:17:46.194Z,,,,,,,,,,,,,,,,53,,,,,,,,,,,,,,369.2260002522671,,response,,,,99,,,,,,,Space,keypress(Space),,,,,,,,---- -- ----- -- ------ - ------- --- ----------<br>------------- ------ ------ ---- ---- ------- ----- -- ----<br>-------- ------- -- ---------- --- - --- ----- ----- ----<br>---- --- --- ----- you ---- ---- ------- ----- ---- -------<br>--- --- -- ----- -- --- ---- -- --- ---- -- ------ ------<br>--- ----- -- ----,236715.35000018775,236714.38000025228,236328.361,236331.94500021636,236345.154,236728.586,,32,you
screen,html.Screen,1_1_0_1_33,2021-04-22T13:17:46.610Z,,,,,,,,,,,,,,,,53,,,,,,,,,,,,,,402.11899990134407,,response,,,,99,,,,,,,Space,keypress(Space),,,,,,,,---- -- ----- -- ------ - ------- --- ----------<br>------------- ------ ------ ---- ---- ------- ----- -- ----<br>-------- ------- -- ---------- --- - --- ----- ----- ----<br>---- --- --- ----- --- feel ---- ------- ----- ---- -------<br>--- --- -- ----- -- --- ---- -- --- ---- -- ------ ------<br>--- ----- -- ----,237131.7350002937,237130.70499990135,236711.852,236715.6350002624,236728.586,237145.376,,33,feel
screen,html.Screen,1_1_0_1_34,2021-04-22T13:17:47.024Z,,,,,,,,,,,,,,,,53,,,,,,,,,,,,,,398.76900016720174,,response,,,,99,,,,,,,Space,keypress(Space),,,,,,,,---- -- ----- -- ------ - ------- --- ----------<br>------------- ------ ------ ---- ---- ------- ----- -- ----<br>-------- ------- -- ---------- --- - --- ----- ----- ----<br>---- --- --- ----- --- ---- that ------- ----- ---- -------<br>--- --- -- ----- -- --- ---- -- --- ---- -- ------ ------<br>--- ----- -- ----,237545.080000069,237544.1450001672,237128.554,237132.0100002922,237145.376,237562.126,,34,that
screen,html.Screen,1_1_0_1_35,2021-04-22T13:17:47.455Z,,,,,,,,,,,,,,,,53,,,,,,,,,,,,,,413.14900009165285,,response,,,,99,,,,,,,Space,keypress(Space),,,,,,,,---- -- ----- -- ------ - ------- --- ----------<br>------------- ------ ------ ---- ---- ------- ----- -- ----<br>-------- ------- -- ---------- --- - --- ----- ----- ----<br>---- --- --- ----- --- ---- ---- matters ----- ---- -------<br>--- --- -- ----- -- --- ---- -- --- ---- -- ------ ------<br>--- ----- -- ----,237976.31500009447,237975.27500009164,237545.337,237545.39000010118,237562.126,237978.591,,35,matters
screen,html.Screen,1_1_0_1_36,2021-04-22T13:17:47.870Z,,,,,,,,,,,,,,,,53,,,,,,,,,,,,,,412.0990002621256,,response,,,,99,,,,,,,Space,keypress(Space),,,,,,,,"---- -- ----- -- ------ - ------- --- ----------<br>------------- ------ ------ ---- ---- ------- ----- -- ----<br>-------- ------- -- ---------- --- - --- ----- ----- ----<br>---- --- --- ----- --- ---- ---- ------- most, ---- -------<br>--- --- -- ----- -- --- ---- -- --- ---- -- ------ ------<br>--- ----- -- ----",238391.6400000453,238390.6900002621,237962.107,237976.62000032142,237978.591,238395.392,,36,"most,"
screen,html.Screen,1_1_0_1_37,2021-04-22T13:17:48.550Z,,,,,,,,,,,,,,,,53,,,,,,,,,,,,,,675.0680000754073,,response,,,,99,,,,,,,Space,keypress(Space),,,,,,,,---- -- ----- -- ------ - ------- --- ----------<br>------------- ------ ------ ---- ---- ------- ----- -- ----<br>-------- ------- -- ---------- --- - --- ----- ----- ----<br>---- --- --- ----- --- ---- ---- ------- ----- it's -------<br>--- --- -- ----- -- --- ---- -- --- ---- -- ------ ------<br>--- ----- -- ----,239071.495000273,239070.4600000754,238378.926,238391.91000023857,238395.392,239079.116,,37,it's
screen,html.Screen,1_1_0_1_38,2021-04-22T13:17:48.964Z,,,,,,,,,,,,,,,,53,,,,,,,,,,,,,,405.42899989747093,,response,,,,99,,,,,,,Space,keypress(Space),,,,,,,,---- -- ----- -- ------ - ------- --- ----------<br>------------- ------ ------ ---- ---- ------- ----- -- ----<br>-------- ------- -- ---------- --- - --- ----- ----- ----<br>---- --- --- ----- --- ---- ---- ------- ----- ---- whether<br>--- --- -- ----- -- --- ---- -- --- ---- -- ------ ------<br>--- ----- -- ----,239485.5450000614,239484.54499989748,239062.529,239071.78000034764,239079.116,239495.803,,38,whether
screen,html.Screen,1_1_0_1_39,2021-04-22T13:17:49.358Z,,,,,,,,,,,,,,,,53,,,,,,,,,,,,,,382.43699999089586,,response,,,,99,,,,,,,Space,keypress(Space),,,,,,,,---- -- ----- -- ------ - ------- --- ----------<br>------------- ------ ------ ---- ---- ------- ----- -- ----<br>-------- ------- -- ---------- --- - --- ----- ----- ----<br>---- --- --- ----- --- ---- ---- ------- ----- ---- -------<br>you --- -- ----- -- --- ---- -- --- ---- -- ------ ------<br>--- ----- -- ----,239879.2900000699,239878.2399999909,239479.26,239485.81500025466,239495.803,239896.165,,39,you
screen,html.Screen,1_1_0_1_40,2021-04-22T13:17:49.728Z,,,,,,,,,,,,,,,,53,,,,,,,,,,,,,,352.0299999928393,,response,,,,99,,,,,,,Space,keypress(Space),,,,,,,,---- -- ----- -- ------ - ------- --- ----------<br>------------- ------ ------ ---- ---- ------- ----- -- ----<br>-------- ------- -- ---------- --- - --- ----- ----- ----<br>---- --- --- ----- --- ---- ---- ------- ----- ---- -------<br>--- are -- ----- -- --- ---- -- --- ---- -- ------ ------<br>--- ----- -- ----,240249.17500000447,240248.19499999285,239879.499,239879.60499990731,239896.165,240262.986,,40,are
screen,html.Screen,1_1_0_1_41,2021-04-22T13:17:50.046Z,,,,,,,,,,,,,,,,53,,,,,,,,,,,,,,303.25400007286225,,response,,,,99,,,,,,,Space,keypress(Space),,,,,,,,---- -- ----- -- ------ - ------- --- ----------<br>------------- ------ ------ ---- ---- ------- ----- -- ----<br>-------- ------- -- ---------- --- - --- ----- ----- ----<br>---- --- --- ----- --- ---- ---- ------- ----- ---- -------<br>--- --- as ----- -- --- ---- -- --- ---- -- ------ ------<br>--- ----- -- ----,240567.36500002444,240566.24000007287,240246.156,240249.4950001128,240262.986,240579.332,,41,as
screen,html.Screen,1_1_0_1_42,2021-04-22T13:17:50.432Z,,,,,,,,,,,,,,,,53,,,,,,,,,,,,,,373.0380000718287,,response,,,,99,,,,,,,Space,keypress(Space),,,,,,,,---- -- ----- -- ------ - ------- --- ----------<br>------------- ------ ------ ---- ---- ------- ----- -- ----<br>-------- ------- -- ---------- --- - --- ----- ----- ----<br>---- --- --- ----- --- ---- ---- ------- ----- ---- -------<br>--- --- -- close -- --- ---- -- --- ---- -- ------ ------<br>--- ----- -- ----,240953.4350000322,240952.37000007182,240562.916,240567.68500013277,240579.332,240962.779,,42,close
screen,html.Screen,1_1_0_1_43,2021-04-22T13:17:50.788Z,,,,,,,,,,,,,,,,53,,,,,,,,,,,,,,345.1010002112889,,response,,,,99,,,,,,,Space,keypress(Space),,,,,,,,---- -- ----- -- ------ - ------- --- ----------<br>------------- ------ ------ ---- ---- ------- ----- -- ----<br>-------- ------- -- ---------- --- - --- ----- ----- ----<br>---- --- --- ----- --- ---- ---- ------- ----- ---- -------<br>--- --- -- ----- as --- ---- -- --- ---- -- ------ ------<br>--- ----- -- ----,241309.22000017017,241307.8800002113,240946.071,240953.75500014052,240962.779,241312.922,,43,as
screen,html.Screen,1_1_0_1_44,2021-04-22T13:17:51.241Z,,,,,,,,,,,,,,,,53,,,,,,,,,,,,,,448.41299993012217,,response,,,,99,,,,,,,Space,keypress(Space),,,,,,,,---- -- ----- -- ------ - ------- --- ----------<br>------------- ------ ------ ---- ---- ------- ----- -- ----<br>-------- ------- -- ---------- --- - --- ----- ----- ----<br>---- --- --- ----- --- ---- ---- ------- ----- ---- -------<br>--- --- -- ----- -- you ---- -- --- ---- -- ------ ------<br>--- ----- -- ----,241762.36000005156,241761.3349999301,241296.567,241309.4750000164,241312.922,241779.813,,44,you
screen,html.Screen,1_1_0_1_45,2021-04-22T13:17:51.636Z,,,,,,,,,,,,,,,,53,,,,,,,,,,,,,,376.93700008196174,,response,,,,99,,,,,,,Space,keypress(Space),,,,,,,,---- -- ----- -- ------ - ------- --- ----------<br>------------- ------ ------ ---- ---- ------- ----- -- ----<br>-------- ------- -- ---------- --- - --- ----- ----- ----<br>---- --- --- ----- --- ---- ---- ------- ----- ---- -------<br>--- --- -- ----- -- --- want -- --- ---- -- ------ ------<br>--- ----- -- ----,242157.72500028834,242156.75000008196,241763.343,241762.6600000076,241779.813,242163.093,,45,want
screen,html.Screen,1_1_0_1_46,2021-04-22T13:17:52.044Z,,,,,,,,,,,,,,,,53,,,,,,,,,,,,,,401.2969999558991,,response,,,,99,,,,,,,Space,keypress(Space),,,,,,,,---- -- ----- -- ------ - ------- --- ----------<br>------------- ------ ------ ---- ---- ------- ----- -- ----<br>-------- ------- -- ---------- --- - --- ----- ----- ----<br>---- --- --- ----- --- ---- ---- ------- ----- ---- -------<br>--- --- -- ----- -- --- ---- to --- ---- -- ------ ------<br>--- ----- -- ----,242565.450000111,242564.3899999559,242146.71,242157.9849999398,242163.093,242580.343,,46,to
screen,html.Screen,1_1_0_1_47,2021-04-22T13:17:52.428Z,,,,,,,,,,,,,,,,53,,,,,,,,,,,,,,368.3270003035432,,response,,,,99,,,,,,,Space,keypress(Space),,,,,,,,"---- -- ----- -- ------ - ------- --- ----------<br>------------- ------ ------ ---- ---- ------- ----- -- ----<br>-------- ------- -- ---------- --- - --- ----- ----- ----<br>---- --- --- ----- --- ---- ---- ------- ----- ---- -------<br>--- --- -- ----- -- --- ---- -- be, ---- -- ------ ------<br>--- ----- -- ----",242949.6349999681,242948.67000030354,242563.561,242565.73500018567,242580.343,242963.801,,47,"be,"
screen,html.Screen,1_1_0_1_48,2021-04-22T13:17:52.918Z,,,,,,,,,,,,,,,,53,,,,,,,,,,,,,,474.73400019758265,,response,,,,99,,,,,,,Space,keypress(Space),,,,,,,,---- -- ----- -- ------ - ------- --- ----------<br>------------- ------ ------ ---- ---- ------- ----- -- ----<br>-------- ------- -- ---------- --- - --- ----- ----- ----<br>---- --- --- ----- --- ---- ---- ------- ----- ---- -------<br>--- --- -- ----- -- --- ---- -- --- even -- ------ ------<br>--- ----- -- ----,243439.5900000818,243438.5350001976,242946.739,242949.97500022873,242963.801,243446.87,,48,even
screen,html.Screen,1_1_0_1_49,2021-04-22T13:17:53.333Z,,,,,,,,,,,,,,,,53,,,,,,,,,,,,,,406.0850000093924,,response,,,,99,,,,,,,Space,keypress(Space),,,,,,,,---- -- ----- -- ------ - ------- --- ----------<br>------------- ------ ------ ---- ---- ------- ----- -- ----<br>-------- ------- -- ---------- --- - --- ----- ----- ----<br>---- --- --- ----- --- ---- ---- ------- ----- ---- -------<br>--- --- -- ----- -- --- ---- -- --- ---- if ------ ------<br>--- ----- -- ----,243853.99500001222,243852.9550000094,243430.533,243439.85000019893,243446.87,243864.103,,49,if
screen,html.Screen,1_1_0_1_50,2021-04-22T13:17:53.792Z,,,,,,,,,,,,,,,,53,,,,,,,,,,,,,,448.1520002299221,,response,,,,99,,,,,,,Space,keypress(Space),,,,,,,,---- -- ----- -- ------ - ------- --- ----------<br>------------- ------ ------ ---- ---- ------- ----- -- ----<br>-------- ------- -- ---------- --- - --- ----- ----- ----<br>---- --- --- ----- --- ---- ---- ------- ----- ---- -------<br>--- --- -- ----- -- --- ---- -- --- ---- -- that's ------<br>--- ----- -- ----,244313.31499991938,244312.25500022992,243847.318,243854.28499989212,243864.103,244330.906,,50,that's
screen,html.Screen,1_1_0_1_51,2021-04-22T13:17:54.208Z,,,,,,,,,,,,,,,,53,,,,,,,,,,,,,,397.27899989808793,,response,,,,99,,,,,,,Space,keypress(Space),,,,,,,,---- -- ----- -- ------ - ------- --- ----------<br>------------- ------ ------ ---- ---- ------- ----- -- ----<br>-------- ------- -- ---------- --- - --- ----- ----- ----<br>---- --- --- ----- --- ---- ---- ------- ----- ---- -------<br>--- --- -- ----- -- --- ---- -- --- ---- -- ------ really<br>--- ----- -- ----,244729.13000034168,244728.18499989808,244314.045,244313.5750000365,244330.906,244752.266,,51,really
screen,html.Screen,1_1_0_1_52,2021-04-22T13:17:54.738Z,,,,,,,,,,,,,,,,53,,,,,,,,,,,,,,505.65400023647817,,response,,,,99,,,,,,,Space,keypress(Space),,,,,,,,---- -- ----- -- ------ - ------- --- ----------<br>------------- ------ ------ ---- ---- ------- ----- -- ----<br>-------- ------- -- ---------- --- - --- ----- ----- ----<br>---- --- --- ----- --- ---- ---- ------- ----- ---- -------<br>--- --- -- ----- -- --- ---- -- --- ---- -- ------ ------<br>not ----- -- ----,245258.86500021443,245257.92000023648,244714.163,244729.379999917,244752.266,245264.078,,52,not
screen,html.Screen,1_1_0_1_53,2021-04-22T13:17:55.207Z,,,,,,,,,,,,,,,,53,,,,,,,,,,,,,,462.8070002437744,,response,,,,99,,,,,,,Space,keypress(Space),,,,,,,,---- -- ----- -- ------ - ------- --- ----------<br>------------- ------ ------ ---- ---- ------- ----- -- ----<br>-------- ------- -- ---------- --- - --- ----- ----- ----<br>---- --- --- ----- --- ---- ---- ------- ----- ---- -------<br>--- --- -- ----- -- --- ---- -- --- ---- -- ------ ------<br>--- close -- ----,245727.99000004306,245726.88500024378,245247.718,245259.1300001368,245264.078,245730.89,,53,close
screen,html.Screen,1_1_0_1_54,2021-04-22T13:17:55.676Z,,,,,,,,,,,,,,,,53,,,,,,,,,,,,,,465.55499989225063,,response,,,,99,,,,,,,Space,keypress(Space),,,,,,,,---- -- ----- -- ------ - ------- --- ----------<br>------------- ------ ------ ---- ---- ------- ----- -- ----<br>-------- ------- -- ---------- --- - --- ----- ----- ----<br>---- --- --- ----- --- ---- ---- ------- ----- ---- -------<br>--- --- -- ----- -- --- ---- -- --- ---- -- ------ ------<br>--- ----- at ----,246197.4750002846,246196.44499989226,245714.192,245728.33999991417,245730.89,246214.641,,54,at
screen,html.Screen,1_1_0_1_55,2021-04-22T13:17:56.196Z,,,,,,,,,,,,,,,,53,,,,,,,,,,,,,,502.03900007047923,,response,,,,99,,,,,,,Space,keypress(Space),,,,,,,,---- -- ----- -- ------ - ------- --- ----------<br>------------- ------ ------ ---- ---- ------- ----- -- ----<br>-------- ------- -- ---------- --- - --- ----- ----- ----<br>---- --- --- ----- --- ---- ---- ------- ----- ---- -------<br>--- --- -- ----- -- --- ---- -- --- ---- -- ------ ------<br>--- ----- -- all.,246717.60499989614,246716.68000007048,246197.936,246197.75500008836,246214.641,246731.25,,55,all.
Item 99,flow.Loop,1_1_0_1,2021-04-22T13:17:56.197Z,,,,,,,,,,,,,,,,,,,,,,,,,,,,,,33728.96300007048,,completion,,,,,F,,,,,,,,,,,silence,,,,,246718.13500020653,246716.68000007048,212954.817,212956.4450001344,212987.717,246731.25,,,
Question 1,html.Screen,1_1_0_2,2021-04-22T13:18:02.064Z,,,,,,,,,,,,,,,,,,,,,,,,,,,true,FALSE,,5852.335000131279,,response,,,,99,F,,,,,,FALSE,click #choice-2,,,,silence,,,,,252585.54999995977,252583.58500013128,246714.748,246718.36999990046,246731.25,252599.588,,,
Question 2,html.Screen,1_1_0_3,2021-04-22T13:18:13.918Z,,,,,,,,,,,,,,,,,,,,,,,,,,,true,TRUE,,11837.857000279706,,response,,,,99,F,,,,,,TRUE,click #choice-1,,,,silence,,,,,264439.2200000584,264437.4450002797,252583.218,252585.8900002204,252599.588,264453.186,,,
Item 99,flow.Sequence,1_1_0,2021-04-22T13:18:13.919Z,,,,,,,,,,,,,,,,,,,,,,,,,,,,,,61469.41000027969,,completion,,,,,,,,,,,,,,,,,,,,,264439.69500018284,264437.4450002797,202951.43,202963.37500028312,202968.035,264453.186,,,
Holding screen,html.Screen,1_1_1_0,2021-04-22T13:18:23.920Z,,,,,,,,,,,,,,,,,,,,,,,,,,,,,,10003.293000000005,,timeout,,,,,,,,,,,,,,,,,,,,,274441.0649999045,274439.859,264436.841,264440.02499990165,264453.186,274456.479,,,
screen,html.Screen,1_1_1_1_0,2021-04-22T13:18:24.971Z,,,,,,,,,,,,,,,,54,,,,,,,,,,,,,,1034.4959999642451,,response,,,,100,,,,,,,Space,keypress(Space),,,,,,,,At --- ---- --- ------ ----- ------- ---- -- --- ------- --<br>------- ---------- ------ -- ----- -- ----- -- ---- ------<br>--- ----- --- --- ------ -------- ----- --- ------ ----- --<br>----- ----- ---------- --- --- ------ ------ ---- -- ------<br>------- --- ------ ----- --- ---- ------- -- ---- --- --<br>------- ------,275492.09500011057,275490.97499996424,274439.859,274441.39500008896,274456.479,275506.809,,0,At
screen,html.Screen,1_1_1_1_1,2021-04-22T13:18:25.413Z,,,,,,,,,,,,,,,,54,,,,,,,,,,,,,,425.9109999242937,,response,,,,100,,,,,,,Space,keypress(Space),,,,,,,,-- the ---- --- ------ ----- ------- ---- -- --- ------- --<br>------- ---------- ------ -- ----- -- ----- -- ---- ------<br>--- ----- --- --- ------ -------- ----- --- ------ ----- --<br>----- ----- ---------- --- --- ------ ------ ---- -- ------<br>------- --- ------ ----- --- ---- ------- -- ---- --- --<br>------- ------,275933.80500003695,275932.7199999243,275490.048,275492.36500030383,275506.809,275939.995,,1,the
screen,html.Screen,1_1_1_1_2,2021-04-22T13:18:25.944Z,,,,,,,,,,,,,,,,54,,,,,,,,,,,,,,524.0800000253366,,response,,,,100,,,,,,,Space,keypress(Space),,,,,,,,-- --- time --- ------ ----- ------- ---- -- --- ------- --<br>------- ---------- ------ -- ----- -- ----- -- ---- ------<br>--- ----- --- --- ------ -------- ----- --- ------ ----- --<br>----- ----- ---------- --- --- ------ ------ ---- -- ------<br>------- --- ------ ----- --- ---- ------- -- ---- --- --<br>------- ------,276465.0300000794,276464.07500002533,275923.576,275934.2050002888,275939.995,276473.458,,2,time
screen,html.Screen,1_1_1_1_3,2021-04-22T13:18:26.503Z,,,,,,,,,,,,,,,,54,,,,,,,,,,,,,,549.5970002306858,,response,,,,100,,,,,,,Space,keypress(Space),,,,,,,,-- --- ---- the ------ ----- ------- ---- -- --- ------- --<br>------- ---------- ------ -- ----- -- ----- -- ---- ------<br>--- ----- --- --- ------ -------- ----- --- ------ ----- --<br>----- ----- ---------- --- --- ------ ------ ---- -- ------<br>------- --- ------ ----- --- ---- ------- -- ---- --- --<br>------- ------,277024.07999988645,277023.05500023067,276457.035,276465.28499992564,276473.458,277040.678,,3,the
screen,html.Screen,1_1_1_1_4,2021-04-22T13:18:26.976Z,,,,,,,,,,,,,,,,54,,,,,,,,,,,,,,454.8519999564742,,response,,,,100,,,,,,,Space,keypress(Space),,,,,,,,-- --- ---- --- French ----- ------- ---- -- --- ------- --<br>------- ---------- ------ -- ----- -- ----- -- ---- ------<br>--- ----- --- --- ------ -------- ----- --- ------ ----- --<br>----- ----- ---------- --- --- ------ ------ ---- -- ------<br>------- --- ------ ----- --- ---- ------- -- ---- --- --<br>------- ------,277496.5300001204,277495.5299999565,277023.959,277024.38999991864,277040.678,277507.481,,4,French
screen,html.Screen,1_1_1_1_5,2021-04-22T13:18:27.481Z,,,,,,,,,,,,,,,,54,,,,,,,,,,,,,,493.0939999545226,,response,,,,100,,,,,,,Space,keypress(Space),,,,,,,,-- --- ---- --- ------ crown ------- ---- -- --- ------- --<br>------- ---------- ------ -- ----- -- ----- -- ---- ------<br>--- ----- --- --- ------ -------- ----- --- ------ ----- --<br>----- ----- ---------- --- --- ------ ------ ---- -- ------<br>------- --- ------ ----- --- ---- ------- -- ---- --- --<br>------- ------,278001.53500027955,278000.57499995455,277490.652,277496.7900002375,277507.481,278007.27,,5,crown
screen,html.Screen,1_1_1_1_6,2021-04-22T13:18:28.016Z,,,,,,,,,,,,,,,,54,,,,,,,,,,,,,,529.0350000741892,,response,,,,100,,,,,,,Space,keypress(Space),,,,,,,,-- --- ---- --- ------ ----- secured ---- -- --- ------- --<br>------- ---------- ------ -- ----- -- ----- -- ---- ------<br>--- ----- --- --- ------ -------- ----- --- ------ ----- --<br>----- ----- ---------- --- --- ------ ------ ---- -- ------<br>------- --- ------ ----- --- ---- ------- -- ---- --- --<br>------- ------,278537.23500017077,278536.3050000742,277990.93,278001.7800000496,278007.27,278540.841,,6,secured
screen,html.Screen,1_1_1_1_7,2021-04-22T13:18:28.695Z,,,,,,,,,,,,,,,,54,,,,,,,,,,,,,,673.6490001585335,,response,,,,100,,,,,,,Space,keypress(Space),,,,,,,,-- --- ---- --- ------ ----- ------- much -- --- ------- --<br>------- ---------- ------ -- ----- -- ----- -- ---- ------<br>--- ----- --- --- ------ -------- ----- --- ------ ----- --<br>----- ----- ---------- --- --- ------ ------ ---- -- ------<br>------- --- ------ ----- --- ---- ------- -- ---- --- --<br>------- ------,279215.43999994174,279214.49000015855,278524.325,278537.4750001356,278540.841,279224.453,,7,much
screen,html.Screen,1_1_1_1_8,2021-04-22T13:18:29.162Z,,,,,,,,,,,,,,,,54,,,,,,,,,,,,,,457.8520002567675,,response,,,,100,,,,,,,Space,keypress(Space),,,,,,,,-- --- ---- --- ------ ----- ------- ---- of --- ------- --<br>------- ---------- ------ -- ----- -- ----- -- ---- ------<br>--- ----- --- --- ------ -------- ----- --- ------ ----- --<br>----- ----- ---------- --- --- ------ ------ ---- -- ------<br>------- --- ------ ----- --- ---- ------- -- ---- --- --<br>------- ------,279683.22500027716,279682.30500025675,279207.931,279215.7450001687,279224.453,279691.097,,8,of
screen,html.Screen,1_1_1_1_9,2021-04-22T13:18:29.655Z,,,,,,,,,,,,,,,,54,,,,,,,,,,,,,,484.063000100723,,response,,,,100,,,,,,,Space,keypress(Space),,,,,,,,-- --- ---- --- ------ ----- ------- ---- -- its ------- --<br>------- ---------- ------ -- ----- -- ----- -- ---- ------<br>--- ----- --- --- ------ -------- ----- --- ------ ----- --<br>----- ----- ---------- --- --- ------ ------ ---- -- ------<br>------- --- ------ ----- --- ---- ------- -- ---- --- --<br>------- ------,280175.74999993667,280175.16000010073,279674.461,279683.465000242,279691.097,280191.266,,9,its
screen,html.Screen,1_1_1_1_10,2021-04-22T13:18:30.160Z,,,,,,,,,,,,,,,,54,,,,,,,,,,,,,,488.2840000007418,,response,,,,100,,,,,,,Space,keypress(Space),,,,,,,,-- --- ---- --- ------ ----- ------- ---- -- --- revenue --<br>------- ---------- ------ -- ----- -- ----- -- ---- ------<br>--- ----- --- --- ------ -------- ----- --- ------ ----- --<br>----- ----- ---------- --- --- ------ ------ ---- -- ------<br>------- --- ------ ----- --- ---- ------- -- ---- --- --<br>------- ------,280680.47000002116,280679.55000000075,280174.811,280175.93999998644,280191.266,280691.503,,10,revenue
screen,html.Screen,1_1_1_1_11,2021-04-22T13:18:30.650Z,,,,,,,,,,,,,,,,54,,,,,,,,,,,,,,478.3220002227463,,response,,,,100,,,,,,,Space,keypress(Space),,,,,,,,-- --- ---- --- ------ ----- ------- ---- -- --- ------- by<br>------- ---------- ------ -- ----- -- ----- -- ---- ------<br>--- ----- --- --- ------ -------- ----- --- ------ ----- --<br>----- ----- ---------- --- --- ------ ------ ---- -- ------<br>------- --- ------ ----- --- ---- ------- -- ---- --- --<br>------- ------,281170.34499999136,281169.8250002228,280674.958,280680.7150002569,280691.503,281174.9,,11,by
screen,html.Screen,1_1_1_1_12,2021-04-22T13:18:31.212Z,,,,,,,,,,,,,,,,54,,,,,,,,,,,,,,557.4750001378125,,response,,,,100,,,,,,,Space,keypress(Space),,,,,,,,-- --- ---- --- ------ ----- ------- ---- -- --- ------- --<br>issuing ---------- ------ -- ----- -- ----- -- ---- ------<br>--- ----- --- --- ------ -------- ----- --- ------ ----- --<br>----- ----- ---------- --- --- ------ ------ ---- -- ------<br>------- --- ------ ----- --- ---- ------- -- ---- --- --<br>------- ------,281733.28999988735,281732.37500013784,281158.547,281170.4649999738,281174.9,281741.784,,12,issuing
screen,html.Screen,1_1_1_1_13,2021-04-22T13:18:31.961Z,,,,,,,,,,,,,,,,54,,,,,,,,,,,,,,739.3560002800077,,response,,,,100,,,,,,,Space,keypress(Space),,,,,,,,-- --- ---- --- ------ ----- ------- ---- -- --- ------- --<br>------- government ------ -- ----- -- ----- -- ---- ------<br>--- ----- --- --- ------ -------- ----- --- ------ ----- --<br>----- ----- ---------- --- --- ------ ------ ---- -- ------<br>------- --- ------ ----- --- ---- ------- -- ---- --- --<br>------- ------,282482.08500025794,282481.14000028,281725.042,281733.5450001992,281741.784,282492.228,,13,government
screen,html.Screen,1_1_1_1_14,2021-04-22T13:18:33.266Z,,,,,,,,,,,,,,,,54,,,,,,,,,,,,,,1293.097000062582,,response,,,,100,,,,,,,Space,keypress(Space),,,,,,,,-- --- ---- --- ------ ----- ------- ---- -- --- ------- --<br>------- ---------- bonds. -- ----- -- ----- -- ---- ------<br>--- ----- --- --- ------ -------- ----- --- ------ ----- --<br>----- ----- ---------- --- --- ------ ------ ---- -- ------<br>------- --- ------ ----- --- ---- ------- -- ---- --- --<br>------- ------,283786.3700003363,283785.3250000626,282475.486,282482.3449999094,282492.228,283792.338,,14,bonds.
screen,html.Screen,1_1_1_1_15,2021-04-22T13:18:33.932Z,,,,,,,,,,,,,,,,54,,,,,,,,,,,,,,659.3669998976402,,response,,,,100,,,,,,,Space,keypress(Space),,,,,,,,-- --- ---- --- ------ ----- ------- ---- -- --- ------- --<br>------- ---------- ------ In ----- -- ----- -- ---- ------<br>--- ----- --- --- ------ -------- ----- --- ------ ----- --<br>----- ----- ---------- --- --- ------ ------ ---- -- ------<br>------- --- ------ ----- --- ---- ------- -- ---- --- --<br>------- ------,284452.98500033095,284451.7049998976,283775.97,283786.70500032604,283792.338,284459.151,,15,In
screen,html.Screen,1_1_1_1_16,2021-04-22T13:18:36.086Z,,,,,,,,,,,,,,,,54,,,,,,,,,,,,,,2146.559000265377,,response,,,,100,,,,,,,Space,keypress(Space),,,,,,,,"-- --- ---- --- ------ ----- ------- ---- -- --- ------- --<br>------- ---------- ------ -- 1727, -- ----- -- ---- ------<br>--- ----- --- --- ------ -------- ----- --- ------ ----- --<br>----- ----- ---------- --- --- ------ ------ ---- -- ------<br>------- --- ------ ----- --- ---- ------- -- ---- --- --<br>------- ------",286607.0000003092,286605.7100002654,284442.838,284453.2500002533,284459.151,286609.746,,16,"1727,"
screen,html.Screen,1_1_1_1_17,2021-04-22T13:18:37.382Z,,,,,,,,,,,,,,,,54,,,,,,,,,,,,,,1292.2690001160954,,response,,,,100,,,,,,,Space,keypress(Space),,,,,,,,-- --- ---- --- ------ ----- ------- ---- -- --- ------- --<br>------- ---------- ------ -- ----- in ----- -- ---- ------<br>--- ----- --- --- ------ -------- ----- --- ------ ----- --<br>----- ----- ---------- --- --- ------ ------ ---- -- ------<br>------- --- ------ ----- --- ---- ------- -- ---- --- --<br>------- ------,287903.0249998905,287902.0150001161,286593.392,286607.1299999021,286609.746,287910.269,,17,in
screen,html.Screen,1_1_1_1_18,2021-04-22T13:18:37.914Z,,,,,,,,,,,,,,,,54,,,,,,,,,,,,,,523.9660000515869,,response,,,,100,,,,,,,Space,keypress(Space),,,,,,,,-- --- ---- --- ------ ----- ------- ---- -- --- ------- --<br>------- ---------- ------ -- ----- -- order -- ---- ------<br>--- ----- --- --- ------ -------- ----- --- ------ ----- --<br>----- ----- ---------- --- --- ------ ------ ---- -- ------<br>------- --- ------ ----- --- ---- ------- -- ---- --- --<br>------- ------,288435.22999994457,288434.23500005156,287893.56,287903.28000020236,287910.269,288443.766,,18,order
screen,html.Screen,1_1_1_1_19,2021-04-22T13:18:38.366Z,,,,,,,,,,,,,,,,54,,,,,,,,,,,,,,442.39400022738846,,response,,,,100,,,,,,,Space,keypress(Space),,,,,,,,-- --- ---- --- ------ ----- ------- ---- -- --- ------- --<br>------- ---------- ------ -- ----- -- ----- to ---- ------<br>--- ----- --- --- ------ -------- ----- --- ------ ----- --<br>----- ----- ---------- --- --- ------ ------ ---- -- ------<br>------- --- ------ ----- --- ---- ------- -- ---- --- --<br>------- ------,288887.10500020534,288886.1600002274,288427.271,288435.5150000192,288443.766,288893.837,,19,to
screen,html.Screen,1_1_1_1_20,2021-04-22T13:18:38.859Z,,,,,,,,,,,,,,,,54,,,,,,,,,,,,,,485.4530000698869,,response,,,,100,,,,,,,Space,keypress(Space),,,,,,,,-- --- ---- --- ------ ----- ------- ---- -- --- ------- --<br>------- ---------- ------ -- ----- -- ----- -- save ------<br>--- ----- --- --- ------ -------- ----- --- ------ ----- --<br>----- ----- ---------- --- --- ------ ------ ---- -- ------<br>------- --- ------ ----- --- ---- ------- -- ---- --- --<br>------- ------,289380.1350002177,289379.2900000699,288877.505,288887.3499999754,288893.837,289394.172,,20,save
screen,html.Screen,1_1_1_1_21,2021-04-22T13:18:39.295Z,,,,,,,,,,,,,,,,54,,,,,,,,,,,,,,421.16299993381836,,response,,,,100,,,,,,,Space,keypress(Space),,,,,,,,"-- --- ---- --- ------ ----- ------- ---- -- --- ------- --<br>------- ---------- ------ -- ----- -- ----- -- ---- money,<br>--- ----- --- --- ------ -------- ----- --- ------ ----- --<br>----- ----- ---------- --- --- ------ ------ ---- -- ------<br>------- --- ------ ----- --- ---- ------- -- ---- --- --<br>------- ------",289816.20000023395,289815.33499993384,289377.598,289380.3650001064,289394.172,289827.817,,21,"money,"
screen,html.Screen,1_1_1_1_22,2021-04-22T13:18:39.806Z,,,,,,,,,,,,,,,,54,,,,,,,,,,,,,,497.7330001833034,,response,,,,100,,,,,,,Space,keypress(Space),,,,,,,,-- --- ---- --- ------ ----- ------- ---- -- --- ------- --<br>------- ---------- ------ -- ----- -- ----- -- ---- ------<br>the ----- --- --- ------ -------- ----- --- ------ ----- --<br>----- ----- ---------- --- --- ------ ------ ---- -- ------<br>------- --- ------ ----- --- ---- ------- -- ---- --- --<br>------- ------,290326.5650002286,290325.5500001833,289810.908,289816.4250003174,289827.817,290344.61,,22,the
screen,html.Screen,1_1_1_1_23,2021-04-22T13:18:40.267Z,,,,,,,,,,,,,,,,54,,,,,,,,,,,,,,441.9000000053784,,response,,,,100,,,,,,,Space,keypress(Space),,,,,,,,-- --- ---- --- ------ ----- ------- ---- -- --- ------- --<br>------- ---------- ------ -- ----- -- ----- -- ---- ------<br>--- state --- --- ------ -------- ----- --- ------ ----- --<br>----- ----- ---------- --- --- ------ ------ ---- -- ------<br>------- --- ------ ----- --- ---- ------- -- ---- --- --<br>------- ------,290787.8849999979,290786.51000000536,290311.309,290326.8599999137,290344.61,290794.42,,23,state
screen,html.Screen,1_1_1_1_24,2021-04-22T13:18:40.699Z,,,,,,,,,,,,,,,,54,,,,,,,,,,,,,,424.7149999047979,,response,,,,100,,,,,,,Space,keypress(Space),,,,,,,,-- --- ---- --- ------ ----- ------- ---- -- --- ------- --<br>------- ---------- ------ -- ----- -- ----- -- ---- ------<br>--- ----- cut --- ------ -------- ----- --- ------ ----- --<br>----- ----- ---------- --- --- ------ ------ ---- -- ------<br>------- --- ------ ----- --- ---- ------- -- ---- --- --<br>------- ------,291220.100000035,291219.1349999048,290777.763,290788.1650002673,290794.42,291227.968,,24,cut
screen,html.Screen,1_1_1_1_25,2021-04-22T13:18:41.266Z,,,,,,,,,,,,,,,,54,,,,,,,,,,,,,,557.4520000874763,,response,,,,100,,,,,,,Space,keypress(Space),,,,,,,,-- --- ---- --- ------ ----- ------- ---- -- --- ------- --<br>------- ---------- ------ -- ----- -- ----- -- ---- ------<br>--- ----- --- the ------ -------- ----- --- ------ ----- --<br>----- ----- ---------- --- --- ------ ------ ---- -- ------<br>------- --- ------ ----- --- ---- ------- -- ---- --- --<br>------- ------,291786.3850002177,291785.42000008747,291211.456,291220.3550003469,291227.968,291794.904,,25,the
screen,html.Screen,1_1_1_1_26,2021-04-22T13:18:41.710Z,,,,,,,,,,,,,,,,54,,,,,,,,,,,,,,434.60599997558165,,response,,,,100,,,,,,,Space,keypress(Space),,,,,,,,-- --- ---- --- ------ ----- ------- ---- -- --- ------- --<br>------- ---------- ------ -- ----- -- ----- -- ---- ------<br>--- ----- --- --- bonds' -------- ----- --- ------ ----- --<br>----- ----- ---------- --- --- ------ ------ ---- -- ------<br>------- --- ------ ----- --- ---- ------- -- ---- --- --<br>------- ------,292230.47000030056,292229.50999997556,291778.354,291786.6350002587,291794.904,292245.295,,26,bonds'
screen,html.Screen,1_1_1_1_27,2021-04-22T13:18:42.169Z,,,,,,,,,,,,,,,,54,,,,,,,,,,,,,,443.8300000335439,,response,,,,100,,,,,,,Space,keypress(Space),,,,,,,,-- --- ---- --- ------ ----- ------- ---- -- --- ------- --<br>------- ---------- ------ -- ----- -- ----- -- ---- ------<br>--- ----- --- --- ------ interest ----- --- ------ ----- --<br>----- ----- ---------- --- --- ------ ------ ---- -- ------<br>------- --- ------ ----- --- ---- ------- -- ---- --- --<br>------- ------,292690.0550001301,292689.1250000335,292228.229,292230.7250001468,292245.295,292695.003,,27,interest
screen,html.Screen,1_1_1_1_28,2021-04-22T13:18:42.683Z,,,,,,,,,,,,,,,,54,,,,,,,,,,,,,,507.8920001112856,,response,,,,100,,,,,,,Space,keypress(Space),,,,,,,,-- --- ---- --- ------ ----- ------- ---- -- --- ------- --<br>------- ---------- ------ -- ----- -- ----- -- ---- ------<br>--- ----- --- --- ------ -------- rate. --- ------ ----- --<br>----- ----- ---------- --- --- ------ ------ ---- -- ------<br>------- --- ------ ----- --- ---- ------- -- ---- --- --<br>------- ------,293203.925000038,293202.8950001113,292678.693,292690.30500017107,292695.003,293211.95,,28,rate.
screen,html.Screen,1_1_1_1_29,2021-04-22T13:18:43.699Z,,,,,,,,,,,,,,,,54,,,,,,,,,,,,,,1007.0500000409666,,response,,,,100,,,,,,,Space,keypress(Space),,,,,,,,-- --- ---- --- ------ ----- ------- ---- -- --- ------- --<br>------- ---------- ------ -- ----- -- ----- -- ---- ------<br>--- ----- --- --- ------ -------- ----- The ------ ----- --<br>----- ----- ---------- --- --- ------ ------ ---- -- ------<br>------- --- ------ ----- --- ---- ------- -- ---- --- --<br>------- ------,294219.9500002898,294219.000000041,293195.132,293204.19500023127,293211.95,294228.829,,29,The
screen,html.Screen,1_1_1_1_30,2021-04-22T13:18:44.536Z,,,,,,,,,,,,,,,,54,,,,,,,,,,,,,,827.2460002041189,,response,,,,100,,,,,,,Space,keypress(Space),,,,,,,,-- --- ---- --- ------ ----- ------- ---- -- --- ------- --<br>------- ---------- ------ -- ----- -- ----- -- ---- ------<br>--- ----- --- --- ------ -------- ----- --- market ----- --<br>----- ----- ---------- --- --- ------ ------ ---- -- ------<br>------- --- ------ ----- --- ---- ------- -- ---- --- --<br>------- ------,295057.1750001982,295056.07500020415,294212.385,294220.22000001743,294228.829,295062.373,,30,market
screen,html.Screen,1_1_1_1_31,2021-04-22T13:18:45.427Z,,,,,,,,,,,,,,,,54,,,,,,,,,,,,,,885.0019999888027,,response,,,,100,,,,,,,Space,keypress(Space),,,,,,,,-- --- ---- --- ------ ----- ------- ---- -- --- ------- --<br>------- ---------- ------ -- ----- -- ----- -- ---- ------<br>--- ----- --- --- ------ -------- ----- --- ------ value --<br>----- ----- ---------- --- --- ------ ------ ---- -- ------<br>------- --- ------ ----- --- ---- ------- -- ---- --- --<br>------- ------,295947.87000026554,295947.3749999888,295046.032,295057.470000349,295062.373,295962.911,,31,value
screen,html.Screen,1_1_1_1_32,2021-04-22T13:18:46.297Z,,,,,,,,,,,,,,,,54,,,,,,,,,,,,,,853.5489998853882,,response,,,,100,,,,,,,Space,keypress(Space),,,,,,,,-- --- ---- --- ------ ----- ------- ---- -- --- ------- --<br>------- ---------- ------ -- ----- -- ----- -- ---- ------<br>--- ----- --- --- ------ -------- ----- --- ------ ----- of<br>----- ----- ---------- --- --- ------ ------ ---- -- ------<br>------- --- ------ ----- --- ---- ------- -- ---- --- --<br>------- ------,296817.42500001565,296816.4599998854,295946.283,295947.9550002143,295962.911,296829.986,,32,of
screen,html.Screen,1_1_1_1_33,2021-04-22T13:18:47.606Z,,,,,,,,,,,,,,,,54,,,,,,,,,,,,,,1296.0340003162273,,response,,,,100,,,,,,,Space,keypress(Space),,,,,,,,-- --- ---- --- ------ ----- ------- ---- -- --- ------- --<br>------- ---------- ------ -- ----- -- ----- -- ---- ------<br>--- ----- --- --- ------ -------- ----- --- ------ ----- --<br>these ----- ---------- --- --- ------ ------ ---- -- ------<br>------- --- ------ ----- --- ---- ------- -- ---- --- --<br>------- ------,298127.00500013307,298126.0200003162,296813.132,296817.72000016645,296829.986,298130.028,,33,these
screen,html.Screen,1_1_1_1_34,2021-04-22T13:18:48.305Z,,,,,,,,,,,,,,,,54,,,,,,,,,,,,,,694.7470001028269,,response,,,,100,,,,,,,Space,keypress(Space),,,,,,,,-- --- ---- --- ------ ----- ------- ---- -- --- ------- --<br>------- ---------- ------ -- ----- -- ----- -- ---- ------<br>--- ----- --- --- ------ -------- ----- --- ------ ----- --<br>----- bonds ---------- --- --- ------ ------ ---- -- ------<br>------- --- ------ ----- --- ---- ------- -- ---- --- --<br>------- ------,298825.72000008076,298824.7750001028,298113.63,298127.27500032634,298130.028,298830.147,,34,bonds
screen,html.Screen,1_1_1_1_35,2021-04-22T13:18:49.235Z,,,,,,,,,,,,,,,,54,,,,,,,,,,,,,,925.1580001151888,,response,,,,100,,,,,,,Space,keypress(Space),,,,,,,,"-- --- ---- --- ------ ----- ------- ---- -- --- ------- --<br>------- ---------- ------ -- ----- -- ----- -- ---- ------<br>--- ----- --- --- ------ -------- ----- --- ------ ----- --<br>----- ----- plummeted, --- --- ------ ------ ---- -- ------<br>------- --- ------ ----- --- ---- ------- -- ---- --- --<br>------- ------",299756.240000017,299755.3050001152,298813.773,298825.9800001979,298830.147,299763.86,,35,"plummeted,"
screen,html.Screen,1_1_1_1_36,2021-04-22T13:18:49.705Z,,,,,,,,,,,,,,,,54,,,,,,,,,,,,,,461.0750002966961,,response,,,,100,,,,,,,Space,keypress(Space),,,,,,,,-- --- ---- --- ------ ----- ------- ---- -- --- ------- --<br>------- ---------- ------ -- ----- -- ----- -- ---- ------<br>--- ----- --- --- ------ -------- ----- --- ------ ----- --<br>----- ----- ---------- and --- ------ ------ ---- -- ------<br>------- --- ------ ----- --- ---- ------- -- ---- --- --<br>------- ------,300225.9750002995,300224.9350002967,299747.339,299756.49500032887,299763.86,300230.572,,36,and
screen,html.Screen,1_1_1_1_37,2021-04-22T13:18:50.145Z,,,,,,,,,,,,,,,,54,,,,,,,,,,,,,,434.2279999113525,,response,,,,100,,,,,,,Space,keypress(Space),,,,,,,,-- --- ---- --- ------ ----- ------- ---- -- --- ------- --<br>------- ---------- ------ -- ----- -- ----- -- ---- ------<br>--- ----- --- --- ------ -------- ----- --- ------ ----- --<br>----- ----- ---------- --- the ------ ------ ---- -- ------<br>------- --- ------ ----- --- ---- ------- -- ---- --- --<br>------- ------,300665.82000022754,300664.79999991134,300214.16,300226.250000298,300230.572,300681.167,,37,the
screen,html.Screen,1_1_1_1_38,2021-04-22T13:18:50.541Z,,,,,,,,,,,,,,,,54,,,,,,,,,,,,,,379.43299996794667,,response,,,,100,,,,,,,Space,keypress(Space),,,,,,,,-- --- ---- --- ------ ----- ------- ---- -- --- ------- --<br>------- ---------- ------ -- ----- -- ----- -- ---- ------<br>--- ----- --- --- ------ -------- ----- --- ------ ----- --<br>----- ----- ---------- --- --- market ------ ---- -- ------<br>------- --- ------ ----- --- ---- ------- -- ---- --- --<br>------- ------,301061.61500001326,301060.59999996796,300664.372,300666.08000034466,300681.167,301064.157,,38,market
screen,html.Screen,1_1_1_1_39,2021-04-22T13:18:50.920Z,,,,,,,,,,,,,,,,54,,,,,,,,,,,,,,376.0579999514157,,response,,,,100,,,,,,,Space,keypress(Space),,,,,,,,-- --- ---- --- ------ ----- ------- ---- -- --- ------- --<br>------- ---------- ------ -- ----- -- ----- -- ---- ------<br>--- ----- --- --- ------ -------- ----- --- ------ ----- --<br>----- ----- ---------- --- --- ------ became ---- -- ------<br>------- --- ------ ----- --- ---- ------- -- ---- --- --<br>------- ------,301441.20000023395,301440.2149999514,301047.758,301061.8750001304,301064.157,301447.693,,39,became
screen,html.Screen,1_1_1_1_40,2021-04-22T13:18:51.344Z,,,,,,,,,,,,,,,,54,,,,,,,,,,,,,,415.8420000112965,,response,,,,100,,,,,,,Space,keypress(Space),,,,,,,,-- --- ---- --- ------ ----- ------- ---- -- --- ------- --<br>------- ---------- ------ -- ----- -- ----- -- ---- ------<br>--- ----- --- --- ------ -------- ----- --- ------ ----- --<br>----- ----- ---------- --- --- ------ ------ wary -- ------<br>------- --- ------ ----- --- ---- ------- -- ---- --- --<br>------- ------,301864.53500017524,301863.5350000113,301431.277,301441.4599998854,301447.693,301881.553,,40,wary
screen,html.Screen,1_1_1_1_41,2021-04-22T13:18:51.737Z,,,,,,,,,,,,,,,,54,,,,,,,,,,,,,,375.2770003185724,,response,,,,100,,,,,,,Space,keypress(Space),,,,,,,,-- --- ---- --- ------ ----- ------- ---- -- --- ------- --<br>------- ---------- ------ -- ----- -- ----- -- ---- ------<br>--- ----- --- --- ------ -------- ----- --- ------ ----- --<br>----- ----- ---------- --- --- ------ ------ ---- of ------<br>------- --- ------ ----- --- ---- ------- -- ---- --- --<br>------- ------,302257.81500013545,302256.8300003186,301864.717,301864.814999979,301881.553,302264.55,,41,of
screen,html.Screen,1_1_1_1_42,2021-04-22T13:18:52.211Z,,,,,,,,,,,,,,,,54,,,,,,,,,,,,,,466.7950002111611,,response,,,,100,,,,,,,Space,keypress(Space),,,,,,,,-- --- ---- --- ------ ----- ------- ---- -- --- ------- --<br>------- ---------- ------ -- ----- -- ----- -- ---- ------<br>--- ----- --- --- ------ -------- ----- --- ------ ----- --<br>----- ----- ---------- --- --- ------ ------ ---- -- French<br>------- --- ------ ----- --- ---- ------- -- ---- --- --<br>------- ------,302732.3100003414,302731.34500021115,302248.112,302258.0699999817,302264.55,302748.47,,42,French
screen,html.Screen,1_1_1_1_43,2021-04-22T13:18:53.281Z,,,,,,,,,,,,,,,,54,,,,,,,,,,,,,,1052.2199999454897,,response,,,,100,,,,,,,Space,keypress(Space),,,,,,,,-- --- ---- --- ------ ----- ------- ---- -- --- ------- --<br>------- ---------- ------ -- ----- -- ----- -- ---- ------<br>--- ----- --- --- ------ -------- ----- --- ------ ----- --<br>----- ----- ---------- --- --- ------ ------ ---- -- ------<br>credit. --- ------ ----- --- ---- ------- -- ---- --- --<br>------- ------,303801.6400001943,303800.68999994546,302731.607,302732.5599999167,302748.47,303815.445,,43,credit.
screen,html.Screen,1_1_1_1_44,2021-04-22T13:18:53.764Z,,,,,,,,,,,,,,,,54,,,,,,,,,,,,,,468.78000006853836,,response,,,,100,,,,,,,Space,keypress(Space),,,,,,,,-- --- ---- --- ------ ----- ------- ---- -- --- ------- --<br>------- ---------- ------ -- ----- -- ----- -- ---- ------<br>--- ----- --- --- ------ -------- ----- --- ------ ----- --<br>----- ----- ---------- --- --- ------ ------ ---- -- ------<br>------- The ------ ----- --- ---- ------- -- ---- --- --<br>------- ------,304285.2150001563,304284.22500006855,303798.538,303801.9050001167,303815.445,304298.904,,44,The
screen,html.Screen,1_1_1_1_45,2021-04-22T13:18:54.334Z,,,,,,,,,,,,,,,,54,,,,,,,,,,,,,,555.3209999009268,,response,,,,100,,,,,,,Space,keypress(Space),,,,,,,,-- --- ---- --- ------ ----- ------- ---- -- --- ------- --<br>------- ---------- ------ -- ----- -- ----- -- ---- ------<br>--- ----- --- --- ------ -------- ----- --- ------ ----- --<br>----- ----- ---------- --- --- ------ ------ ---- -- ------<br>------- --- French ----- --- ---- ------- -- ---- --- --<br>------- ------,304855.20499991253,304854.2249999009,304282.053,304285.4800000787,304298.904,304865.643,,45,French
screen,html.Screen,1_1_1_1_46,2021-04-22T13:18:54.862Z,,,,,,,,,,,,,,,,54,,,,,,,,,,,,,,516.1270003273967,,response,,,,100,,,,,,,Space,keypress(Space),,,,,,,,-- --- ---- --- ------ ----- ------- ---- -- --- ------- --<br>------- ---------- ------ -- ----- -- ----- -- ---- ------<br>--- ----- --- --- ------ -------- ----- --- ------ ----- --<br>----- ----- ---------- --- --- ------ ------ ---- -- ------<br>------- --- ------ state --- ---- ------- -- ---- --- --<br>------- ------,305382.4950000271,305381.7700003274,304848.99,304855.47999991104,304865.643,305399.142,,46,state
screen,html.Screen,1_1_1_1_47,2021-04-22T13:18:55.279Z,,,,,,,,,,,,,,,,54,,,,,,,,,,,,,,400.3480001213029,,response,,,,100,,,,,,,Space,keypress(Space),,,,,,,,-- --- ---- --- ------ ----- ------- ---- -- --- ------- --<br>------- ---------- ------ -- ----- -- ----- -- ---- ------<br>--- ----- --- --- ------ -------- ----- --- ------ ----- --<br>----- ----- ---------- --- --- ------ ------ ---- -- ------<br>------- --- ------ ----- was ---- ------- -- ---- --- --<br>------- ------,305800.32500019297,305799.4900001213,305382.52,305382.63999996707,305399.142,305815.996,,47,was
screen,html.Screen,1_1_1_1_48,2021-04-22T13:18:55.686Z,,,,,,,,,,,,,,,,54,,,,,,,,,,,,,,389.909000213549,,response,,,,100,,,,,,,Space,keypress(Space),,,,,,,,-- --- ---- --- ------ ----- ------- ---- -- --- ------- --<br>------- ---------- ------ -- ----- -- ----- -- ---- ------<br>--- ----- --- --- ------ -------- ----- --- ------ ----- --<br>----- ----- ---------- --- --- ------ ------ ---- -- ------<br>------- --- ------ ----- --- left ------- -- ---- --- --<br>------- ------,306206.7550001666,306205.90500021353,305799.189,305800.5500002764,305815.996,306216.079,,48,left
screen,html.Screen,1_1_1_1_49,2021-04-22T13:18:56.098Z,,,,,,,,,,,,,,,,54,,,,,,,,,,,,,,402.0210000796942,,response,,,,100,,,,,,,Space,keypress(Space),,,,,,,,-- --- ---- --- ------ ----- ------- ---- -- --- ------- --<br>------- ---------- ------ -- ----- -- ----- -- ---- ------<br>--- ----- --- --- ------ -------- ----- --- ------ ----- --<br>----- ----- ---------- --- --- ------ ------ ---- -- ------<br>------- --- ------ ----- --- ---- without -- ---- --- --<br>------- ------,306619.06500020996,306618.1000000797,306199.258,306206.964999903,306216.079,306632.95,,49,without
screen,html.Screen,1_1_1_1_50,2021-04-22T13:18:56.594Z,,,,,,,,,,,,,,,,54,,,,,,,,,,,,,,480.92000000103144,,response,,,,100,,,,,,,Space,keypress(Space),,,,,,,,-- --- ---- --- ------ ----- ------- ---- -- --- ------- --<br>------- ---------- ------ -- ----- -- ----- -- ---- ------<br>--- ----- --- --- ------ -------- ----- --- ------ ----- --<br>----- ----- ---------- --- --- ------ ------ ---- -- ------<br>------- --- ------ ----- --- ---- ------- an ---- --- --<br>------- ------,307114.83000032604,307113.87000000104,306616.249,306619.34000020847,306632.95,307138.893,,50,an
screen,html.Screen,1_1_1_1_51,2021-04-22T13:18:57.070Z,,,,,,,,,,,,,,,,54,,,,,,,,,,,,,,451.1220001980546,,response,,,,100,,,,,,,Space,keypress(Space),,,,,,,,-- --- ---- --- ------ ----- ------- ---- -- --- ------- --<br>------- ---------- ------ -- ----- -- ----- -- ---- ------<br>--- ----- --- --- ------ -------- ----- --- ------ ----- --<br>----- ----- ---------- --- --- ------ ------ ---- -- ------<br>------- --- ------ ----- --- ---- ------- -- easy --- --<br>------- ------,307591.10500011593,307590.01500019804,307099.557,307115.1100001298,307138.893,307599.626,,51,easy
screen,html.Screen,1_1_1_1_52,2021-04-22T13:18:57.521Z,,,,,,,,,,,,,,,,54,,,,,,,,,,,,,,441.33900016749976,,response,,,,100,,,,,,,Space,keypress(Space),,,,,,,,-- --- ---- --- ------ ----- ------- ---- -- --- ------- --<br>------- ---------- ------ -- ----- -- ----- -- ---- ------<br>--- ----- --- --- ------ -------- ----- --- ------ ----- --<br>----- ----- ---------- --- --- ------ ------ ---- -- ------<br>------- --- ------ ----- --- ---- ------- -- ---- way --<br>------- ------,308041.9050003402,308040.9650001675,307583.038,307591.4100003429,307599.626,308049.696,,52,way
screen,html.Screen,1_1_1_1_53,2021-04-22T13:19:00.541Z,,,,,,,,,,,,,,,,54,,,,,,,,,,,,,,3011.118999975268,,response,,,,100,,,,,,,Space,keypress(Space),,,,,,,,-- --- ---- --- ------ ----- ------- ---- -- --- ------- --<br>------- ---------- ------ -- ----- -- ----- -- ---- ------<br>--- ----- --- --- ------ -------- ----- --- ------ ----- --<br>----- ----- ---------- --- --- ------ ------ ---- -- ------<br>------- --- ------ ----- --- ---- ------- -- ---- --- of<br>------- ------,311061.8900000118,311060.81499997526,308033.191,308042.16499999166,308049.696,311067.211,,53,of
screen,html.Screen,1_1_1_1_54,2021-04-22T13:19:01.034Z,,,,,,,,,,,,,,,,54,,,,,,,,,,,,,,486.59400014870334,,response,,,,100,,,,,,,Space,keypress(Space),,,,,,,,-- --- ---- --- ------ ----- ------- ---- -- --- ------- --<br>------- ---------- ------ -- ----- -- ----- -- ---- ------<br>--- ----- --- --- ------ -------- ----- --- ------ ----- --<br>----- ----- ---------- --- --- ------ ------ ---- -- ------<br>------- --- ------ ----- --- ---- ------- -- ---- --- --<br>raising ------,311554.7450003214,311553.8050001487,311050.648,311062.1500001289,311067.211,311567.764,,54,raising
screen,html.Screen,1_1_1_1_55,2021-04-22T13:19:01.899Z,,,,,,,,,,,,,,,,54,,,,,,,,,,,,,,850.7759999841801,,response,,,,100,,,,,,,Space,keypress(Space),,,,,,,,-- --- ---- --- ------ ----- ------- ---- -- --- ------- --<br>------- ---------- ------ -- ----- -- ----- -- ---- ------<br>--- ----- --- --- ------ -------- ----- --- ------ ----- --<br>----- ----- ---------- --- --- ------ ------ ---- -- ------<br>------- --- ------ ----- --- ---- ------- -- ---- --- --<br>------- money.,312419.43000024185,312418.5399999842,311550.915,311555.04500027746,311567.764,312434.291,,55,money.
Item 100,flow.Loop,1_1_1_1,2021-04-22T13:19:01.899Z,,,,,,,,,,,,,,,,,,,,,,,,,,,,,,37962.06099998421,,completion,,,,,F,,,,,,,,,,,silence,,,,,312419.90000009537,312418.5399999842,274439.859,274441.305000335,274456.479,312434.291,,,
Question 1,html.Screen,1_1_1_2,2021-04-22T13:19:06.516Z,,,,,,,,,,,,,,,,,,,,,,,,,,,true,TRUE,,4600.914000080142,,response,,,,100,F,,,,,,TRUE,click #choice-1,,,,silence,,,,,317036.88000002876,317035.20500008017,312417.955,312420.1050000265,312434.291,317052.345,,,
Question 2,html.Screen,1_1_1_3,2021-04-22T13:19:11.721Z,,,,,,,,,,,,,,,,,,,,,,,,,,,true,FALSE,,5187.610000113724,,response,,,,100,F,,,,,,FALSE,click #choice-2,,,,silence,,,,,322241.3600003347,322239.9550001137,317036.025,317037.1850002557,317052.345,322253.879,,,
Item 100,flow.Sequence,1_1_1,2021-04-22T13:19:11.721Z,,,,,,,,,,,,,,,,,,,,,,,,,,,,,,57786.76900011371,,completion,,,,,,,,,,,,,,,,,,,,,322241.78000027314,322239.9550001137,264436.841,264439.91000019014,264453.186,322253.879,,,
End of Practice,html.Page,1_1_2,2021-04-22T13:19:17.107Z,,,,,,,,,,,,,,,,,,,,,,,,,,,,,,5372.886000168219,,form submission,,,,,,,,,,,,,,,,,,,,,327627.5800000876,327626.76500016823,322237.492,322241.97500012815,322253.879,327638.841,,,
Practice,flow.Sequence,1_1,2021-04-22T13:19:17.107Z,,,,,,,,,,,,,,,,,,,,,,,,,,,,,,124658.73000016823,,completion,,,,,,,,,,,,,,,,,,,,,327628.0450001359,327626.76500016823,202951.43,202963.28500006348,202968.035,327638.841,,,
Trap_instruction,html.Page,1_2_0,2021-04-22T13:19:23.894Z,,,,,,,,,,,,,,,,,,,,,,,,,,,,,,6775.164000144228,,form submission,,,,,,,,,,,,,,,,,,,,,334414.73000030965,334414.00500014424,327622.438,327628.3550001681,327638.841,334440.961,,,
trap_trial,html.Screen,1_2_1,2021-04-22T13:19:29.300Z,,,,,,,,,,,,,,,,,,,,,,,,,,,true,1,,5378.649000122328,,response,,,,,,,,,,,1,click #choice-1,,,,,,,,,339821.25500030816,339819.61000012234,334407.808,334414.9750000797,334440.961,339825.923,,,
end of trap trial,html.Page,1_2_2,2021-04-22T13:19:32.258Z,,,,,,,,,,,,,,,,,,,,,,,,,,,,,,2935.9070002068183,,form submission,,,,,,,,,,,,,,,,,,,,,342778.40499999,342761.8300002068,339809.263,339821.6450000182,339825.923,342776.735,,,
Trap 1,flow.Sequence,1_2,2021-04-22T13:19:32.258Z,,,,,,,,,,,,,,,,,,,,,,,,,,,,,,15122.989000206813,,completion,,,,,,,,,,,,,,,,,,,,,342779.0250000544,342761.8300002068,327622.438,327628.2600001432,327638.841,342776.735,,,
Standby,html.Page,1_3_0,2021-04-22T13:19:40.243Z,,,,,,,,,,,,,,,,,,,,,,,,,,,,,,8002.41399999999,,timeout,,,,,,,,,,,,,,,,,,,,,350764.0750003047,350762.832,342760.094,342779.33000028133,342776.735,350779.149,,,
Holding screen,html.Screen,1_3_1_0_0,2021-04-22T13:19:47.245Z,,,,,,,,,,,,,,,,,,,,,,,,,,,,,,7002.357000000018,,timeout,,,,,,,,,,,,,,,,,,,,,357766.0400001332,357764.856,350762.832,350764.4750000909,350779.149,357781.506,,,
screen,html.Screen,1_3_1_0_1_0,2021-04-22T13:19:49.534Z,,,,,,,,,,,,,,,,48,,,,,,,,,,,,,,2272.063999989128,,response,,,,10,F,,,,,,Space,keypress(Space),,,,instrumental,,,,As -- --- ------ ------- --------- ----------- --------<br>--------- -------- --- ------- -- ------- ---- -- ------<br>-- --- -------- -------- ---------- ---- ---- ---- ------<br>-- --------- -- ---- -- --- -- --- ------- -- - -----<br>---------- -- -- -- ---- ----- -- ------ -- --- ------<br>-------,360054.8400003463,360053.5699999891,357764.856,357766.41499996185,357781.506,360065.274,,0,As
screen,html.Screen,1_3_1_0_1_1,2021-04-22T13:19:50.201Z,,,,,,,,,,,,,,,,48,,,,,,,,,,,,,,655.52099997201,,response,,,,10,F,,,,,,Space,keypress(Space),,,,instrumental,,,,-- in --- ------ ------- --------- ----------- --------<br>--------- -------- --- ------- -- ------- ---- -- ------<br>-- --- -------- -------- ---------- ---- ---- ---- ------<br>-- --------- -- ---- -- --- -- --- ------- -- - -----<br>---------- -- -- -- ---- ----- -- ------ -- --- ------<br>-------,360721.8300001696,360720.794999972,360048.795,360055.1499999128,360065.274,360732.201,,1,in
screen,html.Screen,1_3_1_0_1_2,2021-04-22T13:19:51.381Z,,,,,,,,,,,,,,,,48,,,,,,,,,,,,,,1168.6540001308313,,response,,,,10,F,,,,,,Space,keypress(Space),,,,instrumental,,,,-- -- the ------ ------- --------- ----------- --------<br>--------- -------- --- ------- -- ------- ---- -- ------<br>-- --- -------- -------- ---------- ---- ---- ---- ------<br>-- --------- -- ---- -- --- -- --- ------- -- - -----<br>---------- -- -- -- ---- ----- -- ------ -- --- ------<br>-------,361901.85500029474,361900.85500013083,360715.493,360722.14000020176,360732.201,361916.239,,2,the
screen,html.Screen,1_3_1_0_1_3,2021-04-22T13:19:51.740Z,,,,,,,,,,,,,,,,48,,,,,,,,,,,,,,343.8560002670274,,response,,,,10,F,,,,,,Space,keypress(Space),,,,instrumental,,,,-- -- --- United ------- --------- ----------- --------<br>--------- -------- --- ------- -- ------- ---- -- ------<br>-- --- -------- -------- ---------- ---- ---- ---- ------<br>-- --------- -- ---- -- --- -- --- ------- -- - -----<br>---------- -- -- -- ---- ----- -- ------ -- --- ------<br>-------,362261.13500026986,362260.095000267,361899.118,361902.1149999462,361916.239,362265.897,,3,United
screen,html.Screen,1_3_1_0_1_4,2021-04-22T13:19:52.200Z,,,,,,,,,,,,,,,,48,,,,,,,,,,,,,,454.0280003322987,,response,,,,10,F,,,,,,Space,keypress(Space),,,,instrumental,,,,"-- -- --- ------ States, --------- ----------- --------<br>--------- -------- --- ------- -- ------- ---- -- ------<br>-- --- -------- -------- ---------- ---- ---- ---- ------<br>-- --------- -- ---- -- --- -- --- ------- -- - -----<br>---------- -- -- -- ---- ----- -- ------ -- --- ------<br>-------",362720.86500003934,362719.9250003323,362249.267,362261.3900001161,362265.897,362733.099,,4,"States,"
screen,html.Screen,1_3_1_0_1_5,2021-04-22T13:19:52.957Z,,,,,,,,,,,,,,,,48,,,,,,,,,,,,,,743.9609999465174,,response,,,,10,F,,,,,,Space,keypress(Space),,,,instrumental,,,,-- -- --- ------ ------- Colombian ----------- --------<br>--------- -------- --- ------- -- ------- ---- -- ------<br>-- --- -------- -------- ---------- ---- ---- ---- ------<br>-- --------- -- ---- -- --- -- --- ------- -- - -----<br>---------- -- -- -- ---- ----- -- ------ -- --- ------<br>-------,363478.0150000006,363477.0599999465,362716.238,362721.12500015646,362733.099,363482.976,,5,Colombian
screen,html.Screen,1_3_1_0_1_6,2021-04-22T13:19:53.687Z,,,,,,,,,,,,,,,,48,,,,,,,,,,,,,,724.2639999014791,,response,,,,10,F,,,,,,Space,keypress(Space),,,,instrumental,,,,-- -- --- ------ ------- --------- legislation --------<br>--------- -------- --- ------- -- ------- ---- -- ------<br>-- --- -------- -------- ---------- ---- ---- ---- ------<br>-- --------- -- ---- -- --- -- --- ------- -- - -----<br>---------- -- -- -- ---- ----- -- ------ -- --- ------<br>-------,364208.25000014156,364207.2399999015,363466.664,363478.3900002949,363482.976,364216.511,,6,legislation
screen,html.Screen,1_3_1_0_1_7,2021-04-22T13:19:54.369Z,,,,,,,,,,,,,,,,48,,,,,,,,,,,,,,671.9889998845174,,response,,,,10,F,,,,,,Space,keypress(Space),,,,instrumental,,,,-- -- --- ------ ------- --------- ----------- requires<br>--------- -------- --- ------- -- ------- ---- -- ------<br>-- --- -------- -------- ---------- ---- ---- ---- ------<br>-- --------- -- ---- -- --- -- --- ------- -- - -----<br>---------- -- -- -- ---- ----- -- ------ -- --- ------<br>-------,364889.62500030175,364888.4999998845,364200.2,364208.5100002587,364216.511,364900.341,,7,requires
screen,html.Screen,1_3_1_0_1_8,2021-04-22T13:19:55.331Z,,,,,,,,,,,,,,,,48,,,,,,,,,,,,,,950.0939999129623,,response,,,,10,F,,,,,,Space,keypress(Space),,,,instrumental,,,,-- -- --- ------ ------- --------- ----------- --------<br>travelers -------- --- ------- -- ------- ---- -- ------<br>-- --- -------- -------- ---------- ---- ---- ---- ------<br>-- --------- -- ---- -- --- -- --- ------- -- - -----<br>---------- -- -- -- ---- ----- -- ------ -- --- ------<br>-------,365851.37000028044,365850.434999913,364883.628,364889.9250002578,364900.341,365867.476,,8,travelers
screen,html.Screen,1_3_1_0_1_9,2021-04-22T13:19:55.807Z,,,,,,,,,,,,,,,,48,,,,,,,,,,,,,,458.87900002649985,,response,,,,10,F,,,,,,Space,keypress(Space),,,,instrumental,,,,-- -- --- ------ ------- --------- ----------- --------<br>--------- entering --- ------- -- ------- ---- -- ------<br>-- --- -------- -------- ---------- ---- ---- ---- ------<br>-- --------- -- ---- -- --- -- --- ------- -- - -----<br>---------- -- -- -- ---- ----- -- ------ -- --- ------<br>-------,366327.324999962,366326.3550000265,365850.687,365851.6350002028,365867.476,366333.816,,9,entering
screen,html.Screen,1_3_1_0_1_10,2021-04-22T13:19:56.340Z,,,,,,,,,,,,,,,,48,,,,,,,,,,,,,,526.1140002679313,,response,,,,10,F,,,,,,Space,keypress(Space),,,,instrumental,,,,-- -- --- ------ ------- --------- ----------- --------<br>--------- -------- the ------- -- ------- ---- -- ------<br>-- --- -------- -------- ---------- ---- ---- ---- ------<br>-- --------- -- ---- -- --- -- --- ------- -- - -----<br>---------- -- -- -- ---- ----- -- ------ -- --- ------<br>-------,366860.97000027075,366859.9300002679,366317.154,366327.5850000791,366333.816,366867.369,,10,the
screen,html.Screen,1_3_1_0_1_11,2021-04-22T13:19:57.036Z,,,,,,,,,,,,,,,,48,,,,,,,,,,,,,,688.5510001880466,,response,,,,10,F,,,,,,Space,keypress(Space),,,,instrumental,,,,-- -- --- ------ ------- --------- ----------- --------<br>--------- -------- --- country -- ------- ---- -- ------<br>-- --- -------- -------- ---------- ---- ---- ---- ------<br>-- --------- -- ---- -- --- -- --- ------- -- - -----<br>---------- -- -- -- ---- ----- -- ------ -- --- ------<br>-------,367556.5550001338,367555.92000018805,366850.916,366861.2850001082,366867.369,367567.54,,11,country
screen,html.Screen,1_3_1_0_1_12,2021-04-22T13:19:57.400Z,,,,,,,,,,,,,,,,48,,,,,,,,,,,,,,352.1700000456185,,response,,,,10,F,,,,,,Space,keypress(Space),,,,instrumental,,,,-- -- --- ------ ------- --------- ----------- --------<br>--------- -------- --- ------- to ------- ---- -- ------<br>-- --- -------- -------- ---------- ---- ---- ---- ------<br>-- --------- -- ---- -- --- -- --- ------- -- - -----<br>---------- -- -- -- ---- ----- -- ------ -- --- ------<br>-------,367920.70000013337,367919.7100000456,367550.938,367556.7250000313,367567.54,367934.705,,12,to
screen,html.Screen,1_3_1_0_1_13,2021-04-22T13:19:57.746Z,,,,,,,,,,,,,,,,48,,,,,,,,,,,,,,331.13000020204345,,response,,,,10,F,,,,,,Space,keypress(Space),,,,instrumental,,,,-- -- --- ------ ------- --------- ----------- --------<br>--------- -------- --- ------- -- declare ---- -- ------<br>-- --- -------- -------- ---------- ---- ---- ---- ------<br>-- --------- -- ---- -- --- -- --- ------- -- - -----<br>---------- -- -- -- ---- ----- -- ------ -- --- ------<br>-------,368266.78499998525,368265.83500020206,367917.609,367920.9799999371,367934.705,368301.335,,13,declare
screen,html.Screen,1_3_1_0_1_14,2021-04-22T13:19:58.109Z,,,,,,,,,,,,,,,,48,,,,,,,,,,,,,,327.2000001416891,,response,,,,10,F,,,,,,Space,keypress(Space),,,,instrumental,,,,-- -- --- ------ ------- --------- ----------- --------<br>--------- -------- --- ------- -- ------- cash -- ------<br>-- --- -------- -------- ---------- ---- ---- ---- ------<br>-- --------- -- ---- -- --- -- --- ------- -- - -----<br>---------- -- -- -- ---- ----- -- ------ -- --- ------<br>-------,368629.5100003481,368628.5350001417,368284.816,368267.04000029713,368301.335,368634.52,,14,cash
screen,html.Screen,1_3_1_0_1_15,2021-04-22T13:19:58.471Z,,,,,,,,,,,,,,,,48,,,,,,,,,,,,,,355.99500018684193,,response,,,,10,F,,,,,,Space,keypress(Space),,,,instrumental,,,,-- -- --- ------ ------- --------- ----------- --------<br>--------- -------- --- ------- -- ------- ---- in ------<br>-- --- -------- -------- ---------- ---- ---- ---- ------<br>-- --------- -- ---- -- --- -- --- ------- -- - -----<br>---------- -- -- -- ---- ----- -- ------ -- --- ------<br>-------,368991.4450002834,368990.51500018686,368618.092,368629.7650001943,368634.52,369001.673,,15,in
screen,html.Screen,1_3_1_0_1_16,2021-04-22T13:19:58.931Z,,,,,,,,,,,,,,,,48,,,,,,,,,,,,,,448.2870003473363,,response,,,,10,F,,,,,,Space,keypress(Space),,,,instrumental,,,,-- -- --- ------ ------- --------- ----------- --------<br>--------- -------- --- ------- -- ------- ---- -- excess<br>-- --- -------- -------- ---------- ---- ---- ---- ------<br>-- --------- -- ---- -- --- -- --- ------- -- - -----<br>---------- -- -- -- ---- ----- -- ------ -- --- ------<br>-------,369451.2750003487,369449.96000034735,368984.656,368991.70000012964,369001.673,369468.244,,16,excess
screen,html.Screen,1_3_1_0_1_17,2021-04-22T13:19:59.460Z,,,,,,,,,,,,,,,,48,,,,,,,,,,,,,,511.8159999725758,,response,,,,10,F,,,,,,Space,keypress(Space),,,,instrumental,,,,-- -- --- ------ ------- --------- ----------- --------<br>--------- -------- --- ------- -- ------- ---- -- ------<br>of --- -------- -------- ---------- ---- ---- ---- ------<br>-- --------- -- ---- -- --- -- --- ------- -- - -----<br>---------- -- -- -- ---- ----- -- ------ -- --- ------<br>-------,369980.99500034004,369980.0599999726,369451.767,369451.63000002503,369468.244,369984.98,,17,of
screen,html.Screen,1_3_1_0_1_18,2021-04-22T13:19:59.802Z,,,,,,,,,,,,,,,,48,,,,,,,,,,,,,,336.7399998907931,,response,,,,10,F,,,,,,Space,keypress(Space),,,,instrumental,,,,-- -- --- ------ ------- --------- ----------- --------<br>--------- -------- --- ------- -- ------- ---- -- ------<br>-- ten -------- -------- ---------- ---- ---- ---- ------<br>-- --------- -- ---- -- --- -- --- ------- -- - -----<br>---------- -- -- -- ---- ----- -- ------ -- --- ------<br>-------,370322.7050001733,370321.7199998908,369968.46,369981.2600002624,369984.98,370335.432,,18,ten
screen,html.Screen,1_3_1_0_1_19,2021-04-22T13:20:00.248Z,,,,,,,,,,,,,,,,48,,,,,,,,,,,,,,432.41300014039734,,response,,,,10,F,,,,,,Space,keypress(Space),,,,instrumental,,,,-- -- --- ------ ------- --------- ----------- --------<br>--------- -------- --- ------- -- ------- ---- -- ------<br>-- --- thousand -------- ---------- ---- ---- ---- ------<br>-- --------- -- ---- -- --- -- --- ------- -- - -----<br>---------- -- -- -- ---- ----- -- ------ -- --- ------<br>-------,370768.9000000246,370767.84500014037,370318.351,370322.9650002904,370335.432,370785.605,,19,thousand
screen,html.Screen,1_3_1_0_1_20,2021-04-22T13:20:01.024Z,,,,,,,,,,,,,,,,48,,,,,,,,,,,,,,757.8900003400631,,response,,,,10,F,,,,,,Space,keypress(Space),,,,instrumental,,,,-- -- --- ------ ------- --------- ----------- --------<br>--------- -------- --- ------- -- ------- ---- -- ------<br>-- --- -------- dollars. ---------- ---- ---- ---- ------<br>-- --------- -- ---- -- --- -- --- ------- -- - -----<br>---------- -- -- -- ---- ----- -- ------ -- --- ------<br>-------,371544.68500008807,371543.49500034004,370768.593,370769.1950001754,370785.605,371552.042,,20,dollars.
screen,html.Screen,1_3_1_0_1_21,2021-04-22T13:20:01.681Z,,,,,,,,,,,,,,,,48,,,,,,,,,,,,,,648.648000317975,,response,,,,10,F,,,,,,Space,keypress(Space),,,,instrumental,,,,-- -- --- ------ ------- --------- ----------- --------<br>--------- -------- --- ------- -- ------- ---- -- ------<br>-- --- -------- -------- Concealing ---- ---- ---- ------<br>-- --------- -- ---- -- --- -- --- ------- -- - -----<br>---------- -- -- -- ---- ----- -- ------ -- --- ------<br>-------,372201.66000025347,372200.690000318,371535.367,371544.95000001043,371552.042,372235.927,,21,Concealing
screen,html.Screen,1_3_1_0_1_22,2021-04-22T13:20:02.088Z,,,,,,,,,,,,,,,,48,,,,,,,,,,,,,,371.57800019637216,,response,,,,10,F,,,,,,Space,keypress(Space),,,,instrumental,,,,-- -- --- ------ ------- --------- ----------- --------<br>--------- -------- --- ------- -- ------- ---- -- ------<br>-- --- -------- -------- ---------- more ---- ---- ------<br>-- --------- -- ---- -- --- -- --- ------- -- - -----<br>---------- -- -- -- ---- ----- -- ------ -- --- ------<br>-------,372608.43000002205,372607.5050001964,372218.962,372201.92500017583,372235.927,372619.035,,22,more
screen,html.Screen,1_3_1_0_1_23,2021-04-22T13:20:02.457Z,,,,,,,,,,,,,,,,48,,,,,,,,,,,,,,357.4900002965587,,response,,,,10,F,,,,,,Space,keypress(Space),,,,instrumental,,,,-- -- --- ------ ------- --------- ----------- --------<br>--------- -------- --- ------- -- ------- ---- -- ------<br>-- --- -------- -------- ---------- ---- than ---- ------<br>-- --------- -- ---- -- --- -- --- ------- -- - -----<br>---------- -- -- -- ---- ----- -- ------ -- --- ------<br>-------,372977.53500007093,372976.52500029653,372602.461,372608.6949999444,372619.035,372985.912,,23,than
screen,html.Screen,1_3_1_0_1_24,2021-04-22T13:20:02.977Z,,,,,,,,,,,,,,,,48,,,,,,,,,,,,,,511.1180002023466,,response,,,,10,F,,,,,,Space,keypress(Space),,,,instrumental,,,,-- -- --- ------ ------- --------- ----------- --------<br>--------- -------- --- ------- -- ------- ---- -- ------<br>-- --- -------- -------- ---------- ---- ---- that ------<br>-- --------- -- ---- -- --- -- --- ------- -- - -----<br>---------- -- -- -- ---- ----- -- ------ -- --- ------<br>-------,373497.96500010416,373497.03000020236,372969.495,372977.78999991715,372985.912,373502.651,,24,that
screen,html.Screen,1_3_1_0_1_25,2021-04-22T13:20:03.478Z,,,,,,,,,,,,,,,,48,,,,,,,,,,,,,,495.42400001041824,,response,,,,10,F,,,,,,Space,keypress(Space),,,,instrumental,,,,-- -- --- ------ ------- --------- ----------- --------<br>--------- -------- --- ------- -- ------- ---- -- ------<br>-- --- -------- -------- ---------- ---- ---- ---- amount<br>-- --------- -- ---- -- --- -- --- ------- -- - -----<br>---------- -- -- -- ---- ----- -- ------ -- --- ------<br>-------,373999.21000003815,373998.07500001043,373486.047,373499.66000020504,373502.651,374002.734,,25,amount
screen,html.Screen,1_3_1_0_1_26,2021-04-22T13:20:03.876Z,,,,,,,,,,,,,,,,48,,,,,,,,,,,,,,393.53100010490743,,response,,,,10,F,,,,,,Space,keypress(Space),,,,instrumental,,,,-- -- --- ------ ------- --------- ----------- --------<br>--------- -------- --- ------- -- ------- ---- -- ------<br>-- --- -------- -------- ---------- ---- ---- ---- ------<br>to --------- -- ---- -- --- -- --- ------- -- - -----<br>---------- -- -- -- ---- ----- -- ------ -- --- ------<br>-------,374397.2350000404,374396.2650001049,373986.464,373999.50500018895,374002.734,374402.88,,26,to
screen,html.Screen,1_3_1_0_1_27,2021-04-22T13:20:04.213Z,,,,,,,,,,,,,,,,48,,,,,,,,,,,,,,329.73500010266434,,response,,,,10,F,,,,,,Space,keypress(Space),,,,instrumental,,,,-- -- --- ------ ------- --------- ----------- --------<br>--------- -------- --- ------- -- ------- ---- -- ------<br>-- --- -------- -------- ---------- ---- ---- ---- ------<br>-- transport -- ---- -- --- -- --- ------- -- - -----<br>---------- -- -- -- ---- ----- -- ------ -- --- ------<br>-------,374733.7150000967,374732.61500010267,374386.222,374397.4950001575,374402.88,374736.351,,27,transport
screen,html.Screen,1_3_1_0_1_28,2021-04-22T13:20:04.701Z,,,,,,,,,,,,,,,,48,,,,,,,,,,,,,,484.7789999616798,,response,,,,10,F,,,,,,Space,keypress(Space),,,,instrumental,,,,-- -- --- ------ ------- --------- ----------- --------<br>--------- -------- --- ------- -- ------- ---- -- ------<br>-- --- -------- -------- ---------- ---- ---- ---- ------<br>-- --------- it ---- -- --- -- --- ------- -- - -----<br>---------- -- -- -- ---- ----- -- ------ -- --- ------<br>-------,375222.23500022665,375221.1299999617,374720.018,374734.00000017136,374736.351,375236.887,,28,it
screen,html.Screen,1_3_1_0_1_29,2021-04-22T13:20:05.360Z,,,,,,,,,,,,,,,,48,,,,,,,,,,,,,,642.6430000347318,,response,,,,10,F,,,,,,Space,keypress(Space),,,,instrumental,,,,-- -- --- ------ ------- --------- ----------- --------<br>--------- -------- --- ------- -- ------- ---- -- ------<br>-- --- -------- -------- ---------- ---- ---- ---- ------<br>-- --------- -- into -- --- -- --- ------- -- - -----<br>---------- -- -- -- ---- ----- -- ------ -- --- ------<br>-------,375880.63000002876,375879.5300000347,375220.195,375222.500000149,375236.887,375886.762,,29,into
screen,html.Screen,1_3_1_0_1_30,2021-04-22T13:20:05.938Z,,,,,,,,,,,,,,,,48,,,,,,,,,,,,,,570.7380000186386,,response,,,,10,F,,,,,,Space,keypress(Space),,,,instrumental,,,,-- -- --- ------ ------- --------- ----------- --------<br>--------- -------- --- ------- -- ------- ---- -- ------<br>-- --- -------- -------- ---------- ---- ---- ---- ------<br>-- --------- -- ---- or --- -- --- ------- -- - -----<br>---------- -- -- -- ---- ----- -- ------ -- --- ------<br>-------,376458.4550000727,376457.5000000186,375870.084,375880.90500002727,375886.762,376470.572,,30,or
screen,html.Screen,1_3_1_0_1_31,2021-04-22T13:20:06.341Z,,,,,,,,,,,,,,,,48,,,,,,,,,,,,,,390.003000289842,,response,,,,10,F,,,,,,Space,keypress(Space),,,,instrumental,,,,-- -- --- ------ ------- --------- ----------- --------<br>--------- -------- --- ------- -- ------- ---- -- ------<br>-- --- -------- -------- ---------- ---- ---- ---- ------<br>-- --------- -- ---- -- out -- --- ------- -- - -----<br>---------- -- -- -- ---- ----- -- ------ -- --- ------<br>-------,376861.6349999793,376860.5750002898,376453.783,376458.7300000712,376470.572,376870.496,,31,out
screen,html.Screen,1_3_1_0_1_32,2021-04-22T13:20:06.717Z,,,,,,,,,,,,,,,,48,,,,,,,,,,,,,,365.74399999837624,,response,,,,10,F,,,,,,Space,keypress(Space),,,,instrumental,,,,-- -- --- ------ ------- --------- ----------- --------<br>--------- -------- --- ------- -- ------- ---- -- ------<br>-- --- -------- -------- ---------- ---- ---- ---- ------<br>-- --------- -- ---- -- --- of --- ------- -- - -----<br>---------- -- -- -- ---- ----- -- ------ -- --- ------<br>-------,377237.4200001359,377236.23999999836,376853.885,376861.9300001301,376870.496,377253.91,,32,of
screen,html.Screen,1_3_1_0_1_33,2021-04-22T13:20:07.076Z,,,,,,,,,,,,,,,,48,,,,,,,,,,,,,,341.33499997499166,,response,,,,10,F,,,,,,Space,keypress(Space),,,,instrumental,,,,-- -- --- ------ ------- --------- ----------- --------<br>--------- -------- --- ------- -- ------- ---- -- ------<br>-- --- -------- -------- ---------- ---- ---- ---- ------<br>-- --------- -- ---- -- --- -- the ------- -- - -----<br>---------- -- -- -- ---- ----- -- ------ -- --- ------<br>-------,377596.3300000876,377595.24499997497,377237.323,377237.74000024423,377253.91,377603.946,,33,the
screen,html.Screen,1_3_1_0_1_34,2021-04-22T13:20:07.559Z,,,,,,,,,,,,,,,,48,,,,,,,,,,,,,,475.574000144843,,response,,,,10,F,,,,,,Space,keypress(Space),,,,instrumental,,,,-- -- --- ------ ------- --------- ----------- --------<br>--------- -------- --- ------- -- ------- ---- -- ------<br>-- --- -------- -------- ---------- ---- ---- ---- ------<br>-- --------- -- ---- -- --- -- --- country -- - -----<br>---------- -- -- -- ---- ----- -- ------ -- --- ------<br>-------,378080.2000002004,378079.52000014484,377587.472,377596.6250002384,377603.946,378087.65,,34,country
screen,html.Screen,1_3_1_0_1_35,2021-04-22T13:20:07.960Z,,,,,,,,,,,,,,,,48,,,,,,,,,,,,,,391.87500032258686,,response,,,,10,F,,,,,,Space,keypress(Space),,,,instrumental,,,,-- -- --- ------ ------- --------- ----------- --------<br>--------- -------- --- ------- -- ------- ---- -- ------<br>-- --- -------- -------- ---------- ---- ---- ---- ------<br>-- --------- -- ---- -- --- -- --- ------- is - -----<br>---------- -- -- -- ---- ----- -- ------ -- --- ------<br>-------,378480.54500017315,378479.5250003226,378071.069,378080.36000002176,378087.65,378487.549,,35,is
screen,html.Screen,1_3_1_0_1_36,2021-04-22T13:20:08.403Z,,,,,,,,,,,,,,,,48,,,,,,,,,,,,,,435.3760000789771,,response,,,,10,F,,,,,,Space,keypress(Space),,,,instrumental,,,,-- -- --- ------ ------- --------- ----------- --------<br>--------- -------- --- ------- -- ------- ---- -- ------<br>-- --- -------- -------- ---------- ---- ---- ---- ------<br>-- --------- -- ---- -- --- -- --- ------- -- a -----<br>---------- -- -- -- ---- ----- -- ------ -- --- ------<br>-------,378924.2600002326,378922.925000079,378470.989,378480.8000000194,378487.549,378937.886,,36,a
screen,html.Screen,1_3_1_0_1_37,2021-04-22T13:20:08.895Z,,,,,,,,,,,,,,,,48,,,,,,,,,,,,,,477.13400018954417,,response,,,,10,F,,,,,,Space,keypress(Space),,,,instrumental,,,,-- -- --- ------ ------- --------- ----------- --------<br>--------- -------- --- ------- -- ------- ---- -- ------<br>-- --- -------- -------- ---------- ---- ---- ---- ------<br>-- --------- -- ---- -- --- -- --- ------- -- - crime<br>---------- -- -- -- ---- ----- -- ------ -- --- ------<br>-------,379415.9800000489,379415.02000018954,378921.14,378924.5500001125,378937.886,379421.101,,37,crime
screen,html.Screen,1_3_1_0_1_38,2021-04-22T13:20:09.329Z,,,,,,,,,,,,,,,,48,,,,,,,,,,,,,,427.94900030991994,,response,,,,10,F,,,,,,Space,keypress(Space),,,,instrumental,,,,-- -- --- ------ ------- --------- ----------- --------<br>--------- -------- --- ------- -- ------- ---- -- ------<br>-- --- -------- -------- ---------- ---- ---- ---- ------<br>-- --------- -- ---- -- --- -- --- ------- -- - -----<br>punishable -- -- -- ---- ----- -- ------ -- --- ------<br>-------,379850.0649998896,379849.05000030994,379404.773,379416.25000024214,379421.101,379854.617,,38,punishable
screen,html.Screen,1_3_1_0_1_39,2021-04-22T13:20:09.709Z,,,,,,,,,,,,,,,,48,,,,,,,,,,,,,,373.7080000327551,,response,,,,10,F,,,,,,Space,keypress(Space),,,,instrumental,,,,-- -- --- ------ ------- --------- ----------- --------<br>--------- -------- --- ------- -- ------- ---- -- ------<br>-- --- -------- -------- ---------- ---- ---- ---- ------<br>-- --------- -- ---- -- --- -- --- ------- -- - -----<br>---------- by -- -- ---- ----- -- ------ -- --- ------<br>-------,380229.3250001967,380228.3250000328,379838.227,379850.3399998881,379854.617,380237.985,,39,by
screen,html.Screen,1_3_1_0_1_40,2021-04-22T13:20:10.141Z,,,,,,,,,,,,,,,,48,,,,,,,,,,,,,,422.939999974682,,response,,,,10,F,,,,,,Space,keypress(Space),,,,instrumental,,,,-- -- --- ------ ------- --------- ----------- --------<br>--------- -------- --- ------- -- ------- ---- -- ------<br>-- --- -------- -------- ---------- ---- ---- ---- ------<br>-- --------- -- ---- -- --- -- --- ------- -- - -----<br>---------- -- up -- ---- ----- -- ------ -- --- ------<br>-------,380661.59000014886,380660.92499997467,380221.62,380229.59000011906,380237.985,380671.695,,40,up
screen,html.Screen,1_3_1_0_1_41,2021-04-22T13:20:10.507Z,,,,,,,,,,,,,,,,48,,,,,,,,,,,,,,355.59500011458294,,response,,,,10,F,,,,,,Space,keypress(Space),,,,instrumental,,,,-- -- --- ------ ------- --------- ----------- --------<br>--------- -------- --- ------- -- ------- ---- -- ------<br>-- --- -------- -------- ---------- ---- ---- ---- ------<br>-- --------- -- ---- -- --- -- --- ------- -- - -----<br>---------- -- -- to ---- ----- -- ------ -- --- ------<br>-------,381028.22000021115,381027.2900001146,380655.025,380661.76500031725,380671.695,381038.629,,41,to
