sender,sender_type,sender_id,timestamp,meta,,Blues,Classical,Country,Dance,Electronic,Folk,Gospel,Hip-Hop,Jazz,Latin,Musical/Film,New-age,Pop,Provo_ID,R&B,Rap,Reggae,Religious,Rock,Soul,Swing,Traditional,age,artist_name,correct,correctResponse,distraction,duration,education,ended_on,familiarity,gender,headphone_check_performance,item,list,music_frequency,offensiveness,pleasantness,position_correct,preference,response,response_action,snippet_file,song_name,song_rating,sound,stimulus_1,stimulus_2,stimulus_3,text,time_commit,time_end,time_render,time_run,time_show,time_switch,url,word,word_ID
Introduction,html.Screen,0_0,2021-04-18T11:50:56.174Z,"{""labjs_version"":""20.2.2"",""labjs_build"":{""flavor"":""production"",""commit"":""a25486e0c714a0ae2ce03ff94b7bb6896854dcfa""},""location"":""https://run.pavlovia.org/mvasilev/music_e/"",""userAgent"":""Mozilla/5.0 (Macintosh; Intel Mac OS X 10_15_3) AppleWebKit/605.1.15 (KHTML, like Gecko) Version/13.0.5 Safari/605.1.15"",""platform"":""MacIntel"",""language"":""en-GB"",""locale"":""en-GB"",""timeZone"":""Europe/London"",""timezoneOffset"":-60,""screen_width"":1440,""screen_height"":900,""scroll_width"":1440,""scroll_height"":789,""window_innerWidth"":1440,""window_innerHeight"":837,""devicePixelRatio"":2}",,,,,,,,,,,,,,,,,,,,,,,,,,,,,11529,,response,,,,,,,,,,,continue,click button,,,,,,,,,19835,19843,8314,8302,8370,19853,{},,
Volume calibration,html.Screen,0_1,2021-04-18T11:51:11.914Z,,,,,,,,,,,,,,,,,,,,,,,,,,,,,,15746,,response,,,,,,,,,,,continue,click button,,,,,,,,,35575,35584,19838,19835,19853,35602,,,
Task instructions,html.Screen,0_2,2021-04-18T11:51:25.662Z,,,,,,,,,,,,,,,,,,,,,,,,,,,,,,13746,,response,,,,,,,,,,,continue,click button,,,,,,,,,49323,49332,35586,35575,35602,49344,,,
Sounds,html.Screen,0_3_0_0,2021-04-18T11:51:29.910Z,,,,,,,,,,,,,,,,,,,,,,,,,,,,,,4244,,timeout,,,,,,,,,2,,,,,,,,I,S,O,,53571,53570,49327,49323,49344,53588,,,
Judgement,html.Screen,0_3_0_1,2021-04-18T11:51:32.539Z,,,,,,,,,,,,,,,,,,,,,,,,,,,false,2,,2640,,response,,,,,,,,,2,,1,click #choice-1,,,,,I,S,O,,56200,56210,53570,53571,53588,56217,,,
Trial,flow.Sequence,0_3_0,2021-04-18T11:51:32.540Z,,,,,,,,,,,,,,,,,,,,,,,,,,,,,,6866,,completion,,,,,,,,,2,,,,,,,,I,S,O,,56201,56210,49327,49323,49344,56217,,,
Sounds,html.Screen,0_3_1_0,2021-04-18T11:51:36.794Z,,,,,,,,,,,,,,,,,,,,,,,,,,,,,,4255,,timeout,,,,,,,,,1,,,,,,,,S,I,O,,60455,60455,56202,56201,56217,60472,,,
Judgement,html.Screen,0_3_1_1,2021-04-18T11:51:37.794Z,,,,,,,,,,,,,,,,,,,,,,,,,,,true,1,,1010,,response,,,,,,,,,1,,1,click #choice-1,,,,,S,I,O,,61455,61465,60455,60456,60472,61488,,,
Trial,flow.Sequence,0_3_1,2021-04-18T11:51:37.795Z,,,,,,,,,,,,,,,,,,,,,,,,,,,,,,5248,,completion,,,,,,,,,1,,,,,,,,S,I,O,,61456,61465,56202,56201,56217,61488,,,
Sounds,html.Screen,0_3_2_0,2021-04-18T11:51:42.050Z,,,,,,,,,,,,,,,,,,,,,,,,,,,,,,4239,,timeout,,,,,,,,,1,,,,,,,,S,O,I,,65711,65711,61473,61456,61488,65727,,,
Judgement,html.Screen,0_3_2_1,2021-04-18T11:51:43.042Z,,,,,,,,,,,,,,,,,,,,,,,,,,,true,1,,1002.0000000000146,,response,,,,,,,,,1,,1,click #choice-1,,,,,S,O,I,,66704.00000000001,66713.00000000001,65711,65712,65727,66727,,,
Trial,flow.Sequence,0_3_2,2021-04-18T11:51:43.043Z,,,,,,,,,,,,,,,,,,,,,,,,,,,,,,5225.000000000015,,completion,,,,,,,,,1,,,,,,,,S,O,I,,66704.00000000001,66713.00000000001,61473,61456,61488,66727,,,
Sounds,html.Screen,0_3_3_0,2021-04-18T11:51:47.305Z,,,,,,,,,,,,,,,,,,,,,,,,,,,,,,4256,,timeout,,,,,,,,,3,,,,,,,,I,O,S,,70966.00000000001,70966,66711,66704.00000000001,66727,70983,,,
Judgement,html.Screen,0_3_3_1,2021-04-18T11:51:47.891Z,,,,,,,,,,,,,,,,,,,,,,,,,,,true,3,,597,,response,,,,,,,,,3,,3,click #choice-3,,,,,I,O,S,,71552,71563,70966,70967,70983,71583,,,
Trial,flow.Sequence,0_3_3,2021-04-18T11:51:47.891Z,,,,,,,,,,,,,,,,,,,,,,,,,,,,,,4836,,completion,,,,,,,,,3,,,,,,,,I,O,S,,71553,71563,66711,66704.00000000001,66727,71583,,,
Sounds,html.Screen,0_3_4_0,2021-04-18T11:51:52.160Z,,,,,,,,,,,,,,,,,,,,,,,,,,,,,,4255,,timeout,,,,,,,,,2,,,,,,,,O,S,I,,75822,75821,71567,71553,71583,75838,,,
Judgement,html.Screen,0_3_4_1,2021-04-18T11:51:52.543Z,,,,,,,,,,,,,,,,,,,,,,,,,,,true,2,,393,,response,,,,,,,,,2,,2,click #choice-2,,,,,O,S,I,,76205,76214,75821,75822,75838,76222,,,
Trial,flow.Sequence,0_3_4,2021-04-18T11:51:52.543Z,,,,,,,,,,,,,,,,,,,,,,,,,,,,,,4631,,completion,,,,,,,,,2,,,,,,,,O,S,I,,76205,76214,71567,71553,71583,76222,,,
Sounds,html.Screen,0_3_5_0,2021-04-18T11:51:56.799Z,,,,,,,,,,,,,,,,,,,,,,,,,,,,,,4255,,timeout,,,,,,,,,3,,,,,,,,O,I,S,,80460.00000000001,80460,76206,76205,76222,80477,,,
Judgement,html.Screen,0_3_5_1,2021-04-18T11:51:57.631Z,,,,,,,,,,,,,,,,,,,,,,,,,,,true,3,,843,,response,,,,,,,,,3,,3,click #choice-3,,,,,O,I,S,,81293,81303,80460,80460.00000000001,80477,81311,,,
Trial,flow.Sequence,0_3_5,2021-04-18T11:51:57.632Z,,,,,,,,,,,,,,,,,,,,,,,,,,,,,,5081,,completion,,,,,,,,,3,,,,,,,,O,I,S,,81293,81303,76206,76205,76222,81311,,,
Task,flow.Loop,0_3,2021-04-18T11:51:57.634Z,,,,,,,,,,,,,,,,,,,,,,,,,,,,,,31959,,completion,,,0.8333333333333334,,,,,,,,,,,,,,,,,,81295,81303,49327,49323,49344,81311,,,
Trap,html.Screen,0_4,2021-04-18T11:51:57.635Z,,,,,,,,,,,,,,,,,,,,,,,,,,,,,,NaN,,skipped,,,,,,,,,,,,,,,,,,,,,81297,81303,,81296,,81311,,,
Thanks,html.Screen,0_5,2021-04-18T11:52:00.756Z,,,,,,,,,,,,,,,,,,,,,,,,,,,,,,3129,,response,,,,,,,,,,,continue,click button,,,,,,,,,84418,84427,81298,81297,81311,88778,,,
Headphone screening,flow.Sequence,0,2021-04-18T11:52:00.757Z,,,,,,,,,,,,,,,,,,,,,,,,,,,,,,76057,,completion,,,,,,,,,,,,,,,,,,,,,84418,84427,8314,8302,8370,88778,,,
Instructions,html.Page,1_0,2021-04-18T11:52:23.057Z,,,,,,,,,,,,,,,,,,,,,,,,,,,,,,17941.000000000015,,form submission,,,,,,,,,,,,,,,,,,,,,106719.00000000001,106719.00000000001,88776,88761,88778,106747,,,
Holding screen,html.Screen,1_1_0_0,2021-04-18T11:52:33.075Z,,,,,,,,,,,,,,,,,,,,,,,,,,,,,,10020,,timeout,,,,,,,,,,,,,,,,,,,,,116737.00000000001,116737,106730,106720,106747,116767,,,
screen,html.Screen,1_1_0_1_0,2021-04-18T11:52:34.148Z,,,,,,,,,,,,,,,,53,,,,,,,,,,,,,,1080,,response,,,,99,,,,,,,Space,keypress(Space),,,,,,,,When -- ----- -- ------ - ------- --- ----------<br>------------- ------ ------ ---- ---- ------- ----- -- ----<br>-------- ------- -- ---------- --- - --- ----- ----- ----<br>---- --- --- ----- --- ---- ---- ------- ----- ---- -------<br>--- --- -- ----- -- --- ---- -- --- ---- -- ------ ------<br>--- ----- -- ----,117810,117817,116737,116737.00000000001,116767,117852,,0,When
screen,html.Screen,1_1_0_1_1,2021-04-18T11:52:34.592Z,,,,,,,,,,,,,,,,53,,,,,,,,,,,,,,427,,response,,,,99,,,,,,,Space,keypress(Space),,,,,,,,---- it ----- -- ------ - ------- --- ----------<br>------------- ------ ------ ---- ---- ------- ----- -- ----<br>-------- ------- -- ---------- --- - --- ----- ----- ----<br>---- --- --- ----- --- ---- ---- ------- ----- ---- -------<br>--- --- -- ----- -- --- ---- -- --- ---- -- ------ ------<br>--- ----- -- ----,118254,118263,117836,117810,117852,118287,,1,it
screen,html.Screen,1_1_0_1_2,2021-04-18T11:52:35.178Z,,,,,,,,,,,,,,,,53,,,,,,,,,,,,,,581.0000000000146,,response,,,,99,,,,,,,Space,keypress(Space),,,,,,,,---- -- comes -- ------ - ------- --- ----------<br>------------- ------ ------ ---- ---- ------- ----- -- ----<br>-------- ------- -- ---------- --- - --- ----- ----- ----<br>---- --- --- ----- --- ---- ---- ------- ----- ---- -------<br>--- --- -- ----- -- --- ---- -- --- ---- -- ------ ------<br>--- ----- -- ----,118841.00000000001,118850.00000000001,118269,118254,118287,118869,,2,comes
screen,html.Screen,1_1_0_1_3,2021-04-18T11:52:35.659Z,,,,,,,,,,,,,,,,53,,,,,,,,,,,,,,478,,response,,,,99,,,,,,,Space,keypress(Space),,,,,,,,---- -- ----- to ------ - ------- --- ----------<br>------------- ------ ------ ---- ---- ------- ----- -- ----<br>-------- ------- -- ---------- --- - --- ----- ----- ----<br>---- --- --- ----- --- ---- ---- ------- ----- ---- -------<br>--- --- -- ----- -- --- ---- -- --- ---- -- ------ ------<br>--- ----- -- ----,119321,119330,118852,118841.00000000001,118869,119353,,3,to
screen,html.Screen,1_1_0_1_4,2021-04-18T11:52:36.182Z,,,,,,,,,,,,,,,,53,,,,,,,,,,,,,,517,,response,,,,99,,,,,,,Space,keypress(Space),,,,,,,,---- -- ----- -- having - ------- --- ----------<br>------------- ------ ------ ---- ---- ------- ----- -- ----<br>-------- ------- -- ---------- --- - --- ----- ----- ----<br>---- --- --- ----- --- ---- ---- ------- ----- ---- -------<br>--- --- -- ----- -- --- ---- -- --- ---- -- ------ ------<br>--- ----- -- ----,119845,119854,119337,119321,119353,119887,,4,having
screen,html.Screen,1_1_0_1_5,2021-04-18T11:52:36.674Z,,,,,,,,,,,,,,,,53,,,,,,,,,,,,,,475,,response,,,,99,,,,,,,Space,keypress(Space),,,,,,,,---- -- ----- -- ------ a ------- --- ----------<br>------------- ------ ------ ---- ---- ------- ----- -- ----<br>-------- ------- -- ---------- --- - --- ----- ----- ----<br>---- --- --- ----- --- ---- ---- ------- ----- ---- -------<br>--- --- -- ----- -- --- ---- -- --- ---- -- ------ ------<br>--- ----- -- ----,120336,120345,119870,119845,119887,120370,,5,a
screen,html.Screen,1_1_0_1_6,2021-04-18T11:52:37.244Z,,,,,,,,,,,,,,,,53,,,,,,,,,,,,,,563,,response,,,,99,,,,,,,Space,keypress(Space),,,,,,,,---- -- ----- -- ------ - lasting --- ----------<br>------------- ------ ------ ---- ---- ------- ----- -- ----<br>-------- ------- -- ---------- --- - --- ----- ----- ----<br>---- --- --- ----- --- ---- ---- ------- ----- ---- -------<br>--- --- -- ----- -- --- ---- -- --- ---- -- ------ ------<br>--- ----- -- ----,120907,120916,120353,120336,120370,120936,,6,lasting
screen,html.Screen,1_1_0_1_7,2021-04-18T11:52:37.667Z,,,,,,,,,,,,,,,,53,,,,,,,,,,,,,,420,,response,,,,99,,,,,,,Space,keypress(Space),,,,,,,,---- -- ----- -- ------ - ------- and ----------<br>------------- ------ ------ ---- ---- ------- ----- -- ----<br>-------- ------- -- ---------- --- - --- ----- ----- ----<br>---- --- --- ----- --- ---- ---- ------- ----- ---- -------<br>--- --- -- ----- -- --- ---- -- --- ---- -- ------ ------<br>--- ----- -- ----,121330,121339,120919,120907,120936,121357,,7,and
screen,html.Screen,1_1_0_1_8,2021-04-18T11:52:38.378Z,,,,,,,,,,,,,,,,53,,,,,,,,,,,,,,710,,response,,,,99,,,,,,,Space,keypress(Space),,,,,,,,---- -- ----- -- ------ - ------- --- fulfilling<br>------------- ------ ------ ---- ---- ------- ----- -- ----<br>-------- ------- -- ---------- --- - --- ----- ----- ----<br>---- --- --- ----- --- ---- ---- ------- ----- ---- -------<br>--- --- -- ----- -- --- ---- -- --- ---- -- ------ ------<br>--- ----- -- ----,122041,122050,121340,121330,121357,122074,,8,fulfilling
screen,html.Screen,1_1_0_1_9,2021-04-18T11:52:39.643Z,,,,,,,,,,,,,,,,53,,,,,,,,,,,,,,1257,,response,,,,99,,,,,,,Space,keypress(Space),,,,,,,,"---- -- ----- -- ------ - ------- --- ----------<br>relationship, ------ ------ ---- ---- ------- ----- -- ----<br>-------- ------- -- ---------- --- - --- ----- ----- ----<br>---- --- --- ----- --- ---- ---- ------- ----- ---- -------<br>--- --- -- ----- -- --- ---- -- --- ---- -- ------ ------<br>--- ----- -- ----",123305,123314,122057,122041,122074,123340,,9,"relationship,"
screen,html.Screen,1_1_0_1_10,2021-04-18T11:52:40.210Z,,,,,,,,,,,,,,,,53,,,,,,,,,,,,,,558,,response,,,,99,,,,,,,Space,keypress(Space),,,,,,,,---- -- ----- -- ------ - ------- --- ----------<br>------------- common ------ ---- ---- ------- ----- -- ----<br>-------- ------- -- ---------- --- - --- ----- ----- ----<br>---- --- --- ----- --- ---- ---- ------- ----- ---- -------<br>--- --- -- ----- -- --- ---- -- --- ---- -- ------ ------<br>--- ----- -- ----,123873,123882,123324,123305,123340,123907,,10,common
screen,html.Screen,1_1_0_1_11,2021-04-18T11:52:40.993Z,,,,,,,,,,,,,,,,53,,,,,,,,,,,,,,774,,response,,,,99,,,,,,,Space,keypress(Space),,,,,,,,---- -- ----- -- ------ - ------- --- ----------<br>------------- ------ wisdom ---- ---- ------- ----- -- ----<br>-------- ------- -- ---------- --- - --- ----- ----- ----<br>---- --- --- ----- --- ---- ---- ------- ----- ---- -------<br>--- --- -- ----- -- --- ---- -- --- ---- -- ------ ------<br>--- ----- -- ----,124655,124665,123891,123873,123907,124691,,11,wisdom
screen,html.Screen,1_1_0_1_12,2021-04-18T11:52:41.634Z,,,,,,,,,,,,,,,,53,,,,,,,,,,,,,,632,,response,,,,99,,,,,,,Space,keypress(Space),,,,,,,,---- -- ----- -- ------ - ------- --- ----------<br>------------- ------ ------ says ---- ------- ----- -- ----<br>-------- ------- -- ---------- --- - --- ----- ----- ----<br>---- --- --- ----- --- ---- ---- ------- ----- ---- -------<br>--- --- -- ----- -- --- ---- -- --- ---- -- ------ ------<br>--- ----- -- ----,125297,125306,124674,124656,124691,125324,,12,says
screen,html.Screen,1_1_0_1_13,2021-04-18T11:52:42.093Z,,,,,,,,,,,,,,,,53,,,,,,,,,,,,,,457,,response,,,,99,,,,,,,Space,keypress(Space),,,,,,,,---- -- ----- -- ------ - ------- --- ----------<br>------------- ------ ------ ---- that ------- ----- -- ----<br>-------- ------- -- ---------- --- - --- ----- ----- ----<br>---- --- --- ----- --- ---- ---- ------- ----- ---- -------<br>--- --- -- ----- -- --- ---- -- --- ---- -- ------ ------<br>--- ----- -- ----,125756,125765,125308,125297,125324,125791,,13,that
screen,html.Screen,1_1_0_1_14,2021-04-18T11:52:42.777Z,,,,,,,,,,,,,,,,53,,,,,,,,,,,,,,675,,response,,,,99,,,,,,,Space,keypress(Space),,,,,,,,---- -- ----- -- ------ - ------- --- ----------<br>------------- ------ ------ ---- ---- feeling ----- -- ----<br>-------- ------- -- ---------- --- - --- ----- ----- ----<br>---- --- --- ----- --- ---- ---- ------- ----- ---- -------<br>--- --- -- ----- -- --- ---- -- --- ---- -- ------ ------<br>--- ----- -- ----,126439,126449,125774,125756,125791,126473,,14,feeling
screen,html.Screen,1_1_0_1_15,2021-04-18T11:52:43.516Z,,,,,,,,,,,,,,,,53,,,,,,,,,,,,,,731,,response,,,,99,,,,,,,Space,keypress(Space),,,,,,,,---- -- ----- -- ------ - ------- --- ----------<br>------------- ------ ------ ---- ---- ------- close -- ----<br>-------- ------- -- ---------- --- - --- ----- ----- ----<br>---- --- --- ----- --- ---- ---- ------- ----- ---- -------<br>--- --- -- ----- -- --- ---- -- --- ---- -- ------ ------<br>--- ----- -- ----,127179,127188,126457,126439,126473,127212,,15,close
screen,html.Screen,1_1_0_1_16,2021-04-18T11:52:43.847Z,,,,,,,,,,,,,,,,53,,,,,,,,,,,,,,324,,response,,,,99,,,,,,,Space,keypress(Space),,,,,,,,---- -- ----- -- ------ - ------- --- ----------<br>------------- ------ ------ ---- ---- ------- ----- to ----<br>-------- ------- -- ---------- --- - --- ----- ----- ----<br>---- --- --- ----- --- ---- ---- ------- ----- ---- -------<br>--- --- -- ----- -- --- ---- -- --- ---- -- ------ ------<br>--- ----- -- ----,127509,127519,127195,127179,127212,127527,,16,to
screen,html.Screen,1_1_0_1_17,2021-04-18T11:52:44.556Z,,,,,,,,,,,,,,,,53,,,,,,,,,,,,,,717.0000000000146,,response,,,,99,,,,,,,Space,keypress(Space),,,,,,,,---- -- ----- -- ------ - ------- --- ----------<br>------------- ------ ------ ---- ---- ------- ----- -- your<br>-------- ------- -- ---------- --- - --- ----- ----- ----<br>---- --- --- ----- --- ---- ---- ------- ----- ---- -------<br>--- --- -- ----- -- --- ---- -- --- ---- -- ------ ------<br>--- ----- -- ----,128217.99999999999,128228.00000000001,127511,127510,127527,128262,,17,your
screen,html.Screen,1_1_0_1_18,2021-04-18T11:52:45.233Z,,,,,,,,,,,,,,,,53,,,,,,,,,,,,,,661,,response,,,,99,,,,,,,Space,keypress(Space),,,,,,,,---- -- ----- -- ------ - ------- --- ----------<br>------------- ------ ------ ---- ---- ------- ----- -- ----<br>romantic ------- -- ---------- --- - --- ----- ----- ----<br>---- --- --- ----- --- ---- ---- ------- ----- ---- -------<br>--- --- -- ----- -- --- ---- -- --- ---- -- ------ ------<br>--- ----- -- ----,128895.00000000001,128905,128244,128217.99999999999,128262,128928,,18,romantic
screen,html.Screen,1_1_0_1_19,2021-04-18T11:52:45.798Z,,,,,,,,,,,,,,,,53,,,,,,,,,,,,,,559,,response,,,,99,,,,,,,Space,keypress(Space),,,,,,,,---- -- ----- -- ------ - ------- --- ----------<br>------------- ------ ------ ---- ---- ------- ----- -- ----<br>-------- partner -- ---------- --- - --- ----- ----- ----<br>---- --- --- ----- --- ---- ---- ------- ----- ---- -------<br>--- --- -- ----- -- --- ---- -- --- ---- -- ------ ------<br>--- ----- -- ----,129461.00000000001,129470,128911,128896.00000000001,128928,129495,,19,partner
screen,html.Screen,1_1_0_1_20,2021-04-18T11:52:46.297Z,,,,,,,,,,,,,,,,53,,,,,,,,,,,,,,491,,response,,,,99,,,,,,,Space,keypress(Space),,,,,,,,---- -- ----- -- ------ - ------- --- ----------<br>------------- ------ ------ ---- ---- ------- ----- -- ----<br>-------- ------- is ---------- --- - --- ----- ----- ----<br>---- --- --- ----- --- ---- ---- ------- ----- ---- -------<br>--- --- -- ----- -- --- ---- -- --- ---- -- ------ ------<br>--- ----- -- ----,129959,129969,129478,129461.00000000001,129495,129995,,20,is
screen,html.Screen,1_1_0_1_21,2021-04-18T11:52:48.283Z,,,,,,,,,,,,,,,,53,,,,,,,,,,,,,,1978,,response,,,,99,,,,,,,Space,keypress(Space),,,,,,,,---- -- ----- -- ------ - ------- --- ----------<br>------------- ------ ------ ---- ---- ------- ----- -- ----<br>-------- ------- -- paramount. --- - --- ----- ----- ----<br>---- --- --- ----- --- ---- ---- ------- ----- ---- -------<br>--- --- -- ----- -- --- ---- -- --- ---- -- ------ ------<br>--- ----- -- ----,131946,131955,129977,129959,129995,131977,,21,paramount.
screen,html.Screen,1_1_0_1_22,2021-04-18T11:52:48.856Z,,,,,,,,,,,,,,,,53,,,,,,,,,,,,,,567,,response,,,,99,,,,,,,Space,keypress(Space),,,,,,,,---- -- ----- -- ------ - ------- --- ----------<br>------------- ------ ------ ---- ---- ------- ----- -- ----<br>-------- ------- -- ---------- But - --- ----- ----- ----<br>---- --- --- ----- --- ---- ---- ------- ----- ---- -------<br>--- --- -- ----- -- --- ---- -- --- ---- -- ------ ------<br>--- ----- -- ----,132518,132528,131961,131946,131977,132548,,22,But
screen,html.Screen,1_1_0_1_23,2021-04-18T11:52:49.316Z,,,,,,,,,,,,,,,,53,,,,,,,,,,,,,,456,,response,,,,99,,,,,,,Space,keypress(Space),,,,,,,,---- -- ----- -- ------ - ------- --- ----------<br>------------- ------ ------ ---- ---- ------- ----- -- ----<br>-------- ------- -- ---------- --- a --- ----- ----- ----<br>---- --- --- ----- --- ---- ---- ------- ----- ---- -------<br>--- --- -- ----- -- --- ---- -- --- ---- -- ------ ------<br>--- ----- -- ----,132978,132988,132532,132519,132548,133016,,23,a
screen,html.Screen,1_1_0_1_24,2021-04-18T11:52:49.936Z,,,,,,,,,,,,,,,,53,,,,,,,,,,,,,,609,,response,,,,99,,,,,,,Space,keypress(Space),,,,,,,,---- -- ----- -- ------ - ------- --- ----------<br>------------- ------ ------ ---- ---- ------- ----- -- ----<br>-------- ------- -- ---------- --- - new ----- ----- ----<br>---- --- --- ----- --- ---- ---- ------- ----- ---- -------<br>--- --- -- ----- -- --- ---- -- --- ---- -- ------ ------<br>--- ----- -- ----,133599,133608,132999,132978,133016,133632,,24,new
screen,html.Screen,1_1_0_1_25,2021-04-18T11:52:50.413Z,,,,,,,,,,,,,,,,53,,,,,,,,,,,,,,469,,response,,,,99,,,,,,,Space,keypress(Space),,,,,,,,---- -- ----- -- ------ - ------- --- ----------<br>------------- ------ ------ ---- ---- ------- ----- -- ----<br>-------- ------- -- ---------- --- - --- study ----- ----<br>---- --- --- ----- --- ---- ---- ------- ----- ---- -------<br>--- --- -- ----- -- --- ---- -- --- ---- -- ------ ------<br>--- ----- -- ----,134075,134085,133616,133599,133632,134116,,25,study
screen,html.Screen,1_1_0_1_26,2021-04-18T11:52:50.887Z,,,,,,,,,,,,,,,,53,,,,,,,,,,,,,,460,,response,,,,99,,,,,,,Space,keypress(Space),,,,,,,,---- -- ----- -- ------ - ------- --- ----------<br>------------- ------ ------ ---- ---- ------- ----- -- ----<br>-------- ------- -- ---------- --- - --- ----- finds ----<br>---- --- --- ----- --- ---- ---- ------- ----- ---- -------<br>--- --- -- ----- -- --- ---- -- --- ---- -- ------ ------<br>--- ----- -- ----,134550,134559,134099,134075,134116,134582,,26,finds
screen,html.Screen,1_1_0_1_27,2021-04-18T11:52:51.366Z,,,,,,,,,,,,,,,,53,,,,,,,,,,,,,,472,,response,,,,99,,,,,,,Space,keypress(Space),,,,,,,,---- -- ----- -- ------ - ------- --- ----------<br>------------- ------ ------ ---- ---- ------- ----- -- ----<br>-------- ------- -- ---------- --- - --- ----- ----- that<br>---- --- --- ----- --- ---- ---- ------- ----- ---- -------<br>--- --- -- ----- -- --- ---- -- --- ---- -- ------ ------<br>--- ----- -- ----,135028,135038,134566,134550,134582,135065,,27,that
screen,html.Screen,1_1_0_1_28,2021-04-18T11:52:51.961Z,,,,,,,,,,,,,,,,53,,,,,,,,,,,,,,584,,response,,,,99,,,,,,,Space,keypress(Space),,,,,,,,---- -- ----- -- ------ - ------- --- ----------<br>------------- ------ ------ ---- ---- ------- ----- -- ----<br>-------- ------- -- ---------- --- - --- ----- ----- ----<br>it's --- --- ----- --- ---- ---- ------- ----- ---- -------<br>--- --- -- ----- -- --- ---- -- --- ---- -- ------ ------<br>--- ----- -- ----,135623,135633,135049,135029,135065,135665,,28,it's
screen,html.Screen,1_1_0_1_29,2021-04-18T11:52:52.355Z,,,,,,,,,,,,,,,,53,,,,,,,,,,,,,,379,,response,,,,99,,,,,,,Space,keypress(Space),,,,,,,,---- -- ----- -- ------ - ------- --- ----------<br>------------- ------ ------ ---- ---- ------- ----- -- ----<br>-------- ------- -- ---------- --- - --- ----- ----- ----<br>---- not --- ----- --- ---- ---- ------- ----- ---- -------<br>--- --- -- ----- -- --- ---- -- --- ---- -- ------ ------<br>--- ----- -- ----,136018,136028,135649,135623,135665,136049,,29,not
screen,html.Screen,1_1_0_1_30,2021-04-18T11:52:52.861Z,,,,,,,,,,,,,,,,53,,,,,,,,,,,,,,501.0000000000291,,response,,,,99,,,,,,,Space,keypress(Space),,,,,,,,---- -- ----- -- ------ - ------- --- ----------<br>------------- ------ ------ ---- ---- ------- ----- -- ----<br>-------- ------- -- ---------- --- - --- ----- ----- ----<br>---- --- how ----- --- ---- ---- ------- ----- ---- -------<br>--- --- -- ----- -- --- ---- -- --- ---- -- ------ ------<br>--- ----- -- ----,136523,136533.00000000003,136032,136018,136049,136566,,30,how
screen,html.Screen,1_1_0_1_31,2021-04-18T11:52:53.484Z,,,,,,,,,,,,,,,,53,,,,,,,,,,,,,,607,,response,,,,99,,,,,,,Space,keypress(Space),,,,,,,,---- -- ----- -- ------ - ------- --- ----------<br>------------- ------ ------ ---- ---- ------- ----- -- ----<br>-------- ------- -- ---------- --- - --- ----- ----- ----<br>---- --- --- close --- ---- ---- ------- ----- ---- -------<br>--- --- -- ----- -- --- ---- -- --- ---- -- ------ ------<br>--- ----- -- ----,137146.00000000003,137156,136549,136524,136566,137182,,31,close
screen,html.Screen,1_1_0_1_32,2021-04-18T11:52:53.963Z,,,,,,,,,,,,,,,,53,,,,,,,,,,,,,,469,,response,,,,99,,,,,,,Space,keypress(Space),,,,,,,,---- -- ----- -- ------ - ------- --- ----------<br>------------- ------ ------ ---- ---- ------- ----- -- ----<br>-------- ------- -- ---------- --- - --- ----- ----- ----<br>---- --- --- ----- you ---- ---- ------- ----- ---- -------<br>--- --- -- ----- -- --- ---- -- --- ---- -- ------ ------<br>--- ----- -- ----,137625,137635,137166,137147,137182,137653,,32,you
screen,html.Screen,1_1_0_1_33,2021-04-18T11:52:54.378Z,,,,,,,,,,,,,,,,53,,,,,,,,,,,,,,414,,response,,,,99,,,,,,,Space,keypress(Space),,,,,,,,---- -- ----- -- ------ - ------- --- ----------<br>------------- ------ ------ ---- ---- ------- ----- -- ----<br>-------- ------- -- ---------- --- - --- ----- ----- ----<br>---- --- --- ----- --- feel ---- ------- ----- ---- -------<br>--- --- -- ----- -- --- ---- -- --- ---- -- ------ ------<br>--- ----- -- ----,138041,138050,137636,137625,137653,138069,,33,feel
screen,html.Screen,1_1_0_1_34,2021-04-18T11:52:54.797Z,,,,,,,,,,,,,,,,53,,,,,,,,,,,,,,417,,response,,,,99,,,,,,,Space,keypress(Space),,,,,,,,---- -- ----- -- ------ - ------- --- ----------<br>------------- ------ ------ ---- ---- ------- ----- -- ----<br>-------- ------- -- ---------- --- - --- ----- ----- ----<br>---- --- --- ----- --- ---- that ------- ----- ---- -------<br>--- --- -- ----- -- --- ---- -- --- ---- -- ------ ------<br>--- ----- -- ----,138459,138469,138052,138041,138069,138486,,34,that
screen,html.Screen,1_1_0_1_35,2021-04-18T11:52:55.224Z,,,,,,,,,,,,,,,,53,,,,,,,,,,,,,,427.0000000000291,,response,,,,99,,,,,,,Space,keypress(Space),,,,,,,,---- -- ----- -- ------ - ------- --- ----------<br>------------- ------ ------ ---- ---- ------- ----- -- ----<br>-------- ------- -- ---------- --- - --- ----- ----- ----<br>---- --- --- ----- --- ---- ---- matters ----- ---- -------<br>--- --- -- ----- -- --- ---- -- --- ---- -- ------ ------<br>--- ----- -- ----,138886,138896.00000000003,138469,138459,138486,138920,,35,matters
screen,html.Screen,1_1_0_1_36,2021-04-18T11:52:55.732Z,,,,,,,,,,,,,,,,53,,,,,,,,,,,,,,502,,response,,,,99,,,,,,,Space,keypress(Space),,,,,,,,"---- -- ----- -- ------ - ------- --- ----------<br>------------- ------ ------ ---- ---- ------- ----- -- ----<br>-------- ------- -- ---------- --- - --- ----- ----- ----<br>---- --- --- ----- --- ---- ---- ------- most, ---- -------<br>--- --- -- ----- -- --- ---- -- --- ---- -- ------ ------<br>--- ----- -- ----",139395,139404,138902,138887,138920,139436,,36,"most,"
screen,html.Screen,1_1_0_1_37,2021-04-18T11:52:56.535Z,,,,,,,,,,,,,,,,53,,,,,,,,,,,,,,788,,response,,,,99,,,,,,,Space,keypress(Space),,,,,,,,---- -- ----- -- ------ - ------- --- ----------<br>------------- ------ ------ ---- ---- ------- ----- -- ----<br>-------- ------- -- ---------- --- - --- ----- ----- ----<br>---- --- --- ----- --- ---- ---- ------- ----- it's -------<br>--- --- -- ----- -- --- ---- -- --- ---- -- ------ ------<br>--- ----- -- ----,140198,140208,139420,139395,139436,140236,,37,it's
screen,html.Screen,1_1_0_1_38,2021-04-18T11:52:57.075Z,,,,,,,,,,,,,,,,53,,,,,,,,,,,,,,527,,response,,,,99,,,,,,,Space,keypress(Space),,,,,,,,---- -- ----- -- ------ - ------- --- ----------<br>------------- ------ ------ ---- ---- ------- ----- -- ----<br>-------- ------- -- ---------- --- - --- ----- ----- ----<br>---- --- --- ----- --- ---- ---- ------- ----- ---- whether<br>--- --- -- ----- -- --- ---- -- --- ---- -- ------ ------<br>--- ----- -- ----,140737,140747,140220,140198,140236,140769,,38,whether
screen,html.Screen,1_1_0_1_39,2021-04-18T11:52:57.600Z,,,,,,,,,,,,,,,,53,,,,,,,,,,,,,,519,,response,,,,99,,,,,,,Space,keypress(Space),,,,,,,,---- -- ----- -- ------ - ------- --- ----------<br>------------- ------ ------ ---- ---- ------- ----- -- ----<br>-------- ------- -- ---------- --- - --- ----- ----- ----<br>---- --- --- ----- --- ---- ---- ------- ----- ---- -------<br>you --- -- ----- -- --- ---- -- --- ---- -- ------ ------<br>--- ----- -- ----,141263,141272,140753,140738,140769,141302,,39,you
screen,html.Screen,1_1_0_1_40,2021-04-18T11:52:58.020Z,,,,,,,,,,,,,,,,53,,,,,,,,,,,,,,407,,response,,,,99,,,,,,,Space,keypress(Space),,,,,,,,---- -- ----- -- ------ - ------- --- ----------<br>------------- ------ ------ ---- ---- ------- ----- -- ----<br>-------- ------- -- ---------- --- - --- ----- ----- ----<br>---- --- --- ----- --- ---- ---- ------- ----- ---- -------<br>--- are -- ----- -- --- ---- -- --- ---- -- ------ ------<br>--- ----- -- ----,141683,141693,141286,141263,141302,141720,,40,are
screen,html.Screen,1_1_0_1_41,2021-04-18T11:52:58.544Z,,,,,,,,,,,,,,,,53,,,,,,,,,,,,,,514,,response,,,,99,,,,,,,Space,keypress(Space),,,,,,,,---- -- ----- -- ------ - ------- --- ----------<br>------------- ------ ------ ---- ---- ------- ----- -- ----<br>-------- ------- -- ---------- --- - --- ----- ----- ----<br>---- --- --- ----- --- ---- ---- ------- ----- ---- -------<br>--- --- as ----- -- --- ---- -- --- ---- -- ------ ------<br>--- ----- -- ----,142207,142216,141702,141683,141720,142236,,41,as
screen,html.Screen,1_1_0_1_42,2021-04-18T11:52:58.918Z,,,,,,,,,,,,,,,,53,,,,,,,,,,,,,,371,,response,,,,99,,,,,,,Space,keypress(Space),,,,,,,,---- -- ----- -- ------ - ------- --- ----------<br>------------- ------ ------ ---- ---- ------- ----- -- ----<br>-------- ------- -- ---------- --- - --- ----- ----- ----<br>---- --- --- ----- --- ---- ---- ------- ----- ---- -------<br>--- --- -- close -- --- ---- -- --- ---- -- ------ ------<br>--- ----- -- ----,142581,142591,142220,142207,142236,142608,,42,close
screen,html.Screen,1_1_0_1_43,2021-04-18T11:52:59.326Z,,,,,,,,,,,,,,,,53,,,,,,,,,,,,,,409,,response,,,,99,,,,,,,Space,keypress(Space),,,,,,,,---- -- ----- -- ------ - ------- --- ----------<br>------------- ------ ------ ---- ---- ------- ----- -- ----<br>-------- ------- -- ---------- --- - --- ----- ----- ----<br>---- --- --- ----- --- ---- ---- ------- ----- ---- -------<br>--- --- -- ----- as --- ---- -- --- ---- -- ------ ------<br>--- ----- -- ----,142989,142999,142590,142581,142608,143024,,43,as
screen,html.Screen,1_1_0_1_44,2021-04-18T11:52:59.684Z,,,,,,,,,,,,,,,,53,,,,,,,,,,,,,,349,,response,,,,99,,,,,,,Space,keypress(Space),,,,,,,,---- -- ----- -- ------ - ------- --- ----------<br>------------- ------ ------ ---- ---- ------- ----- -- ----<br>-------- ------- -- ---------- --- - --- ----- ----- ----<br>---- --- --- ----- --- ---- ---- ------- ----- ---- -------<br>--- --- -- ----- -- you ---- -- --- ---- -- ------ ------<br>--- ----- -- ----,143347,143357,143008,142989,143024,143374,,44,you
screen,html.Screen,1_1_0_1_45,2021-04-18T11:53:00.135Z,,,,,,,,,,,,,,,,53,,,,,,,,,,,,,,449.0000000000291,,response,,,,99,,,,,,,Space,keypress(Space),,,,,,,,---- -- ----- -- ------ - ------- --- ----------<br>------------- ------ ------ ---- ---- ------- ----- -- ----<br>-------- ------- -- ---------- --- - --- ----- ----- ----<br>---- --- --- ----- --- ---- ---- ------- ----- ---- -------<br>--- --- -- ----- -- --- want -- --- ---- -- ------ ------<br>--- ----- -- ----,143797,143807.00000000003,143358,143347,143374,143841,,45,want
screen,html.Screen,1_1_0_1_46,2021-04-18T11:53:00.529Z,,,,,,,,,,,,,,,,53,,,,,,,,,,,,,,378,,response,,,,99,,,,,,,Space,keypress(Space),,,,,,,,---- -- ----- -- ------ - ------- --- ----------<br>------------- ------ ------ ---- ---- ------- ----- -- ----<br>-------- ------- -- ---------- --- - --- ----- ----- ----<br>---- --- --- ----- --- ---- ---- ------- ----- ---- -------<br>--- --- -- ----- -- --- ---- to --- ---- -- ------ ------<br>--- ----- -- ----,144192,144202,143824,143798,143841,144224,,46,to
screen,html.Screen,1_1_0_1_47,2021-04-18T11:53:00.951Z,,,,,,,,,,,,,,,,53,,,,,,,,,,,,,,416,,response,,,,99,,,,,,,Space,keypress(Space),,,,,,,,"---- -- ----- -- ------ - ------- --- ----------<br>------------- ------ ------ ---- ---- ------- ----- -- ----<br>-------- ------- -- ---------- --- - --- ----- ----- ----<br>---- --- --- ----- --- ---- ---- ------- ----- ---- -------<br>--- --- -- ----- -- --- ---- -- be, ---- -- ------ ------<br>--- ----- -- ----",144614,144624,144208,144192,144224,144657,,47,"be,"
screen,html.Screen,1_1_0_1_48,2021-04-18T11:53:01.624Z,,,,,,,,,,,,,,,,53,,,,,,,,,,,,,,656,,response,,,,99,,,,,,,Space,keypress(Space),,,,,,,,---- -- ----- -- ------ - ------- --- ----------<br>------------- ------ ------ ---- ---- ------- ----- -- ----<br>-------- ------- -- ---------- --- - --- ----- ----- ----<br>---- --- --- ----- --- ---- ---- ------- ----- ---- -------<br>--- --- -- ----- -- --- ---- -- --- even -- ------ ------<br>--- ----- -- ----,145287,145297,144641,144614,144657,145324,,48,even
screen,html.Screen,1_1_0_1_49,2021-04-18T11:53:02.027Z,,,,,,,,,,,,,,,,53,,,,,,,,,,,,,,392.0000000000291,,response,,,,99,,,,,,,Space,keypress(Space),,,,,,,,---- -- ----- -- ------ - ------- --- ----------<br>------------- ------ ------ ---- ---- ------- ----- -- ----<br>-------- ------- -- ---------- --- - --- ----- ----- ----<br>---- --- --- ----- --- ---- ---- ------- ----- ---- -------<br>--- --- -- ----- -- --- ---- -- --- ---- if ------ ------<br>--- ----- -- ----,145690,145700.00000000003,145308,145287,145324,145724,,49,if
screen,html.Screen,1_1_0_1_50,2021-04-18T11:53:02.410Z,,,,,,,,,,,,,,,,53,,,,,,,,,,,,,,374,,response,,,,99,,,,,,,Space,keypress(Space),,,,,,,,---- -- ----- -- ------ - ------- --- ----------<br>------------- ------ ------ ---- ---- ------- ----- -- ----<br>-------- ------- -- ---------- --- - --- ----- ----- ----<br>---- --- --- ----- --- ---- ---- ------- ----- ---- -------<br>--- --- -- ----- -- --- ---- -- --- ---- -- that's ------<br>--- ----- -- ----,146072,146082,145708,145690,145724,146091,,50,that's
screen,html.Screen,1_1_0_1_51,2021-04-18T11:53:02.938Z,,,,,,,,,,,,,,,,53,,,,,,,,,,,,,,537,,response,,,,99,,,,,,,Space,keypress(Space),,,,,,,,---- -- ----- -- ------ - ------- --- ----------<br>------------- ------ ------ ---- ---- ------- ----- -- ----<br>-------- ------- -- ---------- --- - --- ----- ----- ----<br>---- --- --- ----- --- ---- ---- ------- ----- ---- -------<br>--- --- -- ----- -- --- ---- -- --- ---- -- ------ really<br>--- ----- -- ----,146601,146611,146074,146073,146091,146641,,51,really
screen,html.Screen,1_1_0_1_52,2021-04-18T11:53:03.319Z,,,,,,,,,,,,,,,,53,,,,,,,,,,,,,,368,,response,,,,99,,,,,,,Space,keypress(Space),,,,,,,,---- -- ----- -- ------ - ------- --- ----------<br>------------- ------ ------ ---- ---- ------- ----- -- ----<br>-------- ------- -- ---------- --- - --- ----- ----- ----<br>---- --- --- ----- --- ---- ---- ------- ----- ---- -------<br>--- --- -- ----- -- --- ---- -- --- ---- -- ------ ------<br>not ----- -- ----,146982,146992,146624,146601,146641,147008,,52,not
screen,html.Screen,1_1_0_1_53,2021-04-18T11:53:03.669Z,,,,,,,,,,,,,,,,53,,,,,,,,,,,,,,351,,response,,,,99,,,,,,,Space,keypress(Space),,,,,,,,---- -- ----- -- ------ - ------- --- ----------<br>------------- ------ ------ ---- ---- ------- ----- -- ----<br>-------- ------- -- ---------- --- - --- ----- ----- ----<br>---- --- --- ----- --- ---- ---- ------- ----- ---- -------<br>--- --- -- ----- -- --- ---- -- --- ---- -- ------ ------<br>--- close -- ----,147332,147341,146990,146982,147008,147358,,53,close
screen,html.Screen,1_1_0_1_54,2021-04-18T11:53:04.049Z,,,,,,,,,,,,,,,,53,,,,,,,,,,,,,,381,,response,,,,99,,,,,,,Space,keypress(Space),,,,,,,,---- -- ----- -- ------ - ------- --- ----------<br>------------- ------ ------ ---- ---- ------- ----- -- ----<br>-------- ------- -- ---------- --- - --- ----- ----- ----<br>---- --- --- ----- --- ---- ---- ------- ----- ---- -------<br>--- --- -- ----- -- --- ---- -- --- ---- -- ------ ------<br>--- ----- at ----,147712,147722,147341,147332,147358,147745,,54,at
screen,html.Screen,1_1_0_1_55,2021-04-18T11:53:04.567Z,,,,,,,,,,,,,,,,53,,,,,,,,,,,,,,512,,response,,,,99,,,,,,,Space,keypress(Space),,,,,,,,---- -- ----- -- ------ - ------- --- ----------<br>------------- ------ ------ ---- ---- ------- ----- -- ----<br>-------- ------- -- ---------- --- - --- ----- ----- ----<br>---- --- --- ----- --- ---- ---- ------- ----- ---- -------<br>--- --- -- ----- -- --- ---- -- --- ---- -- ------ ------<br>--- ----- -- all.,148230,148240,147728,147712,147745,148262,,55,all.
Item 99,flow.Loop,1_1_0_1,2021-04-18T11:53:04.567Z,,,,,,,,,,,,,,,,,,,,,,,,,,,,,,31473,,completion,,,,,E,,,,,,,,,,,silence,,,,,148230,148240,116737,116737.00000000001,116767,148262,,,
Question 1,html.Screen,1_1_0_2,2021-04-18T11:53:08.882Z,,,,,,,,,,,,,,,,,,,,,,,,,,,true,FALSE,,4295,,response,,,,99,E,,,,,,FALSE,click #choice-2,,,,silence,,,,,152545.00000000003,152541,148246,148230,148262,152579,,,
Question 2,html.Screen,1_1_0_3,2021-04-18T11:53:12.102Z,,,,,,,,,,,,,,,,,,,,,,,,,,,true,TRUE,,3215,,response,,,,99,E,,,,,,TRUE,click #choice-1,,,,silence,,,,,155765.00000000003,155776,152561,152545.00000000003,152579,155798,,,
Item 99,flow.Sequence,1_1_0,2021-04-18T11:53:12.103Z,,,,,,,,,,,,,,,,,,,,,,,,,,,,,,49029,,completion,,,,,,,,,,,,,,,,,,,,,155766,155776,106730,106720,106747,155798,,,
Holding screen,html.Screen,1_1_1_0,2021-04-18T11:53:22.112Z,,,,,,,,,,,,,,,,,,,,,,,,,,,,,,9994,,timeout,,,,,,,,,,,,,,,,,,,,,165775,165775,155781,155766,155798,165792,,,
screen,html.Screen,1_1_1_1_0,2021-04-18T11:53:23.266Z,,,,,,,,,,,,,,,,54,,,,,,,,,,,,,,1164,,response,,,,100,,,,,,,Space,keypress(Space),,,,,,,,At --- ---- --- ------ ----- ------- ---- -- --- ------- --<br>------- ---------- ------ -- ----- -- ----- -- ---- ------<br>--- ----- --- --- ------ -------- ----- --- ------ ----- --<br>----- ----- ---------- --- --- ------ ------ ---- -- ------<br>------- --- ------ ----- --- ---- ------- -- ---- --- --<br>------- ------,166929,166939,165775,165776,165792,166958,,0,At
screen,html.Screen,1_1_1_1_1,2021-04-18T11:53:23.705Z,,,,,,,,,,,,,,,,54,,,,,,,,,,,,,,436,,response,,,,100,,,,,,,Space,keypress(Space),,,,,,,,-- the ---- --- ------ ----- ------- ---- -- --- ------- --<br>------- ---------- ------ -- ----- -- ----- -- ---- ------<br>--- ----- --- --- ------ -------- ----- --- ------ ----- --<br>----- ----- ---------- --- --- ------ ------ ---- -- ------<br>------- --- ------ ----- --- ---- ------- -- ---- --- --<br>------- ------,167368,167378,166942,166930,166958,167408,,1,the
screen,html.Screen,1_1_1_1_2,2021-04-18T11:53:24.240Z,,,,,,,,,,,,,,,,54,,,,,,,,,,,,,,522.0000000000291,,response,,,,100,,,,,,,Space,keypress(Space),,,,,,,,-- --- time --- ------ ----- ------- ---- -- --- ------- --<br>------- ---------- ------ -- ----- -- ----- -- ---- ------<br>--- ----- --- --- ------ -------- ----- --- ------ ----- --<br>----- ----- ---------- --- --- ------ ------ ---- -- ------<br>------- --- ------ ----- --- ---- ------- -- ---- --- --<br>------- ------,167904,167914.00000000003,167392,167368,167408,167942,,2,time
screen,html.Screen,1_1_1_1_3,2021-04-18T11:53:24.630Z,,,,,,,,,,,,,,,,54,,,,,,,,,,,,,,379,,response,,,,100,,,,,,,Space,keypress(Space),,,,,,,,-- --- ---- the ------ ----- ------- ---- -- --- ------- --<br>------- ---------- ------ -- ----- -- ----- -- ---- ------<br>--- ----- --- --- ------ -------- ----- --- ------ ----- --<br>----- ----- ---------- --- --- ------ ------ ---- -- ------<br>------- --- ------ ----- --- ---- ------- -- ---- --- --<br>------- ------,168294,168304,167925,167904,167942,168312,,3,the
screen,html.Screen,1_1_1_1_4,2021-04-18T11:53:25.154Z,,,,,,,,,,,,,,,,54,,,,,,,,,,,,,,533,,response,,,,100,,,,,,,Space,keypress(Space),,,,,,,,-- --- ---- --- French ----- ------- ---- -- --- ------- --<br>------- ---------- ------ -- ----- -- ----- -- ---- ------<br>--- ----- --- --- ------ -------- ----- --- ------ ----- --<br>----- ----- ---------- --- --- ------ ------ ---- -- ------<br>------- --- ------ ----- --- ---- ------- -- ---- --- --<br>------- ------,168817,168828,168295,168294,168312,168846,,4,French
screen,html.Screen,1_1_1_1_5,2021-04-18T11:53:25.587Z,,,,,,,,,,,,,,,,54,,,,,,,,,,,,,,432,,response,,,,100,,,,,,,Space,keypress(Space),,,,,,,,-- --- ---- --- ------ crown ------- ---- -- --- ------- --<br>------- ---------- ------ -- ----- -- ----- -- ---- ------<br>--- ----- --- --- ------ -------- ----- --- ------ ----- --<br>----- ----- ---------- --- --- ------ ------ ---- -- ------<br>------- --- ------ ----- --- ---- ------- -- ---- --- --<br>------- ------,169250,169261,168829,168818,168846,169279,,5,crown
screen,html.Screen,1_1_1_1_6,2021-04-18T11:53:26.429Z,,,,,,,,,,,,,,,,54,,,,,,,,,,,,,,841,,response,,,,100,,,,,,,Space,keypress(Space),,,,,,,,-- --- ---- --- ------ ----- secured ---- -- --- ------- --<br>------- ---------- ------ -- ----- -- ----- -- ---- ------<br>--- ----- --- --- ------ -------- ----- --- ------ ----- --<br>----- ----- ---------- --- --- ------ ------ ---- -- ------<br>------- --- ------ ----- --- ---- ------- -- ---- --- --<br>------- ------,170093.00000000003,170103,169262,169251,169279,170128,,6,secured
screen,html.Screen,1_1_1_1_7,2021-04-18T11:53:26.895Z,,,,,,,,,,,,,,,,54,,,,,,,,,,,,,,457.0000000000291,,response,,,,100,,,,,,,Space,keypress(Space),,,,,,,,-- --- ---- --- ------ ----- ------- much -- --- ------- --<br>------- ---------- ------ -- ----- -- ----- -- ---- ------<br>--- ----- --- --- ------ -------- ----- --- ------ ----- --<br>----- ----- ---------- --- --- ------ ------ ---- -- ------<br>------- --- ------ ----- --- ---- ------- -- ---- --- --<br>------- ------,170558,170569.00000000003,170112,170093.00000000003,170128,170595,,7,much
screen,html.Screen,1_1_1_1_8,2021-04-18T11:53:27.318Z,,,,,,,,,,,,,,,,54,,,,,,,,,,,,,,413,,response,,,,100,,,,,,,Space,keypress(Space),,,,,,,,-- --- ---- --- ------ ----- ------- ---- of --- ------- --<br>------- ---------- ------ -- ----- -- ----- -- ---- ------<br>--- ----- --- --- ------ -------- ----- --- ------ ----- --<br>----- ----- ---------- --- --- ------ ------ ---- -- ------<br>------- --- ------ ----- --- ---- ------- -- ---- --- --<br>------- ------,170981,170992,170579,170559,170595,171012,,8,of
screen,html.Screen,1_1_1_1_9,2021-04-18T11:53:27.684Z,,,,,,,,,,,,,,,,54,,,,,,,,,,,,,,363,,response,,,,100,,,,,,,Space,keypress(Space),,,,,,,,-- --- ---- --- ------ ----- ------- ---- -- its ------- --<br>------- ---------- ------ -- ----- -- ----- -- ---- ------<br>--- ----- --- --- ------ -------- ----- --- ------ ----- --<br>----- ----- ---------- --- --- ------ ------ ---- -- ------<br>------- --- ------ ----- --- ---- ------- -- ---- --- --<br>------- ------,171348,171358,170995,170981,171012,171379,,9,its
screen,html.Screen,1_1_1_1_10,2021-04-18T11:53:29.093Z,,,,,,,,,,,,,,,,54,,,,,,,,,,,,,,1404,,response,,,,100,,,,,,,Space,keypress(Space),,,,,,,,-- --- ---- --- ------ ----- ------- ---- -- --- revenue --<br>------- ---------- ------ -- ----- -- ----- -- ---- ------<br>--- ----- --- --- ------ -------- ----- --- ------ ----- --<br>----- ----- ---------- --- --- ------ ------ ---- -- ------<br>------- --- ------ ----- --- ---- ------- -- ---- --- --<br>------- ------,172756,172766,171362,171348,171379,172795,,10,revenue
screen,html.Screen,1_1_1_1_11,2021-04-18T11:53:29.562Z,,,,,,,,,,,,,,,,54,,,,,,,,,,,,,,457,,response,,,,100,,,,,,,Space,keypress(Space),,,,,,,,-- --- ---- --- ------ ----- ------- ---- -- --- ------- by<br>------- ---------- ------ -- ----- -- ----- -- ---- ------<br>--- ----- --- --- ------ -------- ----- --- ------ ----- --<br>----- ----- ---------- --- --- ------ ------ ---- -- ------<br>------- --- ------ ----- --- ---- ------- -- ---- --- --<br>------- ------,173225,173236,172779,172756,172795,173262,,11,by
screen,html.Screen,1_1_1_1_12,2021-04-18T11:53:30.114Z,,,,,,,,,,,,,,,,54,,,,,,,,,,,,,,542,,response,,,,100,,,,,,,Space,keypress(Space),,,,,,,,-- --- ---- --- ------ ----- ------- ---- -- --- ------- --<br>issuing ---------- ------ -- ----- -- ----- -- ---- ------<br>--- ----- --- --- ------ -------- ----- --- ------ ----- --<br>----- ----- ---------- --- --- ------ ------ ---- -- ------<br>------- --- ------ ----- --- ---- ------- -- ---- --- --<br>------- ------,173777.00000000003,173788,173246,173225,173262,173816,,12,issuing
screen,html.Screen,1_1_1_1_13,2021-04-18T11:53:30.754Z,,,,,,,,,,,,,,,,54,,,,,,,,,,,,,,628,,response,,,,100,,,,,,,Space,keypress(Space),,,,,,,,-- --- ---- --- ------ ----- ------- ---- -- --- ------- --<br>------- government ------ -- ----- -- ----- -- ---- ------<br>--- ----- --- --- ------ -------- ----- --- ------ ----- --<br>----- ----- ---------- --- --- ------ ------ ---- -- ------<br>------- --- ------ ----- --- ---- ------- -- ---- --- --<br>------- ------,174417,174428,173800,173777.00000000003,173816,174450,,13,government
screen,html.Screen,1_1_1_1_14,2021-04-18T11:53:31.709Z,,,,,,,,,,,,,,,,54,,,,,,,,,,,,,,950,,response,,,,100,,,,,,,Space,keypress(Space),,,,,,,,-- --- ---- --- ------ ----- ------- ---- -- --- ------- --<br>------- ---------- bonds. -- ----- -- ----- -- ---- ------<br>--- ----- --- --- ------ -------- ----- --- ------ ----- --<br>----- ----- ---------- --- --- ------ ------ ---- -- ------<br>------- --- ------ ----- --- ---- ------- -- ---- --- --<br>------- ------,175372,175382,174432,174417,174450,175400,,14,bonds.
screen,html.Screen,1_1_1_1_15,2021-04-18T11:53:32.482Z,,,,,,,,,,,,,,,,54,,,,,,,,,,,,,,772,,response,,,,100,,,,,,,Space,keypress(Space),,,,,,,,-- --- ---- --- ------ ----- ------- ---- -- --- ------- --<br>------- ---------- ------ In ----- -- ----- -- ---- ------<br>--- ----- --- --- ------ -------- ----- --- ------ ----- --<br>----- ----- ---------- --- --- ------ ------ ---- -- ------<br>------- --- ------ ----- --- ---- ------- -- ---- --- --<br>------- ------,176145,176156,175384,175372,175400,176184,,15,In
screen,html.Screen,1_1_1_1_16,2021-04-18T11:53:33.765Z,,,,,,,,,,,,,,,,54,,,,,,,,,,,,,,1273,,response,,,,100,,,,,,,Space,keypress(Space),,,,,,,,"-- --- ---- --- ------ ----- ------- ---- -- --- ------- --<br>------- ---------- ------ -- 1727, -- ----- -- ---- ------<br>--- ----- --- --- ------ -------- ----- --- ------ ----- --<br>----- ----- ---------- --- --- ------ ------ ---- -- ------<br>------- --- ------ ----- --- ---- ------- -- ---- --- --<br>------- ------",177429,177439,176166,176145,176184,177467,,16,"1727,"
screen,html.Screen,1_1_1_1_17,2021-04-18T11:53:34.399Z,,,,,,,,,,,,,,,,54,,,,,,,,,,,,,,623,,response,,,,100,,,,,,,Space,keypress(Space),,,,,,,,-- --- ---- --- ------ ----- ------- ---- -- --- ------- --<br>------- ---------- ------ -- ----- in ----- -- ---- ------<br>--- ----- --- --- ------ -------- ----- --- ------ ----- --<br>----- ----- ---------- --- --- ------ ------ ---- -- ------<br>------- --- ------ ----- --- ---- ------- -- ---- --- --<br>------- ------,178062,178073,177450,177429,177467,178099,,17,in
screen,html.Screen,1_1_1_1_18,2021-04-18T11:53:34.866Z,,,,,,,,,,,,,,,,54,,,,,,,,,,,,,,457,,response,,,,100,,,,,,,Space,keypress(Space),,,,,,,,-- --- ---- --- ------ ----- ------- ---- -- --- ------- --<br>------- ---------- ------ -- ----- -- order -- ---- ------<br>--- ----- --- --- ------ -------- ----- --- ------ ----- --<br>----- ----- ---------- --- --- ------ ------ ---- -- ------<br>------- --- ------ ----- --- ---- ------- -- ---- --- --<br>------- ------,178529,178540,178083,178062,178099,178567,,18,order
screen,html.Screen,1_1_1_1_19,2021-04-18T11:53:35.309Z,,,,,,,,,,,,,,,,54,,,,,,,,,,,,,,433,,response,,,,100,,,,,,,Space,keypress(Space),,,,,,,,-- --- ---- --- ------ ----- ------- ---- -- --- ------- --<br>------- ---------- ------ -- ----- -- ----- to ---- ------<br>--- ----- --- --- ------ -------- ----- --- ------ ----- --<br>----- ----- ---------- --- --- ------ ------ ---- -- ------<br>------- --- ------ ----- --- ---- ------- -- ---- --- --<br>------- ------,178973,178983,178550,178529,178567,179004,,19,to
screen,html.Screen,1_1_1_1_20,2021-04-18T11:53:35.835Z,,,,,,,,,,,,,,,,54,,,,,,,,,,,,,,522,,response,,,,100,,,,,,,Space,keypress(Space),,,,,,,,-- --- ---- --- ------ ----- ------- ---- -- --- ------- --<br>------- ---------- ------ -- ----- -- ----- -- save ------<br>--- ----- --- --- ------ -------- ----- --- ------ ----- --<br>----- ----- ---------- --- --- ------ ------ ---- -- ------<br>------- --- ------ ----- --- ---- ------- -- ---- --- --<br>------- ------,179498,179509,178987,178973,179004,179538,,20,save
screen,html.Screen,1_1_1_1_21,2021-04-18T11:53:36.553Z,,,,,,,,,,,,,,,,54,,,,,,,,,,,,,,706,,response,,,,100,,,,,,,Space,keypress(Space),,,,,,,,"-- --- ---- --- ------ ----- ------- ---- -- --- ------- --<br>------- ---------- ------ -- ----- -- ----- -- ---- money,<br>--- ----- --- --- ------ -------- ----- --- ------ ----- --<br>----- ----- ---------- --- --- ------ ------ ---- -- ------<br>------- --- ------ ----- --- ---- ------- -- ---- --- --<br>------- ------",180216,180226,179520,179499,179538,180254,,21,"money,"
screen,html.Screen,1_1_1_1_22,2021-04-18T11:53:37.001Z,,,,,,,,,,,,,,,,54,,,,,,,,,,,,,,437,,response,,,,100,,,,,,,Space,keypress(Space),,,,,,,,-- --- ---- --- ------ ----- ------- ---- -- --- ------- --<br>------- ---------- ------ -- ----- -- ----- -- ---- ------<br>the ----- --- --- ------ -------- ----- --- ------ ----- --<br>----- ----- ---------- --- --- ------ ------ ---- -- ------<br>------- --- ------ ----- --- ---- ------- -- ---- --- --<br>------- ------,180664.00000000003,180675,180238,180216,180254,180704,,22,the
screen,html.Screen,1_1_1_1_23,2021-04-18T11:53:37.547Z,,,,,,,,,,,,,,,,54,,,,,,,,,,,,,,534,,response,,,,100,,,,,,,Space,keypress(Space),,,,,,,,-- --- ---- --- ------ ----- ------- ---- -- --- ------- --<br>------- ---------- ------ -- ----- -- ----- -- ---- ------<br>--- state --- --- ------ -------- ----- --- ------ ----- --<br>----- ----- ---------- --- --- ------ ------ ---- -- ------<br>------- --- ------ ----- --- ---- ------- -- ---- --- --<br>------- ------,181210,181221,180687,180665,180704,181238,,23,state
screen,html.Screen,1_1_1_1_24,2021-04-18T11:53:38.064Z,,,,,,,,,,,,,,,,54,,,,,,,,,,,,,,518,,response,,,,100,,,,,,,Space,keypress(Space),,,,,,,,-- --- ---- --- ------ ----- ------- ---- -- --- ------- --<br>------- ---------- ------ -- ----- -- ----- -- ---- ------<br>--- ----- cut --- ------ -------- ----- --- ------ ----- --<br>----- ----- ---------- --- --- ------ ------ ---- -- ------<br>------- --- ------ ----- --- ---- ------- -- ---- --- --<br>------- ------,181727,181738,181220,181211,181238,181754,,24,cut
screen,html.Screen,1_1_1_1_25,2021-04-18T11:53:38.480Z,,,,,,,,,,,,,,,,54,,,,,,,,,,,,,,416,,response,,,,100,,,,,,,Space,keypress(Space),,,,,,,,-- --- ---- --- ------ ----- ------- ---- -- --- ------- --<br>------- ---------- ------ -- ----- -- ----- -- ---- ------<br>--- ----- --- the ------ -------- ----- --- ------ ----- --<br>----- ----- ---------- --- --- ------ ------ ---- -- ------<br>------- --- ------ ----- --- ---- ------- -- ---- --- --<br>------- ------,182143,182154,181738,181728,181754,182171,,25,the
screen,html.Screen,1_1_1_1_26,2021-04-18T11:53:38.983Z,,,,,,,,,,,,,,,,54,,,,,,,,,,,,,,504,,response,,,,100,,,,,,,Space,keypress(Space),,,,,,,,-- --- ---- --- ------ ----- ------- ---- -- --- ------- --<br>------- ---------- ------ -- ----- -- ----- -- ---- ------<br>--- ----- --- --- bonds' -------- ----- --- ------ ----- --<br>----- ----- ---------- --- --- ------ ------ ---- -- ------<br>------- --- ------ ----- --- ---- ------- -- ---- --- --<br>------- ------,182646.00000000003,182657,182153,182144,182171,182688,,26,bonds'
screen,html.Screen,1_1_1_1_27,2021-04-18T11:53:39.493Z,,,,,,,,,,,,,,,,54,,,,,,,,,,,,,,497,,response,,,,100,,,,,,,Space,keypress(Space),,,,,,,,-- --- ---- --- ------ ----- ------- ---- -- --- ------- --<br>------- ---------- ------ -- ----- -- ----- -- ---- ------<br>--- ----- --- --- ------ interest ----- --- ------ ----- --<br>----- ----- ---------- --- --- ------ ------ ---- -- ------<br>------- --- ------ ----- --- ---- ------- -- ---- --- --<br>------- ------,183157,183168,182671,182646.00000000003,182688,183187,,27,interest
screen,html.Screen,1_1_1_1_28,2021-04-18T11:53:40.301Z,,,,,,,,,,,,,,,,54,,,,,,,,,,,,,,804,,response,,,,100,,,,,,,Space,keypress(Space),,,,,,,,-- --- ---- --- ------ ----- ------- ---- -- --- ------- --<br>------- ---------- ------ -- ----- -- ----- -- ---- ------<br>--- ----- --- --- ------ -------- rate. --- ------ ----- --<br>----- ----- ---------- --- --- ------ ------ ---- -- ------<br>------- --- ------ ----- --- ---- ------- -- ---- --- --<br>------- ------,183965,183975,183171,183157,183187,184004,,28,rate.
screen,html.Screen,1_1_1_1_29,2021-04-18T11:53:40.865Z,,,,,,,,,,,,,,,,54,,,,,,,,,,,,,,552.0000000000291,,response,,,,100,,,,,,,Space,keypress(Space),,,,,,,,-- --- ---- --- ------ ----- ------- ---- -- --- ------- --<br>------- ---------- ------ -- ----- -- ----- -- ---- ------<br>--- ----- --- --- ------ -------- ----- The ------ ----- --<br>----- ----- ---------- --- --- ------ ------ ---- -- ------<br>------- --- ------ ----- --- ---- ------- -- ---- --- --<br>------- ------,184528,184539.00000000003,183987,183965,184004,184558,,29,The
screen,html.Screen,1_1_1_1_30,2021-04-18T11:53:41.362Z,,,,,,,,,,,,,,,,54,,,,,,,,,,,,,,496,,response,,,,100,,,,,,,Space,keypress(Space),,,,,,,,-- --- ---- --- ------ ----- ------- ---- -- --- ------- --<br>------- ---------- ------ -- ----- -- ----- -- ---- ------<br>--- ----- --- --- ------ -------- ----- --- market ----- --<br>----- ----- ---------- --- --- ------ ------ ---- -- ------<br>------- --- ------ ----- --- ---- ------- -- ---- --- --<br>------- ------,185026,185037,184541,184528,184558,185059,,30,market
screen,html.Screen,1_1_1_1_31,2021-04-18T11:53:41.798Z,,,,,,,,,,,,,,,,54,,,,,,,,,,,,,,431,,response,,,,100,,,,,,,Space,keypress(Space),,,,,,,,-- --- ---- --- ------ ----- ------- ---- -- --- ------- --<br>------- ---------- ------ -- ----- -- ----- -- ---- ------<br>--- ----- --- --- ------ -------- ----- --- ------ value --<br>----- ----- ---------- --- --- ------ ------ ---- -- ------<br>------- --- ------ ----- --- ---- ------- -- ---- --- --<br>------- ------,185462.00000000003,185473,185042,185026,185059,185491,,31,value
screen,html.Screen,1_1_1_1_32,2021-04-18T11:53:42.299Z,,,,,,,,,,,,,,,,54,,,,,,,,,,,,,,498,,response,,,,100,,,,,,,Space,keypress(Space),,,,,,,,-- --- ---- --- ------ ----- ------- ---- -- --- ------- --<br>------- ---------- ------ -- ----- -- ----- -- ---- ------<br>--- ----- --- --- ------ -------- ----- --- ------ ----- of<br>----- ----- ---------- --- --- ------ ------ ---- -- ------<br>------- --- ------ ----- --- ---- ------- -- ---- --- --<br>------- ------,185962.00000000003,185973,185475,185462.00000000003,185491,185992,,32,of
screen,html.Screen,1_1_1_1_33,2021-04-18T11:53:42.713Z,,,,,,,,,,,,,,,,54,,,,,,,,,,,,,,413,,response,,,,100,,,,,,,Space,keypress(Space),,,,,,,,-- --- ---- --- ------ ----- ------- ---- -- --- ------- --<br>------- ---------- ------ -- ----- -- ----- -- ---- ------<br>--- ----- --- --- ------ -------- ----- --- ------ ----- --<br>these ----- ---------- --- --- ------ ------ ---- -- ------<br>------- --- ------ ----- --- ---- ------- -- ---- --- --<br>------- ------,186377,186388,185975,185962.00000000003,185992,186408,,33,these
screen,html.Screen,1_1_1_1_34,2021-04-18T11:53:43.151Z,,,,,,,,,,,,,,,,54,,,,,,,,,,,,,,434,,response,,,,100,,,,,,,Space,keypress(Space),,,,,,,,-- --- ---- --- ------ ----- ------- ---- -- --- ------- --<br>------- ---------- ------ -- ----- -- ----- -- ---- ------<br>--- ----- --- --- ------ -------- ----- --- ------ ----- --<br>----- bonds ---------- --- --- ------ ------ ---- -- ------<br>------- --- ------ ----- --- ---- ------- -- ---- --- --<br>------- ------,186815,186826,186392,186377,186408,186842,,34,bonds
screen,html.Screen,1_1_1_1_35,2021-04-18T11:53:43.794Z,,,,,,,,,,,,,,,,54,,,,,,,,,,,,,,644.0000000000291,,response,,,,100,,,,,,,Space,keypress(Space),,,,,,,,"-- --- ---- --- ------ ----- ------- ---- -- --- ------- --<br>------- ---------- ------ -- ----- -- ----- -- ---- ------<br>--- ----- --- --- ------ -------- ----- --- ------ ----- --<br>----- ----- plummeted, --- --- ------ ------ ---- -- ------<br>------- --- ------ ----- --- ---- ------- -- ---- --- --<br>------- ------",187457,187468.00000000003,186824,186815,186842,187492,,35,"plummeted,"
screen,html.Screen,1_1_1_1_36,2021-04-18T11:53:44.218Z,,,,,,,,,,,,,,,,54,,,,,,,,,,,,,,418,,response,,,,100,,,,,,,Space,keypress(Space),,,,,,,,-- --- ---- --- ------ ----- ------- ---- -- --- ------- --<br>------- ---------- ------ -- ----- -- ----- -- ---- ------<br>--- ----- --- --- ------ -------- ----- --- ------ ----- --<br>----- ----- ---------- and --- ------ ------ ---- -- ------<br>------- --- ------ ----- --- ---- ------- -- ---- --- --<br>------- ------,187882,187893,187475,187458,187492,187925,,36,and
screen,html.Screen,1_1_1_1_37,2021-04-18T11:53:44.678Z,,,,,,,,,,,,,,,,54,,,,,,,,,,,,,,444,,response,,,,100,,,,,,,Space,keypress(Space),,,,,,,,-- --- ---- --- ------ ----- ------- ---- -- --- ------- --<br>------- ---------- ------ -- ----- -- ----- -- ---- ------<br>--- ----- --- --- ------ -------- ----- --- ------ ----- --<br>----- ----- ---------- --- the ------ ------ ---- -- ------<br>------- --- ------ ----- --- ---- ------- -- ---- --- --<br>------- ------,188342,188353,187909,187882,187925,188375,,37,the
screen,html.Screen,1_1_1_1_38,2021-04-18T11:53:45.121Z,,,,,,,,,,,,,,,,54,,,,,,,,,,,,,,437,,response,,,,100,,,,,,,Space,keypress(Space),,,,,,,,-- --- ---- --- ------ ----- ------- ---- -- --- ------- --<br>------- ---------- ------ -- ----- -- ----- -- ---- ------<br>--- ----- --- --- ------ -------- ----- --- ------ ----- --<br>----- ----- ---------- --- --- market ------ ---- -- ------<br>------- --- ------ ----- --- ---- ------- -- ---- --- --<br>------- ------,188785,188796,188359,188342,188375,188825,,38,market
screen,html.Screen,1_1_1_1_39,2021-04-18T11:53:45.598Z,,,,,,,,,,,,,,,,54,,,,,,,,,,,,,,464,,response,,,,100,,,,,,,Space,keypress(Space),,,,,,,,-- --- ---- --- ------ ----- ------- ---- -- --- ------- --<br>------- ---------- ------ -- ----- -- ----- -- ---- ------<br>--- ----- --- --- ------ -------- ----- --- ------ ----- --<br>----- ----- ---------- --- --- ------ became ---- -- ------<br>------- --- ------ ----- --- ---- ------- -- ---- --- --<br>------- ------,189261,189272,188808,188785,188825,189292,,39,became
screen,html.Screen,1_1_1_1_40,2021-04-18T11:53:46.013Z,,,,,,,,,,,,,,,,54,,,,,,,,,,,,,,413.0000000000291,,response,,,,100,,,,,,,Space,keypress(Space),,,,,,,,-- --- ---- --- ------ ----- ------- ---- -- --- ------- --<br>------- ---------- ------ -- ----- -- ----- -- ---- ------<br>--- ----- --- --- ------ -------- ----- --- ------ ----- --<br>----- ----- ---------- --- --- ------ ------ wary -- ------<br>------- --- ------ ----- --- ---- ------- -- ---- --- --<br>------- ------,189677,189688.00000000003,189275,189261,189292,189712,,40,wary
screen,html.Screen,1_1_1_1_41,2021-04-18T11:53:46.457Z,,,,,,,,,,,,,,,,54,,,,,,,,,,,,,,435,,response,,,,100,,,,,,,Space,keypress(Space),,,,,,,,-- --- ---- --- ------ ----- ------- ---- -- --- ------- --<br>------- ---------- ------ -- ----- -- ----- -- ---- ------<br>--- ----- --- --- ------ -------- ----- --- ------ ----- --<br>----- ----- ---------- --- --- ------ ------ ---- of ------<br>------- --- ------ ----- --- ---- ------- -- ---- --- --<br>------- ------,190120,190131,189696,189677,189712,190163,,41,of
screen,html.Screen,1_1_1_1_42,2021-04-18T11:53:46.928Z,,,,,,,,,,,,,,,,54,,,,,,,,,,,,,,457,,response,,,,100,,,,,,,Space,keypress(Space),,,,,,,,-- --- ---- --- ------ ----- ------- ---- -- --- ------- --<br>------- ---------- ------ -- ----- -- ----- -- ---- ------<br>--- ----- --- --- ------ -------- ----- --- ------ ----- --<br>----- ----- ---------- --- --- ------ ------ ---- -- French<br>------- --- ------ ----- --- ---- ------- -- ---- --- --<br>------- ------,190592,190603,190146,190120,190163,190629,,42,French
screen,html.Screen,1_1_1_1_43,2021-04-18T11:53:47.700Z,,,,,,,,,,,,,,,,54,,,,,,,,,,,,,,761,,response,,,,100,,,,,,,Space,keypress(Space),,,,,,,,-- --- ---- --- ------ ----- ------- ---- -- --- ------- --<br>------- ---------- ------ -- ----- -- ----- -- ---- ------<br>--- ----- --- --- ------ -------- ----- --- ------ ----- --<br>----- ----- ---------- --- --- ------ ------ ---- -- ------<br>credit. --- ------ ----- --- ---- ------- -- ---- --- --<br>------- ------,191363,191374,190613,190592,190629,191396,,43,credit.
screen,html.Screen,1_1_1_1_44,2021-04-18T11:53:48.169Z,,,,,,,,,,,,,,,,54,,,,,,,,,,,,,,465,,response,,,,100,,,,,,,Space,keypress(Space),,,,,,,,-- --- ---- --- ------ ----- ------- ---- -- --- ------- --<br>------- ---------- ------ -- ----- -- ----- -- ---- ------<br>--- ----- --- --- ------ -------- ----- --- ------ ----- --<br>----- ----- ---------- --- --- ------ ------ ---- -- ------<br>------- The ------ ----- --- ---- ------- -- ---- --- --<br>------- ------,191833,191844,191379,191364,191396,191863,,44,The
screen,html.Screen,1_1_1_1_45,2021-04-18T11:53:48.772Z,,,,,,,,,,,,,,,,54,,,,,,,,,,,,,,602,,response,,,,100,,,,,,,Space,keypress(Space),,,,,,,,-- --- ---- --- ------ ----- ------- ---- -- --- ------- --<br>------- ---------- ------ -- ----- -- ----- -- ---- ------<br>--- ----- --- --- ------ -------- ----- --- ------ ----- --<br>----- ----- ---------- --- --- ------ ------ ---- -- ------<br>------- --- French ----- --- ---- ------- -- ---- --- --<br>------- ------,192436,192447,191845,191833,191863,192479,,45,French
screen,html.Screen,1_1_1_1_46,2021-04-18T11:53:49.276Z,,,,,,,,,,,,,,,,54,,,,,,,,,,,,,,488,,response,,,,100,,,,,,,Space,keypress(Space),,,,,,,,-- --- ---- --- ------ ----- ------- ---- -- --- ------- --<br>------- ---------- ------ -- ----- -- ----- -- ---- ------<br>--- ----- --- --- ------ -------- ----- --- ------ ----- --<br>----- ----- ---------- --- --- ------ ------ ---- -- ------<br>------- --- ------ state --- ---- ------- -- ---- --- --<br>------- ------,192940,192951,192463,192436,192479,192979,,46,state
screen,html.Screen,1_1_1_1_47,2021-04-18T11:53:49.704Z,,,,,,,,,,,,,,,,54,,,,,,,,,,,,,,415,,response,,,,100,,,,,,,Space,keypress(Space),,,,,,,,-- --- ---- --- ------ ----- ------- ---- -- --- ------- --<br>------- ---------- ------ -- ----- -- ----- -- ---- ------<br>--- ----- --- --- ------ -------- ----- --- ------ ----- --<br>----- ----- ---------- --- --- ------ ------ ---- -- ------<br>------- --- ------ ----- was ---- ------- -- ---- --- --<br>------- ------,193367,193378,192963,192940,192979,193396,,47,was
screen,html.Screen,1_1_1_1_48,2021-04-18T11:53:50.094Z,,,,,,,,,,,,,,,,54,,,,,,,,,,,,,,390,,response,,,,100,,,,,,,Space,keypress(Space),,,,,,,,-- --- ---- --- ------ ----- ------- ---- -- --- ------- --<br>------- ---------- ------ -- ----- -- ----- -- ---- ------<br>--- ----- --- --- ------ -------- ----- --- ------ ----- --<br>----- ----- ---------- --- --- ------ ------ ---- -- ------<br>------- --- ------ ----- --- left ------- -- ---- --- --<br>------- ------,193758,193769,193379,193367,193396,193796,,48,left
screen,html.Screen,1_1_1_1_49,2021-04-18T11:53:50.523Z,,,,,,,,,,,,,,,,54,,,,,,,,,,,,,,419,,response,,,,100,,,,,,,Space,keypress(Space),,,,,,,,-- --- ---- --- ------ ----- ------- ---- -- --- ------- --<br>------- ---------- ------ -- ----- -- ----- -- ---- ------<br>--- ----- --- --- ------ -------- ----- --- ------ ----- --<br>----- ----- ---------- --- --- ------ ------ ---- -- ------<br>------- --- ------ ----- --- ---- without -- ---- --- --<br>------- ------,194187,194198,193779,193758,193796,194229,,49,without
screen,html.Screen,1_1_1_1_50,2021-04-18T11:53:50.969Z,,,,,,,,,,,,,,,,54,,,,,,,,,,,,,,431,,response,,,,100,,,,,,,Space,keypress(Space),,,,,,,,-- --- ---- --- ------ ----- ------- ---- -- --- ------- --<br>------- ---------- ------ -- ----- -- ----- -- ---- ------<br>--- ----- --- --- ------ -------- ----- --- ------ ----- --<br>----- ----- ---------- --- --- ------ ------ ---- -- ------<br>------- --- ------ ----- --- ---- ------- an ---- --- --<br>------- ------,194632,194644,194213,194187,194229,194663,,50,an
screen,html.Screen,1_1_1_1_51,2021-04-18T11:53:51.364Z,,,,,,,,,,,,,,,,54,,,,,,,,,,,,,,393,,response,,,,100,,,,,,,Space,keypress(Space),,,,,,,,-- --- ---- --- ------ ----- ------- ---- -- --- ------- --<br>------- ---------- ------ -- ----- -- ----- -- ---- ------<br>--- ----- --- --- ------ -------- ----- --- ------ ----- --<br>----- ----- ---------- --- --- ------ ------ ---- -- ------<br>------- --- ------ ----- --- ---- ------- -- easy --- --<br>------- ------,195027.00000000003,195038,194645,194633,194663,195067,,51,easy
screen,html.Screen,1_1_1_1_52,2021-04-18T11:53:51.793Z,,,,,,,,,,,,,,,,54,,,,,,,,,,,,,,417.0000000000291,,response,,,,100,,,,,,,Space,keypress(Space),,,,,,,,-- --- ---- --- ------ ----- ------- ---- -- --- ------- --<br>------- ---------- ------ -- ----- -- ----- -- ---- ------<br>--- ----- --- --- ------ -------- ----- --- ------ ----- --<br>----- ----- ---------- --- --- ------ ------ ---- -- ------<br>------- --- ------ ----- --- ---- ------- -- ---- way --<br>------- ------,195456.00000000003,195468.00000000003,195051,195028,195067,195484,,52,way
screen,html.Screen,1_1_1_1_53,2021-04-18T11:53:52.186Z,,,,,,,,,,,,,,,,54,,,,,,,,,,,,,,394,,response,,,,100,,,,,,,Space,keypress(Space),,,,,,,,-- --- ---- --- ------ ----- ------- ---- -- --- ------- --<br>------- ---------- ------ -- ----- -- ----- -- ---- ------<br>--- ----- --- --- ------ -------- ----- --- ------ ----- --<br>----- ----- ---------- --- --- ------ ------ ---- -- ------<br>------- --- ------ ----- --- ---- ------- -- ---- --- of<br>------- ------,195850,195861,195467,195457,195484,195883,,53,of
screen,html.Screen,1_1_1_1_54,2021-04-18T11:53:52.592Z,,,,,,,,,,,,,,,,54,,,,,,,,,,,,,,400,,response,,,,100,,,,,,,Space,keypress(Space),,,,,,,,-- --- ---- --- ------ ----- ------- ---- -- --- ------- --<br>------- ---------- ------ -- ----- -- ----- -- ---- ------<br>--- ----- --- --- ------ -------- ----- --- ------ ----- --<br>----- ----- ---------- --- --- ------ ------ ---- -- ------<br>------- --- ------ ----- --- ---- ------- -- ---- --- --<br>raising ------,196256,196267,195867,195850,195883,196284,,54,raising
screen,html.Screen,1_1_1_1_55,2021-04-18T11:53:52.976Z,,,,,,,,,,,,,,,,54,,,,,,,,,,,,,,384,,response,,,,100,,,,,,,Space,keypress(Space),,,,,,,,-- --- ---- --- ------ ----- ------- ---- -- --- ------- --<br>------- ---------- ------ -- ----- -- ----- -- ---- ------<br>--- ----- --- --- ------ -------- ----- --- ------ ----- --<br>----- ----- ---------- --- --- ------ ------ ---- -- ------<br>------- --- ------ ----- --- ---- ------- -- ---- --- --<br>------- money.,196640.00000000003,196651,196267,196256,196284,196667,,55,money.
Item 100,flow.Loop,1_1_1_1,2021-04-18T11:53:52.976Z,,,,,,,,,,,,,,,,,,,,,,,,,,,,,,30859,,completion,,,,,E,,,,,,,,,,,silence,,,,,196640.00000000003,196651,165775,165776,165792,196667,,,
Question 1,html.Screen,1_1_1_2,2021-04-18T11:53:55.708Z,,,,,,,,,,,,,,,,,,,,,,,,,,,true,TRUE,,2733,,response,,,,100,E,,,,,,TRUE,click #choice-1,,,,silence,,,,,199372,199383,196650,196640.00000000003,196667,199400,,,
Question 2,html.Screen,1_1_1_3,2021-04-18T11:53:57.827Z,,,,,,,,,,,,,,,,,,,,,,,,,,,true,FALSE,,2119,,response,,,,100,E,,,,,,FALSE,click #choice-2,,,,silence,,,,,201491,201503,199384,199372,199400,201522,,,
Item 100,flow.Sequence,1_1_1,2021-04-18T11:53:57.827Z,,,,,,,,,,,,,,,,,,,,,,,,,,,,,,45705,,completion,,,,,,,,,,,,,,,,,,,,,201491,201503,155781,155766,155798,201522,,,
End of Practice,html.Page,1_1_2,2021-04-18T11:54:02.967Z,,,,,,,,,,,,,,,,,,,,,,,,,,,,,,5109,,form submission,,,,,,,,,,,,,,,,,,,,,206631,206631,201505,201491,201522,206658,,,
Practice,flow.Sequence,1_1,2021-04-18T11:54:02.967Z,,,,,,,,,,,,,,,,,,,,,,,,,,,,,,99884,,completion,,,,,,,,,,,,,,,,,,,,,206631,206631,106730,106720,106747,206658,,,
Trap_instruction,html.Page,1_2_0,2021-04-18T11:54:09.718Z,,,,,,,,,,,,,,,,,,,,,,,,,,,,,,6723,,form submission,,,,,,,,,,,,,,,,,,,,,213382,213381,206641,206631,206658,213402,,,
trap_trial,html.Screen,1_2_1,2021-04-18T11:54:13.677Z,,,,,,,,,,,,,,,,,,,,,,,,,,,true,1,,3957,,response,,,,,,,,,,,1,click #choice-1,,,,,,,,,217341,217354,213397,213382,213402,217384,,,
end of trap trial,html.Page,1_2_2,2021-04-18T11:54:16.539Z,,,,,,,,,,,,,,,,,,,,,,,,,,,,,,2819,,form submission,,,,,,,,,,,,,,,,,,,,,220204,220203,217373,217341,217384,220229,,,
Trap 1,flow.Sequence,1_2,2021-04-18T11:54:16.540Z,,,,,,,,,,,,,,,,,,,,,,,,,,,,,,13545,,completion,,,,,,,,,,,,,,,,,,,,,220204,220203,206641,206631,206658,220229,,,
Standby,html.Page,1_3_0,2021-04-18T11:54:24.549Z,,,,,,,,,,,,,,,,,,,,,,,,,,,,,,8000,,timeout,,,,,,,,,,,,,,,,,,,,,228213,228212,220212,220204,220229,228229,,,
Holding screen,html.Screen,1_3_1_0_0,2021-04-18T11:54:31.540Z,,,,,,,,,,,,,,,,,,,,,,,,,,,,,,6991,,timeout,,,,,,,,,,,,,,,,,,,,,235204,235204,228212,228213,228229,235220,,,
screen,html.Screen,1_3_1_0_1_0,2021-04-18T11:54:32.592Z,,,,,,,,,,,,,,,,48,,,,,,,,,,,,,,1063,,response,,,,10,E,,,,,,Space,keypress(Space),,,,lyrical,,,,As -- --- ------ ------- --------- ----------- --------<br>--------- -------- --- ------- -- ------- ---- -- ------<br>-- --- -------- -------- ---------- ---- ---- ---- ------<br>-- --------- -- ---- -- --- -- --- ------- -- - -----<br>---------- -- -- -- ---- ----- -- ------ -- --- ------<br>-------,236256,236267,235204,235205,235220,236287,,0,As
screen,html.Screen,1_3_1_0_1_1,2021-04-18T11:54:33.009Z,,,,,,,,,,,,,,,,48,,,,,,,,,,,,,,415,,response,,,,10,E,,,,,,Space,keypress(Space),,,,lyrical,,,,-- in --- ------ ------- --------- ----------- --------<br>--------- -------- --- ------- -- ------- ---- -- ------<br>-- --- -------- -------- ---------- ---- ---- ---- ------<br>-- --------- -- ---- -- --- -- --- ------- -- - -----<br>---------- -- -- -- ---- ----- -- ------ -- --- ------<br>-------,236674,236685,236270,236257,236287,236703,,1,in
screen,html.Screen,1_3_1_0_1_2,2021-04-18T11:54:33.392Z,,,,,,,,,,,,,,,,48,,,,,,,,,,,,,,381,,response,,,,10,E,,,,,,Space,keypress(Space),,,,lyrical,,,,-- -- the ------ ------- --------- ----------- --------<br>--------- -------- --- ------- -- ------- ---- -- ------<br>-- --- -------- -------- ---------- ---- ---- ---- ------<br>-- --------- -- ---- -- --- -- --- ------- -- - -----<br>---------- -- -- -- ---- ----- -- ------ -- --- ------<br>-------,237057.00000000003,237068,236687,236674,236703,237087,,2,the
screen,html.Screen,1_3_1_0_1_3,2021-04-18T11:54:33.996Z,,,,,,,,,,,,,,,,48,,,,,,,,,,,,,,602,,response,,,,10,E,,,,,,Space,keypress(Space),,,,lyrical,,,,-- -- --- United ------- --------- ----------- --------<br>--------- -------- --- ------- -- ------- ---- -- ------<br>-- --- -------- -------- ---------- ---- ---- ---- ------<br>-- --------- -- ---- -- --- -- --- ------- -- - -----<br>---------- -- -- -- ---- ----- -- ------ -- --- ------<br>-------,237661,237672,237070,237057.00000000003,237087,237703,,3,United
screen,html.Screen,1_3_1_0_1_4,2021-04-18T11:54:34.794Z,,,,,,,,,,,,,,,,48,,,,,,,,,,,,,,783,,response,,,,10,E,,,,,,Space,keypress(Space),,,,lyrical,,,,"-- -- --- ------ States, --------- ----------- --------<br>--------- -------- --- ------- -- ------- ---- -- ------<br>-- --- -------- -------- ---------- ---- ---- ---- ------<br>-- --------- -- ---- -- --- -- --- ------- -- - -----<br>---------- -- -- -- ---- ----- -- ------ -- --- ------<br>-------",238458,238470,237687,237661,237703,238487,,4,"States,"
screen,html.Screen,1_3_1_0_1_5,2021-04-18T11:54:35.452Z,,,,,,,,,,,,,,,,48,,,,,,,,,,,,,,658,,response,,,,10,E,,,,,,Space,keypress(Space),,,,lyrical,,,,-- -- --- ------ ------- Colombian ----------- --------<br>--------- -------- --- ------- -- ------- ---- -- ------<br>-- --- -------- -------- ---------- ---- ---- ---- ------<br>-- --------- -- ---- -- --- -- --- ------- -- - -----<br>---------- -- -- -- ---- ----- -- ------ -- --- ------<br>-------,239117.00000000003,239128,238470,238458,238487,239158,,5,Colombian
screen,html.Screen,1_3_1_0_1_6,2021-04-18T11:54:36.442Z,,,,,,,,,,,,,,,,48,,,,,,,,,,,,,,978,,response,,,,10,E,,,,,,Space,keypress(Space),,,,lyrical,,,,-- -- --- ------ ------- --------- legislation --------<br>--------- -------- --- ------- -- ------- ---- -- ------<br>-- --- -------- -------- ---------- ---- ---- ---- ------<br>-- --------- -- ---- -- --- -- --- ------- -- - -----<br>---------- -- -- -- ---- ----- -- ------ -- --- ------<br>-------,240107,240118,239140,239117.00000000003,239158,240140,,6,legislation
screen,html.Screen,1_3_1_0_1_7,2021-04-18T11:54:37.237Z,,,,,,,,,,,,,,,,48,,,,,,,,,,,,,,789,,response,,,,10,E,,,,,,Space,keypress(Space),,,,lyrical,,,,-- -- --- ------ ------- --------- ----------- requires<br>--------- -------- --- ------- -- ------- ---- -- ------<br>-- --- -------- -------- ---------- ---- ---- ---- ------<br>-- --------- -- ---- -- --- -- --- ------- -- - -----<br>---------- -- -- -- ---- ----- -- ------ -- --- ------<br>-------,240902.00000000003,240913,240124,240107,240140,240941,,7,requires
screen,html.Screen,1_3_1_0_1_8,2021-04-18T11:54:37.998Z,,,,,,,,,,,,,,,,48,,,,,,,,,,,,,,750,,response,,,,10,E,,,,,,Space,keypress(Space),,,,lyrical,,,,-- -- --- ------ ------- --------- ----------- --------<br>travelers -------- --- ------- -- ------- ---- -- ------<br>-- --- -------- -------- ---------- ---- ---- ---- ------<br>-- --------- -- ---- -- --- -- --- ------- -- - -----<br>---------- -- -- -- ---- ----- -- ------ -- --- ------<br>-------,241662,241674,240924,240902.00000000003,240941,241691,,8,travelers
screen,html.Screen,1_3_1_0_1_9,2021-04-18T11:54:38.642Z,,,,,,,,,,,,,,,,48,,,,,,,,,,,,,,644,,response,,,,10,E,,,,,,Space,keypress(Space),,,,lyrical,,,,-- -- --- ------ ------- --------- ----------- --------<br>--------- entering --- ------- -- ------- ---- -- ------<br>-- --- -------- -------- ---------- ---- ---- ---- ------<br>-- --------- -- ---- -- --- -- --- ------- -- - -----<br>---------- -- -- -- ---- ----- -- ------ -- --- ------<br>-------,242307.00000000003,242318,241674,241663,241691,242341,,9,entering
screen,html.Screen,1_3_1_0_1_10,2021-04-18T11:54:39.139Z,,,,,,,,,,,,,,,,48,,,,,,,,,,,,,,491,,response,,,,10,E,,,,,,Space,keypress(Space),,,,lyrical,,,,-- -- --- ------ ------- --------- ----------- --------<br>--------- -------- the ------- -- ------- ---- -- ------<br>-- --- -------- -------- ---------- ---- ---- ---- ------<br>-- --------- -- ---- -- --- -- --- ------- -- - -----<br>---------- -- -- -- ---- ----- -- ------ -- --- ------<br>-------,242803,242815,242324,242307.00000000003,242341,242841,,10,the
screen,html.Screen,1_3_1_0_1_11,2021-04-18T11:54:39.891Z,,,,,,,,,,,,,,,,48,,,,,,,,,,,,,,743,,response,,,,10,E,,,,,,Space,keypress(Space),,,,lyrical,,,,-- -- --- ------ ------- --------- ----------- --------<br>--------- -------- --- country -- ------- ---- -- ------<br>-- --- -------- -------- ---------- ---- ---- ---- ------<br>-- --------- -- ---- -- --- -- --- ------- -- - -----<br>---------- -- -- -- ---- ----- -- ------ -- --- ------<br>-------,243556,243567,242824,242804,242841,243591,,11,country
screen,html.Screen,1_3_1_0_1_12,2021-04-18T11:54:40.617Z,,,,,,,,,,,,,,,,48,,,,,,,,,,,,,,718,,response,,,,10,E,,,,,,Space,keypress(Space),,,,lyrical,,,,-- -- --- ------ ------- --------- ----------- --------<br>--------- -------- --- ------- to ------- ---- -- ------<br>-- --- -------- -------- ---------- ---- ---- ---- ------<br>-- --------- -- ---- -- --- -- --- ------- -- - -----<br>---------- -- -- -- ---- ----- -- ------ -- --- ------<br>-------,244281,244293,243575,243556,243591,244313,,12,to
screen,html.Screen,1_3_1_0_1_13,2021-04-18T11:54:41.056Z,,,,,,,,,,,,,,,,48,,,,,,,,,,,,,,437,,response,,,,10,E,,,,,,Space,keypress(Space),,,,lyrical,,,,-- -- --- ------ ------- --------- ----------- --------<br>--------- -------- --- ------- -- declare ---- -- ------<br>-- --- -------- -------- ---------- ---- ---- ---- ------<br>-- --------- -- ---- -- --- -- --- ------- -- - -----<br>---------- -- -- -- ---- ----- -- ------ -- --- ------<br>-------,244720,244732,244295,244282,244313,244762,,13,declare
screen,html.Screen,1_3_1_0_1_14,2021-04-18T11:54:41.507Z,,,,,,,,,,,,,,,,48,,,,,,,,,,,,,,437,,response,,,,10,E,,,,,,Space,keypress(Space),,,,lyrical,,,,-- -- --- ------ ------- --------- ----------- --------<br>--------- -------- --- ------- -- ------- cash -- ------<br>-- --- -------- -------- ---------- ---- ---- ---- ------<br>-- --------- -- ---- -- --- -- --- ------- -- - -----<br>---------- -- -- -- ---- ----- -- ------ -- --- ------<br>-------,245172,245183,244746,244721,244762,245212,,14,cash
screen,html.Screen,1_3_1_0_1_15,2021-04-18T11:54:41.890Z,,,,,,,,,,,,,,,,48,,,,,,,,,,,,,,370,,response,,,,10,E,,,,,,Space,keypress(Space),,,,lyrical,,,,-- -- --- ------ ------- --------- ----------- --------<br>--------- -------- --- ------- -- ------- ---- in ------<br>-- --- -------- -------- ---------- ---- ---- ---- ------<br>-- --------- -- ---- -- --- -- --- ------- -- - -----<br>---------- -- -- -- ---- ----- -- ------ -- --- ------<br>-------,245554,245566,245196,245172,245212,245579,,15,in
screen,html.Screen,1_3_1_0_1_16,2021-04-18T11:54:42.355Z,,,,,,,,,,,,,,,,48,,,,,,,,,,,,,,470,,response,,,,10,E,,,,,,Space,keypress(Space),,,,lyrical,,,,-- -- --- ------ ------- --------- ----------- --------<br>--------- -------- --- ------- -- ------- ---- -- excess<br>-- --- -------- -------- ---------- ---- ---- ---- ------<br>-- --------- -- ---- -- --- -- --- ------- -- - -----<br>---------- -- -- -- ---- ----- -- ------ -- --- ------<br>-------,246020,246031,245561,245554,245579,246063,,16,excess
screen,html.Screen,1_3_1_0_1_17,2021-04-18T11:54:42.774Z,,,,,,,,,,,,,,,,48,,,,,,,,,,,,,,405.0000000000291,,response,,,,10,E,,,,,,Space,keypress(Space),,,,lyrical,,,,-- -- --- ------ ------- --------- ----------- --------<br>--------- -------- --- ------- -- ------- ---- -- ------<br>of --- -------- -------- ---------- ---- ---- ---- ------<br>-- --------- -- ---- -- --- -- --- ------- -- - -----<br>---------- -- -- -- ---- ----- -- ------ -- --- ------<br>-------,246438.00000000003,246450.00000000003,246045,246020,246063,246479,,17,of
screen,html.Screen,1_3_1_0_1_18,2021-04-18T11:54:43.155Z,,,,,,,,,,,,,,,,48,,,,,,,,,,,,,,368.0000000000291,,response,,,,10,E,,,,,,Space,keypress(Space),,,,lyrical,,,,-- -- --- ------ ------- --------- ----------- --------<br>--------- -------- --- ------- -- ------- ---- -- ------<br>-- ten -------- -------- ---------- ---- ---- ---- ------<br>-- --------- -- ---- -- --- -- --- ------- -- - -----<br>---------- -- -- -- ---- ----- -- ------ -- --- ------<br>-------,246819.00000000003,246831.00000000003,246463,246438.00000000003,246479,246846,,18,ten
screen,html.Screen,1_3_1_0_1_19,2021-04-18T11:54:43.729Z,,,,,,,,,,,,,,,,48,,,,,,,,,,,,,,577,,response,,,,10,E,,,,,,Space,keypress(Space),,,,lyrical,,,,-- -- --- ------ ------- --------- ----------- --------<br>--------- -------- --- ------- -- ------- ---- -- ------<br>-- --- thousand -------- ---------- ---- ---- ---- ------<br>-- --------- -- ---- -- --- -- --- ------- -- - -----<br>---------- -- -- -- ---- ----- -- ------ -- --- ------<br>-------,247393,247405,246828,246820,246846,247428,,19,thousand
screen,html.Screen,1_3_1_0_1_20,2021-04-18T11:54:44.689Z,,,,,,,,,,,,,,,,48,,,,,,,,,,,,,,954,,response,,,,10,E,,,,,,Space,keypress(Space),,,,lyrical,,,,-- -- --- ------ ------- --------- ----------- --------<br>--------- -------- --- ------- -- ------- ---- -- ------<br>-- --- -------- dollars. ---------- ---- ---- ---- ------<br>-- --------- -- ---- -- --- -- --- ------- -- - -----<br>---------- -- -- -- ---- ----- -- ------ -- --- ------<br>-------,248354,248366,247412,247393,247428,248396,,20,dollars.
screen,html.Screen,1_3_1_0_1_21,2021-04-18T11:54:45.592Z,,,,,,,,,,,,,,,,48,,,,,,,,,,,,,,889,,response,,,,10,E,,,,,,Space,keypress(Space),,,,lyrical,,,,-- -- --- ------ ------- --------- ----------- --------<br>--------- -------- --- ------- -- ------- ---- -- ------<br>-- --- -------- -------- Concealing ---- ---- ---- ------<br>-- --------- -- ---- -- --- -- --- ------- -- - -----<br>---------- -- -- -- ---- ----- -- ------ -- --- ------<br>-------,249257,249268,248379,248354,248396,249295,,21,Concealing
screen,html.Screen,1_3_1_0_1_22,2021-04-18T11:54:46.134Z,,,,,,,,,,,,,,,,48,,,,,,,,,,,,,,531,,response,,,,10,E,,,,,,Space,keypress(Space),,,,lyrical,,,,-- -- --- ------ ------- --------- ----------- --------<br>--------- -------- --- ------- -- ------- ---- -- ------<br>-- --- -------- -------- ---------- more ---- ---- ------<br>-- --------- -- ---- -- --- -- --- ------- -- - -----<br>---------- -- -- -- ---- ----- -- ------ -- --- ------<br>-------,249798,249810,249279,249257,249295,249833,,22,more
screen,html.Screen,1_3_1_0_1_23,2021-04-18T11:54:46.573Z,,,,,,,,,,,,,,,,48,,,,,,,,,,,,,,433,,response,,,,10,E,,,,,,Space,keypress(Space),,,,lyrical,,,,-- -- --- ------ ------- --------- ----------- --------<br>--------- -------- --- ------- -- ------- ---- -- ------<br>-- --- -------- -------- ---------- ---- than ---- ------<br>-- --------- -- ---- -- --- -- --- ------- -- - -----<br>---------- -- -- -- ---- ----- -- ------ -- --- ------<br>-------,250238,250250,249817,249799,249833,250267,,23,than
screen,html.Screen,1_3_1_0_1_24,2021-04-18T11:54:46.943Z,,,,,,,,,,,,,,,,48,,,,,,,,,,,,,,370,,response,,,,10,E,,,,,,Space,keypress(Space),,,,lyrical,,,,-- -- --- ------ ------- --------- ----------- --------<br>--------- -------- --- ------- -- ------- ---- -- ------<br>-- --- -------- -------- ---------- ---- ---- that ------<br>-- --------- -- ---- -- --- -- --- ------- -- - -----<br>---------- -- -- -- ---- ----- -- ------ -- --- ------<br>-------,250608,250619,250249,250238,250267,250633,,24,that
screen,html.Screen,1_3_1_0_1_25,2021-04-18T11:54:47.404Z,,,,,,,,,,,,,,,,48,,,,,,,,,,,,,,463,,response,,,,10,E,,,,,,Space,keypress(Space),,,,lyrical,,,,-- -- --- ------ ------- --------- ----------- --------<br>--------- -------- --- ------- -- ------- ---- -- ------<br>-- --- -------- -------- ---------- ---- ---- ---- amount<br>-- --------- -- ---- -- --- -- --- ------- -- - -----<br>---------- -- -- -- ---- ----- -- ------ -- --- ------<br>-------,251069.00000000003,251080,250617,250608,250633,251100,,25,amount
screen,html.Screen,1_3_1_0_1_26,2021-04-18T11:54:47.836Z,,,,,,,,,,,,,,,,48,,,,,,,,,,,,,,430,,response,,,,10,E,,,,,,Space,keypress(Space),,,,lyrical,,,,-- -- --- ------ ------- --------- ----------- --------<br>--------- -------- --- ------- -- ------- ---- -- ------<br>-- --- -------- -------- ---------- ---- ---- ---- ------<br>to --------- -- ---- -- --- -- --- ------- -- - -----<br>---------- -- -- -- ---- ----- -- ------ -- --- ------<br>-------,251501,251513,251083,251069.00000000003,251100,251533,,26,to
screen,html.Screen,1_3_1_0_1_27,2021-04-18T11:54:48.261Z,,,,,,,,,,,,,,,,48,,,,,,,,,,,,,,421,,response,,,,10,E,,,,,,Space,keypress(Space),,,,lyrical,,,,-- -- --- ------ ------- --------- ----------- --------<br>--------- -------- --- ------- -- ------- ---- -- ------<br>-- --- -------- -------- ---------- ---- ---- ---- ------<br>-- transport -- ---- -- --- -- --- ------- -- - -----<br>---------- -- -- -- ---- ----- -- ------ -- --- ------<br>-------,251925,251937,251516,251501,251533,251967,,27,transport
screen,html.Screen,1_3_1_0_1_28,2021-04-18T11:54:48.716Z,,,,,,,,,,,,,,,,48,,,,,,,,,,,,,,443,,response,,,,10,E,,,,,,Space,keypress(Space),,,,lyrical,,,,-- -- --- ------ ------- --------- ----------- --------<br>--------- -------- --- ------- -- ------- ---- -- ------<br>-- --- -------- -------- ---------- ---- ---- ---- ------<br>-- --------- it ---- -- --- -- --- ------- -- - -----<br>---------- -- -- -- ---- ----- -- ------ -- --- ------<br>-------,252381,252393,251950,251926.00000000003,251967,252417,,28,it
screen,html.Screen,1_3_1_0_1_29,2021-04-18T11:54:49.120Z,,,,,,,,,,,,,,,,48,,,,,,,,,,,,,,397,,response,,,,10,E,,,,,,Space,keypress(Space),,,,lyrical,,,,-- -- --- ------ ------- --------- ----------- --------<br>--------- -------- --- ------- -- ------- ---- -- ------<br>-- --- -------- -------- ---------- ---- ---- ---- ------<br>-- --------- -- into -- --- -- --- ------- -- - -----<br>---------- -- -- -- ---- ----- -- ------ -- --- ------<br>-------,252785,252797,252400,252381,252417,252817,,29,into
screen,html.Screen,1_3_1_0_1_30,2021-04-18T11:54:49.517Z,,,,,,,,,,,,,,,,48,,,,,,,,,,,,,,394.0000000000291,,response,,,,10,E,,,,,,Space,keypress(Space),,,,lyrical,,,,-- -- --- ------ ------- --------- ----------- --------<br>--------- -------- --- ------- -- ------- ---- -- ------<br>-- --- -------- -------- ---------- ---- ---- ---- ------<br>-- --------- -- ---- or --- -- --- ------- -- - -----<br>---------- -- -- -- ---- ----- -- ------ -- --- ------<br>-------,253182.00000000003,253194.00000000003,252800,252785,252817,253217,,30,or
screen,html.Screen,1_3_1_0_1_31,2021-04-18T11:54:50.014Z,,,,,,,,,,,,,,,,48,,,,,,,,,,,,,,491,,response,,,,10,E,,,,,,Space,keypress(Space),,,,lyrical,,,,-- -- --- ------ ------- --------- ----------- --------<br>--------- -------- --- ------- -- ------- ---- -- ------<br>-- --- -------- -------- ---------- ---- ---- ---- ------<br>-- --------- -- ---- -- out -- --- ------- -- - -----<br>---------- -- -- -- ---- ----- -- ------ -- --- ------<br>-------,253679,253691,253200,253182.00000000003,253217,253716,,31,out
screen,html.Screen,1_3_1_0_1_32,2021-04-18T11:54:50.364Z,,,,,,,,,,,,,,,,48,,,,,,,,,,,,,,341,,response,,,,10,E,,,,,,Space,keypress(Space),,,,lyrical,,,,-- -- --- ------ ------- --------- ----------- --------<br>--------- -------- --- ------- -- ------- ---- -- ------<br>-- --- -------- -------- ---------- ---- ---- ---- ------<br>-- --------- -- ---- -- --- of --- ------- -- - -----<br>---------- -- -- -- ---- ----- -- ------ -- --- ------<br>-------,254029,254041,253700,253679,253716,254049,,32,of
screen,html.Screen,1_3_1_0_1_33,2021-04-18T11:54:50.706Z,,,,,,,,,,,,,,,,48,,,,,,,,,,,,,,349,,response,,,,10,E,,,,,,Space,keypress(Space),,,,lyrical,,,,-- -- --- ------ ------- --------- ----------- --------<br>--------- -------- --- ------- -- ------- ---- -- ------<br>-- --- -------- -------- ---------- ---- ---- ---- ------<br>-- --------- -- ---- -- --- -- the ------- -- - -----<br>---------- -- -- -- ---- ----- -- ------ -- --- ------<br>-------,254371,254382,254033,254029,254049,254400,,33,the
screen,html.Screen,1_3_1_0_1_34,2021-04-18T11:54:51.267Z,,,,,,,,,,,,,,,,48,,,,,,,,,,,,,,561.0000000000291,,response,,,,10,E,,,,,,Space,keypress(Space),,,,lyrical,,,,-- -- --- ------ ------- --------- ----------- --------<br>--------- -------- --- ------- -- ------- ---- -- ------<br>-- --- -------- -------- ---------- ---- ---- ---- ------<br>-- --------- -- ---- -- --- -- --- country -- - -----<br>---------- -- -- -- ---- ----- -- ------ -- --- ------<br>-------,254932.00000000003,254944.00000000003,254383,254371,254400,254971,,34,country
screen,html.Screen,1_3_1_0_1_35,2021-04-18T11:54:51.697Z,,,,,,,,,,,,,,,,48,,,,,,,,,,,,,,421,,response,,,,10,E,,,,,,Space,keypress(Space),,,,lyrical,,,,-- -- --- ------ ------- --------- ----------- --------<br>--------- -------- --- ------- -- ------- ---- -- ------<br>-- --- -------- -------- ---------- ---- ---- ---- ------<br>-- --------- -- ---- -- --- -- --- ------- is - -----<br>---------- -- -- -- ---- ----- -- ------ -- --- ------<br>-------,255362,255374,254953,254932.00000000003,254971,255404,,35,is
screen,html.Screen,1_3_1_0_1_36,2021-04-18T11:54:52.091Z,,,,,,,,,,,,,,,,48,,,,,,,,,,,,,,380,,response,,,,10,E,,,,,,Space,keypress(Space),,,,lyrical,,,,-- -- --- ------ ------- --------- ----------- --------<br>--------- -------- --- ------- -- ------- ---- -- ------<br>-- --- -------- -------- ---------- ---- ---- ---- ------<br>-- --------- -- ---- -- --- -- --- ------- -- a -----<br>---------- -- -- -- ---- ----- -- ------ -- --- ------<br>-------,255756,255768,255388,255362,255404,255788,,36,a
screen,html.Screen,1_3_1_0_1_37,2021-04-18T11:54:52.526Z,,,,,,,,,,,,,,,,48,,,,,,,,,,,,,,432.0000000000291,,response,,,,10,E,,,,,,Space,keypress(Space),,,,lyrical,,,,-- -- --- ------ ------- --------- ----------- --------<br>--------- -------- --- ------- -- ------- ---- -- ------<br>-- --- -------- -------- ---------- ---- ---- ---- ------<br>-- --------- -- ---- -- --- -- --- ------- -- - crime<br>---------- -- -- -- ---- ----- -- ------ -- --- ------<br>-------,256191.00000000003,256203.00000000003,255771,255756,255788,256220,,37,crime
screen,html.Screen,1_3_1_0_1_38,2021-04-18T11:54:53.047Z,,,,,,,,,,,,,,,,48,,,,,,,,,,,,,,520,,response,,,,10,E,,,,,,Space,keypress(Space),,,,lyrical,,,,-- -- --- ------ ------- --------- ----------- --------<br>--------- -------- --- ------- -- ------- ---- -- ------<br>-- --- -------- -------- ---------- ---- ---- ---- ------<br>-- --------- -- ---- -- --- -- --- ------- -- - -----<br>punishable -- -- -- ---- ----- -- ------ -- --- ------<br>-------,256712,256724,256204,256191.00000000003,256220,256753,,38,punishable
screen,html.Screen,1_3_1_0_1_39,2021-04-18T11:54:53.526Z,,,,,,,,,,,,,,,,48,,,,,,,,,,,,,,466.0000000000291,,response,,,,10,E,,,,,,Space,keypress(Space),,,,lyrical,,,,-- -- --- ------ ------- --------- ----------- --------<br>--------- -------- --- ------- -- ------- ---- -- ------<br>-- --- -------- -------- ---------- ---- ---- ---- ------<br>-- --------- -- ---- -- --- -- --- ------- -- - -----<br>---------- by -- -- ---- ----- -- ------ -- --- ------<br>-------,257191.00000000003,257203.00000000003,256737,256712,256753,257220,,39,by
screen,html.Screen,1_3_1_0_1_40,2021-04-18T11:54:54.203Z,,,,,,,,,,,,,,,,48,,,,,,,,,,,,,,676,,response,,,,10,E,,,,,,Space,keypress(Space),,,,lyrical,,,,-- -- --- ------ ------- --------- ----------- --------<br>--------- -------- --- ------- -- ------- ---- -- ------<br>-- --- -------- -------- ---------- ---- ---- ---- ------<br>-- --------- -- ---- -- --- -- --- ------- -- - -----<br>---------- -- up -- ---- ----- -- ------ -- --- ------<br>-------,257868,257880,257204,257191.00000000003,257220,257904,,40,up
screen,html.Screen,1_3_1_0_1_41,2021-04-18T11:54:54.559Z,,,,,,,,,,,,,,,,48,,,,,,,,,,,,,,349,,response,,,,10,E,,,,,,Space,keypress(Space),,,,lyrical,,,,-- -- --- ------ ------- --------- ----------- --------<br>--------- -------- --- ------- -- ------- ---- -- ------<br>-- --- -------- -------- ---------- ---- ---- ---- ------<br>-- --------- -- ---- -- --- -- --- ------- -- - -----<br>---------- -- -- to ---- ----- -- ------ -- --- ------<br>-------,258224,258236,257887,257868,257904,258254,,41,to
screen,html.Screen,1_3_1_0_1_42,2021-04-18T11:54:55.058Z,,,,,,,,,,,,,,,,48,,,,,,,,,,,,,,497,,response,,,,10,E,,,,,,Space,keypress(Space),,,,lyrical,,,,-- -- --- ------ ------- --------- ----------- --------<br>--------- -------- --- ------- -- ------- ---- -- ------<br>-- --- -------- -------- ---------- ---- ---- ---- ------<br>-- --------- -- ---- -- --- -- --- ------- -- - -----<br>---------- -- -- -- five ----- -- ------ -- --- ------<br>-------,258723,258735,258238,258224,258254,258753,,42,five
screen,html.Screen,1_3_1_0_1_43,2021-04-18T11:54:55.473Z,,,,,,,,,,,,,,,,48,,,,,,,,,,,,,,412.9999999999709,,response,,,,10,E,,,,,,Space,keypress(Space),,,,lyrical,,,,-- -- --- ------ ------- --------- ----------- --------<br>--------- -------- --- ------- -- ------- ---- -- ------<br>-- --- -------- -------- ---------- ---- ---- ---- ------<br>-- --------- -- ---- -- --- -- --- ------- -- - -----<br>---------- -- -- -- ---- years -- ------ -- --- ------<br>-------,259138.00000000003,259149.99999999997,258737,258723,258753,259171,,43,years
screen,html.Screen,1_3_1_0_1_44,2021-04-18T11:54:55.927Z,,,,,,,,,,,,,,,,48,,,,,,,,,,,,,,450,,response,,,,10,E,,,,,,Space,keypress(Space),,,,lyrical,,,,-- -- --- ------ ------- --------- ----------- --------<br>--------- -------- --- ------- -- ------- ---- -- ------<br>-- --- -------- -------- ---------- ---- ---- ---- ------<br>-- --------- -- ---- -- --- -- --- ------- -- - -----<br>---------- -- -- -- ---- ----- in ------ -- --- ------<br>-------,259591.99999999997,259603,259153,259138.00000000003,259171,259620,,44,in
screen,html.Screen,1_3_1_0_1_45,2021-04-18T11:54:56.306Z,,,,,,,,,,,,,,,,48,,,,,,,,,,,,,,379,,response,,,,10,E,,,,,,Space,keypress(Space),,,,lyrical,,,,-- -- --- ------ ------- --------- ----------- --------<br>--------- -------- --- ------- -- ------- ---- -- ------<br>-- --- -------- -------- ---------- ---- ---- ---- ------<br>-- --------- -- ---- -- --- -- --- ------- -- - -----<br>---------- -- -- -- ---- ----- -- prison -- --- ------<br>-------,259971,259983,259604,259591.99999999997,259620,259992,,45,prison
screen,html.Screen,1_3_1_0_1_46,2021-04-18T11:54:56.773Z,,,,,,,,,,,,,,,,48,,,,,,,,,,,,,,476,,response,,,,10,E,,,,,,Space,keypress(Space),,,,lyrical,,,,-- -- --- ------ ------- --------- ----------- --------<br>--------- -------- --- ------- -- ------- ---- -- ------<br>-- --- -------- -------- ---------- ---- ---- ---- ------<br>-- --------- -- ---- -- --- -- --- ------- -- - -----<br>---------- -- -- -- ---- ----- -- ------ in --- ------<br>-------,260438,260450,259974,259971,259992,260475,,46,in
screen,html.Screen,1_3_1_0_1_47,2021-04-18T11:54:57.151Z,,,,,,,,,,,,,,,,48,,,,,,,,,,,,,,369.0000000000291,,response,,,,10,E,,,,,,Space,keypress(Space),,,,lyrical,,,,-- -- --- ------ ------- --------- ----------- --------<br>--------- -------- --- ------- -- ------- ---- -- ------<br>-- --- -------- -------- ---------- ---- ---- ---- ------<br>-- --------- -- ---- -- --- -- --- ------- -- - -----<br>---------- -- -- -- ---- ----- -- ------ -- the ------<br>-------,260816.00000000003,260828.00000000003,260459,260438,260475,260841,,47,the
screen,html.Screen,1_3_1_0_1_48,2021-04-18T11:54:57.592Z,,,,,,,,,,,,,,,,48,,,,,,,,,,,,,,444,,response,,,,10,E,,,,,,Space,keypress(Space),,,,lyrical,,,,-- -- --- ------ ------- --------- ----------- --------<br>--------- -------- --- ------- -- ------- ---- -- ------<br>-- --- -------- -------- ---------- ---- ---- ---- ------<br>-- --------- -- ---- -- --- -- --- ------- -- - -----<br>---------- -- -- -- ---- ----- -- ------ -- --- United<br>-------,261257,261269,260825,260817,260841,261292,,48,United
screen,html.Screen,1_3_1_0_1_49,2021-04-18T11:54:58.042Z,,,,,,,,,,,,,,,,48,,,,,,,,,,,,,,444,,response,,,,10,E,,,,,,Space,keypress(Space),,,,lyrical,,,,-- -- --- ------ ------- --------- ----------- --------<br>--------- -------- --- ------- -- ------- ---- -- ------<br>-- --- -------- -------- ---------- ---- ---- ---- ------<br>-- --------- -- ---- -- --- -- --- ------- -- - -----<br>---------- -- -- -- ---- ----- -- ------ -- --- ------<br>States.,261707,261719,261275,261257,261292,261742,,49,States.
Item 10,flow.Loop,1_3_1_0_1,2021-04-18T11:54:58.042Z,,,,,,,,,,,,,,,,,,,,,,,,,,,,,,26499,,completion,,,,,,,,,,,,,,,,,,,,,261707,261719,235204,235204,235220,261742,,,
Question 1,html.Screen,1_3_1_0_2,2021-04-18T11:55:01.588Z,,,,,,,,,,,,,,,,,,,,,,,,,,,true,TRUE,,3540,,response,,,,10,E,,,,,,TRUE,click #choice-1,,,,lyrical,,,,,265253,265265,261725,261707,261742,265278,,,
Question 2,html.Screen,1_3_1_0_3,2021-04-18T11:55:04.058Z,,,,,,,,,,,,,,,,,,,,,,,,,,,true,TRUE,,2474,,response,,,,10,E,,,,,,TRUE,click #choice-1,,,,lyrical,,,,,267723,267736,265262,265253,265278,267745,,,
Item 10,flow.Sequence,1_3_1_0,2021-04-18T11:55:04.058Z,,,,,,,,,,,,,,,,,,,,,,,,,,,,,,39507,,completion,,,,,,,,,,,,,,,,,,,,,267723,267736,228212,228213,228229,267745,,,
Holding screen,html.Screen,1_3_1_1_0,2021-04-18T11:55:11.066Z,,,,,,,,,,,,,,,,,,,,,,,,,,,,,,7003,,timeout,,,,,,,,,,,,,,,,,,,,,274731,274731,267728,267723,267745,274748,,,
screen,html.Screen,1_3_1_1_1_0,2021-04-18T11:55:12.184Z,,,,,,,,,,,,,,,,51,,,,,,,,,,,,,,1130,,response,,,,13,E,,,,,,Space,keypress(Space),,,,lyrical,,,,American -------- --- --- ---- --- --- ------ -- --------<br>---- --------- --- ------- ------------ ---------- ---------<br>--- ---------- ------- ---------- ------- -- -------- ----<br>---- --- ------ ----- ------ -- ---- --- ----- -- - -------<br>-------- -- --- --- -- ----- ----------- ----- -----------<br>---- --- ---------- --- ---- --- -- ----------,275849,275861,274731,274731,274748,275886,,0,American
screen,html.Screen,1_3_1_1_1_1,2021-04-18T11:55:12.813Z,,,,,,,,,,,,,,,,51,,,,,,,,,,,,,,620,,response,,,,13,E,,,,,,Space,keypress(Space),,,,lyrical,,,,-------- industry --- --- ---- --- --- ------ -- --------<br>---- --------- --- ------- ------------ ---------- ---------<br>--- ---------- ------- ---------- ------- -- -------- ----<br>---- --- ------ ----- ------ -- ---- --- ----- -- - -------<br>-------- -- --- --- -- ----- ----------- ----- -----------<br>---- --- ---------- --- ---- --- -- ----------,276478,276490,275870,275850,275886,276520,,1,industry
screen,html.Screen,1_3_1_1_1_2,2021-04-18T11:55:13.761Z,,,,,,,,,,,,,,,,51,,,,,,,,,,,,,,936,,response,,,,13,E,,,,,,Space,keypress(Space),,,,lyrical,,,,-------- -------- may --- ---- --- --- ------ -- --------<br>---- --------- --- ------- ------------ ---------- ---------<br>--- ---------- ------- ---------- ------- -- -------- ----<br>---- --- ------ ----- ------ -- ---- --- ----- -- - -------<br>-------- -- --- --- -- ----- ----------- ----- -----------<br>---- --- ---------- --- ---- --- -- ----------,277426,277438,276502,276478,276520,277453,,2,may
screen,html.Screen,1_3_1_1_1_3,2021-04-18T11:55:14.350Z,,,,,,,,,,,,,,,,51,,,,,,,,,,,,,,593,,response,,,,13,E,,,,,,Space,keypress(Space),,,,lyrical,,,,-------- -------- --- not ---- --- --- ------ -- --------<br>---- --------- --- ------- ------------ ---------- ---------<br>--- ---------- ------- ---------- ------- -- -------- ----<br>---- --- ------ ----- ------ -- ---- --- ----- -- - -------<br>-------- -- --- --- -- ----- ----------- ----- -----------<br>---- --- ---------- --- ---- --- -- ----------,278016,278028,277435,277426,277453,278053,,3,not
screen,html.Screen,1_3_1_1_1_4,2021-04-18T11:55:15.001Z,,,,,,,,,,,,,,,,51,,,,,,,,,,,,,,643,,response,,,,13,E,,,,,,Space,keypress(Space),,,,lyrical,,,,-------- -------- --- --- know --- --- ------ -- --------<br>---- --------- --- ------- ------------ ---------- ---------<br>--- ---------- ------- ---------- ------- -- -------- ----<br>---- --- ------ ----- ------ -- ---- --- ----- -- - -------<br>-------- -- --- --- -- ----- ----------- ----- -----------<br>---- --- ---------- --- ---- --- -- ----------,278666,278678,278035,278016,278053,278702,,4,know
screen,html.Screen,1_3_1_1_1_5,2021-04-18T11:55:15.814Z,,,,,,,,,,,,,,,,51,,,,,,,,,,,,,,806,,response,,,,13,E,,,,,,Space,keypress(Space),,,,lyrical,,,,"-------- -------- --- --- ---- it, --- ------ -- --------<br>---- --------- --- ------- ------------ ---------- ---------<br>--- ---------- ------- ---------- ------- -- -------- ----<br>---- --- ------ ----- ------ -- ---- --- ----- -- - -------<br>-------- -- --- --- -- ----- ----------- ----- -----------<br>---- --- ---------- --- ---- --- -- ----------",279480,279492,278686,278666,278702,279519,,5,"it,"
screen,html.Screen,1_3_1_1_1_6,2021-04-18T11:55:16.354Z,,,,,,,,,,,,,,,,51,,,,,,,,,,,,,,530,,response,,,,13,E,,,,,,Space,keypress(Space),,,,lyrical,,,,-------- -------- --- --- ---- --- but ------ -- --------<br>---- --------- --- ------- ------------ ---------- ---------<br>--- ---------- ------- ---------- ------- -- -------- ----<br>---- --- ------ ----- ------ -- ---- --- ----- -- - -------<br>-------- -- --- --- -- ----- ----------- ----- -----------<br>---- --- ---------- --- ---- --- -- ----------,280020,280032,279502,279480,279519,280053,,6,but
screen,html.Screen,1_3_1_1_1_7,2021-04-18T11:55:16.775Z,,,,,,,,,,,,,,,,51,,,,,,,,,,,,,,417.0000000000582,,response,,,,13,E,,,,,,Space,keypress(Space),,,,lyrical,,,,-------- -------- --- --- ---- --- --- debate -- --------<br>---- --------- --- ------- ------------ ---------- ---------<br>--- ---------- ------- ---------- ------- -- -------- ----<br>---- --- ------ ----- ------ -- ---- --- ----- -- - -------<br>-------- -- --- --- -- ----- ----------- ----- -----------<br>---- --- ---------- --- ---- --- -- ----------,280441.00000000006,280453.00000000006,280036,280020,280053,280473,,7,debate
screen,html.Screen,1_3_1_1_1_8,2021-04-18T11:55:17.190Z,,,,,,,,,,,,,,,,51,,,,,,,,,,,,,,411,,response,,,,13,E,,,,,,Space,keypress(Space),,,,lyrical,,,,-------- -------- --- --- ---- --- --- ------ in --------<br>---- --------- --- ------- ------------ ---------- ---------<br>--- ---------- ------- ---------- ------- -- -------- ----<br>---- --- ------ ----- ------ -- ---- --- ----- -- - -------<br>-------- -- --- --- -- ----- ----------- ----- -----------<br>---- --- ---------- --- ---- --- -- ----------,280856,280868,280457,280441.00000000006,280473,280890,,8,in
screen,html.Screen,1_3_1_1_1_9,2021-04-18T11:55:17.779Z,,,,,,,,,,,,,,,,51,,,,,,,,,,,,,,583,,response,,,,13,E,,,,,,Space,keypress(Space),,,,lyrical,,,,-------- -------- --- --- ---- --- --- ------ -- Congress<br>---- --------- --- ------- ------------ ---------- ---------<br>--- ---------- ------- ---------- ------- -- -------- ----<br>---- --- ------ ----- ------ -- ---- --- ----- -- - -------<br>-------- -- --- --- -- ----- ----------- ----- -----------<br>---- --- ---------- --- ---- --- -- ----------,281444,281456,280873,280856,280890,281473,,9,Congress
