sender,sender_type,sender_id,timestamp,meta,,Blues,Classical,Country,Dance,Electronic,Folk,Gospel,Hip-Hop,Jazz,Latin,Musical/Film,New-age,Pop,Provo_ID,R&B,Rap,Reggae,Religious,Rock,Soul,Swing,Traditional,age,artist_name,correct,correctResponse,distraction,duration,education,ended_on,familiarity,gender,headphone_check_performance,item,list,music_frequency,offensiveness,pleasantness,position_correct,preference,response,response_action,snippet_file,song_name,song_rating,sound,stimulus_1,stimulus_2,stimulus_3,text,time_commit,time_end,time_render,time_run,time_show,time_switch,url,word,word_ID
Introduction,html.Screen,0_0,2021-04-27T09:43:55.171Z,"{""labjs_version"":""20.2.2"",""labjs_build"":{""flavor"":""production"",""commit"":""a25486e0c714a0ae2ce03ff94b7bb6896854dcfa""},""location"":""https://run.pavlovia.org/mvasilev/music_b/"",""userAgent"":""Mozilla/5.0 (Macintosh; Intel Mac OS X 10_15_7) AppleWebKit/537.36 (KHTML, like Gecko) Chrome/90.0.4430.85 Safari/537.36"",""platform"":""MacIntel"",""language"":""en-GB"",""locale"":""en-GB"",""timeZone"":""Europe/London"",""timezoneOffset"":-60,""screen_width"":1440,""screen_height"":900,""scroll_width"":1440,""scroll_height"":773,""window_innerWidth"":1440,""window_innerHeight"":821,""devicePixelRatio"":2}",,,,,,,,,,,,,,,,,,,,,,,,,,,,,4309.389000002146,,response,,,,,,,,,,,continue,click button,,,,,,,,,26734.674999999697,26732.490000002144,22389.769,22404.795000002196,22423.101,26745.721,{},,
Volume calibration,html.Screen,0_1,2021-04-27T09:44:26.401Z,,,,,,,,,,,,,,,,,,,,,,,,,,,,,,31210.464000002732,,response,,,,,,,,,,,continue,click button,,,,,,,,,57966.09000000171,57956.18500000273,26729.055,26735.11000000144,26745.721,57971.7,,,
Task instructions,html.Screen,0_2,2021-04-27T09:44:38.671Z,,,,,,,,,,,,,,,,,,,,,,,,,,,,,,12260.100000001388,,response,,,,,,,,,,,continue,click button,,,,,,,,,70235.91000000306,70231.80000000139,57955.034,57966.45999999964,57971.7,70249.314,,,
Sounds,html.Screen,0_3_0_0,2021-04-27T09:44:42.923Z,,,,,,,,,,,,,,,,,,,,,,,,,,,,,,4249.626000000004,,timeout,,,,,,,,,1,,,,,,,,S,O,I,,74488.95000000266,74482.274,70232.648,70236.35000000286,70249.314,74498.94,,,
Judgement,html.Screen,0_3_0_1,2021-04-27T09:44:45.154Z,,,,,,,,,,,,,,,,,,,,,,,,,,,true,1,,2217.380000003177,,response,,,,,,,,,1,,1,click #choice-1,,,,,S,O,I,,76719.9099999998,76716.32000000318,74482.274,74489.29000000135,74498.94,76732.184,,,
Trial,flow.Sequence,0_3_0,2021-04-27T09:44:45.155Z,,,,,,,,,,,,,,,,,,,,,,,,,,,,,,6467.006000003181,,completion,,,,,,,,,1,,,,,,,,S,O,I,,76720.52000000258,76716.32000000318,70232.648,70236.2600000015,70249.314,76732.184,,,
Sounds,html.Screen,0_3_1_0,2021-04-27T09:44:49.402Z,,,,,,,,,,,,,,,,,,,,,,,,,,,,,,4249.830000000002,,timeout,,,,,,,,,1,,,,,,,,S,I,O,,80967.65500000038,80965.348,76715.518,76720.7699999999,76732.184,80982.014,,,
Judgement,html.Screen,0_3_1_1,2021-04-27T09:44:49.982Z,,,,,,,,,,,,,,,,,,,,,,,,,,,true,1,,561.0660000031057,,response,,,,,,,,,1,,1,click #choice-1,,,,,S,I,O,,81547.51000000033,81543.0800000031,80965.348,80967.8700000004,80982.014,81563.647,,,
Trial,flow.Sequence,0_3_1,2021-04-27T09:44:49.982Z,,,,,,,,,,,,,,,,,,,,,,,,,,,,,,4810.8960000031075,,completion,,,,,,,,,1,,,,,,,,S,I,O,,81547.85000000265,81543.0800000031,76715.518,76720.69499999998,76732.184,81563.647,,,
Sounds,html.Screen,0_3_2_0,2021-04-27T09:44:54.234Z,,,,,,,,,,,,,,,,,,,,,,,,,,,,,,4249.830000000002,,timeout,,,,,,,,,2,,,,,,,,O,S,I,,85799.56500000117,85796.811,81546.981,81548.09000000023,81563.647,85813.477,,,
Judgement,html.Screen,0_3_2_1,2021-04-27T09:44:55.160Z,,,,,,,,,,,,,,,,,,,,,,,,,,,true,2,,908.2880000020523,,response,,,,,,,,,2,,2,click #choice-2,,,,,O,S,I,,86726.23000000021,86721.76500000205,85796.811,85799.755,85813.477,86730.107,,,
Trial,flow.Sequence,0_3_2,2021-04-27T09:44:55.161Z,,,,,,,,,,,,,,,,,,,,,,,,,,,,,,5158.118000002054,,completion,,,,,,,,,2,,,,,,,,O,S,I,,86726.56500000085,86721.76500000205,81546.981,81548.01000000225,81563.647,86730.107,,,
Sounds,html.Screen,0_3_3_0,2021-04-27T09:44:59.399Z,,,,,,,,,,,,,,,,,,,,,,,,,,,,,,4249.830000000002,,timeout,,,,,,,,,3,,,,,,,,O,I,S,,90964.9550000031,90963.271,86713.441,86726.90000000148,86730.107,90979.937,,,
Judgement,html.Screen,0_3_3_1,2021-04-27T09:44:59.917Z,,,,,,,,,,,,,,,,,,,,,,,,,,,true,3,,499.06800000104704,,response,,,,,,,,,3,,3,click #choice-3,,,,,O,I,S,,91483.46500000116,91479.00500000105,90963.271,90965.14500000194,90979.937,91496.583,,,
Trial,flow.Sequence,0_3_3,2021-04-27T09:44:59.918Z,,,,,,,,,,,,,,,,,,,,,,,,,,,,,,4748.898000001049,,completion,,,,,,,,,3,,,,,,,,O,I,S,,91483.77000000255,91479.00500000105,86713.441,86726.73000000214,86730.107,91496.583,,,
Sounds,html.Screen,0_3_4_0,2021-04-27T09:45:04.166Z,,,,,,,,,,,,,,,,,,,,,,,,,,,,,,4249.830000000002,,timeout,,,,,,,,,3,,,,,,,,I,O,S,,95732.28000000017,95729.747,91479.917,91484.24000000159,91496.583,95746.413,,,
Judgement,html.Screen,0_3_4_1,2021-04-27T09:45:04.738Z,,,,,,,,,,,,,,,,,,,,,,,,,,,true,3,,554.3420000002079,,response,,,,,,,,,3,,3,click #choice-3,,,,,I,O,S,,96304.67500000304,96300.75500000021,95729.747,95732.55000000063,95746.413,96314.049,,,
Trial,flow.Sequence,0_3_4,2021-04-27T09:45:04.739Z,,,,,,,,,,,,,,,,,,,,,,,,,,,,,,4804.17200000021,,completion,,,,,,,,,3,,,,,,,,I,O,S,,96304.99000000054,96300.75500000021,91479.917,91484.16500000167,91496.583,96314.049,,,
Sounds,html.Screen,0_3_5_0,2021-04-27T09:45:08.983Z,,,,,,,,,,,,,,,,,,,,,,,,,,,,,,4249.830000000002,,timeout,,,,,,,,,2,,,,,,,,I,S,O,,100549.11500000162,100547.213,96297.383,96305.19500000082,96314.049,100563.879,,,
Judgement,html.Screen,0_3_5_1,2021-04-27T09:45:09.686Z,,,,,,,,,,,,,,,,,,,,,,,,,,,true,2,,684.0560000030528,,response,,,,,,,,,2,,2,click #choice-2,,,,,I,S,O,,101252.35000000248,101247.93500000305,100547.213,100549.38000000038,100563.879,101263.851,,,
Trial,flow.Sequence,0_3_5,2021-04-27T09:45:09.686Z,,,,,,,,,,,,,,,,,,,,,,,,,,,,,,4933.8860000030545,,completion,,,,,,,,,2,,,,,,,,I,S,O,,101252.63500000074,101247.93500000305,96297.383,96305.14000000039,96314.049,101263.851,,,
Task,flow.Loop,0_3,2021-04-27T09:45:09.695Z,,,,,,,,,,,,,,,,,,,,,,,,,,,,,,30998.621000003055,,completion,,,1,,,,,,,,,,,,,,,,,,101261.94000000032,101247.93500000305,70232.648,70236.17999999988,70249.314,101263.851,,,
Trap,html.Screen,0_4,2021-04-27T09:45:09.697Z,,,,,,,,,,,,,,,,,,,,,,,,,,,,,,NaN,,skipped,,,,,,,,,,,,,,,,,,,,,101263.66000000053,101247.93500000305,,101263.465,,101263.851,,,
Thanks,html.Screen,0_5,2021-04-27T09:45:13.644Z,,,,,,,,,,,,,,,,,,,,,,,,,,,,,,3942.2540000011213,,response,,,,,,,,,,,continue,click button,,,,,,,,,105210.64000000115,105206.10500000112,101247.185,101263.82500000182,101263.851,108481.174,,,
Headphone screening,flow.Sequence,0,2021-04-27T09:45:13.644Z,,,,,,,,,,,,,,,,,,,,,,,,,,,,,,82783.00400000112,,completion,,,,,,,,,,,,,,,,,,,,,105210.9100000016,105206.10500000112,22389.769,22404.750000001513,22423.101,108481.174,,,
Instructions,html.Page,1_0,2021-04-27T09:45:34.117Z,,,,,,,,,,,,,,,,,,,,,,,,,,,,,,17202.516000001662,,form submission,,,,,,,,,,,,,,,,,,,,,125684.01500000255,125683.69000000166,108464.508,108478.37500000242,108481.174,125679.475,,,
Holding screen,html.Screen,1_1_0_0,2021-04-27T09:45:44.097Z,,,,,,,,,,,,,,,,,,,,,,,,,,,,,,10016.608999999997,,timeout,,,,,,,,,,,,,,,,,,,,,135665.2200000026,135662.752,125662.809,125684.27000000156,125679.475,135696.084,,,
screen,html.Screen,1_1_0_1_0,2021-04-27T09:45:44.978Z,,,,,,,,,,,,,,,,53,,,,,,,,,,,,,,837.5060000027297,,response,,,,99,,,,,,,Space,keypress(Space),,,,,,,,When -- ----- -- ------ - ------- --- ----------<br>------------- ------ ------ ---- ---- ------- ----- -- ----<br>-------- ------- -- ---------- --- - --- ----- ----- ----<br>---- --- --- ----- --- ---- ---- ------- ----- ---- -------<br>--- --- -- ----- -- --- ---- -- --- ---- -- ------ ------<br>--- ----- -- ----,136545.36500000177,136533.59000000273,135662.752,135665.67000000214,135696.084,136562.716,,0,When
screen,html.Screen,1_1_0_1_1,2021-04-27T09:45:45.415Z,,,,,,,,,,,,,,,,53,,,,,,,,,,,,,,412.1790000030305,,response,,,,99,,,,,,,Space,keypress(Space),,,,,,,,---- it ----- -- ------ - ------- --- ----------<br>------------- ------ ------ ---- ---- ------- ----- -- ----<br>-------- ------- -- ---------- --- - --- ----- ----- ----<br>---- --- --- ----- --- ---- ---- ------- ----- ---- -------<br>--- --- -- ----- -- --- ---- -- --- ---- -- ------ ------<br>--- ----- -- ----,136982.95500000313,136974.89500000302,136546.05,136545.5600000023,136562.716,136996.032,,1,it
screen,html.Screen,1_1_0_1_2,2021-04-27T09:45:45.852Z,,,,,,,,,,,,,,,,53,,,,,,,,,,,,,,415.34299999967334,,response,,,,99,,,,,,,Space,keypress(Space),,,,,,,,---- -- comes -- ------ - ------- --- ----------<br>------------- ------ ------ ---- ---- ------- ----- -- ----<br>-------- ------- -- ---------- --- - --- ----- ----- ----<br>---- --- --- ----- --- ---- ---- ------- ----- ---- -------<br>--- --- -- ----- -- --- ---- -- --- ---- -- ------ ------<br>--- ----- -- ----,137419.55000000235,137411.37499999968,136979.366,136983.15000000002,136996.032,137429.348,,2,comes
screen,html.Screen,1_1_0_1_3,2021-04-27T09:45:46.492Z,,,,,,,,,,,,,,,,53,,,,,,,,,,,,,,622.7820000000356,,response,,,,99,,,,,,,Space,keypress(Space),,,,,,,,---- -- ----- to ------ - ------- --- ----------<br>------------- ------ ------ ---- ---- ------- ----- -- ----<br>-------- ------- -- ---------- --- - --- ----- ----- ----<br>---- --- --- ----- --- ---- ---- ------- ----- ---- -------<br>--- --- -- ----- -- --- ---- -- --- ---- -- ------ ------<br>--- ----- -- ----,138060.27499999982,138052.13000000003,137412.682,137419.74500000288,137429.348,138062.656,,3,to
screen,html.Screen,1_1_0_1_4,2021-04-27T09:45:46.962Z,,,,,,,,,,,,,,,,53,,,,,,,,,,,,,,458.66399999984424,,response,,,,99,,,,,,,Space,keypress(Space),,,,,,,,---- -- ----- -- having - ------- --- ----------<br>------------- ------ ------ ---- ---- ------- ----- -- ----<br>-------- ------- -- ---------- --- - --- ----- ----- ----<br>---- --- --- ----- --- ---- ---- ------- ----- ---- -------<br>--- --- -- ----- -- --- ---- -- --- ---- -- ------ ------<br>--- ----- -- ----,138529.72000000227,138521.31999999983,138045.99,138060.4600000006,138062.656,138545.97,,4,having
screen,html.Screen,1_1_0_1_5,2021-04-27T09:45:47.419Z,,,,,,,,,,,,,,,,53,,,,,,,,,,,,,,433.2700000005716,,response,,,,99,,,,,,,Space,keypress(Space),,,,,,,,---- -- ----- -- ------ a ------- --- ----------<br>------------- ------ ------ ---- ---- ------- ----- -- ----<br>-------- ------- -- ---------- --- - --- ----- ----- ----<br>---- --- --- ----- --- ---- ---- ------- ----- ---- -------<br>--- --- -- ----- -- --- ---- -- --- ---- -- ------ ------<br>--- ----- -- ----,138987.15500000253,138979.24000000057,138529.304,138529.92000000086,138545.97,138995.952,,5,a
screen,html.Screen,1_1_0_1_6,2021-04-27T09:45:47.761Z,,,,,,,,,,,,,,,,53,,,,,,,,,,,,,,325.3830000005546,,response,,,,99,,,,,,,Space,keypress(Space),,,,,,,,---- -- ----- -- ------ - lasting --- ----------<br>------------- ------ ------ ---- ---- ------- ----- -- ----<br>-------- ------- -- ---------- --- - --- ----- ----- ----<br>---- --- --- ----- --- ---- ---- ------- ----- ---- -------<br>--- --- -- ----- -- --- ---- -- --- ---- -- ------ ------<br>--- ----- -- ----,139328.99499999985,139321.33500000054,138979.286,138987.34500000137,138995.952,139345.938,,6,lasting
screen,html.Screen,1_1_0_1_7,2021-04-27T09:45:48.051Z,,,,,,,,,,,,,,,,53,,,,,,,,,,,,,,265.27700000081677,,response,,,,99,,,,,,,Space,keypress(Space),,,,,,,,---- -- ----- -- ------ - ------- and ----------<br>------------- ------ ------ ---- ---- ------- ----- -- ----<br>-------- ------- -- ---------- --- - --- ----- ----- ----<br>---- --- --- ----- --- ---- ---- ------- ----- ---- -------<br>--- --- -- ----- -- --- ---- -- --- ---- -- ------ ------<br>--- ----- -- ----,139619.2050000027,139611.2150000008,139329.272,139329.19500000207,139345.938,139629.26,,7,and
screen,html.Screen,1_1_0_1_8,2021-04-27T09:45:48.460Z,,,,,,,,,,,,,,,,53,,,,,,,,,,,,,,390.90500000171596,,response,,,,99,,,,,,,Space,keypress(Space),,,,,,,,---- -- ----- -- ------ - ------- --- fulfilling<br>------------- ------ ------ ---- ---- ------- ----- -- ----<br>-------- ------- -- ---------- --- - --- ----- ----- ----<br>---- --- --- ----- --- ---- ---- ------- ----- ---- -------<br>--- --- -- ----- -- --- ---- -- --- ---- -- ------ ------<br>--- ----- -- ----,140028.04000000106,140020.16500000173,139612.594,139619.39500000153,139629.26,140029.244,,8,fulfilling
screen,html.Screen,1_1_0_1_9,2021-04-27T09:45:48.812Z,,,,,,,,,,,,,,,,53,,,,,,,,,,,,,,342.92600000236416,,response,,,,99,,,,,,,Space,keypress(Space),,,,,,,,"---- -- ----- -- ------ - ------- --- ----------<br>relationship, ------ ------ ---- ---- ------- ----- -- ----<br>-------- ------- -- ---------- --- - --- ----- ----- ----<br>---- --- --- ----- --- ---- ---- ------- ----- ---- -------<br>--- --- -- ----- -- --- ---- -- --- ---- -- ------ ------<br>--- ----- -- ----",140380.17500000205,140372.17000000237,140012.578,140028.2350000016,140029.244,140395.896,,9,"relationship,"
screen,html.Screen,1_1_0_1_10,2021-04-27T09:45:49.194Z,,,,,,,,,,,,,,,,53,,,,,,,,,,,,,,358.2290000031062,,response,,,,99,,,,,,,Space,keypress(Space),,,,,,,,---- -- ----- -- ------ - ------- --- ----------<br>------------- common ------ ---- ---- ------- ----- -- ----<br>-------- ------- -- ---------- --- - --- ----- ----- ----<br>---- --- --- ----- --- ---- ---- ------- ----- ---- -------<br>--- --- -- ----- -- --- ---- -- --- ---- -- ------ ------<br>--- ----- -- ----,140761.61000000138,140754.1250000031,140379.23,140380.3650000009,140395.896,140762.548,,10,common
screen,html.Screen,1_1_0_1_11,2021-04-27T09:45:49.604Z,,,,,,,,,,,,,,,,53,,,,,,,,,,,,,,401.6820000021253,,response,,,,99,,,,,,,Space,keypress(Space),,,,,,,,---- -- ----- -- ------ - ------- --- ----------<br>------------- ------ wisdom ---- ---- ------- ----- -- ----<br>-------- ------- -- ---------- --- - --- ----- ----- ----<br>---- --- --- ----- --- ---- ---- ------- ----- ---- -------<br>--- --- -- ----- -- --- ---- -- --- ---- -- ------ ------<br>--- ----- -- ----,141172.06000000078,141164.23000000214,140745.882,140761.8050000019,140762.548,141179.198,,11,wisdom
screen,html.Screen,1_1_0_1_12,2021-04-27T09:45:49.952Z,,,,,,,,,,,,,,,,53,,,,,,,,,,,,,,333.29200000097626,,response,,,,99,,,,,,,Space,keypress(Space),,,,,,,,---- -- ----- -- ------ - ------- --- ----------<br>------------- ------ ------ says ---- ------- ----- -- ----<br>-------- ------- -- ---------- --- - --- ----- ----- ----<br>---- --- --- ----- --- ---- ---- ------- ----- ---- -------<br>--- --- -- ----- -- --- ---- -- --- ---- -- ------ ------<br>--- ----- -- ----,141520.27500000258,141512.49000000098,141162.532,141172.260000003,141179.198,141522.158,,12,says
screen,html.Screen,1_1_0_1_13,2021-04-27T09:45:50.312Z,,,,,,,,,,,,,,,,53,,,,,,,,,,,,,,351.1670000004815,,response,,,,99,,,,,,,Space,keypress(Space),,,,,,,,---- -- ----- -- ------ - ------- --- ----------<br>------------- ------ ------ ---- that ------- ----- -- ----<br>-------- ------- -- ---------- --- - --- ----- ----- ----<br>---- --- --- ----- --- ---- ---- ------- ----- ---- -------<br>--- --- -- ----- -- --- ---- -- --- ---- -- ------ ------<br>--- ----- -- ----,141880.44000000082,141873.32500000048,141505.492,141520.47000000312,141522.158,141888.81,,13,that
screen,html.Screen,1_1_0_1_14,2021-04-27T09:45:50.639Z,,,,,,,,,,,,,,,,53,,,,,,,,,,,,,,310.4550000029267,,response,,,,99,,,,,,,Space,keypress(Space),,,,,,,,---- -- ----- -- ------ - ------- --- ----------<br>------------- ------ ------ ---- ---- feeling ----- -- ----<br>-------- ------- -- ---------- --- - --- ----- ----- ----<br>---- --- --- ----- --- ---- ---- ------- ----- ---- -------<br>--- --- -- ----- -- --- ---- -- --- ---- -- ------ ------<br>--- ----- -- ----,142207.110000003,142199.26500000292,141872.144,141880.6500000028,141888.81,142222.13,,14,feeling
screen,html.Screen,1_1_0_1_15,2021-04-27T09:45:50.978Z,,,,,,,,,,,,,,,,53,,,,,,,,,,,,,,315.260000001319,,response,,,,99,,,,,,,Space,keypress(Space),,,,,,,,---- -- ----- -- ------ - ------- --- ----------<br>------------- ------ ------ ---- ---- ------- close -- ----<br>-------- ------- -- ---------- --- - --- ----- ----- ----<br>---- --- --- ----- --- ---- ---- ------- ----- ---- -------<br>--- --- -- ----- -- --- ---- -- --- ---- -- ------ ------<br>--- ----- -- ----,142545.85000000225,142537.39000000132,142205.464,142207.3049999999,142222.13,142555.45,,15,close
screen,html.Screen,1_1_0_1_16,2021-04-27T09:45:51.386Z,,,,,,,,,,,,,,,,53,,,,,,,,,,,,,,390.6450000029581,,response,,,,99,,,,,,,Space,keypress(Space),,,,,,,,---- -- ----- -- ------ - ------- --- ----------<br>------------- ------ ------ ---- ---- ------- ----- to ----<br>-------- ------- -- ---------- --- - --- ----- ----- ----<br>---- --- --- ----- --- ---- ---- ------- ----- ---- -------<br>--- --- -- ----- -- --- ---- -- --- ---- -- ------ ------<br>--- ----- -- ----,142954.02000000104,142946.09500000297,142538.784,142546.04000000108,142555.45,142955.434,,16,to
screen,html.Screen,1_1_0_1_17,2021-04-27T09:45:51.809Z,,,,,,,,,,,,,,,,53,,,,,,,,,,,,,,413.8360000028624,,response,,,,99,,,,,,,Space,keypress(Space),,,,,,,,---- -- ----- -- ------ - ------- --- ----------<br>------------- ------ ------ ---- ---- ------- ----- -- your<br>-------- ------- -- ---------- --- - --- ----- ----- ----<br>---- --- --- ----- --- ---- ---- ------- ----- ---- -------<br>--- --- -- ----- -- --- ---- -- --- ---- -- ------ ------<br>--- ----- -- ----,143377.03500000134,143369.27000000287,142938.768,142954.20999999988,142955.434,143388.75,,17,your
screen,html.Screen,1_1_0_1_18,2021-04-27T09:45:52.363Z,,,,,,,,,,,,,,,,53,,,,,,,,,,,,,,534.4450000030338,,response,,,,99,,,,,,,Space,keypress(Space),,,,,,,,---- -- ----- -- ------ - ------- --- ----------<br>------------- ------ ------ ---- ---- ------- ----- -- ----<br>romantic ------- -- ---------- --- - --- ----- ----- ----<br>---- --- --- ----- --- ---- ---- ------- ----- ---- -------<br>--- --- -- ----- -- --- ---- -- --- ---- -- ------ ------<br>--- ----- -- ----,143930.81000000166,143923.19500000303,143372.084,143377.23499999993,143388.75,143938.728,,18,romantic
screen,html.Screen,1_1_0_1_19,2021-04-27T09:45:52.686Z,,,,,,,,,,,,,,,,53,,,,,,,,,,,,,,307.42700000072364,,response,,,,99,,,,,,,Space,keypress(Space),,,,,,,,---- -- ----- -- ------ - ------- --- ----------<br>------------- ------ ------ ---- ---- ------- ----- -- ----<br>-------- partner -- ---------- --- - --- ----- ----- ----<br>---- --- --- ----- --- ---- ---- ------- ----- ---- -------<br>--- --- -- ----- -- --- ---- -- --- ---- -- ------ ------<br>--- ----- -- ----,144254.18999999965,144246.15500000073,143922.062,143931.0050000022,143938.728,144255.382,,19,partner
screen,html.Screen,1_1_0_1_20,2021-04-27T09:45:53.052Z,,,,,,,,,,,,,,,,53,,,,,,,,,,,,,,355.67300000120304,,response,,,,99,,,,,,,Space,keypress(Space),,,,,,,,---- -- ----- -- ------ - ------- --- ----------<br>------------- ------ ------ ---- ---- ------- ----- -- ----<br>-------- ------- is ---------- --- - --- ----- ----- ----<br>---- --- --- ----- --- ---- ---- ------- ----- ---- -------<br>--- --- -- ----- -- --- ---- -- --- ---- -- ------ ------<br>--- ----- -- ----,144619.69500000123,144611.05500000122,144238.716,144254.37500000044,144255.382,144622.034,,20,is
screen,html.Screen,1_1_0_1_21,2021-04-27T09:45:53.361Z,,,,,,,,,,,,,,,,53,,,,,,,,,,,,,,299.0010000030161,,response,,,,99,,,,,,,Space,keypress(Space),,,,,,,,---- -- ----- -- ------ - ------- --- ----------<br>------------- ------ ------ ---- ---- ------- ----- -- ----<br>-------- ------- -- paramount. --- - --- ----- ----- ----<br>---- --- --- ----- --- ---- ---- ------- ----- ---- -------<br>--- --- -- ----- -- --- ---- -- --- ---- -- ------ ------<br>--- ----- -- ----,144928.86500000168,144921.03500000303,144605.368,144619.88500000007,144622.034,144938.688,,21,paramount.
screen,html.Screen,1_1_0_1_22,2021-04-27T09:45:53.988Z,,,,,,,,,,,,,,,,53,,,,,,,,,,,,,,609.3370000000577,,response,,,,99,,,,,,,Space,keypress(Space),,,,,,,,---- -- ----- -- ------ - ------- --- ----------<br>------------- ------ ------ ---- ---- ------- ----- -- ----<br>-------- ------- -- ---------- But - --- ----- ----- ----<br>---- --- --- ----- --- ---- ---- ------- ----- ---- -------<br>--- --- -- ----- -- --- ---- -- --- ---- -- ------ ------<br>--- ----- -- ----,145555.8400000009,145548.02500000005,144922.022,144929.0600000022,144938.688,145571.996,,22,But
screen,html.Screen,1_1_0_1_23,2021-04-27T09:45:54.588Z,,,,,,,,,,,,,,,,53,,,,,,,,,,,,,,576.0340000002761,,response,,,,99,,,,,,,Space,keypress(Space),,,,,,,,---- -- ----- -- ------ - ------- --- ----------<br>------------- ------ ------ ---- ---- ------- ----- -- ----<br>-------- ------- -- ---------- --- a --- ----- ----- ----<br>---- --- --- ----- --- ---- ---- ------- ----- ---- -------<br>--- --- -- ----- -- --- ---- -- --- ---- -- ------ ------<br>--- ----- -- ----,146156.2350000022,146148.0300000003,145555.33,145556.04500000118,145571.996,146171.972,,23,a
screen,html.Screen,1_1_0_1_24,2021-04-27T09:45:54.959Z,,,,,,,,,,,,,,,,53,,,,,,,,,,,,,,347.21800000270014,,response,,,,99,,,,,,,Space,keypress(Space),,,,,,,,---- -- ----- -- ------ - ------- --- ----------<br>------------- ------ ------ ---- ---- ------- ----- -- ----<br>-------- ------- -- ---------- --- - new ----- ----- ----<br>---- --- --- ----- --- ---- ---- ------- ----- ---- -------<br>--- --- -- ----- -- --- ---- -- --- ---- -- ------ ------<br>--- ----- -- ----,146527.28500000012,146519.1900000027,146155.306,146156.70000000318,146171.972,146538.624,,24,new
screen,html.Screen,1_1_0_1_25,2021-04-27T09:45:55.368Z,,,,,,,,,,,,,,,,53,,,,,,,,,,,,,,389.52599999972153,,response,,,,99,,,,,,,Space,keypress(Space),,,,,,,,---- -- ----- -- ------ - ------- --- ----------<br>------------- ------ ------ ---- ---- ------- ----- -- ----<br>-------- ------- -- ---------- --- - --- study ----- ----<br>---- --- --- ----- --- ---- ---- ------- ----- ---- -------<br>--- --- -- ----- -- --- ---- -- --- ---- -- ------ ------<br>--- ----- -- ----,146936.01000000126,146928.14999999973,146521.958,146527.4750000026,146538.624,146938.608,,25,study
screen,html.Screen,1_1_0_1_26,2021-04-27T09:45:55.716Z,,,,,,,,,,,,,,,,53,,,,,,,,,,,,,,337.36700000046403,,response,,,,99,,,,,,,Space,keypress(Space),,,,,,,,---- -- ----- -- ------ - ------- --- ----------<br>------------- ------ ------ ---- ---- ------- ----- -- ----<br>-------- ------- -- ---------- --- - --- ----- finds ----<br>---- --- --- ----- --- ---- ---- ------- ----- ---- -------<br>--- --- -- ----- -- --- ---- -- --- ---- -- ------ ------<br>--- ----- -- ----,147284.1550000012,147275.97500000047,146921.942,146936.2050000018,146938.608,147288.594,,26,finds
screen,html.Screen,1_1_0_1_27,2021-04-27T09:45:56.050Z,,,,,,,,,,,,,,,,53,,,,,,,,,,,,,,321.3709999996354,,response,,,,99,,,,,,,Space,keypress(Space),,,,,,,,---- -- ----- -- ------ - ------- --- ----------<br>------------- ------ ------ ---- ---- ------- ----- -- ----<br>-------- ------- -- ---------- --- - --- ----- ----- that<br>---- --- --- ----- --- ---- ---- ------- ----- ---- -------<br>--- --- -- ----- -- --- ---- -- --- ---- -- ------ ------<br>--- ----- -- ----,147617.82000000312,147609.96499999965,147271.928,147284.34500000003,147288.594,147621.914,,27,that
screen,html.Screen,1_1_0_1_28,2021-04-27T09:45:56.356Z,,,,,,,,,,,,,,,,53,,,,,,,,,,,,,,294.3060000028054,,response,,,,99,,,,,,,Space,keypress(Space),,,,,,,,---- -- ----- -- ------ - ------- --- ----------<br>------------- ------ ------ ---- ---- ------- ----- -- ----<br>-------- ------- -- ---------- --- - --- ----- ----- ----<br>it's --- --- ----- --- ---- ---- ------- ----- ---- -------<br>--- --- -- ----- -- --- ---- -- --- ---- -- ------ ------<br>--- ----- -- ----,147924.10500000187,147916.2200000028,147605.248,147618.07500000214,147621.914,147938.568,,28,it's
screen,html.Screen,1_1_0_1_29,2021-04-27T09:45:56.652Z,,,,,,,,,,,,,,,,53,,,,,,,,,,,,,,272.37200000084704,,response,,,,99,,,,,,,Space,keypress(Space),,,,,,,,---- -- ----- -- ------ - ------- --- ----------<br>------------- ------ ------ ---- ---- ------- ----- -- ----<br>-------- ------- -- ---------- --- - --- ----- ----- ----<br>---- not --- ----- --- ---- ---- ------- ----- ---- -------<br>--- --- -- ----- -- --- ---- -- --- ---- -- ------ ------<br>--- ----- -- ----,148219.9099999998,148210.94000000085,147921.902,147924.31000000215,147938.568,148221.89,,29,not
screen,html.Screen,1_1_0_1_30,2021-04-27T09:45:56.974Z,,,,,,,,,,,,,,,,53,,,,,,,,,,,,,,312.17000000175904,,response,,,,99,,,,,,,Space,keypress(Space),,,,,,,,---- -- ----- -- ------ - ------- --- ----------<br>------------- ------ ------ ---- ---- ------- ----- -- ----<br>-------- ------- -- ---------- --- - --- ----- ----- ----<br>---- --- how ----- --- ---- ---- ------- ----- ---- -------<br>--- --- -- ----- -- --- ---- -- --- ---- -- ------ ------<br>--- ----- -- ----,148542.3350000019,148534.06000000177,148205.224,148220.10000000228,148221.89,148555.21,,30,how
screen,html.Screen,1_1_0_1_31,2021-04-27T09:45:57.362Z,,,,,,,,,,,,,,,,53,,,,,,,,,,,,,,366.83500000298955,,response,,,,99,,,,,,,Space,keypress(Space),,,,,,,,---- -- ----- -- ------ - ------- --- ----------<br>------------- ------ ------ ---- ---- ------- ----- -- ----<br>-------- ------- -- ---------- --- - --- ----- ----- ----<br>---- --- --- close --- ---- ---- ------- ----- ---- -------<br>--- --- -- ----- -- --- ---- -- --- ---- -- ------ ------<br>--- ----- -- ----,148930.07500000022,148922.04500000298,148538.544,148543.99000000194,148555.21,148938.528,,31,close
screen,html.Screen,1_1_0_1_32,2021-04-27T09:45:57.707Z,,,,,,,,,,,,,,,,53,,,,,,,,,,,,,,328.63200000306824,,response,,,,99,,,,,,,Space,keypress(Space),,,,,,,,---- -- ----- -- ------ - ------- --- ----------<br>------------- ------ ------ ---- ---- ------- ----- -- ----<br>-------- ------- -- ---------- --- - --- ----- ----- ----<br>---- --- --- ----- you ---- ---- ------- ----- ---- -------<br>--- --- -- ----- -- --- ---- -- --- ---- -- ------ ------<br>--- ----- -- ----,149274.91500000178,149267.16000000306,148921.862,148930.25500000294,148938.528,149288.514,,32,you
screen,html.Screen,1_1_0_1_33,2021-04-27T09:45:58.008Z,,,,,,,,,,,,,,,,53,,,,,,,,,,,,,,280.48100000145496,,response,,,,99,,,,,,,Space,keypress(Space),,,,,,,,---- -- ----- -- ------ - ------- --- ----------<br>------------- ------ ------ ---- ---- ------- ----- -- ----<br>-------- ------- -- ---------- --- - --- ----- ----- ----<br>---- --- --- ----- --- feel ---- ------- ----- ---- -------<br>--- --- -- ----- -- --- ---- -- --- ---- -- ------ ------<br>--- ----- -- ----,149576.6250000015,149568.99500000145,149271.848,149275.09000000282,149288.514,149588.502,,33,feel
screen,html.Screen,1_1_0_1_34,2021-04-27T09:45:58.325Z,,,,,,,,,,,,,,,,53,,,,,,,,,,,,,,296.33300000074087,,response,,,,99,,,,,,,Space,keypress(Space),,,,,,,,---- -- ----- -- ------ - ------- --- ----------<br>------------- ------ ------ ---- ---- ------- ----- -- ----<br>-------- ------- -- ---------- --- - --- ----- ----- ----<br>---- --- --- ----- --- ---- that ------- ----- ---- -------<br>--- --- -- ----- -- --- ---- -- --- ---- -- ------ ------<br>--- ----- -- ----,149892.96000000104,149884.83500000075,149571.836,149576.79500000086,149588.502,149905.156,,34,that
screen,html.Screen,1_1_0_1_35,2021-04-27T09:45:58.652Z,,,,,,,,,,,,,,,,53,,,,,,,,,,,,,,307.3840000004566,,response,,,,99,,,,,,,Space,keypress(Space),,,,,,,,---- -- ----- -- ------ - ------- --- ----------<br>------------- ------ ------ ---- ---- ------- ----- -- ----<br>-------- ------- -- ---------- --- - --- ----- ----- ----<br>---- --- --- ----- --- ---- ---- matters ----- ---- -------<br>--- --- -- ----- -- --- ---- -- --- ---- -- ------ ------<br>--- ----- -- ----,150220.5900000008,150212.54000000044,149888.49,149894.9300000022,149905.156,150221.81,,35,matters
screen,html.Screen,1_1_0_1_36,2021-04-27T09:45:58.962Z,,,,,,,,,,,,,,,,53,,,,,,,,,,,,,,300.2450000012759,,response,,,,99,,,,,,,Space,keypress(Space),,,,,,,,"---- -- ----- -- ------ - ------- --- ----------<br>------------- ------ ------ ---- ---- ------- ----- -- ----<br>-------- ------- -- ---------- --- - --- ----- ----- ----<br>---- --- --- ----- --- ---- ---- ------- most, ---- -------<br>--- --- -- ----- -- --- ---- -- --- ---- -- ------ ------<br>--- ----- -- ----",150529.80500000194,150522.05500000127,150205.144,150220.78500000134,150221.81,150538.464,,36,"most,"
screen,html.Screen,1_1_0_1_37,2021-04-27T09:45:59.309Z,,,,,,,,,,,,,,,,53,,,,,,,,,,,,,,330.33100000213017,,response,,,,99,,,,,,,Space,keypress(Space),,,,,,,,---- -- ----- -- ------ - ------- --- ----------<br>------------- ------ ------ ---- ---- ------- ----- -- ----<br>-------- ------- -- ---------- --- - --- ----- ----- ----<br>---- --- --- ----- --- ---- ---- ------- ----- it's -------<br>--- --- -- ----- -- --- ---- -- --- ---- -- ------ ------<br>--- ----- -- ----,150877.1450000022,150868.79500000214,150521.798,150529.99500000078,150538.464,150888.45,,37,it's
screen,html.Screen,1_1_0_1_38,2021-04-27T09:45:59.646Z,,,,,,,,,,,,,,,,53,,,,,,,,,,,,,,317.4300000013318,,response,,,,99,,,,,,,Space,keypress(Space),,,,,,,,---- -- ----- -- ------ - ------- --- ----------<br>------------- ------ ------ ---- ---- ------- ----- -- ----<br>-------- ------- -- ---------- --- - --- ----- ----- ----<br>---- --- --- ----- --- ---- ---- ------- ----- ---- whether<br>--- --- -- ----- -- --- ---- -- --- ---- -- ------ ------<br>--- ----- -- ----,151213.86500000153,151205.88000000134,150871.784,150877.33000000298,150888.45,151221.77,,38,whether
screen,html.Screen,1_1_0_1_39,2021-04-27T09:45:59.958Z,,,,,,,,,,,,,,,,53,,,,,,,,,,,,,,296.8750000001164,,response,,,,99,,,,,,,Space,keypress(Space),,,,,,,,---- -- ----- -- ------ - ------- --- ----------<br>------------- ------ ------ ---- ---- ------- ----- -- ----<br>-------- ------- -- ---------- --- - --- ----- ----- ----<br>---- --- --- ----- --- ---- ---- ------- ----- ---- -------<br>you --- -- ----- -- --- ---- -- --- ---- -- ------ ------<br>--- ----- -- ----,151526.42000000196,151518.6450000001,151205.104,151214.03500000088,151221.77,151537.571,,39,you
screen,html.Screen,1_1_0_1_40,2021-04-27T09:46:00.316Z,,,,,,,,,,,,,,,,53,,,,,,,,,,,,,,339.2339999998803,,response,,,,99,,,,,,,Space,keypress(Space),,,,,,,,---- -- ----- -- ------ - ------- --- ----------<br>------------- ------ ------ ---- ---- ------- ----- -- ----<br>-------- ------- -- ---------- --- - --- ----- ----- ----<br>---- --- --- ----- --- ---- ---- ------- ----- ---- -------<br>--- are -- ----- -- --- ---- -- --- ---- -- ------ ------<br>--- ----- -- ----,151884.36000000002,151876.80499999988,151520.905,151526.58500000325,151537.571,151887.557,,40,are
screen,html.Screen,1_1_0_1_41,2021-04-27T09:46:00.606Z,,,,,,,,,,,,,,,,53,,,,,,,,,,,,,,279.54800000044634,,response,,,,99,,,,,,,Space,keypress(Space),,,,,,,,---- -- ----- -- ------ - ------- --- ----------<br>------------- ------ ------ ---- ---- ------- ----- -- ----<br>-------- ------- -- ---------- --- - --- ----- ----- ----<br>---- --- --- ----- --- ---- ---- ------- ----- ---- -------<br>--- --- as ----- -- --- ---- -- --- ---- -- ------ ------<br>--- ----- -- ----,152174.65500000253,152167.10500000045,151870.891,151884.530000003,151887.557,152187.545,,41,as
screen,html.Screen,1_1_0_1_42,2021-04-27T09:46:00.951Z,,,,,,,,,,,,,,,,53,,,,,,,,,,,,,,324.5050000011688,,response,,,,99,,,,,,,Space,keypress(Space),,,,,,,,---- -- ----- -- ------ - ------- --- ----------<br>------------- ------ ------ ---- ---- ------- ----- -- ----<br>-------- ------- -- ---------- --- - --- ----- ----- ----<br>---- --- --- ----- --- ---- ---- ------- ----- ---- -------<br>--- --- -- close -- --- ---- -- --- ---- -- ------ ------<br>--- ----- -- ----,152519.77500000066,152512.05000000118,152170.879,152174.82000000018,152187.545,152520.865,,42,close
screen,html.Screen,1_1_0_1_43,2021-04-27T09:46:01.291Z,,,,,,,,,,,,,,,,53,,,,,,,,,,,,,,331.09499999997206,,response,,,,99,,,,,,,Space,keypress(Space),,,,,,,,---- -- ----- -- ------ - ------- --- ----------<br>------------- ------ ------ ---- ---- ------- ----- -- ----<br>-------- ------- -- ---------- --- - --- ----- ----- ----<br>---- --- --- ----- --- ---- ---- ------- ----- ---- -------<br>--- --- -- ----- as --- ---- -- --- ---- -- ------ ------<br>--- ----- -- ----,152859.83500000293,152851.95999999996,152504.199,152519.945,152520.865,152870.851,,43,as
screen,html.Screen,1_1_0_1_44,2021-04-27T09:46:01.682Z,,,,,,,,,,,,,,,,53,,,,,,,,,,,,,,370.98400000072434,,response,,,,99,,,,,,,Space,keypress(Space),,,,,,,,---- -- ----- -- ------ - ------- --- ----------<br>------------- ------ ------ ---- ---- ------- ----- -- ----<br>-------- ------- -- ---------- --- - --- ----- ----- ----<br>---- --- --- ----- --- ---- ---- ------- ----- ---- -------<br>--- --- -- ----- -- you ---- -- --- ---- -- ------ ------<br>--- ----- -- ----,153250.5450000026,153241.83500000072,152854.185,152860.00000000058,152870.851,153254.169,,44,you
screen,html.Screen,1_1_0_1_45,2021-04-27T09:46:02.131Z,,,,,,,,,,,,,,,,53,,,,,,,,,,,,,,437.7210000018822,,response,,,,99,,,,,,,Space,keypress(Space),,,,,,,,---- -- ----- -- ------ - ------- --- ----------<br>------------- ------ ------ ---- ---- ------- ----- -- ----<br>-------- ------- -- ---------- --- - --- ----- ----- ----<br>---- --- --- ----- --- ---- ---- ------- ----- ---- -------<br>--- --- -- ----- -- --- want -- --- ---- -- ------ ------<br>--- ----- -- ----,153699.87000000037,153691.89000000188,153237.503,153250.80499999967,153254.169,153704.151,,45,want
screen,html.Screen,1_1_0_1_46,2021-04-27T09:46:02.479Z,,,,,,,,,,,,,,,,53,,,,,,,,,,,,,,335.9040000012901,,response,,,,99,,,,,,,Space,keypress(Space),,,,,,,,---- -- ----- -- ------ - ------- --- ----------<br>------------- ------ ------ ---- ---- ------- ----- -- ----<br>-------- ------- -- ---------- --- - --- ----- ----- ----<br>---- --- --- ----- --- ---- ---- ------- ----- ---- -------<br>--- --- -- ----- -- --- ---- to --- ---- -- ------ ------<br>--- ----- -- ----,154047.79000000053,154040.0550000013,153687.485,153701.9700000019,153704.151,154054.137,,46,to
screen,html.Screen,1_1_0_1_47,2021-04-27T09:46:02.808Z,,,,,,,,,,,,,,,,53,,,,,,,,,,,,,,314.77300000106334,,response,,,,99,,,,,,,Space,keypress(Space),,,,,,,,"---- -- ----- -- ------ - ------- --- ----------<br>------------- ------ ------ ---- ---- ------- ----- -- ----<br>-------- ------- -- ---------- --- - --- ----- ----- ----<br>---- --- --- ----- --- ---- ---- ------- ----- ---- -------<br>--- --- -- ----- -- --- ---- -- be, ---- -- ------ ------<br>--- ----- -- ----",154376.8600000003,154368.91000000105,154037.471,154048.1550000004,154054.137,154387.457,,47,"be,"
screen,html.Screen,1_1_0_1_48,2021-04-27T09:46:03.157Z,,,,,,,,,,,,,,,,53,,,,,,,,,,,,,,329.73800000108895,,response,,,,99,,,,,,,Space,keypress(Space),,,,,,,,---- -- ----- -- ------ - ------- --- ----------<br>------------- ------ ------ ---- ---- ------- ----- -- ----<br>-------- ------- -- ---------- --- - --- ----- ----- ----<br>---- --- --- ----- --- ---- ---- ------- ----- ---- -------<br>--- --- -- ----- -- --- ---- -- --- even -- ------ ------<br>--- ----- -- ----,154724.98500000074,154717.19500000108,154370.791,154377.0199999999,154387.457,154737.443,,48,even
screen,html.Screen,1_1_0_1_49,2021-04-27T09:46:03.496Z,,,,,,,,,,,,,,,,53,,,,,,,,,,,,,,319.35700000211364,,response,,,,99,,,,,,,Space,keypress(Space),,,,,,,,---- -- ----- -- ------ - ------- --- ----------<br>------------- ------ ------ ---- ---- ------- ----- -- ----<br>-------- ------- -- ---------- --- - --- ----- ----- ----<br>---- --- --- ----- --- ---- ---- ------- ----- ---- -------<br>--- --- -- ----- -- --- ---- -- --- ---- if ------ ------<br>--- ----- -- ----,155064.70000000263,155056.8000000021,154720.777,154725.14500000034,154737.443,155070.763,,49,if
screen,html.Screen,1_1_0_1_50,2021-04-27T09:46:03.820Z,,,,,,,,,,,,,,,,53,,,,,,,,,,,,,,310.1020000028075,,response,,,,99,,,,,,,Space,keypress(Space),,,,,,,,---- -- ----- -- ------ - ------- --- ----------<br>------------- ------ ------ ---- ---- ------- ----- -- ----<br>-------- ------- -- ---------- --- - --- ----- ----- ----<br>---- --- --- ----- --- ---- ---- ------- ----- ---- -------<br>--- --- -- ----- -- --- ---- -- --- ---- -- that's ------<br>--- ----- -- ----,155388.4050000015,155380.8650000028,155054.097,155064.86000000223,155070.763,155404.083,,50,that's
screen,html.Screen,1_1_0_1_51,2021-04-27T09:46:04.173Z,,,,,,,,,,,,,,,,53,,,,,,,,,,,,,,329.8920000028156,,response,,,,99,,,,,,,Space,keypress(Space),,,,,,,,---- -- ----- -- ------ - ------- --- ----------<br>------------- ------ ------ ---- ---- ------- ----- -- ----<br>-------- ------- -- ---------- --- - --- ----- ----- ----<br>---- --- --- ----- --- ---- ---- ------- ----- ---- -------<br>--- --- -- ----- -- --- ---- -- --- ---- -- ------ really<br>--- ----- -- ----,155741.9000000009,155733.97500000283,155387.417,155388.57500000086,155404.083,155754.069,,51,really
screen,html.Screen,1_1_0_1_52,2021-04-27T09:46:04.465Z,,,,,,,,,,,,,,,,53,,,,,,,,,,,,,,271.70100000020466,,response,,,,99,,,,,,,Space,keypress(Space),,,,,,,,---- -- ----- -- ------ - ------- --- ----------<br>------------- ------ ------ ---- ---- ------- ----- -- ----<br>-------- ------- -- ---------- --- - --- ----- ----- ----<br>---- --- --- ----- --- ---- ---- ------- ----- ---- -------<br>--- --- -- ----- -- --- ---- -- --- ---- -- ------ ------<br>not ----- -- ----,156033.73000000283,156025.7700000002,155737.403,155742.0600000005,155754.069,156037.391,,52,not
screen,html.Screen,1_1_0_1_53,2021-04-27T09:46:04.760Z,,,,,,,,,,,,,,,,53,,,,,,,,,,,,,,283.3939999998838,,response,,,,99,,,,,,,Space,keypress(Space),,,,,,,,---- -- ----- -- ------ - ------- --- ----------<br>------------- ------ ------ ---- ---- ------- ----- -- ----<br>-------- ------- -- ---------- --- - --- ----- ----- ----<br>---- --- --- ----- --- ---- ---- ------- ----- ---- -------<br>--- --- -- ----- -- --- ---- -- --- ---- -- ------ ------<br>--- close -- ----,156328.89500000238,156320.7849999999,156020.725,156033.91000000192,156037.391,156337.379,,53,close
screen,html.Screen,1_1_0_1_54,2021-04-27T09:46:05.126Z,,,,,,,,,,,,,,,,53,,,,,,,,,,,,,,349.2210000009218,,response,,,,99,,,,,,,Space,keypress(Space),,,,,,,,---- -- ----- -- ------ - ------- --- ----------<br>------------- ------ ------ ---- ---- ------- ----- -- ----<br>-------- ------- -- ---------- --- - --- ----- ----- ----<br>---- --- --- ----- --- ---- ---- ------- ----- ---- -------<br>--- --- -- ----- -- --- ---- -- --- ---- -- ------ ------<br>--- ----- at ----,156694.38000000082,156686.6000000009,156320.713,156329.06000000003,156337.379,156704.031,,54,at
screen,html.Screen,1_1_0_1_55,2021-04-27T09:46:05.496Z,,,,,,,,,,,,,,,,53,,,,,,,,,,,,,,352.814000002807,,response,,,,99,,,,,,,Space,keypress(Space),,,,,,,,---- -- ----- -- ------ - ------- --- ----------<br>------------- ------ ------ ---- ---- ------- ----- -- ----<br>-------- ------- -- ---------- --- - --- ----- ----- ----<br>---- --- --- ----- --- ---- ---- ------- ----- ---- -------<br>--- --- -- ----- -- --- ---- -- --- ---- -- ------ ------<br>--- ----- -- all.,157064.6850000012,157056.8450000028,156687.365,156694.5650000016,156704.031,157070.683,,55,all.
Item 99,flow.Loop,1_1_0_1,2021-04-27T09:46:05.497Z,,,,,,,,,,,,,,,,,,,,,,,,,,,,,,21360.761000002793,,completion,,,,,B,,,,,,,,,,,silence,,,,,157065.0650000025,157056.8450000028,135662.752,135665.54000000178,135696.084,157070.683,,,
Question 1,html.Screen,1_1_0_2,2021-04-27T09:46:11.576Z,,,,,,,,,,,,,,,,,,,,,,,,,,,true,FALSE,,6069.037000002863,,response,,,,99,B,,,,,,FALSE,click #choice-2,,,,silence,,,,,163144.37499999985,163139.72000000285,157054.017,157065.38999999975,157070.683,163150.85,,,
Question 2,html.Screen,1_1_0_3,2021-04-27T09:46:16.910Z,,,,,,,,,,,,,,,,,,,,,,,,,,,true,TRUE,,5323.970000003086,,response,,,,99,B,,,,,,TRUE,click #choice-1,,,,silence,,,,,168479.01000000275,168474.8200000031,163134.184,163144.62500000081,163150.85,168483.97,,,
Item 99,flow.Sequence,1_1_0,2021-04-27T09:46:16.910Z,,,,,,,,,,,,,,,,,,,,,,,,,,,,,,42795.345000003086,,completion,,,,,,,,,,,,,,,,,,,,,168479.2750000015,168474.8200000031,125662.809,125684.23500000063,125679.475,168483.97,,,
Holding screen,html.Screen,1_1_1_0,2021-04-27T09:46:26.902Z,,,,,,,,,,,,,,,,,,,,,,,,,,,,,,10001.073000000004,,timeout,,,,,,,,,,,,,,,,,,,,,178471.09000000273,178468.377,168467.304,168479.4350000011,168483.97,178485.043,,,
screen,html.Screen,1_1_1_1_0,2021-04-27T09:46:27.698Z,,,,,,,,,,,,,,,,54,,,,,,,,,,,,,,773.1620000019029,,response,,,,100,,,,,,,Space,keypress(Space),,,,,,,,At --- ---- --- ------ ----- ------- ---- -- --- ------- --<br>------- ---------- ------ -- ----- -- ----- -- ---- ------<br>--- ----- --- --- ------ -------- ----- --- ------ ----- --<br>----- ----- ---------- --- --- ------ ------ ---- -- ------<br>------- --- ------ ----- --- ---- ------- -- ---- --- --<br>------- ------,179266.97500000228,179258.2050000019,178468.377,178471.4950000016,178485.043,179268.345,,0,At
screen,html.Screen,1_1_1_1_1,2021-04-27T09:46:28.159Z,,,,,,,,,,,,,,,,54,,,,,,,,,,,,,,452.10000000265427,,response,,,,100,,,,,,,Space,keypress(Space),,,,,,,,-- the ---- --- ------ ----- ------- ---- -- --- ------- --<br>------- ---------- ------ -- ----- -- ----- -- ---- ------<br>--- ----- --- --- ------ -------- ----- --- ------ ----- --<br>----- ----- ---------- --- --- ------ ------ ---- -- ------<br>------- --- ------ ----- --- ---- ------- -- ---- --- --<br>------- ------,179728.5800000027,179720.44500000266,179251.679,179267.1650000011,179268.345,179734.993,,1,the
screen,html.Screen,1_1_1_1_2,2021-04-27T09:46:28.492Z,,,,,,,,,,,,,,,,54,,,,,,,,,,,,,,318.182000000932,,response,,,,100,,,,,,,Space,keypress(Space),,,,,,,,-- --- time --- ------ ----- ------- ---- -- --- ------- --<br>------- ---------- ------ -- ----- -- ----- -- ---- ------<br>--- ----- --- --- ------ -------- ----- --- ------ ----- --<br>----- ----- ---------- --- --- ------ ------ ---- -- ------<br>------- --- ------ ----- --- ---- ------- -- ---- --- --<br>------- ------,180061.34999999995,180053.17500000092,179718.327,179728.7400000023,179734.993,180068.313,,2,time
screen,html.Screen,1_1_1_1_3,2021-04-27T09:46:28.811Z,,,,,,,,,,,,,,,,54,,,,,,,,,,,,,,304.7770000009623,,response,,,,100,,,,,,,Space,keypress(Space),,,,,,,,-- --- ---- the ------ ----- ------- ---- -- --- ------- --<br>------- ---------- ------ -- ----- -- ----- -- ---- ------<br>--- ----- --- --- ------ -------- ----- --- ------ ----- --<br>----- ----- ---------- --- --- ------ ------ ---- -- ------<br>------- --- ------ ----- --- ---- ------- -- ---- --- --<br>------- ------,180380.68000000203,180373.09000000096,180051.647,180061.5050000015,180068.313,180384.967,,3,the
screen,html.Screen,1_1_1_1_4,2021-04-27T09:46:29.211Z,,,,,,,,,,,,,,,,54,,,,,,,,,,,,,,387.15300000144634,,response,,,,100,,,,,,,Space,keypress(Space),,,,,,,,-- --- ---- --- French ----- ------- ---- -- --- ------- --<br>------- ---------- ------ -- ----- -- ----- -- ---- ------<br>--- ----- --- --- ------ -------- ----- --- ------ ----- --<br>----- ----- ---------- --- --- ------ ------ ---- -- ------<br>------- --- ------ ----- --- ---- ------- -- ---- --- --<br>------- ------,180779.97000000323,180772.12000000145,180368.301,180380.84499999968,180384.967,180784.951,,4,French
screen,html.Screen,1_1_1_1_5,2021-04-27T09:46:29.582Z,,,,,,,,,,,,,,,,54,,,,,,,,,,,,,,358.2990000009886,,response,,,,100,,,,,,,Space,keypress(Space),,,,,,,,-- --- ---- --- ------ crown ------- ---- -- --- ------- --<br>------- ---------- ------ -- ----- -- ----- -- ---- ------<br>--- ----- --- --- ------ -------- ----- --- ------ ----- --<br>----- ----- ---------- --- --- ------ ------ ---- -- ------<br>------- --- ------ ----- --- ---- ------- -- ---- --- --<br>------- ------,181150.9299999998,181143.250000001,180768.285,180780.13500000088,180784.951,181168.269,,5,crown
screen,html.Screen,1_1_1_1_6,2021-04-27T09:46:29.927Z,,,,,,,,,,,,,,,,54,,,,,,,,,,,,,,319.84100000205217,,response,,,,100,,,,,,,Space,keypress(Space),,,,,,,,-- --- ---- --- ------ ----- secured ---- -- --- ------- --<br>------- ---------- ------ -- ----- -- ----- -- ---- ------<br>--- ----- --- --- ------ -------- ----- --- ------ ----- --<br>----- ----- ---------- --- --- ------ ------ ---- -- ------<br>------- --- ------ ----- --- ---- ------- -- ---- --- --<br>------- ------,181496.07000000105,181488.11000000205,181151.603,181151.09500000108,181168.269,181501.589,,6,secured
screen,html.Screen,1_1_1_1_7,2021-04-27T09:46:30.273Z,,,,,,,,,,,,,,,,54,,,,,,,,,,,,,,332.5660000004573,,response,,,,100,,,,,,,Space,keypress(Space),,,,,,,,-- --- ---- --- ------ ----- ------- much -- --- ------- --<br>------- ---------- ------ -- ----- -- ----- -- ---- ------<br>--- ----- --- --- ------ -------- ----- --- ------ ----- --<br>----- ----- ---------- --- --- ------ ------ ---- -- ------<br>------- --- ------ ----- --- ---- ------- -- ---- --- --<br>------- ------,181841.94500000012,181834.15500000046,181484.923,181496.2400000004,181501.589,181851.575,,7,much
screen,html.Screen,1_1_1_1_8,2021-04-27T09:46:30.604Z,,,,,,,,,,,,,,,,54,,,,,,,,,,,,,,313.5050000024785,,response,,,,100,,,,,,,Space,keypress(Space),,,,,,,,-- --- ---- --- ------ ----- ------- ---- of --- ------- --<br>------- ---------- ------ -- ----- -- ----- -- ---- ------<br>--- ----- --- --- ------ -------- ----- --- ------ ----- --<br>----- ----- ---------- --- --- ------ ------ ---- -- ------<br>------- --- ------ ----- --- ---- ------- -- ---- --- --<br>------- ------,182173.060000001,182165.0800000025,181834.909,181842.10000000166,181851.575,182184.895,,8,of
screen,html.Screen,1_1_1_1_9,2021-04-27T09:46:30.937Z,,,,,,,,,,,,,,,,54,,,,,,,,,,,,,,314.1750000016764,,response,,,,100,,,,,,,Space,keypress(Space),,,,,,,,-- --- ---- --- ------ ----- ------- ---- -- its ------- --<br>------- ---------- ------ -- ----- -- ----- -- ---- ------<br>--- ----- --- --- ------ -------- ----- --- ------ ----- --<br>----- ----- ---------- --- --- ------ ------ ---- -- ------<br>------- --- ------ ----- --- ---- ------- -- ---- --- --<br>------- ------,182506.84499999988,182499.07000000167,182168.229,182173.22500000228,182184.895,182519.424,,9,its
screen,html.Screen,1_1_1_1_10,2021-04-27T09:46:31.333Z,,,,,,,,,,,,,,,,54,,,,,,,,,,,,,,374.66099999990547,,response,,,,100,,,,,,,Space,keypress(Space),,,,,,,,-- --- ---- --- ------ ----- ------- ---- -- --- revenue --<br>------- ---------- ------ -- ----- -- ----- -- ---- ------<br>--- ----- --- --- ------ -------- ----- --- ------ ----- --<br>----- ----- ---------- --- --- ------ ------ ---- -- ------<br>------- --- ------ ----- --- ---- ------- -- ---- --- --<br>------- ------,182901.96000000287,182894.0849999999,182502.758,182507.00500000312,182519.424,182919.408,,10,revenue
screen,html.Screen,1_1_1_1_11,2021-04-27T09:46:31.818Z,,,,,,,,,,,,,,,,54,,,,,,,,,,,,,,459.9420000028913,,response,,,,100,,,,,,,Space,keypress(Space),,,,,,,,-- --- ---- --- ------ ----- ------- ---- -- --- ------- by<br>------- ---------- ------ -- ----- -- ----- -- ---- ------<br>--- ----- --- --- ------ -------- ----- --- ------ ----- --<br>----- ----- ---------- --- --- ------ ------ ---- -- ------<br>------- --- ------ ----- --- ---- ------- -- ---- --- --<br>------- ------,183387.19000000128,183379.3500000029,182902.742,182902.11500000078,182919.408,183402.722,,11,by
screen,html.Screen,1_1_1_1_12,2021-04-27T09:46:32.205Z,,,,,,,,,,,,,,,,54,,,,,,,,,,,,,,364.3230000004987,,response,,,,100,,,,,,,Space,keypress(Space),,,,,,,,-- --- ---- --- ------ ----- ------- ---- -- --- ------- --<br>issuing ---------- ------ -- ----- -- ----- -- ---- ------<br>--- ----- --- --- ------ -------- ----- --- ------ ----- --<br>----- ----- ---------- --- --- ------ ------ ---- -- ------<br>------- --- ------ ----- --- ---- ------- -- ---- --- --<br>------- ------,183774.90500000204,183767.0450000005,183386.056,183387.35000000088,183402.722,183786.04,,12,issuing
screen,html.Screen,1_1_1_1_13,2021-04-27T09:46:32.538Z,,,,,,,,,,,,,,,,54,,,,,,,,,,,,,,313.9250000012398,,response,,,,100,,,,,,,Space,keypress(Space),,,,,,,,-- --- ---- --- ------ ----- ------- ---- -- --- ------- --<br>------- government ------ -- ----- -- ----- -- ---- ------<br>--- ----- --- --- ------ -------- ----- --- ------ ----- --<br>----- ----- ---------- --- --- ------ ------ ---- -- ------<br>------- --- ------ ----- --- ---- ------- -- ---- --- --<br>------- ------,184107.53000000113,184099.96500000125,183769.374,183775.0699999997,183786.04,184119.36,,13,government
screen,html.Screen,1_1_1_1_14,2021-04-27T09:46:32.971Z,,,,,,,,,,,,,,,,54,,,,,,,,,,,,,,413.34500000145636,,response,,,,100,,,,,,,Space,keypress(Space),,,,,,,,-- --- ---- --- ------ ----- ------- ---- -- --- ------- --<br>------- ---------- bonds. -- ----- -- ----- -- ---- ------<br>--- ----- --- --- ------ -------- ----- --- ------ ----- --<br>----- ----- ---------- --- --- ------ ------ ---- -- ------<br>------- --- ------ ----- --- ---- ------- -- ---- --- --<br>------- ------,184540.4950000011,184532.70500000144,184102.694,184107.69500000242,184119.36,184552.676,,14,bonds.
screen,html.Screen,1_1_1_1_15,2021-04-27T09:46:33.420Z,,,,,,,,,,,,,,,,54,,,,,,,,,,,,,,429.3840000020864,,response,,,,100,,,,,,,Space,keypress(Space),,,,,,,,-- --- ---- --- ------ ----- ------- ---- -- --- ------- --<br>------- ---------- ------ In ----- -- ----- -- ---- ------<br>--- ----- --- --- ------ -------- ----- --- ------ ----- --<br>----- ----- ---------- --- --- ------ ------ ---- -- ------<br>------- --- ------ ----- --- ---- ------- -- ---- --- --<br>------- ------,184989.81500000082,184982.0600000021,184536.01,184540.6550000007,184552.676,185002.658,,15,In
screen,html.Screen,1_1_1_1_16,2021-04-27T09:46:35.131Z,,,,,,,,,,,,,,,,54,,,,,,,,,,,,,,1689.9270000006945,,response,,,,100,,,,,,,Space,keypress(Space),,,,,,,,"-- --- ---- --- ------ ----- ------- ---- -- --- ------- --<br>------- ---------- ------ -- 1727, -- ----- -- ---- ------<br>--- ----- --- --- ------ -------- ----- --- ------ ----- --<br>----- ----- ---------- --- --- ------ ------ ---- -- ------<br>------- --- ------ ----- --- ---- ------- -- ---- --- --<br>------- ------",186700.60000000012,186692.5850000007,184985.992,184989.9750000004,185002.658,186702.59,,16,"1727,"
screen,html.Screen,1_1_1_1_17,2021-04-27T09:46:36.516Z,,,,,,,,,,,,,,,,54,,,,,,,,,,,,,,1375.2750000029337,,response,,,,100,,,,,,,Space,keypress(Space),,,,,,,,-- --- ---- --- ------ ----- ------- ---- -- --- ------- --<br>------- ---------- ------ -- ----- in ----- -- ---- ------<br>--- ----- --- --- ------ -------- ----- --- ------ ----- --<br>----- ----- ---------- --- --- ------ ------ ---- -- ------<br>------- --- ------ ----- --- ---- ------- -- ---- --- --<br>------- ------,188085.80000000075,188077.86500000293,186685.924,186700.79500000065,186702.59,188102.534,,17,in
screen,html.Screen,1_1_1_1_18,2021-04-27T09:46:36.875Z,,,,,,,,,,,,,,,,54,,,,,,,,,,,,,,334.54599999968195,,response,,,,100,,,,,,,Space,keypress(Space),,,,,,,,-- --- ---- --- ------ ----- ------- ---- -- --- ------- --<br>------- ---------- ------ -- ----- -- order -- ---- ------<br>--- ----- --- --- ------ -------- ----- --- ------ ----- --<br>----- ----- ---------- --- --- ------ ------ ---- -- ------<br>------- --- ------ ----- --- ---- ------- -- ---- --- --<br>------- ------,188444.86000000325,188437.0799999997,188085.868,188085.97500000178,188102.534,188452.52,,18,order
screen,html.Screen,1_1_1_1_19,2021-04-27T09:46:37.178Z,,,,,,,,,,,,,,,,54,,,,,,,,,,,,,,286.6850000016857,,response,,,,100,,,,,,,Space,keypress(Space),,,,,,,,-- --- ---- --- ------ ----- ------- ---- -- --- ------- --<br>------- ---------- ------ -- ----- -- ----- to ---- ------<br>--- ----- --- --- ------ -------- ----- --- ------ ----- --<br>----- ----- ---------- --- --- ------ ------ ---- -- ------<br>------- --- ------ ----- --- ---- ------- -- ---- --- --<br>------- ------,188747.32000000222,188739.20500000168,188435.854,188445.02000000284,188452.52,188752.508,,19,to
screen,html.Screen,1_1_1_1_20,2021-04-27T09:46:37.500Z,,,,,,,,,,,,,,,,54,,,,,,,,,,,,,,308.58700000093086,,response,,,,100,,,,,,,Space,keypress(Space),,,,,,,,-- --- ---- --- ------ ----- ------- ---- -- --- ------- --<br>------- ---------- ------ -- ----- -- ----- -- save ------<br>--- ----- --- --- ------ -------- ----- --- ------ ----- --<br>----- ----- ---------- --- --- ------ ------ ---- -- ------<br>------- --- ------ ----- --- ---- ------- -- ---- --- --<br>------- ------,189069.15500000105,189061.09500000093,188735.842,188747.47500000012,188752.508,189085.828,,20,save
screen,html.Screen,1_1_1_1_21,2021-04-27T09:46:37.846Z,,,,,,,,,,,,,,,,54,,,,,,,,,,,,,,321.5720000000438,,response,,,,100,,,,,,,Space,keypress(Space),,,,,,,,"-- --- ---- --- ------ ----- ------- ---- -- --- ------- --<br>------- ---------- ------ -- ----- -- ----- -- ---- money,<br>--- ----- --- --- ------ -------- ----- --- ------ ----- --<br>----- ----- ---------- --- --- ------ ------ ---- -- ------<br>------- --- ------ ----- --- ---- ------- -- ---- --- --<br>------- ------",189415.7950000008,189407.40000000005,189069.162,189069.33000000208,189085.828,189419.148,,21,"money,"
screen,html.Screen,1_1_1_1_22,2021-04-27T09:46:38.191Z,,,,,,,,,,,,,,,,54,,,,,,,,,,,,,,333.8370000028226,,response,,,,100,,,,,,,Space,keypress(Space),,,,,,,,-- --- ---- --- ------ ----- ------- ---- -- --- ------- --<br>------- ---------- ------ -- ----- -- ----- -- ---- ------<br>the ----- --- --- ------ -------- ----- --- ------ ----- --<br>----- ----- ---------- --- --- ------ ------ ---- -- ------<br>------- --- ------ ----- --- ---- ------- -- ---- --- --<br>------- ------,189760.545000001,189752.9850000028,189402.482,189415.9600000021,189419.148,189769.134,,22,the
screen,html.Screen,1_1_1_1_23,2021-04-27T09:46:38.497Z,,,,,,,,,,,,,,,,54,,,,,,,,,,,,,,289.7310000027064,,response,,,,100,,,,,,,Space,keypress(Space),,,,,,,,-- --- ---- --- ------ ----- ------- ---- -- --- ------- --<br>------- ---------- ------ -- ----- -- ----- -- ---- ------<br>--- state --- --- ------ -------- ----- --- ------ ----- --<br>----- ----- ---------- --- --- ------ ------ ---- -- ------<br>------- --- ------ ----- --- ---- ------- -- ---- --- --<br>------- ------,190066.76000000152,190058.8650000027,189752.468,189760.7050000006,189769.134,190069.122,,23,state
screen,html.Screen,1_1_1_1_24,2021-04-27T09:46:38.826Z,,,,,,,,,,,,,,,,54,,,,,,,,,,,,,,318.77800000153366,,response,,,,100,,,,,,,Space,keypress(Space),,,,,,,,-- --- ---- --- ------ ----- ------- ---- -- --- ------- --<br>------- ---------- ------ -- ----- -- ----- -- ---- ------<br>--- ----- cut --- ------ -------- ----- --- ------ ----- --<br>----- ----- ---------- --- --- ------ ------ ---- -- ------<br>------- --- ------ ----- --- ---- ------- -- ---- --- --<br>------- ------,190395.85500000248,190387.90000000154,190052.456,190066.93000000087,190069.122,190402.442,,24,cut
screen,html.Screen,1_1_1_1_25,2021-04-27T09:46:39.161Z,,,,,,,,,,,,,,,,54,,,,,,,,,,,,,,320.3080000008049,,response,,,,100,,,,,,,Space,keypress(Space),,,,,,,,-- --- ---- --- ------ ----- ------- ---- -- --- ------- --<br>------- ---------- ------ -- ----- -- ----- -- ---- ------<br>--- ----- --- the ------ -------- ----- --- ------ ----- --<br>----- ----- ---------- --- --- ------ ------ ---- -- ------<br>------- --- ------ ----- --- ---- ------- -- ---- --- --<br>------- ------,190730.27000000002,190722.75000000081,190385.776,190396.01500000208,190402.442,190735.762,,25,the
screen,html.Screen,1_1_1_1_26,2021-04-27T09:46:39.454Z,,,,,,,,,,,,,,,,54,,,,,,,,,,,,,,280.2279999998864,,response,,,,100,,,,,,,Space,keypress(Space),,,,,,,,-- --- ---- --- ------ ----- ------- ---- -- --- ------- --<br>------- ---------- ------ -- ----- -- ----- -- ---- ------<br>--- ----- --- --- bonds' -------- ----- --- ------ ----- --<br>----- ----- ---------- --- --- ------ ------ ---- -- ------<br>------- --- ------ ----- --- ---- ------- -- ---- --- --<br>------- ------,191023.5700000012,191015.98999999987,190719.096,190730.43000000325,190735.762,191035.75,,26,bonds'
screen,html.Screen,1_1_1_1_27,2021-04-27T09:46:39.777Z,,,,,,,,,,,,,,,,54,,,,,,,,,,,,,,302.925000002695,,response,,,,100,,,,,,,Space,keypress(Space),,,,,,,,-- --- ---- --- ------ ----- ------- ---- -- --- ------- --<br>------- ---------- ------ -- ----- -- ----- -- ---- ------<br>--- ----- --- --- ------ interest ----- --- ------ ----- --<br>----- ----- ---------- --- --- ------ ------ ---- -- ------<br>------- --- ------ ----- --- ---- ------- -- ---- --- --<br>------- ------,191346.27000000182,191338.6750000027,191019.084,191023.75500000198,191035.75,191352.404,,27,interest
screen,html.Screen,1_1_1_1_28,2021-04-27T09:46:40.134Z,,,,,,,,,,,,,,,,54,,,,,,,,,,,,,,343.40600000106497,,response,,,,100,,,,,,,Space,keypress(Space),,,,,,,,-- --- ---- --- ------ ----- ------- ---- -- --- ------- --<br>------- ---------- ------ -- ----- -- ----- -- ---- ------<br>--- ----- --- --- ------ -------- rate. --- ------ ----- --<br>----- ----- ---------- --- --- ------ ------ ---- -- ------<br>------- --- ------ ----- --- ---- ------- -- ---- --- --<br>------- ------,191704.07500000147,191695.81000000107,191335.738,191346.42499999973,191352.404,191719.056,,28,rate.
screen,html.Screen,1_1_1_1_29,2021-04-27T09:46:40.503Z,,,,,,,,,,,,,,,,54,,,,,,,,,,,,,,345.74400000009337,,response,,,,100,,,,,,,Space,keypress(Space),,,,,,,,-- --- ---- --- ------ ----- ------- ---- -- --- ------- --<br>------- ---------- ------ -- ----- -- ----- -- ---- ------<br>--- ----- --- --- ------ -------- ----- The ------ ----- --<br>----- ----- ---------- --- --- ------ ------ ---- -- ------<br>------- --- ------ ----- --- ---- ------- -- ---- --- --<br>------- ------,192072.71500000206,192064.8000000001,191702.39,191704.24000000276,191719.056,192085.708,,29,The
screen,html.Screen,1_1_1_1_30,2021-04-27T09:46:41.143Z,,,,,,,,,,,,,,,,54,,,,,,,,,,,,,,619.0120000015304,,response,,,,100,,,,,,,Space,keypress(Space),,,,,,,,-- --- ---- --- ------ ----- ------- ---- -- --- ------- --<br>------- ---------- ------ -- ----- -- ----- -- ---- ------<br>--- ----- --- --- ------ -------- ----- --- market ----- --<br>----- ----- ---------- --- --- ------ ------ ---- -- ------<br>------- --- ------ ----- --- ---- ------- -- ---- --- --<br>------- ------,192712.55999999994,192704.72000000154,192069.042,192072.90000000285,192085.708,192719.016,,30,market
screen,html.Screen,1_1_1_1_31,2021-04-27T09:46:41.463Z,,,,,,,,,,,,,,,,54,,,,,,,,,,,,,,305.76399999973364,,response,,,,100,,,,,,,Space,keypress(Space),,,,,,,,-- --- ---- --- ------ ----- ------- ---- -- --- ------- --<br>------- ---------- ------ -- ----- -- ----- -- ---- ------<br>--- ----- --- --- ------ -------- ----- --- ------ value --<br>----- ----- ---------- --- --- ------ ------ ---- -- ------<br>------- --- ------ ----- --- ---- ------- -- ---- --- --<br>------- ------,193032.36500000276,193024.77999999974,192702.35,192712.71500000148,192719.016,193038.376,,31,value
screen,html.Screen,1_1_1_1_32,2021-04-27T09:46:41.897Z,,,,,,,,,,,,,,,,54,,,,,,,,,,,,,,420.40900000254624,,response,,,,100,,,,,,,Space,keypress(Space),,,,,,,,-- --- ---- --- ------ ----- ------- ---- -- --- ------- --<br>------- ---------- ------ -- ----- -- ----- -- ---- ------<br>--- ----- --- --- ------ -------- ----- --- ------ ----- of<br>----- ----- ---------- --- --- ------ ------ ---- -- ------<br>------- --- ------ ----- --- ---- ------- -- ---- --- --<br>------- ------,193466.84500000265,193458.78500000254,193021.71,193032.52500000235,193038.376,193471.692,,32,of
screen,html.Screen,1_1_1_1_33,2021-04-27T09:46:42.311Z,,,,,,,,,,,,,,,,54,,,,,,,,,,,,,,401.0930000031949,,response,,,,100,,,,,,,Space,keypress(Space),,,,,,,,-- --- ---- --- ------ ----- ------- ---- -- --- ------- --<br>------- ---------- ------ -- ----- -- ----- -- ---- ------<br>--- ----- --- --- ------ -------- ----- --- ------ ----- --<br>these ----- ---------- --- --- ------ ------ ---- -- ------<br>------- --- ------ ----- --- ---- ------- -- ---- --- --<br>------- ------,193880.51500000074,193872.7850000032,193455.026,193467.00500000225,193471.692,193888.342,,33,these
screen,html.Screen,1_1_1_1_34,2021-04-27T09:46:42.619Z,,,,,,,,,,,,,,,,54,,,,,,,,,,,,,,292.36300000248593,,response,,,,100,,,,,,,Space,keypress(Space),,,,,,,,-- --- ---- --- ------ ----- ------- ---- -- --- ------- --<br>------- ---------- ------ -- ----- -- ----- -- ---- ------<br>--- ----- --- --- ------ -------- ----- --- ------ ----- --<br>----- bonds ---------- --- --- ------ ------ ---- -- ------<br>------- --- ------ ----- --- ---- ------- -- ---- --- --<br>------- ------,194188.33500000255,194180.7050000025,193871.676,193880.67000000228,193888.342,194204.996,,34,bonds
screen,html.Screen,1_1_1_1_35,2021-04-27T09:46:42.952Z,,,,,,,,,,,,,,,,54,,,,,,,,,,,,,,308.8140000003623,,response,,,,100,,,,,,,Space,keypress(Space),,,,,,,,"-- --- ---- --- ------ ----- ------- ---- -- --- ------- --<br>------- ---------- ------ -- ----- -- ----- -- ---- ------<br>--- ----- --- --- ------ -------- ----- --- ------ ----- --<br>----- ----- plummeted, --- --- ------ ------ ---- -- ------<br>------- --- ------ ----- --- ---- ------- -- ---- --- --<br>------- ------",194521.47500000137,194513.81000000038,194188.33,194189.49500000235,194204.996,194538.316,,35,"plummeted,"
screen,html.Screen,1_1_1_1_36,2021-04-27T09:46:43.404Z,,,,,,,,,,,,,,,,54,,,,,,,,,,,,,,427.4790000000794,,response,,,,100,,,,,,,Space,keypress(Space),,,,,,,,-- --- ---- --- ------ ----- ------- ---- -- --- ------- --<br>------- ---------- ------ -- ----- -- ----- -- ---- ------<br>--- ----- --- --- ------ -------- ----- --- ------ ----- --<br>----- ----- ---------- and --- ------ ------ ---- -- ------<br>------- --- ------ ----- --- ---- ------- -- ---- --- --<br>------- ------,194973.47000000082,194965.79500000007,194521.65,194521.63500000097,194538.316,194988.298,,36,and
screen,html.Screen,1_1_1_1_37,2021-04-27T09:46:43.776Z,,,,,,,,,,,,,,,,54,,,,,,,,,,,,,,349.3070000006119,,response,,,,100,,,,,,,Space,keypress(Space),,,,,,,,-- --- ---- --- ------ ----- ------- ---- -- --- ------- --<br>------- ---------- ------ -- ----- -- ----- -- ---- ------<br>--- ----- --- --- ------ -------- ----- --- ------ ----- --<br>----- ----- ---------- --- the ------ ------ ---- -- ------<br>------- --- ------ ----- --- ---- ------- -- ---- --- --<br>------- ------,195345.62500000175,195337.60500000062,194971.632,194973.6350000021,194988.298,195354.95,,37,the
screen,html.Screen,1_1_1_1_38,2021-04-27T09:46:44.177Z,,,,,,,,,,,,,,,,54,,,,,,,,,,,,,,383.8850000000966,,response,,,,100,,,,,,,Space,keypress(Space),,,,,,,,-- --- ---- --- ------ ----- ------- ---- -- --- ------- --<br>------- ---------- ------ -- ----- -- ----- -- ---- ------<br>--- ----- --- --- ------ -------- ----- --- ------ ----- --<br>----- ----- ---------- --- --- market ------ ---- -- ------<br>------- --- ------ ----- --- ---- ------- -- ---- --- --<br>------- ------,195746.91000000166,195738.8350000001,195338.284,195345.81500000058,195354.95,195754.934,,38,market
screen,html.Screen,1_1_1_1_39,2021-04-27T09:46:45.359Z,,,,,,,,,,,,,,,,54,,,,,,,,,,,,,,1166.1360000003187,,response,,,,100,,,,,,,Space,keypress(Space),,,,,,,,-- --- ---- --- ------ ----- ------- ---- -- --- ------- --<br>------- ---------- ------ -- ----- -- ----- -- ---- ------<br>--- ----- --- --- ------ -------- ----- --- ------ ----- --<br>----- ----- ---------- --- --- ------ became ---- -- ------<br>------- --- ------ ----- --- ---- ------- -- ---- --- --<br>------- ------,196929.08499999976,196921.07000000033,195738.268,195747.0650000032,195754.934,196938.22,,39,became
screen,html.Screen,1_1_1_1_40,2021-04-27T09:46:45.748Z,,,,,,,,,,,,,,,,54,,,,,,,,,,,,,,371.7800000013085,,response,,,,100,,,,,,,Space,keypress(Space),,,,,,,,-- --- ---- --- ------ ----- ------- ---- -- --- ------- --<br>------- ---------- ------ -- ----- -- ----- -- ---- ------<br>--- ----- --- --- ------ -------- ----- --- ------ ----- --<br>----- ----- ---------- --- --- ------ ------ wary -- ------<br>------- --- ------ ----- --- ---- ------- -- ---- --- --<br>------- ------,197317.69500000155,197310.0000000013,196921.554,196929.25000000105,196938.22,197321.538,,40,wary
screen,html.Screen,1_1_1_1_41,2021-04-27T09:46:46.124Z,,,,,,,,,,,,,,,,54,,,,,,,,,,,,,,364.1620000018156,,response,,,,100,,,,,,,Space,keypress(Space),,,,,,,,-- --- ---- --- ------ ----- ------- ---- -- --- ------- --<br>------- ---------- ------ -- ----- -- ----- -- ---- ------<br>--- ----- --- --- ------ -------- ----- --- ------ ----- --<br>----- ----- ---------- --- --- ------ ------ ---- of ------<br>------- --- ------ ----- --- ---- ------- -- ---- --- --<br>------- ------,197693.48000000173,197685.70000000182,197304.872,197317.85500000115,197321.538,197704.856,,41,of
screen,html.Screen,1_1_1_1_42,2021-04-27T09:46:46.607Z,,,,,,,,,,,,,,,,54,,,,,,,,,,,,,,463.71899999969173,,response,,,,100,,,,,,,Space,keypress(Space),,,,,,,,-- --- ---- --- ------ ----- ------- ---- -- --- ------- --<br>------- ---------- ------ -- ----- -- ----- -- ---- ------<br>--- ----- --- --- ------ -------- ----- --- ------ ----- --<br>----- ----- ---------- --- --- ------ ------ ---- -- French<br>------- --- ------ ----- --- ---- ------- -- ---- --- --<br>------- ------,198176.73000000286,198168.5749999997,197688.19,197693.64500000302,197704.856,198188.17,,42,French
screen,html.Screen,1_1_1_1_43,2021-04-27T09:46:46.962Z,,,,,,,,,,,,,,,,54,,,,,,,,,,,,,,336.32500000146683,,response,,,,100,,,,,,,Space,keypress(Space),,,,,,,,-- --- ---- --- ------ ----- ------- ---- -- --- ------- --<br>------- ---------- ------ -- ----- -- ----- -- ---- ------<br>--- ----- --- --- ------ -------- ----- --- ------ ----- --<br>----- ----- ---------- --- --- ------ ------ ---- -- ------<br>credit. --- ------ ----- --- ---- ------- -- ---- --- --<br>------- ------,198532.2150000029,198524.49500000148,198171.504,198176.90500000026,198188.17,198538.156,,43,credit.
screen,html.Screen,1_1_1_1_44,2021-04-27T09:46:47.412Z,,,,,,,,,,,,,,,,54,,,,,,,,,,,,,,436.48900000206777,,response,,,,100,,,,,,,Space,keypress(Space),,,,,,,,-- --- ---- --- ------ ----- ------- ---- -- --- ------- --<br>------- ---------- ------ -- ----- -- ----- -- ---- ------<br>--- ----- --- --- ------ -------- ----- --- ------ ----- --<br>----- ----- ---------- --- --- ------ ------ ---- -- ------<br>------- The ------ ----- --- ---- ------- -- ---- --- --<br>------- ------,198982.31000000305,198974.64500000206,198521.49,198532.38000000056,198538.156,198988.138,,44,The
screen,html.Screen,1_1_1_1_45,2021-04-27T09:46:47.781Z,,,,,,,,,,,,,,,,54,,,,,,,,,,,,,,355.37200000241864,,response,,,,100,,,,,,,Space,keypress(Space),,,,,,,,-- --- ---- --- ------ ----- ------- ---- -- --- ------- --<br>------- ---------- ------ -- ----- -- ----- -- ---- ------<br>--- ----- --- --- ------ -------- ----- --- ------ ----- --<br>----- ----- ---------- --- --- ------ ------ ---- -- ------<br>------- --- French ----- --- ---- ------- -- ---- --- --<br>------- ------,199351.47500000312,199343.51000000242,198971.472,198982.47000000265,198988.138,199354.79,,45,French
screen,html.Screen,1_1_1_1_46,2021-04-27T09:46:48.076Z,,,,,,,,,,,,,,,,54,,,,,,,,,,,,,,282.84000000107335,,response,,,,100,,,,,,,Space,keypress(Space),,,,,,,,-- --- ---- --- ------ ----- ------- ---- -- --- ------- --<br>------- ---------- ------ -- ----- -- ----- -- ---- ------<br>--- ----- --- --- ------ -------- ----- --- ------ ----- --<br>----- ----- ---------- --- --- ------ ------ ---- -- ------<br>------- --- ------ state --- ---- ------- -- ---- --- --<br>------- ------,199645.78000000256,199637.63000000108,199338.124,199351.63500000272,199354.79,199654.778,,46,state
screen,html.Screen,1_1_1_1_47,2021-04-27T09:46:48.394Z,,,,,,,,,,,,,,,,54,,,,,,,,,,,,,,301.1770000012766,,response,,,,100,,,,,,,Space,keypress(Space),,,,,,,,-- --- ---- --- ------ ----- ------- ---- -- --- ------- --<br>------- ---------- ------ -- ----- -- ----- -- ---- ------<br>--- ----- --- --- ------ -------- ----- --- ------ ----- --<br>----- ----- ---------- --- --- ------ ------ ---- -- ------<br>------- --- ------ ----- was ---- ------- -- ---- --- --<br>------- ------,199963.76000000237,199955.95500000127,199638.112,199645.9450000002,199654.778,199971.432,,47,was
screen,html.Screen,1_1_1_1_48,2021-04-27T09:46:48.931Z,,,,,,,,,,,,,,,,54,,,,,,,,,,,,,,522.1530000001658,,response,,,,100,,,,,,,Space,keypress(Space),,,,,,,,-- --- ---- --- ------ ----- ------- ---- -- --- ------- --<br>------- ---------- ------ -- ----- -- ----- -- ---- ------<br>--- ----- --- --- ------ -------- ----- --- ------ ----- --<br>----- ----- ---------- --- --- ------ ------ ---- -- ------<br>------- --- ------ ----- --- left ------- -- ---- --- --<br>------- ------,200501.49000000238,200493.58500000017,199954.766,199963.9700000007,199971.432,200504.744,,48,left
screen,html.Screen,1_1_1_1_49,2021-04-27T09:46:49.430Z,,,,,,,,,,,,,,,,54,,,,,,,,,,,,,,487.02100000248174,,response,,,,100,,,,,,,Space,keypress(Space),,,,,,,,-- --- ---- --- ------ ----- ------- ---- -- --- ------- --<br>------- ---------- ------ -- ----- -- ----- -- ---- ------<br>--- ----- --- --- ------ -------- ----- --- ------ ----- --<br>----- ----- ---------- --- --- ------ ------ ---- -- ------<br>------- --- ------ ----- --- ---- without -- ---- --- --<br>------- ------,200999.65500000326,200991.7650000025,200488.078,200501.65500000003,200504.744,201004.724,,49,without
screen,html.Screen,1_1_1_1_50,2021-04-27T09:46:49.806Z,,,,,,,,,,,,,,,,54,,,,,,,,,,,,,,363.69100000083563,,response,,,,100,,,,,,,Space,keypress(Space),,,,,,,,-- --- ---- --- ------ ----- ------- ---- -- --- ------- --<br>------- ---------- ------ -- ----- -- ----- -- ---- ------<br>--- ----- --- --- ------ -------- ----- --- ------ ----- --<br>----- ----- ---------- --- --- ------ ------ ---- -- ------<br>------- --- ------ ----- --- ---- ------- an ---- --- --<br>------- ------,201376.32000000303,201368.41500000082,200988.058,200999.81000000116,201004.724,201388.042,,50,an
screen,html.Screen,1_1_1_1_51,2021-04-27T09:46:50.113Z,,,,,,,,,,,,,,,,54,,,,,,,,,,,,,,286.60800000085146,,response,,,,100,,,,,,,Space,keypress(Space),,,,,,,,-- --- ---- --- ------ ----- ------- ---- -- --- ------- --<br>------- ---------- ------ -- ----- -- ----- -- ---- ------<br>--- ----- --- --- ------ -------- ----- --- ------ ----- --<br>----- ----- ---------- --- --- ------ ------ ---- -- ------<br>------- --- ------ ----- --- ---- ------- -- easy --- --<br>------- ------,201682.7450000019,201674.65000000084,201371.376,201376.48000000263,201388.042,201688.03,,51,easy
screen,html.Screen,1_1_1_1_52,2021-04-27T09:46:50.474Z,,,,,,,,,,,,,,,,54,,,,,,,,,,,,,,348.7800000014249,,response,,,,100,,,,,,,Space,keypress(Space),,,,,,,,-- --- ---- --- ------ ----- ------- ---- -- --- ------- --<br>------- ---------- ------ -- ----- -- ----- -- ---- ------<br>--- ----- --- --- ------ -------- ----- --- ------ ----- --<br>----- ----- ---------- --- --- ------ ------ ---- -- ------<br>------- --- ------ ----- --- ---- ------- -- ---- way --<br>------- ------,202044.4400000015,202036.81000000142,201671.364,201682.91000000318,201688.03,202054.682,,52,way
screen,html.Screen,1_1_1_1_53,2021-04-27T09:46:50.795Z,,,,,,,,,,,,,,,,54,,,,,,,,,,,,,,302.8730000023206,,response,,,,100,,,,,,,Space,keypress(Space),,,,,,,,-- --- ---- --- ------ ----- ------- ---- -- --- ------- --<br>------- ---------- ------ -- ----- -- ----- -- ---- ------<br>--- ----- --- --- ------ -------- ----- --- ------ ----- --<br>----- ----- ---------- --- --- ------ ------ ---- -- ------<br>------- --- ------ ----- --- ---- ------- -- ---- --- of<br>------- ------,202365.4150000002,202357.55500000232,202038.016,202044.60000000108,202054.682,202371.336,,53,of
screen,html.Screen,1_1_1_1_54,2021-04-27T09:46:51.140Z,,,,,,,,,,,,,,,,54,,,,,,,,,,,,,,331.2340000012773,,response,,,,100,,,,,,,Space,keypress(Space),,,,,,,,-- --- ---- --- ------ ----- ------- ---- -- --- ------- --<br>------- ---------- ------ -- ----- -- ----- -- ---- ------<br>--- ----- --- --- ------ -------- ----- --- ------ ----- --<br>----- ----- ---------- --- --- ------ ------ ---- -- ------<br>------- --- ------ ----- --- ---- ------- -- ---- --- --<br>raising ------,202710.3900000002,202702.5700000013,202354.67,202365.5800000015,202371.336,202721.322,,54,raising
screen,html.Screen,1_1_1_1_55,2021-04-27T09:46:51.549Z,,,,,,,,,,,,,,,,54,,,,,,,,,,,,,,390.1730000010284,,response,,,,100,,,,,,,Space,keypress(Space),,,,,,,,-- --- ---- --- ------ ----- ------- ---- -- --- ------- --<br>------- ---------- ------ -- ----- -- ----- -- ---- ------<br>--- ----- --- --- ------ -------- ----- --- ------ ----- --<br>----- ----- ---------- --- --- ------ ------ ---- -- ------<br>------- --- ------ ----- --- ---- ------- -- ---- --- --<br>------- money.,203119.23500000194,203111.495000001,202704.656,202710.55500000148,202721.322,203124.467,,55,money.
Item 100,flow.Loop,1_1_1_1,2021-04-27T09:46:51.549Z,,,,,,,,,,,,,,,,,,,,,,,,,,,,,,24626.45200000101,,completion,,,,,B,,,,,,,,,,,silence,,,,,203119.63500000275,203111.495000001,178468.377,178471.39000000243,178485.043,203124.467,,,
Question 1,html.Screen,1_1_1_2,2021-04-27T09:46:58.496Z,,,,,,,,,,,,,,,,,,,,,,,,,,,true,TRUE,,6937.713000000804,,response,,,,100,B,,,,,,TRUE,click #choice-1,,,,silence,,,,,210066.3650000024,210062.1800000008,203107.801,203119.77000000115,203124.467,210074.189,,,
Question 2,html.Screen,1_1_1_3,2021-04-27T09:47:01.733Z,,,,,,,,,,,,,,,,,,,,,,,,,,,true,FALSE,,3225.271000001987,,response,,,,100,B,,,,,,FALSE,click #choice-2,,,,silence,,,,,213303.57999999978,213299.460000002,210057.523,210066.5399999998,210074.189,213307.393,,,
Item 100,flow.Sequence,1_1_1,2021-04-27T09:47:01.733Z,,,,,,,,,,,,,,,,,,,,,,,,,,,,,,44815.490000002,,completion,,,,,,,,,,,,,,,,,,,,,213303.8250000027,213299.460000002,168467.304,168479.39000000042,168483.97,213307.393,,,
End of Practice,html.Page,1_1_2,2021-04-27T09:47:04.860Z,,,,,,,,,,,,,,,,,,,,,,,,,,,,,,3122.5870000007853,,form submission,,,,,,,,,,,,,,,,,,,,,216430.29000000024,216429.9800000008,213290.727,213303.9400000016,213307.393,216430.402,,,
Practice,flow.Sequence,1_1,2021-04-27T09:47:04.860Z,,,,,,,,,,,,,,,,,,,,,,,,,,,,,,90750.50500000079,,completion,,,,,,,,,,,,,,,,,,,,,216430.53500000315,216429.9800000008,125662.809,125684.18500000189,125679.475,216430.402,,,
Trap_instruction,html.Page,1_2_0,2021-04-27T09:47:09.463Z,,,,,,,,,,,,,,,,,,,,,,,,,,,,,,4603.063000000431,,form submission,,,,,,,,,,,,,,,,,,,,,221033.76000000208,221033.46500000043,216413.736,216430.67500000325,216430.402,221046.884,,,
trap_trial,html.Screen,1_2_1,2021-04-27T09:47:13.381Z,,,,,,,,,,,,,,,,,,,,,,,,,,,true,1,,3900.9360000012384,,response,,,,,,,,,,,1,click #choice-1,,,,,,,,,224952.2100000031,224947.82000000123,221030.218,221033.91499999998,221046.884,224963.394,,,
end of trap trial,html.Page,1_2_2,2021-04-27T09:47:15.019Z,,,,,,,,,,,,,,,,,,,,,,,,,,,,,,1626.2360000022163,,form submission,,,,,,,,,,,,,,,,,,,,,226589.91500000047,226589.63000000222,224946.728,224952.3850000005,224963.394,226590.971,,,
Trap 1,flow.Sequence,1_2,2021-04-27T09:47:15.019Z,,,,,,,,,,,,,,,,,,,,,,,,,,,,,,10159.228000002215,,completion,,,,,,,,,,,,,,,,,,,,,226590.1350000022,226589.63000000222,216413.736,216430.63500000062,216430.402,226590.971,,,
Standby,html.Page,1_3_0,2021-04-27T09:47:23.006Z,,,,,,,,,,,,,,,,,,,,,,,,,,,,,,7999.680000000022,,timeout,,,,,,,,,,,,,,,,,,,,,234576.9450000007,234573.985,226574.305,226590.28500000204,226590.971,234590.651,,,
Holding screen,html.Screen,1_3_1_0_0,2021-04-27T09:47:30.002Z,,,,,,,,,,,,,,,,,,,,,,,,,,,,,,6997.070999999996,,timeout,,,,,,,,,,,,,,,,,,,,,241573.27500000247,241571.056,234573.985,234577.29000000108,234590.651,241587.722,,,
screen,html.Screen,1_3_1_0_1_0,2021-04-27T09:47:31.112Z,,,,,,,,,,,,,,,,48,,,,,,,,,,,,,,1086.8179999999702,,response,,,,10,B,,,,,,Space,keypress(Space),,,,lyrical,,,,As -- --- ------ ------- --------- ----------- --------<br>--------- -------- --- ------- -- ------- ---- -- ------<br>-- --- -------- -------- ---------- ---- ---- ---- ------<br>-- --------- -- ---- -- --- -- --- ------- -- - -----<br>---------- -- -- -- ---- ----- -- ------ -- --- ------<br>-------,242683.39000000196,242674.53999999998,241571.056,241574.05500000095,241587.722,242687.678,,0,As
screen,html.Screen,1_3_1_0_1_1,2021-04-27T09:47:31.542Z,,,,,,,,,,,,,,,,48,,,,,,,,,,,,,,417.90200000308687,,response,,,,10,B,,,,,,Space,keypress(Space),,,,lyrical,,,,-- in --- ------ ------- --------- ----------- --------<br>--------- -------- --- ------- -- ------- ---- -- ------<br>-- --- -------- -------- ---------- ---- ---- ---- ------<br>-- --------- -- ---- -- --- -- --- ------- -- - -----<br>---------- -- -- -- ---- ----- -- ------ -- --- ------<br>-------,243113.38500000056,243105.5800000031,242671.012,242683.59500000224,242687.678,243120.994,,1,in
screen,html.Screen,1_3_1_0_1_2,2021-04-27T09:47:31.933Z,,,,,,,,,,,,,,,,48,,,,,,,,,,,,,,375.65600000094855,,response,,,,10,B,,,,,,Space,keypress(Space),,,,lyrical,,,,-- -- the ------ ------- --------- ----------- --------<br>--------- -------- --- ------- -- ------- ---- -- ------<br>-- --- -------- -------- ---------- ---- ---- ---- ------<br>-- --------- -- ---- -- --- -- --- ------- -- - -----<br>---------- -- -- -- ---- ----- -- ------ -- --- ------<br>-------,243504.71500000276,243496.65000000095,243104.328,243113.55000000185,243120.994,243520.978,,2,the
screen,html.Screen,1_3_1_0_1_3,2021-04-27T09:47:32.311Z,,,,,,,,,,,,,,,,48,,,,,,,,,,,,,,353.6120000030787,,response,,,,10,B,,,,,,Space,keypress(Space),,,,lyrical,,,,-- -- --- United ------- --------- ----------- --------<br>--------- -------- --- ------- -- ------- ---- -- ------<br>-- --- -------- -------- ---------- ---- ---- ---- ------<br>-- --------- -- ---- -- --- -- --- ------- -- - -----<br>---------- -- -- -- ---- ----- -- ------ -- --- ------<br>-------,243882.6850000005,243874.59000000308,243504.312,243504.8800000004,243520.978,243887.63,,3,United
screen,html.Screen,1_3_1_0_1_4,2021-04-27T09:47:32.556Z,,,,,,,,,,,,,,,,48,,,,,,,,,,,,,,232.00500000274042,,response,,,,10,B,,,,,,Space,keypress(Space),,,,lyrical,,,,"-- -- --- ------ States, --------- ----------- --------<br>--------- -------- --- ------- -- ------- ---- -- ------<br>-- --- -------- -------- ---------- ---- ---- ---- ------<br>-- --------- -- ---- -- --- -- --- ------- -- - -----<br>---------- -- -- -- ---- ----- -- ------ -- --- ------<br>-------",244127.69500000286,244119.63500000275,243870.964,243883.05000000037,243887.63,244137.62,,4,"States,"
screen,html.Screen,1_3_1_0_1_5,2021-04-27T09:47:32.847Z,,,,,,,,,,,,,,,,48,,,,,,,,,,,,,,272.94000000026426,,response,,,,10,B,,,,,,Space,keypress(Space),,,,lyrical,,,,-- -- --- ------ ------- Colombian ----------- --------<br>--------- -------- --- ------- -- ------- ---- -- ------<br>-- --- -------- -------- ---------- ---- ---- ---- ------<br>-- --------- -- ---- -- --- -- --- ------- -- - -----<br>---------- -- -- -- ---- ----- -- ------ -- --- ------<br>-------,244418.56499999994,244410.56000000026,244120.954,244127.8600000005,244137.62,244420.942,,5,Colombian
screen,html.Screen,1_3_1_0_1_6,2021-04-27T09:47:33.382Z,,,,,,,,,,,,,,,,48,,,,,,,,,,,,,,524.5980000006093,,response,,,,10,B,,,,,,Space,keypress(Space),,,,lyrical,,,,-- -- --- ------ ------- --------- legislation --------<br>--------- -------- --- ------- -- ------- ---- -- ------<br>-- --- -------- -------- ---------- ---- ---- ---- ------<br>-- --------- -- ---- -- --- -- --- ------- -- - -----<br>---------- -- -- -- ---- ----- -- ------ -- --- ------<br>-------,244953.44000000114,244945.54000000062,244404.276,244418.72500000318,244420.942,244970.92,,6,legislation
screen,html.Screen,1_3_1_0_1_7,2021-04-27T09:47:33.882Z,,,,,,,,,,,,,,,,48,,,,,,,,,,,,,,474.57499999992433,,response,,,,10,B,,,,,,Space,keypress(Space),,,,lyrical,,,,-- -- --- ------ ------- --------- ----------- requires<br>--------- -------- --- ------- -- ------- ---- -- ------<br>-- --- -------- -------- ---------- ---- ---- ---- ------<br>-- --------- -- ---- -- --- -- --- ------- -- - -----<br>---------- -- -- -- ---- ----- -- ------ -- --- ------<br>-------,245453.46000000063,245445.49499999994,244954.254,244953.62000000023,244970.92,245470.9,,7,requires
screen,html.Screen,1_3_1_0_1_8,2021-04-27T09:47:34.338Z,,,,,,,,,,,,,,,,48,,,,,,,,,,,,,,430.57500000239816,,response,,,,10,B,,,,,,Space,keypress(Space),,,,lyrical,,,,-- -- --- ------ ------- --------- ----------- --------<br>travelers -------- --- ------- -- ------- ---- -- ------<br>-- --- -------- -------- ---------- ---- ---- ---- ------<br>-- --------- -- ---- -- --- -- --- ------- -- - -----<br>---------- -- -- -- ---- ----- -- ------ -- --- ------<br>-------,245909.22500000306,245901.4750000024,245454.234,245453.63500000167,245470.9,245920.882,,8,travelers
screen,html.Screen,1_3_1_0_1_9,2021-04-27T09:47:34.752Z,,,,,,,,,,,,,,,,48,,,,,,,,,,,,,,394.51800000312505,,response,,,,10,B,,,,,,Space,keypress(Space),,,,lyrical,,,,-- -- --- ------ ------- --------- ----------- --------<br>--------- entering --- ------- -- ------- ---- -- ------<br>-- --- -------- -------- ---------- ---- ---- ---- ------<br>-- --------- -- ---- -- --- -- --- ------- -- - -----<br>---------- -- -- -- ---- ----- -- ------ -- --- ------<br>-------,246323.35500000045,246315.40000000314,245904.216,245909.48500000013,245920.882,246337.532,,9,entering
screen,html.Screen,1_3_1_0_1_10,2021-04-27T09:47:35.222Z,,,,,,,,,,,,,,,,48,,,,,,,,,,,,,,447.8430000031076,,response,,,,10,B,,,,,,Space,keypress(Space),,,,lyrical,,,,-- -- --- ------ ------- --------- ----------- --------<br>--------- -------- the ------- -- ------- ---- -- ------<br>-- --- -------- -------- ---------- ---- ---- ---- ------<br>-- --------- -- ---- -- --- -- --- ------- -- - -----<br>---------- -- -- -- ---- ----- -- ------ -- --- ------<br>-------,246793.35999999967,246785.3750000031,246320.866,246323.52000000174,246337.532,246797.133,,10,the
screen,html.Screen,1_3_1_0_1_11,2021-04-27T09:47:35.567Z,,,,,,,,,,,,,,,,48,,,,,,,,,,,,,,333.19200000190176,,response,,,,10,B,,,,,,Space,keypress(Space),,,,lyrical,,,,-- -- --- ------ ------- --------- ----------- --------<br>--------- -------- --- country -- ------- ---- -- ------<br>-- --- -------- -------- ---------- ---- ---- ---- ------<br>-- --------- -- ---- -- --- -- --- ------- -- - -----<br>---------- -- -- -- ---- ----- -- ------ -- --- ------<br>-------,247138.7250000007,247130.3250000019,246780.467,246793.52500000095,246797.133,247147.119,,11,country
screen,html.Screen,1_3_1_0_1_12,2021-04-27T09:47:35.809Z,,,,,,,,,,,,,,,,48,,,,,,,,,,,,,,225.4409999997879,,response,,,,10,B,,,,,,Space,keypress(Space),,,,lyrical,,,,-- -- --- ------ ------- --------- ----------- --------<br>--------- -------- --- ------- to ------- ---- -- ------<br>-- --- -------- -------- ---------- ---- ---- ---- ------<br>-- --------- -- ---- -- --- -- --- ------- -- - -----<br>---------- -- -- -- ---- ----- -- ------ -- --- ------<br>-------,247380.47000000006,247372.5599999998,247130.453,247138.890000002,247147.119,247397.109,,12,to
screen,html.Screen,1_3_1_0_1_13,2021-04-27T09:47:36.027Z,,,,,,,,,,,,,,,,48,,,,,,,,,,,,,,193.24600000027567,,response,,,,10,B,,,,,,Space,keypress(Space),,,,lyrical,,,,-- -- --- ------ ------- --------- ----------- --------<br>--------- -------- --- ------- -- declare ---- -- ------<br>-- --- -------- -------- ---------- ---- ---- ---- ------<br>-- --------- -- ---- -- --- -- --- ------- -- - -----<br>---------- -- -- -- ---- ----- -- ------ -- --- ------<br>-------,247598.28000000198,247590.35500000027,247380.443,247380.62999999966,247397.109,247613.767,,13,declare
screen,html.Screen,1_3_1_0_1_14,2021-04-27T09:47:36.276Z,,,,,,,,,,,,,,,,48,,,,,,,,,,,,,,225.65800000194577,,response,,,,10,B,,,,,,Space,keypress(Space),,,,lyrical,,,,-- -- --- ------ ------- --------- ----------- --------<br>--------- -------- --- ------- -- ------- cash -- ------<br>-- --- -------- -------- ---------- ---- ---- ---- ------<br>-- --------- -- ---- -- --- -- --- ------- -- - -----<br>---------- -- -- -- ---- ----- -- ------ -- --- ------<br>-------,247847.6300000002,247839.42500000194,247597.101,247598.45000000132,247613.767,247863.757,,14,cash
screen,html.Screen,1_3_1_0_1_15,2021-04-27T09:47:36.526Z,,,,,,,,,,,,,,,,48,,,,,,,,,,,,,,226.56800000101794,,response,,,,10,B,,,,,,Space,keypress(Space),,,,lyrical,,,,-- -- --- ------ ------- --------- ----------- --------<br>--------- -------- --- ------- -- ------- ---- in ------<br>-- --- -------- -------- ---------- ---- ---- ---- ------<br>-- --------- -- ---- -- --- -- --- ------- -- - -----<br>---------- -- -- -- ---- ----- -- ------ -- --- ------<br>-------,248098.11000000263,248090.32500000103,247847.091,247847.7899999998,247863.757,248113.747,,15,in
screen,html.Screen,1_3_1_0_1_16,2021-04-27T09:47:36.777Z,,,,,,,,,,,,,,,,48,,,,,,,,,,,,,,227.76300000201445,,response,,,,10,B,,,,,,Space,keypress(Space),,,,lyrical,,,,-- -- --- ------ ------- --------- ----------- --------<br>--------- -------- --- ------- -- ------- ---- -- excess<br>-- --- -------- -------- ---------- ---- ---- ---- ------<br>-- --------- -- ---- -- --- -- --- ------- -- - -----<br>---------- -- -- -- ---- ----- -- ------ -- --- ------<br>-------,248349.15499999988,248341.51000000202,248097.081,248098.26500000054,248113.747,248363.737,,16,excess
screen,html.Screen,1_3_1_0_1_17,2021-04-27T09:47:37.060Z,,,,,,,,,,,,,,,,48,,,,,,,,,,,,,,259.7130000027828,,response,,,,10,B,,,,,,Space,keypress(Space),,,,lyrical,,,,-- -- --- ------ ------- --------- ----------- --------<br>--------- -------- --- ------- -- ------- ---- -- ------<br>of --- -------- -------- ---------- ---- ---- ---- ------<br>-- --------- -- ---- -- --- -- --- ------- -- - -----<br>---------- -- -- -- ---- ----- -- ------ -- --- ------<br>-------,248631.51500000095,248623.45000000278,248347.071,248349.31500000312,248363.737,248647.059,,17,of
screen,html.Screen,1_3_1_0_1_18,2021-04-27T09:47:37.321Z,,,,,,,,,,,,,,,,48,,,,,,,,,,,,,,236.2259999998787,,response,,,,10,B,,,,,,Space,keypress(Space),,,,lyrical,,,,-- -- --- ------ ------- --------- ----------- --------<br>--------- -------- --- ------- -- ------- ---- -- ------<br>-- ten -------- -------- ---------- ---- ---- ---- ------<br>-- --------- -- ---- -- --- -- --- ------- -- - -----<br>---------- -- -- -- ---- ----- -- ------ -- --- ------<br>-------,248892.52000000124,248883.2849999999,248630.393,248631.9000000003,248647.059,248897.049,,18,ten
screen,html.Screen,1_3_1_0_1_19,2021-04-27T09:47:37.572Z,,,,,,,,,,,,,,,,48,,,,,,,,,,,,,,239.1410000010801,,response,,,,10,B,,,,,,Space,keypress(Space),,,,lyrical,,,,-- -- --- ------ ------- --------- ----------- --------<br>--------- -------- --- ------- -- ------- ---- -- ------<br>-- --- thousand -------- ---------- ---- ---- ---- ------<br>-- --------- -- ---- -- --- -- --- ------- -- - -----<br>---------- -- -- -- ---- ----- -- ------ -- --- ------<br>-------,249143.84500000233,249136.19000000108,248880.383,248892.75500000076,248897.049,249147.039,,19,thousand
screen,html.Screen,1_3_1_0_1_20,2021-04-27T09:47:37.799Z,,,,,,,,,,,,,,,,48,,,,,,,,,,,,,,216.32100000302307,,response,,,,10,B,,,,,,Space,keypress(Space),,,,lyrical,,,,-- -- --- ------ ------- --------- ----------- --------<br>--------- -------- --- ------- -- ------- ---- -- ------<br>-- --- -------- dollars. ---------- ---- ---- ---- ------<br>-- --------- -- ---- -- --- -- --- ------- -- - -----<br>---------- -- -- -- ---- ----- -- ------ -- --- ------<br>-------,249371.04499999987,249363.360000003,249130.373,249144.00500000193,249147.039,249380.363,,20,dollars.
screen,html.Screen,1_3_1_0_1_21,2021-04-27T09:47:38.309Z,,,,,,,,,,,,,,,,48,,,,,,,,,,,,,,491.857000001095,,response,,,,10,B,,,,,,Space,keypress(Space),,,,lyrical,,,,-- -- --- ------ ------- --------- ----------- --------<br>--------- -------- --- ------- -- ------- ---- -- ------<br>-- --- -------- -------- Concealing ---- ---- ---- ------<br>-- --------- -- ---- -- --- -- --- ------- -- - -----<br>---------- -- -- -- ---- ----- -- ------ -- --- ------<br>-------,249880.42000000132,249872.2200000011,249363.697,249371.21500000285,249380.363,249897.009,,21,Concealing
screen,html.Screen,1_3_1_0_1_22,2021-04-27T09:47:38.690Z,,,,,,,,,,,,,,,,48,,,,,,,,,,,,,,356.3260000012524,,response,,,,10,B,,,,,,Space,keypress(Space),,,,lyrical,,,,-- -- --- ------ ------- --------- ----------- --------<br>--------- -------- --- ------- -- ------- ---- -- ------<br>-- --- -------- -------- ---------- more ---- ---- ------<br>-- --------- -- ---- -- --- -- --- ------- -- - -----<br>---------- -- -- -- ---- ----- -- ------ -- --- ------<br>-------,250261.4300000023,250253.33500000124,249880.343,249880.58000000092,249897.009,250263.661,,22,more
screen,html.Screen,1_3_1_0_1_23,2021-04-27T09:47:38.994Z,,,,,,,,,,,,,,,,48,,,,,,,,,,,,,,294.63900000060676,,response,,,,10,B,,,,,,Space,keypress(Space),,,,lyrical,,,,-- -- --- ------ ------- --------- ----------- --------<br>--------- -------- --- ------- -- ------- ---- -- ------<br>-- --- -------- -------- ---------- ---- than ---- ------<br>-- --------- -- ---- -- --- -- --- ------- -- - -----<br>---------- -- -- -- ---- ----- -- ------ -- --- ------<br>-------,250566.32000000172,250558.3000000006,250246.995,250261.730000002,250263.661,250580.315,,23,than
screen,html.Screen,1_3_1_0_1_24,2021-04-27T09:47:39.459Z,,,,,,,,,,,,,,,,48,,,,,,,,,,,,,,441.985000000539,,response,,,,10,B,,,,,,Space,keypress(Space),,,,lyrical,,,,-- -- --- ------ ------- --------- ----------- --------<br>--------- -------- --- ------- -- ------- ---- -- ------<br>-- --- -------- -------- ---------- ---- ---- that ------<br>-- --------- -- ---- -- --- -- --- ------- -- - -----<br>---------- -- -- -- ---- ----- -- ------ -- --- ------<br>-------,251030.8299999997,251022.30000000054,250563.649,250566.49500000276,250580.315,251046.963,,24,that
screen,html.Screen,1_3_1_0_1_25,2021-04-27T09:47:40.601Z,,,,,,,,,,,,,,,,48,,,,,,,,,,,,,,1118.3669999998237,,response,,,,10,B,,,,,,Space,keypress(Space),,,,lyrical,,,,-- -- --- ------ ------- --------- ----------- --------<br>--------- -------- --- ------- -- ------- ---- -- ------<br>-- --- -------- -------- ---------- ---- ---- ---- amount<br>-- --------- -- ---- -- --- -- --- ------- -- - -----<br>---------- -- -- -- ---- ----- -- ------ -- --- ------<br>-------,252173.05500000293,252165.3299999998,251030.297,251030.99000000293,251046.963,252180.251,,25,amount
screen,html.Screen,1_3_1_0_1_26,2021-04-27T09:47:40.970Z,,,,,,,,,,,,,,,,48,,,,,,,,,,,,,,353.88400000170805,,response,,,,10,B,,,,,,Space,keypress(Space),,,,lyrical,,,,-- -- --- ------ ------- --------- ----------- --------<br>--------- -------- --- ------- -- ------- ---- -- ------<br>-- --- -------- -------- ---------- ---- ---- ---- ------<br>to --------- -- ---- -- --- -- --- ------- -- - -----<br>---------- -- -- -- ---- ----- -- ------ -- --- ------<br>-------,252541.83000000194,252534.1350000017,252163.585,252173.21500000253,252180.251,252546.903,,26,to
screen,html.Screen,1_3_1_0_1_27,2021-04-27T09:47:41.198Z,,,,,,,,,,,,,,,,48,,,,,,,,,,,,,,214.3770000024524,,response,,,,10,B,,,,,,Space,keypress(Space),,,,lyrical,,,,-- -- --- ------ ------- --------- ----------- --------<br>--------- -------- --- ------- -- ------- ---- -- ------<br>-- --- -------- -------- ---------- ---- ---- ---- ------<br>-- transport -- ---- -- --- -- --- ------- -- - -----<br>---------- -- -- -- ---- ----- -- ------ -- --- ------<br>-------,252769.87999999983,252761.28000000244,252530.237,252542.00000000128,252546.903,252780.227,,27,transport
screen,html.Screen,1_3_1_0_1_28,2021-04-27T09:47:41.513Z,,,,,,,,,,,,,,,,48,,,,,,,,,,,,,,296.02799999993294,,response,,,,10,B,,,,,,Space,keypress(Space),,,,lyrical,,,,-- -- --- ------ ------- --------- ----------- --------<br>--------- -------- --- ------- -- ------- ---- -- ------<br>-- --- -------- -------- ---------- ---- ---- ---- ------<br>-- --------- it ---- -- --- -- --- ------- -- - -----<br>---------- -- -- -- ---- ----- -- ------ -- --- ------<br>-------,253084.51500000228,253076.25499999995,252763.561,252770.0500000028,252780.227,253096.881,,28,it
screen,html.Screen,1_3_1_0_1_29,2021-04-27T09:47:41.776Z,,,,,,,,,,,,,,,,48,,,,,,,,,,,,,,243.43400000128895,,response,,,,10,B,,,,,,Space,keypress(Space),,,,lyrical,,,,-- -- --- ------ ------- --------- ----------- --------<br>--------- -------- --- ------- -- ------- ---- -- ------<br>-- --- -------- -------- ---------- ---- ---- ---- ------<br>-- --------- -- into -- --- -- --- ------- -- - -----<br>---------- -- -- -- ---- ----- -- ------ -- --- ------<br>-------,253348.4150000004,253340.31500000128,253080.215,253084.67500000188,253096.881,253363.537,,29,into
screen,html.Screen,1_3_1_0_1_30,2021-04-27T09:47:42.063Z,,,,,,,,,,,,,,,,48,,,,,,,,,,,,,,263.55799999981537,,response,,,,10,B,,,,,,Space,keypress(Space),,,,lyrical,,,,-- -- --- ------ ------- --------- ----------- --------<br>--------- -------- --- ------- -- ------- ---- -- ------<br>-- --- -------- -------- ---------- ---- ---- ---- ------<br>-- --------- -- ---- or --- -- --- ------- -- - -----<br>---------- -- -- -- ---- ----- -- ------ -- --- ------<br>-------,253634.9850000006,253627.09499999983,253346.871,253348.59000000142,253363.537,253646.859,,30,or
screen,html.Screen,1_3_1_0_1_31,2021-04-27T09:47:42.356Z,,,,,,,,,,,,,,,,48,,,,,,,,,,,,,,273.25100000275415,,response,,,,10,B,,,,,,Space,keypress(Space),,,,lyrical,,,,-- -- --- ------ ------- --------- ----------- --------<br>--------- -------- --- ------- -- ------- ---- -- ------<br>-- --- -------- -------- ---------- ---- ---- ---- ------<br>-- --------- -- ---- -- out -- --- ------- -- - -----<br>---------- -- -- -- ---- ----- -- ------ -- --- ------<br>-------,253927.84500000198,253920.11000000275,253630.193,253635.15499999994,253646.859,253930.181,,31,out
screen,html.Screen,1_3_1_0_1_32,2021-04-27T09:47:42.630Z,,,,,,,,,,,,,,,,48,,,,,,,,,,,,,,264.10900000308175,,response,,,,10,B,,,,,,Space,keypress(Space),,,,lyrical,,,,-- -- --- ------ ------- --------- ----------- --------<br>--------- -------- --- ------- -- ------- ---- -- ------<br>-- --- -------- -------- ---------- ---- ---- ---- ------<br>-- --------- -- ---- -- --- of --- ------- -- - -----<br>---------- -- -- -- ---- ----- -- ------ -- --- ------<br>-------,254202.24000000235,254194.2900000031,253913.515,253928.01000000327,253930.181,254213.503,,32,of
screen,html.Screen,1_3_1_0_1_33,2021-04-27T09:47:42.883Z,,,,,,,,,,,,,,,,48,,,,,,,,,,,,,,233.71200000014505,,response,,,,10,B,,,,,,Space,keypress(Space),,,,lyrical,,,,-- -- --- ------ ------- --------- ----------- --------<br>--------- -------- --- ------- -- ------- ---- -- ------<br>-- --- -------- -------- ---------- ---- ---- ---- ------<br>-- --------- -- ---- -- --- -- the ------- -- - -----<br>---------- -- -- -- ---- ----- -- ------ -- --- ------<br>-------,254455.21000000008,254447.21500000014,254196.837,254202.40000000194,254213.503,254463.493,,33,the
screen,html.Screen,1_3_1_0_1_34,2021-04-27T09:47:43.190Z,,,,,,,,,,,,,,,,48,,,,,,,,,,,,,,290.7470000020403,,response,,,,10,B,,,,,,Space,keypress(Space),,,,lyrical,,,,-- -- --- ------ ------- --------- ----------- --------<br>--------- -------- --- ------- -- ------- ---- -- ------<br>-- --- -------- -------- ---------- ---- ---- ---- ------<br>-- --------- -- ---- -- --- -- --- country -- - -----<br>---------- -- -- -- ---- ----- -- ------ -- --- ------<br>-------,254761.99500000075,254754.24000000203,254446.827,254455.36999999968,254463.493,254763.481,,34,country
screen,html.Screen,1_3_1_0_1_35,2021-04-27T09:47:43.505Z,,,,,,,,,,,,,,,,48,,,,,,,,,,,,,,305.69400000054156,,response,,,,10,B,,,,,,Space,keypress(Space),,,,lyrical,,,,-- -- --- ------ ------- --------- ----------- --------<br>--------- -------- --- ------- -- ------- ---- -- ------<br>-- --- -------- -------- ---------- ---- ---- ---- ------<br>-- --------- -- ---- -- --- -- --- ------- is - -----<br>---------- -- -- -- ---- ----- -- ------ -- --- ------<br>-------,255077.05500000156,255069.17500000054,254746.815,254762.15500000035,254763.481,255080.135,,35,is
screen,html.Screen,1_3_1_0_1_36,2021-04-27T09:47:43.861Z,,,,,,,,,,,,,,,,48,,,,,,,,,,,,,,345.0350000022445,,response,,,,10,B,,,,,,Space,keypress(Space),,,,lyrical,,,,-- -- --- ------ ------- --------- ----------- --------<br>--------- -------- --- ------- -- ------- ---- -- ------<br>-- --- -------- -------- ---------- ---- ---- ---- ------<br>-- --------- -- ---- -- --- -- --- ------- -- a -----<br>---------- -- -- -- ---- ----- -- ------ -- --- ------<br>-------,255432.5200000021,255425.17000000225,255063.469,255077.32000000033,255080.135,255446.787,,36,a
screen,html.Screen,1_3_1_0_1_37,2021-04-27T09:47:44.211Z,,,,,,,,,,,,,,,,48,,,,,,,,,,,,,,328.4030000002822,,response,,,,10,B,,,,,,Space,keypress(Space),,,,lyrical,,,,-- -- --- ------ ------- --------- ----------- --------<br>--------- -------- --- ------- -- ------- ---- -- ------<br>-- --- -------- -------- ---------- ---- ---- ---- ------<br>-- --------- -- ---- -- --- -- --- ------- -- - crime<br>---------- -- -- -- ---- ----- -- ------ -- --- ------<br>-------,255783.3950000022,255775.1900000003,255430.121,255432.68499999976,255446.787,255796.773,,37,crime
screen,html.Screen,1_3_1_0_1_38,2021-04-27T09:47:44.563Z,,,,,,,,,,,,,,,,48,,,,,,,,,,,,,,330.22200000236626,,response,,,,10,B,,,,,,Space,keypress(Space),,,,lyrical,,,,-- -- --- ------ ------- --------- ----------- --------<br>--------- -------- --- ------- -- ------- ---- -- ------<br>-- --- -------- -------- ---------- ---- ---- ---- ------<br>-- --------- -- ---- -- --- -- --- ------- -- - -----<br>punishable -- -- -- ---- ----- -- ------ -- --- ------<br>-------,256135.05500000247,256126.99500000235,255780.107,255783.56500000154,255796.773,256146.759,,38,punishable
screen,html.Screen,1_3_1_0_1_39,2021-04-27T09:47:44.761Z,,,,,,,,,,,,,,,,48,,,,,,,,,,,,,,178.42099999982747,,response,,,,10,B,,,,,,Space,keypress(Space),,,,lyrical,,,,-- -- --- ------ ------- --------- ----------- --------<br>--------- -------- --- ------- -- ------- ---- -- ------<br>-- --- -------- -------- ---------- ---- ---- ---- ------<br>-- --------- -- ---- -- --- -- --- ------- -- - -----<br>---------- by -- -- ---- ----- -- ------ -- --- ------<br>-------,256332.7550000031,256325.17999999982,256130.093,256135.22999999986,256146.759,256346.751,,39,by
screen,html.Screen,1_3_1_0_1_40,2021-04-27T09:47:45.069Z,,,,,,,,,,,,,,,,48,,,,,,,,,,,,,,286.4290000007313,,response,,,,10,B,,,,,,Space,keypress(Space),,,,lyrical,,,,-- -- --- ------ ------- --------- ----------- --------<br>--------- -------- --- ------- -- ------- ---- -- ------<br>-- --- -------- -------- ---------- ---- ---- ---- ------<br>-- --------- -- ---- -- --- -- --- ------- -- - -----<br>---------- -- up -- ---- ----- -- ------ -- --- ------<br>-------,256641.0649999998,256633.18000000072,256330.085,256332.92000000074,256346.751,256645.331,,40,up
screen,html.Screen,1_3_1_0_1_41,2021-04-27T09:47:45.469Z,,,,,,,,,,,,,,,,48,,,,,,,,,,,,,,387.869000001665,,response,,,,10,B,,,,,,Space,keypress(Space),,,,lyrical,,,,-- -- --- ------ ------- --------- ----------- --------<br>--------- -------- --- ------- -- ------- ---- -- ------<br>-- --- -------- -------- ---------- ---- ---- ---- ------<br>-- --------- -- ---- -- --- -- --- ------- -- - -----<br>---------- -- -- to ---- ----- -- ------ -- --- ------<br>-------,257041.33999999976,257033.20000000167,256628.665,256641.2300000011,256645.331,257045.315,,41,to
