sender,sender_type,sender_id,timestamp,meta,,Blues,Classical,Country,Dance,Electronic,Folk,Gospel,Hip-Hop,Jazz,Latin,Musical/Film,New-age,Pop,Provo_ID,R&B,Rap,Reggae,Religious,Rock,Soul,Swing,Traditional,age,artist_name,correct,correctResponse,distraction,duration,education,ended_on,familiarity,gender,headphone_check_performance,item,list,music_frequency,offensiveness,pleasantness,position_correct,preference,response,response_action,snippet_file,song_name,song_rating,sound,stimulus_1,stimulus_2,stimulus_3,text,time_commit,time_end,time_render,time_run,time_show,time_switch,url,word,word_ID
Introduction,html.Screen,0_0,2021-04-13T12:21:12.334Z,"{""labjs_version"":""20.2.2"",""labjs_build"":{""flavor"":""production"",""commit"":""a25486e0c714a0ae2ce03ff94b7bb6896854dcfa""},""location"":""https://run.pavlovia.org/mvasilev/music_b/"",""userAgent"":""Mozilla/5.0 (Windows NT 10.0; Win64; x64) AppleWebKit/537.36 (KHTML, like Gecko) Chrome/89.0.4389.114 Safari/537.36 Edg/89.0.774.75"",""platform"":""Win32"",""language"":""en-GB"",""locale"":""en-GB"",""timeZone"":""Europe/London"",""timezoneOffset"":-60,""screen_width"":1536,""screen_height"":864,""scroll_width"":1536,""scroll_height"":706,""window_innerWidth"":1536,""window_innerHeight"":754,""devicePixelRatio"":1.25}",,,,,,,,,,,,,,,,,,,,,,,,,,,,,25687.88199998916,,response,,,,,,,,,,,continue,click button,,,,,,,,,31155.70000000298,31154.73499998916,5434.303,5447.140000003856,5466.853,31167.096,{},,
Volume calibration,html.Screen,0_1,2021-04-13T12:21:26.193Z,,,,,,,,,,,,,,,,,,,,,,,,,,,,,,13845.898999997316,,response,,,,,,,,,,,continue,click button,,,,,,,,,45014.78999998653,45012.99499999732,31150.53,31155.85999999894,31167.096,45025.029,,,
Task instructions,html.Screen,0_2,2021-04-13T12:21:32.154Z,,,,,,,,,,,,,,,,,,,,,,,,,,,,,,5949.945999960975,,response,,,,,,,,,,,continue,click button,,,,,,,,,50975.674999994226,50974.97499996098,45008.369,45014.88999999128,45025.029,50987.885,,,
Sounds,html.Screen,0_3_0_0,2021-04-13T12:21:36.399Z,,,,,,,,,,,,,,,,,,,,,,,,,,,,,,4263.889999999999,,timeout,,,,,,,,,1,,,,,,,,S,I,O,,55220.93999997014,55218.544,50971.244,50975.81499995431,50987.885,55251.775,,,
Judgement,html.Screen,0_3_0_1,2021-04-13T12:21:40.879Z,,,,,,,,,,,,,,,,,,,,,,,,,,,true,1,,4447.414999955705,,response,,,,,,,,,1,,1,click #choice-1,,,,,S,I,O,,59700.09999995818,59699.189999955706,55218.544,55221.03499999503,55251.775,59715.627,,,
Trial,flow.Sequence,0_3_0,2021-04-13T12:21:40.880Z,,,,,,,,,,,,,,,,,,,,,,,,,,,,,,8711.304999955704,,completion,,,,,,,,,1,,,,,,,,S,I,O,,59701.06999995187,59699.189999955706,50971.244,50975.784999958705,50987.885,59715.627,,,
Sounds,html.Screen,0_3_1_0,2021-04-13T12:21:45.126Z,,,,,,,,,,,,,,,,,,,,,,,,,,,,,,4247.243000000002,,timeout,,,,,,,,,2,,,,,,,,I,S,O,,63947.04499997897,63946.292,59699.037,59701.15999999689,59715.627,63962.87,,,
Judgement,html.Screen,0_3_1_1,2021-04-13T12:21:45.620Z,,,,,,,,,,,,,,,,,,,,,,,,,,,true,2,,477.88999996857456,,response,,,,,,,,,2,,2,click #choice-2,,,,,I,S,O,,64441.55999994837,64440.75999996858,63946.292,63947.11999996798,63962.87,64445.911,,,
Trial,flow.Sequence,0_3_1,2021-04-13T12:21:45.620Z,,,,,,,,,,,,,,,,,,,,,,,,,,,,,,4725.132999968577,,completion,,,,,,,,,2,,,,,,,,I,S,O,,64441.77499995567,64440.75999996858,59699.037,59701.139999961015,59715.627,64445.911,,,
Sounds,html.Screen,0_3_2_0,2021-04-13T12:21:49.856Z,,,,,,,,,,,,,,,,,,,,,,,,,,,,,,4247.314999999995,,timeout,,,,,,,,,2,,,,,,,,O,S,I,,68677.07999999402,68676.595,64429.283,64441.9249999919,64445.911,68693.226,,,
Judgement,html.Screen,0_3_2_1,2021-04-13T12:21:50.326Z,,,,,,,,,,,,,,,,,,,,,,,,,,,true,2,,453.5139999965031,,response,,,,,,,,,2,,2,click #choice-2,,,,,O,S,I,,69147.44999998948,69146.7399999965,68676.595,68677.22999997204,68693.226,69159.617,,,
Trial,flow.Sequence,0_3_2,2021-04-13T12:21:50.326Z,,,,,,,,,,,,,,,,,,,,,,,,,,,,,,4700.828999996498,,completion,,,,,,,,,2,,,,,,,,O,S,I,,69147.55999995396,69146.7399999965,64429.283,64441.89999997616,64445.911,69159.617,,,
Sounds,html.Screen,0_3_3_0,2021-04-13T12:21:54.570Z,,,,,,,,,,,,,,,,,,,,,,,,,,,,,,4247.286999999997,,timeout,,,,,,,,,1,,,,,,,,S,O,I,,73391.15499996115,73390.267,69143.212,69147.63500000117,69159.617,73406.904,,,
Judgement,html.Screen,0_3_3_1,2021-04-13T12:21:55.120Z,,,,,,,,,,,,,,,,,,,,,,,,,,,true,1,,533.7559999638324,,response,,,,,,,,,1,,1,click #choice-1,,,,,S,O,I,,73941.44999998389,73940.65999996383,73390.267,73391.27500000177,73406.904,73956.603,,,
Trial,flow.Sequence,0_3_3,2021-04-13T12:21:55.120Z,,,,,,,,,,,,,,,,,,,,,,,,,,,,,,4781.042999963829,,completion,,,,,,,,,1,,,,,,,,S,O,I,,73941.54999998864,73940.65999996383,69143.212,69147.60500000557,69159.617,73956.603,,,
Sounds,html.Screen,0_3_4_0,2021-04-13T12:21:59.367Z,,,,,,,,,,,,,,,,,,,,,,,,,,,,,,4247.1860000000015,,timeout,,,,,,,,,3,,,,,,,,O,I,S,,78187.93999997433,78187.255,73939.997,73941.61499995971,73956.603,78203.789,,,
Judgement,html.Screen,0_3_4_1,2021-04-13T12:21:59.889Z,,,,,,,,,,,,,,,,,,,,,,,,,,,true,3,,505.0759999932343,,response,,,,,,,,,3,,3,click #choice-3,,,,,O,I,S,,78709.61999997962,78708.86499999324,78187.255,78188.10999998823,78203.789,78720.162,,,
Trial,flow.Sequence,0_3_4,2021-04-13T12:21:59.889Z,,,,,,,,,,,,,,,,,,,,,,,,,,,,,,4752.261999993236,,completion,,,,,,,,,3,,,,,,,,O,I,S,,78709.72499996424,78708.86499999324,73939.997,73941.59999996191,73956.603,78720.162,,,
Sounds,html.Screen,0_3_5_0,2021-04-13T12:22:04.130Z,,,,,,,,,,,,,,,,,,,,,,,,,,,,,,4247.315000000002,,timeout,,,,,,,,,3,,,,,,,,I,O,S,,82951.30499999505,82950.814,78703.597,78709.80499999132,78720.162,82967.477,,,
Judgement,html.Screen,0_3_5_1,2021-04-13T12:22:04.597Z,,,,,,,,,,,,,,,,,,,,,,,,,,,true,3,,449.40799995507405,,response,,,,,,,,,3,,3,click #choice-3,,,,,I,O,S,,83417.75999998208,83416.88499995507,82950.814,82951.42999995733,82967.477,83433.878,,,
Trial,flow.Sequence,0_3_5,2021-04-13T12:22:04.597Z,,,,,,,,,,,,,,,,,,,,,,,,,,,,,,4696.722999955076,,completion,,,,,,,,,3,,,,,,,,I,O,S,,83417.85999998683,83416.88499995507,78703.597,78709.78999999352,78720.162,83433.878,,,
Task,flow.Loop,0_3,2021-04-13T12:22:04.599Z,,,,,,,,,,,,,,,,,,,,,,,,,,,,,,32428.99999995507,,completion,,,1,,,,,,,,,,,,,,,,,,83420.28500000015,83416.88499995507,50971.244,50975.7549999631,50987.885,83433.878,,,
Trap,html.Screen,0_4,2021-04-13T12:22:04.600Z,,,,,,,,,,,,,,,,,,,,,,,,,,,,,,NaN,,skipped,,,,,,,,,,,,,,,,,,,,,83420.97499995725,83416.88499995507,,83420.90999998618,,83433.878,,,
Thanks,html.Screen,0_5,2021-04-13T12:22:09.155Z,,,,,,,,,,,,,,,,,,,,,,,,,,,,,,4541.126999956585,,response,,,,,,,,,,,continue,click button,,,,,,,,,87975.67499999423,87975.00499995658,83417.25,83421.0299999686,83433.878,91078.949,,,
Headphone screening,flow.Sequence,0,2021-04-13T12:22:09.155Z,,,,,,,,,,,,,,,,,,,,,,,,,,,,,,82508.15199995658,,completion,,,,,,,,,,,,,,,,,,,,,87975.77999997884,87975.00499995658,5434.303,5447.124999947846,5466.853,91078.949,,,
Instructions,html.Page,1_0,2021-04-13T12:22:31.151Z,,,,,,,,,,,,,,,,,,,,,,,,,,,,,,18893.28099995575,,form submission,,,,,,,,,,,,,,,,,,,,,109972.36999997403,109972.22999995574,91062.297,91068.0599999614,91078.949,109983.699,,,
Holding screen,html.Screen,1_1_0_0,2021-04-13T12:22:41.140Z,,,,,,,,,,,,,,,,,,,,,,,,,,,,,,9993.489000000001,,timeout,,,,,,,,,,,,,,,,,,,,,119961.09999995679,119960.594,109967.209,109972.47999999672,109983.699,119977.188,,,
screen,html.Screen,1_1_0_1_0,2021-04-13T12:22:42.548Z,,,,,,,,,,,,,,,,53,,,,,,,,,,,,,,1390.2169999681355,,response,,,,99,,,,,,,Space,keypress(Space),,,,,,,,When -- ----- -- ------ - ------- --- ----------<br>------------- ------ ------ ---- ---- ------- ----- -- ----<br>-------- ------- -- ---------- --- - --- ----- ----- ----<br>---- --- --- ----- --- ---- ---- ------- ----- ---- -------<br>--- --- -- ----- -- --- ---- -- --- ---- -- ------ ------<br>--- ----- -- ----,121369.42999996245,121367.40499996813,119960.594,119961.21999999741,119977.188,121376.526,,0,When
screen,html.Screen,1_1_0_1_1,2021-04-13T12:22:42.990Z,,,,,,,,,,,,,,,,53,,,,,,,,,,,,,,434.5339999781718,,response,,,,99,,,,,,,Space,keypress(Space),,,,,,,,---- it ----- -- ------ - ------- --- ----------<br>------------- ------ ------ ---- ---- ------- ----- -- ----<br>-------- ------- -- ---------- --- - --- ----- ----- ----<br>---- --- --- ----- --- ---- ---- ------- ----- ---- -------<br>--- --- -- ----- -- --- ---- -- --- ---- -- ------ ------<br>--- ----- -- ----,121811.41999998363,121811.05999997817,121360.572,121369.5149999694,121376.526,121826.015,,1,it
screen,html.Screen,1_1_0_1_2,2021-04-13T12:22:43.439Z,,,,,,,,,,,,,,,,53,,,,,,,,,,,,,,434.03999996244966,,response,,,,99,,,,,,,Space,keypress(Space),,,,,,,,---- -- comes -- ------ - ------- --- ----------<br>------------- ------ ------ ---- ---- ------- ----- -- ----<br>-------- ------- -- ---------- --- - --- ----- ----- ----<br>---- --- --- ----- --- ---- ---- ------- ----- ---- -------<br>--- --- -- ----- -- --- ---- -- --- ---- -- ------ ------<br>--- ----- -- ----,122260.45999996131,122260.05499996245,121809.628,121811.48999999277,121826.015,122275.754,,2,comes
screen,html.Screen,1_1_0_1_3,2021-04-13T12:22:43.810Z,,,,,,,,,,,,,,,,53,,,,,,,,,,,,,,354.61599996984296,,response,,,,99,,,,,,,Space,keypress(Space),,,,,,,,---- -- ----- to ------ - ------- --- ----------<br>------------- ------ ------ ---- ---- ------- ----- -- ----<br>-------- ------- -- ---------- --- - --- ----- ----- ----<br>---- --- --- ----- --- ---- ---- ------- ----- ---- -------<br>--- --- -- ----- -- --- ---- -- --- ---- -- ------ ------<br>--- ----- -- ----,122631.40999997267,122630.36999996984,122259.383,122260.53499995032,122275.754,122642.196,,3,to
screen,html.Screen,1_1_0_1_4,2021-04-13T12:22:44.224Z,,,,,,,,,,,,,,,,53,,,,,,,,,,,,,,402.35399999143556,,response,,,,99,,,,,,,Space,keypress(Space),,,,,,,,---- -- ----- -- having - ------- --- ----------<br>------------- ------ ------ ---- ---- ------- ----- -- ----<br>-------- ------- -- ---------- --- - --- ----- ----- ----<br>---- --- --- ----- --- ---- ---- ------- ----- ---- -------<br>--- --- -- ----- -- --- ---- -- --- ---- -- ------ ------<br>--- ----- -- ----,123044.93499995442,123044.54999999143,122625.719,122631.49999995949,122642.196,123058.774,,4,having
screen,html.Screen,1_1_0_1_5,2021-04-13T12:22:44.565Z,,,,,,,,,,,,,,,,53,,,,,,,,,,,,,,326.4559999562043,,response,,,,99,,,,,,,Space,keypress(Space),,,,,,,,---- -- ----- -- ------ a ------- --- ----------<br>------------- ------ ------ ---- ---- ------- ----- -- ----<br>-------- ------- -- ---------- --- - --- ----- ----- ----<br>---- --- --- ----- --- ---- ---- ------- ----- ---- -------<br>--- --- -- ----- -- --- ---- -- --- ---- -- ------ ------<br>--- ----- -- ----,123385.82999998471,123385.22999995621,123042.187,123045.01000000164,123058.774,123391.741,,5,a
screen,html.Screen,1_1_0_1_6,2021-04-13T12:22:44.938Z,,,,,,,,,,,,,,,,53,,,,,,,,,,,,,,367.30899999329995,,response,,,,99,,,,,,,Space,keypress(Space),,,,,,,,---- -- ----- -- ------ - lasting --- ----------<br>------------- ------ ------ ---- ---- ------- ----- -- ----<br>-------- ------- -- ---------- --- - --- ----- ----- ----<br>---- --- --- ----- --- ---- ---- ------- ----- ---- -------<br>--- --- -- ----- -- --- ---- -- --- ---- -- ------ ------<br>--- ----- -- ----,123759.40999999875,123759.0499999933,123375.248,123385.89999999385,123391.741,123774.835,,6,lasting
screen,html.Screen,1_1_0_1_7,2021-04-13T12:22:45.287Z,,,,,,,,,,,,,,,,53,,,,,,,,,,,,,,332.7799999862473,,response,,,,99,,,,,,,Space,keypress(Space),,,,,,,,---- -- ----- -- ------ - ------- and ----------<br>------------- ------ ------ ---- ---- ------- ----- -- ----<br>-------- ------- -- ---------- --- - --- ----- ----- ----<br>---- --- --- ----- --- ---- ---- ------- ----- ---- -------<br>--- --- -- ----- -- --- ---- -- --- ---- -- ------ ------<br>--- ----- -- ----,124108.08999999426,124107.61499998625,123758.373,123759.48499998776,123774.835,124124.554,,7,and
screen,html.Screen,1_1_0_1_8,2021-04-13T12:22:45.637Z,,,,,,,,,,,,,,,,53,,,,,,,,,,,,,,333.5609999867156,,response,,,,99,,,,,,,Space,keypress(Space),,,,,,,,---- -- ----- -- ------ - ------- --- fulfilling<br>------------- ------ ------ ---- ---- ------- ----- -- ----<br>-------- ------- -- ---------- --- - --- ----- ----- ----<br>---- --- --- ----- --- ---- ---- ------- ----- ---- -------<br>--- --- -- ----- -- --- ---- -- --- ---- -- ------ ------<br>--- ----- -- ----,124458.45999999437,124458.11499998672,124108.193,124108.16499998327,124124.554,124474.441,,8,fulfilling
screen,html.Screen,1_1_0_1_9,2021-04-13T12:22:46.020Z,,,,,,,,,,,,,,,,53,,,,,,,,,,,,,,366.20899996916705,,response,,,,99,,,,,,,Space,keypress(Space),,,,,,,,"---- -- ----- -- ------ - ------- --- ----------<br>relationship, ------ ------ ---- ---- ------- ----- -- ----<br>-------- ------- -- ---------- --- - --- ----- ----- ----<br>---- --- --- ----- --- ---- ---- ------- ----- ---- -------<br>--- --- -- ----- -- --- ---- -- --- ---- -- ------ ------<br>--- ----- -- ----",124840.99499997683,124840.64999996917,124457.846,124458.53000000352,124474.441,124857.442,,9,"relationship,"
screen,html.Screen,1_1_0_1_10,2021-04-13T12:22:46.396Z,,,,,,,,,,,,,,,,53,,,,,,,,,,,,,,359.3029999833525,,response,,,,99,,,,,,,Space,keypress(Space),,,,,,,,---- -- ----- -- ------ - ------- --- ----------<br>------------- common ------ ---- ---- ------- ----- -- ----<br>-------- ------- -- ---------- --- - --- ----- ----- ----<br>---- --- --- ----- --- ---- ---- ------- ----- ---- -------<br>--- --- -- ----- -- --- ---- -- --- ---- -- ------ ------<br>--- ----- -- ----,125217.23499998916,125216.74499998335,124841.086,124841.06999996584,124857.442,125224.127,,10,common
screen,html.Screen,1_1_0_1_11,2021-04-13T12:22:46.795Z,,,,,,,,,,,,,,,,53,,,,,,,,,,,,,,391.54299997013004,,response,,,,99,,,,,,,Space,keypress(Space),,,,,,,,---- -- ----- -- ------ - ------- --- ----------<br>------------- ------ wisdom ---- ---- ------- ----- -- ----<br>-------- ------- -- ---------- --- - --- ----- ----- ----<br>---- --- --- ----- --- ---- ---- ------- ----- ---- -------<br>--- --- -- ----- -- --- ---- -- --- ---- -- ------ ------<br>--- ----- -- ----,125616.03499995545,125615.66999997012,125207.385,125217.30999997817,125224.127,125623.624,,11,wisdom
screen,html.Screen,1_1_0_1_12,2021-04-13T12:22:47.111Z,,,,,,,,,,,,,,,,53,,,,,,,,,,,,,,308.1810000001715,,response,,,,99,,,,,,,Space,keypress(Space),,,,,,,,---- -- ----- -- ------ - ------- --- ----------<br>------------- ------ ------ says ---- ------- ----- -- ----<br>-------- ------- -- ---------- --- - --- ----- ----- ----<br>---- --- --- ----- --- ---- ---- ------- ----- ---- -------<br>--- --- -- ----- -- --- ---- -- --- ---- -- ------ ------<br>--- ----- -- ----,125932.14999994962,125931.80500000017,125607.24,125616.11499998253,125623.624,125940.208,,12,says
screen,html.Screen,1_1_0_1_13,2021-04-13T12:22:47.687Z,,,,,,,,,,,,,,,,53,,,,,,,,,,,,,,567.1269999729557,,response,,,,99,,,,,,,Space,keypress(Space),,,,,,,,---- -- ----- -- ------ - ------- --- ----------<br>------------- ------ ------ ---- that ------- ----- -- ----<br>-------- ------- -- ---------- --- - --- ----- ----- ----<br>---- --- --- ----- --- ---- ---- ------- ----- ---- -------<br>--- --- -- ----- -- --- ---- -- --- ---- -- ------ ------<br>--- ----- -- ----,126507.92000000365,126507.33499997295,125923.638,125932.22499999683,125940.208,126523.281,,13,that
screen,html.Screen,1_1_0_1_14,2021-04-13T12:22:48.269Z,,,,,,,,,,,,,,,,53,,,,,,,,,,,,,,566.3589999619435,,response,,,,99,,,,,,,Space,keypress(Space),,,,,,,,---- -- ----- -- ------ - ------- --- ----------<br>------------- ------ ------ ---- ---- feeling ----- -- ----<br>-------- ------- -- ---------- --- - --- ----- ----- ----<br>---- --- --- ----- --- ---- ---- ------- ----- ---- -------<br>--- --- -- ----- -- --- ---- -- --- ---- -- ------ ------<br>--- ----- -- ----,127090.15000000363,127089.63999996195,126506.721,126508.00999999046,126523.281,127106.047,,14,feeling
screen,html.Screen,1_1_0_1_15,2021-04-13T12:22:48.600Z,,,,,,,,,,,,,,,,53,,,,,,,,,,,,,,314.562999971924,,response,,,,99,,,,,,,Space,keypress(Space),,,,,,,,---- -- ----- -- ------ - ------- --- ----------<br>------------- ------ ------ ---- ---- ------- close -- ----<br>-------- ------- -- ---------- --- - --- ----- ----- ----<br>---- --- --- ----- --- ---- ---- ------- ----- ---- -------<br>--- --- -- ----- -- --- ---- -- --- ---- -- ------ ------<br>--- ----- -- ----,127420.97999999532,127420.60999997193,127089.674,127090.23499995237,127106.047,127422.429,,15,close
screen,html.Screen,1_1_0_1_16,2021-04-13T12:22:48.919Z,,,,,,,,,,,,,,,,53,,,,,,,,,,,,,,316.83100000210106,,response,,,,99,,,,,,,Space,keypress(Space),,,,,,,,---- -- ----- -- ------ - ------- --- ----------<br>------------- ------ ------ ---- ---- ------- ----- to ----<br>-------- ------- -- ---------- --- - --- ----- ----- ----<br>---- --- --- ----- --- ---- ---- ------- ----- ---- -------<br>--- --- -- ----- -- --- ---- -- --- ---- -- ------ ------<br>--- ----- -- ----,127739.63999998523,127739.2600000021,127406.049,127421.0599999642,127422.429,127755.59,,16,to
screen,html.Screen,1_1_0_1_17,2021-04-13T12:22:49.225Z,,,,,,,,,,,,,,,,53,,,,,,,,,,,,,,290.01999997193343,,response,,,,99,,,,,,,Space,keypress(Space),,,,,,,,---- -- ----- -- ------ - ------- --- ----------<br>------------- ------ ------ ---- ---- ------- ----- -- your<br>-------- ------- -- ---------- --- - --- ----- ----- ----<br>---- --- --- ----- --- ---- ---- ------- ----- ---- -------<br>--- --- -- ----- -- --- ---- -- --- ---- -- ------ ------<br>--- ----- -- ----,128046.0149999708,128045.60999997193,127739.141,127739.7199999541,127755.59,128055.651,,17,your
screen,html.Screen,1_1_0_1_18,2021-04-13T12:22:49.572Z,,,,,,,,,,,,,,,,53,,,,,,,,,,,,,,337.6040000026842,,response,,,,99,,,,,,,Space,keypress(Space),,,,,,,,---- -- ----- -- ------ - ------- --- ----------<br>------------- ------ ------ ---- ---- ------- ----- -- ----<br>romantic ------- -- ---------- --- - --- ----- ----- ----<br>---- --- --- ----- --- ---- ---- ------- ----- ---- -------<br>--- --- -- ----- -- --- ---- -- --- ---- -- ------ ------<br>--- ----- -- ----,128393.619999988,128393.25500000268,128039.002,128046.08000000007,128055.651,128405.192,,18,romantic
screen,html.Screen,1_1_0_1_19,2021-04-13T12:22:49.889Z,,,,,,,,,,,,,,,,53,,,,,,,,,,,,,,304.67799996239773,,response,,,,99,,,,,,,Space,keypress(Space),,,,,,,,---- -- ----- -- ------ - ------- --- ----------<br>------------- ------ ------ ---- ---- ------- ----- -- ----<br>-------- partner -- ---------- --- - --- ----- ----- ----<br>---- --- --- ----- --- ---- ---- ------- ----- ---- -------<br>--- --- -- ----- -- --- ---- -- --- ---- -- ------ ------<br>--- ----- -- ----,128710.26500000153,128709.8699999624,128388.785,128393.68999999715,128405.192,128721.664,,19,partner
screen,html.Screen,1_1_0_1_20,2021-04-13T12:22:50.198Z,,,,,,,,,,,,,,,,53,,,,,,,,,,,,,,296.56599998693855,,response,,,,99,,,,,,,Space,keypress(Space),,,,,,,,---- -- ----- -- ------ - ------- --- ----------<br>------------- ------ ------ ---- ---- ------- ----- -- ----<br>-------- ------- is ---------- --- - --- ----- ----- ----<br>---- --- --- ----- --- ---- ---- ------- ----- ---- -------<br>--- --- -- ----- -- --- ---- -- --- ---- -- ------ ------<br>--- ----- -- ----,129018.73499999056,129018.22999998694,128705.225,128710.33499995247,128721.664,129021.427,,20,is
screen,html.Screen,1_1_0_1_21,2021-04-13T12:22:50.533Z,,,,,,,,,,,,,,,,53,,,,,,,,,,,,,,332.2579999800364,,response,,,,99,,,,,,,Space,keypress(Space),,,,,,,,---- -- ----- -- ------ - ------- --- ----------<br>------------- ------ ------ ---- ---- ------- ----- -- ----<br>-------- ------- -- paramount. --- - --- ----- ----- ----<br>---- --- --- ----- --- ---- ---- ------- ----- ---- -------<br>--- --- -- ----- -- --- ---- -- --- ---- -- ------ ------<br>--- ----- -- ----,129354.2899999884,129353.68499998003,129004.973,129018.8199999975,129021.427,129371.271,,21,paramount.
screen,html.Screen,1_1_0_1_22,2021-04-13T12:22:50.891Z,,,,,,,,,,,,,,,,53,,,,,,,,,,,,,,340.9639999845094,,response,,,,99,,,,,,,Space,keypress(Space),,,,,,,,---- -- ----- -- ------ - ------- --- ----------<br>------------- ------ ------ ---- ---- ------- ----- -- ----<br>-------- ------- -- ---------- But - --- ----- ----- ----<br>---- --- --- ----- --- ---- ---- ------- ----- ---- -------<br>--- --- -- ----- -- --- ---- -- --- ---- -- ------ ------<br>--- ----- -- ----,129712.61499996763,129712.2349999845,129338.125,129354.37999997521,129371.271,129720.987,,22,But
screen,html.Screen,1_1_0_1_23,2021-04-13T12:22:51.190Z,,,,,,,,,,,,,,,,53,,,,,,,,,,,,,,289.6179999594751,,response,,,,99,,,,,,,Space,keypress(Space),,,,,,,,---- -- ----- -- ------ - ------- --- ----------<br>------------- ------ ------ ---- ---- ------- ----- -- ----<br>-------- ------- -- ---------- --- a --- ----- ----- ----<br>---- --- --- ----- --- ---- ---- ------- ----- ---- -------<br>--- --- -- ----- -- --- ---- -- --- ---- -- ------ ------<br>--- ----- -- ----,130010.970000003,130010.60499995947,129704.527,129712.68999995664,129720.987,130020.852,,23,a
screen,html.Screen,1_1_0_1_24,2021-04-13T12:22:51.494Z,,,,,,,,,,,,,,,,53,,,,,,,,,,,,,,293.4729999848205,,response,,,,99,,,,,,,Space,keypress(Space),,,,,,,,---- -- ----- -- ------ - ------- --- ----------<br>------------- ------ ------ ---- ---- ------- ----- -- ----<br>-------- ------- -- ---------- --- - new ----- ----- ----<br>---- --- --- ----- --- ---- ---- ------- ----- ---- -------<br>--- --- -- ----- -- --- ---- -- --- ---- -- ------ ------<br>--- ----- -- ----,130314.95999998879,130314.32499998482,130004.554,130011.04499999201,130020.852,130320.584,,24,new
screen,html.Screen,1_1_0_1_25,2021-04-13T12:22:51.767Z,,,,,,,,,,,,,,,,53,,,,,,,,,,,,,,267.50599997563404,,response,,,,99,,,,,,,Space,keypress(Space),,,,,,,,---- -- ----- -- ------ - ------- --- ----------<br>------------- ------ ------ ---- ---- ------- ----- -- ----<br>-------- ------- -- ---------- --- - --- study ----- ----<br>---- --- --- ----- --- ---- ---- ------- ----- ---- -------<br>--- --- -- ----- -- --- ---- -- --- ---- -- ------ ------<br>--- ----- -- ----,130588.61999999499,130588.08999997564,130304.282,130315.0499999756,130320.584,130603.989,,25,study
screen,html.Screen,1_1_0_1_26,2021-04-13T12:22:52.066Z,,,,,,,,,,,,,,,,53,,,,,,,,,,,,,,283.2809999483288,,response,,,,99,,,,,,,Space,keypress(Space),,,,,,,,---- -- ----- -- ------ - ------- --- ----------<br>------------- ------ ------ ---- ---- ------- ----- -- ----<br>-------- ------- -- ---------- --- - --- ----- finds ----<br>---- --- --- ----- --- ---- ---- ------- ----- ---- -------<br>--- --- -- ----- -- --- ---- -- --- ---- -- ------ ------<br>--- ----- -- ----,130887.61499995599,130887.26999994833,130587.325,130588.72999995947,130603.989,130903.699,,26,finds
screen,html.Screen,1_1_0_1_27,2021-04-13T12:22:52.400Z,,,,,,,,,,,,,,,,53,,,,,,,,,,,,,,316.76099998227437,,response,,,,99,,,,,,,Space,keypress(Space),,,,,,,,---- -- ----- -- ------ - ------- --- ----------<br>------------- ------ ------ ---- ---- ------- ----- -- ----<br>-------- ------- -- ---------- --- - --- ----- ----- that<br>---- --- --- ----- --- ---- ---- ------- ----- ---- -------<br>--- --- -- ----- -- --- ---- -- --- ---- -- ------ ------<br>--- ----- -- ----,131220.9599999478,131220.45999998227,130887.113,130887.6900000032,130903.699,131236.83,,27,that
screen,html.Screen,1_1_0_1_28,2021-04-13T12:22:52.720Z,,,,,,,,,,,,,,,,53,,,,,,,,,,,,,,304.1049999972747,,response,,,,99,,,,,,,Space,keypress(Space),,,,,,,,---- -- ----- -- ------ - ------- --- ----------<br>------------- ------ ------ ---- ---- ------- ----- -- ----<br>-------- ------- -- ---------- --- - --- ----- ----- ----<br>it's --- --- ----- --- ---- ---- ------- ----- ---- -------<br>--- --- -- ----- -- --- ---- -- --- ---- -- ------ ------<br>--- ----- -- ----,131541.28000000492,131540.93499999726,131220.261,131221.03499999503,131236.83,131553.208,,28,it's
screen,html.Screen,1_1_0_1_29,2021-04-13T12:22:53.022Z,,,,,,,,,,,,,,,,53,,,,,,,,,,,,,,289.80699999126955,,response,,,,99,,,,,,,Space,keypress(Space),,,,,,,,---- -- ----- -- ------ - ------- --- ----------<br>------------- ------ ------ ---- ---- ------- ----- -- ----<br>-------- ------- -- ---------- --- - --- ----- ----- ----<br>---- not --- ----- --- ---- ---- ------- ----- ---- -------<br>--- --- -- ----- -- --- ---- -- --- ---- -- ------ ------<br>--- ----- -- ----,131843.3949999744,131843.01499999128,131536.729,131541.35499999393,131553.208,131853.058,,29,not
screen,html.Screen,1_1_0_1_30,2021-04-13T12:22:53.298Z,,,,,,,,,,,,,,,,53,,,,,,,,,,,,,,265.5719999826688,,response,,,,99,,,,,,,Space,keypress(Space),,,,,,,,---- -- ----- -- ------ - ------- --- ----------<br>------------- ------ ------ ---- ---- ------- ----- -- ----<br>-------- ------- -- ---------- --- - --- ----- ----- ----<br>---- --- how ----- --- ---- ---- ------- ----- ---- -------<br>--- --- -- ----- -- --- ---- -- --- ---- -- ------ ------<br>--- ----- -- ----,132119.07499999506,132118.62999998266,131836.89,131843.46999996342,131853.058,132136.216,,30,how
screen,html.Screen,1_1_0_1_31,2021-04-13T12:22:53.586Z,,,,,,,,,,,,,,,,53,,,,,,,,,,,,,,270.8939999710128,,response,,,,99,,,,,,,Space,keypress(Space),,,,,,,,---- -- ----- -- ------ - ------- --- ----------<br>------------- ------ ------ ---- ---- ------- ----- -- ----<br>-------- ------- -- ---------- --- - --- ----- ----- ----<br>---- --- --- close --- ---- ---- ------- ----- ---- -------<br>--- --- -- ----- -- --- ---- -- --- ---- -- ------ ------<br>--- ----- -- ----,132407.48499997426,132407.109999971,132102.987,132119.13999996614,132136.216,132419.375,,31,close
screen,html.Screen,1_1_0_1_32,2021-04-13T12:22:53.884Z,,,,,,,,,,,,,,,,53,,,,,,,,,,,,,,284.65499996440485,,response,,,,99,,,,,,,Space,keypress(Space),,,,,,,,---- -- ----- -- ------ - ------- --- ----------<br>------------- ------ ------ ---- ---- ------- ----- -- ----<br>-------- ------- -- ---------- --- - --- ----- ----- ----<br>---- --- --- ----- you ---- ---- ------- ----- ---- -------<br>--- --- -- ----- -- --- ---- -- --- ---- -- ------ ------<br>--- ----- -- ----,132704.75499995518,132704.0299999644,132402.814,132407.5549999834,132419.375,132719.145,,32,you
screen,html.Screen,1_1_0_1_33,2021-04-13T12:22:54.189Z,,,,,,,,,,,,,,,,53,,,,,,,,,,,,,,290.12999996033614,,response,,,,99,,,,,,,Space,keypress(Space),,,,,,,,---- -- ----- -- ------ - ------- --- ----------<br>------------- ------ ------ ---- ---- ------- ----- -- ----<br>-------- ------- -- ---------- --- - --- ----- ----- ----<br>---- --- --- ----- --- feel ---- ------- ----- ---- -------<br>--- --- -- ----- -- --- ---- -- --- ---- -- ------ ------<br>--- ----- -- ----,133009.64499998372,133009.27499996033,132702.623,132704.83999996213,132719.145,133018.901,,33,feel
screen,html.Screen,1_1_0_1_34,2021-04-13T12:22:54.461Z,,,,,,,,,,,,,,,,53,,,,,,,,,,,,,,262.8989999970072,,response,,,,99,,,,,,,Space,keypress(Space),,,,,,,,---- -- ----- -- ------ - ------- --- ----------<br>------------- ------ ------ ---- ---- ------- ----- -- ----<br>-------- ------- -- ---------- --- - --- ----- ----- ----<br>---- --- --- ----- --- ---- that ------- ----- ---- -------<br>--- --- -- ----- -- --- ---- -- --- ---- -- ------ ------<br>--- ----- -- ----,133282.1399999666,133281.79999999702,133002.407,133009.7099999548,133018.901,133285.402,,34,that
screen,html.Screen,1_1_0_1_35,2021-04-13T12:22:54.761Z,,,,,,,,,,,,,,,,53,,,,,,,,,,,,,,296.00300000444986,,response,,,,99,,,,,,,Space,keypress(Space),,,,,,,,---- -- ----- -- ------ - ------- --- ----------<br>------------- ------ ------ ---- ---- ------- ----- -- ----<br>-------- ------- -- ---------- --- - --- ----- ----- ----<br>---- --- --- ----- --- ---- ---- matters ----- ---- -------<br>--- --- -- ----- -- --- ---- -- --- ---- -- ------ ------<br>--- ----- -- ----,133581.74499997403,133581.40500000445,133268.875,133282.20999997575,133285.402,133585.197,,35,matters
screen,html.Screen,1_1_0_1_36,2021-04-13T12:22:55.029Z,,,,,,,,,,,,,,,,53,,,,,,,,,,,,,,264.15799995482666,,response,,,,99,,,,,,,Space,keypress(Space),,,,,,,,"---- -- ----- -- ------ - ------- --- ----------<br>------------- ------ ------ ---- ---- ------- ----- -- ----<br>-------- ------- -- ---------- --- - --- ----- ----- ----<br>---- --- --- ----- --- ---- ---- ------- most, ---- -------<br>--- --- -- ----- -- --- ---- -- --- ---- -- ------ ------<br>--- ----- -- ----",133849.88499997417,133849.3549999548,133568.686,133581.81499998318,133585.197,133851.676,,36,"most,"
screen,html.Screen,1_1_0_1_37,2021-04-13T12:22:55.326Z,,,,,,,,,,,,,,,,53,,,,,,,,,,,,,,295.26899998585577,,response,,,,99,,,,,,,Space,keypress(Space),,,,,,,,---- -- ----- -- ------ - ------- --- ----------<br>------------- ------ ------ ---- ---- ------- ----- -- ----<br>-------- ------- -- ---------- --- - --- ----- ----- ----<br>---- --- --- ----- --- ---- ---- ------- ----- it's -------<br>--- --- -- ----- -- --- ---- -- --- ---- -- ------ ------<br>--- ----- -- ----,134147.54999999423,134146.94499998586,133835.223,133849.97499996098,133851.676,134151.467,,37,it's
screen,html.Screen,1_1_0_1_38,2021-04-13T12:22:55.596Z,,,,,,,,,,,,,,,,53,,,,,,,,,,,,,,264.9129999514553,,response,,,,99,,,,,,,Space,keypress(Space),,,,,,,,---- -- ----- -- ------ - ------- --- ----------<br>------------- ------ ------ ---- ---- ------- ----- -- ----<br>-------- ------- -- ---------- --- - --- ----- ----- ----<br>---- --- --- ----- --- ---- ---- ------- ----- ---- whether<br>--- --- -- ----- -- --- ---- -- --- ---- -- ------ ------<br>--- ----- -- ----,134416.95499996422,134416.37999995146,134135.047,134147.63500000117,134151.467,134437.244,,38,whether
screen,html.Screen,1_1_0_1_39,2021-04-13T12:22:55.838Z,,,,,,,,,,,,,,,,53,,,,,,,,,,,,,,221.8159999763011,,response,,,,99,,,,,,,Space,keypress(Space),,,,,,,,---- -- ----- -- ------ - ------- --- ----------<br>------------- ------ ------ ---- ---- ------- ----- -- ----<br>-------- ------- -- ---------- --- - --- ----- ----- ----<br>---- --- --- ----- --- ---- ---- ------- ----- ---- -------<br>you --- -- ----- -- --- ---- -- --- ---- -- ------ ------<br>--- ----- -- ----,134659.45499995723,134659.0599999763,134401.711,134417.02499997336,134437.244,134667.88,,39,you
screen,html.Screen,1_1_0_1_40,2021-04-13T12:22:56.132Z,,,,,,,,,,,,,,,,53,,,,,,,,,,,,,,284.5500000048196,,response,,,,99,,,,,,,Space,keypress(Space),,,,,,,,---- -- ----- -- ------ - ------- --- ----------<br>------------- ------ ------ ---- ---- ------- ----- -- ----<br>-------- ------- -- ---------- --- - --- ----- ----- ----<br>---- --- --- ----- --- ---- ---- ------- ----- ---- -------<br>--- are -- ----- -- --- ---- -- --- ---- -- ------ ------<br>--- ----- -- ----,134952.78999995207,134952.43000000482,134651.43,134659.53499998432,134667.88,134967.783,,40,are
screen,html.Screen,1_1_0_1_41,2021-04-13T12:22:56.368Z,,,,,,,,,,,,,,,,53,,,,,,,,,,,,,,221.40700000460492,,response,,,,99,,,,,,,Space,keypress(Space),,,,,,,,---- -- ----- -- ------ - ------- --- ----------<br>------------- ------ ------ ---- ---- ------- ----- -- ----<br>-------- ------- -- ---------- --- - --- ----- ----- ----<br>---- --- --- ----- --- ---- ---- ------- ----- ---- -------<br>--- --- as ----- -- --- ---- -- --- ---- -- ------ ------<br>--- ----- -- ----,135189.544999972,135189.1900000046,134951.151,134952.86999997916,134967.783,135200.86,,41,as
screen,html.Screen,1_1_0_1_42,2021-04-13T12:22:56.648Z,,,,,,,,,,,,,,,,53,,,,,,,,,,,,,,267.4949999608798,,response,,,,99,,,,,,,Space,keypress(Space),,,,,,,,---- -- ----- -- ------ - ------- --- ----------<br>------------- ------ ------ ---- ---- ------- ----- -- ----<br>-------- ------- -- ---------- --- - --- ----- ----- ----<br>---- --- --- ----- --- ---- ---- ------- ----- ---- -------<br>--- --- -- close -- --- ---- -- --- ---- -- ------ ------<br>--- ----- -- ----,135468.88499998022,135468.35499996087,135184.339,135189.61499998113,135200.86,135484.119,,42,close
screen,html.Screen,1_1_0_1_43,2021-04-13T12:22:56.910Z,,,,,,,,,,,,,,,,53,,,,,,,,,,,,,,246.61599999008467,,response,,,,99,,,,,,,Space,keypress(Space),,,,,,,,---- -- ----- -- ------ - ------- --- ----------<br>------------- ------ ------ ---- ---- ------- ----- -- ----<br>-------- ------- -- ---------- --- - --- ----- ----- ----<br>---- --- --- ----- --- ---- ---- ------- ----- ---- -------<br>--- --- -- ----- as --- ---- -- --- ---- -- ------ ------<br>--- ----- -- ----,135731.1650000047,135730.7349999901,135467.686,135468.98999996483,135484.119,135733.822,,43,as
screen,html.Screen,1_1_0_1_44,2021-04-13T12:22:57.170Z,,,,,,,,,,,,,,,,53,,,,,,,,,,,,,,256.6029999672319,,response,,,,99,,,,,,,Space,keypress(Space),,,,,,,,---- -- ----- -- ------ - ------- --- ----------<br>------------- ------ ------ ---- ---- ------- ----- -- ----<br>-------- ------- -- ---------- --- - --- ----- ----- ----<br>---- --- --- ----- --- ---- ---- ------- ----- ---- -------<br>--- --- -- ----- -- you ---- -- --- ---- -- ------ ------<br>--- ----- -- ----,135990.7799999928,135990.42499996722,135717.312,135731.2849999871,135733.822,136000.503,,44,you
screen,html.Screen,1_1_0_1_45,2021-04-13T12:22:57.434Z,,,,,,,,,,,,,,,,53,,,,,,,,,,,,,,254.0069999988482,,response,,,,99,,,,,,,Space,keypress(Space),,,,,,,,---- -- ----- -- ------ - ------- --- ----------<br>------------- ------ ------ ---- ---- ------- ----- -- ----<br>-------- ------- -- ---------- --- - --- ----- ----- ----<br>---- --- --- ----- --- ---- ---- ------- ----- ---- -------<br>--- --- -- ----- -- --- want -- --- ---- -- ------ ------<br>--- ----- -- ----,136254.8249999527,136254.50999999885,135983.853,135990.85499998182,136000.503,136266.88,,45,want
screen,html.Screen,1_1_0_1_46,2021-04-13T12:22:57.697Z,,,,,,,,,,,,,,,,53,,,,,,,,,,,,,,251.01499999722,,response,,,,99,,,,,,,Space,keypress(Space),,,,,,,,---- -- ----- -- ------ - ------- --- ----------<br>------------- ------ ------ ---- ---- ------- ----- -- ----<br>-------- ------- -- ---------- --- - --- ----- ----- ----<br>---- --- --- ----- --- ---- ---- ------- ----- ---- -------<br>--- --- -- ----- -- --- ---- to --- ---- -- ------ ------<br>--- ----- -- ----,136518.25999998255,136517.89499999722,136250.372,136254.89499996183,136266.88,136533.327,,46,to
screen,html.Screen,1_1_0_1_47,2021-04-13T12:22:57.945Z,,,,,,,,,,,,,,,,53,,,,,,,,,,,,,,232.4929999714368,,response,,,,99,,,,,,,Space,keypress(Space),,,,,,,,"---- -- ----- -- ------ - ------- --- ----------<br>------------- ------ ------ ---- ---- ------- ----- -- ----<br>-------- ------- -- ---------- --- - --- ----- ----- ----<br>---- --- --- ----- --- ---- ---- ------- ----- ---- -------<br>--- --- -- ----- -- --- ---- -- be, ---- -- ------ ------<br>--- ----- -- ----",136766.38499996625,136765.81999997143,136516.821,136518.32499995362,136533.327,136783.213,,47,"be,"
screen,html.Screen,1_1_0_1_48,2021-04-13T12:22:58.199Z,,,,,,,,,,,,,,,,53,,,,,,,,,,,,,,236.79199999850243,,response,,,,99,,,,,,,Space,keypress(Space),,,,,,,,---- -- ----- -- ------ - ------- --- ----------<br>------------- ------ ------ ---- ---- ------- ----- -- ----<br>-------- ------- -- ---------- --- - --- ----- ----- ----<br>---- --- --- ----- --- ---- ---- ------- ----- ---- -------<br>--- --- -- ----- -- --- ---- -- --- even -- ------ ------<br>--- ----- -- ----,137020.33499995014,137020.0049999985,136750.001,136766.4549999754,136783.213,137033.011,,48,even
screen,html.Screen,1_1_0_1_49,2021-04-13T12:22:58.449Z,,,,,,,,,,,,,,,,53,,,,,,,,,,,,,,237.15899997431552,,response,,,,99,,,,,,,Space,keypress(Space),,,,,,,,---- -- ----- -- ------ - ------- --- ----------<br>------------- ------ ------ ---- ---- ------- ----- -- ----<br>-------- ------- -- ---------- --- - --- ----- ----- ----<br>---- --- --- ----- --- ---- ---- ------- ----- ---- -------<br>--- --- -- ----- -- --- ---- -- --- ---- if ------ ------<br>--- ----- -- ----,137270.5249999999,137270.1699999743,137016.549,137020.39999997942,137033.011,137283.118,,49,if
screen,html.Screen,1_1_0_1_50,2021-04-13T12:22:58.699Z,,,,,,,,,,,,,,,,53,,,,,,,,,,,,,,236.45699998390046,,response,,,,99,,,,,,,Space,keypress(Space),,,,,,,,---- -- ----- -- ------ - ------- --- ----------<br>------------- ------ ------ ---- ---- ------- ----- -- ----<br>-------- ------- -- ---------- --- - --- ----- ----- ----<br>---- --- --- ----- --- ---- ---- ------- ----- ---- -------<br>--- --- -- ----- -- --- ---- -- --- ---- -- that's ------<br>--- ----- -- ----,137519.92999995127,137519.5749999839,137266.343,137270.58499999112,137283.118,137532.7,,50,that's
screen,html.Screen,1_1_0_1_51,2021-04-13T12:22:58.941Z,,,,,,,,,,,,,,,,53,,,,,,,,,,,,,,229.2100000010687,,response,,,,99,,,,,,,Space,keypress(Space),,,,,,,,---- -- ----- -- ------ - ------- --- ----------<br>------------- ------ ------ ---- ---- ------- ----- -- ----<br>-------- ------- -- ---------- --- - --- ----- ----- ----<br>---- --- --- ----- --- ---- ---- ------- ----- ---- -------<br>--- --- -- ----- -- --- ---- -- --- ---- -- ------ really<br>--- ----- -- ----,137762.304999982,137761.91000000108,137516.162,137519.99999996042,137532.7,137765.835,,51,really
screen,html.Screen,1_1_0_1_52,2021-04-13T12:22:59.206Z,,,,,,,,,,,,,,,,53,,,,,,,,,,,,,,260.8599999495491,,response,,,,99,,,,,,,Space,keypress(Space),,,,,,,,---- -- ----- -- ------ - ------- --- ----------<br>------------- ------ ------ ---- ---- ------- ----- -- ----<br>-------- ------- -- ---------- --- - --- ----- ----- ----<br>---- --- --- ----- --- ---- ---- ------- ----- ---- -------<br>--- --- -- ----- -- --- ---- -- --- ---- -- ------ ------<br>not ----- -- ----,138027.05999999307,138026.69499994954,137749.354,137762.36999995308,137765.835,138032.323,,52,not
screen,html.Screen,1_1_0_1_53,2021-04-13T12:22:59.472Z,,,,,,,,,,,,,,,,53,,,,,,,,,,,,,,260.3869999505987,,response,,,,99,,,,,,,Space,keypress(Space),,,,,,,,---- -- ----- -- ------ - ------- --- ----------<br>------------- ------ ------ ---- ---- ------- ----- -- ----<br>-------- ------- -- ---------- --- - --- ----- ----- ----<br>---- --- --- ----- --- ---- ---- ------- ----- ---- -------<br>--- --- -- ----- -- --- ---- -- --- ---- -- ------ ------<br>--- close -- ----,138293.14500000328,138292.7099999506,138015.855,138027.11999998428,138032.323,138298.835,,53,close
screen,html.Screen,1_1_0_1_54,2021-04-13T12:22:59.720Z,,,,,,,,,,,,,,,,53,,,,,,,,,,,,,,242.03499996798928,,response,,,,99,,,,,,,Space,keypress(Space),,,,,,,,---- -- ----- -- ------ - ------- --- ----------<br>------------- ------ ------ ---- ---- ------- ----- -- ----<br>-------- ------- -- ---------- --- - --- ----- ----- ----<br>---- --- --- ----- --- ---- ---- ------- ----- ---- -------<br>--- --- -- ----- -- --- ---- -- --- ---- -- ------ ------<br>--- ----- at ----,138541.21499997564,138540.86999996798,138282.394,138293.2499999879,138298.835,138548.72,,54,at
screen,html.Screen,1_1_0_1_55,2021-04-13T12:22:59.954Z,,,,,,,,,,,,,,,,53,,,,,,,,,,,,,,225.75000000392902,,response,,,,99,,,,,,,Space,keypress(Space),,,,,,,,---- -- ----- -- ------ - ------- --- ----------<br>------------- ------ ------ ---- ---- ------- ----- -- ----<br>-------- ------- -- ---------- --- - --- ----- ----- ----<br>---- --- --- ----- --- ---- ---- ------- ----- ---- -------<br>--- --- -- ----- -- --- ---- -- --- ---- -- ------ ------<br>--- ----- -- all.,138774.90999997826,138774.47000000393,138532.148,138541.28000000492,138548.72,138781.843,,55,all.
Item 99,flow.Loop,1_1_0_1,2021-04-13T12:22:59.954Z,,,,,,,,,,,,,,,,,,,,,,,,,,,,,,18797.282000003936,,completion,,,,,B,,,,,,,,,,,silence,,,,,138775.13999998337,138774.47000000393,119960.594,119961.19499998167,119977.188,138781.843,,,
Question 1,html.Screen,1_1_0_2,2021-04-13T12:23:04.748Z,,,,,,,,,,,,,,,,,,,,,,,,,,,true,FALSE,,4786.256999974954,,response,,,,99,B,,,,,,FALSE,click #choice-2,,,,silence,,,,,143568.80999996793,143568.09999997495,138765.379,138775.1949999947,138781.843,143578.955,,,
Question 2,html.Screen,1_1_0_3,2021-04-13T12:23:09.347Z,,,,,,,,,,,,,,,,,,,,,,,,,,,true,TRUE,,4588.114999966783,,response,,,,99,B,,,,,,TRUE,click #choice-1,,,,silence,,,,,148167.71999996854,148167.06999996677,143562.186,143568.96499998402,143578.955,148175.933,,,
Item 99,flow.Sequence,1_1_0,2021-04-13T12:23:09.347Z,,,,,,,,,,,,,,,,,,,,,,,,,,,,,,38183.37099996678,,completion,,,,,,,,,,,,,,,,,,,,,148167.82999999123,148167.06999996677,109967.209,109972.46499999892,109983.699,148175.933,,,
Holding screen,html.Screen,1_1_1_0,2021-04-13T12:23:19.333Z,,,,,,,,,,,,,,,,,,,,,,,,,,,,,,9993.73000000001,,timeout,,,,,,,,,,,,,,,,,,,,,158153.8699999801,158153.153,148159.379,148167.88999998244,148175.933,158169.663,,,
screen,html.Screen,1_1_1_1_0,2021-04-13T12:23:20.073Z,,,,,,,,,,,,,,,,54,,,,,,,,,,,,,,723.8619999631192,,response,,,,100,,,,,,,Space,keypress(Space),,,,,,,,At --- ---- --- ------ ----- ------- ---- -- --- ------- --<br>------- ---------- ------ -- ----- -- ----- -- ---- ------<br>--- ----- --- --- ------ -------- ----- --- ------ ----- --<br>----- ----- ---------- --- --- ------ ------ ---- -- ------<br>------- --- ------ ----- --- ---- ------- -- ---- --- --<br>------- ------,158894.19999998063,158893.52499996312,158153.153,158154.06499995152,158169.663,158902.479,,0,At
screen,html.Screen,1_1_1_1_1,2021-04-13T12:23:20.375Z,,,,,,,,,,,,,,,,54,,,,,,,,,,,,,,293.4809999827412,,response,,,,100,,,,,,,Space,keypress(Space),,,,,,,,-- the ---- --- ------ ----- ------- ---- -- --- ------- --<br>------- ---------- ------ -- ----- -- ----- -- ---- ------<br>--- ----- --- --- ------ -------- ----- --- ------ ----- --<br>----- ----- ---------- --- --- ------ ------ ---- -- ------<br>------- --- ------ ----- --- ---- ------- -- ---- --- --<br>------- ------,159196.33999996586,159195.95999998273,158886.194,158894.38499999233,158902.479,159202.301,,1,the
screen,html.Screen,1_1_1_1_2,2021-04-13T12:23:20.720Z,,,,,,,,,,,,,,,,54,,,,,,,,,,,,,,338.9239999935671,,response,,,,100,,,,,,,Space,keypress(Space),,,,,,,,-- --- time --- ------ ----- ------- ---- -- --- ------- --<br>------- ---------- ------ -- ----- -- ----- -- ---- ------<br>--- ----- --- --- ------ -------- ----- --- ------ ----- --<br>----- ----- ---------- --- --- ------ ------ ---- -- ------<br>------- --- ------ ----- --- ---- ------- -- ---- --- --<br>------- ------,159541.56499996316,159541.22499999357,159185.787,159196.40499999514,159202.301,159552.152,,2,time
screen,html.Screen,1_1_1_1_3,2021-04-13T12:23:21.038Z,,,,,,,,,,,,,,,,54,,,,,,,,,,,,,,306.5979999557603,,response,,,,100,,,,,,,Space,keypress(Space),,,,,,,,-- --- ---- the ------ ----- ------- ---- -- --- ------- --<br>------- ---------- ------ -- ----- -- ----- -- ---- ------<br>--- ----- --- --- ------ -------- ----- --- ------ ----- --<br>----- ----- ---------- --- --- ------ ------ ---- -- ------<br>------- --- ------ ----- --- ---- ------- -- ---- --- --<br>------- ------,159859.16999995243,159858.74999995576,159535.555,159541.6349999723,159552.152,159868.633,,3,the
screen,html.Screen,1_1_1_1_4,2021-04-13T12:23:21.428Z,,,,,,,,,,,,,,,,54,,,,,,,,,,,,,,380.48199995505274,,response,,,,100,,,,,,,Space,keypress(Space),,,,,,,,-- --- ---- --- French ----- ------- ---- -- --- ------- --<br>------- ---------- ------ -- ----- -- ----- -- ---- ------<br>--- ----- --- --- ------ -------- ----- --- ------ ----- --<br>----- ----- ---------- --- --- ------ ------ ---- -- ------<br>------- --- ------ ----- --- ---- ------- -- ---- --- --<br>------- ------,160249.6149999788,160249.11499995505,159852.011,159859.28499995498,159868.633,160251.537,,4,French
screen,html.Screen,1_1_1_1_5,2021-04-13T12:23:21.774Z,,,,,,,,,,,,,,,,54,,,,,,,,,,,,,,343.45799999218434,,response,,,,100,,,,,,,Space,keypress(Space),,,,,,,,-- --- ---- --- ------ crown ------- ---- -- --- ------- --<br>------- ---------- ------ -- ----- -- ----- -- ---- ------<br>--- ----- --- --- ------ -------- ----- --- ------ ----- --<br>----- ----- ---------- --- --- ------ ------ ---- -- ------<br>------- --- ------ ----- --- ---- ------- -- ---- --- --<br>------- ------,160595.42999998666,160594.9949999922,160235.08,160249.76499995682,160251.537,160601.388,,5,crown
screen,html.Screen,1_1_1_1_6,2021-04-13T12:23:22.113Z,,,,,,,,,,,,,,,,54,,,,,,,,,,,,,,331.836999986117,,response,,,,100,,,,,,,Space,keypress(Space),,,,,,,,-- --- ---- --- ------ ----- secured ---- -- --- ------- --<br>------- ---------- ------ -- ----- -- ----- -- ---- ------<br>--- ----- --- --- ------ -------- ----- --- ------ ----- --<br>----- ----- ---------- --- --- ------ ------ ---- -- ------<br>------- --- ------ ----- --- ---- ------- -- ---- --- --<br>------- ------,160933.7499999674,160933.22499998612,160584.87,160595.54499998922,160601.388,160955.104,,6,secured
screen,html.Screen,1_1_1_1_7,2021-04-13T12:23:22.481Z,,,,,,,,,,,,,,,,54,,,,,,,,,,,,,,346.94599999842467,,response,,,,100,,,,,,,Space,keypress(Space),,,,,,,,-- --- ---- --- ------ ----- ------- much -- --- ------- --<br>------- ---------- ------ -- ----- -- ----- -- ---- ------<br>--- ----- --- --- ------ -------- ----- --- ------ ----- --<br>----- ----- ---------- --- --- ------ ------ ---- -- ------<br>------- --- ------ ----- --- ---- ------- -- ---- --- --<br>------- ------,161302.43999999948,161302.04999999842,160917.989,160933.81499999668,160955.104,161317.663,,7,much
screen,html.Screen,1_1_1_1_8,2021-04-13T12:23:22.852Z,,,,,,,,,,,,,,,,54,,,,,,,,,,,,,,355.4219999585184,,response,,,,100,,,,,,,Space,keypress(Space),,,,,,,,-- --- ---- --- ------ ----- ------- ---- of --- ------- --<br>------- ---------- ------ -- ----- -- ----- -- ---- ------<br>--- ----- --- --- ------ -------- ----- --- ------ ----- --<br>----- ----- ---------- --- --- ------ ------ ---- -- ------<br>------- --- ------ ----- --- ---- ------- -- ---- --- --<br>------- ------,161673.4549999819,161673.08499995852,161301.09,161302.50999995042,161317.663,161684.062,,8,of
screen,html.Screen,1_1_1_1_9,2021-04-13T12:23:23.156Z,,,,,,,,,,,,,,,,54,,,,,,,,,,,,,,292.1979999667092,,response,,,,100,,,,,,,Space,keypress(Space),,,,,,,,-- --- ---- --- ------ ----- ------- ---- -- its ------- --<br>------- ---------- ------ -- ----- -- ----- -- ---- ------<br>--- ----- --- --- ------ -------- ----- --- ------ ----- --<br>----- ----- ---------- --- --- ------ ------ ---- -- ------<br>------- --- ------ ----- --- ---- ------- -- ---- --- --<br>------- ------,161976.67499998352,161976.2599999667,161667.492,161673.519999953,161684.062,161983.804,,9,its
screen,html.Screen,1_1_1_1_10,2021-04-13T12:23:23.486Z,,,,,,,,,,,,,,,,54,,,,,,,,,,,,,,323.4309999565594,,response,,,,100,,,,,,,Space,keypress(Space),,,,,,,,-- --- ---- --- ------ ----- ------- ---- -- --- revenue --<br>------- ---------- ------ -- ----- -- ----- -- ---- ------<br>--- ----- --- --- ------ -------- ----- --- ------ ----- --<br>----- ----- ---------- --- --- ------ ------ ---- -- ------<br>------- --- ------ ----- --- ---- ------- -- ---- --- --<br>------- ------,162307.6000000001,162307.23499995656,161967.329,161976.7399999546,161983.804,162317.236,,10,revenue
screen,html.Screen,1_1_1_1_11,2021-04-13T12:23:23.822Z,,,,,,,,,,,,,,,,54,,,,,,,,,,,,,,325.8789999843866,,response,,,,100,,,,,,,Space,keypress(Space),,,,,,,,-- --- ---- --- ------ ----- ------- ---- -- --- ------- by<br>------- ---------- ------ -- ----- -- ----- -- ---- ------<br>--- ----- --- --- ------ -------- ----- --- ------ ----- --<br>----- ----- ---------- --- --- ------ ------ ---- -- ------<br>------- --- ------ ----- --- ---- ------- -- ---- --- --<br>------- ------,162643.57999997446,162643.1149999844,162300.45,162307.66999995103,162317.236,162650.03,,11,by
screen,html.Screen,1_1_1_1_12,2021-04-13T12:23:24.165Z,,,,,,,,,,,,,,,,54,,,,,,,,,,,,,,335.74999998815474,,response,,,,100,,,,,,,Space,keypress(Space),,,,,,,,-- --- ---- --- ------ ----- ------- ---- -- --- ------- --<br>issuing ---------- ------ -- ----- -- ----- -- ---- ------<br>--- ----- --- --- ------ -------- ----- --- ------ ----- --<br>----- ----- ---------- --- --- ------ ------ ---- -- ------<br>------- --- ------ ----- --- ---- ------- -- ---- --- --<br>------- ------,162986.11499997787,162985.77999998815,162633.556,162643.69499997701,162650.03,163000.055,,12,issuing
screen,html.Screen,1_1_1_1_13,2021-04-13T12:23:24.460Z,,,,,,,,,,,,,,,,54,,,,,,,,,,,,,,281.1899999619345,,response,,,,100,,,,,,,Space,keypress(Space),,,,,,,,-- --- ---- --- ------ ----- ------- ---- -- --- ------- --<br>------- government ------ -- ----- -- ----- -- ---- ------<br>--- ----- --- --- ------ -------- ----- --- ------ ----- --<br>----- ----- ---------- --- --- ------ ------ ---- -- ------<br>------- --- ------ ----- --- ---- ------- -- ---- --- --<br>------- ------,163281.57499997178,163281.24499996193,162983.356,162986.18499998702,163000.055,163282.913,,13,government
screen,html.Screen,1_1_1_1_14,2021-04-13T12:23:24.827Z,,,,,,,,,,,,,,,,54,,,,,,,,,,,,,,364.4119999689865,,response,,,,100,,,,,,,Space,keypress(Space),,,,,,,,-- --- ---- --- ------ ----- ------- ---- -- --- ------- --<br>------- ---------- bonds. -- ----- -- ----- -- ---- ------<br>--- ----- --- --- ------ -------- ----- --- ------ ----- --<br>----- ----- ---------- --- --- ------ ------ ---- -- ------<br>------- --- ------ ----- --- ---- ------- -- ---- --- --<br>------- ------,163647.64999999898,163647.324999969,163266.465,163281.64499998093,163282.913,163649.353,,14,bonds.
screen,html.Screen,1_1_1_1_15,2021-04-13T12:23:25.180Z,,,,,,,,,,,,,,,,54,,,,,,,,,,,,,,351.42199996404815,,response,,,,100,,,,,,,Space,keypress(Space),,,,,,,,-- --- ---- --- ------ ----- ------- ---- -- --- ------- --<br>------- ---------- ------ In ----- -- ----- -- ---- ------<br>--- ----- --- --- ------ -------- ----- --- ------ ----- --<br>----- ----- ---------- --- --- ------ ------ ---- -- ------<br>------- --- ------ ----- --- ---- ------- -- ---- --- --<br>------- ------,164001.20999995852,164000.77499996405,163632.966,163647.71499997005,163649.353,164015.93,,15,In
screen,html.Screen,1_1_1_1_16,2021-04-13T12:23:25.519Z,,,,,,,,,,,,,,,,54,,,,,,,,,,,,,,323.41000000591157,,response,,,,100,,,,,,,Space,keypress(Space),,,,,,,,"-- --- ---- --- ------ ----- ------- ---- -- --- ------- --<br>------- ---------- ------ -- 1727, -- ----- -- ---- ------<br>--- ----- --- --- ------ -------- ----- --- ------ ----- --<br>----- ----- ---------- --- --- ------ ------ ---- -- ------<br>------- --- ------ ----- --- ---- ------- -- ---- --- --<br>------- ------",164339.7849999601,164339.3400000059,163999.437,164001.3199999812,164015.93,164348.919,,16,"1727,"
screen,html.Screen,1_1_1_1_17,2021-04-13T12:23:25.874Z,,,,,,,,,,,,,,,,54,,,,,,,,,,,,,,345.6559999722522,,response,,,,100,,,,,,,Space,keypress(Space),,,,,,,,-- --- ---- --- ------ ----- ------- ---- -- --- ------- --<br>------- ---------- ------ -- ----- in ----- -- ---- ------<br>--- ----- --- --- ------ -------- ----- --- ------ ----- --<br>----- ----- ---------- --- --- ------ ------ ---- -- ------<br>------- --- ------ ----- --- ---- ------- -- ---- --- --<br>------- ------,164694.9649999733,164694.57499997225,164332.44,164339.89999996265,164348.919,164699.058,,17,in
screen,html.Screen,1_1_1_1_18,2021-04-13T12:23:26.708Z,,,,,,,,,,,,,,,,54,,,,,,,,,,,,,,829.8419999757025,,response,,,,100,,,,,,,Space,keypress(Space),,,,,,,,-- --- ---- --- ------ ----- ------- ---- -- --- ------- --<br>------- ---------- ------ -- ----- -- order -- ---- ------<br>--- ----- --- --- ------ -------- ----- --- ------ ----- --<br>----- ----- ---------- --- --- ------ ------ ---- -- ------<br>------- --- ------ ----- --- ---- ------- -- ---- --- --<br>------- ------,165529.44499999285,165528.8999999757,164682.638,164695.0300000026,164699.058,165531.483,,18,order
screen,html.Screen,1_1_1_1_19,2021-04-13T12:23:27.238Z,,,,,,,,,,,,,,,,54,,,,,,,,,,,,,,526.9019999820739,,response,,,,100,,,,,,,Space,keypress(Space),,,,,,,,-- --- ---- --- ------ ----- ------- ---- -- --- ------- --<br>------- ---------- ------ -- ----- -- ----- to ---- ------<br>--- ----- --- --- ------ -------- ----- --- ------ ----- --<br>----- ----- ---------- --- --- ------ ------ ---- -- ------<br>------- --- ------ ----- --- ---- ------- -- ---- --- --<br>------- ------,166058.7649999652,166058.38499998208,165515.399,165529.51999998186,165531.483,166064.542,,19,to
screen,html.Screen,1_1_1_1_20,2021-04-13T12:23:27.615Z,,,,,,,,,,,,,,,,54,,,,,,,,,,,,,,371.67799997414113,,response,,,,100,,,,,,,Space,keypress(Space),,,,,,,,-- --- ---- --- ------ ----- ------- ---- -- --- ------- --<br>------- ---------- ------ -- ----- -- ----- -- save ------<br>--- ----- --- --- ------ -------- ----- --- ------ ----- --<br>----- ----- ---------- --- --- ------ ------ ---- -- ------<br>------- --- ------ ----- --- ---- ------- -- ---- --- --<br>------- ------,166436.62999995286,166436.21999997413,166048.157,166058.83499997435,166064.542,166447.699,,20,save
screen,html.Screen,1_1_1_1_21,2021-04-13T12:23:27.950Z,,,,,,,,,,,,,,,,54,,,,,,,,,,,,,,323.2359999786422,,response,,,,100,,,,,,,Space,keypress(Space),,,,,,,,"-- --- ---- --- ------ ----- ------- ---- -- --- ------- --<br>------- ---------- ------ -- ----- -- ----- -- ---- money,<br>--- ----- --- --- ------ -------- ----- --- ------ ----- --<br>----- ----- ---------- --- --- ------ ------ ---- -- ------<br>------- --- ------ ----- --- ---- ------- -- ---- --- --<br>------- ------",166771.29999996396,166770.93499997864,166431.265,166436.69499998214,166447.699,166780.758,,21,"money,"
screen,html.Screen,1_1_1_1_22,2021-04-13T12:23:28.314Z,,,,,,,,,,,,,,,,54,,,,,,,,,,,,,,353.88699998371885,,response,,,,100,,,,,,,Space,keypress(Space),,,,,,,,-- --- ---- --- ------ ----- ------- ---- -- --- ------- --<br>------- ---------- ------ -- ----- -- ----- -- ---- ------<br>the ----- --- --- ------ -------- ----- --- ------ ----- --<br>----- ----- ---------- --- --- ------ ------ ---- -- ------<br>------- --- ------ ----- --- ---- ------- -- ---- --- --<br>------- ------,167134.98999999138,167134.64499998372,166764.302,166771.36499999324,166780.758,167147.487,,22,the
screen,html.Screen,1_1_1_1_23,2021-04-13T12:23:28.784Z,,,,,,,,,,,,,,,,54,,,,,,,,,,,,,,456.7679999547254,,response,,,,100,,,,,,,Space,keypress(Space),,,,,,,,-- --- ---- --- ------ ----- ------- ---- -- --- ------- --<br>------- ---------- ------ -- ----- -- ----- -- ---- ------<br>--- state --- --- ------ -------- ----- --- ------ ----- --<br>----- ----- ---------- --- --- ------ ------ ---- -- ------<br>------- --- ------ ----- --- ---- ------- -- ---- --- --<br>------- ------,167604.6899999492,167604.25499995472,167130.714,167135.05499996245,167147.487,167613.602,,23,state
screen,html.Screen,1_1_1_1_24,2021-04-13T12:23:29.088Z,,,,,,,,,,,,,,,,54,,,,,,,,,,,,,,295.30799999827286,,response,,,,100,,,,,,,Space,keypress(Space),,,,,,,,-- --- ---- --- ------ ----- ------- ---- -- --- ------- --<br>------- ---------- ------ -- ----- -- ----- -- ---- ------<br>--- ----- cut --- ------ -------- ----- --- ------ ----- --<br>----- ----- ---------- --- --- ------ ------ ---- -- ------<br>------- --- ------ ----- --- ---- ------- -- ---- --- --<br>------- ------,167909.28500000155,167908.9099999983,167597.135,167604.80499995174,167613.602,167913.361,,24,cut
screen,html.Screen,1_1_1_1_25,2021-04-13T12:23:29.381Z,,,,,,,,,,,,,,,,54,,,,,,,,,,,,,,288.3040000004985,,response,,,,100,,,,,,,Space,keypress(Space),,,,,,,,-- --- ---- --- ------ ----- ------- ---- -- --- ------- --<br>------- ---------- ------ -- ----- -- ----- -- ---- ------<br>--- ----- --- the ------ -------- ----- --- ------ ----- --<br>----- ----- ---------- --- --- ------ ------ ---- -- ------<br>------- --- ------ ----- --- ---- ------- -- ---- --- --<br>------- ------,168202.00999994995,168201.6650000005,167896.846,167909.34999997262,167913.361,168213.221,,25,the
screen,html.Screen,1_1_1_1_26,2021-04-13T12:23:29.655Z,,,,,,,,,,,,,,,,54,,,,,,,,,,,,,,263.0089999711199,,response,,,,100,,,,,,,Space,keypress(Space),,,,,,,,-- --- ---- --- ------ ----- ------- ---- -- --- ------- --<br>------- ---------- ------ -- ----- -- ----- -- ---- ------<br>--- ----- --- --- bonds' -------- ----- --- ------ ----- --<br>----- ----- ---------- --- --- ------ ------ ---- -- ------<br>------- --- ------ ----- --- ---- ------- -- ---- --- --<br>------- ------,168476.54499998316,168476.2299999711,168196.676,168202.0799999591,168213.221,168479.613,,26,bonds'
screen,html.Screen,1_1_1_1_27,2021-04-13T12:23:29.964Z,,,,,,,,,,,,,,,,54,,,,,,,,,,,,,,304.63699996785726,,response,,,,100,,,,,,,Space,keypress(Space),,,,,,,,-- --- ---- --- ------ ----- ------- ---- -- --- ------- --<br>------- ---------- ------ -- ----- -- ----- -- ---- ------<br>--- ----- --- --- ------ interest ----- --- ------ ----- --<br>----- ----- ---------- --- --- ------ ------ ---- -- ------<br>------- --- ------ ----- --- ---- ------- -- ---- --- --<br>------- ------,168784.6900000004,168784.24999996787,168463.179,168476.6149999923,168479.613,168796.128,,27,interest
screen,html.Screen,1_1_1_1_28,2021-04-13T12:23:30.244Z,,,,,,,,,,,,,,,,54,,,,,,,,,,,,,,268.4369999496557,,response,,,,100,,,,,,,Space,keypress(Space),,,,,,,,-- --- ---- --- ------ ----- ------- ---- -- --- ------- --<br>------- ---------- ------ -- ----- -- ----- -- ---- ------<br>--- ----- --- --- ------ -------- rate. --- ------ ----- --<br>----- ----- ---------- --- --- ------ ------ ---- -- ------<br>------- --- ------ ----- --- ---- ------- -- ---- --- --<br>------- ------,169064.88499999978,169064.56499994965,168779.581,168784.7999999649,168796.128,169079.418,,28,rate.
screen,html.Screen,1_1_1_1_29,2021-04-13T12:23:30.642Z,,,,,,,,,,,,,,,,54,,,,,,,,,,,,,,383.01699999399716,,response,,,,100,,,,,,,Space,keypress(Space),,,,,,,,-- --- ---- --- ------ ----- ------- ---- -- --- ------- --<br>------- ---------- ------ -- ----- -- ----- -- ---- ------<br>--- ----- --- --- ------ -------- ----- The ------ ----- --<br>----- ----- ---------- --- --- ------ ------ ---- -- ------<br>------- --- ------ ----- --- ---- ------- -- ---- --- --<br>------- ------,169462.88499998627,169462.434999994,169062.771,169064.9549999507,169079.418,169479.016,,29,The
screen,html.Screen,1_1_1_1_30,2021-04-13T12:23:30.998Z,,,,,,,,,,,,,,,,54,,,,,,,,,,,,,,339.28399998444365,,response,,,,100,,,,,,,Space,keypress(Space),,,,,,,,-- --- ---- --- ------ ----- ------- ---- -- --- ------- --<br>------- ---------- ------ -- ----- -- ----- -- ---- ------<br>--- ----- --- --- ------ -------- ----- --- market ----- --<br>----- ----- ---------- --- --- ------ ------ ---- -- ------<br>------- --- ------ ----- --- ---- ------- -- ---- --- --<br>------- ------,169818.9349999884,169818.29999998445,169462.741,169462.95499999542,169479.016,169828.859,,30,market
screen,html.Screen,1_1_1_1_31,2021-04-13T12:23:31.309Z,,,,,,,,,,,,,,,,54,,,,,,,,,,,,,,301.2710000050138,,response,,,,100,,,,,,,Space,keypress(Space),,,,,,,,-- --- ---- --- ------ ----- ------- ---- -- --- ------- --<br>------- ---------- ------ -- ----- -- ----- -- ---- ------<br>--- ----- --- --- ------ -------- ----- --- ------ value --<br>----- ----- ---------- --- --- ------ ------ ---- -- ------<br>------- --- ------ ----- --- ---- ------- -- ---- --- --<br>------- ------,170130.45999995666,170130.130000005,169812.29,169819.00999997742,169828.859,170145.321,,31,value
screen,html.Screen,1_1_1_1_32,2021-04-13T12:23:31.609Z,,,,,,,,,,,,,,,,54,,,,,,,,,,,,,,284.2539999582805,,response,,,,100,,,,,,,Space,keypress(Space),,,,,,,,-- --- ---- --- ------ ----- ------- ---- -- --- ------- --<br>------- ---------- ------ -- ----- -- ----- -- ---- ------<br>--- ----- --- --- ------ -------- ----- --- ------ ----- of<br>----- ----- ---------- --- --- ------ ------ ---- -- ------<br>------- --- ------ ----- --- ---- ------- -- ---- --- --<br>------- ------,170429.9400000018,170429.57499995828,170128.783,170130.52499998594,170145.321,170445.166,,32,of
screen,html.Screen,1_1_1_1_33,2021-04-13T12:23:31.917Z,,,,,,,,,,,,,,,,54,,,,,,,,,,,,,,292.7490000051621,,response,,,,100,,,,,,,Space,keypress(Space),,,,,,,,-- --- ---- --- ------ ----- ------- ---- -- --- ------- --<br>------- ---------- ------ -- ----- -- ----- -- ---- ------<br>--- ----- --- --- ------ -------- ----- --- ------ ----- --<br>these ----- ---------- --- --- ------ ------ ---- -- ------<br>------- --- ------ ----- --- ---- ------- -- ---- --- --<br>------- ------,170738.27999999048,170737.91500000516,170428.615,170430.00999995274,170445.166,170744.879,,33,these
screen,html.Screen,1_1_1_1_34,2021-04-13T12:23:32.211Z,,,,,,,,,,,,,,,,54,,,,,,,,,,,,,,287.08599997285637,,response,,,,100,,,,,,,Space,keypress(Space),,,,,,,,-- --- ---- --- ------ ----- ------- ---- -- --- ------- --<br>------- ---------- ------ -- ----- -- ----- -- ---- ------<br>--- ----- --- --- ------ -------- ----- --- ------ ----- --<br>----- bonds ---------- --- --- ------ ------ ---- -- ------<br>------- --- ------ ----- --- ---- ------- -- ---- --- --<br>------- ------,171032.31499996036,171031.96499997284,170728.399,170738.34999999963,170744.879,171045.027,,34,bonds
screen,html.Screen,1_1_1_1_35,2021-04-13T12:23:32.474Z,,,,,,,,,,,,,,,,54,,,,,,,,,,,,,,249.72300000092946,,response,,,,100,,,,,,,Space,keypress(Space),,,,,,,,"-- --- ---- --- ------ ----- ------- ---- -- --- ------- --<br>------- ---------- ------ -- ----- -- ----- -- ---- ------<br>--- ----- --- --- ------ -------- ----- --- ------ ----- --<br>----- ----- plummeted, --- --- ------ ------ ---- -- ------<br>------- --- ------ ----- --- ---- ------- -- ---- --- --<br>------- ------",171295.32499995548,171294.75000000093,171028.156,171032.68499998376,171045.027,171311.221,,35,"plummeted,"
screen,html.Screen,1_1_1_1_36,2021-04-13T12:23:32.784Z,,,,,,,,,,,,,,,,54,,,,,,,,,,,,,,293.40399997812347,,response,,,,100,,,,,,,Space,keypress(Space),,,,,,,,-- --- ---- --- ------ ----- ------- ---- -- --- ------- --<br>------- ---------- ------ -- ----- -- ----- -- ---- ------<br>--- ----- --- --- ------ -------- ----- --- ------ ----- --<br>----- ----- ---------- and --- ------ ------ ---- -- ------<br>------- --- ------ ----- --- ---- ------- -- ---- --- --<br>------- ------,171605.03499995684,171604.6249999781,171294.718,171295.4299999983,171311.221,171610.995,,36,and
screen,html.Screen,1_1_1_1_37,2021-04-13T12:23:33.047Z,,,,,,,,,,,,,,,,54,,,,,,,,,,,,,,257.1199999611126,,response,,,,100,,,,,,,Space,keypress(Space),,,,,,,,-- --- ---- --- ------ ----- ------- ---- -- --- ------- --<br>------- ---------- ------ -- ----- -- ----- -- ---- ------<br>--- ----- --- --- ------ -------- ----- --- ------ ----- --<br>----- ----- ---------- --- the ------ ------ ---- -- ------<br>------- --- ------ ----- --- ---- ------- -- ---- --- --<br>------- ------,171868.5299999779,171868.1149999611,171594.498,171605.104999966,171610.995,171877.547,,37,the
screen,html.Screen,1_1_1_1_38,2021-04-13T12:23:33.315Z,,,,,,,,,,,,,,,,54,,,,,,,,,,,,,,258.3229999982577,,response,,,,100,,,,,,,Space,keypress(Space),,,,,,,,-- --- ---- --- ------ ----- ------- ---- -- --- ------- --<br>------- ---------- ------ -- ----- -- ----- -- ---- ------<br>--- ----- --- --- ------ -------- ----- --- ------ ----- --<br>----- ----- ---------- --- --- market ------ ---- -- ------<br>------- --- ------ ----- --- ---- ------- -- ---- --- --<br>------- ------,172136.2150000059,172135.86999999825,171860.977,171868.59499994898,171877.547,172144.348,,38,market
screen,html.Screen,1_1_1_1_39,2021-04-13T12:23:33.620Z,,,,,,,,,,,,,,,,54,,,,,,,,,,,,,,296.216999997152,,response,,,,100,,,,,,,Space,keypress(Space),,,,,,,,-- --- ---- --- ------ ----- ------- ---- -- --- ------- --<br>------- ---------- ------ -- ----- -- ----- -- ---- ------<br>--- ----- --- --- ------ -------- ----- --- ------ ----- --<br>----- ----- ---------- --- --- ------ became ---- -- ------<br>------- --- ------ ----- --- ---- ------- -- ---- --- --<br>------- ------,172441.00999995135,172440.56499999715,172127.434,172136.27999997698,172144.348,172443.757,,39,became
screen,html.Screen,1_1_1_1_40,2021-04-13T12:23:33.907Z,,,,,,,,,,,,,,,,54,,,,,,,,,,,,,,283.5529999874707,,response,,,,100,,,,,,,Space,keypress(Space),,,,,,,,-- --- ---- --- ------ ----- ------- ---- -- --- ------- --<br>------- ---------- ------ -- ----- -- ----- -- ---- ------<br>--- ----- --- --- ------ -------- ----- --- ------ ----- --<br>----- ----- ---------- --- --- ------ ------ wary -- ------<br>------- --- ------ ----- --- ---- ------- -- ---- --- --<br>------- ------,172727.74999996182,172727.30999998748,172427.396,172441.1249999539,172443.757,172743.615,,40,wary
screen,html.Screen,1_1_1_1_41,2021-04-13T12:23:34.190Z,,,,,,,,,,,,,,,,54,,,,,,,,,,,,,,267.3099999513943,,response,,,,100,,,,,,,Space,keypress(Space),,,,,,,,-- --- ---- --- ------ ----- ------- ---- -- --- ------- --<br>------- ---------- ------ -- ----- -- ----- -- ---- ------<br>--- ----- --- --- ------ -------- ----- --- ------ ----- --<br>----- ----- ---------- --- --- ------ ------ ---- of ------<br>------- --- ------ ----- --- ---- ------- -- ---- --- --<br>------- ------,173011.2599999993,173010.92499995138,172727.094,172727.86499996437,172743.615,173026.808,,41,of
screen,html.Screen,1_1_1_1_42,2021-04-13T12:23:34.485Z,,,,,,,,,,,,,,,,54,,,,,,,,,,,,,,278.9019999860029,,response,,,,100,,,,,,,Space,keypress(Space),,,,,,,,-- --- ---- --- ------ ----- ------- ---- -- --- ------- --<br>------- ---------- ------ -- ----- -- ----- -- ---- ------<br>--- ----- --- --- ------ -------- ----- --- ------ ----- --<br>----- ----- ---------- --- --- ------ ------ ---- -- French<br>------- --- ------ ----- --- ---- ------- -- ---- --- --<br>------- ------,173306.08499998925,173305.709999986,173010.203,173011.31999999052,173026.808,173309.841,,42,French
screen,html.Screen,1_1_1_1_43,2021-04-13T12:23:34.885Z,,,,,,,,,,,,,,,,54,,,,,,,,,,,,,,396.03899996497785,,response,,,,100,,,,,,,Space,keypress(Space),,,,,,,,-- --- ---- --- ------ ----- ------- ---- -- --- ------- --<br>------- ---------- ------ -- ----- -- ----- -- ---- ------<br>--- ----- --- --- ------ -------- ----- --- ------ ----- --<br>----- ----- ---------- --- --- ------ ------ ---- -- ------<br>credit. --- ------ ----- --- ---- ------- -- ---- --- --<br>------- ------,173706.31499995943,173705.87999996496,173293.357,173306.1549999984,173309.841,173709.614,,43,credit.
screen,html.Screen,1_1_1_1_44,2021-04-13T12:23:35.635Z,,,,,,,,,,,,,,,,54,,,,,,,,,,,,,,745.5559999719844,,response,,,,100,,,,,,,Space,keypress(Space),,,,,,,,-- --- ---- --- ------ ----- ------- ---- -- --- ------- --<br>------- ---------- ------ -- ----- -- ----- -- ---- ------<br>--- ----- --- --- ------ -------- ----- --- ------ ----- --<br>----- ----- ---------- --- --- ------ ------ ---- -- ------<br>------- The ------ ----- --- ---- ------- -- ---- --- --<br>------- ------,174455.64499998,174455.169999972,173693.245,173706.38499996858,173709.614,174459.136,,44,The
screen,html.Screen,1_1_1_1_45,2021-04-13T12:23:35.972Z,,,,,,,,,,,,,,,,54,,,,,,,,,,,,,,333.8589999670512,,response,,,,100,,,,,,,Space,keypress(Space),,,,,,,,-- --- ---- --- ------ ----- ------- ---- -- --- ------- --<br>------- ---------- ------ -- ----- -- ----- -- ---- ------<br>--- ----- --- --- ------ -------- ----- --- ------ ----- --<br>----- ----- ---------- --- --- ------ ------ ---- -- ------<br>------- --- French ----- --- ---- ------- -- ---- --- --<br>------- ------,174793.40999998385,174792.99499996705,174442.95,174455.72999998694,174459.136,174809.068,,45,French
screen,html.Screen,1_1_1_1_46,2021-04-13T12:23:36.317Z,,,,,,,,,,,,,,,,54,,,,,,,,,,,,,,328.21700000434066,,response,,,,100,,,,,,,Space,keypress(Space),,,,,,,,-- --- ---- --- ------ ----- ------- ---- -- --- ------- --<br>------- ---------- ------ -- ----- -- ----- -- ---- ------<br>--- ----- --- --- ------ -------- ----- --- ------ ----- --<br>----- ----- ---------- --- --- ------ ------ ---- -- ------<br>------- --- ------ state --- ---- ------- -- ---- --- --<br>------- ------,175137.8899999545,175137.28500000434,174792.472,174793.479999993,174809.068,175142.111,,46,state
screen,html.Screen,1_1_1_1_47,2021-04-13T12:23:36.607Z,,,,,,,,,,,,,,,,54,,,,,,,,,,,,,,285.32399996140157,,response,,,,100,,,,,,,Space,keypress(Space),,,,,,,,-- --- ---- --- ------ ----- ------- ---- -- --- ------- --<br>------- ---------- ------ -- ----- -- ----- -- ---- ------<br>--- ----- --- --- ------ -------- ----- --- ------ ----- --<br>----- ----- ---------- --- --- ------ ------ ---- -- ------<br>------- --- ------ ----- was ---- ------- -- ---- --- --<br>------- ------,175427.81500000274,175427.4349999614,175125.815,175137.98499997938,175142.111,175441.907,,47,was
screen,html.Screen,1_1_1_1_48,2021-04-13T12:23:36.891Z,,,,,,,,,,,,,,,,54,,,,,,,,,,,,,,269.83299999882,,response,,,,100,,,,,,,Space,keypress(Space),,,,,,,,-- --- ---- --- ------ ----- ------- ---- -- --- ------- --<br>------- ---------- ------ -- ----- -- ----- -- ---- ------<br>--- ----- --- --- ------ -------- ----- --- ------ ----- --<br>----- ----- ---------- --- --- ------ ------ ---- -- ------<br>------- --- ------ ----- --- left ------- -- ---- --- --<br>------- ------,175712.0949999662,175711.73999999883,175425.388,175427.8799999738,175441.907,175725.346,,48,left
screen,html.Screen,1_1_1_1_49,2021-04-13T12:23:37.182Z,,,,,,,,,,,,,,,,54,,,,,,,,,,,,,,277.21399999354617,,response,,,,100,,,,,,,Space,keypress(Space),,,,,,,,-- --- ---- --- ------ ----- ------- ---- -- --- ------- --<br>------- ---------- ------ -- ----- -- ----- -- ---- ------<br>--- ----- --- --- ------ -------- ----- --- ------ ----- --<br>----- ----- ---------- --- --- ------ ------ ---- -- ------<br>------- --- ------ ----- --- ---- without -- ---- --- --<br>------- ------,176002.98999994993,176002.55999999354,175708.522,175712.1599999955,175725.346,176008.114,,49,without
screen,html.Screen,1_1_1_1_50,2021-04-13T12:23:37.488Z,,,,,,,,,,,,,,,,54,,,,,,,,,,,,,,300.1709999773302,,response,,,,100,,,,,,,Space,keypress(Space),,,,,,,,-- --- ---- --- ------ ----- ------- ---- -- --- ------- --<br>------- ---------- ------ -- ----- -- ----- -- ---- ------<br>--- ----- --- --- ------ -------- ----- --- ------ ----- --<br>----- ----- ---------- --- --- ------ ------ ---- -- ------<br>------- --- ------ ----- --- ---- ------- an ---- --- --<br>------- ------,176308.69999999413,176308.28499997733,175991.655,176003.06499999715,176008.114,176324.795,,50,an
screen,html.Screen,1_1_1_1_51,2021-04-13T12:23:37.840Z,,,,,,,,,,,,,,,,54,,,,,,,,,,,,,,336.31999996621744,,response,,,,100,,,,,,,Space,keypress(Space),,,,,,,,-- --- ---- --- ------ ----- ------- ---- -- --- ------- --<br>------- ---------- ------ -- ----- -- ----- -- ---- ------<br>--- ----- --- --- ------ -------- ----- --- ------ ----- --<br>----- ----- ---------- --- --- ------ ------ ---- -- ------<br>------- --- ------ ----- --- ---- ------- -- easy --- --<br>------- ------,176661.44499997608,176661.11499996623,176308.099,176308.81999997655,176324.795,176674.498,,51,easy
screen,html.Screen,1_1_1_1_52,2021-04-13T12:23:38.189Z,,,,,,,,,,,,,,,,54,,,,,,,,,,,,,,335.75199999209144,,response,,,,100,,,,,,,Space,keypress(Space),,,,,,,,-- --- ---- --- ------ ----- ------- ---- -- --- ------- --<br>------- ---------- ------ -- ----- -- ----- -- ---- ------<br>--- ----- --- --- ------ -------- ----- --- ------ ----- --<br>----- ----- ---------- --- --- ------ ------ ---- -- ------<br>------- --- ------ ----- --- ---- ------- -- ---- way --<br>------- ------,177010.5999999796,177010.24999999208,176658,176661.51499998523,176674.498,177024.468,,52,way
screen,html.Screen,1_1_1_1_53,2021-04-13T12:23:38.545Z,,,,,,,,,,,,,,,,54,,,,,,,,,,,,,,341.55199995764997,,response,,,,100,,,,,,,Space,keypress(Space),,,,,,,,-- --- ---- --- ------ ----- ------- ---- -- --- ------- --<br>------- ---------- ------ -- ----- -- ----- -- ---- ------<br>--- ----- --- --- ------ -------- ----- --- ------ ----- --<br>----- ----- ---------- --- --- ------ ------ ---- -- ------<br>------- --- ------ ----- --- ---- ------- -- ---- --- of<br>------- ------,177366.45999999018,177366.01999995764,177007.743,177010.6749999686,177024.468,177373.964,,53,of
screen,html.Screen,1_1_1_1_54,2021-04-13T12:23:38.909Z,,,,,,,,,,,,,,,,54,,,,,,,,,,,,,,355.89099998321035,,response,,,,100,,,,,,,Space,keypress(Space),,,,,,,,-- --- ---- --- ------ ----- ------- ---- -- --- ------- --<br>------- ---------- ------ -- ----- -- ----- -- ---- ------<br>--- ----- --- --- ------ -------- ----- --- ------ ----- --<br>----- ----- ---------- --- --- ------ ------ ---- -- ------<br>------- --- ------ ----- --- ---- ------- -- ---- --- --<br>raising ------,177730.22999998648,177729.85499998322,177357.526,177366.57499999274,177373.964,177740.389,,54,raising
screen,html.Screen,1_1_1_1_55,2021-04-13T12:23:39.260Z,,,,,,,,,,,,,,,,54,,,,,,,,,,,,,,339.90599999247934,,response,,,,100,,,,,,,Space,keypress(Space),,,,,,,,-- --- ---- --- ------ ----- ------- ---- -- --- ------- --<br>------- ---------- ------ -- ----- -- ----- -- ---- ------<br>--- ----- --- --- ------ -------- ----- --- ------ ----- --<br>----- ----- ---------- --- --- ------ ------ ---- -- ------<br>------- --- ------ ----- --- ---- ------- -- ---- --- --<br>------- money.,178080.72499994887,178080.29499999247,177723.911,177730.29999999562,177740.389,178090.186,,55,money.
Item 100,flow.Loop,1_1_1_1,2021-04-13T12:23:39.260Z,,,,,,,,,,,,,,,,,,,,,,,,,,,,,,19910.631999992474,,completion,,,,,B,,,,,,,,,,,silence,,,,,178080.83999995142,178080.29499999247,158153.153,158154.01499997824,158169.663,178090.186,,,
Question 1,html.Screen,1_1_1_2,2021-04-13T12:23:43.210Z,,,,,,,,,,,,,,,,,,,,,,,,,,,true,TRUE,,3940.2589999821503,,response,,,,100,B,,,,,,TRUE,click #choice-1,,,,silence,,,,,182031.22499998426,182030.44499998214,178073.731,178080.8899999829,178090.186,182037.898,,,
Question 2,html.Screen,1_1_1_3,2021-04-13T12:23:50.829Z,,,,,,,,,,,,,,,,,,,,,,,,,,,false,FALSE,,7612.306999954453,,response,,,,100,B,,,,,,TRUE,click #choice-1,,,,silence,,,,,189650.78999998514,189650.20499995444,182020.995,182031.28499997547,182037.898,189666.406,,,
Item 100,flow.Sequence,1_1_1,2021-04-13T12:23:50.829Z,,,,,,,,,,,,,,,,,,,,,,,,,,,,,,41474.27199995445,,completion,,,,,,,,,,,,,,,,,,,,,189650.8849999518,189650.20499995444,148159.379,148167.87000000477,148175.933,189666.406,,,
End of Practice,html.Page,1_1_2,2021-04-13T12:23:54.474Z,,,,,,,,,,,,,,,,,,,,,,,,,,,,,,3629.08899996939,,form submission,,,,,,,,,,,,,,,,,,,,,193295.63499998767,193295.49499996938,189649.566,189650.93000000343,189666.406,193313.843,,,
Practice,flow.Sequence,1_1,2021-04-13T12:23:54.474Z,,,,,,,,,,,,,,,,,,,,,,,,,,,,,,83311.79599996938,,completion,,,,,,,,,,,,,,,,,,,,,193295.71999999462,193295.49499996938,109967.209,109972.44499996305,109983.699,193313.843,,,
Trap_instruction,html.Page,1_2_0,2021-04-13T12:23:57.022Z,,,,,,,,,,,,,,,,,,,,,,,,,,,,,,2529.9469999553403,,form submission,,,,,,,,,,,,,,,,,,,,,195843.9349999535,195843.78999995533,193297.137,193295.77999998583,193313.843,195862.176,,,
trap_trial,html.Screen,1_2_1,2021-04-13T12:24:00.716Z,,,,,,,,,,,,,,,,,,,,,,,,,,,true,1,,3674.4889999632433,,response,,,,,,,,,,,1,click #choice-1,,,,,,,,,199537.64999995474,199536.66499996325,195828.868,195844.0100000007,195862.176,199543.158,,,
end of trap trial,html.Page,1_2_2,2021-04-13T12:24:02.486Z,,,,,,,,,,,,,,,,,,,,,,,,,,,,,,1764.3669999528793,,form submission,,,,,,,,,,,,,,,,,,,,,201307.65499995323,201307.52499995288,199526.645,199537.73499996169,199543.158,201308.688,,,
Trap 1,flow.Sequence,1_2,2021-04-13T12:24:02.486Z,,,,,,,,,,,,,,,,,,,,,,,,,,,,,,7993.681999952882,,completion,,,,,,,,,,,,,,,,,,,,,201307.73999996018,201307.52499995288,193297.137,193295.75999994995,193313.843,201308.688,,,
Standby,html.Page,1_3_0,2021-04-13T12:24:10.466Z,,,,,,,,,,,,,,,,,,,,,,,,,,,,,,7994.928000000014,,timeout,,,,,,,,,,,,,,,,,,,,,209288.00000000047,209286.978,201292.076,201307.80499998946,201308.688,209303.616,,,
Holding screen,html.Screen,1_3_1_0_0,2021-04-13T12:24:17.461Z,,,,,,,,,,,,,,,,,,,,,,,,,,,,,,6995.59699999998,,timeout,,,,,,,,,,,,,,,,,,,,,216282.9099999508,216282.503,209286.978,209288.1799999741,209303.616,216299.213,,,
screen,html.Screen,1_3_1_0_1_0,2021-04-13T12:24:18.846Z,,,,,,,,,,,,,,,,15,,,,,,,,,,,,,,1367.9569999715313,,response,,,,7,B,,,,,,Space,keypress(Space),,,,lyrical,,,,Greg --------- ---------- - --- ------- -- --- ------------<br>----- -- -------- ------- ---- ------ - -------- ---- -----<br>--- ------- ---- -- --- -------- --- - ----- ------ ---- --<br>-------- --- -------- -------- --- -------- ---- -- ----- -<br>-------- ---- --- ---------- --------- -- ------- ------ -<br>--------- ----- -----,217667.87000000477,217667.16999997152,216282.503,216283.00999995554,216299.213,217681.623,,0,Greg
screen,html.Screen,1_3_1_0_1_1,2021-04-13T12:24:19.231Z,,,,,,,,,,,,,,,,15,,,,,,,,,,,,,,370.3719999870809,,response,,,,7,B,,,,,,Space,keypress(Space),,,,lyrical,,,,"---- Anderson, ---------- - --- ------- -- --- ------------<br>----- -- -------- ------- ---- ------ - -------- ---- -----<br>--- ------- ---- -- --- -------- --- - ----- ------ ---- --<br>-------- --- -------- -------- --- -------- ---- -- ----- -<br>-------- ---- --- ---------- --------- -- ------- ------ -<br>--------- ----- -----",218052.33999999473,218051.99499998707,217665.356,217667.94499999378,217681.623,218064.747,,1,"Anderson,"
screen,html.Screen,1_3_1_0_1_2,2021-04-13T12:24:19.730Z,,,,,,,,,,,,,,,,15,,,,,,,,,,,,,,486.3379999845929,,response,,,,7,B,,,,,,Space,keypress(Space),,,,lyrical,,,,---- --------- considered - --- ------- -- --- ------------<br>----- -- -------- ------- ---- ------ - -------- ---- -----<br>--- ------- ---- -- --- -------- --- - ----- ------ ---- --<br>-------- --- -------- -------- --- -------- ---- -- ----- -<br>-------- ---- --- ---------- --------- -- ------- ------ -<br>--------- ----- -----,218551.45999998786,218551.0849999846,218048.483,218052.4049999658,218064.747,218564.456,,2,considered
screen,html.Screen,1_3_1_0_1_3,2021-04-13T12:24:20.196Z,,,,,,,,,,,,,,,,15,,,,,,,,,,,,,,452.28899997170083,,response,,,,7,B,,,,,,Space,keypress(Space),,,,lyrical,,,,---- --------- ---------- a --- ------- -- --- ------------<br>----- -- -------- ------- ---- ------ - -------- ---- -----<br>--- ------- ---- -- --- -------- --- - ----- ------ ---- --<br>-------- --- -------- -------- --- -------- ---- -- ----- -<br>-------- ---- --- ---------- --------- -- ------- ------ -<br>--------- ----- -----,219017.1149999951,219016.7449999717,218548.275,218551.51999997906,218564.456,219030.785,,3,a
screen,html.Screen,1_3_1_0_1_4,2021-04-13T12:24:20.572Z,,,,,,,,,,,,,,,,15,,,,,,,,,,,,,,362.27999995290884,,response,,,,7,B,,,,,,Space,keypress(Space),,,,lyrical,,,,---- --------- ---------- - key ------- -- --- ------------<br>----- -- -------- ------- ---- ------ - -------- ---- -----<br>--- ------- ---- -- --- -------- --- - ----- ------ ---- --<br>-------- --- -------- -------- --- -------- ---- -- ----- -<br>-------- ---- --- ---------- --------- -- ------- ------ -<br>--------- ----- -----,219393.6349999858,219393.0649999529,219014.411,219017.17999996617,219030.785,219397.735,,4,key
screen,html.Screen,1_3_1_0_1_5,2021-04-13T12:24:20.942Z,,,,,,,,,,,,,,,,15,,,,,,,,,,,,,,365.644999960321,,response,,,,7,B,,,,,,Space,keypress(Space),,,,lyrical,,,,---- --------- ---------- - --- witness -- --- ------------<br>----- -- -------- ------- ---- ------ - -------- ---- -----<br>--- ------- ---- -- --- -------- --- - ----- ------ ---- --<br>-------- --- -------- -------- --- -------- ---- -- ----- -<br>-------- ---- --- ---------- --------- -- ------- ------ -<br>--------- ----- -----,219763.72499996796,219763.3799999603,219380.951,219393.71499995468,219397.735,219780.458,,5,witness
screen,html.Screen,1_3_1_0_1_6,2021-04-13T12:24:21.385Z,,,,,,,,,,,,,,,,15,,,,,,,,,,,,,,426.09699998245924,,response,,,,7,B,,,,,,Space,keypress(Space),,,,lyrical,,,,---- --------- ---------- - --- ------- by --- ------------<br>----- -- -------- ------- ---- ------ - -------- ---- -----<br>--- ------- ---- -- --- -------- --- - ----- ------ ---- --<br>-------- --- -------- -------- --- -------- ---- -- ----- -<br>-------- ---- --- ---------- --------- -- ------- ------ -<br>--------- ----- -----,220207.1049999795,220206.55499998247,219763.847,219763.78999999724,219780.458,220213.395,,6,by
screen,html.Screen,1_3_1_0_1_7,2021-04-13T12:24:21.727Z,,,,,,,,,,,,,,,,15,,,,,,,,,,,,,,334.9100000039034,,response,,,,7,B,,,,,,Space,keypress(Space),,,,lyrical,,,,---- --------- ---------- - --- ------- -- the ------------<br>----- -- -------- ------- ---- ------ - -------- ---- -----<br>--- ------- ---- -- --- -------- --- - ----- ------ ---- --<br>-------- --- -------- -------- --- -------- ---- -- ----- -<br>-------- ---- --- ---------- --------- -- ------- ------ -<br>--------- ----- -----,220548.72500000056,220548.3050000039,220196.93,220207.16999995057,220213.395,220563.115,,7,the
screen,html.Screen,1_3_1_0_1_8,2021-04-13T12:24:22.277Z,,,,,,,,,,,,,,,,15,,,,,,,,,,,,,,534.834999966668,,response,,,,7,B,,,,,,Space,keypress(Space),,,,lyrical,,,,"---- --------- ---------- - --- ------- -- --- prosecution,<br>----- -- -------- ------- ---- ------ - -------- ---- -----<br>--- ------- ---- -- --- -------- --- - ----- ------ ---- --<br>-------- --- -------- -------- --- -------- ---- -- ----- -<br>-------- ---- --- ---------- --------- -- ------- ------ -<br>--------- ----- -----",221098.2949999743,221097.94999996666,220546.669,220548.78999997163,220563.115,221112.828,,8,"prosecution,"
screen,html.Screen,1_3_1_0_1_9,2021-04-13T12:24:22.839Z,,,,,,,,,,,,,,,,15,,,,,,,,,,,,,,547.0369999941613,,response,,,,7,B,,,,,,Space,keypress(Space),,,,lyrical,,,,---- --------- ---------- - --- ------- -- --- ------------<br>vowed -- -------- ------- ---- ------ - -------- ---- -----<br>--- ------- ---- -- --- -------- --- - ----- ------ ---- --<br>-------- --- -------- -------- --- -------- ---- -- ----- -<br>-------- ---- --- ---------- --------- -- ------- ------ -<br>--------- ----- -----,221660.25499999523,221659.86499999417,221096.397,221098.3600000036,221112.828,221662.375,,9,vowed
screen,html.Screen,1_3_1_0_1_10,2021-04-13T12:24:23.275Z,,,,,,,,,,,,,,,,15,,,,,,,,,,,,,,433.7450000019744,,response,,,,7,B,,,,,,Space,keypress(Space),,,,lyrical,,,,---- --------- ---------- - --- ------- -- --- ------------<br>----- he -------- ------- ---- ------ - -------- ---- -----<br>--- ------- ---- -- --- -------- --- - ----- ------ ---- --<br>-------- --- -------- -------- --- -------- ---- -- ----- -<br>-------- ---- --- ---------- --------- -- ------- ------ -<br>--------- ----- -----,222096.5749999741,222096.12000000197,221646.108,221660.32500000438,221662.375,222112.158,,10,he
screen,html.Screen,1_3_1_0_1_11,2021-04-13T12:24:23.775Z,,,,,,,,,,,,,,,,15,,,,,,,,,,,,,,484.3069999514264,,response,,,,7,B,,,,,,Space,keypress(Space),,,,lyrical,,,,---- --------- ---------- - --- ------- -- --- ------------<br>----- -- wouldn't ------- ---- ------ - -------- ---- -----<br>--- ------- ---- -- --- -------- --- - ----- ------ ---- --<br>-------- --- -------- -------- --- -------- ---- -- ----- -<br>-------- ---- --- ---------- --------- -- ------- ------ -<br>--------- ----- -----,222596.81999997701,222596.46499995142,222095.783,222096.6400000034,222112.158,222611.83,,11,wouldn't
screen,html.Screen,1_3_1_0_1_12,2021-04-13T12:24:24.435Z,,,,,,,,,,,,,,,,15,,,,,,,,,,,,,,643.835000004241,,response,,,,7,B,,,,,,Space,keypress(Space),,,,lyrical,,,,---- --------- ---------- - --- ------- -- --- ------------<br>----- -- -------- testify ---- ------ - -------- ---- -----<br>--- ------- ---- -- --- -------- --- - ----- ------ ---- --<br>-------- --- -------- -------- --- -------- ---- -- ----- -<br>-------- ---- --- ---------- --------- -- ------- ------ -<br>--------- ----- -----,223256.14999997197,223255.66500000423,222595.406,222596.88999998616,222611.83,223261.374,,12,testify
screen,html.Screen,1_3_1_0_1_13,2021-04-13T12:24:24.950Z,,,,,,,,,,,,,,,,15,,,,,,,,,,,,,,509.7860000038636,,response,,,,7,B,,,,,,Space,keypress(Space),,,,lyrical,,,,---- --------- ---------- - --- ------- -- --- ------------<br>----- -- -------- ------- when ------ - -------- ---- -----<br>--- ------- ---- -- --- -------- --- - ----- ------ ---- --<br>-------- --- -------- -------- --- -------- ---- -- ----- -<br>-------- ---- --- ---------- --------- -- ------- ------ -<br>--------- ----- -----,223771.60499995807,223771.16000000387,223245.247,223256.2199999811,223261.374,223777.811,,13,when
screen,html.Screen,1_3_1_0_1_14,2021-04-13T12:24:25.463Z,,,,,,,,,,,,,,,,15,,,,,,,,,,,,,,505.6739999635611,,response,,,,7,B,,,,,,Space,keypress(Space),,,,lyrical,,,,---- --------- ---------- - --- ------- -- --- ------------<br>----- -- -------- ------- ---- served - -------- ---- -----<br>--- ------- ---- -- --- -------- --- - ----- ------ ---- --<br>-------- --- -------- -------- --- -------- ---- -- ----- -<br>-------- ---- --- ---------- --------- -- ------- ------ -<br>--------- ----- -----,224284.1250000056,224283.48499996355,223761.595,223771.7249999987,223777.811,224294.159,,14,served
screen,html.Screen,1_3_1_0_1_15,2021-04-13T12:24:25.931Z,,,,,,,,,,,,,,,,15,,,,,,,,,,,,,,458.44599998692865,,response,,,,7,B,,,,,,Space,keypress(Space),,,,lyrical,,,,---- --------- ---------- - --- ------- -- --- ------------<br>----- -- -------- ------- ---- ------ a -------- ---- -----<br>--- ------- ---- -- --- -------- --- - ----- ------ ---- --<br>-------- --- -------- -------- --- -------- ---- -- ----- -<br>-------- ---- --- ---------- --------- -- ------- ------ -<br>--------- ----- -----,224752.9649999924,224752.60499998694,224277.712,224284.19499995653,224294.159,224760.647,,15,a
screen,html.Screen,1_3_1_0_1_16,2021-04-13T12:24:26.567Z,,,,,,,,,,,,,,,,15,,,,,,,,,,,,,,627.4379999841331,,response,,,,7,B,,,,,,Space,keypress(Space),,,,lyrical,,,,---- --------- ---------- - --- ------- -- --- ------------<br>----- -- -------- ------- ---- ------ - subpoena ---- -----<br>--- ------- ---- -- --- -------- --- - ----- ------ ---- --<br>-------- --- -------- -------- --- -------- ---- -- ----- -<br>-------- ---- --- ---------- --------- -- ------- ------ -<br>--------- ----- -----,225388.4299999918,225388.08499998413,224744.075,224753.02999996347,224760.647,225393.453,,16,subpoena
screen,html.Screen,1_3_1_0_1_17,2021-04-13T12:24:27.037Z,,,,,,,,,,,,,,,,15,,,,,,,,,,,,,,464.71199998326483,,response,,,,7,B,,,,,,Space,keypress(Space),,,,lyrical,,,,---- --------- ---------- - --- ------- -- --- ------------<br>----- -- -------- ------- ---- ------ - -------- last -----<br>--- ------- ---- -- --- -------- --- - ----- ------ ---- --<br>-------- --- -------- -------- --- -------- ---- -- ----- -<br>-------- ---- --- ---------- --------- -- ------- ------ -<br>--------- ----- -----,225858.61499997554,225858.16499998327,225377.25,225388.50000000093,225393.453,225891.664,,17,last
screen,html.Screen,1_3_1_0_1_18,2021-04-13T12:24:27.610Z,,,,,,,,,,,,,,,,15,,,,,,,,,,,,,,539.2959999687737,,response,,,,7,B,,,,,,Space,keypress(Space),,,,lyrical,,,,---- --------- ---------- - --- ------- -- --- ------------<br>----- -- -------- ------- ---- ------ - -------- ---- week.<br>--- ------- ---- -- --- -------- --- - ----- ------ ---- --<br>-------- --- -------- -------- --- -------- ---- -- ----- -<br>-------- ---- --- ---------- --------- -- ------- ------ -<br>--------- ----- -----,226431.29499995848,226430.95999996876,225843.305,225858.7299999781,225891.664,226442.933,,18,week.
screen,html.Screen,1_3_1_0_1_19,2021-04-13T12:24:28.064Z,,,,,,,,,,,,,,,,15,,,,,,,,,,,,,,442.26199998075026,,response,,,,7,B,,,,,,Space,keypress(Space),,,,lyrical,,,,---- --------- ---------- - --- ------- -- --- ------------<br>----- -- -------- ------- ---- ------ - -------- ---- -----<br>His ------- ---- -- --- -------- --- - ----- ------ ---- --<br>-------- --- -------- -------- --- -------- ---- -- ----- -<br>-------- ---- --- ---------- --------- -- ------- ------ -<br>--------- ----- -----,226885.63499995507,226885.19499998074,226426.395,226431.36499996763,226442.933,226892.544,,19,His
screen,html.Screen,1_3_1_0_1_20,2021-04-13T12:24:28.631Z,,,,,,,,,,,,,,,,15,,,,,,,,,,,,,,559.2210000052582,,response,,,,7,B,,,,,,Space,keypress(Space),,,,lyrical,,,,---- --------- ---------- - --- ------- -- --- ------------<br>----- -- -------- ------- ---- ------ - -------- ---- -----<br>--- lawyers ---- -- --- -------- --- - ----- ------ ---- --<br>-------- --- -------- -------- --- -------- ---- -- ----- -<br>-------- ---- --- ---------- --------- -- ------- ------ -<br>--------- ----- -----,227452.11499999277,227451.76500000525,226876.041,226885.7399999979,226892.544,227458.784,,20,lawyers
screen,html.Screen,1_3_1_0_1_21,2021-04-13T12:24:29.143Z,,,,,,,,,,,,,,,,15,,,,,,,,,,,,,,505.0909999576106,,response,,,,7,B,,,,,,Space,keypress(Space),,,,lyrical,,,,---- --------- ---------- - --- ------- -- --- ------------<br>----- -- -------- ------- ---- ------ - -------- ---- -----<br>--- ------- said -- --- -------- --- - ----- ------ ---- --<br>-------- --- -------- -------- --- -------- ---- -- ----- -<br>-------- ---- --- ---------- --------- -- ------- ------ -<br>--------- ----- -----,227964.48999998393,227963.87499995762,227442.433,227452.18500000192,227458.784,227975.047,,21,said
screen,html.Screen,1_3_1_0_1_22,2021-04-13T12:24:29.573Z,,,,,,,,,,,,,,,,15,,,,,,,,,,,,,,419.64299998644856,,response,,,,7,B,,,,,,Space,keypress(Space),,,,lyrical,,,,---- --------- ---------- - --- ------- -- --- ------------<br>----- -- -------- ------- ---- ------ - -------- ---- -----<br>--- ------- ---- he --- -------- --- - ----- ------ ---- --<br>-------- --- -------- -------- --- -------- ---- -- ----- -<br>-------- ---- --- ---------- --------- -- ------- ------ -<br>--------- ----- -----,228395.0799999875,228394.68999998644,227958.857,227964.63499998208,227975.047,228408.268,,22,he
screen,html.Screen,1_3_1_0_1_23,2021-04-13T12:24:30.048Z,,,,,,,,,,,,,,,,15,,,,,,,,,,,,,,460.9269999774697,,response,,,,7,B,,,,,,Space,keypress(Space),,,,lyrical,,,,---- --------- ---------- - --- ------- -- --- ------------<br>----- -- -------- ------- ---- ------ - -------- ---- -----<br>--- ------- ---- -- was -------- --- - ----- ------ ---- --<br>-------- --- -------- -------- --- -------- ---- -- ----- -<br>-------- ---- --- ---------- --------- -- ------- ------ -<br>--------- ----- -----,228869.73499995656,228869.19499997748,228391.723,228395.14999999665,228408.268,228874.753,,23,was
screen,html.Screen,1_3_1_0_1_24,2021-04-13T12:24:30.697Z,,,,,,,,,,,,,,,,15,,,,,,,,,,,,,,643.9469999568828,,response,,,,7,B,,,,,,Space,keypress(Space),,,,lyrical,,,,---- --------- ---------- - --- ------- -- --- ------------<br>----- -- -------- ------- ---- ------ - -------- ---- -----<br>--- ------- ---- -- --- prepared --- - ----- ------ ---- --<br>-------- --- -------- -------- --- -------- ---- -- ----- -<br>-------- ---- --- ---------- --------- -- ------- ------ -<br>--------- ----- -----,229519.05499998247,229518.69999995688,228858.09,228869.81000000378,228874.753,229524.039,,24,prepared
screen,html.Screen,1_3_1_0_1_25,2021-04-13T12:24:31.234Z,,,,,,,,,,,,,,,,15,,,,,,,,,,,,,,531.0559999597026,,response,,,,7,B,,,,,,Space,keypress(Space),,,,lyrical,,,,---- --------- ---------- - --- ------- -- --- ------------<br>----- -- -------- ------- ---- ------ - -------- ---- -----<br>--- ------- ---- -- --- -------- for - ----- ------ ---- --<br>-------- --- -------- -------- --- -------- ---- -- ----- -<br>-------- ---- --- ---------- --------- -- ------- ------ -<br>--------- ----- -----,230055.55999994976,230055.0949999597,229507.8,229519.12499999162,229524.039,230057.038,,25,for
screen,html.Screen,1_3_1_0_1_26,2021-04-13T12:24:31.693Z,,,,,,,,,,,,,,,,15,,,,,,,,,,,,,,456.94199998880504,,response,,,,7,B,,,,,,Space,keypress(Space),,,,lyrical,,,,---- --------- ---------- - --- ------- -- --- ------------<br>----- -- -------- ------- ---- ------ - -------- ---- -----<br>--- ------- ---- -- --- -------- --- a ----- ------ ---- --<br>-------- --- -------- -------- --- -------- ---- -- ----- -<br>-------- ---- --- ---------- --------- -- ------- ------ -<br>--------- ----- -----,230514.39999998547,230513.9799999888,230041.044,230055.67499995232,230057.038,230523.423,,26,a
screen,html.Screen,1_3_1_0_1_27,2021-04-13T12:24:32.149Z,,,,,,,,,,,,,,,,15,,,,,,,,,,,,,,447.22699997382006,,response,,,,7,B,,,,,,Space,keypress(Space),,,,lyrical,,,,---- --------- ---------- - --- ------- -- --- ------------<br>----- -- -------- ------- ---- ------ - -------- ---- -----<br>--- ------- ---- -- --- -------- --- - third ------ ---- --<br>-------- --- -------- -------- --- -------- ---- -- ----- -<br>-------- ---- --- ---------- --------- -- ------- ------ -<br>--------- ----- -----,230971.03499999503,230970.64999997383,230507.075,230514.46499995654,230523.423,230973.13,,27,third
screen,html.Screen,1_3_1_0_1_28,2021-04-13T12:24:32.758Z,,,,,,,,,,,,,,,,15,,,,,,,,,,,,,,605.9749999534106,,response,,,,7,B,,,,,,Space,keypress(Space),,,,lyrical,,,,---- --------- ---------- - --- ------- -- --- ------------<br>----- -- -------- ------- ---- ------ - -------- ---- -----<br>--- ------- ---- -- --- -------- --- - ----- prison ---- --<br>-------- --- -------- -------- --- -------- ---- -- ----- -<br>-------- ---- --- ---------- --------- -- ------- ------ -<br>--------- ----- -----,231579.45499999914,231579.10499995342,230956.726,230971.10500000417,230973.13,231589.455,,28,prison
screen,html.Screen,1_3_1_0_1_29,2021-04-13T12:24:33.386Z,,,,,,,,,,,,,,,,15,,,,,,,,,,,,,,617.8750000047439,,response,,,,7,B,,,,,,Space,keypress(Space),,,,lyrical,,,,---- --------- ---------- - --- ------- -- --- ------------<br>----- -- -------- ------- ---- ------ - -------- ---- -----<br>--- ------- ---- -- --- -------- --- - ----- ------ stay --<br>-------- --- -------- -------- --- -------- ---- -- ----- -<br>-------- ---- --- ---------- --------- -- ------- ------ -<br>--------- ----- -----,232207.80499995453,232207.33000000473,231573.109,231579.51999997022,231589.455,232222.357,,29,stay
screen,html.Screen,1_3_1_0_1_30,2021-04-13T12:24:33.888Z,,,,,,,,,,,,,,,,15,,,,,,,,,,,,,,486.4629999998433,,response,,,,7,B,,,,,,Space,keypress(Space),,,,lyrical,,,,---- --------- ---------- - --- ------- -- --- ------------<br>----- -- -------- ------- ---- ------ - -------- ---- -----<br>--- ------- ---- -- --- -------- --- - ----- ------ ---- to<br>-------- --- -------- -------- --- -------- ---- -- ----- -<br>-------- ---- --- ---------- --------- -- ------- ------ -<br>--------- ----- -----,232709.18499998515,232708.81999999983,232206.177,232207.91499997722,232222.357,232722.036,,30,to
screen,html.Screen,1_3_1_0_1_31,2021-04-13T12:24:34.610Z,,,,,,,,,,,,,,,,15,,,,,,,,,,,,,,709.5239999972691,,response,,,,7,B,,,,,,Space,keypress(Space),,,,lyrical,,,,---- --------- ---------- - --- ------- -- --- ------------<br>----- -- -------- ------- ---- ------ - -------- ---- -----<br>--- ------- ---- -- --- -------- --- - ----- ------ ---- --<br>maintain --- -------- -------- --- -------- ---- -- ----- -<br>-------- ---- --- ---------- --------- -- ------- ------ -<br>--------- ----- -----,233431.90999998478,233431.55999999726,232705.68,232709.24999995623,232722.036,233438.631,,31,maintain
screen,html.Screen,1_3_1_0_1_32,2021-04-13T12:24:35.041Z,,,,,,,,,,,,,,,,15,,,,,,,,,,,,,,423.4439999536262,,response,,,,7,B,,,,,,Space,keypress(Space),,,,lyrical,,,,---- --------- ---------- - --- ------- -- --- ------------<br>----- -- -------- ------- ---- ------ - -------- ---- -----<br>--- ------- ---- -- --- -------- --- - ----- ------ ---- --<br>-------- his -------- -------- --- -------- ---- -- ----- -<br>-------- ---- --- ---------- --------- -- ------- ------ -<br>--------- ----- -----,233862.46499995468,233862.07499995362,233422.031,233431.97999999393,233438.631,233871.296,,32,his
screen,html.Screen,1_3_1_0_1_33,2021-04-13T12:24:35.868Z,,,,,,,,,,,,,,,,15,,,,,,,,,,,,,,817.4239999764541,,response,,,,7,B,,,,,,Space,keypress(Space),,,,lyrical,,,,---- --------- ---------- - --- ------- -- --- ------------<br>----- -- -------- ------- ---- ------ - -------- ---- -----<br>--- ------- ---- -- --- -------- --- - ----- ------ ---- --<br>-------- --- silence. -------- --- -------- ---- -- ----- -<br>-------- ---- --- ---------- --------- -- ------- ------ -<br>--------- ----- -----,234689.1599999508,234688.71999997646,233854.872,233862.53499996383,233871.296,234704.213,,33,silence.
screen,html.Screen,1_3_1_0_1_34,2021-04-13T12:24:36.465Z,,,,,,,,,,,,,,,,15,,,,,,,,,,,,,,581.9119999841787,,response,,,,7,B,,,,,,Space,keypress(Space),,,,lyrical,,,,---- --------- ---------- - --- ------- -- --- ------------<br>----- -- -------- ------- ---- ------ - -------- ---- -----<br>--- ------- ---- -- --- -------- --- - ----- ------ ---- --<br>-------- --- -------- Anderson --- -------- ---- -- ----- -<br>-------- ---- --- ---------- --------- -- ------- ------ -<br>--------- ----- -----,235286.52999998303,235286.12499998417,234687.928,234689.22999995993,234704.213,235307.888,,34,Anderson
screen,html.Screen,1_3_1_0_1_35,2021-04-13T12:24:37.070Z,,,,,,,,,,,,,,,,15,,,,,,,,,,,,,,583.2919999768783,,response,,,,7,B,,,,,,Space,keypress(Space),,,,lyrical,,,,---- --------- ---------- - --- ------- -- --- ------------<br>----- -- -------- ------- ---- ------ - -------- ---- -----<br>--- ------- ---- -- --- -------- --- - ----- ------ ---- --<br>-------- --- -------- -------- was -------- ---- -- ----- -<br>-------- ---- --- ---------- --------- -- ------- ------ -<br>--------- ----- -----,235891.50999998674,235891.17999997688,235270.753,235286.59999999218,235307.888,235903.361,,35,was
screen,html.Screen,1_3_1_0_1_36,2021-04-13T12:24:37.659Z,,,,,,,,,,,,,,,,15,,,,,,,,,,,,,,576.1489999755577,,response,,,,7,B,,,,,,Space,keypress(Space),,,,lyrical,,,,---- --------- ---------- - --- ------- -- --- ------------<br>----- -- -------- ------- ---- ------ - -------- ---- -----<br>--- ------- ---- -- --- -------- --- - ----- ------ ---- --<br>-------- --- -------- -------- --- released ---- -- ----- -<br>-------- ---- --- ---------- --------- -- ------- ------ -<br>--------- ----- -----,236480.1499999594,236479.50999997556,235887.095,235891.57999999588,235903.361,236486.372,,36,released
screen,html.Screen,1_3_1_0_1_37,2021-04-13T12:24:38.292Z,,,,,,,,,,,,,,,,15,,,,,,,,,,,,,,627.2529999981343,,response,,,,7,B,,,,,,Space,keypress(Space),,,,lyrical,,,,---- --------- ---------- - --- ------- -- --- ------------<br>----- -- -------- ------- ---- ------ - -------- ---- -----<br>--- ------- ---- -- --- -------- --- - ----- ------ ---- --<br>-------- --- -------- -------- --- -------- July -- ----- -<br>-------- ---- --- ---------- --------- -- ------- ------ -<br>--------- ----- -----,237113.96499996772,237113.62499999814,236470.031,236480.25999998208,236486.372,237119.176,,37,July
screen,html.Screen,1_3_1_0_1_38,2021-04-13T12:24:38.945Z,,,,,,,,,,,,,,,,15,,,,,,,,,,,,,,647.4639999870851,,response,,,,7,B,,,,,,Space,keypress(Space),,,,lyrical,,,,---- --------- ---------- - --- ------- -- --- ------------<br>----- -- -------- ------- ---- ------ - -------- ---- -----<br>--- ------- ---- -- --- -------- --- - ----- ------ ---- --<br>-------- --- -------- -------- --- -------- ---- 20 ----- -<br>-------- ---- --- ---------- --------- -- ------- ------ -<br>--------- ----- -----,237766.99499995448,237766.6399999871,237103.015,237114.03499997687,237119.176,237768.777,,38,20
screen,html.Screen,1_3_1_0_1_39,2021-04-13T12:24:39.619Z,,,,,,,,,,,,,,,,15,,,,,,,,,,,,,,671.777999979211,,response,,,,7,B,,,,,,Space,keypress(Space),,,,lyrical,,,,---- --------- ---------- - --- ------- -- --- ------------<br>----- -- -------- ------- ---- ------ - -------- ---- -----<br>--- ------- ---- -- --- -------- --- - ----- ------ ---- --<br>-------- --- -------- -------- --- -------- ---- -- after -<br>-------- ---- --- ---------- --------- -- ------- ------ -<br>--------- ----- -----,238440.94499998027,238440.5549999792,237752.496,237767.0700000017,237768.777,238451.692,,39,after
