sender,sender_type,sender_id,timestamp,meta,,Blues,Classical,Country,Dance,Electronic,Folk,Gospel,Hip-Hop,Jazz,Latin,Musical/Film,New-age,Pop,Provo_ID,R&B,Rap,Reggae,Religious,Rock,Soul,Swing,Traditional,age,artist_name,correct,correctResponse,distraction,duration,education,ended_on,familiarity,gender,headphone_check_performance,item,list,music_frequency,offensiveness,pleasantness,position_correct,preference,response,response_action,snippet_file,song_name,song_rating,sound,stimulus_1,stimulus_2,stimulus_3,text,time_commit,time_end,time_render,time_run,time_show,time_switch,url,word,word_ID
Introduction,html.Screen,0_0,2021-04-24T21:38:30.978Z,"{""labjs_version"":""20.2.2"",""labjs_build"":{""flavor"":""production"",""commit"":""a25486e0c714a0ae2ce03ff94b7bb6896854dcfa""},""location"":""https://run.pavlovia.org/mvasilev/music_a/"",""userAgent"":""Mozilla/5.0 (Macintosh; Intel Mac OS X 10_15_7) AppleWebKit/605.1.15 (KHTML, like Gecko) Version/13.1.3 Safari/605.1.15"",""platform"":""MacIntel"",""language"":""en-gb"",""locale"":""en-GB"",""timeZone"":""Europe/London"",""timezoneOffset"":-60,""screen_width"":1440,""screen_height"":900,""scroll_width"":979,""scroll_height"":567,""window_innerWidth"":979,""window_innerHeight"":615,""devicePixelRatio"":2}",,,,,,,,,,,,,,,,,,,,,,,,,,,,,3167,,response,,,,,,,,,,,continue,click button,,,,,,,,,15139.000000000002,15061,11894,11869,11920,15160,{},,
Volume calibration,html.Screen,0_1,2021-04-24T21:38:41.614Z,,,,,,,,,,,,,,,,,,,,,,,,,,,,,,10553,,response,,,,,,,,,,,continue,click button,,,,,,,,,25776,25696,15143,15140,15160,25794,,,
Task instructions,html.Screen,0_2,2021-04-24T21:38:43.703Z,,,,,,,,,,,,,,,,,,,,,,,,,,,,,,2007,,response,,,,,,,,,,,continue,click button,,,,,,,,,27864,27788,25781,25776,25794,27894,,,
Sounds,html.Screen,0_3_0_0,2021-04-24T21:38:47.969Z,,,,,,,,,,,,,,,,,,,,,,,,,,,,,,4252,,timeout,,,,,,,,,1,,,,,,,,S,I,O,,32130.000000000004,32129,27876,27865.000000000004,27894,32146,,,
Judgement,html.Screen,0_3_0_1,2021-04-24T21:38:51.997Z,,,,,,,,,,,,,,,,,,,,,,,,,,,true,1,,3953,,response,,,,,,,,,1,,1,click #choice-1,,,,,S,I,O,,36158,36082,32129,32131,32146,36181,,,
Trial,flow.Sequence,0_3_0,2021-04-24T21:38:51.998Z,,,,,,,,,,,,,,,,,,,,,,,,,,,,,,8188,,completion,,,,,,,,,1,,,,,,,,S,I,O,,36159,36082,27876,27865.000000000004,27894,36181,,,
Sounds,html.Screen,0_3_1_0,2021-04-24T21:38:56.253Z,,,,,,,,,,,,,,,,,,,,,,,,,,,,,,4249,,timeout,,,,,,,,,3,,,,,,,,I,O,S,,40414,40413,36164,36159,36181,40430,,,
Judgement,html.Screen,0_3_1_1,2021-04-24T21:38:57.275Z,,,,,,,,,,,,,,,,,,,,,,,,,,,true,3,,946,,response,,,,,,,,,3,,3,click #choice-3,,,,,I,O,S,,41436,41359,40413,40414,40430,41467,,,
Trial,flow.Sequence,0_3_1,2021-04-24T21:38:57.275Z,,,,,,,,,,,,,,,,,,,,,,,,,,,,,,5178,,completion,,,,,,,,,3,,,,,,,,I,O,S,,41436,41359,36164,36159,36181,41467,,,
Sounds,html.Screen,0_3_2_0,2021-04-24T21:39:01.542Z,,,,,,,,,,,,,,,,,,,,,,,,,,,,,,4253,,timeout,,,,,,,,,2,,,,,,,,I,S,O,,45703,45703,41451,41436,41467,45720,,,
Judgement,html.Screen,0_3_2_1,2021-04-24T21:39:02.014Z,,,,,,,,,,,,,,,,,,,,,,,,,,,true,2,,396.0000000000073,,response,,,,,,,,,2,,2,click #choice-2,,,,,I,S,O,,46175.00000000001,46099.00000000001,45703,45703,45720,46204,,,
Trial,flow.Sequence,0_3_2,2021-04-24T21:39:02.014Z,,,,,,,,,,,,,,,,,,,,,,,,,,,,,,4632.000000000007,,completion,,,,,,,,,2,,,,,,,,I,S,O,,46175.00000000001,46099.00000000001,41451,41436,41467,46204,,,
Sounds,html.Screen,0_3_3_0,2021-04-24T21:39:06.276Z,,,,,,,,,,,,,,,,,,,,,,,,,,,,,,4249,,timeout,,,,,,,,,2,,,,,,,,O,S,I,,50437,50437,46186,46175.00000000001,46204,50453,,,
Judgement,html.Screen,0_3_3_1,2021-04-24T21:39:06.705Z,,,,,,,,,,,,,,,,,,,,,,,,,,,true,2,,351.0000000000073,,response,,,,,,,,,2,,2,click #choice-2,,,,,O,S,I,,50865,50788.00000000001,50437,50437,50453,50895,,,
Trial,flow.Sequence,0_3_3,2021-04-24T21:39:06.705Z,,,,,,,,,,,,,,,,,,,,,,,,,,,,,,4584.000000000007,,completion,,,,,,,,,2,,,,,,,,O,S,I,,50866,50788.00000000001,46186,46175.00000000001,46204,50895,,,
Sounds,html.Screen,0_3_4_0,2021-04-24T21:39:10.967Z,,,,,,,,,,,,,,,,,,,,,,,,,,,,,,4249,,timeout,,,,,,,,,1,,,,,,,,S,O,I,,55128,55128,50878,50866,50895,55144,,,
Judgement,html.Screen,0_3_4_1,2021-04-24T21:39:11.354Z,,,,,,,,,,,,,,,,,,,,,,,,,,,true,1,,310,,response,,,,,,,,,1,,1,click #choice-1,,,,,S,O,I,,55515,55438,55128,55128,55144,55547,,,
Trial,flow.Sequence,0_3_4,2021-04-24T21:39:11.355Z,,,,,,,,,,,,,,,,,,,,,,,,,,,,,,4543,,completion,,,,,,,,,1,,,,,,,,S,O,I,,55515,55438,50878,50866,50895,55547,,,
Sounds,html.Screen,0_3_5_0,2021-04-24T21:39:15.620Z,,,,,,,,,,,,,,,,,,,,,,,,,,,,,,4251,,timeout,,,,,,,,,3,,,,,,,,O,I,S,,59780,59780,55531,55515,55547,59798,,,
Judgement,html.Screen,0_3_5_1,2021-04-24T21:39:16.396Z,,,,,,,,,,,,,,,,,,,,,,,,,,,true,3,,700.0000000000073,,response,,,,,,,,,3,,3,click #choice-3,,,,,O,I,S,,60557,60480.00000000001,59780,59780,59798,60580,,,
Trial,flow.Sequence,0_3_5,2021-04-24T21:39:16.396Z,,,,,,,,,,,,,,,,,,,,,,,,,,,,,,4933.000000000007,,completion,,,,,,,,,3,,,,,,,,O,I,S,,60557,60480.00000000001,55531,55515,55547,60580,,,
Task,flow.Loop,0_3,2021-04-24T21:39:16.400Z,,,,,,,,,,,,,,,,,,,,,,,,,,,,,,32586.000000000007,,completion,,,1,,,,,,,,,,,,,,,,,,60560,60480.00000000001,27876,27864,27894,60580,,,
Trap,html.Screen,0_4,2021-04-24T21:39:16.402Z,,,,,,,,,,,,,,,,,,,,,,,,,,,,,,NaN,,skipped,,,,,,,,,,,,,,,,,,,,,60563,60480.00000000001,,60562.00000000001,,60580,,,
Thanks,html.Screen,0_5,2021-04-24T21:39:22.165Z,,,,,,,,,,,,,,,,,,,,,,,,,,,,,,5684,,response,,,,,,,,,,,continue,click button,,,,,,,,,66326.00000000001,66248,60564,60563,60580,71051,,,
Headphone screening,flow.Sequence,0,2021-04-24T21:39:22.165Z,,,,,,,,,,,,,,,,,,,,,,,,,,,,,,54328,,completion,,,,,,,,,,,,,,,,,,,,,66326.00000000001,66248,11894,11869,11920,71051,,,
Instructions,html.Page,1_0,2021-04-24T21:39:57.936Z,,,,,,,,,,,,,,,,,,,,,,,,,,,,,,31044,,form submission,,,,,,,,,,,,,,,,,,,,,102095,102095,71043,71019,71051,102114,,,
Holding screen,html.Screen,1_1_0_0,2021-04-24T21:40:07.936Z,,,,,,,,,,,,,,,,,,,,,,,,,,,,,,10023,,timeout,,,,,,,,,,,,,,,,,,,,,112095,112095,102101,102096,102114,112137,,,
screen,html.Screen,1_1_0_1_0,2021-04-24T21:40:08.974Z,,,,,,,,,,,,,,,,53,,,,,,,,,,,,,,957,,response,,,,99,,,,,,,Space,keypress(Space),,,,,,,,When -- ----- -- ------ - ------- --- ----------<br>------------- ------ ------ ---- ---- ------- ----- -- ----<br>-------- ------- -- ---------- --- - --- ----- ----- ----<br>---- --- --- ----- --- ---- ---- ------- ----- ---- -------<br>--- --- -- ----- -- --- ---- -- --- ---- -- ------ ------<br>--- ----- -- ----,113133,113052,112095,112096,112137,113162,,0,When
screen,html.Screen,1_1_0_1_1,2021-04-24T21:40:09.402Z,,,,,,,,,,,,,,,,53,,,,,,,,,,,,,,336.00000000001455,,response,,,,99,,,,,,,Space,keypress(Space),,,,,,,,---- it ----- -- ------ - ------- --- ----------<br>------------- ------ ------ ---- ---- ------- ----- -- ----<br>-------- ------- -- ---------- --- - --- ----- ----- ----<br>---- --- --- ----- --- ---- ---- ------- ----- ---- -------<br>--- --- -- ----- -- --- ---- -- --- ---- -- ------ ------<br>--- ----- -- ----,113561,113481.00000000001,113145,113134,113162,113595,,1,it
screen,html.Screen,1_1_0_1_2,2021-04-24T21:40:09.833Z,,,,,,,,,,,,,,,,53,,,,,,,,,,,,,,334,,response,,,,99,,,,,,,Space,keypress(Space),,,,,,,,---- -- comes -- ------ - ------- --- ----------<br>------------- ------ ------ ---- ---- ------- ----- -- ----<br>-------- ------- -- ---------- --- - --- ----- ----- ----<br>---- --- --- ----- --- ---- ---- ------- ----- ---- -------<br>--- --- -- ----- -- --- ---- -- --- ---- -- ------ ------<br>--- ----- -- ----,113992,113912,113578,113561,113595,114028,,2,comes
screen,html.Screen,1_1_0_1_3,2021-04-24T21:40:10.217Z,,,,,,,,,,,,,,,,53,,,,,,,,,,,,,,284,,response,,,,99,,,,,,,Space,keypress(Space),,,,,,,,---- -- ----- to ------ - ------- --- ----------<br>------------- ------ ------ ---- ---- ------- ----- -- ----<br>-------- ------- -- ---------- --- - --- ----- ----- ----<br>---- --- --- ----- --- ---- ---- ------- ----- ---- -------<br>--- --- -- ----- -- --- ---- -- --- ---- -- ------ ------<br>--- ----- -- ----,114376,114296,114012,113992,114028,114395,,3,to
screen,html.Screen,1_1_0_1_4,2021-04-24T21:40:10.650Z,,,,,,,,,,,,,,,,53,,,,,,,,,,,,,,352,,response,,,,99,,,,,,,Space,keypress(Space),,,,,,,,---- -- ----- -- having - ------- --- ----------<br>------------- ------ ------ ---- ---- ------- ----- -- ----<br>-------- ------- -- ---------- --- - --- ----- ----- ----<br>---- --- --- ----- --- ---- ---- ------- ----- ---- -------<br>--- --- -- ----- -- --- ---- -- --- ---- -- ------ ------<br>--- ----- -- ----,114809,114729,114377,114376,114395,114844,,4,having
screen,html.Screen,1_1_0_1_5,2021-04-24T21:40:11.051Z,,,,,,,,,,,,,,,,53,,,,,,,,,,,,,,302,,response,,,,99,,,,,,,Space,keypress(Space),,,,,,,,---- -- ----- -- ------ a ------- --- ----------<br>------------- ------ ------ ---- ---- ------- ----- -- ----<br>-------- ------- -- ---------- --- - --- ----- ----- ----<br>---- --- --- ----- --- ---- ---- ------- ----- ---- -------<br>--- --- -- ----- -- --- ---- -- --- ---- -- ------ ------<br>--- ----- -- ----,115210.00000000001,115130,114828,114809,114844,115244,,5,a
screen,html.Screen,1_1_0_1_6,2021-04-24T21:40:11.458Z,,,,,,,,,,,,,,,,53,,,,,,,,,,,,,,309,,response,,,,99,,,,,,,Space,keypress(Space),,,,,,,,---- -- ----- -- ------ - lasting --- ----------<br>------------- ------ ------ ---- ---- ------- ----- -- ----<br>-------- ------- -- ---------- --- - --- ----- ----- ----<br>---- --- --- ----- --- ---- ---- ------- ----- ---- -------<br>--- --- -- ----- -- --- ---- -- --- ---- -- ------ ------<br>--- ----- -- ----,115617,115537,115228,115210.00000000001,115244,115644,,6,lasting
screen,html.Screen,1_1_0_1_7,2021-04-24T21:40:11.909Z,,,,,,,,,,,,,,,,53,,,,,,,,,,,,,,358,,response,,,,99,,,,,,,Space,keypress(Space),,,,,,,,---- -- ----- -- ------ - ------- and ----------<br>------------- ------ ------ ---- ---- ------- ----- -- ----<br>-------- ------- -- ---------- --- - --- ----- ----- ----<br>---- --- --- ----- --- ---- ---- ------- ----- ---- -------<br>--- --- -- ----- -- --- ---- -- --- ---- -- ------ ------<br>--- ----- -- ----,116068,115986,115628,115617,115644,116096,,7,and
screen,html.Screen,1_1_0_1_8,2021-04-24T21:40:12.500Z,,,,,,,,,,,,,,,,53,,,,,,,,,,,,,,499.00000000001455,,response,,,,99,,,,,,,Space,keypress(Space),,,,,,,,---- -- ----- -- ------ - ------- --- fulfilling<br>------------- ------ ------ ---- ---- ------- ----- -- ----<br>-------- ------- -- ---------- --- - --- ----- ----- ----<br>---- --- --- ----- --- ---- ---- ------- ----- ---- -------<br>--- --- -- ----- -- --- ---- -- --- ---- -- ------ ------<br>--- ----- -- ----,116659,116579.00000000001,116080,116068,116096,116697,,8,fulfilling
screen,html.Screen,1_1_0_1_9,2021-04-24T21:40:12.998Z,,,,,,,,,,,,,,,,53,,,,,,,,,,,,,,396.00000000001455,,response,,,,99,,,,,,,Space,keypress(Space),,,,,,,,"---- -- ----- -- ------ - ------- --- ----------<br>relationship, ------ ------ ---- ---- ------- ----- -- ----<br>-------- ------- -- ---------- --- - --- ----- ----- ----<br>---- --- --- ----- --- ---- ---- ------- ----- ---- -------<br>--- --- -- ----- -- --- ---- -- --- ---- -- ------ ------<br>--- ----- -- ----",117156,117076.00000000001,116680,116659,116697,117196,,9,"relationship,"
screen,html.Screen,1_1_0_1_10,2021-04-24T21:40:13.463Z,,,,,,,,,,,,,,,,53,,,,,,,,,,,,,,363,,response,,,,99,,,,,,,Space,keypress(Space),,,,,,,,---- -- ----- -- ------ - ------- --- ----------<br>------------- common ------ ---- ---- ------- ----- -- ----<br>-------- ------- -- ---------- --- - --- ----- ----- ----<br>---- --- --- ----- --- ---- ---- ------- ----- ---- -------<br>--- --- -- ----- -- --- ---- -- --- ---- -- ------ ------<br>--- ----- -- ----,117622,117542,117179,117156,117196,117663,,10,common
screen,html.Screen,1_1_0_1_11,2021-04-24T21:40:14.139Z,,,,,,,,,,,,,,,,53,,,,,,,,,,,,,,570,,response,,,,99,,,,,,,Space,keypress(Space),,,,,,,,---- -- ----- -- ------ - ------- --- ----------<br>------------- ------ wisdom ---- ---- ------- ----- -- ----<br>-------- ------- -- ---------- --- - --- ----- ----- ----<br>---- --- --- ----- --- ---- ---- ------- ----- ---- -------<br>--- --- -- ----- -- --- ---- -- --- ---- -- ------ ------<br>--- ----- -- ----,118298,118217,117647,117622,117663,118329,,11,wisdom
screen,html.Screen,1_1_0_1_12,2021-04-24T21:40:14.776Z,,,,,,,,,,,,,,,,53,,,,,,,,,,,,,,540,,response,,,,99,,,,,,,Space,keypress(Space),,,,,,,,---- -- ----- -- ------ - ------- --- ----------<br>------------- ------ ------ says ---- ------- ----- -- ----<br>-------- ------- -- ---------- --- - --- ----- ----- ----<br>---- --- --- ----- --- ---- ---- ------- ----- ---- -------<br>--- --- -- ----- -- --- ---- -- --- ---- -- ------ ------<br>--- ----- -- ----,118935,118854,118314,118298,118329,118964,,12,says
screen,html.Screen,1_1_0_1_13,2021-04-24T21:40:15.215Z,,,,,,,,,,,,,,,,53,,,,,,,,,,,,,,346,,response,,,,99,,,,,,,Space,keypress(Space),,,,,,,,---- -- ----- -- ------ - ------- --- ----------<br>------------- ------ ------ ---- that ------- ----- -- ----<br>-------- ------- -- ---------- --- - --- ----- ----- ----<br>---- --- --- ----- --- ---- ---- ------- ----- ---- -------<br>--- --- -- ----- -- --- ---- -- --- ---- -- ------ ------<br>--- ----- -- ----,119373,119293,118947,118935,118964,119414,,13,that
screen,html.Screen,1_1_0_1_14,2021-04-24T21:40:15.699Z,,,,,,,,,,,,,,,,53,,,,,,,,,,,,,,380,,response,,,,99,,,,,,,Space,keypress(Space),,,,,,,,---- -- ----- -- ------ - ------- --- ----------<br>------------- ------ ------ ---- ---- feeling ----- -- ----<br>-------- ------- -- ---------- --- - --- ----- ----- ----<br>---- --- --- ----- --- ---- ---- ------- ----- ---- -------<br>--- --- -- ----- -- --- ---- -- --- ---- -- ------ ------<br>--- ----- -- ----,119858,119777,119397,119373,119414,119896,,14,feeling
screen,html.Screen,1_1_0_1_15,2021-04-24T21:40:16.084Z,,,,,,,,,,,,,,,,53,,,,,,,,,,,,,,283,,response,,,,99,,,,,,,Space,keypress(Space),,,,,,,,---- -- ----- -- ------ - ------- --- ----------<br>------------- ------ ------ ---- ---- ------- close -- ----<br>-------- ------- -- ---------- --- - --- ----- ----- ----<br>---- --- --- ----- --- ---- ---- ------- ----- ---- -------<br>--- --- -- ----- -- --- ---- -- --- ---- -- ------ ------<br>--- ----- -- ----,120243.00000000001,120162,119879,119858,119896,120263,,15,close
screen,html.Screen,1_1_0_1_16,2021-04-24T21:40:16.474Z,,,,,,,,,,,,,,,,53,,,,,,,,,,,,,,305,,response,,,,99,,,,,,,Space,keypress(Space),,,,,,,,---- -- ----- -- ------ - ------- --- ----------<br>------------- ------ ------ ---- ---- ------- ----- to ----<br>-------- ------- -- ---------- --- - --- ----- ----- ----<br>---- --- --- ----- --- ---- ---- ------- ----- ---- -------<br>--- --- -- ----- -- --- ---- -- --- ---- -- ------ ------<br>--- ----- -- ----,120632,120552,120247,120243.00000000001,120263,120663,,16,to
screen,html.Screen,1_1_0_1_17,2021-04-24T21:40:16.930Z,,,,,,,,,,,,,,,,53,,,,,,,,,,,,,,361,,response,,,,99,,,,,,,Space,keypress(Space),,,,,,,,---- -- ----- -- ------ - ------- --- ----------<br>------------- ------ ------ ---- ---- ------- ----- -- your<br>-------- ------- -- ---------- --- - --- ----- ----- ----<br>---- --- --- ----- --- ---- ---- ------- ----- ---- -------<br>--- --- -- ----- -- --- ---- -- --- ---- -- ------ ------<br>--- ----- -- ----,121089,121008,120647,120632,120663,121116,,17,your
screen,html.Screen,1_1_0_1_18,2021-04-24T21:40:17.401Z,,,,,,,,,,,,,,,,53,,,,,,,,,,,,,,380,,response,,,,99,,,,,,,Space,keypress(Space),,,,,,,,---- -- ----- -- ------ - ------- --- ----------<br>------------- ------ ------ ---- ---- ------- ----- -- ----<br>romantic ------- -- ---------- --- - --- ----- ----- ----<br>---- --- --- ----- --- ---- ---- ------- ----- ---- -------<br>--- --- -- ----- -- --- ---- -- --- ---- -- ------ ------<br>--- ----- -- ----,121559,121479,121099,121089,121116,121599,,18,romantic
screen,html.Screen,1_1_0_1_19,2021-04-24T21:40:17.832Z,,,,,,,,,,,,,,,,53,,,,,,,,,,,,,,328,,response,,,,99,,,,,,,Space,keypress(Space),,,,,,,,---- -- ----- -- ------ - ------- --- ----------<br>------------- ------ ------ ---- ---- ------- ----- -- ----<br>-------- partner -- ---------- --- - --- ----- ----- ----<br>---- --- --- ----- --- ---- ---- ------- ----- ---- -------<br>--- --- -- ----- -- --- ---- -- --- ---- -- ------ ------<br>--- ----- -- ----,121991,121910,121582,121560,121599,122032,,19,partner
screen,html.Screen,1_1_0_1_20,2021-04-24T21:40:18.375Z,,,,,,,,,,,,,,,,53,,,,,,,,,,,,,,438,,response,,,,99,,,,,,,Space,keypress(Space),,,,,,,,---- -- ----- -- ------ - ------- --- ----------<br>------------- ------ ------ ---- ---- ------- ----- -- ----<br>-------- ------- is ---------- --- - --- ----- ----- ----<br>---- --- --- ----- --- ---- ---- ------- ----- ---- -------<br>--- --- -- ----- -- --- ---- -- --- ---- -- ------ ------<br>--- ----- -- ----,122533,122453,122015,121991,122032,122566,,20,is
screen,html.Screen,1_1_0_1_21,2021-04-24T21:40:19.306Z,,,,,,,,,,,,,,,,53,,,,,,,,,,,,,,834,,response,,,,99,,,,,,,Space,keypress(Space),,,,,,,,---- -- ----- -- ------ - ------- --- ----------<br>------------- ------ ------ ---- ---- ------- ----- -- ----<br>-------- ------- -- paramount. --- - --- ----- ----- ----<br>---- --- --- ----- --- ---- ---- ------- ----- ---- -------<br>--- --- -- ----- -- --- ---- -- --- ---- -- ------ ------<br>--- ----- -- ----,123464,123383,122549,122534,122566,123499,,21,paramount.
screen,html.Screen,1_1_0_1_22,2021-04-24T21:40:19.865Z,,,,,,,,,,,,,,,,53,,,,,,,,,,,,,,460,,response,,,,99,,,,,,,Space,keypress(Space),,,,,,,,---- -- ----- -- ------ - ------- --- ----------<br>------------- ------ ------ ---- ---- ------- ----- -- ----<br>-------- ------- -- ---------- But - --- ----- ----- ----<br>---- --- --- ----- --- ---- ---- ------- ----- ---- -------<br>--- --- -- ----- -- --- ---- -- --- ---- -- ------ ------<br>--- ----- -- ----,124023,123942,123482,123464,123499,124066,,22,But
screen,html.Screen,1_1_0_1_23,2021-04-24T21:40:20.258Z,,,,,,,,,,,,,,,,53,,,,,,,,,,,,,,287,,response,,,,99,,,,,,,Space,keypress(Space),,,,,,,,---- -- ----- -- ------ - ------- --- ----------<br>------------- ------ ------ ---- ---- ------- ----- -- ----<br>-------- ------- -- ---------- --- a --- ----- ----- ----<br>---- --- --- ----- --- ---- ---- ------- ----- ---- -------<br>--- --- -- ----- -- --- ---- -- --- ---- -- ------ ------<br>--- ----- -- ----,124416,124336,124049,124023,124066,124449,,23,a
screen,html.Screen,1_1_0_1_24,2021-04-24T21:40:20.715Z,,,,,,,,,,,,,,,,53,,,,,,,,,,,,,,361,,response,,,,99,,,,,,,Space,keypress(Space),,,,,,,,---- -- ----- -- ------ - ------- --- ----------<br>------------- ------ ------ ---- ---- ------- ----- -- ----<br>-------- ------- -- ---------- --- - new ----- ----- ----<br>---- --- --- ----- --- ---- ---- ------- ----- ---- -------<br>--- --- -- ----- -- --- ---- -- --- ---- -- ------ ------<br>--- ----- -- ----,124873,124793,124432,124416,124449,124916,,24,new
screen,html.Screen,1_1_0_1_25,2021-04-24T21:40:21.122Z,,,,,,,,,,,,,,,,53,,,,,,,,,,,,,,301,,response,,,,99,,,,,,,Space,keypress(Space),,,,,,,,---- -- ----- -- ------ - ------- --- ----------<br>------------- ------ ------ ---- ---- ------- ----- -- ----<br>-------- ------- -- ---------- --- - --- study ----- ----<br>---- --- --- ----- --- ---- ---- ------- ----- ---- -------<br>--- --- -- ----- -- --- ---- -- --- ---- -- ------ ------<br>--- ----- -- ----,125280,125200,124899,124874.00000000001,124916,125316,,25,study
screen,html.Screen,1_1_0_1_26,2021-04-24T21:40:21.541Z,,,,,,,,,,,,,,,,53,,,,,,,,,,,,,,320,,response,,,,99,,,,,,,Space,keypress(Space),,,,,,,,---- -- ----- -- ------ - ------- --- ----------<br>------------- ------ ------ ---- ---- ------- ----- -- ----<br>-------- ------- -- ---------- --- - --- ----- finds ----<br>---- --- --- ----- --- ---- ---- ------- ----- ---- -------<br>--- --- -- ----- -- --- ---- -- --- ---- -- ------ ------<br>--- ----- -- ----,125699,125619,125299,125280,125316,125734,,26,finds
screen,html.Screen,1_1_0_1_27,2021-04-24T21:40:21.984Z,,,,,,,,,,,,,,,,53,,,,,,,,,,,,,,345,,response,,,,99,,,,,,,Space,keypress(Space),,,,,,,,---- -- ----- -- ------ - ------- --- ----------<br>------------- ------ ------ ---- ---- ------- ----- -- ----<br>-------- ------- -- ---------- --- - --- ----- ----- that<br>---- --- --- ----- --- ---- ---- ------- ----- ---- -------<br>--- --- -- ----- -- --- ---- -- --- ---- -- ------ ------<br>--- ----- -- ----,126143,126063,125718,125699,125734,126184,,27,that
screen,html.Screen,1_1_0_1_28,2021-04-24T21:40:22.488Z,,,,,,,,,,,,,,,,53,,,,,,,,,,,,,,398,,response,,,,99,,,,,,,Space,keypress(Space),,,,,,,,---- -- ----- -- ------ - ------- --- ----------<br>------------- ------ ------ ---- ---- ------- ----- -- ----<br>-------- ------- -- ---------- --- - --- ----- ----- ----<br>it's --- --- ----- --- ---- ---- ------- ----- ---- -------<br>--- --- -- ----- -- --- ---- -- --- ---- -- ------ ------<br>--- ----- -- ----,126647,126566,126168,126143,126184,126684,,28,it's
screen,html.Screen,1_1_0_1_29,2021-04-24T21:40:22.944Z,,,,,,,,,,,,,,,,53,,,,,,,,,,,,,,354,,response,,,,99,,,,,,,Space,keypress(Space),,,,,,,,---- -- ----- -- ------ - ------- --- ----------<br>------------- ------ ------ ---- ---- ------- ----- -- ----<br>-------- ------- -- ---------- --- - --- ----- ----- ----<br>---- not --- ----- --- ---- ---- ------- ----- ---- -------<br>--- --- -- ----- -- --- ---- -- --- ---- -- ------ ------<br>--- ----- -- ----,127102,127022,126668,126647,126684,127134,,29,not
screen,html.Screen,1_1_0_1_30,2021-04-24T21:40:23.357Z,,,,,,,,,,,,,,,,53,,,,,,,,,,,,,,317,,response,,,,99,,,,,,,Space,keypress(Space),,,,,,,,---- -- ----- -- ------ - ------- --- ----------<br>------------- ------ ------ ---- ---- ------- ----- -- ----<br>-------- ------- -- ---------- --- - --- ----- ----- ----<br>---- --- how ----- --- ---- ---- ------- ----- ---- -------<br>--- --- -- ----- -- --- ---- -- --- ---- -- ------ ------<br>--- ----- -- ----,127516,127435,127118,127102,127134,127550,,30,how
screen,html.Screen,1_1_0_1_31,2021-04-24T21:40:23.772Z,,,,,,,,,,,,,,,,53,,,,,,,,,,,,,,316.00000000001455,,response,,,,99,,,,,,,Space,keypress(Space),,,,,,,,---- -- ----- -- ------ - ------- --- ----------<br>------------- ------ ------ ---- ---- ------- ----- -- ----<br>-------- ------- -- ---------- --- - --- ----- ----- ----<br>---- --- --- close --- ---- ---- ------- ----- ---- -------<br>--- --- -- ----- -- --- ---- -- --- ---- -- ------ ------<br>--- ----- -- ----,127930,127850.00000000001,127534,127516,127550,127967,,31,close
screen,html.Screen,1_1_0_1_32,2021-04-24T21:40:24.165Z,,,,,,,,,,,,,,,,53,,,,,,,,,,,,,,292,,response,,,,99,,,,,,,Space,keypress(Space),,,,,,,,---- -- ----- -- ------ - ------- --- ----------<br>------------- ------ ------ ---- ---- ------- ----- -- ----<br>-------- ------- -- ---------- --- - --- ----- ----- ----<br>---- --- --- ----- you ---- ---- ------- ----- ---- -------<br>--- --- -- ----- -- --- ---- -- --- ---- -- ------ ------<br>--- ----- -- ----,128323.00000000001,128243,127951,127930,127967,128351,,32,you
screen,html.Screen,1_1_0_1_33,2021-04-24T21:40:24.582Z,,,,,,,,,,,,,,,,53,,,,,,,,,,,,,,326,,response,,,,99,,,,,,,Space,keypress(Space),,,,,,,,---- -- ----- -- ------ - ------- --- ----------<br>------------- ------ ------ ---- ---- ------- ----- -- ----<br>-------- ------- -- ---------- --- - --- ----- ----- ----<br>---- --- --- ----- --- feel ---- ------- ----- ---- -------<br>--- --- -- ----- -- --- ---- -- --- ---- -- ------ ------<br>--- ----- -- ----,128740.00000000001,128660,128334,128323.00000000001,128351,128767,,33,feel
screen,html.Screen,1_1_0_1_34,2021-04-24T21:40:25.069Z,,,,,,,,,,,,,,,,53,,,,,,,,,,,,,,395.99999999998545,,response,,,,99,,,,,,,Space,keypress(Space),,,,,,,,---- -- ----- -- ------ - ------- --- ----------<br>------------- ------ ------ ---- ---- ------- ----- -- ----<br>-------- ------- -- ---------- --- - --- ----- ----- ----<br>---- --- --- ----- --- ---- that ------- ----- ---- -------<br>--- --- -- ----- -- --- ---- -- --- ---- -- ------ ------<br>--- ----- -- ----,129227,129146.99999999999,128751,128741.00000000001,128767,129268,,34,that
screen,html.Screen,1_1_0_1_35,2021-04-24T21:40:25.497Z,,,,,,,,,,,,,,,,53,,,,,,,,,,,,,,323.99999999998545,,response,,,,99,,,,,,,Space,keypress(Space),,,,,,,,---- -- ----- -- ------ - ------- --- ----------<br>------------- ------ ------ ---- ---- ------- ----- -- ----<br>-------- ------- -- ---------- --- - --- ----- ----- ----<br>---- --- --- ----- --- ---- ---- matters ----- ---- -------<br>--- --- -- ----- -- --- ---- -- --- ---- -- ------ ------<br>--- ----- -- ----,129655,129574.99999999999,129251,129227,129268,129684,,35,matters
screen,html.Screen,1_1_0_1_36,2021-04-24T21:40:25.879Z,,,,,,,,,,,,,,,,53,,,,,,,,,,,,,,289,,response,,,,99,,,,,,,Space,keypress(Space),,,,,,,,"---- -- ----- -- ------ - ------- --- ----------<br>------------- ------ ------ ---- ---- ------- ----- -- ----<br>-------- ------- -- ---------- --- - --- ----- ----- ----<br>---- --- --- ----- --- ---- ---- ------- most, ---- -------<br>--- --- -- ----- -- --- ---- -- --- ---- -- ------ ------<br>--- ----- -- ----",130038.00000000001,129957,129668,129655,129684,130067,,36,"most,"
screen,html.Screen,1_1_0_1_37,2021-04-24T21:40:26.529Z,,,,,,,,,,,,,,,,53,,,,,,,,,,,,,,555,,response,,,,99,,,,,,,Space,keypress(Space),,,,,,,,---- -- ----- -- ------ - ------- --- ----------<br>------------- ------ ------ ---- ---- ------- ----- -- ----<br>-------- ------- -- ---------- --- - --- ----- ----- ----<br>---- --- --- ----- --- ---- ---- ------- ----- it's -------<br>--- --- -- ----- -- --- ---- -- --- ---- -- ------ ------<br>--- ----- -- ----,130687.00000000001,130606,130051,130038.00000000001,130067,130718,,37,it's
screen,html.Screen,1_1_0_1_38,2021-04-24T21:40:26.995Z,,,,,,,,,,,,,,,,53,,,,,,,,,,,,,,373,,response,,,,99,,,,,,,Space,keypress(Space),,,,,,,,---- -- ----- -- ------ - ------- --- ----------<br>------------- ------ ------ ---- ---- ------- ----- -- ----<br>-------- ------- -- ---------- --- - --- ----- ----- ----<br>---- --- --- ----- --- ---- ---- ------- ----- ---- whether<br>--- --- -- ----- -- --- ---- -- --- ---- -- ------ ------<br>--- ----- -- ----,131154,131073,130700,130687.00000000001,130718,131185,,38,whether
screen,html.Screen,1_1_0_1_39,2021-04-24T21:40:27.428Z,,,,,,,,,,,,,,,,53,,,,,,,,,,,,,,336,,response,,,,99,,,,,,,Space,keypress(Space),,,,,,,,---- -- ----- -- ------ - ------- --- ----------<br>------------- ------ ------ ---- ---- ------- ----- -- ----<br>-------- ------- -- ---------- --- - --- ----- ----- ----<br>---- --- --- ----- --- ---- ---- ------- ----- ---- -------<br>you --- -- ----- -- --- ---- -- --- ---- -- ------ ------<br>--- ----- -- ----,131586,131505,131169,131154,131185,131619,,39,you
screen,html.Screen,1_1_0_1_40,2021-04-24T21:40:27.845Z,,,,,,,,,,,,,,,,53,,,,,,,,,,,,,,320,,response,,,,99,,,,,,,Space,keypress(Space),,,,,,,,---- -- ----- -- ------ - ------- --- ----------<br>------------- ------ ------ ---- ---- ------- ----- -- ----<br>-------- ------- -- ---------- --- - --- ----- ----- ----<br>---- --- --- ----- --- ---- ---- ------- ----- ---- -------<br>--- are -- ----- -- --- ---- -- --- ---- -- ------ ------<br>--- ----- -- ----,132003,131923,131603,131586,131619,132036,,40,are
screen,html.Screen,1_1_0_1_41,2021-04-24T21:40:28.283Z,,,,,,,,,,,,,,,,53,,,,,,,,,,,,,,341,,response,,,,99,,,,,,,Space,keypress(Space),,,,,,,,---- -- ----- -- ------ - ------- --- ----------<br>------------- ------ ------ ---- ---- ------- ----- -- ----<br>-------- ------- -- ---------- --- - --- ----- ----- ----<br>---- --- --- ----- --- ---- ---- ------- ----- ---- -------<br>--- --- as ----- -- --- ---- -- --- ---- -- ------ ------<br>--- ----- -- ----,132441,132360,132019,132003,132036,132468,,41,as
screen,html.Screen,1_1_0_1_42,2021-04-24T21:40:28.752Z,,,,,,,,,,,,,,,,53,,,,,,,,,,,,,,377,,response,,,,99,,,,,,,Space,keypress(Space),,,,,,,,---- -- ----- -- ------ - ------- --- ----------<br>------------- ------ ------ ---- ---- ------- ----- -- ----<br>-------- ------- -- ---------- --- - --- ----- ----- ----<br>---- --- --- ----- --- ---- ---- ------- ----- ---- -------<br>--- --- -- close -- --- ---- -- --- ---- -- ------ ------<br>--- ----- -- ----,132910,132829,132452,132441,132468,132952,,42,close
screen,html.Screen,1_1_0_1_43,2021-04-24T21:40:29.154Z,,,,,,,,,,,,,,,,53,,,,,,,,,,,,,,296,,response,,,,99,,,,,,,Space,keypress(Space),,,,,,,,---- -- ----- -- ------ - ------- --- ----------<br>------------- ------ ------ ---- ---- ------- ----- -- ----<br>-------- ------- -- ---------- --- - --- ----- ----- ----<br>---- --- --- ----- --- ---- ---- ------- ----- ---- -------<br>--- --- -- ----- as --- ---- -- --- ---- -- ------ ------<br>--- ----- -- ----,133313.00000000003,133231,132935,132910,132952,133351,,43,as
screen,html.Screen,1_1_0_1_44,2021-04-24T21:40:29.673Z,,,,,,,,,,,,,,,,53,,,,,,,,,,,,,,415,,response,,,,99,,,,,,,Space,keypress(Space),,,,,,,,---- -- ----- -- ------ - ------- --- ----------<br>------------- ------ ------ ---- ---- ------- ----- -- ----<br>-------- ------- -- ---------- --- - --- ----- ----- ----<br>---- --- --- ----- --- ---- ---- ------- ----- ---- -------<br>--- --- -- ----- -- you ---- -- --- ---- -- ------ ------<br>--- ----- -- ----,133831,133750,133335,133313.00000000003,133351,133868,,44,you
screen,html.Screen,1_1_0_1_45,2021-04-24T21:40:30.098Z,,,,,,,,,,,,,,,,53,,,,,,,,,,,,,,323,,response,,,,99,,,,,,,Space,keypress(Space),,,,,,,,---- -- ----- -- ------ - ------- --- ----------<br>------------- ------ ------ ---- ---- ------- ----- -- ----<br>-------- ------- -- ---------- --- - --- ----- ----- ----<br>---- --- --- ----- --- ---- ---- ------- ----- ---- -------<br>--- --- -- ----- -- --- want -- --- ---- -- ------ ------<br>--- ----- -- ----,134256,134175,133852,133832,133868,134286,,45,want
screen,html.Screen,1_1_0_1_46,2021-04-24T21:40:30.514Z,,,,,,,,,,,,,,,,53,,,,,,,,,,,,,,322,,response,,,,99,,,,,,,Space,keypress(Space),,,,,,,,---- -- ----- -- ------ - ------- --- ----------<br>------------- ------ ------ ---- ---- ------- ----- -- ----<br>-------- ------- -- ---------- --- - --- ----- ----- ----<br>---- --- --- ----- --- ---- ---- ------- ----- ---- -------<br>--- --- -- ----- -- --- ---- to --- ---- -- ------ ------<br>--- ----- -- ----,134672,134591,134269,134256,134286,134702,,46,to
screen,html.Screen,1_1_0_1_47,2021-04-24T21:40:30.854Z,,,,,,,,,,,,,,,,53,,,,,,,,,,,,,,245,,response,,,,99,,,,,,,Space,keypress(Space),,,,,,,,"---- -- ----- -- ------ - ------- --- ----------<br>------------- ------ ------ ---- ---- ------- ----- -- ----<br>-------- ------- -- ---------- --- - --- ----- ----- ----<br>---- --- --- ----- --- ---- ---- ------- ----- ---- -------<br>--- --- -- ----- -- --- ---- -- be, ---- -- ------ ------<br>--- ----- -- ----",135012,134931,134686,134672,134702,135035,,47,"be,"
screen,html.Screen,1_1_0_1_48,2021-04-24T21:40:31.249Z,,,,,,,,,,,,,,,,53,,,,,,,,,,,,,,307,,response,,,,99,,,,,,,Space,keypress(Space),,,,,,,,---- -- ----- -- ------ - ------- --- ----------<br>------------- ------ ------ ---- ---- ------- ----- -- ----<br>-------- ------- -- ---------- --- - --- ----- ----- ----<br>---- --- --- ----- --- ---- ---- ------- ----- ---- -------<br>--- --- -- ----- -- --- ---- -- --- even -- ------ ------<br>--- ----- -- ----,135407,135326,135019,135012,135035,135436,,48,even
screen,html.Screen,1_1_0_1_49,2021-04-24T21:40:31.629Z,,,,,,,,,,,,,,,,53,,,,,,,,,,,,,,287,,response,,,,99,,,,,,,Space,keypress(Space),,,,,,,,---- -- ----- -- ------ - ------- --- ----------<br>------------- ------ ------ ---- ---- ------- ----- -- ----<br>-------- ------- -- ---------- --- - --- ----- ----- ----<br>---- --- --- ----- --- ---- ---- ------- ----- ---- -------<br>--- --- -- ----- -- --- ---- -- --- ---- if ------ ------<br>--- ----- -- ----,135787,135706,135419,135407,135436,135804,,49,if
screen,html.Screen,1_1_0_1_50,2021-04-24T21:40:32.071Z,,,,,,,,,,,,,,,,53,,,,,,,,,,,,,,360,,response,,,,99,,,,,,,Space,keypress(Space),,,,,,,,---- -- ----- -- ------ - ------- --- ----------<br>------------- ------ ------ ---- ---- ------- ----- -- ----<br>-------- ------- -- ---------- --- - --- ----- ----- ----<br>---- --- --- ----- --- ---- ---- ------- ----- ---- -------<br>--- --- -- ----- -- --- ---- -- --- ---- -- that's ------<br>--- ----- -- ----,136229,136148,135788,135787,135804,136271,,50,that's
screen,html.Screen,1_1_0_1_51,2021-04-24T21:40:32.479Z,,,,,,,,,,,,,,,,53,,,,,,,,,,,,,,301,,response,,,,99,,,,,,,Space,keypress(Space),,,,,,,,---- -- ----- -- ------ - ------- --- ----------<br>------------- ------ ------ ---- ---- ------- ----- -- ----<br>-------- ------- -- ---------- --- - --- ----- ----- ----<br>---- --- --- ----- --- ---- ---- ------- ----- ---- -------<br>--- --- -- ----- -- --- ---- -- --- ---- -- ------ really<br>--- ----- -- ----,136637,136556,136255,136229,136271,136671,,51,really
screen,html.Screen,1_1_0_1_52,2021-04-24T21:40:32.953Z,,,,,,,,,,,,,,,,53,,,,,,,,,,,,,,376,,response,,,,99,,,,,,,Space,keypress(Space),,,,,,,,---- -- ----- -- ------ - ------- --- ----------<br>------------- ------ ------ ---- ---- ------- ----- -- ----<br>-------- ------- -- ---------- --- - --- ----- ----- ----<br>---- --- --- ----- --- ---- ---- ------- ----- ---- -------<br>--- --- -- ----- -- --- ---- -- --- ---- -- ------ ------<br>not ----- -- ----,137111,137030,136654,136637,136671,137137,,52,not
screen,html.Screen,1_1_0_1_53,2021-04-24T21:40:33.359Z,,,,,,,,,,,,,,,,53,,,,,,,,,,,,,,315,,response,,,,99,,,,,,,Space,keypress(Space),,,,,,,,---- -- ----- -- ------ - ------- --- ----------<br>------------- ------ ------ ---- ---- ------- ----- -- ----<br>-------- ------- -- ---------- --- - --- ----- ----- ----<br>---- --- --- ----- --- ---- ---- ------- ----- ---- -------<br>--- --- -- ----- -- --- ---- -- --- ---- -- ------ ------<br>--- close -- ----,137517,137436,137121,137111,137137,137555,,53,close
screen,html.Screen,1_1_0_1_54,2021-04-24T21:40:33.819Z,,,,,,,,,,,,,,,,53,,,,,,,,,,,,,,358.0000000000291,,response,,,,99,,,,,,,Space,keypress(Space),,,,,,,,---- -- ----- -- ------ - ------- --- ----------<br>------------- ------ ------ ---- ---- ------- ----- -- ----<br>-------- ------- -- ---------- --- - --- ----- ----- ----<br>---- --- --- ----- --- ---- ---- ------- ----- ---- -------<br>--- --- -- ----- -- --- ---- -- --- ---- -- ------ ------<br>--- ----- at ----,137977,137896.00000000003,137538,137517,137555,138004,,54,at
screen,html.Screen,1_1_0_1_55,2021-04-24T21:40:34.221Z,,,,,,,,,,,,,,,,53,,,,,,,,,,,,,,310,,response,,,,99,,,,,,,Space,keypress(Space),,,,,,,,---- -- ----- -- ------ - ------- --- ----------<br>------------- ------ ------ ---- ---- ------- ----- -- ----<br>-------- ------- -- ---------- --- - --- ----- ----- ----<br>---- --- --- ----- --- ---- ---- ------- ----- ---- -------<br>--- --- -- ----- -- --- ---- -- --- ---- -- ------ ------<br>--- ----- -- all.,138379,138298,137988,137977,138004,138422,,55,all.
Item 99,flow.Loop,1_1_0_1,2021-04-24T21:40:34.221Z,,,,,,,,,,,,,,,,,,,,,,,,,,,,,,26161,,completion,,,,,A,,,,,,,,,,,silence,,,,,138379,138298,112095,112096,112137,138422,,,
Question 1,html.Screen,1_1_0_2,2021-04-24T21:40:42.191Z,,,,,,,,,,,,,,,,,,,,,,,,,,,true,FALSE,,7865,,response,,,,99,A,,,,,,FALSE,click #choice-2,,,,silence,,,,,146349,146269,138404,138380,138422,146378,,,
Question 2,html.Screen,1_1_0_3,2021-04-24T21:40:51.781Z,,,,,,,,,,,,,,,,,,,,,,,,,,,true,TRUE,,9497,,response,,,,99,A,,,,,,TRUE,click #choice-1,,,,silence,,,,,155938.00000000003,155858,146361,146349,146378,155956,,,
Item 99,flow.Sequence,1_1_0,2021-04-24T21:40:51.781Z,,,,,,,,,,,,,,,,,,,,,,,,,,,,,,53744,,completion,,,,,,,,,,,,,,,,,,,,,155938.00000000003,155858,102101,102095,102114,155956,,,
Holding screen,html.Screen,1_1_1_0,2021-04-24T21:41:01.787Z,,,,,,,,,,,,,,,,,,,,,,,,,,,,,,10003,,timeout,,,,,,,,,,,,,,,,,,,,,165944.00000000003,165944,155943,155939,155956,165959,,,
screen,html.Screen,1_1_1_1_0,2021-04-24T21:41:02.590Z,,,,,,,,,,,,,,,,54,,,,,,,,,,,,,,721,,response,,,,100,,,,,,,Space,keypress(Space),,,,,,,,At --- ---- --- ------ ----- ------- ---- -- --- ------- --<br>------- ---------- ------ -- ----- -- ----- -- ---- ------<br>--- ----- --- --- ------ -------- ----- --- ------ ----- --<br>----- ----- ---------- --- --- ------ ------ ---- -- ------<br>------- --- ------ ----- --- ---- ------- -- ---- --- --<br>------- ------,166747,166665,165944,165944.00000000003,165959,166776,,0,At
screen,html.Screen,1_1_1_1_1,2021-04-24T21:41:03.102Z,,,,,,,,,,,,,,,,54,,,,,,,,,,,,,,419,,response,,,,100,,,,,,,Space,keypress(Space),,,,,,,,-- the ---- --- ------ ----- ------- ---- -- --- ------- --<br>------- ---------- ------ -- ----- -- ----- -- ---- ------<br>--- ----- --- --- ------ -------- ----- --- ------ ----- --<br>----- ----- ---------- --- --- ------ ------ ---- -- ------<br>------- --- ------ ----- --- ---- ------- -- ---- --- --<br>------- ------,167260,167178,166759,166747,166776,167292,,1,the
screen,html.Screen,1_1_1_1_2,2021-04-24T21:41:03.544Z,,,,,,,,,,,,,,,,54,,,,,,,,,,,,,,344,,response,,,,100,,,,,,,Space,keypress(Space),,,,,,,,-- --- time --- ------ ----- ------- ---- -- --- ------- --<br>------- ---------- ------ -- ----- -- ----- -- ---- ------<br>--- ----- --- --- ------ -------- ----- --- ------ ----- --<br>----- ----- ---------- --- --- ------ ------ ---- -- ------<br>------- --- ------ ----- --- ---- ------- -- ---- --- --<br>------- ------,167701,167620,167276,167260,167292,167743,,2,time
screen,html.Screen,1_1_1_1_3,2021-04-24T21:41:03.953Z,,,,,,,,,,,,,,,,54,,,,,,,,,,,,,,303,,response,,,,100,,,,,,,Space,keypress(Space),,,,,,,,-- --- ---- the ------ ----- ------- ---- -- --- ------- --<br>------- ---------- ------ -- ----- -- ----- -- ---- ------<br>--- ----- --- --- ------ -------- ----- --- ------ ----- --<br>----- ----- ---------- --- --- ------ ------ ---- -- ------<br>------- --- ------ ----- --- ---- ------- -- ---- --- --<br>------- ------,168110,168029,167726,167701,167743,168143,,3,the
screen,html.Screen,1_1_1_1_4,2021-04-24T21:41:04.403Z,,,,,,,,,,,,,,,,54,,,,,,,,,,,,,,353,,response,,,,100,,,,,,,Space,keypress(Space),,,,,,,,-- --- ---- --- French ----- ------- ---- -- --- ------- --<br>------- ---------- ------ -- ----- -- ----- -- ---- ------<br>--- ----- --- --- ------ -------- ----- --- ------ ----- --<br>----- ----- ---------- --- --- ------ ------ ---- -- ------<br>------- --- ------ ----- --- ---- ------- -- ---- --- --<br>------- ------,168560,168479,168126,168110,168143,168593,,4,French
screen,html.Screen,1_1_1_1_5,2021-04-24T21:41:04.792Z,,,,,,,,,,,,,,,,54,,,,,,,,,,,,,,291,,response,,,,100,,,,,,,Space,keypress(Space),,,,,,,,-- --- ---- --- ------ crown ------- ---- -- --- ------- --<br>------- ---------- ------ -- ----- -- ----- -- ---- ------<br>--- ----- --- --- ------ -------- ----- --- ------ ----- --<br>----- ----- ---------- --- --- ------ ------ ---- -- ------<br>------- --- ------ ----- --- ---- ------- -- ---- --- --<br>------- ------,168949,168867,168576,168560,168593,168975,,5,crown
screen,html.Screen,1_1_1_1_6,2021-04-24T21:41:05.272Z,,,,,,,,,,,,,,,,54,,,,,,,,,,,,,,388,,response,,,,100,,,,,,,Space,keypress(Space),,,,,,,,-- --- ---- --- ------ ----- secured ---- -- --- ------- --<br>------- ---------- ------ -- ----- -- ----- -- ---- ------<br>--- ----- --- --- ------ -------- ----- --- ------ ----- --<br>----- ----- ---------- --- --- ------ ------ ---- -- ------<br>------- --- ------ ----- --- ---- ------- -- ---- --- --<br>------- ------,169429,169347,168959,168949,168975,169459,,6,secured
screen,html.Screen,1_1_1_1_7,2021-04-24T21:41:05.730Z,,,,,,,,,,,,,,,,54,,,,,,,,,,,,,,362,,response,,,,100,,,,,,,Space,keypress(Space),,,,,,,,-- --- ---- --- ------ ----- ------- much -- --- ------- --<br>------- ---------- ------ -- ----- -- ----- -- ---- ------<br>--- ----- --- --- ------ -------- ----- --- ------ ----- --<br>----- ----- ---------- --- --- ------ ------ ---- -- ------<br>------- --- ------ ----- --- ---- ------- -- ---- --- --<br>------- ------,169887,169805,169443,169429,169459,169926,,7,much
screen,html.Screen,1_1_1_1_8,2021-04-24T21:41:06.180Z,,,,,,,,,,,,,,,,54,,,,,,,,,,,,,,347,,response,,,,100,,,,,,,Space,keypress(Space),,,,,,,,-- --- ---- --- ------ ----- ------- ---- of --- ------- --<br>------- ---------- ------ -- ----- -- ----- -- ---- ------<br>--- ----- --- --- ------ -------- ----- --- ------ ----- --<br>----- ----- ---------- --- --- ------ ------ ---- -- ------<br>------- --- ------ ----- --- ---- ------- -- ---- --- --<br>------- ------,170338,170256,169909,169887,169926,170376,,8,of
screen,html.Screen,1_1_1_1_9,2021-04-24T21:41:06.626Z,,,,,,,,,,,,,,,,54,,,,,,,,,,,,,,342,,response,,,,100,,,,,,,Space,keypress(Space),,,,,,,,-- --- ---- --- ------ ----- ------- ---- -- its ------- --<br>------- ---------- ------ -- ----- -- ----- -- ---- ------<br>--- ----- --- --- ------ -------- ----- --- ------ ----- --<br>----- ----- ---------- --- --- ------ ------ ---- -- ------<br>------- --- ------ ----- --- ---- ------- -- ---- --- --<br>------- ------,170783.00000000003,170701,170359,170338,170376,170826,,9,its
screen,html.Screen,1_1_1_1_10,2021-04-24T21:41:07.083Z,,,,,,,,,,,,,,,,54,,,,,,,,,,,,,,348.0000000000291,,response,,,,100,,,,,,,Space,keypress(Space),,,,,,,,-- --- ---- --- ------ ----- ------- ---- -- --- revenue --<br>------- ---------- ------ -- ----- -- ----- -- ---- ------<br>--- ----- --- --- ------ -------- ----- --- ------ ----- --<br>----- ----- ---------- --- --- ------ ------ ---- -- ------<br>------- --- ------ ----- --- ---- ------- -- ---- --- --<br>------- ------,171240,171158.00000000003,170810,170784,170826,171279,,10,revenue
screen,html.Screen,1_1_1_1_11,2021-04-24T21:41:07.691Z,,,,,,,,,,,,,,,,54,,,,,,,,,,,,,,504,,response,,,,100,,,,,,,Space,keypress(Space),,,,,,,,-- --- ---- --- ------ ----- ------- ---- -- --- ------- by<br>------- ---------- ------ -- ----- -- ----- -- ---- ------<br>--- ----- --- --- ------ -------- ----- --- ------ ----- --<br>----- ----- ---------- --- --- ------ ------ ---- -- ------<br>------- --- ------ ----- --- ---- ------- -- ---- --- --<br>------- ------,171848,171766,171262,171240,171279,171878,,11,by
screen,html.Screen,1_1_1_1_12,2021-04-24T21:41:08.181Z,,,,,,,,,,,,,,,,54,,,,,,,,,,,,,,394,,response,,,,100,,,,,,,Space,keypress(Space),,,,,,,,-- --- ---- --- ------ ----- ------- ---- -- --- ------- --<br>issuing ---------- ------ -- ----- -- ----- -- ---- ------<br>--- ----- --- --- ------ -------- ----- --- ------ ----- --<br>----- ----- ---------- --- --- ------ ------ ---- -- ------<br>------- --- ------ ----- --- ---- ------- -- ---- --- --<br>------- ------,172338,172256,171862,171848,171878,172377,,12,issuing
screen,html.Screen,1_1_1_1_13,2021-04-24T21:41:08.672Z,,,,,,,,,,,,,,,,54,,,,,,,,,,,,,,385,,response,,,,100,,,,,,,Space,keypress(Space),,,,,,,,-- --- ---- --- ------ ----- ------- ---- -- --- ------- --<br>------- government ------ -- ----- -- ----- -- ---- ------<br>--- ----- --- --- ------ -------- ----- --- ------ ----- --<br>----- ----- ---------- --- --- ------ ------ ---- -- ------<br>------- --- ------ ----- --- ---- ------- -- ---- --- --<br>------- ------,172829,172747,172362,172338,172377,172862,,13,government
screen,html.Screen,1_1_1_1_14,2021-04-24T21:41:09.143Z,,,,,,,,,,,,,,,,54,,,,,,,,,,,,,,373.0000000000291,,response,,,,100,,,,,,,Space,keypress(Space),,,,,,,,-- --- ---- --- ------ ----- ------- ---- -- --- ------- --<br>------- ---------- bonds. -- ----- -- ----- -- ---- ------<br>--- ----- --- --- ------ -------- ----- --- ------ ----- --<br>----- ----- ---------- --- --- ------ ------ ---- -- ------<br>------- --- ------ ----- --- ---- ------- -- ---- --- --<br>------- ------,173300,173218.00000000003,172845,172829,172862,173329,,14,bonds.
screen,html.Screen,1_1_1_1_15,2021-04-24T21:41:09.545Z,,,,,,,,,,,,,,,,54,,,,,,,,,,,,,,308,,response,,,,100,,,,,,,Space,keypress(Space),,,,,,,,-- --- ---- --- ------ ----- ------- ---- -- --- ------- --<br>------- ---------- ------ In ----- -- ----- -- ---- ------<br>--- ----- --- --- ------ -------- ----- --- ------ ----- --<br>----- ----- ---------- --- --- ------ ------ ---- -- ------<br>------- --- ------ ----- --- ---- ------- -- ---- --- --<br>------- ------,173702,173620,173312,173300,173329,173728,,15,In
screen,html.Screen,1_1_1_1_16,2021-04-24T21:41:10.941Z,,,,,,,,,,,,,,,,54,,,,,,,,,,,,,,1304,,response,,,,100,,,,,,,Space,keypress(Space),,,,,,,,"-- --- ---- --- ------ ----- ------- ---- -- --- ------- --<br>------- ---------- ------ -- 1727, -- ----- -- ---- ------<br>--- ----- --- --- ------ -------- ----- --- ------ ----- --<br>----- ----- ---------- --- --- ------ ------ ---- -- ------<br>------- --- ------ ----- --- ---- ------- -- ---- --- --<br>------- ------",175098,175016,173712,173702,173728,175129,,16,"1727,"
screen,html.Screen,1_1_1_1_17,2021-04-24T21:41:11.723Z,,,,,,,,,,,,,,,,54,,,,,,,,,,,,,,686,,response,,,,100,,,,,,,Space,keypress(Space),,,,,,,,-- --- ---- --- ------ ----- ------- ---- -- --- ------- --<br>------- ---------- ------ -- ----- in ----- -- ---- ------<br>--- ----- --- --- ------ -------- ----- --- ------ ----- --<br>----- ----- ---------- --- --- ------ ------ ---- -- ------<br>------- --- ------ ----- --- ---- ------- -- ---- --- --<br>------- ------,175880,175798,175112,175098,175129,175914,,17,in
screen,html.Screen,1_1_1_1_18,2021-04-24T21:41:12.176Z,,,,,,,,,,,,,,,,54,,,,,,,,,,,,,,353,,response,,,,100,,,,,,,Space,keypress(Space),,,,,,,,-- --- ---- --- ------ ----- ------- ---- -- --- ------- --<br>------- ---------- ------ -- ----- -- order -- ---- ------<br>--- ----- --- --- ------ -------- ----- --- ------ ----- --<br>----- ----- ---------- --- --- ------ ------ ---- -- ------<br>------- --- ------ ----- --- ---- ------- -- ---- --- --<br>------- ------,176333,176251,175898,175880,175914,176364,,18,order
screen,html.Screen,1_1_1_1_19,2021-04-24T21:41:12.605Z,,,,,,,,,,,,,,,,54,,,,,,,,,,,,,,332,,response,,,,100,,,,,,,Space,keypress(Space),,,,,,,,-- --- ---- --- ------ ----- ------- ---- -- --- ------- --<br>------- ---------- ------ -- ----- -- ----- to ---- ------<br>--- ----- --- --- ------ -------- ----- --- ------ ----- --<br>----- ----- ---------- --- --- ------ ------ ---- -- ------<br>------- --- ------ ----- --- ---- ------- -- ---- --- --<br>------- ------,176762,176680,176348,176333,176364,176798,,19,to
screen,html.Screen,1_1_1_1_20,2021-04-24T21:41:13.057Z,,,,,,,,,,,,,,,,54,,,,,,,,,,,,,,351,,response,,,,100,,,,,,,Space,keypress(Space),,,,,,,,-- --- ---- --- ------ ----- ------- ---- -- --- ------- --<br>------- ---------- ------ -- ----- -- ----- -- save ------<br>--- ----- --- --- ------ -------- ----- --- ------ ----- --<br>----- ----- ---------- --- --- ------ ------ ---- -- ------<br>------- --- ------ ----- --- ---- ------- -- ---- --- --<br>------- ------,177214,177132,176781,176762,176798,177247,,20,save
screen,html.Screen,1_1_1_1_21,2021-04-24T21:41:13.467Z,,,,,,,,,,,,,,,,54,,,,,,,,,,,,,,310,,response,,,,100,,,,,,,Space,keypress(Space),,,,,,,,"-- --- ---- --- ------ ----- ------- ---- -- --- ------- --<br>------- ---------- ------ -- ----- -- ----- -- ---- money,<br>--- ----- --- --- ------ -------- ----- --- ------ ----- --<br>----- ----- ---------- --- --- ------ ------ ---- -- ------<br>------- --- ------ ----- --- ---- ------- -- ---- --- --<br>------- ------",177624,177541,177231,177214,177247,177664,,21,"money,"
screen,html.Screen,1_1_1_1_22,2021-04-24T21:41:13.968Z,,,,,,,,,,,,,,,,54,,,,,,,,,,,,,,395,,response,,,,100,,,,,,,Space,keypress(Space),,,,,,,,-- --- ---- --- ------ ----- ------- ---- -- --- ------- --<br>------- ---------- ------ -- ----- -- ----- -- ---- ------<br>the ----- --- --- ------ -------- ----- --- ------ ----- --<br>----- ----- ---------- --- --- ------ ------ ---- -- ------<br>------- --- ------ ----- --- ---- ------- -- ---- --- --<br>------- ------,178125,178043,177648,177624,177664,178164,,22,the
screen,html.Screen,1_1_1_1_23,2021-04-24T21:41:14.402Z,,,,,,,,,,,,,,,,54,,,,,,,,,,,,,,329,,response,,,,100,,,,,,,Space,keypress(Space),,,,,,,,-- --- ---- --- ------ ----- ------- ---- -- --- ------- --<br>------- ---------- ------ -- ----- -- ----- -- ---- ------<br>--- state --- --- ------ -------- ----- --- ------ ----- --<br>----- ----- ---------- --- --- ------ ------ ---- -- ------<br>------- --- ------ ----- --- ---- ------- -- ---- --- --<br>------- ------,178559,178477,178148,178125,178164,178598,,23,state
screen,html.Screen,1_1_1_1_24,2021-04-24T21:41:14.803Z,,,,,,,,,,,,,,,,54,,,,,,,,,,,,,,298,,response,,,,100,,,,,,,Space,keypress(Space),,,,,,,,-- --- ---- --- ------ ----- ------- ---- -- --- ------- --<br>------- ---------- ------ -- ----- -- ----- -- ---- ------<br>--- ----- cut --- ------ -------- ----- --- ------ ----- --<br>----- ----- ---------- --- --- ------ ------ ---- -- ------<br>------- --- ------ ----- --- ---- ------- -- ---- --- --<br>------- ------,178960,178878,178580,178559,178598,178997,,24,cut
screen,html.Screen,1_1_1_1_25,2021-04-24T21:41:15.243Z,,,,,,,,,,,,,,,,54,,,,,,,,,,,,,,338,,response,,,,100,,,,,,,Space,keypress(Space),,,,,,,,-- --- ---- --- ------ ----- ------- ---- -- --- ------- --<br>------- ---------- ------ -- ----- -- ----- -- ---- ------<br>--- ----- --- the ------ -------- ----- --- ------ ----- --<br>----- ----- ---------- --- --- ------ ------ ---- -- ------<br>------- --- ------ ----- --- ---- ------- -- ---- --- --<br>------- ------,179400,179318,178980,178960,178997,179430,,25,the
screen,html.Screen,1_1_1_1_26,2021-04-24T21:41:15.666Z,,,,,,,,,,,,,,,,54,,,,,,,,,,,,,,326,,response,,,,100,,,,,,,Space,keypress(Space),,,,,,,,-- --- ---- --- ------ ----- ------- ---- -- --- ------- --<br>------- ---------- ------ -- ----- -- ----- -- ---- ------<br>--- ----- --- --- bonds' -------- ----- --- ------ ----- --<br>----- ----- ---------- --- --- ------ ------ ---- -- ------<br>------- --- ------ ----- --- ---- ------- -- ---- --- --<br>------- ------,179823,179741,179415,179400,179430,179864,,26,bonds'
screen,html.Screen,1_1_1_1_27,2021-04-24T21:41:16.090Z,,,,,,,,,,,,,,,,54,,,,,,,,,,,,,,317,,response,,,,100,,,,,,,Space,keypress(Space),,,,,,,,-- --- ---- --- ------ ----- ------- ---- -- --- ------- --<br>------- ---------- ------ -- ----- -- ----- -- ---- ------<br>--- ----- --- --- ------ interest ----- --- ------ ----- --<br>----- ----- ---------- --- --- ------ ------ ---- -- ------<br>------- --- ------ ----- --- ---- ------- -- ---- --- --<br>------- ------,180247,180165,179848,179823,179864,180281,,27,interest
screen,html.Screen,1_1_1_1_28,2021-04-24T21:41:16.605Z,,,,,,,,,,,,,,,,54,,,,,,,,,,,,,,416,,response,,,,100,,,,,,,Space,keypress(Space),,,,,,,,-- --- ---- --- ------ ----- ------- ---- -- --- ------- --<br>------- ---------- ------ -- ----- -- ----- -- ---- ------<br>--- ----- --- --- ------ -------- rate. --- ------ ----- --<br>----- ----- ---------- --- --- ------ ------ ---- -- ------<br>------- --- ------ ----- --- ---- ------- -- ---- --- --<br>------- ------,180762,180680,180264,180247,180281,180798,,28,rate.
screen,html.Screen,1_1_1_1_29,2021-04-24T21:41:17.238Z,,,,,,,,,,,,,,,,54,,,,,,,,,,,,,,534,,response,,,,100,,,,,,,Space,keypress(Space),,,,,,,,-- --- ---- --- ------ ----- ------- ---- -- --- ------- --<br>------- ---------- ------ -- ----- -- ----- -- ---- ------<br>--- ----- --- --- ------ -------- ----- The ------ ----- --<br>----- ----- ---------- --- --- ------ ------ ---- -- ------<br>------- --- ------ ----- --- ---- ------- -- ---- --- --<br>------- ------,181395,181314,180780,180762,180798,181434,,29,The
screen,html.Screen,1_1_1_1_30,2021-04-24T21:41:17.697Z,,,,,,,,,,,,,,,,54,,,,,,,,,,,,,,355,,response,,,,100,,,,,,,Space,keypress(Space),,,,,,,,-- --- ---- --- ------ ----- ------- ---- -- --- ------- --<br>------- ---------- ------ -- ----- -- ----- -- ---- ------<br>--- ----- --- --- ------ -------- ----- --- market ----- --<br>----- ----- ---------- --- --- ------ ------ ---- -- ------<br>------- --- ------ ----- --- ---- ------- -- ---- --- --<br>------- ------,181854,181772,181417,181395,181434,181883,,30,market
screen,html.Screen,1_1_1_1_31,2021-04-24T21:41:18.162Z,,,,,,,,,,,,,,,,54,,,,,,,,,,,,,,370,,response,,,,100,,,,,,,Space,keypress(Space),,,,,,,,-- --- ---- --- ------ ----- ------- ---- -- --- ------- --<br>------- ---------- ------ -- ----- -- ----- -- ---- ------<br>--- ----- --- --- ------ -------- ----- --- ------ value --<br>----- ----- ---------- --- --- ------ ------ ---- -- ------<br>------- --- ------ ----- --- ---- ------- -- ---- --- --<br>------- ------,182319.00000000003,182237,181867,181854,181883,182351,,31,value
screen,html.Screen,1_1_1_1_32,2021-04-24T21:41:18.631Z,,,,,,,,,,,,,,,,54,,,,,,,,,,,,,,371,,response,,,,100,,,,,,,Space,keypress(Space),,,,,,,,-- --- ---- --- ------ ----- ------- ---- -- --- ------- --<br>------- ---------- ------ -- ----- -- ----- -- ---- ------<br>--- ----- --- --- ------ -------- ----- --- ------ ----- of<br>----- ----- ---------- --- --- ------ ------ ---- -- ------<br>------- --- ------ ----- --- ---- ------- -- ---- --- --<br>------- ------,182787,182705,182334,182319.00000000003,182351,182816,,32,of
screen,html.Screen,1_1_1_1_33,2021-04-24T21:41:19.110Z,,,,,,,,,,,,,,,,54,,,,,,,,,,,,,,385,,response,,,,100,,,,,,,Space,keypress(Space),,,,,,,,-- --- ---- --- ------ ----- ------- ---- -- --- ------- --<br>------- ---------- ------ -- ----- -- ----- -- ---- ------<br>--- ----- --- --- ------ -------- ----- --- ------ ----- --<br>these ----- ---------- --- --- ------ ------ ---- -- ------<br>------- --- ------ ----- --- ---- ------- -- ---- --- --<br>------- ------,183267,183185,182800,182788,182816,183300,,33,these
screen,html.Screen,1_1_1_1_34,2021-04-24T21:41:19.861Z,,,,,,,,,,,,,,,,54,,,,,,,,,,,,,,652,,response,,,,100,,,,,,,Space,keypress(Space),,,,,,,,-- --- ---- --- ------ ----- ------- ---- -- --- ------- --<br>------- ---------- ------ -- ----- -- ----- -- ---- ------<br>--- ----- --- --- ------ -------- ----- --- ------ ----- --<br>----- bonds ---------- --- --- ------ ------ ---- -- ------<br>------- --- ------ ----- --- ---- ------- -- ---- --- --<br>------- ------,184018,183935,183283,183267,183300,184049,,34,bonds
screen,html.Screen,1_1_1_1_35,2021-04-24T21:41:20.298Z,,,,,,,,,,,,,,,,54,,,,,,,,,,,,,,339,,response,,,,100,,,,,,,Space,keypress(Space),,,,,,,,"-- --- ---- --- ------ ----- ------- ---- -- --- ------- --<br>------- ---------- ------ -- ----- -- ----- -- ---- ------<br>--- ----- --- --- ------ -------- ----- --- ------ ----- --<br>----- ----- plummeted, --- --- ------ ------ ---- -- ------<br>------- --- ------ ----- --- ---- ------- -- ---- --- --<br>------- ------",184455,184372,184033,184018,184049,184484,,35,"plummeted,"
screen,html.Screen,1_1_1_1_36,2021-04-24T21:41:20.831Z,,,,,,,,,,,,,,,,54,,,,,,,,,,,,,,438,,response,,,,100,,,,,,,Space,keypress(Space),,,,,,,,-- --- ---- --- ------ ----- ------- ---- -- --- ------- --<br>------- ---------- ------ -- ----- -- ----- -- ---- ------<br>--- ----- --- --- ------ -------- ----- --- ------ ----- --<br>----- ----- ---------- and --- ------ ------ ---- -- ------<br>------- --- ------ ----- --- ---- ------- -- ---- --- --<br>------- ------,184988,184905,184467,184455,184484,185017,,36,and
screen,html.Screen,1_1_1_1_37,2021-04-24T21:41:21.287Z,,,,,,,,,,,,,,,,54,,,,,,,,,,,,,,361,,response,,,,100,,,,,,,Space,keypress(Space),,,,,,,,-- --- ---- --- ------ ----- ------- ---- -- --- ------- --<br>------- ---------- ------ -- ----- -- ----- -- ---- ------<br>--- ----- --- --- ------ -------- ----- --- ------ ----- --<br>----- ----- ---------- --- the ------ ------ ---- -- ------<br>------- --- ------ ----- --- ---- ------- -- ---- --- --<br>------- ------,185443,185361,185000,184988,185017,185484,,37,the
screen,html.Screen,1_1_1_1_38,2021-04-24T21:41:21.731Z,,,,,,,,,,,,,,,,54,,,,,,,,,,,,,,339,,response,,,,100,,,,,,,Space,keypress(Space),,,,,,,,-- --- ---- --- ------ ----- ------- ---- -- --- ------- --<br>------- ---------- ------ -- ----- -- ----- -- ---- ------<br>--- ----- --- --- ------ -------- ----- --- ------ ----- --<br>----- ----- ---------- --- --- market ------ ---- -- ------<br>------- --- ------ ----- --- ---- ------- -- ---- --- --<br>------- ------,185888,185806,185467,185443,185484,185919,,38,market
screen,html.Screen,1_1_1_1_39,2021-04-24T21:41:22.182Z,,,,,,,,,,,,,,,,54,,,,,,,,,,,,,,354,,response,,,,100,,,,,,,Space,keypress(Space),,,,,,,,-- --- ---- --- ------ ----- ------- ---- -- --- ------- --<br>------- ---------- ------ -- ----- -- ----- -- ---- ------<br>--- ----- --- --- ------ -------- ----- --- ------ ----- --<br>----- ----- ---------- --- --- ------ became ---- -- ------<br>------- --- ------ ----- --- ---- ------- -- ---- --- --<br>------- ------,186339,186256,185902,185888,185919,186368,,39,became
screen,html.Screen,1_1_1_1_40,2021-04-24T21:41:22.622Z,,,,,,,,,,,,,,,,54,,,,,,,,,,,,,,344,,response,,,,100,,,,,,,Space,keypress(Space),,,,,,,,-- --- ---- --- ------ ----- ------- ---- -- --- ------- --<br>------- ---------- ------ -- ----- -- ----- -- ---- ------<br>--- ----- --- --- ------ -------- ----- --- ------ ----- --<br>----- ----- ---------- --- --- ------ ------ wary -- ------<br>------- --- ------ ----- --- ---- ------- -- ---- --- --<br>------- ------,186778,186696,186352,186339,186368,186819,,40,wary
screen,html.Screen,1_1_1_1_41,2021-04-24T21:41:23.062Z,,,,,,,,,,,,,,,,54,,,,,,,,,,,,,,334,,response,,,,100,,,,,,,Space,keypress(Space),,,,,,,,-- --- ---- --- ------ ----- ------- ---- -- --- ------- --<br>------- ---------- ------ -- ----- -- ----- -- ---- ------<br>--- ----- --- --- ------ -------- ----- --- ------ ----- --<br>----- ----- ---------- --- --- ------ ------ ---- of ------<br>------- --- ------ ----- --- ---- ------- -- ---- --- --<br>------- ------,187218.00000000003,187136,186802,186779,186819,187252,,41,of
screen,html.Screen,1_1_1_1_42,2021-04-24T21:41:23.548Z,,,,,,,,,,,,,,,,54,,,,,,,,,,,,,,386,,response,,,,100,,,,,,,Space,keypress(Space),,,,,,,,-- --- ---- --- ------ ----- ------- ---- -- --- ------- --<br>------- ---------- ------ -- ----- -- ----- -- ---- ------<br>--- ----- --- --- ------ -------- ----- --- ------ ----- --<br>----- ----- ---------- --- --- ------ ------ ---- -- French<br>------- --- ------ ----- --- ---- ------- -- ---- --- --<br>------- ------,187705,187622,187236,187218.00000000003,187252,187735,,42,French
screen,html.Screen,1_1_1_1_43,2021-04-24T21:41:23.999Z,,,,,,,,,,,,,,,,54,,,,,,,,,,,,,,354,,response,,,,100,,,,,,,Space,keypress(Space),,,,,,,,-- --- ---- --- ------ ----- ------- ---- -- --- ------- --<br>------- ---------- ------ -- ----- -- ----- -- ---- ------<br>--- ----- --- --- ------ -------- ----- --- ------ ----- --<br>----- ----- ---------- --- --- ------ ------ ---- -- ------<br>credit. --- ------ ----- --- ---- ------- -- ---- --- --<br>------- ------,188156,188073,187719,187705,187735,188185,,43,credit.
screen,html.Screen,1_1_1_1_44,2021-04-24T21:41:24.470Z,,,,,,,,,,,,,,,,54,,,,,,,,,,,,,,375,,response,,,,100,,,,,,,Space,keypress(Space),,,,,,,,-- --- ---- --- ------ ----- ------- ---- -- --- ------- --<br>------- ---------- ------ -- ----- -- ----- -- ---- ------<br>--- ----- --- --- ------ -------- ----- --- ------ ----- --<br>----- ----- ---------- --- --- ------ ------ ---- -- ------<br>------- The ------ ----- --- ---- ------- -- ---- --- --<br>------- ------,188626,188544,188169,188156,188185,188668,,44,The
screen,html.Screen,1_1_1_1_45,2021-04-24T21:41:24.874Z,,,,,,,,,,,,,,,,54,,,,,,,,,,,,,,296,,response,,,,100,,,,,,,Space,keypress(Space),,,,,,,,-- --- ---- --- ------ ----- ------- ---- -- --- ------- --<br>------- ---------- ------ -- ----- -- ----- -- ---- ------<br>--- ----- --- --- ------ -------- ----- --- ------ ----- --<br>----- ----- ---------- --- --- ------ ------ ---- -- ------<br>------- --- French ----- --- ---- ------- -- ---- --- --<br>------- ------,189031,188948,188652,188626,188668,189068,,45,French
screen,html.Screen,1_1_1_1_46,2021-04-24T21:41:25.342Z,,,,,,,,,,,,,,,,54,,,,,,,,,,,,,,364,,response,,,,100,,,,,,,Space,keypress(Space),,,,,,,,-- --- ---- --- ------ ----- ------- ---- -- --- ------- --<br>------- ---------- ------ -- ----- -- ----- -- ---- ------<br>--- ----- --- --- ------ -------- ----- --- ------ ----- --<br>----- ----- ---------- --- --- ------ ------ ---- -- ------<br>------- --- ------ state --- ---- ------- -- ---- --- --<br>------- ------,189498,189416,189052,189031,189068,189535,,46,state
screen,html.Screen,1_1_1_1_47,2021-04-24T21:41:25.776Z,,,,,,,,,,,,,,,,54,,,,,,,,,,,,,,331,,response,,,,100,,,,,,,Space,keypress(Space),,,,,,,,-- --- ---- --- ------ ----- ------- ---- -- --- ------- --<br>------- ---------- ------ -- ----- -- ----- -- ---- ------<br>--- ----- --- --- ------ -------- ----- --- ------ ----- --<br>----- ----- ---------- --- --- ------ ------ ---- -- ------<br>------- --- ------ ----- was ---- ------- -- ---- --- --<br>------- ------,189933,189850,189519,189498,189535,189969,,47,was
screen,html.Screen,1_1_1_1_48,2021-04-24T21:41:26.263Z,,,,,,,,,,,,,,,,54,,,,,,,,,,,,,,385.0000000000291,,response,,,,100,,,,,,,Space,keypress(Space),,,,,,,,-- --- ---- --- ------ ----- ------- ---- -- --- ------- --<br>------- ---------- ------ -- ----- -- ----- -- ---- ------<br>--- ----- --- --- ------ -------- ----- --- ------ ----- --<br>----- ----- ---------- --- --- ------ ------ ---- -- ------<br>------- --- ------ ----- --- left ------- -- ---- --- --<br>------- ------,190419,190337.00000000003,189952,189933,189969,190452,,48,left
screen,html.Screen,1_1_1_1_49,2021-04-24T21:41:26.762Z,,,,,,,,,,,,,,,,54,,,,,,,,,,,,,,401.0000000000291,,response,,,,100,,,,,,,Space,keypress(Space),,,,,,,,-- --- ---- --- ------ ----- ------- ---- -- --- ------- --<br>------- ---------- ------ -- ----- -- ----- -- ---- ------<br>--- ----- --- --- ------ -------- ----- --- ------ ----- --<br>----- ----- ---------- --- --- ------ ------ ---- -- ------<br>------- --- ------ ----- --- ---- without -- ---- --- --<br>------- ------,190919,190837.00000000003,190436,190420.00000000003,190452,190954,,49,without
screen,html.Screen,1_1_1_1_50,2021-04-24T21:41:27.236Z,,,,,,,,,,,,,,,,54,,,,,,,,,,,,,,373,,response,,,,100,,,,,,,Space,keypress(Space),,,,,,,,-- --- ---- --- ------ ----- ------- ---- -- --- ------- --<br>------- ---------- ------ -- ----- -- ----- -- ---- ------<br>--- ----- --- --- ------ -------- ----- --- ------ ----- --<br>----- ----- ---------- --- --- ------ ------ ---- -- ------<br>------- --- ------ ----- --- ---- ------- an ---- --- --<br>------- ------,191392,191310,190937,190919,190954,191420,,50,an
screen,html.Screen,1_1_1_1_51,2021-04-24T21:41:27.728Z,,,,,,,,,,,,,,,,54,,,,,,,,,,,,,,398,,response,,,,100,,,,,,,Space,keypress(Space),,,,,,,,-- --- ---- --- ------ ----- ------- ---- -- --- ------- --<br>------- ---------- ------ -- ----- -- ----- -- ---- ------<br>--- ----- --- --- ------ -------- ----- --- ------ ----- --<br>----- ----- ---------- --- --- ------ ------ ---- -- ------<br>------- --- ------ ----- --- ---- ------- -- easy --- --<br>------- ------,191884,191802,191404,191392,191420,191921,,51,easy
screen,html.Screen,1_1_1_1_52,2021-04-24T21:41:28.184Z,,,,,,,,,,,,,,,,54,,,,,,,,,,,,,,354,,response,,,,100,,,,,,,Space,keypress(Space),,,,,,,,-- --- ---- --- ------ ----- ------- ---- -- --- ------- --<br>------- ---------- ------ -- ----- -- ----- -- ---- ------<br>--- ----- --- --- ------ -------- ----- --- ------ ----- --<br>----- ----- ---------- --- --- ------ ------ ---- -- ------<br>------- --- ------ ----- --- ---- ------- -- ---- way --<br>------- ------,192340,192258,191904,191884,191921,192371,,52,way
screen,html.Screen,1_1_1_1_53,2021-04-24T21:41:28.687Z,,,,,,,,,,,,,,,,54,,,,,,,,,,,,,,408,,response,,,,100,,,,,,,Space,keypress(Space),,,,,,,,-- --- ---- --- ------ ----- ------- ---- -- --- ------- --<br>------- ---------- ------ -- ----- -- ----- -- ---- ------<br>--- ----- --- --- ------ -------- ----- --- ------ ----- --<br>----- ----- ---------- --- --- ------ ------ ---- -- ------<br>------- --- ------ ----- --- ---- ------- -- ---- --- of<br>------- ------,192844,192761,192353,192340,192371,192870,,53,of
screen,html.Screen,1_1_1_1_54,2021-04-24T21:41:29.503Z,,,,,,,,,,,,,,,,54,,,,,,,,,,,,,,723,,response,,,,100,,,,,,,Space,keypress(Space),,,,,,,,-- --- ---- --- ------ ----- ------- ---- -- --- ------- --<br>------- ---------- ------ -- ----- -- ----- -- ---- ------<br>--- ----- --- --- ------ -------- ----- --- ------ ----- --<br>----- ----- ---------- --- --- ------ ------ ---- -- ------<br>------- --- ------ ----- --- ---- ------- -- ---- --- --<br>raising ------,193659,193577,192854,192844,192870,193687,,54,raising
screen,html.Screen,1_1_1_1_55,2021-04-24T21:41:29.960Z,,,,,,,,,,,,,,,,54,,,,,,,,,,,,,,363,,response,,,,100,,,,,,,Space,keypress(Space),,,,,,,,-- --- ---- --- ------ ----- ------- ---- -- --- ------- --<br>------- ---------- ------ -- ----- -- ----- -- ---- ------<br>--- ----- --- --- ------ -------- ----- --- ------ ----- --<br>----- ----- ---------- --- --- ------ ------ ---- -- ------<br>------- --- ------ ----- --- ---- ------- -- ---- --- --<br>------- money.,194116,194034,193671,193659,193687,194153,,55,money.
Item 100,flow.Loop,1_1_1_1,2021-04-24T21:41:29.960Z,,,,,,,,,,,,,,,,,,,,,,,,,,,,,,28075,,completion,,,,,A,,,,,,,,,,,silence,,,,,194117,194034,165944,165944.00000000003,165959,194153,,,
Question 1,html.Screen,1_1_1_2,2021-04-24T21:41:36.828Z,,,,,,,,,,,,,,,,,,,,,,,,,,,false,TRUE,,6765,,response,,,,100,A,,,,,,FALSE,click #choice-2,,,,silence,,,,,200985,200903,194138,194117,194153,201017,,,
Question 2,html.Screen,1_1_1_3,2021-04-24T21:41:39.701Z,,,,,,,,,,,,,,,,,,,,,,,,,,,true,FALSE,,2775,,response,,,,100,A,,,,,,FALSE,click #choice-2,,,,silence,,,,,203857,203776,201001,200985,201017,203883,,,
Item 100,flow.Sequence,1_1_1,2021-04-24T21:41:39.701Z,,,,,,,,,,,,,,,,,,,,,,,,,,,,,,47820,,completion,,,,,,,,,,,,,,,,,,,,,203858,203776,155943,155939,155956,203883,,,
End of Practice,html.Page,1_1_2,2021-04-24T21:41:43.866Z,,,,,,,,,,,,,,,,,,,,,,,,,,,,,,4139,,form submission,,,,,,,,,,,,,,,,,,,,,208023,208022,203866,203858,203883,208035,,,
Practice,flow.Sequence,1_1,2021-04-24T21:41:43.867Z,,,,,,,,,,,,,,,,,,,,,,,,,,,,,,105908,,completion,,,,,,,,,,,,,,,,,,,,,208023,208022,102101,102095,102114,208035,,,
Trap_instruction,html.Page,1_2_0,2021-04-24T21:41:50.254Z,,,,,,,,,,,,,,,,,,,,,,,,,,,,,,6375,,form submission,,,,,,,,,,,,,,,,,,,,,214410,214410,208026,208023,208035,214444,,,
trap_trial,html.Screen,1_2_1,2021-04-24T21:41:53.708Z,,,,,,,,,,,,,,,,,,,,,,,,,,,true,1,,3350,,response,,,,,,,,,,,1,click #choice-1,,,,,,,,,217864,217782,214432,214410,214444,217905,,,
end of trap trial,html.Page,1_2_2,2021-04-24T21:41:56.083Z,,,,,,,,,,,,,,,,,,,,,,,,,,,,,,2333,,form submission,,,,,,,,,,,,,,,,,,,,,220238,220238,217895,217864,217905,220256,,,
Trap 1,flow.Sequence,1_2,2021-04-24T21:41:56.083Z,,,,,,,,,,,,,,,,,,,,,,,,,,,,,,12203,,completion,,,,,,,,,,,,,,,,,,,,,220239,220238,208026,208023,208035,220256,,,
Standby,html.Page,1_3_0,2021-04-24T21:42:04.092Z,,,,,,,,,,,,,,,,,,,,,,,,,,,,,,8007,,timeout,,,,,,,,,,,,,,,,,,,,,228247,228247,220241,220239,220256,228263,,,
Holding screen,html.Screen,1_3_1_0_0,2021-04-24T21:42:11.093Z,,,,,,,,,,,,,,,,,,,,,,,,,,,,,,7002,,timeout,,,,,,,,,,,,,,,,,,,,,235248.00000000003,235248,228247,228247,228263,235265,,,
screen,html.Screen,1_3_1_0_1_0,2021-04-24T21:42:13.114Z,,,,,,,,,,,,,,,,15,,,,,,,,,,,,,,1937,,response,,,,7,A,,,,,,Space,keypress(Space),,,,silence,,,,Greg --------- ---------- - --- ------- -- --- ------------<br>----- -- -------- ------- ---- ------ - -------- ---- -----<br>--- ------- ---- -- --- -------- --- - ----- ------ ---- --<br>-------- --- -------- -------- --- -------- ---- -- ----- -<br>-------- ---- --- ---------- --------- -- ------- ------ -<br>--------- ----- -----,237269,237185,235248,235249,235265,237300,,0,Greg
screen,html.Screen,1_3_1_0_1_1,2021-04-24T21:42:14.084Z,,,,,,,,,,,,,,,,15,,,,,,,,,,,,,,871,,response,,,,7,A,,,,,,Space,keypress(Space),,,,silence,,,,"---- Anderson, ---------- - --- ------- -- --- ------------<br>----- -- -------- ------- ---- ------ - -------- ---- -----<br>--- ------- ---- -- --- -------- --- - ----- ------ ---- --<br>-------- --- -------- -------- --- -------- ---- -- ----- -<br>-------- ---- --- ---------- --------- -- ------- ------ -<br>--------- ----- -----",238239,238155,237284,237269,237300,238267,,1,"Anderson,"
screen,html.Screen,1_3_1_0_1_2,2021-04-24T21:42:14.762Z,,,,,,,,,,,,,,,,15,,,,,,,,,,,,,,583,,response,,,,7,A,,,,,,Space,keypress(Space),,,,silence,,,,---- --------- considered - --- ------- -- --- ------------<br>----- -- -------- ------- ---- ------ - -------- ---- -----<br>--- ------- ---- -- --- -------- --- - ----- ------ ---- --<br>-------- --- -------- -------- --- -------- ---- -- ----- -<br>-------- ---- --- ---------- --------- -- ------- ------ -<br>--------- ----- -----,238917,238834,238251,238239,238267,238951,,2,considered
screen,html.Screen,1_3_1_0_1_3,2021-04-24T21:42:15.560Z,,,,,,,,,,,,,,,,15,,,,,,,,,,,,,,696,,response,,,,7,A,,,,,,Space,keypress(Space),,,,silence,,,,---- --------- ---------- a --- ------- -- --- ------------<br>----- -- -------- ------- ---- ------ - -------- ---- -----<br>--- ------- ---- -- --- -------- --- - ----- ------ ---- --<br>-------- --- -------- -------- --- -------- ---- -- ----- -<br>-------- ---- --- ---------- --------- -- ------- ------ -<br>--------- ----- -----,239715,239630,238934,238918,238951,239751,,3,a
screen,html.Screen,1_3_1_0_1_4,2021-04-24T21:42:16.072Z,,,,,,,,,,,,,,,,15,,,,,,,,,,,,,,410,,response,,,,7,A,,,,,,Space,keypress(Space),,,,silence,,,,---- --------- ---------- - key ------- -- --- ------------<br>----- -- -------- ------- ---- ------ - -------- ---- -----<br>--- ------- ---- -- --- -------- --- - ----- ------ ---- --<br>-------- --- -------- -------- --- -------- ---- -- ----- -<br>-------- ---- --- ---------- --------- -- ------- ------ -<br>--------- ----- -----,240228,240144,239734,239715,239751,240267,,4,key
screen,html.Screen,1_3_1_0_1_5,2021-04-24T21:42:16.754Z,,,,,,,,,,,,,,,,15,,,,,,,,,,,,,,575,,response,,,,7,A,,,,,,Space,keypress(Space),,,,silence,,,,---- --------- ---------- - --- witness -- --- ------------<br>----- -- -------- ------- ---- ------ - -------- ---- -----<br>--- ------- ---- -- --- -------- --- - ----- ------ ---- --<br>-------- --- -------- -------- --- -------- ---- -- ----- -<br>-------- ---- --- ---------- --------- -- ------- ------ -<br>--------- ----- -----,240910,240826,240251,240228,240267,240951,,5,witness
screen,html.Screen,1_3_1_0_1_6,2021-04-24T21:42:17.370Z,,,,,,,,,,,,,,,,15,,,,,,,,,,,,,,508,,response,,,,7,A,,,,,,Space,keypress(Space),,,,silence,,,,---- --------- ---------- - --- ------- by --- ------------<br>----- -- -------- ------- ---- ------ - -------- ---- -----<br>--- ------- ---- -- --- -------- --- - ----- ------ ---- --<br>-------- --- -------- -------- --- -------- ---- -- ----- -<br>-------- ---- --- ---------- --------- -- ------- ------ -<br>--------- ----- -----,241525,241442,240934,240910,240951,241553,,6,by
screen,html.Screen,1_3_1_0_1_7,2021-04-24T21:42:17.768Z,,,,,,,,,,,,,,,,15,,,,,,,,,,,,,,302,,response,,,,7,A,,,,,,Space,keypress(Space),,,,silence,,,,---- --------- ---------- - --- ------- -- the ------------<br>----- -- -------- ------- ---- ------ - -------- ---- -----<br>--- ------- ---- -- --- -------- --- - ----- ------ ---- --<br>-------- --- -------- -------- --- -------- ---- -- ----- -<br>-------- ---- --- ---------- --------- -- ------- ------ -<br>--------- ----- -----,241923,241838,241536,241525,241553,241953,,7,the
screen,html.Screen,1_3_1_0_1_8,2021-04-24T21:42:18.242Z,,,,,,,,,,,,,,,,15,,,,,,,,,,,,,,379,,response,,,,7,A,,,,,,Space,keypress(Space),,,,silence,,,,"---- --------- ---------- - --- ------- -- --- prosecution,<br>----- -- -------- ------- ---- ------ - -------- ---- -----<br>--- ------- ---- -- --- -------- --- - ----- ------ ---- --<br>-------- --- -------- -------- --- -------- ---- -- ----- -<br>-------- ---- --- ---------- --------- -- ------- ------ -<br>--------- ----- -----",242398,242314,241935,241923,241953,242436,,8,"prosecution,"
screen,html.Screen,1_3_1_0_1_9,2021-04-24T21:42:18.721Z,,,,,,,,,,,,,,,,15,,,,,,,,,,,,,,372,,response,,,,7,A,,,,,,Space,keypress(Space),,,,silence,,,,---- --------- ---------- - --- ------- -- --- ------------<br>vowed -- -------- ------- ---- ------ - -------- ---- -----<br>--- ------- ---- -- --- -------- --- - ----- ------ ---- --<br>-------- --- -------- -------- --- -------- ---- -- ----- -<br>-------- ---- --- ---------- --------- -- ------- ------ -<br>--------- ----- -----,242876,242792,242420,242398,242436,242903,,9,vowed
screen,html.Screen,1_3_1_0_1_10,2021-04-24T21:42:19.156Z,,,,,,,,,,,,,,,,15,,,,,,,,,,,,,,339,,response,,,,7,A,,,,,,Space,keypress(Space),,,,silence,,,,---- --------- ---------- - --- ------- -- --- ------------<br>----- he -------- ------- ---- ------ - -------- ---- -----<br>--- ------- ---- -- --- -------- --- - ----- ------ ---- --<br>-------- --- -------- -------- --- -------- ---- -- ----- -<br>-------- ---- --- ---------- --------- -- ------- ------ -<br>--------- ----- -----,243311,243226,242887,242876,242903,243353,,10,he
screen,html.Screen,1_3_1_0_1_11,2021-04-24T21:42:19.567Z,,,,,,,,,,,,,,,,15,,,,,,,,,,,,,,303,,response,,,,7,A,,,,,,Space,keypress(Space),,,,silence,,,,---- --------- ---------- - --- ------- -- --- ------------<br>----- -- wouldn't ------- ---- ------ - -------- ---- -----<br>--- ------- ---- -- --- -------- --- - ----- ------ ---- --<br>-------- --- -------- -------- --- -------- ---- -- ----- -<br>-------- ---- --- ---------- --------- -- ------- ------ -<br>--------- ----- -----,243722,243639,243336,243311,243353,243753,,11,wouldn't
screen,html.Screen,1_3_1_0_1_12,2021-04-24T21:42:19.986Z,,,,,,,,,,,,,,,,15,,,,,,,,,,,,,,321,,response,,,,7,A,,,,,,Space,keypress(Space),,,,silence,,,,---- --------- ---------- - --- ------- -- --- ------------<br>----- -- -------- testify ---- ------ - -------- ---- -----<br>--- ------- ---- -- --- -------- --- - ----- ------ ---- --<br>-------- --- -------- -------- --- -------- ---- -- ----- -<br>-------- ---- --- ---------- --------- -- ------- ------ -<br>--------- ----- -----,244141,244058,243737,243723,243753,244169,,12,testify
screen,html.Screen,1_3_1_0_1_13,2021-04-24T21:42:20.370Z,,,,,,,,,,,,,,,,15,,,,,,,,,,,,,,288,,response,,,,7,A,,,,,,Space,keypress(Space),,,,silence,,,,---- --------- ---------- - --- ------- -- --- ------------<br>----- -- -------- ------- when ------ - -------- ---- -----<br>--- ------- ---- -- --- -------- --- - ----- ------ ---- --<br>-------- --- -------- -------- --- -------- ---- -- ----- -<br>-------- ---- --- ---------- --------- -- ------- ------ -<br>--------- ----- -----,244525,244441,244153,244141,244169,244553,,13,when
screen,html.Screen,1_3_1_0_1_14,2021-04-24T21:42:20.758Z,,,,,,,,,,,,,,,,15,,,,,,,,,,,,,,294,,response,,,,7,A,,,,,,Space,keypress(Space),,,,silence,,,,---- --------- ---------- - --- ------- -- --- ------------<br>----- -- -------- ------- ---- served - -------- ---- -----<br>--- ------- ---- -- --- -------- --- - ----- ------ ---- --<br>-------- --- -------- -------- --- -------- ---- -- ----- -<br>-------- ---- --- ---------- --------- -- ------- ------ -<br>--------- ----- -----,244913,244830,244536,244525,244553,244953,,14,served
screen,html.Screen,1_3_1_0_1_15,2021-04-24T21:42:21.142Z,,,,,,,,,,,,,,,,15,,,,,,,,,,,,,,278,,response,,,,7,A,,,,,,Space,keypress(Space),,,,silence,,,,---- --------- ---------- - --- ------- -- --- ------------<br>----- -- -------- ------- ---- ------ a -------- ---- -----<br>--- ------- ---- -- --- -------- --- - ----- ------ ---- --<br>-------- --- -------- -------- --- -------- ---- -- ----- -<br>-------- ---- --- ---------- --------- -- ------- ------ -<br>--------- ----- -----,245297,245214,244936,244913,244953,245319,,15,a
screen,html.Screen,1_3_1_0_1_16,2021-04-24T21:42:21.517Z,,,,,,,,,,,,,,,,15,,,,,,,,,,,,,,285,,response,,,,7,A,,,,,,Space,keypress(Space),,,,silence,,,,---- --------- ---------- - --- ------- -- --- ------------<br>----- -- -------- ------- ---- ------ - subpoena ---- -----<br>--- ------- ---- -- --- -------- --- - ----- ------ ---- --<br>-------- --- -------- -------- --- -------- ---- -- ----- -<br>-------- ---- --- ---------- --------- -- ------- ------ -<br>--------- ----- -----,245672,245588,245303,245297,245319,245703,,16,subpoena
screen,html.Screen,1_3_1_0_1_17,2021-04-24T21:42:22.058Z,,,,,,,,,,,,,,,,15,,,,,,,,,,,,,,443.0000000000291,,response,,,,7,A,,,,,,Space,keypress(Space),,,,silence,,,,---- --------- ---------- - --- ------- -- --- ------------<br>----- -- -------- ------- ---- ------ - -------- last -----<br>--- ------- ---- -- --- -------- --- - ----- ------ ---- --<br>-------- --- -------- -------- --- -------- ---- -- ----- -<br>-------- ---- --- ---------- --------- -- ------- ------ -<br>--------- ----- -----,246213,246129.00000000003,245686,245672,245703,246255,,17,last
screen,html.Screen,1_3_1_0_1_18,2021-04-24T21:42:22.601Z,,,,,,,,,,,,,,,,15,,,,,,,,,,,,,,434,,response,,,,7,A,,,,,,Space,keypress(Space),,,,silence,,,,---- --------- ---------- - --- ------- -- --- ------------<br>----- -- -------- ------- ---- ------ - -------- ---- week.<br>--- ------- ---- -- --- -------- --- - ----- ------ ---- --<br>-------- --- -------- -------- --- -------- ---- -- ----- -<br>-------- ---- --- ---------- --------- -- ------- ------ -<br>--------- ----- -----,246756,246672,246238,246213,246255,246788,,18,week.
screen,html.Screen,1_3_1_0_1_19,2021-04-24T21:42:23.046Z,,,,,,,,,,,,,,,,15,,,,,,,,,,,,,,344,,response,,,,7,A,,,,,,Space,keypress(Space),,,,silence,,,,---- --------- ---------- - --- ------- -- --- ------------<br>----- -- -------- ------- ---- ------ - -------- ---- -----<br>His ------- ---- -- --- -------- --- - ----- ------ ---- --<br>-------- --- -------- -------- --- -------- ---- -- ----- -<br>-------- ---- --- ---------- --------- -- ------- ------ -<br>--------- ----- -----,247201,247116,246772,246756,246788,247238,,19,His
screen,html.Screen,1_3_1_0_1_20,2021-04-24T21:42:23.442Z,,,,,,,,,,,,,,,,15,,,,,,,,,,,,,,290,,response,,,,7,A,,,,,,Space,keypress(Space),,,,silence,,,,---- --------- ---------- - --- ------- -- --- ------------<br>----- -- -------- ------- ---- ------ - -------- ---- -----<br>--- lawyers ---- -- --- -------- --- - ----- ------ ---- --<br>-------- --- -------- -------- --- -------- ---- -- ----- -<br>-------- ---- --- ---------- --------- -- ------- ------ -<br>--------- ----- -----,247597,247512,247222,247201,247238,247638,,20,lawyers
screen,html.Screen,1_3_1_0_1_21,2021-04-24T21:42:23.812Z,,,,,,,,,,,,,,,,15,,,,,,,,,,,,,,261,,response,,,,7,A,,,,,,Space,keypress(Space),,,,silence,,,,---- --------- ---------- - --- ------- -- --- ------------<br>----- -- -------- ------- ---- ------ - -------- ---- -----<br>--- ------- said -- --- -------- --- - ----- ------ ---- --<br>-------- --- -------- -------- --- -------- ---- -- ----- -<br>-------- ---- --- ---------- --------- -- ------- ------ -<br>--------- ----- -----,247967,247883,247622,247597,247638,247988,,21,said
screen,html.Screen,1_3_1_0_1_22,2021-04-24T21:42:24.246Z,,,,,,,,,,,,,,,,15,,,,,,,,,,,,,,345,,response,,,,7,A,,,,,,Space,keypress(Space),,,,silence,,,,---- --------- ---------- - --- ------- -- --- ------------<br>----- -- -------- ------- ---- ------ - -------- ---- -----<br>--- ------- ---- he --- -------- --- - ----- ------ ---- --<br>-------- --- -------- -------- --- -------- ---- -- ----- -<br>-------- ---- --- ---------- --------- -- ------- ------ -<br>--------- ----- -----,248401,248317,247972,247967,247988,248438,,22,he
screen,html.Screen,1_3_1_0_1_23,2021-04-24T21:42:24.642Z,,,,,,,,,,,,,,,,15,,,,,,,,,,,,,,290.0000000000291,,response,,,,7,A,,,,,,Space,keypress(Space),,,,silence,,,,---- --------- ---------- - --- ------- -- --- ------------<br>----- -- -------- ------- ---- ------ - -------- ---- -----<br>--- ------- ---- -- was -------- --- - ----- ------ ---- --<br>-------- --- -------- -------- --- -------- ---- -- ----- -<br>-------- ---- --- ---------- --------- -- ------- ------ -<br>--------- ----- -----,248797,248712.00000000003,248422,248401,248438,248838,,23,was
screen,html.Screen,1_3_1_0_1_24,2021-04-24T21:42:25.090Z,,,,,,,,,,,,,,,,15,,,,,,,,,,,,,,338,,response,,,,7,A,,,,,,Space,keypress(Space),,,,silence,,,,---- --------- ---------- - --- ------- -- --- ------------<br>----- -- -------- ------- ---- ------ - -------- ---- -----<br>--- ------- ---- -- --- prepared --- - ----- ------ ---- --<br>-------- --- -------- -------- --- -------- ---- -- ----- -<br>-------- ---- --- ---------- --------- -- ------- ------ -<br>--------- ----- -----,249245,249160,248822,248797,248838,249271,,24,prepared
screen,html.Screen,1_3_1_0_1_25,2021-04-24T21:42:25.435Z,,,,,,,,,,,,,,,,15,,,,,,,,,,,,,,251,,response,,,,7,A,,,,,,Space,keypress(Space),,,,silence,,,,---- --------- ---------- - --- ------- -- --- ------------<br>----- -- -------- ------- ---- ------ - -------- ---- -----<br>--- ------- ---- -- --- -------- for - ----- ------ ---- --<br>-------- --- -------- -------- --- -------- ---- -- ----- -<br>-------- ---- --- ---------- --------- -- ------- ------ -<br>--------- ----- -----,249590,249505,249254,249245,249271,249621,,25,for
screen,html.Screen,1_3_1_0_1_26,2021-04-24T21:42:25.846Z,,,,,,,,,,,,,,,,15,,,,,,,,,,,,,,312,,response,,,,7,A,,,,,,Space,keypress(Space),,,,silence,,,,---- --------- ---------- - --- ------- -- --- ------------<br>----- -- -------- ------- ---- ------ - -------- ---- -----<br>--- ------- ---- -- --- -------- --- a ----- ------ ---- --<br>-------- --- -------- -------- --- -------- ---- -- ----- -<br>-------- ---- --- ---------- --------- -- ------- ------ -<br>--------- ----- -----,250001,249917,249605,249590,249621,250038,,26,a
screen,html.Screen,1_3_1_0_1_27,2021-04-24T21:42:26.227Z,,,,,,,,,,,,,,,,15,,,,,,,,,,,,,,276,,response,,,,7,A,,,,,,Space,keypress(Space),,,,silence,,,,---- --------- ---------- - --- ------- -- --- ------------<br>----- -- -------- ------- ---- ------ - -------- ---- -----<br>--- ------- ---- -- --- -------- --- - third ------ ---- --<br>-------- --- -------- -------- --- -------- ---- -- ----- -<br>-------- ---- --- ---------- --------- -- ------- ------ -<br>--------- ----- -----,250382,250298,250022,250001,250038,250404,,27,third
screen,html.Screen,1_3_1_0_1_28,2021-04-24T21:42:26.648Z,,,,,,,,,,,,,,,,15,,,,,,,,,,,,,,331,,response,,,,7,A,,,,,,Space,keypress(Space),,,,silence,,,,---- --------- ---------- - --- ------- -- --- ------------<br>----- -- -------- ------- ---- ------ - -------- ---- -----<br>--- ------- ---- -- --- -------- --- - ----- prison ---- --<br>-------- --- -------- -------- --- -------- ---- -- ----- -<br>-------- ---- --- ---------- --------- -- ------- ------ -<br>--------- ----- -----,250803,250719,250388,250382,250404,250838,,28,prison
screen,html.Screen,1_3_1_0_1_29,2021-04-24T21:42:27.044Z,,,,,,,,,,,,,,,,15,,,,,,,,,,,,,,293,,response,,,,7,A,,,,,,Space,keypress(Space),,,,silence,,,,---- --------- ---------- - --- ------- -- --- ------------<br>----- -- -------- ------- ---- ------ - -------- ---- -----<br>--- ------- ---- -- --- -------- --- - ----- ------ stay --<br>-------- --- -------- -------- --- -------- ---- -- ----- -<br>-------- ---- --- ---------- --------- -- ------- ------ -<br>--------- ----- -----,251199,251115,250822,250803,250838,251240,,29,stay
screen,html.Screen,1_3_1_0_1_30,2021-04-24T21:42:27.543Z,,,,,,,,,,,,,,,,15,,,,,,,,,,,,,,390,,response,,,,7,A,,,,,,Space,keypress(Space),,,,silence,,,,---- --------- ---------- - --- ------- -- --- ------------<br>----- -- -------- ------- ---- ------ - -------- ---- -----<br>--- ------- ---- -- --- -------- --- - ----- ------ ---- to<br>-------- --- -------- -------- --- -------- ---- -- ----- -<br>-------- ---- --- ---------- --------- -- ------- ------ -<br>--------- ----- -----,251698,251614,251224,251199,251240,251740,,30,to
screen,html.Screen,1_3_1_0_1_31,2021-04-24T21:42:28.049Z,,,,,,,,,,,,,,,,15,,,,,,,,,,,,,,396,,response,,,,7,A,,,,,,Space,keypress(Space),,,,silence,,,,---- --------- ---------- - --- ------- -- --- ------------<br>----- -- -------- ------- ---- ------ - -------- ---- -----<br>--- ------- ---- -- --- -------- --- - ----- ------ ---- --<br>maintain --- -------- -------- --- -------- ---- -- ----- -<br>-------- ---- --- ---------- --------- -- ------- ------ -<br>--------- ----- -----,252204,252120,251724,251698,251740,252240,,31,maintain
screen,html.Screen,1_3_1_0_1_32,2021-04-24T21:42:28.472Z,,,,,,,,,,,,,,,,15,,,,,,,,,,,,,,320,,response,,,,7,A,,,,,,Space,keypress(Space),,,,silence,,,,---- --------- ---------- - --- ------- -- --- ------------<br>----- -- -------- ------- ---- ------ - -------- ---- -----<br>--- ------- ---- -- --- -------- --- - ----- ------ ---- --<br>-------- his -------- -------- --- -------- ---- -- ----- -<br>-------- ---- --- ---------- --------- -- ------- ------ -<br>--------- ----- -----,252627,252543,252223,252204,252240,252657,,32,his
screen,html.Screen,1_3_1_0_1_33,2021-04-24T21:42:28.883Z,,,,,,,,,,,,,,,,15,,,,,,,,,,,,,,312,,response,,,,7,A,,,,,,Space,keypress(Space),,,,silence,,,,---- --------- ---------- - --- ------- -- --- ------------<br>----- -- -------- ------- ---- ------ - -------- ---- -----<br>--- ------- ---- -- --- -------- --- - ----- ------ ---- --<br>-------- --- silence. -------- --- -------- ---- -- ----- -<br>-------- ---- --- ---------- --------- -- ------- ------ -<br>--------- ----- -----,253038,252952,252640,252627,252657,253073,,33,silence.
screen,html.Screen,1_3_1_0_1_34,2021-04-24T21:42:29.287Z,,,,,,,,,,,,,,,,15,,,,,,,,,,,,,,301,,response,,,,7,A,,,,,,Space,keypress(Space),,,,silence,,,,---- --------- ---------- - --- ------- -- --- ------------<br>----- -- -------- ------- ---- ------ - -------- ---- -----<br>--- ------- ---- -- --- -------- --- - ----- ------ ---- --<br>-------- --- -------- Anderson --- -------- ---- -- ----- -<br>-------- ---- --- ---------- --------- -- ------- ------ -<br>--------- ----- -----,253442,253358,253057,253038,253073,253474,,34,Anderson
screen,html.Screen,1_3_1_0_1_35,2021-04-24T21:42:29.796Z,,,,,,,,,,,,,,,,15,,,,,,,,,,,,,,410.0000000000291,,response,,,,7,A,,,,,,Space,keypress(Space),,,,silence,,,,---- --------- ---------- - --- ------- -- --- ------------<br>----- -- -------- ------- ---- ------ - -------- ---- -----<br>--- ------- ---- -- --- -------- --- - ----- ------ ---- --<br>-------- --- -------- -------- was -------- ---- -- ----- -<br>-------- ---- --- ---------- --------- -- ------- ------ -<br>--------- ----- -----,253951,253867.00000000003,253457,253442,253474,253990,,35,was
screen,html.Screen,1_3_1_0_1_36,2021-04-24T21:42:30.259Z,,,,,,,,,,,,,,,,15,,,,,,,,,,,,,,356,,response,,,,7,A,,,,,,Space,keypress(Space),,,,silence,,,,---- --------- ---------- - --- ------- -- --- ------------<br>----- -- -------- ------- ---- ------ - -------- ---- -----<br>--- ------- ---- -- --- -------- --- - ----- ------ ---- --<br>-------- --- -------- -------- --- released ---- -- ----- -<br>-------- ---- --- ---------- --------- -- ------- ------ -<br>--------- ----- -----,254414.00000000003,254330,253974,253951,253990,254457,,36,released
screen,html.Screen,1_3_1_0_1_37,2021-04-24T21:42:30.698Z,,,,,,,,,,,,,,,,15,,,,,,,,,,,,,,328,,response,,,,7,A,,,,,,Space,keypress(Space),,,,silence,,,,---- --------- ---------- - --- ------- -- --- ------------<br>----- -- -------- ------- ---- ------ - -------- ---- -----<br>--- ------- ---- -- --- -------- --- - ----- ------ ---- --<br>-------- --- -------- -------- --- -------- July -- ----- -<br>-------- ---- --- ---------- --------- -- ------- ------ -<br>--------- ----- -----,254853,254768,254440,254414.00000000003,254457,254890,,37,July
screen,html.Screen,1_3_1_0_1_38,2021-04-24T21:42:31.190Z,,,,,,,,,,,,,,,,15,,,,,,,,,,,,,,387,,response,,,,7,A,,,,,,Space,keypress(Space),,,,silence,,,,---- --------- ---------- - --- ------- -- --- ------------<br>----- -- -------- ------- ---- ------ - -------- ---- -----<br>--- ------- ---- -- --- -------- --- - ----- ------ ---- --<br>-------- --- -------- -------- --- -------- ---- 20 ----- -<br>-------- ---- --- ---------- --------- -- ------- ------ -<br>--------- ----- -----,255345,255261,254874,254853,254890,255374,,38,20
screen,html.Screen,1_3_1_0_1_39,2021-04-24T21:42:31.698Z,,,,,,,,,,,,,,,,15,,,,,,,,,,,,,,412,,response,,,,7,A,,,,,,Space,keypress(Space),,,,silence,,,,---- --------- ---------- - --- ------- -- --- ------------<br>----- -- -------- ------- ---- ------ - -------- ---- -----<br>--- ------- ---- -- --- -------- --- - ----- ------ ---- --<br>-------- --- -------- -------- --- -------- ---- -- after -<br>-------- ---- --- ---------- --------- -- ------- ------ -<br>--------- ----- -----,255852,255768,255356,255345,255374,255889,,39,after
screen,html.Screen,1_3_1_0_1_40,2021-04-24T21:42:32.434Z,,,,,,,,,,,,,,,,15,,,,,,,,,,,,,,631,,response,,,,7,A,,,,,,Space,keypress(Space),,,,silence,,,,---- --------- ---------- - --- ------- -- --- ------------<br>----- -- -------- ------- ---- ------ - -------- ---- -----<br>--- ------- ---- -- --- -------- --- - ----- ------ ---- --<br>-------- --- -------- -------- --- -------- ---- -- ----- a<br>-------- ---- --- ---------- --------- -- ------- ------ -<br>--------- ----- -----,256589,256505,255874,255852,255889,256626,,40,a
screen,html.Screen,1_3_1_0_1_41,2021-04-24T21:42:32.894Z,,,,,,,,,,,,,,,,15,,,,,,,,,,,,,,356.0000000000291,,response,,,,7,A,,,,,,Space,keypress(Space),,,,silence,,,,---- --------- ---------- - --- ------- -- --- ------------<br>----- -- -------- ------- ---- ------ - -------- ---- -----<br>--- ------- ---- -- --- -------- --- - ----- ------ ---- --<br>-------- --- -------- -------- --- -------- ---- -- ----- -<br>two-week ---- --- ---------- --------- -- ------- ------ -<br>--------- ----- -----,257048.99999999997,256965.00000000003,256609,256589,256626,257092,,41,two-week
screen,html.Screen,1_3_1_0_1_42,2021-04-24T21:42:33.344Z,,,,,,,,,,,,,,,,15,,,,,,,,,,,,,,339.0000000000291,,response,,,,7,A,,,,,,Space,keypress(Space),,,,silence,,,,---- --------- ---------- - --- ------- -- --- ------------<br>----- -- -------- ------- ---- ------ - -------- ---- -----<br>--- ------- ---- -- --- -------- --- - ----- ------ ---- --<br>-------- --- -------- -------- --- -------- ---- -- ----- -<br>-------- stay --- ---------- --------- -- ------- ------ -<br>--------- ----- -----,257499.00000000003,257415.00000000003,257076,257048.99999999997,257092,257526,,42,stay
screen,html.Screen,1_3_1_0_1_43,2021-04-24T21:42:33.778Z,,,,,,,,,,,,,,,,15,,,,,,,,,,,,,,339,,response,,,,7,A,,,,,,Space,keypress(Space),,,,silence,,,,---- --------- ---------- - --- ------- -- --- ------------<br>----- -- -------- ------- ---- ------ - -------- ---- -----<br>--- ------- ---- -- --- -------- --- - ----- ------ ---- --<br>-------- --- -------- -------- --- -------- ---- -- ----- -<br>-------- ---- for ---------- --------- -- ------- ------ -<br>--------- ----- -----,257932.00000000003,257848,257509,257499.00000000003,257526,257959,,43,for
screen,html.Screen,1_3_1_0_1_44,2021-04-24T21:42:34.229Z,,,,,,,,,,,,,,,,15,,,,,,,,,,,,,,356,,response,,,,7,A,,,,,,Space,keypress(Space),,,,silence,,,,---- --------- ---------- - --- ------- -- --- ------------<br>----- -- -------- ------- ---- ------ - -------- ---- -----<br>--- ------- ---- -- --- -------- --- - ----- ------ ---- --<br>-------- --- -------- -------- --- -------- ---- -- ----- -<br>-------- ---- --- previously --------- -- ------- ------ -<br>--------- ----- -----,258382.99999999997,258298,257942,257932.00000000003,257959,258426,,44,previously
screen,html.Screen,1_3_1_0_1_45,2021-04-24T21:42:34.734Z,,,,,,,,,,,,,,,,15,,,,,,,,,,,,,,396,,response,,,,7,A,,,,,,Space,keypress(Space),,,,silence,,,,---- --------- ---------- - --- ------- -- --- ------------<br>----- -- -------- ------- ---- ------ - -------- ---- -----<br>--- ------- ---- -- --- -------- --- - ----- ------ ---- --<br>-------- --- -------- -------- --- -------- ---- -- ----- -<br>-------- ---- --- ---------- declining -- ------- ------ -<br>--------- ----- -----,258889,258805,258409,258382.99999999997,258426,258926,,45,declining
screen,html.Screen,1_3_1_0_1_46,2021-04-24T21:42:35.195Z,,,,,,,,,,,,,,,,15,,,,,,,,,,,,,,356,,response,,,,7,A,,,,,,Space,keypress(Space),,,,silence,,,,---- --------- ---------- - --- ------- -- --- ------------<br>----- -- -------- ------- ---- ------ - -------- ---- -----<br>--- ------- ---- -- --- -------- --- - ----- ------ ---- --<br>-------- --- -------- -------- --- -------- ---- -- ----- -<br>-------- ---- --- ---------- --------- to ------- ------ -<br>--------- ----- -----,259349,259264,258908,258889,258926,259391,,46,to
screen,html.Screen,1_3_1_0_1_47,2021-04-24T21:42:35.905Z,,,,,,,,,,,,,,,,15,,,,,,,,,,,,,,600.0000000000291,,response,,,,7,A,,,,,,Space,keypress(Space),,,,silence,,,,---- --------- ---------- - --- ------- -- --- ------------<br>----- -- -------- ------- ---- ------ - -------- ---- -----<br>--- ------- ---- -- --- -------- --- - ----- ------ ---- --<br>-------- --- -------- -------- --- -------- ---- -- ----- -<br>-------- ---- --- ---------- --------- -- testify ------ -<br>--------- ----- -----,260060,259975.00000000003,259375,259349,259391,260092,,47,testify
screen,html.Screen,1_3_1_0_1_48,2021-04-24T21:42:36.395Z,,,,,,,,,,,,,,,,15,,,,,,,,,,,,,,389.0000000000291,,response,,,,7,A,,,,,,Space,keypress(Space),,,,silence,,,,---- --------- ---------- - --- ------- -- --- ------------<br>----- -- -------- ------- ---- ------ - -------- ---- -----<br>--- ------- ---- -- --- -------- --- - ----- ------ ---- --<br>-------- --- -------- -------- --- -------- ---- -- ----- -<br>-------- ---- --- ---------- --------- -- ------- before -<br>--------- ----- -----,260550,260465.00000000003,260076,260060,260092,260592,,48,before
screen,html.Screen,1_3_1_0_1_49,2021-04-24T21:42:37.581Z,,,,,,,,,,,,,,,,15,,,,,,,,,,,,,,1075,,response,,,,7,A,,,,,,Space,keypress(Space),,,,silence,,,,---- --------- ---------- - --- ------- -- --- ------------<br>----- -- -------- ------- ---- ------ - -------- ---- -----<br>--- ------- ---- -- --- -------- --- - ----- ------ ---- --<br>-------- --- -------- -------- --- -------- ---- -- ----- -<br>-------- ---- --- ---------- --------- -- ------- ------ a<br>--------- ----- -----,261736,261651,260576,260550,260592,261777,,49,a
screen,html.Screen,1_3_1_0_1_50,2021-04-24T21:42:38.388Z,,,,,,,,,,,,,,,,15,,,,,,,,,,,,,,698,,response,,,,7,A,,,,,,Space,keypress(Space),,,,silence,,,,---- --------- ---------- - --- ------- -- --- ------------<br>----- -- -------- ------- ---- ------ - -------- ---- -----<br>--- ------- ---- -- --- -------- --- - ----- ------ ---- --<br>-------- --- -------- -------- --- -------- ---- -- ----- -<br>-------- ---- --- ---------- --------- -- ------- ------ -<br>different ----- -----,262542.00000000006,262458,261760,261736,261777,262577,,50,different
screen,html.Screen,1_3_1_0_1_51,2021-04-24T21:42:39.228Z,,,,,,,,,,,,,,,,15,,,,,,,,,,,,,,737,,response,,,,7,A,,,,,,Space,keypress(Space),,,,silence,,,,---- --------- ---------- - --- ------- -- --- ------------<br>----- -- -------- ------- ---- ------ - -------- ---- -----<br>--- ------- ---- -- --- -------- --- - ----- ------ ---- --<br>-------- --- -------- -------- --- -------- ---- -- ----- -<br>-------- ---- --- ---------- --------- -- ------- ------ -<br>--------- grand -----,263383,263298,262561,262543,262577,263411,,51,grand
screen,html.Screen,1_3_1_0_1_52,2021-04-24T21:42:39.686Z,,,,,,,,,,,,,,,,15,,,,,,,,,,,,,,362,,response,,,,7,A,,,,,,Space,keypress(Space),,,,silence,,,,---- --------- ---------- - --- ------- -- --- ------------<br>----- -- -------- ------- ---- ------ - -------- ---- -----<br>--- ------- ---- -- --- -------- --- - ----- ------ ---- --<br>-------- --- -------- -------- --- -------- ---- -- ----- -<br>-------- ---- --- ---------- --------- -- ------- ------ -<br>--------- ----- jury.,263841,263756,263394,263383,263411,263878,,52,jury.
Item 7,flow.Loop,1_3_1_0_1,2021-04-24T21:42:39.686Z,,,,,,,,,,,,,,,,,,,,,,,,,,,,,,28491,,completion,,,,,,,,,,,,,,,,,,,,,263841,263756,235248,235248.00000000003,235265,263878,,,
Question 1,html.Screen,1_3_1_0_2,2021-04-24T21:42:44.553Z,,,,,,,,,,,,,,,,,,,,,,,,,,,false,FALSE,,4763,,response,,,,7,A,,,,,,TRUE,click #choice-1,,,,silence,,,,,268707,268623,263860,263841,263878,268733,,,
Question 2,html.Screen,1_3_1_0_3,2021-04-24T21:42:50.458Z,,,,,,,,,,,,,,,,,,,,,,,,,,,true,TRUE,,5812,,response,,,,7,A,,,,,,TRUE,click #choice-1,,,,silence,,,,,274612,274528,268716,268707,268733,274635,,,
Item 7,flow.Sequence,1_3_1_0,2021-04-24T21:42:50.458Z,,,,,,,,,,,,,,,,,,,,,,,,,,,,,,46265,,completion,,,,,,,,,,,,,,,,,,,,,274613,274528,228247,228247,228263,274635,,,
Holding screen,html.Screen,1_3_1_1_0,2021-04-24T21:42:57.470Z,,,,,,,,,,,,,,,,,,,,,,,,,,,,,,7006,,timeout,,,,,,,,,,,,,,,,,,,,,281624,281624,274619,274613,274635,281641,,,
screen,html.Screen,1_3_1_1_1_0,2021-04-24T21:42:58.479Z,,,,,,,,,,,,,,,,51,,,,,,,,,,,,,,923,,response,,,,13,A,,,,,,Space,keypress(Space),,,,silence,,,,American -------- --- --- ---- --- --- ------ -- --------<br>---- --------- --- ------- ------------ ---------- ---------<br>--- ---------- ------- ---------- ------- -- -------- ----<br>---- --- ------ ----- ------ -- ---- --- ----- -- - -------<br>-------- -- --- --- -- ----- ----------- ----- -----------<br>---- --- ---------- --- ---- --- -- ----------,282633,282547,281624,281624,281641,282675,,0,American
screen,html.Screen,1_3_1_1_1_1,2021-04-24T21:42:59.024Z,,,,,,,,,,,,,,,,51,,,,,,,,,,,,,,436,,response,,,,13,A,,,,,,Space,keypress(Space),,,,silence,,,,-------- industry --- --- ---- --- --- ------ -- --------<br>---- --------- --- ------- ------------ ---------- ---------<br>--- ---------- ------- ---------- ------- -- -------- ----<br>---- --- ------ ----- ------ -- ---- --- ----- -- - -------<br>-------- -- --- --- -- ----- ----------- ----- -----------<br>---- --- ---------- --- ---- --- -- ----------,283178,283093,282657,282633,282675,283207,,1,industry
screen,html.Screen,1_3_1_1_1_2,2021-04-24T21:42:59.504Z,,,,,,,,,,,,,,,,51,,,,,,,,,,,,,,382,,response,,,,13,A,,,,,,Space,keypress(Space),,,,silence,,,,-------- -------- may --- ---- --- --- ------ -- --------<br>---- --------- --- ------- ------------ ---------- ---------<br>--- ---------- ------- ---------- ------- -- -------- ----<br>---- --- ------ ----- ------ -- ---- --- ----- -- - -------<br>-------- -- --- --- -- ----- ----------- ----- -----------<br>---- --- ---------- --- ---- --- -- ----------,283658,283573,283191,283178,283207,283691,,2,may
screen,html.Screen,1_3_1_1_1_3,2021-04-24T21:42:59.919Z,,,,,,,,,,,,,,,,51,,,,,,,,,,,,,,314,,response,,,,13,A,,,,,,Space,keypress(Space),,,,silence,,,,-------- -------- --- not ---- --- --- ------ -- --------<br>---- --------- --- ------- ------------ ---------- ---------<br>--- ---------- ------- ---------- ------- -- -------- ----<br>---- --- ------ ----- ------ -- ---- --- ----- -- - -------<br>-------- -- --- --- -- ----- ----------- ----- -----------<br>---- --- ---------- --- ---- --- -- ----------,284073,283988,283674,283658,283691,284108,,3,not
screen,html.Screen,1_3_1_1_1_4,2021-04-24T21:43:00.290Z,,,,,,,,,,,,,,,,51,,,,,,,,,,,,,,268,,response,,,,13,A,,,,,,Space,keypress(Space),,,,silence,,,,-------- -------- --- --- know --- --- ------ -- --------<br>---- --------- --- ------- ------------ ---------- ---------<br>--- ---------- ------- ---------- ------- -- -------- ----<br>---- --- ------ ----- ------ -- ---- --- ----- -- - -------<br>-------- -- --- --- -- ----- ----------- ----- -----------<br>---- --- ---------- --- ---- --- -- ----------,284444,284359,284091,284073,284108,284474,,4,know
