sender,sender_type,sender_id,timestamp,meta,,Blues,Classical,Country,Dance,Electronic,Folk,Gospel,Hip-Hop,Jazz,Latin,Musical/Film,New-age,Pop,Provo_ID,R&B,Rap,Reggae,Religious,Rock,Soul,Swing,Traditional,age,artist_name,correct,correctResponse,distraction,duration,education,ended_on,familiarity,gender,headphone_check_performance,item,list,music_frequency,offensiveness,pleasantness,position_correct,preference,response,response_action,snippet_file,song_name,song_rating,sound,stimulus_1,stimulus_2,stimulus_3,text,time_commit,time_end,time_render,time_run,time_show,time_switch,url,word,word_ID
Introduction,html.Screen,0_0,2021-04-26T14:09:42.842Z,"{""labjs_version"":""20.2.2"",""labjs_build"":{""flavor"":""production"",""commit"":""a25486e0c714a0ae2ce03ff94b7bb6896854dcfa""},""location"":""https://run.pavlovia.org/mvasilev/music_c/"",""userAgent"":""Mozilla/5.0 (Macintosh; Intel Mac OS X 10_15_6) AppleWebKit/605.1.15 (KHTML, like Gecko) Version/13.1.2 Safari/605.1.15"",""platform"":""MacIntel"",""language"":""en-gb"",""locale"":""en-GB"",""timeZone"":""Europe/London"",""timezoneOffset"":-60,""screen_width"":1440,""screen_height"":900,""scroll_width"":1098,""scroll_height"":709,""window_innerWidth"":1098,""window_innerHeight"":757,""devicePixelRatio"":2}",,,,,,,,,,,,,,,,,,,,,,,,,,,,,9129,,response,,,,,,,,,,,continue,click button,,,,,,,,,15457,15486,6357,6346,6397,15477,{},,
Volume calibration,html.Screen,0_1,2021-04-26T14:10:04.418Z,,,,,,,,,,,,,,,,,,,,,,,,,,,,,,21603,,response,,,,,,,,,,,continue,click button,,,,,,,,,37034,37065,15462,15458,15477,37050,,,
Task instructions,html.Screen,0_2,2021-04-26T14:10:29.955Z,,,,,,,,,,,,,,,,,,,,,,,,,,,,,,25568,,response,,,,,,,,,,,continue,click button,,,,,,,,,62572,62604,37036,37034,37050,62594,,,
Sounds,html.Screen,0_3_0_0,2021-04-26T14:10:34.217Z,,,,,,,,,,,,,,,,,,,,,,,,,,,,,,4256,,timeout,,,,,,,,,3,,,,,,,,I,O,S,,66834,66833,62578,62572,62594,66850,,,
Judgement,html.Screen,0_3_0_1,2021-04-26T14:10:35.300Z,,,,,,,,,,,,,,,,,,,,,,,,,,,true,3,,1116,,response,,,,,,,,,3,,3,click #choice-3,,,,,I,O,S,,67917,67949,66833,66834,66850,67933,,,
Trial,flow.Sequence,0_3_0,2021-04-26T14:10:35.300Z,,,,,,,,,,,,,,,,,,,,,,,,,,,,,,5355,,completion,,,,,,,,,3,,,,,,,,I,O,S,,67917,67949,62578,62572,62594,67933,,,
Sounds,html.Screen,0_3_1_0,2021-04-26T14:10:39.557Z,,,,,,,,,,,,,,,,,,,,,,,,,,,,,,4255,,timeout,,,,,,,,,2,,,,,,,,O,S,I,,72173,72173,67918,67917,67933,72188,,,
Judgement,html.Screen,0_3_1_1,2021-04-26T14:10:40.077Z,,,,,,,,,,,,,,,,,,,,,,,,,,,true,2,,554,,response,,,,,,,,,2,,2,click #choice-2,,,,,O,S,I,,72694,72727,72173,72174,72188,72723,,,
Trial,flow.Sequence,0_3_1,2021-04-26T14:10:40.078Z,,,,,,,,,,,,,,,,,,,,,,,,,,,,,,4794,,completion,,,,,,,,,2,,,,,,,,O,S,I,,72694,72727,67918,67917,67933,72723,,,
Sounds,html.Screen,0_3_2_0,2021-04-26T14:10:44.343Z,,,,,,,,,,,,,,,,,,,,,,,,,,,,,,4254,,timeout,,,,,,,,,1,,,,,,,,S,O,I,,76960.00000000001,76960,72706,72695.00000000001,72723,76977,,,
Judgement,html.Screen,0_3_2_1,2021-04-26T14:10:45.219Z,,,,,,,,,,,,,,,,,,,,,,,,,,,true,1,,909,,response,,,,,,,,,1,,1,click #choice-1,,,,,S,O,I,,77836,77869,76960,76961,76977,77860,,,
Trial,flow.Sequence,0_3_2,2021-04-26T14:10:45.219Z,,,,,,,,,,,,,,,,,,,,,,,,,,,,,,5146,,completion,,,,,,,,,1,,,,,,,,S,O,I,,77837,77869,72706,72695.00000000001,72723,77860,,,
Sounds,html.Screen,0_3_3_0,2021-04-26T14:10:49.481Z,,,,,,,,,,,,,,,,,,,,,,,,,,,,,,4256,,timeout,,,,,,,,,3,,,,,,,,O,I,S,,82099,82098,77843,77837,77860,82116,,,
Judgement,html.Screen,0_3_3_1,2021-04-26T14:10:50.176Z,,,,,,,,,,,,,,,,,,,,,,,,,,,true,3,,728.0000000000146,,response,,,,,,,,,3,,3,click #choice-3,,,,,O,I,S,,82793,82826.00000000001,82098,82099,82116,82816,,,
Trial,flow.Sequence,0_3_3,2021-04-26T14:10:50.176Z,,,,,,,,,,,,,,,,,,,,,,,,,,,,,,4966.000000000015,,completion,,,,,,,,,3,,,,,,,,O,I,S,,82793,82826.00000000001,77843,77837,77860,82816,,,
Sounds,html.Screen,0_3_4_0,2021-04-26T14:10:54.437Z,,,,,,,,,,,,,,,,,,,,,,,,,,,,,,4254,,timeout,,,,,,,,,2,,,,,,,,I,S,O,,87055,87054,82799,82793,82816,87070,,,
Judgement,html.Screen,0_3_4_1,2021-04-26T14:10:54.893Z,,,,,,,,,,,,,,,,,,,,,,,,,,,true,2,,490,,response,,,,,,,,,2,,2,click #choice-2,,,,,I,S,O,,87511,87544,87054,87055,87070,87537,,,
Trial,flow.Sequence,0_3_4,2021-04-26T14:10:54.894Z,,,,,,,,,,,,,,,,,,,,,,,,,,,,,,4728,,completion,,,,,,,,,2,,,,,,,,I,S,O,,87511,87544,82799,82793,82816,87537,,,
Sounds,html.Screen,0_3_5_0,2021-04-26T14:10:59.159Z,,,,,,,,,,,,,,,,,,,,,,,,,,,,,,4256,,timeout,,,,,,,,,1,,,,,,,,S,I,O,,91776,91776,87521,87511,87537,91793,,,
Judgement,html.Screen,0_3_5_1,2021-04-26T14:10:59.878Z,,,,,,,,,,,,,,,,,,,,,,,,,,,true,1,,753,,response,,,,,,,,,1,,1,click #choice-1,,,,,S,I,O,,92495,92529,91776,91776,91793,92526,,,
Trial,flow.Sequence,0_3_5,2021-04-26T14:10:59.878Z,,,,,,,,,,,,,,,,,,,,,,,,,,,,,,4992,,completion,,,,,,,,,1,,,,,,,,S,I,O,,92496,92529,87521,87511,87537,92526,,,
Task,flow.Loop,0_3,2021-04-26T14:10:59.880Z,,,,,,,,,,,,,,,,,,,,,,,,,,,,,,29935,,completion,,,1,,,,,,,,,,,,,,,,,,92498,92529,62578,62572,62594,92526,,,
Trap,html.Screen,0_4,2021-04-26T14:10:59.881Z,,,,,,,,,,,,,,,,,,,,,,,,,,,,,,NaN,,skipped,,,,,,,,,,,,,,,,,,,,,92498,92529,,92498,,92526,,,
Thanks,html.Screen,0_5,2021-04-26T14:11:03.958Z,,,,,,,,,,,,,,,,,,,,,,,,,,,,,,4099.000000000015,,response,,,,,,,,,,,continue,click button,,,,,,,,,96575,96609.00000000001,92510,92498,92526,99765,,,
Headphone screening,flow.Sequence,0,2021-04-26T14:11:03.958Z,,,,,,,,,,,,,,,,,,,,,,,,,,,,,,90212.00000000001,,completion,,,,,,,,,,,,,,,,,,,,,96576.00000000001,96609.00000000001,6357,6346,6397,99765,,,
Instructions,html.Page,1_0,2021-04-26T14:11:42.622Z,,,,,,,,,,,,,,,,,,,,,,,,,,,,,,35475,,form submission,,,,,,,,,,,,,,,,,,,,,135241,135240,99752,99737.00000000001,99765,135257,,,
Holding screen,html.Screen,1_1_0_0,2021-04-26T14:11:52.627Z,,,,,,,,,,,,,,,,,,,,,,,,,,,,,,10006,,timeout,,,,,,,,,,,,,,,,,,,,,145246,145246,135245,135241,135257,145263,,,
screen,html.Screen,1_1_0_1_0,2021-04-26T14:11:53.632Z,,,,,,,,,,,,,,,,53,,,,,,,,,,,,,,1037.000000000029,,response,,,,99,,,,,,,Space,keypress(Space),,,,,,,,When -- ----- -- ------ - ------- --- ----------<br>------------- ------ ------ ---- ---- ------- ----- -- ----<br>-------- ------- -- ---------- --- - --- ----- ----- ----<br>---- --- --- ----- --- ---- ---- ------- ----- ---- -------<br>--- --- -- ----- -- --- ---- -- --- ---- -- ------ ------<br>--- ----- -- ----,146251,146283.00000000003,145246,145247,145263,146279,,0,When
screen,html.Screen,1_1_0_1_1,2021-04-26T14:11:54.431Z,,,,,,,,,,,,,,,,53,,,,,,,,,,,,,,821,,response,,,,99,,,,,,,Space,keypress(Space),,,,,,,,---- it ----- -- ------ - ------- --- ----------<br>------------- ------ ------ ---- ---- ------- ----- -- ----<br>-------- ------- -- ---------- --- - --- ----- ----- ----<br>---- --- --- ----- --- ---- ---- ------- ----- ---- -------<br>--- --- -- ----- -- --- ---- -- --- ---- -- ------ ------<br>--- ----- -- ----,147050,147084,146263,146252,146279,147079,,1,it
screen,html.Screen,1_1_0_1_2,2021-04-26T14:11:55.094Z,,,,,,,,,,,,,,,,53,,,,,,,,,,,,,,683,,response,,,,99,,,,,,,Space,keypress(Space),,,,,,,,---- -- comes -- ------ - ------- --- ----------<br>------------- ------ ------ ---- ---- ------- ----- -- ----<br>-------- ------- -- ---------- --- - --- ----- ----- ----<br>---- --- --- ----- --- ---- ---- ------- ----- ---- -------<br>--- --- -- ----- -- --- ---- -- --- ---- -- ------ ------<br>--- ----- -- ----,147713,147746,147063,147050,147079,147746,,2,comes
screen,html.Screen,1_1_0_1_3,2021-04-26T14:11:55.756Z,,,,,,,,,,,,,,,,53,,,,,,,,,,,,,,679,,response,,,,99,,,,,,,Space,keypress(Space),,,,,,,,---- -- ----- to ------ - ------- --- ----------<br>------------- ------ ------ ---- ---- ------- ----- -- ----<br>-------- ------- -- ---------- --- - --- ----- ----- ----<br>---- --- --- ----- --- ---- ---- ------- ----- ---- -------<br>--- --- -- ----- -- --- ---- -- --- ---- -- ------ ------<br>--- ----- -- ----,148376,148409,147730,147713,147746,148413,,3,to
screen,html.Screen,1_1_0_1_4,2021-04-26T14:11:56.355Z,,,,,,,,,,,,,,,,53,,,,,,,,,,,,,,612,,response,,,,99,,,,,,,Space,keypress(Space),,,,,,,,---- -- ----- -- having - ------- --- ----------<br>------------- ------ ------ ---- ---- ------- ----- -- ----<br>-------- ------- -- ---------- --- - --- ----- ----- ----<br>---- --- --- ----- --- ---- ---- ------- ----- ---- -------<br>--- --- -- ----- -- --- ---- -- --- ---- -- ------ ------<br>--- ----- -- ----,148975,149008,148396,148376,148413,149017,,4,having
screen,html.Screen,1_1_0_1_5,2021-04-26T14:11:56.847Z,,,,,,,,,,,,,,,,53,,,,,,,,,,,,,,498,,response,,,,99,,,,,,,Space,keypress(Space),,,,,,,,---- -- ----- -- ------ a ------- --- ----------<br>------------- ------ ------ ---- ---- ------- ----- -- ----<br>-------- ------- -- ---------- --- - --- ----- ----- ----<br>---- --- --- ----- --- ---- ---- ------- ----- ---- -------<br>--- --- -- ----- -- --- ---- -- --- ---- -- ------ ------<br>--- ----- -- ----,149467,149499,149001,148975,149017,149501,,5,a
screen,html.Screen,1_1_0_1_6,2021-04-26T14:11:57.309Z,,,,,,,,,,,,,,,,53,,,,,,,,,,,,,,478,,response,,,,99,,,,,,,Space,keypress(Space),,,,,,,,---- -- ----- -- ------ - lasting --- ----------<br>------------- ------ ------ ---- ---- ------- ----- -- ----<br>-------- ------- -- ---------- --- - --- ----- ----- ----<br>---- --- --- ----- --- ---- ---- ------- ----- ---- -------<br>--- --- -- ----- -- --- ---- -- --- ---- -- ------ ------<br>--- ----- -- ----,149929,149962,149484,149467,149501,149968,,6,lasting
screen,html.Screen,1_1_0_1_7,2021-04-26T14:11:57.732Z,,,,,,,,,,,,,,,,53,,,,,,,,,,,,,,434,,response,,,,99,,,,,,,Space,keypress(Space),,,,,,,,---- -- ----- -- ------ - ------- and ----------<br>------------- ------ ------ ---- ---- ------- ----- -- ----<br>-------- ------- -- ---------- --- - --- ----- ----- ----<br>---- --- --- ----- --- ---- ---- ------- ----- ---- -------<br>--- --- -- ----- -- --- ---- -- --- ---- -- ------ ------<br>--- ----- -- ----,150352,150385,149951,149929,149968,150385,,7,and
screen,html.Screen,1_1_0_1_8,2021-04-26T14:11:58.159Z,,,,,,,,,,,,,,,,53,,,,,,,,,,,,,,445,,response,,,,99,,,,,,,Space,keypress(Space),,,,,,,,---- -- ----- -- ------ - ------- --- fulfilling<br>------------- ------ ------ ---- ---- ------- ----- -- ----<br>-------- ------- -- ---------- --- - --- ----- ----- ----<br>---- --- --- ----- --- ---- ---- ------- ----- ---- -------<br>--- --- -- ----- -- --- ---- -- --- ---- -- ------ ------<br>--- ----- -- ----,150778,150812,150367,150352,150385,150817,,8,fulfilling
screen,html.Screen,1_1_0_1_9,2021-04-26T14:11:58.641Z,,,,,,,,,,,,,,,,53,,,,,,,,,,,,,,492,,response,,,,99,,,,,,,Space,keypress(Space),,,,,,,,"---- -- ----- -- ------ - ------- --- ----------<br>relationship, ------ ------ ---- ---- ------- ----- -- ----<br>-------- ------- -- ---------- --- - --- ----- ----- ----<br>---- --- --- ----- --- ---- ---- ------- ----- ---- -------<br>--- --- -- ----- -- --- ---- -- --- ---- -- ------ ------<br>--- ----- -- ----",151260,151293,150801,150778,150817,151301,,9,"relationship,"
screen,html.Screen,1_1_0_1_10,2021-04-26T14:11:59.117Z,,,,,,,,,,,,,,,,53,,,,,,,,,,,,,,485,,response,,,,99,,,,,,,Space,keypress(Space),,,,,,,,---- -- ----- -- ------ - ------- --- ----------<br>------------- common ------ ---- ---- ------- ----- -- ----<br>-------- ------- -- ---------- --- - --- ----- ----- ----<br>---- --- --- ----- --- ---- ---- ------- ----- ---- -------<br>--- --- -- ----- -- --- ---- -- --- ---- -- ------ ------<br>--- ----- -- ----,151737,151770,151285,151260,151301,151767,,10,common
screen,html.Screen,1_1_0_1_11,2021-04-26T14:11:59.754Z,,,,,,,,,,,,,,,,53,,,,,,,,,,,,,,657,,response,,,,99,,,,,,,Space,keypress(Space),,,,,,,,---- -- ----- -- ------ - ------- --- ----------<br>------------- ------ wisdom ---- ---- ------- ----- -- ----<br>-------- ------- -- ---------- --- - --- ----- ----- ----<br>---- --- --- ----- --- ---- ---- ------- ----- ---- -------<br>--- --- -- ----- -- --- ---- -- --- ---- -- ------ ------<br>--- ----- -- ----,152373,152407,151750,151737,151767,152401,,11,wisdom
screen,html.Screen,1_1_0_1_12,2021-04-26T14:12:00.268Z,,,,,,,,,,,,,,,,53,,,,,,,,,,,,,,536,,response,,,,99,,,,,,,Space,keypress(Space),,,,,,,,---- -- ----- -- ------ - ------- --- ----------<br>------------- ------ ------ says ---- ------- ----- -- ----<br>-------- ------- -- ---------- --- - --- ----- ----- ----<br>---- --- --- ----- --- ---- ---- ------- ----- ---- -------<br>--- --- -- ----- -- --- ---- -- --- ---- -- ------ ------<br>--- ----- -- ----,152888,152921,152385,152373,152401,152918,,12,says
screen,html.Screen,1_1_0_1_13,2021-04-26T14:12:00.762Z,,,,,,,,,,,,,,,,53,,,,,,,,,,,,,,514,,response,,,,99,,,,,,,Space,keypress(Space),,,,,,,,---- -- ----- -- ------ - ------- --- ----------<br>------------- ------ ------ ---- that ------- ----- -- ----<br>-------- ------- -- ---------- --- - --- ----- ----- ----<br>---- --- --- ----- --- ---- ---- ------- ----- ---- -------<br>--- --- -- ----- -- --- ---- -- --- ---- -- ------ ------<br>--- ----- -- ----,153381,153415,152901,152888,152918,153417,,13,that
screen,html.Screen,1_1_0_1_14,2021-04-26T14:12:01.243Z,,,,,,,,,,,,,,,,53,,,,,,,,,,,,,,495.0000000000291,,response,,,,99,,,,,,,Space,keypress(Space),,,,,,,,---- -- ----- -- ------ - ------- --- ----------<br>------------- ------ ------ ---- ---- feeling ----- -- ----<br>-------- ------- -- ---------- --- - --- ----- ----- ----<br>---- --- --- ----- --- ---- ---- ------- ----- ---- -------<br>--- --- -- ----- -- --- ---- -- --- ---- -- ------ ------<br>--- ----- -- ----,153863,153896.00000000003,153401,153381,153417,153905,,14,feeling
screen,html.Screen,1_1_0_1_15,2021-04-26T14:12:01.670Z,,,,,,,,,,,,,,,,53,,,,,,,,,,,,,,434,,response,,,,99,,,,,,,Space,keypress(Space),,,,,,,,---- -- ----- -- ------ - ------- --- ----------<br>------------- ------ ------ ---- ---- ------- close -- ----<br>-------- ------- -- ---------- --- - --- ----- ----- ----<br>---- --- --- ----- --- ---- ---- ------- ----- ---- -------<br>--- --- -- ----- -- --- ---- -- --- ---- -- ------ ------<br>--- ----- -- ----,154289.00000000003,154323,153889,153863,153905,154322,,15,close
screen,html.Screen,1_1_0_1_16,2021-04-26T14:12:02.147Z,,,,,,,,,,,,,,,,53,,,,,,,,,,,,,,495,,response,,,,99,,,,,,,Space,keypress(Space),,,,,,,,---- -- ----- -- ------ - ------- --- ----------<br>------------- ------ ------ ---- ---- ------- ----- to ----<br>-------- ------- -- ---------- --- - --- ----- ----- ----<br>---- --- --- ----- --- ---- ---- ------- ----- ---- -------<br>--- --- -- ----- -- --- ---- -- --- ---- -- ------ ------<br>--- ----- -- ----,154766,154800,154305,154289.00000000003,154322,154806,,16,to
screen,html.Screen,1_1_0_1_17,2021-04-26T14:12:02.540Z,,,,,,,,,,,,,,,,53,,,,,,,,,,,,,,404,,response,,,,99,,,,,,,Space,keypress(Space),,,,,,,,---- -- ----- -- ------ - ------- --- ----------<br>------------- ------ ------ ---- ---- ------- ----- -- your<br>-------- ------- -- ---------- --- - --- ----- ----- ----<br>---- --- --- ----- --- ---- ---- ------- ----- ---- -------<br>--- --- -- ----- -- --- ---- -- --- ---- -- ------ ------<br>--- ----- -- ----,155159,155193,154789,154766,154806,155189,,17,your
screen,html.Screen,1_1_0_1_18,2021-04-26T14:12:03.020Z,,,,,,,,,,,,,,,,53,,,,,,,,,,,,,,502,,response,,,,99,,,,,,,Space,keypress(Space),,,,,,,,---- -- ----- -- ------ - ------- --- ----------<br>------------- ------ ------ ---- ---- ------- ----- -- ----<br>romantic ------- -- ---------- --- - --- ----- ----- ----<br>---- --- --- ----- --- ---- ---- ------- ----- ---- -------<br>--- --- -- ----- -- --- ---- -- --- ---- -- ------ ------<br>--- ----- -- ----,155639,155673,155171,155159,155189,155672,,18,romantic
screen,html.Screen,1_1_0_1_19,2021-04-26T14:12:03.520Z,,,,,,,,,,,,,,,,53,,,,,,,,,,,,,,518,,response,,,,99,,,,,,,Space,keypress(Space),,,,,,,,---- -- ----- -- ------ - ------- --- ----------<br>------------- ------ ------ ---- ---- ------- ----- -- ----<br>-------- partner -- ---------- --- - --- ----- ----- ----<br>---- --- --- ----- --- ---- ---- ------- ----- ---- -------<br>--- --- -- ----- -- --- ---- -- --- ---- -- ------ ------<br>--- ----- -- ----,156139,156173,155655,155640.00000000003,155672,156171,,19,partner
screen,html.Screen,1_1_0_1_20,2021-04-26T14:12:04.029Z,,,,,,,,,,,,,,,,53,,,,,,,,,,,,,,526,,response,,,,99,,,,,,,Space,keypress(Space),,,,,,,,---- -- ----- -- ------ - ------- --- ----------<br>------------- ------ ------ ---- ---- ------- ----- -- ----<br>-------- ------- is ---------- --- - --- ----- ----- ----<br>---- --- --- ----- --- ---- ---- ------- ----- ---- -------<br>--- --- -- ----- -- --- ---- -- --- ---- -- ------ ------<br>--- ----- -- ----,156648,156681,156155,156139,156171,156689,,20,is
screen,html.Screen,1_1_0_1_21,2021-04-26T14:12:04.544Z,,,,,,,,,,,,,,,,53,,,,,,,,,,,,,,526,,response,,,,99,,,,,,,Space,keypress(Space),,,,,,,,---- -- ----- -- ------ - ------- --- ----------<br>------------- ------ ------ ---- ---- ------- ----- -- ----<br>-------- ------- -- paramount. --- - --- ----- ----- ----<br>---- --- --- ----- --- ---- ---- ------- ----- ---- -------<br>--- --- -- ----- -- --- ---- -- --- ---- -- ------ ------<br>--- ----- -- ----,157164.00000000003,157198,156672,156648,156689,157205,,21,paramount.
screen,html.Screen,1_1_0_1_22,2021-04-26T14:12:05.067Z,,,,,,,,,,,,,,,,53,,,,,,,,,,,,,,531,,response,,,,99,,,,,,,Space,keypress(Space),,,,,,,,---- -- ----- -- ------ - ------- --- ----------<br>------------- ------ ------ ---- ---- ------- ----- -- ----<br>-------- ------- -- ---------- But - --- ----- ----- ----<br>---- --- --- ----- --- ---- ---- ------- ----- ---- -------<br>--- --- -- ----- -- --- ---- -- --- ---- -- ------ ------<br>--- ----- -- ----,157686,157720,157189,157164.00000000003,157205,157722,,22,But
screen,html.Screen,1_1_0_1_23,2021-04-26T14:12:05.483Z,,,,,,,,,,,,,,,,53,,,,,,,,,,,,,,431,,response,,,,99,,,,,,,Space,keypress(Space),,,,,,,,---- -- ----- -- ------ - ------- --- ----------<br>------------- ------ ------ ---- ---- ------- ----- -- ----<br>-------- ------- -- ---------- --- a --- ----- ----- ----<br>---- --- --- ----- --- ---- ---- ------- ----- ---- -------<br>--- --- -- ----- -- --- ---- -- --- ---- -- ------ ------<br>--- ----- -- ----,158103,158136,157705,157686,157722,158139,,23,a
screen,html.Screen,1_1_0_1_24,2021-04-26T14:12:06.002Z,,,,,,,,,,,,,,,,53,,,,,,,,,,,,,,534,,response,,,,99,,,,,,,Space,keypress(Space),,,,,,,,---- -- ----- -- ------ - ------- --- ----------<br>------------- ------ ------ ---- ---- ------- ----- -- ----<br>-------- ------- -- ---------- --- - new ----- ----- ----<br>---- --- --- ----- --- ---- ---- ------- ----- ---- -------<br>--- --- -- ----- -- --- ---- -- --- ---- -- ------ ------<br>--- ----- -- ----,158621,158655,158121,158103,158139,158655,,24,new
screen,html.Screen,1_1_0_1_25,2021-04-26T14:12:06.440Z,,,,,,,,,,,,,,,,53,,,,,,,,,,,,,,455,,response,,,,99,,,,,,,Space,keypress(Space),,,,,,,,---- -- ----- -- ------ - ------- --- ----------<br>------------- ------ ------ ---- ---- ------- ----- -- ----<br>-------- ------- -- ---------- --- - --- study ----- ----<br>---- --- --- ----- --- ---- ---- ------- ----- ---- -------<br>--- --- -- ----- -- --- ---- -- --- ---- -- ------ ------<br>--- ----- -- ----,159060,159093,158638,158622,158655,159093,,25,study
screen,html.Screen,1_1_0_1_26,2021-04-26T14:12:06.923Z,,,,,,,,,,,,,,,,53,,,,,,,,,,,,,,501,,response,,,,99,,,,,,,Space,keypress(Space),,,,,,,,---- -- ----- -- ------ - ------- --- ----------<br>------------- ------ ------ ---- ---- ------- ----- -- ----<br>-------- ------- -- ---------- --- - --- ----- finds ----<br>---- --- --- ----- --- ---- ---- ------- ----- ---- -------<br>--- --- -- ----- -- --- ---- -- --- ---- -- ------ ------<br>--- ----- -- ----,159542,159576,159075,159060,159093,159577,,26,finds
screen,html.Screen,1_1_0_1_27,2021-04-26T14:12:07.307Z,,,,,,,,,,,,,,,,53,,,,,,,,,,,,,,401,,response,,,,99,,,,,,,Space,keypress(Space),,,,,,,,---- -- ----- -- ------ - ------- --- ----------<br>------------- ------ ------ ---- ---- ------- ----- -- ----<br>-------- ------- -- ---------- --- - --- ----- ----- that<br>---- --- --- ----- --- ---- ---- ------- ----- ---- -------<br>--- --- -- ----- -- --- ---- -- --- ---- -- ------ ------<br>--- ----- -- ----,159927,159961,159560,159542,159577,159959,,27,that
screen,html.Screen,1_1_0_1_28,2021-04-26T14:12:07.752Z,,,,,,,,,,,,,,,,53,,,,,,,,,,,,,,463,,response,,,,99,,,,,,,Space,keypress(Space),,,,,,,,---- -- ----- -- ------ - ------- --- ----------<br>------------- ------ ------ ---- ---- ------- ----- -- ----<br>-------- ------- -- ---------- --- - --- ----- ----- ----<br>it's --- --- ----- --- ---- ---- ------- ----- ---- -------<br>--- --- -- ----- -- --- ---- -- --- ---- -- ------ ------<br>--- ----- -- ----,160372,160405,159942,159927,159959,160409,,28,it's
screen,html.Screen,1_1_0_1_29,2021-04-26T14:12:08.178Z,,,,,,,,,,,,,,,,53,,,,,,,,,,,,,,438.0000000000291,,response,,,,99,,,,,,,Space,keypress(Space),,,,,,,,---- -- ----- -- ------ - ------- --- ----------<br>------------- ------ ------ ---- ---- ------- ----- -- ----<br>-------- ------- -- ---------- --- - --- ----- ----- ----<br>---- not --- ----- --- ---- ---- ------- ----- ---- -------<br>--- --- -- ----- -- --- ---- -- --- ---- -- ------ ------<br>--- ----- -- ----,160797,160831.00000000003,160393,160372,160409,160826,,29,not
screen,html.Screen,1_1_0_1_30,2021-04-26T14:12:08.536Z,,,,,,,,,,,,,,,,53,,,,,,,,,,,,,,380,,response,,,,99,,,,,,,Space,keypress(Space),,,,,,,,---- -- ----- -- ------ - ------- --- ----------<br>------------- ------ ------ ---- ---- ------- ----- -- ----<br>-------- ------- -- ---------- --- - --- ----- ----- ----<br>---- --- how ----- --- ---- ---- ------- ----- ---- -------<br>--- --- -- ----- -- --- ---- -- --- ---- -- ------ ------<br>--- ----- -- ----,161156,161190,160810,160797,160826,161176,,30,how
screen,html.Screen,1_1_0_1_31,2021-04-26T14:12:08.968Z,,,,,,,,,,,,,,,,53,,,,,,,,,,,,,,460,,response,,,,99,,,,,,,Space,keypress(Space),,,,,,,,---- -- ----- -- ------ - ------- --- ----------<br>------------- ------ ------ ---- ---- ------- ----- -- ----<br>-------- ------- -- ---------- --- - --- ----- ----- ----<br>---- --- --- close --- ---- ---- ------- ----- ---- -------<br>--- --- -- ----- -- --- ---- -- --- ---- -- ------ ------<br>--- ----- -- ----,161588,161620,161160,161156,161176,161626,,31,close
screen,html.Screen,1_1_0_1_32,2021-04-26T14:12:09.394Z,,,,,,,,,,,,,,,,53,,,,,,,,,,,,,,437,,response,,,,99,,,,,,,Space,keypress(Space),,,,,,,,---- -- ----- -- ------ - ------- --- ----------<br>------------- ------ ------ ---- ---- ------- ----- -- ----<br>-------- ------- -- ---------- --- - --- ----- ----- ----<br>---- --- --- ----- you ---- ---- ------- ----- ---- -------<br>--- --- -- ----- -- --- ---- -- --- ---- -- ------ ------<br>--- ----- -- ----,162013,162047,161610,161588,161626,162043,,32,you
screen,html.Screen,1_1_0_1_33,2021-04-26T14:12:09.846Z,,,,,,,,,,,,,,,,53,,,,,,,,,,,,,,473,,response,,,,99,,,,,,,Space,keypress(Space),,,,,,,,---- -- ----- -- ------ - ------- --- ----------<br>------------- ------ ------ ---- ---- ------- ----- -- ----<br>-------- ------- -- ---------- --- - --- ----- ----- ----<br>---- --- --- ----- --- feel ---- ------- ----- ---- -------<br>--- --- -- ----- -- --- ---- -- --- ---- -- ------ ------<br>--- ----- -- ----,162466,162500,162027,162013,162043,162493,,33,feel
screen,html.Screen,1_1_0_1_34,2021-04-26T14:12:10.201Z,,,,,,,,,,,,,,,,53,,,,,,,,,,,,,,379,,response,,,,99,,,,,,,Space,keypress(Space),,,,,,,,---- -- ----- -- ------ - ------- --- ----------<br>------------- ------ ------ ---- ---- ------- ----- -- ----<br>-------- ------- -- ---------- --- - --- ----- ----- ----<br>---- --- --- ----- --- ---- that ------- ----- ---- -------<br>--- --- -- ----- -- --- ---- -- --- ---- -- ------ ------<br>--- ----- -- ----,162821,162855,162476,162466,162493,162843,,34,that
screen,html.Screen,1_1_0_1_35,2021-04-26T14:12:10.666Z,,,,,,,,,,,,,,,,53,,,,,,,,,,,,,,494,,response,,,,99,,,,,,,Space,keypress(Space),,,,,,,,---- -- ----- -- ------ - ------- --- ----------<br>------------- ------ ------ ---- ---- ------- ----- -- ----<br>-------- ------- -- ---------- --- - --- ----- ----- ----<br>---- --- --- ----- --- ---- ---- matters ----- ---- -------<br>--- --- -- ----- -- --- ---- -- --- ---- -- ------ ------<br>--- ----- -- ----,163286,163320,162826,162821,162843,163326,,35,matters
screen,html.Screen,1_1_0_1_36,2021-04-26T14:12:11.104Z,,,,,,,,,,,,,,,,53,,,,,,,,,,,,,,448,,response,,,,99,,,,,,,Space,keypress(Space),,,,,,,,"---- -- ----- -- ------ - ------- --- ----------<br>------------- ------ ------ ---- ---- ------- ----- -- ----<br>-------- ------- -- ---------- --- - --- ----- ----- ----<br>---- --- --- ----- --- ---- ---- ------- most, ---- -------<br>--- --- -- ----- -- --- ---- -- --- ---- -- ------ ------<br>--- ----- -- ----",163723,163758,163310,163286,163326,163760,,36,"most,"
screen,html.Screen,1_1_0_1_37,2021-04-26T14:12:11.512Z,,,,,,,,,,,,,,,,53,,,,,,,,,,,,,,423,,response,,,,99,,,,,,,Space,keypress(Space),,,,,,,,---- -- ----- -- ------ - ------- --- ----------<br>------------- ------ ------ ---- ---- ------- ----- -- ----<br>-------- ------- -- ---------- --- - --- ----- ----- ----<br>---- --- --- ----- --- ---- ---- ------- ----- it's -------<br>--- --- -- ----- -- --- ---- -- --- ---- -- ------ ------<br>--- ----- -- ----,164132,164165,163742,163724,163760,164163,,37,it's
screen,html.Screen,1_1_0_1_38,2021-04-26T14:12:11.928Z,,,,,,,,,,,,,,,,53,,,,,,,,,,,,,,435,,response,,,,99,,,,,,,Space,keypress(Space),,,,,,,,---- -- ----- -- ------ - ------- --- ----------<br>------------- ------ ------ ---- ---- ------- ----- -- ----<br>-------- ------- -- ---------- --- - --- ----- ----- ----<br>---- --- --- ----- --- ---- ---- ------- ----- ---- whether<br>--- --- -- ----- -- --- ---- -- --- ---- -- ------ ------<br>--- ----- -- ----,164548,164582,164147,164132,164163,164581,,38,whether
screen,html.Screen,1_1_0_1_39,2021-04-26T14:12:12.351Z,,,,,,,,,,,,,,,,53,,,,,,,,,,,,,,441,,response,,,,99,,,,,,,Space,keypress(Space),,,,,,,,---- -- ----- -- ------ - ------- --- ----------<br>------------- ------ ------ ---- ---- ------- ----- -- ----<br>-------- ------- -- ---------- --- - --- ----- ----- ----<br>---- --- --- ----- --- ---- ---- ------- ----- ---- -------<br>you --- -- ----- -- --- ---- -- --- ---- -- ------ ------<br>--- ----- -- ----,164970,165004,164563,164548,164581,164998,,39,you
screen,html.Screen,1_1_0_1_40,2021-04-26T14:12:12.731Z,,,,,,,,,,,,,,,,53,,,,,,,,,,,,,,404,,response,,,,99,,,,,,,Space,keypress(Space),,,,,,,,---- -- ----- -- ------ - ------- --- ----------<br>------------- ------ ------ ---- ---- ------- ----- -- ----<br>-------- ------- -- ---------- --- - --- ----- ----- ----<br>---- --- --- ----- --- ---- ---- ------- ----- ---- -------<br>--- are -- ----- -- --- ---- -- --- ---- -- ------ ------<br>--- ----- -- ----,165351,165385,164981,164970,164998,165381,,40,are
screen,html.Screen,1_1_0_1_41,2021-04-26T14:12:13.109Z,,,,,,,,,,,,,,,,53,,,,,,,,,,,,,,400,,response,,,,99,,,,,,,Space,keypress(Space),,,,,,,,---- -- ----- -- ------ - ------- --- ----------<br>------------- ------ ------ ---- ---- ------- ----- -- ----<br>-------- ------- -- ---------- --- - --- ----- ----- ----<br>---- --- --- ----- --- ---- ---- ------- ----- ---- -------<br>--- --- as ----- -- --- ---- -- --- ---- -- ------ ------<br>--- ----- -- ----,165729,165763,165363,165351,165381,165747,,41,as
screen,html.Screen,1_1_0_1_42,2021-04-26T14:12:13.595Z,,,,,,,,,,,,,,,,53,,,,,,,,,,,,,,519,,response,,,,99,,,,,,,Space,keypress(Space),,,,,,,,---- -- ----- -- ------ - ------- --- ----------<br>------------- ------ ------ ---- ---- ------- ----- -- ----<br>-------- ------- -- ---------- --- - --- ----- ----- ----<br>---- --- --- ----- --- ---- ---- ------- ----- ---- -------<br>--- --- -- close -- --- ---- -- --- ---- -- ------ ------<br>--- ----- -- ----,166214,166249,165730,165729,165747,166248,,42,close
screen,html.Screen,1_1_0_1_43,2021-04-26T14:12:14.145Z,,,,,,,,,,,,,,,,53,,,,,,,,,,,,,,568,,response,,,,99,,,,,,,Space,keypress(Space),,,,,,,,---- -- ----- -- ------ - ------- --- ----------<br>------------- ------ ------ ---- ---- ------- ----- -- ----<br>-------- ------- -- ---------- --- - --- ----- ----- ----<br>---- --- --- ----- --- ---- ---- ------- ----- ---- -------<br>--- --- -- ----- as --- ---- -- --- ---- -- ------ ------<br>--- ----- -- ----,166765.00000000003,166799,166231,166215,166248,166797,,43,as
screen,html.Screen,1_1_0_1_44,2021-04-26T14:12:14.512Z,,,,,,,,,,,,,,,,53,,,,,,,,,,,,,,385,,response,,,,99,,,,,,,Space,keypress(Space),,,,,,,,---- -- ----- -- ------ - ------- --- ----------<br>------------- ------ ------ ---- ---- ------- ----- -- ----<br>-------- ------- -- ---------- --- - --- ----- ----- ----<br>---- --- --- ----- --- ---- ---- ------- ----- ---- -------<br>--- --- -- ----- -- you ---- -- --- ---- -- ------ ------<br>--- ----- -- ----,167132,167166,166781,166765.00000000003,166797,167163,,44,you
screen,html.Screen,1_1_0_1_45,2021-04-26T14:12:14.898Z,,,,,,,,,,,,,,,,53,,,,,,,,,,,,,,405,,response,,,,99,,,,,,,Space,keypress(Space),,,,,,,,---- -- ----- -- ------ - ------- --- ----------<br>------------- ------ ------ ---- ---- ------- ----- -- ----<br>-------- ------- -- ---------- --- - --- ----- ----- ----<br>---- --- --- ----- --- ---- ---- ------- ----- ---- -------<br>--- --- -- ----- -- --- want -- --- ---- -- ------ ------<br>--- ----- -- ----,167518,167552,167147,167132,167163,167547,,45,want
screen,html.Screen,1_1_0_1_46,2021-04-26T14:12:15.382Z,,,,,,,,,,,,,,,,53,,,,,,,,,,,,,,505,,response,,,,99,,,,,,,Space,keypress(Space),,,,,,,,---- -- ----- -- ------ - ------- --- ----------<br>------------- ------ ------ ---- ---- ------- ----- -- ----<br>-------- ------- -- ---------- --- - --- ----- ----- ----<br>---- --- --- ----- --- ---- ---- ------- ----- ---- -------<br>--- --- -- ----- -- --- ---- to --- ---- -- ------ ------<br>--- ----- -- ----,168002,168036,167531,167518,167547,168030,,46,to
screen,html.Screen,1_1_0_1_47,2021-04-26T14:12:15.774Z,,,,,,,,,,,,,,,,53,,,,,,,,,,,,,,414,,response,,,,99,,,,,,,Space,keypress(Space),,,,,,,,"---- -- ----- -- ------ - ------- --- ----------<br>------------- ------ ------ ---- ---- ------- ----- -- ----<br>-------- ------- -- ---------- --- - --- ----- ----- ----<br>---- --- --- ----- --- ---- ---- ------- ----- ---- -------<br>--- --- -- ----- -- --- ---- -- be, ---- -- ------ ------<br>--- ----- -- ----",168394,168428,168014,168002,168030,168430,,47,"be,"
screen,html.Screen,1_1_0_1_48,2021-04-26T14:12:16.324Z,,,,,,,,,,,,,,,,53,,,,,,,,,,,,,,564,,response,,,,99,,,,,,,Space,keypress(Space),,,,,,,,---- -- ----- -- ------ - ------- --- ----------<br>------------- ------ ------ ---- ---- ------- ----- -- ----<br>-------- ------- -- ---------- --- - --- ----- ----- ----<br>---- --- --- ----- --- ---- ---- ------- ----- ---- -------<br>--- --- -- ----- -- --- ---- -- --- even -- ------ ------<br>--- ----- -- ----,168944.00000000003,168978,168414,168394,168430,168981,,48,even
screen,html.Screen,1_1_0_1_49,2021-04-26T14:12:16.808Z,,,,,,,,,,,,,,,,53,,,,,,,,,,,,,,499.0000000000291,,response,,,,99,,,,,,,Space,keypress(Space),,,,,,,,---- -- ----- -- ------ - ------- --- ----------<br>------------- ------ ------ ---- ---- ------- ----- -- ----<br>-------- ------- -- ---------- --- - --- ----- ----- ----<br>---- --- --- ----- --- ---- ---- ------- ----- ---- -------<br>--- --- -- ----- -- --- ---- -- --- ---- if ------ ------<br>--- ----- -- ----,169428,169462.00000000003,168963,168944.00000000003,168981,169469,,49,if
screen,html.Screen,1_1_0_1_50,2021-04-26T14:12:17.235Z,,,,,,,,,,,,,,,,53,,,,,,,,,,,,,,437,,response,,,,99,,,,,,,Space,keypress(Space),,,,,,,,---- -- ----- -- ------ - ------- --- ----------<br>------------- ------ ------ ---- ---- ------- ----- -- ----<br>-------- ------- -- ---------- --- - --- ----- ----- ----<br>---- --- --- ----- --- ---- ---- ------- ----- ---- -------<br>--- --- -- ----- -- --- ---- -- --- ---- -- that's ------<br>--- ----- -- ----,169855,169889,169452,169428,169469,169885,,50,that's
screen,html.Screen,1_1_0_1_51,2021-04-26T14:12:17.672Z,,,,,,,,,,,,,,,,53,,,,,,,,,,,,,,458,,response,,,,99,,,,,,,Space,keypress(Space),,,,,,,,---- -- ----- -- ------ - ------- --- ----------<br>------------- ------ ------ ---- ---- ------- ----- -- ----<br>-------- ------- -- ---------- --- - --- ----- ----- ----<br>---- --- --- ----- --- ---- ---- ------- ----- ---- -------<br>--- --- -- ----- -- --- ---- -- --- ---- -- ------ really<br>--- ----- -- ----,170292,170326,169868,169855,169885,170318,,51,really
screen,html.Screen,1_1_0_1_52,2021-04-26T14:12:18.131Z,,,,,,,,,,,,,,,,53,,,,,,,,,,,,,,483,,response,,,,99,,,,,,,Space,keypress(Space),,,,,,,,---- -- ----- -- ------ - ------- --- ----------<br>------------- ------ ------ ---- ---- ------- ----- -- ----<br>-------- ------- -- ---------- --- - --- ----- ----- ----<br>---- --- --- ----- --- ---- ---- ------- ----- ---- -------<br>--- --- -- ----- -- --- ---- -- --- ---- -- ------ ------<br>not ----- -- ----,170751,170785,170302,170292,170318,170785,,52,not
screen,html.Screen,1_1_0_1_53,2021-04-26T14:12:18.505Z,,,,,,,,,,,,,,,,53,,,,,,,,,,,,,,390,,response,,,,99,,,,,,,Space,keypress(Space),,,,,,,,---- -- ----- -- ------ - ------- --- ----------<br>------------- ------ ------ ---- ---- ------- ----- -- ----<br>-------- ------- -- ---------- --- - --- ----- ----- ----<br>---- --- --- ----- --- ---- ---- ------- ----- ---- -------<br>--- --- -- ----- -- --- ---- -- --- ---- -- ------ ------<br>--- close -- ----,171125,171159,170769,170751,170785,171152,,53,close
screen,html.Screen,1_1_0_1_54,2021-04-26T14:12:18.858Z,,,,,,,,,,,,,,,,53,,,,,,,,,,,,,,378,,response,,,,99,,,,,,,Space,keypress(Space),,,,,,,,---- -- ----- -- ------ - ------- --- ----------<br>------------- ------ ------ ---- ---- ------- ----- -- ----<br>-------- ------- -- ---------- --- - --- ----- ----- ----<br>---- --- --- ----- --- ---- ---- ------- ----- ---- -------<br>--- --- -- ----- -- --- ---- -- --- ---- -- ------ ------<br>--- ----- at ----,171478,171513,171135,171125,171152,171502,,54,at
screen,html.Screen,1_1_0_1_55,2021-04-26T14:12:19.790Z,,,,,,,,,,,,,,,,53,,,,,,,,,,,,,,959.0000000000291,,response,,,,99,,,,,,,Space,keypress(Space),,,,,,,,---- -- ----- -- ------ - ------- --- ----------<br>------------- ------ ------ ---- ---- ------- ----- -- ----<br>-------- ------- -- ---------- --- - --- ----- ----- ----<br>---- --- --- ----- --- ---- ---- ------- ----- ---- -------<br>--- --- -- ----- -- --- ---- -- --- ---- -- ------ ------<br>--- ----- -- all.,172410,172444.00000000003,171485,171478,171502,172452,,55,all.
Item 99,flow.Loop,1_1_0_1,2021-04-26T14:12:19.790Z,,,,,,,,,,,,,,,,,,,,,,,,,,,,,,27181.00000000003,,completion,,,,,C,,,,,,,,,,,silence,,,,,172410,172444.00000000003,145246,145247,145263,172452,,,
Question 1,html.Screen,1_1_0_2,2021-04-26T14:12:27.928Z,,,,,,,,,,,,,,,,,,,,,,,,,,,true,FALSE,,8150,,response,,,,99,C,,,,,,FALSE,click #choice-2,,,,silence,,,,,180548,180585,172435,172410,172452,180567,,,
Question 2,html.Screen,1_1_0_3,2021-04-26T14:12:31.161Z,,,,,,,,,,,,,,,,,,,,,,,,,,,true,TRUE,,3267,,response,,,,99,C,,,,,,TRUE,click #choice-1,,,,silence,,,,,183782,183818,180551,180549,180567,183800,,,
Item 99,flow.Sequence,1_1_0,2021-04-26T14:12:31.162Z,,,,,,,,,,,,,,,,,,,,,,,,,,,,,,48561,,completion,,,,,,,,,,,,,,,,,,,,,183782,183818,135245,135241,135257,183800,,,
Holding screen,html.Screen,1_1_1_0,2021-04-26T14:12:41.156Z,,,,,,,,,,,,,,,,,,,,,,,,,,,,,,9992,,timeout,,,,,,,,,,,,,,,,,,,,,193777.00000000003,193776,183784,183782,183800,193792,,,
screen,html.Screen,1_1_1_1_0,2021-04-26T14:12:42.495Z,,,,,,,,,,,,,,,,54,,,,,,,,,,,,,,1373,,response,,,,100,,,,,,,Space,keypress(Space),,,,,,,,At --- ---- --- ------ ----- ------- ---- -- --- ------- --<br>------- ---------- ------ -- ----- -- ----- -- ---- ------<br>--- ----- --- --- ------ -------- ----- --- ------ ----- --<br>----- ----- ---------- --- --- ------ ------ ---- -- ------<br>------- --- ------ ----- --- ---- ------- -- ---- --- --<br>------- ------,195115,195149,193776,193777.00000000003,193792,195142,,0,At
screen,html.Screen,1_1_1_1_1,2021-04-26T14:12:42.901Z,,,,,,,,,,,,,,,,54,,,,,,,,,,,,,,431.0000000000291,,response,,,,100,,,,,,,Space,keypress(Space),,,,,,,,-- the ---- --- ------ ----- ------- ---- -- --- ------- --<br>------- ---------- ------ -- ----- -- ----- -- ---- ------<br>--- ----- --- --- ------ -------- ----- --- ------ ----- --<br>----- ----- ---------- --- --- ------ ------ ---- -- ------<br>------- --- ------ ----- --- ---- ------- -- ---- --- --<br>------- ------,195522,195557.00000000003,195126,195115,195142,195560,,1,the
screen,html.Screen,1_1_1_1_2,2021-04-26T14:12:43.334Z,,,,,,,,,,,,,,,,54,,,,,,,,,,,,,,446,,response,,,,100,,,,,,,Space,keypress(Space),,,,,,,,-- --- time --- ------ ----- ------- ---- -- --- ------- --<br>------- ---------- ------ -- ----- -- ----- -- ---- ------<br>--- ----- --- --- ------ -------- ----- --- ------ ----- --<br>----- ----- ---------- --- --- ------ ------ ---- -- ------<br>------- --- ------ ----- --- ---- ------- -- ---- --- --<br>------- ------,195954,195989,195543,195522,195560,195993,,2,time
screen,html.Screen,1_1_1_1_3,2021-04-26T14:12:43.738Z,,,,,,,,,,,,,,,,54,,,,,,,,,,,,,,417,,response,,,,100,,,,,,,Space,keypress(Space),,,,,,,,-- --- ---- the ------ ----- ------- ---- -- --- ------- --<br>------- ---------- ------ -- ----- -- ----- -- ---- ------<br>--- ----- --- --- ------ -------- ----- --- ------ ----- --<br>----- ----- ---------- --- --- ------ ------ ---- -- ------<br>------- --- ------ ----- --- ---- ------- -- ---- --- --<br>------- ------,196359,196393,195976,195954,195993,196394,,3,the
screen,html.Screen,1_1_1_1_4,2021-04-26T14:12:44.192Z,,,,,,,,,,,,,,,,54,,,,,,,,,,,,,,472,,response,,,,100,,,,,,,Space,keypress(Space),,,,,,,,-- --- ---- --- French ----- ------- ---- -- --- ------- --<br>------- ---------- ------ -- ----- -- ----- -- ---- ------<br>--- ----- --- --- ------ -------- ----- --- ------ ----- --<br>----- ----- ---------- --- --- ------ ------ ---- -- ------<br>------- --- ------ ----- --- ---- ------- -- ---- --- --<br>------- ------,196813.00000000003,196848,196376,196359,196394,196843,,4,French
screen,html.Screen,1_1_1_1_5,2021-04-26T14:12:44.781Z,,,,,,,,,,,,,,,,54,,,,,,,,,,,,,,610,,response,,,,100,,,,,,,Space,keypress(Space),,,,,,,,-- --- ---- --- ------ crown ------- ---- -- --- ------- --<br>------- ---------- ------ -- ----- -- ----- -- ---- ------<br>--- ----- --- --- ------ -------- ----- --- ------ ----- --<br>----- ----- ---------- --- --- ------ ------ ---- -- ------<br>------- --- ------ ----- --- ---- ------- -- ---- --- --<br>------- ------,197402.00000000003,197437,196827,196813.00000000003,196843,197443,,5,crown
screen,html.Screen,1_1_1_1_6,2021-04-26T14:12:45.211Z,,,,,,,,,,,,,,,,54,,,,,,,,,,,,,,440,,response,,,,100,,,,,,,Space,keypress(Space),,,,,,,,-- --- ---- --- ------ ----- secured ---- -- --- ------- --<br>------- ---------- ------ -- ----- -- ----- -- ---- ------<br>--- ----- --- --- ------ -------- ----- --- ------ ----- --<br>----- ----- ---------- --- --- ------ ------ ---- -- ------<br>------- --- ------ ----- --- ---- ------- -- ---- --- --<br>------- ------,197832,197867,197427,197402.00000000003,197443,197859,,6,secured
screen,html.Screen,1_1_1_1_7,2021-04-26T14:12:45.672Z,,,,,,,,,,,,,,,,54,,,,,,,,,,,,,,485,,response,,,,100,,,,,,,Space,keypress(Space),,,,,,,,-- --- ---- --- ------ ----- ------- much -- --- ------- --<br>------- ---------- ------ -- ----- -- ----- -- ---- ------<br>--- ----- --- --- ------ -------- ----- --- ------ ----- --<br>----- ----- ---------- --- --- ------ ------ ---- -- ------<br>------- --- ------ ----- --- ---- ------- -- ---- --- --<br>------- ------,198293,198328,197843,197832,197859,198327,,7,much
screen,html.Screen,1_1_1_1_8,2021-04-26T14:12:46.115Z,,,,,,,,,,,,,,,,54,,,,,,,,,,,,,,461.0000000000291,,response,,,,100,,,,,,,Space,keypress(Space),,,,,,,,-- --- ---- --- ------ ----- ------- ---- of --- ------- --<br>------- ---------- ------ -- ----- -- ----- -- ---- ------<br>--- ----- --- --- ------ -------- ----- --- ------ ----- --<br>----- ----- ---------- --- --- ------ ------ ---- -- ------<br>------- --- ------ ----- --- ---- ------- -- ---- --- --<br>------- ------,198736,198771.00000000003,198310,198293,198327,198776,,8,of
screen,html.Screen,1_1_1_1_9,2021-04-26T14:12:46.754Z,,,,,,,,,,,,,,,,54,,,,,,,,,,,,,,650,,response,,,,100,,,,,,,Space,keypress(Space),,,,,,,,-- --- ---- --- ------ ----- ------- ---- -- its ------- --<br>------- ---------- ------ -- ----- -- ----- -- ---- ------<br>--- ----- --- --- ------ -------- ----- --- ------ ----- --<br>----- ----- ---------- --- --- ------ ------ ---- -- ------<br>------- --- ------ ----- --- ---- ------- -- ---- --- --<br>------- ------,199374,199410,198760,198736,198776,199410,,9,its
screen,html.Screen,1_1_1_1_10,2021-04-26T14:12:47.296Z,,,,,,,,,,,,,,,,54,,,,,,,,,,,,,,559,,response,,,,100,,,,,,,Space,keypress(Space),,,,,,,,-- --- ---- --- ------ ----- ------- ---- -- --- revenue --<br>------- ---------- ------ -- ----- -- ----- -- ---- ------<br>--- ----- --- --- ------ -------- ----- --- ------ ----- --<br>----- ----- ---------- --- --- ------ ------ ---- -- ------<br>------- --- ------ ----- --- ---- ------- -- ---- --- --<br>------- ------,199917,199952,199393,199374,199410,199960,,10,revenue
screen,html.Screen,1_1_1_1_11,2021-04-26T14:12:47.728Z,,,,,,,,,,,,,,,,54,,,,,,,,,,,,,,441,,response,,,,100,,,,,,,Space,keypress(Space),,,,,,,,-- --- ---- --- ------ ----- ------- ---- -- --- ------- by<br>------- ---------- ------ -- ----- -- ----- -- ---- ------<br>--- ----- --- --- ------ -------- ----- --- ------ ----- --<br>----- ----- ---------- --- --- ------ ------ ---- -- ------<br>------- --- ------ ----- --- ---- ------- -- ---- --- --<br>------- ------,200349.00000000003,200384,199943,199917,199960,200376,,11,by
screen,html.Screen,1_1_1_1_12,2021-04-26T14:12:48.101Z,,,,,,,,,,,,,,,,54,,,,,,,,,,,,,,397,,response,,,,100,,,,,,,Space,keypress(Space),,,,,,,,-- --- ---- --- ------ ----- ------- ---- -- --- ------- --<br>issuing ---------- ------ -- ----- -- ----- -- ---- ------<br>--- ----- --- --- ------ -------- ----- --- ------ ----- --<br>----- ----- ---------- --- --- ------ ------ ---- -- ------<br>------- --- ------ ----- --- ---- ------- -- ---- --- --<br>------- ------,200722,200757,200360,200349.00000000003,200376,200748,,12,issuing
screen,html.Screen,1_1_1_1_13,2021-04-26T14:12:48.502Z,,,,,,,,,,,,,,,,54,,,,,,,,,,,,,,426,,response,,,,100,,,,,,,Space,keypress(Space),,,,,,,,-- --- ---- --- ------ ----- ------- ---- -- --- ------- --<br>------- government ------ -- ----- -- ----- -- ---- ------<br>--- ----- --- --- ------ -------- ----- --- ------ ----- --<br>----- ----- ---------- --- --- ------ ------ ---- -- ------<br>------- --- ------ ----- --- ---- ------- -- ---- --- --<br>------- ------,201122,201157,200731,200722,200748,201164,,13,government
screen,html.Screen,1_1_1_1_14,2021-04-26T14:12:48.882Z,,,,,,,,,,,,,,,,54,,,,,,,,,,,,,,391,,response,,,,100,,,,,,,Space,keypress(Space),,,,,,,,-- --- ---- --- ------ ----- ------- ---- -- --- ------- --<br>------- ---------- bonds. -- ----- -- ----- -- ---- ------<br>--- ----- --- --- ------ -------- ----- --- ------ ----- --<br>----- ----- ---------- --- --- ------ ------ ---- -- ------<br>------- --- ------ ----- --- ---- ------- -- ---- --- --<br>------- ------,201503,201538,201147,201123,201164,201531,,14,bonds.
screen,html.Screen,1_1_1_1_15,2021-04-26T14:12:49.310Z,,,,,,,,,,,,,,,,54,,,,,,,,,,,,,,451,,response,,,,100,,,,,,,Space,keypress(Space),,,,,,,,-- --- ---- --- ------ ----- ------- ---- -- --- ------- --<br>------- ---------- ------ In ----- -- ----- -- ---- ------<br>--- ----- --- --- ------ -------- ----- --- ------ ----- --<br>----- ----- ---------- --- --- ------ ------ ---- -- ------<br>------- --- ------ ----- --- ---- ------- -- ---- --- --<br>------- ------,201931,201966,201515,201503,201531,201964,,15,In
screen,html.Screen,1_1_1_1_16,2021-04-26T14:12:49.923Z,,,,,,,,,,,,,,,,54,,,,,,,,,,,,,,632,,response,,,,100,,,,,,,Space,keypress(Space),,,,,,,,"-- --- ---- --- ------ ----- ------- ---- -- --- ------- --<br>------- ---------- ------ -- 1727, -- ----- -- ---- ------<br>--- ----- --- --- ------ -------- ----- --- ------ ----- --<br>----- ----- ---------- --- --- ------ ------ ---- -- ------<br>------- --- ------ ----- --- ---- ------- -- ---- --- --<br>------- ------",202544,202579,201947,201931,201964,202582,,16,"1727,"
screen,html.Screen,1_1_1_1_17,2021-04-26T14:12:50.492Z,,,,,,,,,,,,,,,,54,,,,,,,,,,,,,,583,,response,,,,100,,,,,,,Space,keypress(Space),,,,,,,,-- --- ---- --- ------ ----- ------- ---- -- --- ------- --<br>------- ---------- ------ -- ----- in ----- -- ---- ------<br>--- ----- --- --- ------ -------- ----- --- ------ ----- --<br>----- ----- ---------- --- --- ------ ------ ---- -- ------<br>------- --- ------ ----- --- ---- ------- -- ---- --- --<br>------- ------,203113,203148,202565,202544,202582,203148,,17,in
screen,html.Screen,1_1_1_1_18,2021-04-26T14:12:51.090Z,,,,,,,,,,,,,,,,54,,,,,,,,,,,,,,615,,response,,,,100,,,,,,,Space,keypress(Space),,,,,,,,-- --- ---- --- ------ ----- ------- ---- -- --- ------- --<br>------- ---------- ------ -- ----- -- order -- ---- ------<br>--- ----- --- --- ------ -------- ----- --- ------ ----- --<br>----- ----- ---------- --- --- ------ ------ ---- -- ------<br>------- --- ------ ----- --- ---- ------- -- ---- --- --<br>------- ------,203710,203746,203131,203113,203148,203747,,18,order
screen,html.Screen,1_1_1_1_19,2021-04-26T14:12:51.458Z,,,,,,,,,,,,,,,,54,,,,,,,,,,,,,,384,,response,,,,100,,,,,,,Space,keypress(Space),,,,,,,,-- --- ---- --- ------ ----- ------- ---- -- --- ------- --<br>------- ---------- ------ -- ----- -- ----- to ---- ------<br>--- ----- --- --- ------ -------- ----- --- ------ ----- --<br>----- ----- ---------- --- --- ------ ------ ---- -- ------<br>------- --- ------ ----- --- ---- ------- -- ---- --- --<br>------- ------,204079,204115,203731,203711,203747,204097,,19,to
screen,html.Screen,1_1_1_1_20,2021-04-26T14:12:51.834Z,,,,,,,,,,,,,,,,54,,,,,,,,,,,,,,409,,response,,,,100,,,,,,,Space,keypress(Space),,,,,,,,-- --- ---- --- ------ ----- ------- ---- -- --- ------- --<br>------- ---------- ------ -- ----- -- ----- -- save ------<br>--- ----- --- --- ------ -------- ----- --- ------ ----- --<br>----- ----- ---------- --- --- ------ ------ ---- -- ------<br>------- --- ------ ----- --- ---- ------- -- ---- --- --<br>------- ------,204455,204490,204081,204079,204097,204498,,20,save
screen,html.Screen,1_1_1_1_21,2021-04-26T14:12:52.204Z,,,,,,,,,,,,,,,,54,,,,,,,,,,,,,,379,,response,,,,100,,,,,,,Space,keypress(Space),,,,,,,,"-- --- ---- --- ------ ----- ------- ---- -- --- ------- --<br>------- ---------- ------ -- ----- -- ----- -- ---- money,<br>--- ----- --- --- ------ -------- ----- --- ------ ----- --<br>----- ----- ---------- --- --- ------ ------ ---- -- ------<br>------- --- ------ ----- --- ---- ------- -- ---- --- --<br>------- ------",204824,204860,204481,204455,204498,204847,,21,"money,"
screen,html.Screen,1_1_1_1_22,2021-04-26T14:12:52.592Z,,,,,,,,,,,,,,,,54,,,,,,,,,,,,,,417,,response,,,,100,,,,,,,Space,keypress(Space),,,,,,,,-- --- ---- --- ------ ----- ------- ---- -- --- ------- --<br>------- ---------- ------ -- ----- -- ----- -- ---- ------<br>the ----- --- --- ------ -------- ----- --- ------ ----- --<br>----- ----- ---------- --- --- ------ ------ ---- -- ------<br>------- --- ------ ----- --- ---- ------- -- ---- --- --<br>------- ------,205213,205248,204831,204825.00000000003,204847,205248,,22,the
screen,html.Screen,1_1_1_1_23,2021-04-26T14:12:52.929Z,,,,,,,,,,,,,,,,54,,,,,,,,,,,,,,353,,response,,,,100,,,,,,,Space,keypress(Space),,,,,,,,-- --- ---- --- ------ ----- ------- ---- -- --- ------- --<br>------- ---------- ------ -- ----- -- ----- -- ---- ------<br>--- state --- --- ------ -------- ----- --- ------ ----- --<br>----- ----- ---------- --- --- ------ ------ ---- -- ------<br>------- --- ------ ----- --- ---- ------- -- ---- --- --<br>------- ------,205550,205585,205232,205213,205248,205582,,23,state
screen,html.Screen,1_1_1_1_24,2021-04-26T14:12:53.267Z,,,,,,,,,,,,,,,,54,,,,,,,,,,,,,,358,,response,,,,100,,,,,,,Space,keypress(Space),,,,,,,,-- --- ---- --- ------ ----- ------- ---- -- --- ------- --<br>------- ---------- ------ -- ----- -- ----- -- ---- ------<br>--- ----- cut --- ------ -------- ----- --- ------ ----- --<br>----- ----- ---------- --- --- ------ ------ ---- -- ------<br>------- --- ------ ----- --- ---- ------- -- ---- --- --<br>------- ------,205887,205923,205565,205550,205582,205919,,24,cut
screen,html.Screen,1_1_1_1_25,2021-04-26T14:12:53.628Z,,,,,,,,,,,,,,,,54,,,,,,,,,,,,,,381.0000000000291,,response,,,,100,,,,,,,Space,keypress(Space),,,,,,,,-- --- ---- --- ------ ----- ------- ---- -- --- ------- --<br>------- ---------- ------ -- ----- -- ----- -- ---- ------<br>--- ----- --- the ------ -------- ----- --- ------ ----- --<br>----- ----- ---------- --- --- ------ ------ ---- -- ------<br>------- --- ------ ----- --- ---- ------- -- ---- --- --<br>------- ------,206249,206283.00000000003,205902,205888,205919,206269,,25,the
screen,html.Screen,1_1_1_1_26,2021-04-26T14:12:53.969Z,,,,,,,,,,,,,,,,54,,,,,,,,,,,,,,374,,response,,,,100,,,,,,,Space,keypress(Space),,,,,,,,-- --- ---- --- ------ ----- ------- ---- -- --- ------- --<br>------- ---------- ------ -- ----- -- ----- -- ---- ------<br>--- ----- --- --- bonds' -------- ----- --- ------ ----- --<br>----- ----- ---------- --- --- ------ ------ ---- -- ------<br>------- --- ------ ----- --- ---- ------- -- ---- --- --<br>------- ------,206590,206626,206252,206249,206269,206619,,26,bonds'
screen,html.Screen,1_1_1_1_27,2021-04-26T14:12:54.505Z,,,,,,,,,,,,,,,,54,,,,,,,,,,,,,,560,,response,,,,100,,,,,,,Space,keypress(Space),,,,,,,,-- --- ---- --- ------ ----- ------- ---- -- --- ------- --<br>------- ---------- ------ -- ----- -- ----- -- ---- ------<br>--- ----- --- --- ------ interest ----- --- ------ ----- --<br>----- ----- ---------- --- --- ------ ------ ---- -- ------<br>------- --- ------ ----- --- ---- ------- -- ---- --- --<br>------- ------,207126,207162,206602,206590,206619,207168,,27,interest
screen,html.Screen,1_1_1_1_28,2021-04-26T14:12:54.956Z,,,,,,,,,,,,,,,,54,,,,,,,,,,,,,,461,,response,,,,100,,,,,,,Space,keypress(Space),,,,,,,,-- --- ---- --- ------ ----- ------- ---- -- --- ------- --<br>------- ---------- ------ -- ----- -- ----- -- ---- ------<br>--- ----- --- --- ------ -------- rate. --- ------ ----- --<br>----- ----- ---------- --- --- ------ ------ ---- -- ------<br>------- --- ------ ----- --- ---- ------- -- ---- --- --<br>------- ------,207577,207613,207152,207126,207168,207619,,28,rate.
screen,html.Screen,1_1_1_1_29,2021-04-26T14:12:55.369Z,,,,,,,,,,,,,,,,54,,,,,,,,,,,,,,424,,response,,,,100,,,,,,,Space,keypress(Space),,,,,,,,-- --- ---- --- ------ ----- ------- ---- -- --- ------- --<br>------- ---------- ------ -- ----- -- ----- -- ---- ------<br>--- ----- --- --- ------ -------- ----- The ------ ----- --<br>----- ----- ---------- --- --- ------ ------ ---- -- ------<br>------- --- ------ ----- --- ---- ------- -- ---- --- --<br>------- ------,207990,208026,207602,207578,207619,208019,,29,The
screen,html.Screen,1_1_1_1_30,2021-04-26T14:12:56.176Z,,,,,,,,,,,,,,,,54,,,,,,,,,,,,,,832,,response,,,,100,,,,,,,Space,keypress(Space),,,,,,,,-- --- ---- --- ------ ----- ------- ---- -- --- ------- --<br>------- ---------- ------ -- ----- -- ----- -- ---- ------<br>--- ----- --- --- ------ -------- ----- --- market ----- --<br>----- ----- ---------- --- --- ------ ------ ---- -- ------<br>------- --- ------ ----- --- ---- ------- -- ---- --- --<br>------- ------,208797,208833,208001,207991,208019,208835,,30,market
screen,html.Screen,1_1_1_1_31,2021-04-26T14:12:56.619Z,,,,,,,,,,,,,,,,54,,,,,,,,,,,,,,457,,response,,,,100,,,,,,,Space,keypress(Space),,,,,,,,-- --- ---- --- ------ ----- ------- ---- -- --- ------- --<br>------- ---------- ------ -- ----- -- ----- -- ---- ------<br>--- ----- --- --- ------ -------- ----- --- ------ value --<br>----- ----- ---------- --- --- ------ ------ ---- -- ------<br>------- --- ------ ----- --- ---- ------- -- ---- --- --<br>------- ------,209240,209276,208819,208797,208835,209269,,31,value
screen,html.Screen,1_1_1_1_32,2021-04-26T14:12:56.983Z,,,,,,,,,,,,,,,,54,,,,,,,,,,,,,,389.0000000000291,,response,,,,100,,,,,,,Space,keypress(Space),,,,,,,,-- --- ---- --- ------ ----- ------- ---- -- --- ------- --<br>------- ---------- ------ -- ----- -- ----- -- ---- ------<br>--- ----- --- --- ------ -------- ----- --- ------ ----- of<br>----- ----- ---------- --- --- ------ ------ ---- -- ------<br>------- --- ------ ----- --- ---- ------- -- ---- --- --<br>------- ------,209604,209640.00000000003,209251,209240,209269,209635,,32,of
screen,html.Screen,1_1_1_1_33,2021-04-26T14:12:57.316Z,,,,,,,,,,,,,,,,54,,,,,,,,,,,,,,353,,response,,,,100,,,,,,,Space,keypress(Space),,,,,,,,-- --- ---- --- ------ ----- ------- ---- -- --- ------- --<br>------- ---------- ------ -- ----- -- ----- -- ---- ------<br>--- ----- --- --- ------ -------- ----- --- ------ ----- --<br>these ----- ---------- --- --- ------ ------ ---- -- ------<br>------- --- ------ ----- --- ---- ------- -- ---- --- --<br>------- ------,209937,209972,209619,209604,209635,209968,,33,these
screen,html.Screen,1_1_1_1_34,2021-04-26T14:12:57.626Z,,,,,,,,,,,,,,,,54,,,,,,,,,,,,,,330,,response,,,,100,,,,,,,Space,keypress(Space),,,,,,,,-- --- ---- --- ------ ----- ------- ---- -- --- ------- --<br>------- ---------- ------ -- ----- -- ----- -- ---- ------<br>--- ----- --- --- ------ -------- ----- --- ------ ----- --<br>----- bonds ---------- --- --- ------ ------ ---- -- ------<br>------- --- ------ ----- --- ---- ------- -- ---- --- --<br>------- ------,210247,210282,209952,209937,209968,210269,,34,bonds
screen,html.Screen,1_1_1_1_35,2021-04-26T14:12:57.969Z,,,,,,,,,,,,,,,,54,,,,,,,,,,,,,,374,,response,,,,100,,,,,,,Space,keypress(Space),,,,,,,,"-- --- ---- --- ------ ----- ------- ---- -- --- ------- --<br>------- ---------- ------ -- ----- -- ----- -- ---- ------<br>--- ----- --- --- ------ -------- ----- --- ------ ----- --<br>----- ----- plummeted, --- --- ------ ------ ---- -- ------<br>------- --- ------ ----- --- ---- ------- -- ---- --- --<br>------- ------",210590,210626,210252,210247,210269,210619,,35,"plummeted,"
screen,html.Screen,1_1_1_1_36,2021-04-26T14:12:58.379Z,,,,,,,,,,,,,,,,54,,,,,,,,,,,,,,434,,response,,,,100,,,,,,,Space,keypress(Space),,,,,,,,-- --- ---- --- ------ ----- ------- ---- -- --- ------- --<br>------- ---------- ------ -- ----- -- ----- -- ---- ------<br>--- ----- --- --- ------ -------- ----- --- ------ ----- --<br>----- ----- ---------- and --- ------ ------ ---- -- ------<br>------- --- ------ ----- --- ---- ------- -- ---- --- --<br>------- ------,211001,211036,210602,210591,210619,211040,,36,and
screen,html.Screen,1_1_1_1_37,2021-04-26T14:12:58.741Z,,,,,,,,,,,,,,,,54,,,,,,,,,,,,,,375,,response,,,,100,,,,,,,Space,keypress(Space),,,,,,,,-- --- ---- --- ------ ----- ------- ---- -- --- ------- --<br>------- ---------- ------ -- ----- -- ----- -- ---- ------<br>--- ----- --- --- ------ -------- ----- --- ------ ----- --<br>----- ----- ---------- --- the ------ ------ ---- -- ------<br>------- --- ------ ----- --- ---- ------- -- ---- --- --<br>------- ------,211362,211398,211023,211001,211040,211390,,37,the
screen,html.Screen,1_1_1_1_38,2021-04-26T14:12:59.123Z,,,,,,,,,,,,,,,,54,,,,,,,,,,,,,,407,,response,,,,100,,,,,,,Space,keypress(Space),,,,,,,,-- --- ---- --- ------ ----- ------- ---- -- --- ------- --<br>------- ---------- ------ -- ----- -- ----- -- ---- ------<br>--- ----- --- --- ------ -------- ----- --- ------ ----- --<br>----- ----- ---------- --- --- market ------ ---- -- ------<br>------- --- ------ ----- --- ---- ------- -- ---- --- --<br>------- ------,211744,211780,211373,211362,211390,211773,,38,market
screen,html.Screen,1_1_1_1_39,2021-04-26T14:12:59.500Z,,,,,,,,,,,,,,,,54,,,,,,,,,,,,,,401,,response,,,,100,,,,,,,Space,keypress(Space),,,,,,,,-- --- ---- --- ------ ----- ------- ---- -- --- ------- --<br>------- ---------- ------ -- ----- -- ----- -- ---- ------<br>--- ----- --- --- ------ -------- ----- --- ------ ----- --<br>----- ----- ---------- --- --- ------ became ---- -- ------<br>------- --- ------ ----- --- ---- ------- -- ---- --- --<br>------- ------,212121,212157,211756,211745,211773,212140,,39,became
screen,html.Screen,1_1_1_1_40,2021-04-26T14:12:59.905Z,,,,,,,,,,,,,,,,54,,,,,,,,,,,,,,440,,response,,,,100,,,,,,,Space,keypress(Space),,,,,,,,-- --- ---- --- ------ ----- ------- ---- -- --- ------- --<br>------- ---------- ------ -- ----- -- ----- -- ---- ------<br>--- ----- --- --- ------ -------- ----- --- ------ ----- --<br>----- ----- ---------- --- --- ------ ------ wary -- ------<br>------- --- ------ ----- --- ---- ------- -- ---- --- --<br>------- ------,212526,212562,212122,212122,212140,212556,,40,wary
screen,html.Screen,1_1_1_1_41,2021-04-26T14:13:00.309Z,,,,,,,,,,,,,,,,54,,,,,,,,,,,,,,426,,response,,,,100,,,,,,,Space,keypress(Space),,,,,,,,-- --- ---- --- ------ ----- ------- ---- -- --- ------- --<br>------- ---------- ------ -- ----- -- ----- -- ---- ------<br>--- ----- --- --- ------ -------- ----- --- ------ ----- --<br>----- ----- ---------- --- --- ------ ------ ---- of ------<br>------- --- ------ ----- --- ---- ------- -- ---- --- --<br>------- ------,212930,212966,212540,212526,212556,212972,,41,of
screen,html.Screen,1_1_1_1_42,2021-04-26T14:13:00.675Z,,,,,,,,,,,,,,,,54,,,,,,,,,,,,,,375,,response,,,,100,,,,,,,Space,keypress(Space),,,,,,,,-- --- ---- --- ------ ----- ------- ---- -- --- ------- --<br>------- ---------- ------ -- ----- -- ----- -- ---- ------<br>--- ----- --- --- ------ -------- ----- --- ------ ----- --<br>----- ----- ---------- --- --- ------ ------ ---- -- French<br>------- --- ------ ----- --- ---- ------- -- ---- --- --<br>------- ------,213297,213332,212957,212930,212972,213323,,42,French
screen,html.Screen,1_1_1_1_43,2021-04-26T14:13:01.093Z,,,,,,,,,,,,,,,,54,,,,,,,,,,,,,,442,,response,,,,100,,,,,,,Space,keypress(Space),,,,,,,,-- --- ---- --- ------ ----- ------- ---- -- --- ------- --<br>------- ---------- ------ -- ----- -- ----- -- ---- ------<br>--- ----- --- --- ------ -------- ----- --- ------ ----- --<br>----- ----- ---------- --- --- ------ ------ ---- -- ------<br>credit. --- ------ ----- --- ---- ------- -- ---- --- --<br>------- ------,213714,213749,213307,213297,213323,213757,,43,credit.
screen,html.Screen,1_1_1_1_44,2021-04-26T14:13:01.499Z,,,,,,,,,,,,,,,,54,,,,,,,,,,,,,,416,,response,,,,100,,,,,,,Space,keypress(Space),,,,,,,,-- --- ---- --- ------ ----- ------- ---- -- --- ------- --<br>------- ---------- ------ -- ----- -- ----- -- ---- ------<br>--- ----- --- --- ------ -------- ----- --- ------ ----- --<br>----- ----- ---------- --- --- ------ ------ ---- -- ------<br>------- The ------ ----- --- ---- ------- -- ---- --- --<br>------- ------,214121,214156,213740,213714,213757,214156,,44,The
screen,html.Screen,1_1_1_1_45,2021-04-26T14:13:01.776Z,,,,,,,,,,,,,,,,54,,,,,,,,,,,,,,293.0000000000291,,response,,,,100,,,,,,,Space,keypress(Space),,,,,,,,-- --- ---- --- ------ ----- ------- ---- -- --- ------- --<br>------- ---------- ------ -- ----- -- ----- -- ---- ------<br>--- ----- --- --- ------ -------- ----- --- ------ ----- --<br>----- ----- ---------- --- --- ------ ------ ---- -- ------<br>------- --- French ----- --- ---- ------- -- ---- --- --<br>------- ------,214397,214432.00000000003,214139,214121,214156,214422,,45,French
screen,html.Screen,1_1_1_1_46,2021-04-26T14:13:02.281Z,,,,,,,,,,,,,,,,54,,,,,,,,,,,,,,531,,response,,,,100,,,,,,,Space,keypress(Space),,,,,,,,-- --- ---- --- ------ ----- ------- ---- -- --- ------- --<br>------- ---------- ------ -- ----- -- ----- -- ---- ------<br>--- ----- --- --- ------ -------- ----- --- ------ ----- --<br>----- ----- ---------- --- --- ------ ------ ---- -- ------<br>------- --- ------ state --- ---- ------- -- ---- --- --<br>------- ------,214902.00000000003,214937,214406,214397,214422,214940,,46,state
screen,html.Screen,1_1_1_1_47,2021-04-26T14:13:02.767Z,,,,,,,,,,,,,,,,54,,,,,,,,,,,,,,501,,response,,,,100,,,,,,,Space,keypress(Space),,,,,,,,-- --- ---- --- ------ ----- ------- ---- -- --- ------- --<br>------- ---------- ------ -- ----- -- ----- -- ---- ------<br>--- ----- --- --- ------ -------- ----- --- ------ ----- --<br>----- ----- ---------- --- --- ------ ------ ---- -- ------<br>------- --- ------ ----- was ---- ------- -- ---- --- --<br>------- ------,215389,215424,214923,214902.00000000003,214940,215423,,47,was
screen,html.Screen,1_1_1_1_48,2021-04-26T14:13:03.265Z,,,,,,,,,,,,,,,,54,,,,,,,,,,,,,,515,,response,,,,100,,,,,,,Space,keypress(Space),,,,,,,,-- --- ---- --- ------ ----- ------- ---- -- --- ------- --<br>------- ---------- ------ -- ----- -- ----- -- ---- ------<br>--- ----- --- --- ------ -------- ----- --- ------ ----- --<br>----- ----- ---------- --- --- ------ ------ ---- -- ------<br>------- --- ------ ----- --- left ------- -- ---- --- --<br>------- ------,215886,215921,215406,215389,215423,215923,,48,left
screen,html.Screen,1_1_1_1_49,2021-04-26T14:13:03.660Z,,,,,,,,,,,,,,,,54,,,,,,,,,,,,,,410,,response,,,,100,,,,,,,Space,keypress(Space),,,,,,,,-- --- ---- --- ------ ----- ------- ---- -- --- ------- --<br>------- ---------- ------ -- ----- -- ----- -- ---- ------<br>--- ----- --- --- ------ -------- ----- --- ------ ----- --<br>----- ----- ---------- --- --- ------ ------ ---- -- ------<br>------- --- ------ ----- --- ---- without -- ---- --- --<br>------- ------,216281,216317,215907,215886,215923,216310,,49,without
screen,html.Screen,1_1_1_1_50,2021-04-26T14:13:03.982Z,,,,,,,,,,,,,,,,54,,,,,,,,,,,,,,345,,response,,,,100,,,,,,,Space,keypress(Space),,,,,,,,-- --- ---- --- ------ ----- ------- ---- -- --- ------- --<br>------- ---------- ------ -- ----- -- ----- -- ---- ------<br>--- ----- --- --- ------ -------- ----- --- ------ ----- --<br>----- ----- ---------- --- --- ------ ------ ---- -- ------<br>------- --- ------ ----- --- ---- ------- an ---- --- --<br>------- ------,216603,216639,216294,216281,216310,216627,,50,an
screen,html.Screen,1_1_1_1_51,2021-04-26T14:13:04.369Z,,,,,,,,,,,,,,,,54,,,,,,,,,,,,,,415,,response,,,,100,,,,,,,Space,keypress(Space),,,,,,,,-- --- ---- --- ------ ----- ------- ---- -- --- ------- --<br>------- ---------- ------ -- ----- -- ----- -- ---- ------<br>--- ----- --- --- ------ -------- ----- --- ------ ----- --<br>----- ----- ---------- --- --- ------ ------ ---- -- ------<br>------- --- ------ ----- --- ---- ------- -- easy --- --<br>------- ------,216991,217026,216611,216603,216627,217027,,51,easy
screen,html.Screen,1_1_1_1_52,2021-04-26T14:13:04.769Z,,,,,,,,,,,,,,,,54,,,,,,,,,,,,,,415.0000000000291,,response,,,,100,,,,,,,Space,keypress(Space),,,,,,,,-- --- ---- --- ------ ----- ------- ---- -- --- ------- --<br>------- ---------- ------ -- ----- -- ----- -- ---- ------<br>--- ----- --- --- ------ -------- ----- --- ------ ----- --<br>----- ----- ---------- --- --- ------ ------ ---- -- ------<br>------- --- ------ ----- --- ---- ------- -- ---- way --<br>------- ------,217390.00000000003,217426.00000000003,217011,216991,217027,217427,,52,way
screen,html.Screen,1_1_1_1_53,2021-04-26T14:13:05.052Z,,,,,,,,,,,,,,,,54,,,,,,,,,,,,,,298,,response,,,,100,,,,,,,Space,keypress(Space),,,,,,,,-- --- ---- --- ------ ----- ------- ---- -- --- ------- --<br>------- ---------- ------ -- ----- -- ----- -- ---- ------<br>--- ----- --- --- ------ -------- ----- --- ------ ----- --<br>----- ----- ---------- --- --- ------ ------ ---- -- ------<br>------- --- ------ ----- --- ---- ------- -- ---- --- of<br>------- ------,217673,217709,217411,217390.00000000003,217427,217694,,53,of
screen,html.Screen,1_1_1_1_54,2021-04-26T14:13:05.449Z,,,,,,,,,,,,,,,,54,,,,,,,,,,,,,,428,,response,,,,100,,,,,,,Space,keypress(Space),,,,,,,,-- --- ---- --- ------ ----- ------- ---- -- --- ------- --<br>------- ---------- ------ -- ----- -- ----- -- ---- ------<br>--- ----- --- --- ------ -------- ----- --- ------ ----- --<br>----- ----- ---------- --- --- ------ ------ ---- -- ------<br>------- --- ------ ----- --- ---- ------- -- ---- --- --<br>raising ------,218070,218106,217678,217674,217694,218111,,54,raising
screen,html.Screen,1_1_1_1_55,2021-04-26T14:13:06.144Z,,,,,,,,,,,,,,,,54,,,,,,,,,,,,,,707.0000000000291,,response,,,,100,,,,,,,Space,keypress(Space),,,,,,,,-- --- ---- --- ------ ----- ------- ---- -- --- ------- --<br>------- ---------- ------ -- ----- -- ----- -- ---- ------<br>--- ----- --- --- ------ -------- ----- --- ------ ----- --<br>----- ----- ---------- --- --- ------ ------ ---- -- ------<br>------- --- ------ ----- --- ---- ------- -- ---- --- --<br>------- money.,218766,218801.00000000003,218094,218070,218111,218795,,55,money.
Item 100,flow.Loop,1_1_1_1,2021-04-26T14:13:06.145Z,,,,,,,,,,,,,,,,,,,,,,,,,,,,,,25009.00000000003,,completion,,,,,C,,,,,,,,,,,silence,,,,,218766,218801.00000000003,193776,193777.00000000003,193792,218795,,,
Question 1,html.Screen,1_1_1_2,2021-04-26T14:13:08.969Z,,,,,,,,,,,,,,,,,,,,,,,,,,,true,TRUE,,2849,,response,,,,100,C,,,,,,TRUE,click #choice-1,,,,silence,,,,,221591,221627,218778,218766,218795,221622,,,
Question 2,html.Screen,1_1_1_3,2021-04-26T14:13:11.630Z,,,,,,,,,,,,,,,,,,,,,,,,,,,true,FALSE,,2682,,response,,,,100,C,,,,,,FALSE,click #choice-2,,,,silence,,,,,224251,224288,221606,221591,221622,224272,,,
Item 100,flow.Sequence,1_1_1,2021-04-26T14:13:11.630Z,,,,,,,,,,,,,,,,,,,,,,,,,,,,,,40488,,completion,,,,,,,,,,,,,,,,,,,,,224252,224288,183784,183782,183800,224272,,,
End of Practice,html.Page,1_1_2,2021-04-26T14:13:18.839Z,,,,,,,,,,,,,,,,,,,,,,,,,,,,,,7189,,form submission,,,,,,,,,,,,,,,,,,,,,231461,231461,224255,224252,224272,231485,,,
Practice,flow.Sequence,1_1,2021-04-26T14:13:18.840Z,,,,,,,,,,,,,,,,,,,,,,,,,,,,,,96204,,completion,,,,,,,,,,,,,,,,,,,,,231461,231461,135245,135241,135257,231485,,,
Trap_instruction,html.Page,1_2_0,2021-04-26T14:13:23.786Z,,,,,,,,,,,,,,,,,,,,,,,,,,,,,,4923.000000000029,,form submission,,,,,,,,,,,,,,,,,,,,,236408.00000000003,236408.00000000003,231468,231462.00000000003,231485,236424,,,
trap_trial,html.Screen,1_2_1,2021-04-26T14:13:26.314Z,,,,,,,,,,,,,,,,,,,,,,,,,,,true,1,,2552.000000000029,,response,,,,,,,,,,,1,click #choice-1,,,,,,,,,238936,238974.00000000003,236422,236408.00000000003,236424,238972,,,
end of trap trial,html.Page,1_2_2,2021-04-26T14:13:28.960Z,,,,,,,,,,,,,,,,,,,,,,,,,,,,,,2610,,form submission,,,,,,,,,,,,,,,,,,,,,241582,241582,238969,238936,238972,241610,,,
Trap 1,flow.Sequence,1_2,2021-04-26T14:13:28.960Z,,,,,,,,,,,,,,,,,,,,,,,,,,,,,,10097,,completion,,,,,,,,,,,,,,,,,,,,,241582,241582,231468,231462.00000000003,231485,241610,,,
Standby,html.Page,1_3_0,2021-04-26T14:13:36.970Z,,,,,,,,,,,,,,,,,,,,,,,,,,,,,,8000,,timeout,,,,,,,,,,,,,,,,,,,,,249593.00000000003,249592,241592,241582,241610,249610,,,
Holding screen,html.Screen,1_3_1_0_0,2021-04-26T14:13:43.979Z,,,,,,,,,,,,,,,,,,,,,,,,,,,,,,7008,,timeout,,,,,,,,,,,,,,,,,,,,,256601,256601,249592,249593.00000000003,249610,256618,,,
screen,html.Screen,1_3_1_0_1_0,2021-04-26T14:13:44.941Z,,,,,,,,,,,,,,,,2,,,,,,,,,,,,,,999.0000000000291,,response,,,,1,C,,,,,,Space,keypress(Space),,,,instrumental,,,,Two ---- ------ --- ------- ---------- ------- ----------<br>--- --------- --- ----------- ------- ----- ------- ---<br>--------- ---- -- --- ---- -- --------- -- ---- -------<br>-- --------- ------ --- ----- ------ ---- --- --------- --<br>------ - ---- -- --- ----------- ------- ---- ----- -----<br>--- -------- - ------ ---- -- ----- ---- --- --- -----------<br>-- -------,257564.00000000003,257600.00000000003,256601,256601,256618,257601,,0,Two
screen,html.Screen,1_3_1_0_1_1,2021-04-26T14:13:45.431Z,,,,,,,,,,,,,,,,2,,,,,,,,,,,,,,507,,response,,,,1,C,,,,,,Space,keypress(Space),,,,instrumental,,,,--- days ------ --- ------- ---------- ------- ----------<br>--- --------- --- ----------- ------- ----- ------- ---<br>--------- ---- -- --- ---- -- --------- -- ---- -------<br>-- --------- ------ --- ----- ------ ---- --- --------- --<br>------ - ---- -- --- ----------- ------- ---- ----- -----<br>--- -------- - ------ ---- -- ----- ---- --- --- -----------<br>-- -------,258054.00000000003,258091,257584,257564.00000000003,257601,258085,,1,days
screen,html.Screen,1_3_1_0_1_2,2021-04-26T14:13:45.819Z,,,,,,,,,,,,,,,,2,,,,,,,,,,,,,,410.9999999999709,,response,,,,1,C,,,,,,Space,keypress(Space),,,,instrumental,,,,"--- ---- later, --- ------- ---------- ------- ----------<br>--- --------- --- ----------- ------- ----- ------- ---<br>--------- ---- -- --- ---- -- --------- -- ---- -------<br>-- --------- ------ --- ----- ------ ---- --- --------- --<br>------ - ---- -- --- ----------- ------- ---- ----- -----<br>--- -------- - ------ ---- -- ----- ---- --- --- -----------<br>-- -------",258442,258478.99999999997,258068,258054.00000000003,258085,258485,,2,"later,"
screen,html.Screen,1_3_1_0_1_3,2021-04-26T14:13:46.256Z,,,,,,,,,,,,,,,,2,,,,,,,,,,,,,,447.0000000000291,,response,,,,1,C,,,,,,Space,keypress(Space),,,,instrumental,,,,--- ---- ------ the ------- ---------- ------- ----------<br>--- --------- --- ----------- ------- ----- ------- ---<br>--------- ---- -- --- ---- -- --------- -- ---- -------<br>-- --------- ------ --- ----- ------ ---- --- --------- --<br>------ - ---- -- --- ----------- ------- ---- ----- -----<br>--- -------- - ------ ---- -- ----- ---- --- --- -----------<br>-- -------,258878,258915.00000000003,258468,258442,258485,258917,,3,the
screen,html.Screen,1_3_1_0_1_4,2021-04-26T14:13:46.686Z,,,,,,,,,,,,,,,,2,,,,,,,,,,,,,,443.0000000000291,,response,,,,1,C,,,,,,Space,keypress(Space),,,,instrumental,,,,--- ---- ------ --- British ---------- ------- ----------<br>--- --------- --- ----------- ------- ----- ------- ---<br>--------- ---- -- --- ---- -- --------- -- ---- -------<br>-- --------- ------ --- ----- ------ ---- --- --------- --<br>------ - ---- -- --- ----------- ------- ---- ----- -----<br>--- -------- - ------ ---- -- ----- ---- --- --- -----------<br>-- -------,259309.00000000003,259345.00000000003,258902,258878,258917,259352,,4,British
screen,html.Screen,1_3_1_0_1_5,2021-04-26T14:13:47.143Z,,,,,,,,,,,,,,,,2,,,,,,,,,,,,,,469,,response,,,,1,C,,,,,,Space,keypress(Space),,,,instrumental,,,,--- ---- ------ --- ------- astronomer ------- ----------<br>--- --------- --- ----------- ------- ----- ------- ---<br>--------- ---- -- --- ---- -- --------- -- ---- -------<br>-- --------- ------ --- ----- ------ ---- --- --------- --<br>------ - ---- -- --- ----------- ------- ---- ----- -----<br>--- -------- - ------ ---- -- ----- ---- --- --- -----------<br>-- -------,259766.00000000003,259803,259334,259309.00000000003,259352,259802,,5,astronomer
screen,html.Screen,1_3_1_0_1_6,2021-04-26T14:13:47.610Z,,,,,,,,,,,,,,,,2,,,,,,,,,,,,,,485,,response,,,,1,C,,,,,,Space,keypress(Space),,,,instrumental,,,,--- ---- ------ --- ------- ---------- Richard ----------<br>--- --------- --- ----------- ------- ----- ------- ---<br>--------- ---- -- --- ---- -- --------- -- ---- -------<br>-- --------- ------ --- ----- ------ ---- --- --------- --<br>------ - ---- -- --- ----------- ------- ---- ----- -----<br>--- -------- - ------ ---- -- ----- ---- --- --- -----------<br>-- -------,260232.00000000003,260269,259784,259766.00000000003,259802,260272,,6,Richard
screen,html.Screen,1_3_1_0_1_7,2021-04-26T14:13:48.046Z,,,,,,,,,,,,,,,,2,,,,,,,,,,,,,,450.0000000000291,,response,,,,1,C,,,,,,Space,keypress(Space),,,,instrumental,,,,--- ---- ------ --- ------- ---------- ------- Carrington<br>--- --------- --- ----------- ------- ----- ------- ---<br>--------- ---- -- --- ---- -- --------- -- ---- -------<br>-- --------- ------ --- ----- ------ ---- --- --------- --<br>------ - ---- -- --- ----------- ------- ---- ----- -----<br>--- -------- - ------ ---- -- ----- ---- --- --- -----------<br>-- -------,260668.99999999997,260706.00000000003,260256,260233,260272,260706,,7,Carrington
screen,html.Screen,1_3_1_0_1_8,2021-04-26T14:13:48.578Z,,,,,,,,,,,,,,,,2,,,,,,,,,,,,,,548.0000000000291,,response,,,,1,C,,,,,,Space,keypress(Space),,,,instrumental,,,,--- ---- ------ --- ------- ---------- ------- ----------<br>was --------- --- ----------- ------- ----- ------- ---<br>--------- ---- -- --- ---- -- --------- -- ---- -------<br>-- --------- ------ --- ----- ------ ---- --- --------- --<br>------ - ---- -- --- ----------- ------- ---- ----- -----<br>--- -------- - ------ ---- -- ----- ---- --- --- -----------<br>-- -------,261200,261237.00000000003,260689,260668.99999999997,260706,261238,,8,was
screen,html.Screen,1_3_1_0_1_9,2021-04-26T14:13:48.990Z,,,,,,,,,,,,,,,,2,,,,,,,,,,,,,,426,,response,,,,1,C,,,,,,Space,keypress(Space),,,,instrumental,,,,--- ---- ------ --- ------- ---------- ------- ----------<br>--- observing --- ----------- ------- ----- ------- ---<br>--------- ---- -- --- ---- -- --------- -- ---- -------<br>-- --------- ------ --- ----- ------ ---- --- --------- --<br>------ - ---- -- --- ----------- ------- ---- ----- -----<br>--- -------- - ------ ---- -- ----- ---- --- --- -----------<br>-- -------,261612.00000000003,261649,261223,261200,261238,261639,,9,observing
screen,html.Screen,1_3_1_0_1_10,2021-04-26T14:13:49.483Z,,,,,,,,,,,,,,,,2,,,,,,,,,,,,,,521.0000000000291,,response,,,,1,C,,,,,,Space,keypress(Space),,,,instrumental,,,,--- ---- ------ --- ------- ---------- ------- ----------<br>--- --------- the ----------- ------- ----- ------- ---<br>--------- ---- -- --- ---- -- --------- -- ---- -------<br>-- --------- ------ --- ----- ------ ---- --- --------- --<br>------ - ---- -- --- ----------- ------- ---- ----- -----<br>--- -------- - ------ ---- -- ----- ---- --- --- -----------<br>-- -------,262106,262143.00000000003,261622,261613,261639,262139,,10,the
screen,html.Screen,1_3_1_0_1_11,2021-04-26T14:13:50.216Z,,,,,,,,,,,,,,,,2,,,,,,,,,,,,,,753.0000000000582,,response,,,,1,C,,,,,,Space,keypress(Space),,,,instrumental,,,,--- ---- ------ --- ------- ---------- ------- ----------<br>--- --------- --- interesting ------- ----- ------- ---<br>--------- ---- -- --- ---- -- --------- -- ---- -------<br>-- --------- ------ --- ----- ------ ---- --- --------- --<br>------ - ---- -- --- ----------- ------- ---- ----- -----<br>--- -------- - ------ ---- -- ----- ---- --- --- -----------<br>-- -------,262839,262876.00000000006,262123,262106,262139,262872,,11,interesting
screen,html.Screen,1_3_1_0_1_12,2021-04-26T14:13:50.854Z,,,,,,,,,,,,,,,,2,,,,,,,,,,,,,,658,,response,,,,1,C,,,,,,Space,keypress(Space),,,,instrumental,,,,--- ---- ------ --- ------- ---------- ------- ----------<br>--- --------- --- ----------- sunspot ----- ------- ---<br>--------- ---- -- --- ---- -- --------- -- ---- -------<br>-- --------- ------ --- ----- ------ ---- --- --------- --<br>------ - ---- -- --- ----------- ------- ---- ----- -----<br>--- -------- - ------ ---- -- ----- ---- --- --- -----------<br>-- -------,263477.00000000006,263514,262856,262839,262872,263505,,12,sunspot
screen,html.Screen,1_3_1_0_1_13,2021-04-26T14:13:51.513Z,,,,,,,,,,,,,,,,2,,,,,,,,,,,,,,683,,response,,,,1,C,,,,,,Space,keypress(Space),,,,instrumental,,,,--- ---- ------ --- ------- ---------- ------- ----------<br>--- --------- --- ----------- ------- group ------- ---<br>--------- ---- -- --- ---- -- --------- -- ---- -------<br>-- --------- ------ --- ----- ------ ---- --- --------- --<br>------ - ---- -- --- ----------- ------- ---- ----- -----<br>--- -------- - ------ ---- -- ----- ---- --- --- -----------<br>-- -------,264136,264172,263489,263477.00000000006,263505,264172,,13,group
screen,html.Screen,1_3_1_0_1_14,2021-04-26T14:13:52.186Z,,,,,,,,,,,,,,,,2,,,,,,,,,,,,,,690,,response,,,,1,C,,,,,,Space,keypress(Space),,,,instrumental,,,,--- ---- ------ --- ------- ---------- ------- ----------<br>--- --------- --- ----------- ------- ----- through ---<br>--------- ---- -- --- ---- -- --------- -- ---- -------<br>-- --------- ------ --- ----- ------ ---- --- --------- --<br>------ - ---- -- --- ----------- ------- ---- ----- -----<br>--- -------- - ------ ---- -- ----- ---- --- --- -----------<br>-- -------,264808,264846,264156,264136,264172,264838,,14,through
screen,html.Screen,1_3_1_0_1_15,2021-04-26T14:13:52.967Z,,,,,,,,,,,,,,,,2,,,,,,,,,,,,,,804.0000000000582,,response,,,,1,C,,,,,,Space,keypress(Space),,,,instrumental,,,,--- ---- ------ --- ------- ---------- ------- ----------<br>--- --------- --- ----------- ------- ----- ------- his<br>--------- ---- -- --- ---- -- --------- -- ---- -------<br>-- --------- ------ --- ----- ------ ---- --- --------- --<br>------ - ---- -- --- ----------- ------- ---- ----- -----<br>--- -------- - ------ ---- -- ----- ---- --- --- -----------<br>-- -------,265590.00000000006,265626.00000000006,264822,264809,264838,265627,,15,his
screen,html.Screen,1_3_1_0_1_16,2021-04-26T14:13:53.421Z,,,,,,,,,,,,,,,,2,,,,,,,,,,,,,,470,,response,,,,1,C,,,,,,Space,keypress(Space),,,,instrumental,,,,--- ---- ------ --- ------- ---------- ------- ----------<br>--- --------- --- ----------- ------- ----- ------- ---<br>telescope ---- -- --- ---- -- --------- -- ---- -------<br>-- --------- ------ --- ----- ------ ---- --- --------- --<br>------ - ---- -- --- ----------- ------- ---- ----- -----<br>--- -------- - ------ ---- -- ----- ---- --- --- -----------<br>-- -------,266044,266081,265611,265590.00000000006,265627,266077,,16,telescope
screen,html.Screen,1_3_1_0_1_17,2021-04-26T14:13:53.833Z,,,,,,,,,,,,,,,,2,,,,,,,,,,,,,,433,,response,,,,1,C,,,,,,Space,keypress(Space),,,,instrumental,,,,--- ---- ------ --- ------- ---------- ------- ----------<br>--- --------- --- ----------- ------- ----- ------- ---<br>--------- when -- --- ---- -- --------- -- ---- -------<br>-- --------- ------ --- ----- ------ ---- --- --------- --<br>------ - ---- -- --- ----------- ------- ---- ----- -----<br>--- -------- - ------ ---- -- ----- ---- --- --- -----------<br>-- -------,266456,266493,266060,266044,266077,266493,,17,when
screen,html.Screen,1_3_1_0_1_18,2021-04-26T14:13:54.205Z,,,,,,,,,,,,,,,,2,,,,,,,,,,,,,,388,,response,,,,1,C,,,,,,Space,keypress(Space),,,,instrumental,,,,--- ---- ------ --- ------- ---------- ------- ----------<br>--- --------- --- ----------- ------- ----- ------- ---<br>--------- ---- he --- ---- -- --------- -- ---- -------<br>-- --------- ------ --- ----- ------ ---- --- --------- --<br>------ - ---- -- --- ----------- ------- ---- ----- -----<br>--- -------- - ------ ---- -- ----- ---- --- --- -----------<br>-- -------,266828.00000000006,266865,266477,266456,266493,266860,,18,he
screen,html.Screen,1_3_1_0_1_19,2021-04-26T14:13:54.662Z,,,,,,,,,,,,,,,,2,,,,,,,,,,,,,,479,,response,,,,1,C,,,,,,Space,keypress(Space),,,,instrumental,,,,--- ---- ------ --- ------- ---------- ------- ----------<br>--- --------- --- ----------- ------- ----- ------- ---<br>--------- ---- -- saw ---- -- --------- -- ---- -------<br>-- --------- ------ --- ----- ------ ---- --- --------- --<br>------ - ---- -- --- ----------- ------- ---- ----- -----<br>--- -------- - ------ ---- -- ----- ---- --- --- -----------<br>-- -------,267285,267322,266843,266828.00000000006,266860,267327,,19,saw
screen,html.Screen,1_3_1_0_1_20,2021-04-26T14:13:54.988Z,,,,,,,,,,,,,,,,2,,,,,,,,,,,,,,338,,response,,,,1,C,,,,,,Space,keypress(Space),,,,instrumental,,,,--- ---- ------ --- ------- ---------- ------- ----------<br>--- --------- --- ----------- ------- ----- ------- ---<br>--------- ---- -- --- what -- --------- -- ---- -------<br>-- --------- ------ --- ----- ------ ---- --- --------- --<br>------ - ---- -- --- ----------- ------- ---- ----- -----<br>--- -------- - ------ ---- -- ----- ---- --- --- -----------<br>-- -------,267611,267648,267310,267285,267327,267644,,20,what
screen,html.Screen,1_3_1_0_1_21,2021-04-26T14:13:55.390Z,,,,,,,,,,,,,,,,2,,,,,,,,,,,,,,423,,response,,,,1,C,,,,,,Space,keypress(Space),,,,instrumental,,,,--- ---- ------ --- ------- ---------- ------- ----------<br>--- --------- --- ----------- ------- ----- ------- ---<br>--------- ---- -- --- ---- he --------- -- ---- -------<br>-- --------- ------ --- ----- ------ ---- --- --------- --<br>------ - ---- -- --- ----------- ------- ---- ----- -----<br>--- -------- - ------ ---- -- ----- ---- --- --- -----------<br>-- -------,268013.00000000006,268050,267627,267611,267644,268044,,21,he
screen,html.Screen,1_3_1_0_1_22,2021-04-26T14:13:55.769Z,,,,,,,,,,,,,,,,2,,,,,,,,,,,,,,401,,response,,,,1,C,,,,,,Space,keypress(Space),,,,instrumental,,,,--- ---- ------ --- ------- ---------- ------- ----------<br>--- --------- --- ----------- ------- ----- ------- ---<br>--------- ---- -- --- ---- -- described -- ---- -------<br>-- --------- ------ --- ----- ------ ---- --- --------- --<br>------ - ---- -- --- ----------- ------- ---- ----- -----<br>--- -------- - ------ ---- -- ----- ---- --- --- -----------<br>-- -------,268391,268428,268027,268013.00000000006,268044,268411,,22,described
screen,html.Screen,1_3_1_0_1_23,2021-04-26T14:13:56.203Z,,,,,,,,,,,,,,,,2,,,,,,,,,,,,,,469,,response,,,,1,C,,,,,,Space,keypress(Space),,,,instrumental,,,,--- ---- ------ --- ------- ---------- ------- ----------<br>--- --------- --- ----------- ------- ----- ------- ---<br>--------- ---- -- --- ---- -- --------- as ---- -------<br>-- --------- ------ --- ----- ------ ---- --- --------- --<br>------ - ---- -- --- ----------- ------- ---- ----- -----<br>--- -------- - ------ ---- -- ----- ---- --- --- -----------<br>-- -------,268826,268863,268394,268391,268411,268860,,23,as
screen,html.Screen,1_3_1_0_1_24,2021-04-26T14:13:56.615Z,,,,,,,,,,,,,,,,2,,,,,,,,,,,,,,431,,response,,,,1,C,,,,,,Space,keypress(Space),,,,instrumental,,,,"--- ---- ------ --- ------- ---------- ------- ----------<br>--- --------- --- ----------- ------- ----- ------- ---<br>--------- ---- -- --- ---- -- --------- -- ""two -------<br>-- --------- ------ --- ----- ------ ---- --- --------- --<br>------ - ---- -- --- ----------- ------- ---- ----- -----<br>--- -------- - ------ ---- -- ----- ---- --- --- -----------<br>-- -------",269238,269275,268844,268826,268860,269277,,24,"""two"
screen,html.Screen,1_3_1_0_1_25,2021-04-26T14:13:57.073Z,,,,,,,,,,,,,,,,2,,,,,,,,,,,,,,474,,response,,,,1,C,,,,,,Space,keypress(Space),,,,instrumental,,,,--- ---- ------ --- ------- ---------- ------- ----------<br>--- --------- --- ----------- ------- ----- ------- ---<br>--------- ---- -- --- ---- -- --------- -- ---- patches<br>-- --------- ------ --- ----- ------ ---- --- --------- --<br>------ - ---- -- --- ----------- ------- ---- ----- -----<br>--- -------- - ------ ---- -- ----- ---- --- --- -----------<br>-- -------,269696,269734,269260,269238,269277,269727,,25,patches
screen,html.Screen,1_3_1_0_1_26,2021-04-26T14:13:57.433Z,,,,,,,,,,,,,,,,2,,,,,,,,,,,,,,384,,response,,,,1,C,,,,,,Space,keypress(Space),,,,instrumental,,,,--- ---- ------ --- ------- ---------- ------- ----------<br>--- --------- --- ----------- ------- ----- ------- ---<br>--------- ---- -- --- ---- -- --------- -- ---- -------<br>of --------- ------ --- ----- ------ ---- --- --------- --<br>------ - ---- -- --- ----------- ------- ---- ----- -----<br>--- -------- - ------ ---- -- ----- ---- --- --- -----------<br>-- -------,270056,270093,269709,269696,269727,270077,,26,of
screen,html.Screen,1_3_1_0_1_27,2021-04-26T14:13:57.888Z,,,,,,,,,,,,,,,,2,,,,,,,,,,,,,,488,,response,,,,1,C,,,,,,Space,keypress(Space),,,,instrumental,,,,--- ---- ------ --- ------- ---------- ------- ----------<br>--- --------- --- ----------- ------- ----- ------- ---<br>--------- ---- -- --- ---- -- --------- -- ---- -------<br>-- intensely ------ --- ----- ------ ---- --- --------- --<br>------ - ---- -- --- ----------- ------- ---- ----- -----<br>--- -------- - ------ ---- -- ----- ---- --- --- -----------<br>-- -------,270511,270548,270060,270056,270077,270549,,27,intensely
screen,html.Screen,1_3_1_0_1_28,2021-04-26T14:13:58.262Z,,,,,,,,,,,,,,,,2,,,,,,,,,,,,,,390,,response,,,,1,C,,,,,,Space,keypress(Space),,,,instrumental,,,,--- ---- ------ --- ------- ---------- ------- ----------<br>--- --------- --- ----------- ------- ----- ------- ---<br>--------- ---- -- --- ---- -- --------- -- ---- -------<br>-- --------- bright --- ----- ------ ---- --- --------- --<br>------ - ---- -- --- ----------- ------- ---- ----- -----<br>--- -------- - ------ ---- -- ----- ---- --- --- -----------<br>-- -------,270885,270922,270532,270511,270549,270915,,28,bright
screen,html.Screen,1_3_1_0_1_29,2021-04-26T14:13:58.649Z,,,,,,,,,,,,,,,,2,,,,,,,,,,,,,,411,,response,,,,1,C,,,,,,Space,keypress(Space),,,,instrumental,,,,--- ---- ------ --- ------- ---------- ------- ----------<br>--- --------- --- ----------- ------- ----- ------- ---<br>--------- ---- -- --- ---- -- --------- -- ---- -------<br>-- --------- ------ and ----- ------ ---- --- --------- --<br>------ - ---- -- --- ----------- ------- ---- ----- -----<br>--- -------- - ------ ---- -- ----- ---- --- --- -----------<br>-- -------,271272,271310,270899,270885,270915,271315,,29,and
screen,html.Screen,1_3_1_0_1_30,2021-04-26T14:13:59.092Z,,,,,,,,,,,,,,,,2,,,,,,,,,,,,,,453,,response,,,,1,C,,,,,,Space,keypress(Space),,,,instrumental,,,,--- ---- ------ --- ------- ---------- ------- ----------<br>--- --------- --- ----------- ------- ----- ------- ---<br>--------- ---- -- --- ---- -- --------- -- ---- -------<br>-- --------- ------ --- white ------ ---- --- --------- --<br>------ - ---- -- --- ----------- ------- ---- ----- -----<br>--- -------- - ------ ---- -- ----- ---- --- --- -----------<br>-- -------,271715.00000000006,271752,271299,271273,271315,271749,,30,white
screen,html.Screen,1_3_1_0_1_31,2021-04-26T14:13:59.560Z,,,,,,,,,,,,,,,,2,,,,,,,,,,,,,,488,,response,,,,1,C,,,,,,Space,keypress(Space),,,,instrumental,,,,"--- ---- ------ --- ------- ---------- ------- ----------<br>--- --------- --- ----------- ------- ----- ------- ---<br>--------- ---- -- --- ---- -- --------- -- ---- -------<br>-- --------- ------ --- ----- light"" ---- --- --------- --<br>------ - ---- -- --- ----------- ------- ---- ----- -----<br>--- -------- - ------ ---- -- ----- ---- --- --- -----------<br>-- -------",272183,272220,271732,271715.00000000006,271749,272214,,31,"light"""
screen,html.Screen,1_3_1_0_1_32,2021-04-26T14:13:59.964Z,,,,,,,,,,,,,,,,2,,,,,,,,,,,,,,426,,response,,,,1,C,,,,,,Space,keypress(Space),,,,instrumental,,,,--- ---- ------ --- ------- ---------- ------- ----------<br>--- --------- --- ----------- ------- ----- ------- ---<br>--------- ---- -- --- ---- -- --------- -- ---- -------<br>-- --------- ------ --- ----- ------ over --- --------- --<br>------ - ---- -- --- ----------- ------- ---- ----- -----<br>--- -------- - ------ ---- -- ----- ---- --- --- -----------<br>-- -------,272587,272624,272198,272183,272214,272614,,32,over
screen,html.Screen,1_3_1_0_1_33,2021-04-26T14:14:00.438Z,,,,,,,,,,,,,,,,2,,,,,,,,,,,,,,500,,response,,,,1,C,,,,,,Space,keypress(Space),,,,instrumental,,,,--- ---- ------ --- ------- ---------- ------- ----------<br>--- --------- --- ----------- ------- ----- ------- ---<br>--------- ---- -- --- ---- -- --------- -- ---- -------<br>-- --------- ------ --- ----- ------ ---- the --------- --<br>------ - ---- -- --- ----------- ------- ---- ----- -----<br>--- -------- - ------ ---- -- ----- ---- --- --- -----------<br>-- -------,273061,273098,272598,272587,272614,273099,,33,the
screen,html.Screen,1_3_1_0_1_34,2021-04-26T14:14:00.968Z,,,,,,,,,,,,,,,,2,,,,,,,,,,,,,,547,,response,,,,1,C,,,,,,Space,keypress(Space),,,,instrumental,,,,--- ---- ------ --- ------- ---------- ------- ----------<br>--- --------- --- ----------- ------- ----- ------- ---<br>--------- ---- -- --- ---- -- --------- -- ---- -------<br>-- --------- ------ --- ----- ------ ---- --- sunspots. --<br>------ - ---- -- --- ----------- ------- ---- ----- -----<br>--- -------- - ------ ---- -- ----- ---- --- --- -----------<br>-- -------,273591,273628,273081,273062,273099,273632,,34,sunspots.
screen,html.Screen,1_3_1_0_1_35,2021-04-26T14:14:01.477Z,,,,,,,,,,,,,,,,2,,,,,,,,,,,,,,521,,response,,,,1,C,,,,,,Space,keypress(Space),,,,instrumental,,,,--- ---- ------ --- ------- ---------- ------- ----------<br>--- --------- --- ----------- ------- ----- ------- ---<br>--------- ---- -- --- ---- -- --------- -- ---- -------<br>-- --------- ------ --- ----- ------ ---- --- --------- He<br>------ - ---- -- --- ----------- ------- ---- ----- -----<br>--- -------- - ------ ---- -- ----- ---- --- --- -----------<br>-- -------,274100,274137,273616,273591,273632,274132,,35,He
screen,html.Screen,1_3_1_0_1_36,2021-04-26T14:14:01.964Z,,,,,,,,,,,,,,,,2,,,,,,,,,,,,,,510,,response,,,,1,C,,,,,,Space,keypress(Space),,,,instrumental,,,,--- ---- ------ --- ------- ---------- ------- ----------<br>--- --------- --- ----------- ------- ----- ------- ---<br>--------- ---- -- --- ---- -- --------- -- ---- -------<br>-- --------- ------ --- ----- ------ ---- --- --------- --<br>jotted - ---- -- --- ----------- ------- ---- ----- -----<br>--- -------- - ------ ---- -- ----- ---- --- --- -----------<br>-- -------,274587,274625,274115,274100,274132,274615,,36,jotted
screen,html.Screen,1_3_1_0_1_37,2021-04-26T14:14:02.401Z,,,,,,,,,,,,,,,,2,,,,,,,,,,,,,,463,,response,,,,1,C,,,,,,Space,keypress(Space),,,,instrumental,,,,--- ---- ------ --- ------- ---------- ------- ----------<br>--- --------- --- ----------- ------- ----- ------- ---<br>--------- ---- -- --- ---- -- --------- -- ---- -------<br>-- --------- ------ --- ----- ------ ---- --- --------- --<br>------ a ---- -- --- ----------- ------- ---- ----- -----<br>--- -------- - ------ ---- -- ----- ---- --- --- -----------<br>-- -------,275024,275061,274598,274587,274615,275066,,37,a
screen,html.Screen,1_3_1_0_1_38,2021-04-26T14:14:02.856Z,,,,,,,,,,,,,,,,2,,,,,,,,,,,,,,468,,response,,,,1,C,,,,,,Space,keypress(Space),,,,instrumental,,,,--- ---- ------ --- ------- ---------- ------- ----------<br>--- --------- --- ----------- ------- ----- ------- ---<br>--------- ---- -- --- ---- -- --------- -- ---- -------<br>-- --------- ------ --- ----- ------ ---- --- --------- --<br>------ - note -- --- ----------- ------- ---- ----- -----<br>--- -------- - ------ ---- -- ----- ---- --- --- -----------<br>-- -------,275479,275516,275048,275024,275066,275520,,38,note
screen,html.Screen,1_3_1_0_1_39,2021-04-26T14:14:03.310Z,,,,,,,,,,,,,,,,2,,,,,,,,,,,,,,467,,response,,,,1,C,,,,,,Space,keypress(Space),,,,instrumental,,,,--- ---- ------ --- ------- ---------- ------- ----------<br>--- --------- --- ----------- ------- ----- ------- ---<br>--------- ---- -- --- ---- -- --------- -- ---- -------<br>-- --------- ------ --- ----- ------ ---- --- --------- --<br>------ - ---- in --- ----------- ------- ---- ----- -----<br>--- -------- - ------ ---- -- ----- ---- --- --- -----------<br>-- -------,275933,275970,275503,275479,275520,275970,,39,in
screen,html.Screen,1_3_1_0_1_40,2021-04-26T14:14:03.690Z,,,,,,,,,,,,,,,,2,,,,,,,,,,,,,,397,,response,,,,1,C,,,,,,Space,keypress(Space),,,,instrumental,,,,--- ---- ------ --- ------- ---------- ------- ----------<br>--- --------- --- ----------- ------- ----- ------- ---<br>--------- ---- -- --- ---- -- --------- -- ---- -------<br>-- --------- ------ --- ----- ------ ---- --- --------- --<br>------ - ---- -- his ----------- ------- ---- ----- -----<br>--- -------- - ------ ---- -- ----- ---- --- --- -----------<br>-- -------,276313,276350,275953,275933,275970,276336,,40,his
screen,html.Screen,1_3_1_0_1_41,2021-04-26T14:14:04.538Z,,,,,,,,,,,,,,,,2,,,,,,,,,,,,,,877,,response,,,,1,C,,,,,,Space,keypress(Space),,,,instrumental,,,,--- ---- ------ --- ------- ---------- ------- ----------<br>--- --------- --- ----------- ------- ----- ------- ---<br>--------- ---- -- --- ---- -- --------- -- ---- -------<br>-- --------- ------ --- ----- ------ ---- --- --------- --<br>------ - ---- -- --- painstaking ------- ---- ----- -----<br>--- -------- - ------ ---- -- ----- ---- --- --- -----------<br>-- -------,277161,277197,276320,276313,276336,277203,,41,painstaking
screen,html.Screen,1_3_1_0_1_42,2021-04-26T14:14:05.442Z,,,,,,,,,,,,,,,,2,,,,,,,,,,,,,,916,,response,,,,1,C,,,,,,Space,keypress(Space),,,,instrumental,,,,--- ---- ------ --- ------- ---------- ------- ----------<br>--- --------- --- ----------- ------- ----- ------- ---<br>--------- ---- -- --- ---- -- --------- -- ---- -------<br>-- --------- ------ --- ----- ------ ---- --- --------- --<br>------ - ---- -- --- ----------- record. ---- ----- -----<br>--- -------- - ------ ---- -- ----- ---- --- --- -----------<br>-- -------,278066.00000000006,278103,277187,277161,277203,278103,,42,record.
screen,html.Screen,1_3_1_0_1_43,2021-04-26T14:14:06.288Z,,,,,,,,,,,,,,,,2,,,,,,,,,,,,,,862,,response,,,,1,C,,,,,,Space,keypress(Space),,,,instrumental,,,,--- ---- ------ --- ------- ---------- ------- ----------<br>--- --------- --- ----------- ------- ----- ------- ---<br>--------- ---- -- --- ---- -- --------- -- ---- -------<br>-- --------- ------ --- ----- ------ ---- --- --------- --<br>------ - ---- -- --- ----------- ------- That ----- -----<br>--- -------- - ------ ---- -- ----- ---- --- --- -----------<br>-- -------,278911,278948,278086,278066.00000000006,278103,278954,,43,That
screen,html.Screen,1_3_1_0_1_44,2021-04-26T14:14:06.832Z,,,,,,,,,,,,,,,,2,,,,,,,,,,,,,,557,,response,,,,1,C,,,,,,Space,keypress(Space),,,,instrumental,,,,--- ---- ------ --- ------- ---------- ------- ----------<br>--- --------- --- ----------- ------- ----- ------- ---<br>--------- ---- -- --- ---- -- --------- -- ---- -------<br>-- --------- ------ --- ----- ------ ---- --- --------- --<br>------ - ---- -- --- ----------- ------- ---- night -----<br>--- -------- - ------ ---- -- ----- ---- --- --- -----------<br>-- -------,279456,279493,278936,278911,278954,279487,,44,night
screen,html.Screen,1_3_1_0_1_45,2021-04-26T14:14:07.348Z,,,,,,,,,,,,,,,,2,,,,,,,,,,,,,,540,,response,,,,1,C,,,,,,Space,keypress(Space),,,,instrumental,,,,--- ---- ------ --- ------- ---------- ------- ----------<br>--- --------- --- ----------- ------- ----- ------- ---<br>--------- ---- -- --- ---- -- --------- -- ---- -------<br>-- --------- ------ --- ----- ------ ---- --- --------- --<br>------ - ---- -- --- ----------- ------- ---- ----- there<br>--- -------- - ------ ---- -- ----- ---- --- --- -----------<br>-- -------,279971,280009,279469,279456,279487,280003,,45,there
screen,html.Screen,1_3_1_0_1_46,2021-04-26T14:14:07.760Z,,,,,,,,,,,,,,,,2,,,,,,,,,,,,,,433,,response,,,,1,C,,,,,,Space,keypress(Space),,,,instrumental,,,,--- ---- ------ --- ------- ---------- ------- ----------<br>--- --------- --- ----------- ------- ----- ------- ---<br>--------- ---- -- --- ---- -- --------- -- ---- -------<br>-- --------- ------ --- ----- ------ ---- --- --------- --<br>------ - ---- -- --- ----------- ------- ---- ----- -----<br>was -------- - ------ ---- -- ----- ---- --- --- -----------<br>-- -------,280383,280420,279987,279971,280003,280420,,46,was
screen,html.Screen,1_3_1_0_1_47,2021-04-26T14:14:08.113Z,,,,,,,,,,,,,,,,2,,,,,,,,,,,,,,370,,response,,,,1,C,,,,,,Space,keypress(Space),,,,instrumental,,,,--- ---- ------ --- ------- ---------- ------- ----------<br>--- --------- --- ----------- ------- ----- ------- ---<br>--------- ---- -- --- ---- -- --------- -- ---- -------<br>-- --------- ------ --- ----- ------ ---- --- --------- --<br>------ - ---- -- --- ----------- ------- ---- ----- -----<br>--- scarcely - ------ ---- -- ----- ---- --- --- -----------<br>-- -------,280736,280773,280403,280383,280420,280758,,47,scarcely
screen,html.Screen,1_3_1_0_1_48,2021-04-26T14:14:08.542Z,,,,,,,,,,,,,,,,2,,,,,,,,,,,,,,462.0000000000582,,response,,,,1,C,,,,,,Space,keypress(Space),,,,instrumental,,,,--- ---- ------ --- ------- ---------- ------- ----------<br>--- --------- --- ----------- ------- ----- ------- ---<br>--------- ---- -- --- ---- -- --------- -- ---- -------<br>-- --------- ------ --- ----- ------ ---- --- --------- --<br>------ - ---- -- --- ----------- ------- ---- ----- -----<br>--- -------- a ------ ---- -- ----- ---- --- --- -----------<br>-- -------,281165,281203.00000000006,280741,280736,280758,281208,,48,a
screen,html.Screen,1_3_1_0_1_49,2021-04-26T14:14:08.979Z,,,,,,,,,,,,,,,,2,,,,,,,,,,,,,,449,,response,,,,1,C,,,,,,Space,keypress(Space),,,,instrumental,,,,--- ---- ------ --- ------- ---------- ------- ----------<br>--- --------- --- ----------- ------- ----- ------- ---<br>--------- ---- -- --- ---- -- --------- -- ---- -------<br>-- --------- ------ --- ----- ------ ---- --- --------- --<br>------ - ---- -- --- ----------- ------- ---- ----- -----<br>--- -------- - square ---- -- ----- ---- --- --- -----------<br>-- -------,281603,281640,281191,281165,281208,281642,,49,square
screen,html.Screen,1_3_1_0_1_50,2021-04-26T14:14:09.381Z,,,,,,,,,,,,,,,,2,,,,,,,,,,,,,,417,,response,,,,1,C,,,,,,Space,keypress(Space),,,,instrumental,,,,--- ---- ------ --- ------- ---------- ------- ----------<br>--- --------- --- ----------- ------- ----- ------- ---<br>--------- ---- -- --- ---- -- --------- -- ---- -------<br>-- --------- ------ --- ----- ------ ---- --- --------- --<br>------ - ---- -- --- ----------- ------- ---- ----- -----<br>--- -------- - ------ inch -- ----- ---- --- --- -----------<br>-- -------,282004,282041,281624,281603,281642,282042,,50,inch
screen,html.Screen,1_3_1_0_1_51,2021-04-26T14:14:09.744Z,,,,,,,,,,,,,,,,2,,,,,,,,,,,,,,380,,response,,,,1,C,,,,,,Space,keypress(Space),,,,instrumental,,,,--- ---- ------ --- ------- ---------- ------- ----------<br>--- --------- --- ----------- ------- ----- ------- ---<br>--------- ---- -- --- ---- -- --------- -- ---- -------<br>-- --------- ------ --- ----- ------ ---- --- --------- --<br>------ - ---- -- --- ----------- ------- ---- ----- -----<br>--- -------- - ------ ---- of ----- ---- --- --- -----------<br>-- -------,282367,282404,282024,282004,282042,282391,,51,of
screen,html.Screen,1_3_1_0_1_52,2021-04-26T14:14:10.114Z,,,,,,,,,,,,,,,,2,,,,,,,,,,,,,,400.0000000000582,,response,,,,1,C,,,,,,Space,keypress(Space),,,,instrumental,,,,--- ---- ------ --- ------- ---------- ------- ----------<br>--- --------- --- ----------- ------- ----- ------- ---<br>--------- ---- -- --- ---- -- --------- -- ---- -------<br>-- --------- ------ --- ----- ------ ---- --- --------- --<br>------ - ---- -- --- ----------- ------- ---- ----- -----<br>--- -------- - ------ ---- -- earth ---- --- --- -----------<br>-- -------,282738,282775.00000000006,282375,282367,282391,282757,,52,earth
screen,html.Screen,1_3_1_0_1_53,2021-04-26T14:14:10.566Z,,,,,,,,,,,,,,,,2,,,,,,,,,,,,,,486.0000000000582,,response,,,,1,C,,,,,,Space,keypress(Space),,,,instrumental,,,,--- ---- ------ --- ------- ---------- ------- ----------<br>--- --------- --- ----------- ------- ----- ------- ---<br>--------- ---- -- --- ---- -- --------- -- ---- -------<br>-- --------- ------ --- ----- ------ ---- --- --------- --<br>------ - ---- -- --- ----------- ------- ---- ----- -----<br>--- -------- - ------ ---- -- ----- that --- --- -----------<br>-- -------,283190,283227.00000000006,282741,282738,282757,283224,,53,that
