sender,sender_type,sender_id,timestamp,meta,,Blues,Classical,Country,Dance,Electronic,Folk,Gospel,Hip-Hop,Jazz,Latin,Musical/Film,New-age,Pop,Provo_ID,R&B,Rap,Reggae,Religious,Rock,Soul,Swing,Traditional,age,artist_name,correct,correctResponse,distraction,duration,ended_on,familiarity,gender,headphone_check_performance,item,list,offensiveness,pleasantness,position_correct,preference,response,response_action,snippet_file,song_name,song_rating,sound,stimulus_1,stimulus_2,stimulus_3,text,time_commit,time_end,time_render,time_run,time_show,time_switch,url,word,word_ID
Introduction,html.Screen,0_0,2021-03-29T11:34:40.843Z,"{""labjs_version"":""20.2.2"",""labjs_build"":{""flavor"":""production"",""commit"":""a25486e0c714a0ae2ce03ff94b7bb6896854dcfa""},""location"":""https://run.pavlovia.org/mvasilev/music_e/"",""userAgent"":""Mozilla/5.0 (Macintosh; Intel Mac OS X 10_15_7) AppleWebKit/605.1.15 (KHTML, like Gecko) Version/14.1 Safari/605.1.15"",""platform"":""MacIntel"",""language"":""en-gb"",""locale"":""en-GB"",""timeZone"":""Europe/London"",""timezoneOffset"":-60,""screen_width"":1920,""screen_height"":1080,""scroll_width"":1920,""scroll_height"":952,""window_innerWidth"":1920,""window_innerHeight"":1000,""devicePixelRatio"":2}",,,,,,,,,,,,,,,,,,,,,,,,,,,,,15443,response,,,,,,,,,,continue,click button,,,,,,,,,21292,20748,5305,5278.000000000001,5321,21320,{},,
Volume calibration,html.Screen,0_1,2021-03-29T11:35:25.008Z,,,,,,,,,,,,,,,,,,,,,,,,,,,,,,44150,response,,,,,,,,,,continue,click button,,,,,,,,,65457.00000000001,65453,21303,21293,21320,65484,,,
Task instructions,html.Screen,0_2,2021-03-29T11:36:01.897Z,,,,,,,,,,,,,,,,,,,,,,,,,,,,,,36875,response,,,,,,,,,,continue,click button,,,,,,,,,102345,102342,65467,65457.00000000001,65484,102364,,,
Sounds,html.Screen,0_3_0_0,2021-03-29T11:36:06.151Z,,,,,,,,,,,,,,,,,,,,,,,,,,,,,,4250,timeout,,,,,,,,3,,,,,,,,I,O,S,,106600.00000000001,106598,102348,102346,102364,106614,,,
Judgement,html.Screen,0_3_0_1,2021-03-29T11:36:06.971Z,,,,,,,,,,,,,,,,,,,,,,,,,,,true,3,,818,response,,,,,,,,3,,3,click #choice-3,,,,,I,O,S,,107419,107416,106598,106600.00000000001,106614,107447,,,
Trial,flow.Sequence,0_3_0,2021-03-29T11:36:06.971Z,,,,,,,,,,,,,,,,,,,,,,,,,,,,,,5052,completion,,,,,,,,3,,,,,,,,I,O,S,,107420,107416,102348,102345,102364,107447,,,
Sounds,html.Screen,0_3_1_0,2021-03-29T11:36:11.234Z,,,,,,,,,,,,,,,,,,,,,,,,,,,,,,4250,timeout,,,,,,,,2,,,,,,,,O,S,I,,111682,111681,107431,107420,107447,111697,,,
Judgement,html.Screen,0_3_1_1,2021-03-29T11:36:13.248Z,,,,,,,,,,,,,,,,,,,,,,,,,,,true,2,,2013,response,,,,,,,,2,,2,click #choice-2,,,,,O,S,I,,113696,113694,111681,111682,111697,113714,,,
Trial,flow.Sequence,0_3_1,2021-03-29T11:36:13.248Z,,,,,,,,,,,,,,,,,,,,,,,,,,,,,,6247,completion,,,,,,,,2,,,,,,,,O,S,I,,113697,113694,107431,107420,107447,113714,,,
Sounds,html.Screen,0_3_2_0,2021-03-29T11:36:17.499Z,,,,,,,,,,,,,,,,,,,,,,,,,,,,,,4250,timeout,,,,,,,,2,,,,,,,,I,S,O,,117947,117947,113698,113697,113714,117964,,,
Judgement,html.Screen,0_3_2_1,2021-03-29T11:36:18.096Z,,,,,,,,,,,,,,,,,,,,,,,,,,,true,2,,595,response,,,,,,,,2,,2,click #choice-2,,,,,I,S,O,,118545,118542,117947,117947,117964,118564,,,
Trial,flow.Sequence,0_3_2,2021-03-29T11:36:18.097Z,,,,,,,,,,,,,,,,,,,,,,,,,,,,,,4828,completion,,,,,,,,2,,,,,,,,I,S,O,,118545,118542,113698,113697,113714,118564,,,
Sounds,html.Screen,0_3_3_0,2021-03-29T11:36:22.349Z,,,,,,,,,,,,,,,,,,,,,,,,,,,,,,4249,timeout,,,,,,,,3,,,,,,,,O,I,S,,122797,122796,118548,118545,118564,122813,,,
Judgement,html.Screen,0_3_3_1,2021-03-29T11:36:22.944Z,,,,,,,,,,,,,,,,,,,,,,,,,,,true,3,,593,response,,,,,,,,3,,3,click #choice-3,,,,,O,I,S,,123392,123389,122796,122797,122813,123414,,,
Trial,flow.Sequence,0_3_3,2021-03-29T11:36:22.944Z,,,,,,,,,,,,,,,,,,,,,,,,,,,,,,4825,completion,,,,,,,,3,,,,,,,,O,I,S,,123392,123389,118548,118545,118564,123414,,,
Sounds,html.Screen,0_3_4_0,2021-03-29T11:36:27.199Z,,,,,,,,,,,,,,,,,,,,,,,,,,,,,,4249,timeout,,,,,,,,1,,,,,,,,S,O,I,,127647,127647,123397,123392,123414,127663,,,
Judgement,html.Screen,0_3_4_1,2021-03-29T11:36:27.817Z,,,,,,,,,,,,,,,,,,,,,,,,,,,true,1,,615,response,,,,,,,,1,,1,click #choice-1,,,,,S,O,I,,128265.00000000001,128262,127647,127647,127663,128296,,,
Trial,flow.Sequence,0_3_4,2021-03-29T11:36:27.817Z,,,,,,,,,,,,,,,,,,,,,,,,,,,,,,4848,completion,,,,,,,,1,,,,,,,,S,O,I,,128265.00000000001,128262,123397,123392,123414,128296,,,
Sounds,html.Screen,0_3_5_0,2021-03-29T11:36:32.082Z,,,,,,,,,,,,,,,,,,,,,,,,,,,,,,4251,timeout,,,,,,,,1,,,,,,,,S,I,O,,132530,132529,128280,128265.00000000001,128296,132547,,,
Judgement,html.Screen,0_3_5_1,2021-03-29T11:36:32.630Z,,,,,,,,,,,,,,,,,,,,,,,,,,,true,1,,547,response,,,,,,,,1,,1,click #choice-1,,,,,S,I,O,,133078,133076,132529,132530,132547,133113,,,
Trial,flow.Sequence,0_3_5,2021-03-29T11:36:32.631Z,,,,,,,,,,,,,,,,,,,,,,,,,,,,,,4780,completion,,,,,,,,1,,,,,,,,S,I,O,,133079,133076,128280,128265.00000000001,128296,133113,,,
Task,flow.Loop,0_3,2021-03-29T11:36:32.632Z,,,,,,,,,,,,,,,,,,,,,,,,,,,,,,30712,completion,,,1,,,,,,,,,,,,,,,,,133080,133076,102348,102345,102364,133113,,,
Trap,html.Screen,0_4,2021-03-29T11:36:32.633Z,,,,,,,,,,,,,,,,,,,,,,,,,,,,,,NaN,skipped,,,,,,,,,,,,,,,,,,,,133081,133076,,133081,,133113,,,
Thanks,html.Screen,0_5,2021-03-29T11:36:46.986Z,,,,,,,,,,,,,,,,,,,,,,,,,,,,,,14335,response,,,,,,,,,,continue,click button,,,,,,,,,147434,147431,133096,133081,133113,152179,,,
Headphone screening,flow.Sequence,0,2021-03-29T11:36:46.986Z,,,,,,,,,,,,,,,,,,,,,,,,,,,,,,142110,completion,,,,,,,,,,,,,,,,,,,,147434,147431,5305,5277,5321,152179,,,
Instructions,html.Page,1_0,2021-03-29T11:37:43.288Z,,,,,,,,,,,,,,,,,,,,,,,,,,,,,,51556,form submission,,,,,,,,,,,,,,,,,,,,203736.00000000003,203735,152163,152149,152179,203760,,,
Holding screen,html.Screen,1_1_0_0,2021-03-29T11:37:50.295Z,,,,,,,,,,,,,,,,,,,,,,,,,,,,,,7012,timeout,,,,,,,,,,,,,,,,,,,,210742,210742,203743,203736.00000000003,203760,210772,,,
screen,html.Screen,1_1_0_1_0,2021-03-29T11:37:51.383Z,,,,,,,,,,,,,,,,53,,,,,,,,,,,,,,1079,response,,,,99,,,,,,Space,keypress(Space),,,,,,,,When -- ----- -- ------ - ------- --- ----------<br>------------- ------ ------ ---- ---- ------- ----- -- ----<br>-------- ------- -- ---------- --- - --- ----- ----- ----<br>---- --- --- ----- --- ---- ---- ------- ----- ---- -------<br>--- --- -- ----- -- --- ---- -- --- ---- -- ------ ------<br>--- ----- -- ----,211831.00000000003,211821,210742,210743,210772,211859,,0,When
screen,html.Screen,1_1_0_1_1,2021-03-29T11:37:51.975Z,,,,,,,,,,,,,,,,53,,,,,,,,,,,,,,571.0000000000291,response,,,,99,,,,,,Space,keypress(Space),,,,,,,,---- it ----- -- ------ - ------- --- ----------<br>------------- ------ ------ ---- ---- ------- ----- -- ----<br>-------- ------- -- ---------- --- - --- ----- ----- ----<br>---- --- --- ----- --- ---- ---- ------- ----- ---- -------<br>--- --- -- ----- -- --- ---- -- --- ---- -- ------ ------<br>--- ----- -- ----,212423,212414.00000000003,211843,211831.00000000003,211859,212459,,1,it
screen,html.Screen,1_1_0_1_2,2021-03-29T11:37:52.602Z,,,,,,,,,,,,,,,,53,,,,,,,,,,,,,,598,response,,,,99,,,,,,Space,keypress(Space),,,,,,,,---- -- comes -- ------ - ------- --- ----------<br>------------- ------ ------ ---- ---- ------- ----- -- ----<br>-------- ------- -- ---------- --- - --- ----- ----- ----<br>---- --- --- ----- --- ---- ---- ------- ----- ---- -------<br>--- --- -- ----- -- --- ---- -- --- ---- -- ------ ------<br>--- ----- -- ----,213049,213040,212442,212423,212459,213092,,2,comes
screen,html.Screen,1_1_0_1_3,2021-03-29T11:37:53.217Z,,,,,,,,,,,,,,,,53,,,,,,,,,,,,,,579,response,,,,99,,,,,,Space,keypress(Space),,,,,,,,---- -- ----- to ------ - ------- --- ----------<br>------------- ------ ------ ---- ---- ------- ----- -- ----<br>-------- ------- -- ---------- --- - --- ----- ----- ----<br>---- --- --- ----- --- ---- ---- ------- ----- ---- -------<br>--- --- -- ----- -- --- ---- -- --- ---- -- ------ ------<br>--- ----- -- ----,213664.00000000003,213655,213076,213049,213092,213692,,3,to
screen,html.Screen,1_1_0_1_4,2021-03-29T11:37:53.667Z,,,,,,,,,,,,,,,,53,,,,,,,,,,,,,,429.0000000000291,response,,,,99,,,,,,Space,keypress(Space),,,,,,,,---- -- ----- -- having - ------- --- ----------<br>------------- ------ ------ ---- ---- ------- ----- -- ----<br>-------- ------- -- ---------- --- - --- ----- ----- ----<br>---- --- --- ----- --- ---- ---- ------- ----- ---- -------<br>--- --- -- ----- -- --- ---- -- --- ---- -- ------ ------<br>--- ----- -- ----,214114,214105.00000000003,213676,213665,213692,214142,,4,having
screen,html.Screen,1_1_0_1_5,2021-03-29T11:37:54.204Z,,,,,,,,,,,,,,,,53,,,,,,,,,,,,,,516,response,,,,99,,,,,,Space,keypress(Space),,,,,,,,---- -- ----- -- ------ a ------- --- ----------<br>------------- ------ ------ ---- ---- ------- ----- -- ----<br>-------- ------- -- ---------- --- - --- ----- ----- ----<br>---- --- --- ----- --- ---- ---- ------- ----- ---- -------<br>--- --- -- ----- -- --- ---- -- --- ---- -- ------ ------<br>--- ----- -- ----,214651,214642,214126,214114,214142,214692,,5,a
screen,html.Screen,1_1_0_1_6,2021-03-29T11:37:54.632Z,,,,,,,,,,,,,,,,53,,,,,,,,,,,,,,394,response,,,,99,,,,,,Space,keypress(Space),,,,,,,,---- -- ----- -- ------ - lasting --- ----------<br>------------- ------ ------ ---- ---- ------- ----- -- ----<br>-------- ------- -- ---------- --- - --- ----- ----- ----<br>---- --- --- ----- --- ---- ---- ------- ----- ---- -------<br>--- --- -- ----- -- --- ---- -- --- ---- -- ------ ------<br>--- ----- -- ----,215079,215070,214676,214652.00000000003,214692,215109,,6,lasting
screen,html.Screen,1_1_0_1_7,2021-03-29T11:37:55.208Z,,,,,,,,,,,,,,,,53,,,,,,,,,,,,,,554.0000000000291,response,,,,99,,,,,,Space,keypress(Space),,,,,,,,---- -- ----- -- ------ - ------- and ----------<br>------------- ------ ------ ---- ---- ------- ----- -- ----<br>-------- ------- -- ---------- --- - --- ----- ----- ----<br>---- --- --- ----- --- ---- ---- ------- ----- ---- -------<br>--- --- -- ----- -- --- ---- -- --- ---- -- ------ ------<br>--- ----- -- ----,215655,215646.00000000003,215092,215079,215109,215692,,7,and
screen,html.Screen,1_1_0_1_8,2021-03-29T11:37:55.849Z,,,,,,,,,,,,,,,,53,,,,,,,,,,,,,,611,response,,,,99,,,,,,Space,keypress(Space),,,,,,,,---- -- ----- -- ------ - ------- --- fulfilling<br>------------- ------ ------ ---- ---- ------- ----- -- ----<br>-------- ------- -- ---------- --- - --- ----- ----- ----<br>---- --- --- ----- --- ---- ---- ------- ----- ---- -------<br>--- --- -- ----- -- --- ---- -- --- ---- -- ------ ------<br>--- ----- -- ----,216296,216287,215676,215656,215692,216326,,8,fulfilling
screen,html.Screen,1_1_0_1_9,2021-03-29T11:37:56.491Z,,,,,,,,,,,,,,,,53,,,,,,,,,,,,,,620,response,,,,99,,,,,,Space,keypress(Space),,,,,,,,"---- -- ----- -- ------ - ------- --- ----------<br>relationship, ------ ------ ---- ---- ------- ----- -- ----<br>-------- ------- -- ---------- --- - --- ----- ----- ----<br>---- --- --- ----- --- ---- ---- ------- ----- ---- -------<br>--- --- -- ----- -- --- ---- -- --- ---- -- ------ ------<br>--- ----- -- ----",216938.00000000003,216929,216309,216297,216326,216976,,9,"relationship,"
screen,html.Screen,1_1_0_1_10,2021-03-29T11:37:57.109Z,,,,,,,,,,,,,,,,53,,,,,,,,,,,,,,589,response,,,,99,,,,,,Space,keypress(Space),,,,,,,,---- -- ----- -- ------ - ------- --- ----------<br>------------- common ------ ---- ---- ------- ----- -- ----<br>-------- ------- -- ---------- --- - --- ----- ----- ----<br>---- --- --- ----- --- ---- ---- ------- ----- ---- -------<br>--- --- -- ----- -- --- ---- -- --- ---- -- ------ ------<br>--- ----- -- ----,217556,217547,216958,216938.00000000003,216976,217592,,10,common
screen,html.Screen,1_1_0_1_11,2021-03-29T11:37:57.671Z,,,,,,,,,,,,,,,,53,,,,,,,,,,,,,,535,response,,,,99,,,,,,Space,keypress(Space),,,,,,,,---- -- ----- -- ------ - ------- --- ----------<br>------------- ------ wisdom ---- ---- ------- ----- -- ----<br>-------- ------- -- ---------- --- - --- ----- ----- ----<br>---- --- --- ----- --- ---- ---- ------- ----- ---- -------<br>--- --- -- ----- -- --- ---- -- --- ---- -- ------ ------<br>--- ----- -- ----,218119,218110,217575,217557.00000000003,217592,218159,,11,wisdom
screen,html.Screen,1_1_0_1_12,2021-03-29T11:37:58.212Z,,,,,,,,,,,,,,,,53,,,,,,,,,,,,,,508,response,,,,99,,,,,,Space,keypress(Space),,,,,,,,---- -- ----- -- ------ - ------- --- ----------<br>------------- ------ ------ says ---- ------- ----- -- ----<br>-------- ------- -- ---------- --- - --- ----- ----- ----<br>---- --- --- ----- --- ---- ---- ------- ----- ---- -------<br>--- --- -- ----- -- --- ---- -- --- ---- -- ------ ------<br>--- ----- -- ----,218659,218650,218142,218119,218159,218692,,12,says
screen,html.Screen,1_1_0_1_13,2021-03-29T11:37:58.832Z,,,,,,,,,,,,,,,,53,,,,,,,,,,,,,,593,response,,,,99,,,,,,Space,keypress(Space),,,,,,,,---- -- ----- -- ------ - ------- --- ----------<br>------------- ------ ------ ---- that ------- ----- -- ----<br>-------- ------- -- ---------- --- - --- ----- ----- ----<br>---- --- --- ----- --- ---- ---- ------- ----- ---- -------<br>--- --- -- ----- -- --- ---- -- --- ---- -- ------ ------<br>--- ----- -- ----,219279,219269,218676,218659,218692,219309,,13,that
screen,html.Screen,1_1_0_1_14,2021-03-29T11:37:59.460Z,,,,,,,,,,,,,,,,53,,,,,,,,,,,,,,606,response,,,,99,,,,,,Space,keypress(Space),,,,,,,,---- -- ----- -- ------ - ------- --- ----------<br>------------- ------ ------ ---- ---- feeling ----- -- ----<br>-------- ------- -- ---------- --- - --- ----- ----- ----<br>---- --- --- ----- --- ---- ---- ------- ----- ---- -------<br>--- --- -- ----- -- --- ---- -- --- ---- -- ------ ------<br>--- ----- -- ----,219907,219898,219292,219279,219309,219942,,14,feeling
screen,html.Screen,1_1_0_1_15,2021-03-29T11:38:00.000Z,,,,,,,,,,,,,,,,53,,,,,,,,,,,,,,513.0000000000291,response,,,,99,,,,,,Space,keypress(Space),,,,,,,,---- -- ----- -- ------ - ------- --- ----------<br>------------- ------ ------ ---- ---- ------- close -- ----<br>-------- ------- -- ---------- --- - --- ----- ----- ----<br>---- --- --- ----- --- ---- ---- ------- ----- ---- -------<br>--- --- -- ----- -- --- ---- -- --- ---- -- ------ ------<br>--- ----- -- ----,220448,220438.00000000003,219925,219908.00000000003,219942,220476,,15,close
screen,html.Screen,1_1_0_1_16,2021-03-29T11:38:00.643Z,,,,,,,,,,,,,,,,53,,,,,,,,,,,,,,622.0000000000291,response,,,,99,,,,,,Space,keypress(Space),,,,,,,,---- -- ----- -- ------ - ------- --- ----------<br>------------- ------ ------ ---- ---- ------- ----- to ----<br>-------- ------- -- ---------- --- - --- ----- ----- ----<br>---- --- --- ----- --- ---- ---- ------- ----- ---- -------<br>--- --- -- ----- -- --- ---- -- --- ---- -- ------ ------<br>--- ----- -- ----,221090,221081.00000000003,220459,220448,220476,221126,,16,to
screen,html.Screen,1_1_0_1_17,2021-03-29T11:38:01.190Z,,,,,,,,,,,,,,,,53,,,,,,,,,,,,,,519,response,,,,99,,,,,,Space,keypress(Space),,,,,,,,---- -- ----- -- ------ - ------- --- ----------<br>------------- ------ ------ ---- ---- ------- ----- -- your<br>-------- ------- -- ---------- --- - --- ----- ----- ----<br>---- --- --- ----- --- ---- ---- ------- ----- ---- -------<br>--- --- -- ----- -- --- ---- -- --- ---- -- ------ ------<br>--- ----- -- ----,221637,221628,221109,221090,221126,221676,,17,your
screen,html.Screen,1_1_0_1_18,2021-03-29T11:38:01.819Z,,,,,,,,,,,,,,,,53,,,,,,,,,,,,,,598,response,,,,99,,,,,,Space,keypress(Space),,,,,,,,---- -- ----- -- ------ - ------- --- ----------<br>------------- ------ ------ ---- ---- ------- ----- -- ----<br>romantic ------- -- ---------- --- - --- ----- ----- ----<br>---- --- --- ----- --- ---- ---- ------- ----- ---- -------<br>--- --- -- ----- -- --- ---- -- --- ---- -- ------ ------<br>--- ----- -- ----,222266,222257,221659,221637,221676,222309,,18,romantic
screen,html.Screen,1_1_0_1_19,2021-03-29T11:38:02.380Z,,,,,,,,,,,,,,,,53,,,,,,,,,,,,,,526,response,,,,99,,,,,,Space,keypress(Space),,,,,,,,---- -- ----- -- ------ - ------- --- ----------<br>------------- ------ ------ ---- ---- ------- ----- -- ----<br>-------- partner -- ---------- --- - --- ----- ----- ----<br>---- --- --- ----- --- ---- ---- ------- ----- ---- -------<br>--- --- -- ----- -- --- ---- -- --- ---- -- ------ ------<br>--- ----- -- ----,222827,222818,222292,222267,222309,222858,,19,partner
screen,html.Screen,1_1_0_1_20,2021-03-29T11:38:02.854Z,,,,,,,,,,,,,,,,53,,,,,,,,,,,,,,451,response,,,,99,,,,,,Space,keypress(Space),,,,,,,,---- -- ----- -- ------ - ------- --- ----------<br>------------- ------ ------ ---- ---- ------- ----- -- ----<br>-------- ------- is ---------- --- - --- ----- ----- ----<br>---- --- --- ----- --- ---- ---- ------- ----- ---- -------<br>--- --- -- ----- -- --- ---- -- --- ---- -- ------ ------<br>--- ----- -- ----,223301.00000000003,223292,222841,222828,222858,223342,,20,is
screen,html.Screen,1_1_0_1_21,2021-03-29T11:38:03.589Z,,,,,,,,,,,,,,,,53,,,,,,,,,,,,,,702.0000000000291,response,,,,99,,,,,,Space,keypress(Space),,,,,,,,---- -- ----- -- ------ - ------- --- ----------<br>------------- ------ ------ ---- ---- ------- ----- -- ----<br>-------- ------- -- paramount. --- - --- ----- ----- ----<br>---- --- --- ----- --- ---- ---- ------- ----- ---- -------<br>--- --- -- ----- -- --- ---- -- --- ---- -- ------ ------<br>--- ----- -- ----,224036,224027.00000000003,223325,223301.00000000003,223342,224075,,21,paramount.
screen,html.Screen,1_1_0_1_22,2021-03-29T11:38:04.184Z,,,,,,,,,,,,,,,,53,,,,,,,,,,,,,,564.0000000000291,response,,,,99,,,,,,Space,keypress(Space),,,,,,,,---- -- ----- -- ------ - ------- --- ----------<br>------------- ------ ------ ---- ---- ------- ----- -- ----<br>-------- ------- -- ---------- But - --- ----- ----- ----<br>---- --- --- ----- --- ---- ---- ------- ----- ---- -------<br>--- --- -- ----- -- --- ---- -- --- ---- -- ------ ------<br>--- ----- -- ----,224632,224623.00000000003,224059,224036,224075,224675,,22,But
screen,html.Screen,1_1_0_1_23,2021-03-29T11:38:04.759Z,,,,,,,,,,,,,,,,53,,,,,,,,,,,,,,539,response,,,,99,,,,,,Space,keypress(Space),,,,,,,,---- -- ----- -- ------ - ------- --- ----------<br>------------- ------ ------ ---- ---- ------- ----- -- ----<br>-------- ------- -- ---------- --- a --- ----- ----- ----<br>---- --- --- ----- --- ---- ---- ------- ----- ---- -------<br>--- --- -- ----- -- --- ---- -- --- ---- -- ------ ------<br>--- ----- -- ----,225206.00000000003,225197,224658,224632,224675,225242,,23,a
screen,html.Screen,1_1_0_1_24,2021-03-29T11:38:05.487Z,,,,,,,,,,,,,,,,53,,,,,,,,,,,,,,700,response,,,,99,,,,,,Space,keypress(Space),,,,,,,,---- -- ----- -- ------ - ------- --- ----------<br>------------- ------ ------ ---- ---- ------- ----- -- ----<br>-------- ------- -- ---------- --- - new ----- ----- ----<br>---- --- --- ----- --- ---- ---- ------- ----- ---- -------<br>--- --- -- ----- -- --- ---- -- --- ---- -- ------ ------<br>--- ----- -- ----,225934,225925,225225,225206.00000000003,225242,225975,,24,new
screen,html.Screen,1_1_0_1_25,2021-03-29T11:38:05.968Z,,,,,,,,,,,,,,,,53,,,,,,,,,,,,,,449.0000000000291,response,,,,99,,,,,,Space,keypress(Space),,,,,,,,---- -- ----- -- ------ - ------- --- ----------<br>------------- ------ ------ ---- ---- ------- ----- -- ----<br>-------- ------- -- ---------- --- - --- study ----- ----<br>---- --- --- ----- --- ---- ---- ------- ----- ---- -------<br>--- --- -- ----- -- --- ---- -- --- ---- -- ------ ------<br>--- ----- -- ----,226415,226408.00000000003,225959,225934,225975,226459,,25,study
screen,html.Screen,1_1_0_1_26,2021-03-29T11:38:06.401Z,,,,,,,,,,,,,,,,53,,,,,,,,,,,,,,398,response,,,,99,,,,,,Space,keypress(Space),,,,,,,,---- -- ----- -- ------ - ------- --- ----------<br>------------- ------ ------ ---- ---- ------- ----- -- ----<br>-------- ------- -- ---------- --- - --- ----- finds ----<br>---- --- --- ----- --- ---- ---- ------- ----- ---- -------<br>--- --- -- ----- -- --- ---- -- --- ---- -- ------ ------<br>--- ----- -- ----,226848,226839,226441,226415,226459,226892,,26,finds
screen,html.Screen,1_1_0_1_27,2021-03-29T11:38:06.840Z,,,,,,,,,,,,,,,,53,,,,,,,,,,,,,,403,response,,,,99,,,,,,Space,keypress(Space),,,,,,,,---- -- ----- -- ------ - ------- --- ----------<br>------------- ------ ------ ---- ---- ------- ----- -- ----<br>-------- ------- -- ---------- --- - --- ----- ----- that<br>---- --- --- ----- --- ---- ---- ------- ----- ---- -------<br>--- --- -- ----- -- --- ---- -- --- ---- -- ------ ------<br>--- ----- -- ----,227287,227278,226875,226849.00000000003,226892,227325,,27,that
screen,html.Screen,1_1_0_1_28,2021-03-29T11:38:07.302Z,,,,,,,,,,,,,,,,53,,,,,,,,,,,,,,430,response,,,,99,,,,,,Space,keypress(Space),,,,,,,,---- -- ----- -- ------ - ------- --- ----------<br>------------- ------ ------ ---- ---- ------- ----- -- ----<br>-------- ------- -- ---------- --- - --- ----- ----- ----<br>it's --- --- ----- --- ---- ---- ------- ----- ---- -------<br>--- --- -- ----- -- --- ---- -- --- ---- -- ------ ------<br>--- ----- -- ----,227749,227739,227309,227288,227325,227791,,28,it's
screen,html.Screen,1_1_0_1_29,2021-03-29T11:38:07.841Z,,,,,,,,,,,,,,,,53,,,,,,,,,,,,,,504,response,,,,99,,,,,,Space,keypress(Space),,,,,,,,---- -- ----- -- ------ - ------- --- ----------<br>------------- ------ ------ ---- ---- ------- ----- -- ----<br>-------- ------- -- ---------- --- - --- ----- ----- ----<br>---- not --- ----- --- ---- ---- ------- ----- ---- -------<br>--- --- -- ----- -- --- ---- -- --- ---- -- ------ ------<br>--- ----- -- ----,228288,228279,227775,227749,227791,228325,,29,not
screen,html.Screen,1_1_0_1_30,2021-03-29T11:38:08.325Z,,,,,,,,,,,,,,,,53,,,,,,,,,,,,,,455,response,,,,99,,,,,,Space,keypress(Space),,,,,,,,---- -- ----- -- ------ - ------- --- ----------<br>------------- ------ ------ ---- ---- ------- ----- -- ----<br>-------- ------- -- ---------- --- - --- ----- ----- ----<br>---- --- how ----- --- ---- ---- ------- ----- ---- -------<br>--- --- -- ----- -- --- ---- -- --- ---- -- ------ ------<br>--- ----- -- ----,228772,228763,228308,228288,228325,228808,,30,how
screen,html.Screen,1_1_0_1_31,2021-03-29T11:38:08.786Z,,,,,,,,,,,,,,,,53,,,,,,,,,,,,,,433.0000000000291,response,,,,99,,,,,,Space,keypress(Space),,,,,,,,---- -- ----- -- ------ - ------- --- ----------<br>------------- ------ ------ ---- ---- ------- ----- -- ----<br>-------- ------- -- ---------- --- - --- ----- ----- ----<br>---- --- --- close --- ---- ---- ------- ----- ---- -------<br>--- --- -- ----- -- --- ---- -- --- ---- -- ------ ------<br>--- ----- -- ----,229233,229224.00000000003,228791,228772,228808,229275,,31,close
screen,html.Screen,1_1_0_1_32,2021-03-29T11:38:09.177Z,,,,,,,,,,,,,,,,53,,,,,,,,,,,,,,358,response,,,,99,,,,,,Space,keypress(Space),,,,,,,,---- -- ----- -- ------ - ------- --- ----------<br>------------- ------ ------ ---- ---- ------- ----- -- ----<br>-------- ------- -- ---------- --- - --- ----- ----- ----<br>---- --- --- ----- you ---- ---- ------- ----- ---- -------<br>--- --- -- ----- -- --- ---- -- --- ---- -- ------ ------<br>--- ----- -- ----,229625,229616,229258,229233,229275,229657,,32,you
screen,html.Screen,1_1_0_1_33,2021-03-29T11:38:09.608Z,,,,,,,,,,,,,,,,53,,,,,,,,,,,,,,405,response,,,,99,,,,,,Space,keypress(Space),,,,,,,,---- -- ----- -- ------ - ------- --- ----------<br>------------- ------ ------ ---- ---- ------- ----- -- ----<br>-------- ------- -- ---------- --- - --- ----- ----- ----<br>---- --- --- ----- --- feel ---- ------- ----- ---- -------<br>--- --- -- ----- -- --- ---- -- --- ---- -- ------ ------<br>--- ----- -- ----,230055,230046,229641,229625,229657,230092,,33,feel
screen,html.Screen,1_1_0_1_34,2021-03-29T11:38:10.092Z,,,,,,,,,,,,,,,,53,,,,,,,,,,,,,,455,response,,,,99,,,,,,Space,keypress(Space),,,,,,,,---- -- ----- -- ------ - ------- --- ----------<br>------------- ------ ------ ---- ---- ------- ----- -- ----<br>-------- ------- -- ---------- --- - --- ----- ----- ----<br>---- --- --- ----- --- ---- that ------- ----- ---- -------<br>--- --- -- ----- -- --- ---- -- --- ---- -- ------ ------<br>--- ----- -- ----,230539.00000000003,230530,230075,230055,230092,230575,,34,that
screen,html.Screen,1_1_0_1_35,2021-03-29T11:38:10.575Z,,,,,,,,,,,,,,,,53,,,,,,,,,,,,,,455,response,,,,99,,,,,,Space,keypress(Space),,,,,,,,---- -- ----- -- ------ - ------- --- ----------<br>------------- ------ ------ ---- ---- ------- ----- -- ----<br>-------- ------- -- ---------- --- - --- ----- ----- ----<br>---- --- --- ----- --- ---- ---- matters ----- ---- -------<br>--- --- -- ----- -- --- ---- -- --- ---- -- ------ ------<br>--- ----- -- ----,231022,231013,230558,230539.00000000003,230575,231058,,35,matters
screen,html.Screen,1_1_0_1_36,2021-03-29T11:38:10.954Z,,,,,,,,,,,,,,,,53,,,,,,,,,,,,,,351,response,,,,99,,,,,,Space,keypress(Space),,,,,,,,"---- -- ----- -- ------ - ------- --- ----------<br>------------- ------ ------ ---- ---- ------- ----- -- ----<br>-------- ------- -- ---------- --- - --- ----- ----- ----<br>---- --- --- ----- --- ---- ---- ------- most, ---- -------<br>--- --- -- ----- -- --- ---- -- --- ---- -- ------ ------<br>--- ----- -- ----",231401,231392,231041,231022,231058,231424,,36,"most,"
screen,html.Screen,1_1_0_1_37,2021-03-29T11:38:11.494Z,,,,,,,,,,,,,,,,53,,,,,,,,,,,,,,524.0000000000291,response,,,,99,,,,,,Space,keypress(Space),,,,,,,,---- -- ----- -- ------ - ------- --- ----------<br>------------- ------ ------ ---- ---- ------- ----- -- ----<br>-------- ------- -- ---------- --- - --- ----- ----- ----<br>---- --- --- ----- --- ---- ---- ------- ----- it's -------<br>--- --- -- ----- -- --- ---- -- --- ---- -- ------ ------<br>--- ----- -- ----,231941,231932.00000000003,231408,231401,231424,231975,,37,it's
screen,html.Screen,1_1_0_1_38,2021-03-29T11:38:12.056Z,,,,,,,,,,,,,,,,53,,,,,,,,,,,,,,537,response,,,,99,,,,,,Space,keypress(Space),,,,,,,,---- -- ----- -- ------ - ------- --- ----------<br>------------- ------ ------ ---- ---- ------- ----- -- ----<br>-------- ------- -- ---------- --- - --- ----- ----- ----<br>---- --- --- ----- --- ---- ---- ------- ----- ---- whether<br>--- --- -- ----- -- --- ---- -- --- ---- -- ------ ------<br>--- ----- -- ----,232504,232495,231958,231942,231975,232541,,38,whether
screen,html.Screen,1_1_0_1_39,2021-03-29T11:38:12.547Z,,,,,,,,,,,,,,,,53,,,,,,,,,,,,,,460,response,,,,99,,,,,,Space,keypress(Space),,,,,,,,---- -- ----- -- ------ - ------- --- ----------<br>------------- ------ ------ ---- ---- ------- ----- -- ----<br>-------- ------- -- ---------- --- - --- ----- ----- ----<br>---- --- --- ----- --- ---- ---- ------- ----- ---- -------<br>you --- -- ----- -- --- ---- -- --- ---- -- ------ ------<br>--- ----- -- ----,232994,232985,232525,232504,232541,233025,,39,you
screen,html.Screen,1_1_0_1_40,2021-03-29T11:38:12.979Z,,,,,,,,,,,,,,,,53,,,,,,,,,,,,,,409,response,,,,99,,,,,,Space,keypress(Space),,,,,,,,---- -- ----- -- ------ - ------- --- ----------<br>------------- ------ ------ ---- ---- ------- ----- -- ----<br>-------- ------- -- ---------- --- - --- ----- ----- ----<br>---- --- --- ----- --- ---- ---- ------- ----- ---- -------<br>--- are -- ----- -- --- ---- -- --- ---- -- ------ ------<br>--- ----- -- ----,233426.00000000003,233417,233008,232994,233025,233458,,40,are
screen,html.Screen,1_1_0_1_41,2021-03-29T11:38:13.531Z,,,,,,,,,,,,,,,,53,,,,,,,,,,,,,,527.0000000000291,response,,,,99,,,,,,Space,keypress(Space),,,,,,,,---- -- ----- -- ------ - ------- --- ----------<br>------------- ------ ------ ---- ---- ------- ----- -- ----<br>-------- ------- -- ---------- --- - --- ----- ----- ----<br>---- --- --- ----- --- ---- ---- ------- ----- ---- -------<br>--- --- as ----- -- --- ---- -- --- ---- -- ------ ------<br>--- ----- -- ----,233978,233968.00000000003,233441,233426.00000000003,233458,234008,,41,as
screen,html.Screen,1_1_0_1_42,2021-03-29T11:38:13.968Z,,,,,,,,,,,,,,,,53,,,,,,,,,,,,,,416,response,,,,99,,,,,,Space,keypress(Space),,,,,,,,---- -- ----- -- ------ - ------- --- ----------<br>------------- ------ ------ ---- ---- ------- ----- -- ----<br>-------- ------- -- ---------- --- - --- ----- ----- ----<br>---- --- --- ----- --- ---- ---- ------- ----- ---- -------<br>--- --- -- close -- --- ---- -- --- ---- -- ------ ------<br>--- ----- -- ----,234415,234407,233991,233978,234008,234458,,42,close
screen,html.Screen,1_1_0_1_43,2021-03-29T11:38:14.434Z,,,,,,,,,,,,,,,,53,,,,,,,,,,,,,,431,response,,,,99,,,,,,Space,keypress(Space),,,,,,,,---- -- ----- -- ------ - ------- --- ----------<br>------------- ------ ------ ---- ---- ------- ----- -- ----<br>-------- ------- -- ---------- --- - --- ----- ----- ----<br>---- --- --- ----- --- ---- ---- ------- ----- ---- -------<br>--- --- -- ----- as --- ---- -- --- ---- -- ------ ------<br>--- ----- -- ----,234881,234872,234441,234416,234458,234925,,43,as
screen,html.Screen,1_1_0_1_44,2021-03-29T11:38:14.827Z,,,,,,,,,,,,,,,,53,,,,,,,,,,,,,,358,response,,,,99,,,,,,Space,keypress(Space),,,,,,,,---- -- ----- -- ------ - ------- --- ----------<br>------------- ------ ------ ---- ---- ------- ----- -- ----<br>-------- ------- -- ---------- --- - --- ----- ----- ----<br>---- --- --- ----- --- ---- ---- ------- ----- ---- -------<br>--- --- -- ----- -- you ---- -- --- ---- -- ------ ------<br>--- ----- -- ----,235275,235266,234908,234881,234925,235308,,44,you
screen,html.Screen,1_1_0_1_45,2021-03-29T11:38:15.288Z,,,,,,,,,,,,,,,,53,,,,,,,,,,,,,,436,response,,,,99,,,,,,Space,keypress(Space),,,,,,,,---- -- ----- -- ------ - ------- --- ----------<br>------------- ------ ------ ---- ---- ------- ----- -- ----<br>-------- ------- -- ---------- --- - --- ----- ----- ----<br>---- --- --- ----- --- ---- ---- ------- ----- ---- -------<br>--- --- -- ----- -- --- want -- --- ---- -- ------ ------<br>--- ----- -- ----,235735,235727,235291,235275,235308,235775,,45,want
screen,html.Screen,1_1_0_1_46,2021-03-29T11:38:15.671Z,,,,,,,,,,,,,,,,53,,,,,,,,,,,,,,352,response,,,,99,,,,,,Space,keypress(Space),,,,,,,,---- -- ----- -- ------ - ------- --- ----------<br>------------- ------ ------ ---- ---- ------- ----- -- ----<br>-------- ------- -- ---------- --- - --- ----- ----- ----<br>---- --- --- ----- --- ---- ---- ------- ----- ---- -------<br>--- --- -- ----- -- --- ---- to --- ---- -- ------ ------<br>--- ----- -- ----,236119,236110,235758,235736.00000000003,235775,236141,,46,to
screen,html.Screen,1_1_0_1_47,2021-03-29T11:38:16.200Z,,,,,,,,,,,,,,,,53,,,,,,,,,,,,,,513,response,,,,99,,,,,,Space,keypress(Space),,,,,,,,"---- -- ----- -- ------ - ------- --- ----------<br>------------- ------ ------ ---- ---- ------- ----- -- ----<br>-------- ------- -- ---------- --- - --- ----- ----- ----<br>---- --- --- ----- --- ---- ---- ------- ----- ---- -------<br>--- --- -- ----- -- --- ---- -- be, ---- -- ------ ------<br>--- ----- -- ----",236647,236638,236125,236119,236141,236675,,47,"be,"
screen,html.Screen,1_1_0_1_48,2021-03-29T11:38:16.729Z,,,,,,,,,,,,,,,,53,,,,,,,,,,,,,,508,response,,,,99,,,,,,Space,keypress(Space),,,,,,,,---- -- ----- -- ------ - ------- --- ----------<br>------------- ------ ------ ---- ---- ------- ----- -- ----<br>-------- ------- -- ---------- --- - --- ----- ----- ----<br>---- --- --- ----- --- ---- ---- ------- ----- ---- -------<br>--- --- -- ----- -- --- ---- -- --- even -- ------ ------<br>--- ----- -- ----,237176.00000000003,237166,236658,236648,236675,237208,,48,even
screen,html.Screen,1_1_0_1_49,2021-03-29T11:38:17.213Z,,,,,,,,,,,,,,,,53,,,,,,,,,,,,,,460,response,,,,99,,,,,,Space,keypress(Space),,,,,,,,---- -- ----- -- ------ - ------- --- ----------<br>------------- ------ ------ ---- ---- ------- ----- -- ----<br>-------- ------- -- ---------- --- - --- ----- ----- ----<br>---- --- --- ----- --- ---- ---- ------- ----- ---- -------<br>--- --- -- ----- -- --- ---- -- --- ---- if ------ ------<br>--- ----- -- ----,237660,237651,237191,237176.00000000003,237208,237691,,49,if
screen,html.Screen,1_1_0_1_50,2021-03-29T11:38:17.640Z,,,,,,,,,,,,,,,,53,,,,,,,,,,,,,,404,response,,,,99,,,,,,Space,keypress(Space),,,,,,,,---- -- ----- -- ------ - ------- --- ----------<br>------------- ------ ------ ---- ---- ------- ----- -- ----<br>-------- ------- -- ---------- --- - --- ----- ----- ----<br>---- --- --- ----- --- ---- ---- ------- ----- ---- -------<br>--- --- -- ----- -- --- ---- -- --- ---- -- that's ------<br>--- ----- -- ----,238087.00000000003,238078,237674,237660,237691,238124,,50,that's
screen,html.Screen,1_1_0_1_51,2021-03-29T11:38:18.146Z,,,,,,,,,,,,,,,,53,,,,,,,,,,,,,,476,response,,,,99,,,,,,Space,keypress(Space),,,,,,,,---- -- ----- -- ------ - ------- --- ----------<br>------------- ------ ------ ---- ---- ------- ----- -- ----<br>-------- ------- -- ---------- --- - --- ----- ----- ----<br>---- --- --- ----- --- ---- ---- ------- ----- ---- -------<br>--- --- -- ----- -- --- ---- -- --- ---- -- ------ really<br>--- ----- -- ----,238594,238584,238108,238087.00000000003,238124,238624,,51,really
screen,html.Screen,1_1_0_1_52,2021-03-29T11:38:18.570Z,,,,,,,,,,,,,,,,53,,,,,,,,,,,,,,400,response,,,,99,,,,,,Space,keypress(Space),,,,,,,,---- -- ----- -- ------ - ------- --- ----------<br>------------- ------ ------ ---- ---- ------- ----- -- ----<br>-------- ------- -- ---------- --- - --- ----- ----- ----<br>---- --- --- ----- --- ---- ---- ------- ----- ---- -------<br>--- --- -- ----- -- --- ---- -- --- ---- -- ------ ------<br>not ----- -- ----,239018,239008,238608,238594,238624,239058,,52,not
screen,html.Screen,1_1_0_1_53,2021-03-29T11:38:19.530Z,,,,,,,,,,,,,,,,53,,,,,,,,,,,,,,927.0000000000291,response,,,,99,,,,,,Space,keypress(Space),,,,,,,,---- -- ----- -- ------ - ------- --- ----------<br>------------- ------ ------ ---- ---- ------- ----- -- ----<br>-------- ------- -- ---------- --- - --- ----- ----- ----<br>---- --- --- ----- --- ---- ---- ------- ----- ---- -------<br>--- --- -- ----- -- --- ---- -- --- ---- -- ------ ------<br>--- close -- ----,239977,239968.00000000003,239041,239018,239058,240008,,53,close
screen,html.Screen,1_1_0_1_54,2021-03-29T11:38:20.081Z,,,,,,,,,,,,,,,,53,,,,,,,,,,,,,,528,response,,,,99,,,,,,Space,keypress(Space),,,,,,,,---- -- ----- -- ------ - ------- --- ----------<br>------------- ------ ------ ---- ---- ------- ----- -- ----<br>-------- ------- -- ---------- --- - --- ----- ----- ----<br>---- --- --- ----- --- ---- ---- ------- ----- ---- -------<br>--- --- -- ----- -- --- ---- -- --- ---- -- ------ ------<br>--- ----- at ----,240528,240519,239991,239977,240008,240558,,54,at
screen,html.Screen,1_1_0_1_55,2021-03-29T11:38:20.601Z,,,,,,,,,,,,,,,,53,,,,,,,,,,,,,,502,response,,,,99,,,,,,Space,keypress(Space),,,,,,,,---- -- ----- -- ------ - ------- --- ----------<br>------------- ------ ------ ---- ---- ------- ----- -- ----<br>-------- ------- -- ---------- --- - --- ----- ----- ----<br>---- --- --- ----- --- ---- ---- ------- ----- ---- -------<br>--- --- -- ----- -- --- ---- -- --- ---- -- ------ ------<br>--- ----- -- all.,241048,241042,240540,240529,240558,241090,,55,all.
Item 99,flow.Loop,1_1_0_1,2021-03-29T11:38:20.601Z,,,,,,,,,,,,,,,,,,,,,,,,,,,,,,30270,completion,,,,,E,,,,,,,,,,silence,,,,,241048,241042,210742,210743,210772,241090,,,
Question 1,html.Screen,1_1_0_2,2021-03-29T11:38:27.707Z,,,,,,,,,,,,,,,,,,,,,,,,,,,true,FALSE,,7074,response,,,,99,E,,,,,FALSE,click #choice-2,,,,silence,,,,,248154,248148,241074,241048,241090,248173,,,
Question 2,html.Screen,1_1_0_3,2021-03-29T11:38:36.056Z,,,,,,,,,,,,,,,,,,,,,,,,,,,true,TRUE,,8337,response,,,,99,E,,,,,TRUE,click #choice-1,,,,silence,,,,,256503,256498,248161,248154,248173,256523,,,
Item 99,flow.Sequence,1_1_0,2021-03-29T11:38:36.057Z,,,,,,,,,,,,,,,,,,,,,,,,,,,,,,52738,completion,,,,,,,,,,,,,,,,,,,,256504.00000000003,256498,203743,203736.00000000003,203760,256523,,,
Holding screen,html.Screen,1_1_1_0,2021-03-29T11:38:43.059Z,,,,,,,,,,,,,,,,,,,,,,,,,,,,,,6999,timeout,,,,,,,,,,,,,,,,,,,,263506,263505,256508,256504.00000000003,256523,263522,,,
screen,html.Screen,1_1_1_1_0,2021-03-29T11:38:43.605Z,,,,,,,,,,,,,,,,54,,,,,,,,,,,,,,537.0000000000582,response,,,,100,,,,,,Space,keypress(Space),,,,,,,,At --- ---- --- ------ ----- ------- ---- -- --- ------- --<br>------- ---------- ------ -- ----- -- ----- -- ---- ------<br>--- ----- --- --- ------ -------- ----- --- ------ ----- --<br>----- ----- ---------- --- --- ------ ------ ---- -- ------<br>------- --- ------ ----- --- ---- ------- -- ---- --- --<br>------- ------,264052,264042.00000000006,263505,263506,263522,264089,,0,At
screen,html.Screen,1_1_1_1_1,2021-03-29T11:38:43.975Z,,,,,,,,,,,,,,,,54,,,,,,,,,,,,,,340,response,,,,100,,,,,,Space,keypress(Space),,,,,,,,-- the ---- --- ------ ----- ------- ---- -- --- ------- --<br>------- ---------- ------ -- ----- -- ----- -- ---- ------<br>--- ----- --- --- ------ -------- ----- --- ------ ----- --<br>----- ----- ---------- --- --- ------ ------ ---- -- ------<br>------- --- ------ ----- --- ---- ------- -- ---- --- --<br>------- ------,264422,264413,264073,264053,264089,264456,,1,the
screen,html.Screen,1_1_1_1_2,2021-03-29T11:38:44.359Z,,,,,,,,,,,,,,,,54,,,,,,,,,,,,,,357,response,,,,100,,,,,,Space,keypress(Space),,,,,,,,-- --- time --- ------ ----- ------- ---- -- --- ------- --<br>------- ---------- ------ -- ----- -- ----- -- ---- ------<br>--- ----- --- --- ------ -------- ----- --- ------ ----- --<br>----- ----- ---------- --- --- ------ ------ ---- -- ------<br>------- --- ------ ----- --- ---- ------- -- ---- --- --<br>------- ------,264805,264796,264439,264423,264456,264839,,2,time
screen,html.Screen,1_1_1_1_3,2021-03-29T11:38:44.797Z,,,,,,,,,,,,,,,,54,,,,,,,,,,,,,,412,response,,,,100,,,,,,Space,keypress(Space),,,,,,,,-- --- ---- the ------ ----- ------- ---- -- --- ------- --<br>------- ---------- ------ -- ----- -- ----- -- ---- ------<br>--- ----- --- --- ------ -------- ----- --- ------ ----- --<br>----- ----- ---------- --- --- ------ ------ ---- -- ------<br>------- --- ------ ----- --- ---- ------- -- ---- --- --<br>------- ------,265244,265235,264823,264806,264839,265273,,3,the
screen,html.Screen,1_1_1_1_4,2021-03-29T11:38:45.247Z,,,,,,,,,,,,,,,,54,,,,,,,,,,,,,,429,response,,,,100,,,,,,Space,keypress(Space),,,,,,,,-- --- ---- --- French ----- ------- ---- -- --- ------- --<br>------- ---------- ------ -- ----- -- ----- -- ---- ------<br>--- ----- --- --- ------ -------- ----- --- ------ ----- --<br>----- ----- ---------- --- --- ------ ------ ---- -- ------<br>------- --- ------ ----- --- ---- ------- -- ---- --- --<br>------- ------,265694,265685,265256,265245,265273,265723,,4,French
screen,html.Screen,1_1_1_1_5,2021-03-29T11:38:45.716Z,,,,,,,,,,,,,,,,54,,,,,,,,,,,,,,448,response,,,,100,,,,,,Space,keypress(Space),,,,,,,,-- --- ---- --- ------ crown ------- ---- -- --- ------- --<br>------- ---------- ------ -- ----- -- ----- -- ---- ------<br>--- ----- --- --- ------ -------- ----- --- ------ ----- --<br>----- ----- ---------- --- --- ------ ------ ---- -- ------<br>------- --- ------ ----- --- ---- ------- -- ---- --- --<br>------- ------,266163,266154,265706,265694,265723,266206,,5,crown
screen,html.Screen,1_1_1_1_6,2021-03-29T11:38:46.193Z,,,,,,,,,,,,,,,,54,,,,,,,,,,,,,,440,response,,,,100,,,,,,Space,keypress(Space),,,,,,,,-- --- ---- --- ------ ----- secured ---- -- --- ------- --<br>------- ---------- ------ -- ----- -- ----- -- ---- ------<br>--- ----- --- --- ------ -------- ----- --- ------ ----- --<br>----- ----- ---------- --- --- ------ ------ ---- -- ------<br>------- --- ------ ----- --- ---- ------- -- ---- --- --<br>------- ------,266640,266630,266190,266163,266206,266673,,6,secured
screen,html.Screen,1_1_1_1_7,2021-03-29T11:38:46.650Z,,,,,,,,,,,,,,,,54,,,,,,,,,,,,,,432,response,,,,100,,,,,,Space,keypress(Space),,,,,,,,-- --- ---- --- ------ ----- ------- much -- --- ------- --<br>------- ---------- ------ -- ----- -- ----- -- ---- ------<br>--- ----- --- --- ------ -------- ----- --- ------ ----- --<br>----- ----- ---------- --- --- ------ ------ ---- -- ------<br>------- --- ------ ----- --- ---- ------- -- ---- --- --<br>------- ------,267097,267088,266656,266640,266673,267140,,7,much
screen,html.Screen,1_1_1_1_8,2021-03-29T11:38:47.115Z,,,,,,,,,,,,,,,,54,,,,,,,,,,,,,,430,response,,,,100,,,,,,Space,keypress(Space),,,,,,,,-- --- ---- --- ------ ----- ------- ---- of --- ------- --<br>------- ---------- ------ -- ----- -- ----- -- ---- ------<br>--- ----- --- --- ------ -------- ----- --- ------ ----- --<br>----- ----- ---------- --- --- ------ ------ ---- -- ------<br>------- --- ------ ----- --- ---- ------- -- ---- --- --<br>------- ------,267562,267553,267123,267098,267140,267606,,8,of
screen,html.Screen,1_1_1_1_9,2021-03-29T11:38:47.587Z,,,,,,,,,,,,,,,,54,,,,,,,,,,,,,,435,response,,,,100,,,,,,Space,keypress(Space),,,,,,,,-- --- ---- --- ------ ----- ------- ---- -- its ------- --<br>------- ---------- ------ -- ----- -- ----- -- ---- ------<br>--- ----- --- --- ------ -------- ----- --- ------ ----- --<br>----- ----- ---------- --- --- ------ ------ ---- -- ------<br>------- --- ------ ----- --- ---- ------- -- ---- --- --<br>------- ------,268034,268025,267590,267562,267606,268072,,9,its
screen,html.Screen,1_1_1_1_10,2021-03-29T11:38:48.004Z,,,,,,,,,,,,,,,,54,,,,,,,,,,,,,,385.0000000000582,response,,,,100,,,,,,Space,keypress(Space),,,,,,,,-- --- ---- --- ------ ----- ------- ---- -- --- revenue --<br>------- ---------- ------ -- ----- -- ----- -- ---- ------<br>--- ----- --- --- ------ -------- ----- --- ------ ----- --<br>----- ----- ---------- --- --- ------ ------ ---- -- ------<br>------- --- ------ ----- --- ---- ------- -- ---- --- --<br>------- ------,268450,268441.00000000006,268056,268034,268072,268489,,10,revenue
screen,html.Screen,1_1_1_1_11,2021-03-29T11:38:48.487Z,,,,,,,,,,,,,,,,54,,,,,,,,,,,,,,453,response,,,,100,,,,,,Space,keypress(Space),,,,,,,,-- --- ---- --- ------ ----- ------- ---- -- --- ------- by<br>------- ---------- ------ -- ----- -- ----- -- ---- ------<br>--- ----- --- --- ------ -------- ----- --- ------ ----- --<br>----- ----- ---------- --- --- ------ ------ ---- -- ------<br>------- --- ------ ----- --- ---- ------- -- ---- --- --<br>------- ------,268934,268925,268472,268451,268489,268973,,11,by
screen,html.Screen,1_1_1_1_12,2021-03-29T11:38:48.912Z,,,,,,,,,,,,,,,,54,,,,,,,,,,,,,,394,response,,,,100,,,,,,Space,keypress(Space),,,,,,,,-- --- ---- --- ------ ----- ------- ---- -- --- ------- --<br>issuing ---------- ------ -- ----- -- ----- -- ---- ------<br>--- ----- --- --- ------ -------- ----- --- ------ ----- --<br>----- ----- ---------- --- --- ------ ------ ---- -- ------<br>------- --- ------ ----- --- ---- ------- -- ---- --- --<br>------- ------,269359,269349,268955,268934,268973,269389,,12,issuing
screen,html.Screen,1_1_1_1_13,2021-03-29T11:38:49.455Z,,,,,,,,,,,,,,,,54,,,,,,,,,,,,,,519,response,,,,100,,,,,,Space,keypress(Space),,,,,,,,-- --- ---- --- ------ ----- ------- ---- -- --- ------- --<br>------- government ------ -- ----- -- ----- -- ---- ------<br>--- ----- --- --- ------ -------- ----- --- ------ ----- --<br>----- ----- ---------- --- --- ------ ------ ---- -- ------<br>------- --- ------ ----- --- ---- ------- -- ---- --- --<br>------- ------,269902,269892,269373,269359,269389,269939,,13,government
screen,html.Screen,1_1_1_1_14,2021-03-29T11:38:49.961Z,,,,,,,,,,,,,,,,54,,,,,,,,,,,,,,475,response,,,,100,,,,,,Space,keypress(Space),,,,,,,,-- --- ---- --- ------ ----- ------- ---- -- --- ------- --<br>------- ---------- bonds. -- ----- -- ----- -- ---- ------<br>--- ----- --- --- ------ -------- ----- --- ------ ----- --<br>----- ----- ---------- --- --- ------ ------ ---- -- ------<br>------- --- ------ ----- --- ---- ------- -- ---- --- --<br>------- ------,270408,270398,269923,269902,269939,270439,,14,bonds.
screen,html.Screen,1_1_1_1_15,2021-03-29T11:38:50.467Z,,,,,,,,,,,,,,,,54,,,,,,,,,,,,,,482.0000000000582,response,,,,100,,,,,,Space,keypress(Space),,,,,,,,-- --- ---- --- ------ ----- ------- ---- -- --- ------- --<br>------- ---------- ------ In ----- -- ----- -- ---- ------<br>--- ----- --- --- ------ -------- ----- --- ------ ----- --<br>----- ----- ---------- --- --- ------ ------ ---- -- ------<br>------- --- ------ ----- --- ---- ------- -- ---- --- --<br>------- ------,270914,270905.00000000006,270423,270408,270439,270956,,15,In
screen,html.Screen,1_1_1_1_16,2021-03-29T11:38:51.424Z,,,,,,,,,,,,,,,,54,,,,,,,,,,,,,,922,response,,,,100,,,,,,Space,keypress(Space),,,,,,,,"-- --- ---- --- ------ ----- ------- ---- -- --- ------- --<br>------- ---------- ------ -- 1727, -- ----- -- ---- ------<br>--- ----- --- --- ------ -------- ----- --- ------ ----- --<br>----- ----- ---------- --- --- ------ ------ ---- -- ------<br>------- --- ------ ----- --- ---- ------- -- ---- --- --<br>------- ------",271871,271861,270939,270914,270956,271906,,16,"1727,"
screen,html.Screen,1_1_1_1_17,2021-03-29T11:38:51.964Z,,,,,,,,,,,,,,,,54,,,,,,,,,,,,,,512,response,,,,100,,,,,,Space,keypress(Space),,,,,,,,-- --- ---- --- ------ ----- ------- ---- -- --- ------- --<br>------- ---------- ------ -- ----- in ----- -- ---- ------<br>--- ----- --- --- ------ -------- ----- --- ------ ----- --<br>----- ----- ---------- --- --- ------ ------ ---- -- ------<br>------- --- ------ ----- --- ---- ------- -- ---- --- --<br>------- ------,272410,272401,271889,271871,271906,272439,,17,in
screen,html.Screen,1_1_1_1_18,2021-03-29T11:38:52.647Z,,,,,,,,,,,,,,,,54,,,,,,,,,,,,,,661,response,,,,100,,,,,,Space,keypress(Space),,,,,,,,-- --- ---- --- ------ ----- ------- ---- -- --- ------- --<br>------- ---------- ------ -- ----- -- order -- ---- ------<br>--- ----- --- --- ------ -------- ----- --- ------ ----- --<br>----- ----- ---------- --- --- ------ ------ ---- -- ------<br>------- --- ------ ----- --- ---- ------- -- ---- --- --<br>------- ------,273093,273084,272423,272411,272439,273122,,18,order
screen,html.Screen,1_1_1_1_19,2021-03-29T11:38:53.099Z,,,,,,,,,,,,,,,,54,,,,,,,,,,,,,,432,response,,,,100,,,,,,Space,keypress(Space),,,,,,,,-- --- ---- --- ------ ----- ------- ---- -- --- ------- --<br>------- ---------- ------ -- ----- -- ----- to ---- ------<br>--- ----- --- --- ------ -------- ----- --- ------ ----- --<br>----- ----- ---------- --- --- ------ ------ ---- -- ------<br>------- --- ------ ----- --- ---- ------- -- ---- --- --<br>------- ------,273546,273537,273105,273094,273122,273589,,19,to
screen,html.Screen,1_1_1_1_20,2021-03-29T11:38:53.650Z,,,,,,,,,,,,,,,,54,,,,,,,,,,,,,,516,response,,,,100,,,,,,Space,keypress(Space),,,,,,,,-- --- ---- --- ------ ----- ------- ---- -- --- ------- --<br>------- ---------- ------ -- ----- -- ----- -- save ------<br>--- ----- --- --- ------ -------- ----- --- ------ ----- --<br>----- ----- ---------- --- --- ------ ------ ---- -- ------<br>------- --- ------ ----- --- ---- ------- -- ---- --- --<br>------- ------,274097,274088,273572,273546,273589,274139,,20,save
screen,html.Screen,1_1_1_1_21,2021-03-29T11:38:54.030Z,,,,,,,,,,,,,,,,54,,,,,,,,,,,,,,345,response,,,,100,,,,,,Space,keypress(Space),,,,,,,,"-- --- ---- --- ------ ----- ------- ---- -- --- ------- --<br>------- ---------- ------ -- ----- -- ----- -- ---- money,<br>--- ----- --- --- ------ -------- ----- --- ------ ----- --<br>----- ----- ---------- --- --- ------ ------ ---- -- ------<br>------- --- ------ ----- --- ---- ------- -- ---- --- --<br>------- ------",274477.00000000006,274467,274122,274097,274139,274505,,21,"money,"
screen,html.Screen,1_1_1_1_22,2021-03-29T11:38:54.585Z,,,,,,,,,,,,,,,,54,,,,,,,,,,,,,,533,response,,,,100,,,,,,Space,keypress(Space),,,,,,,,-- --- ---- --- ------ ----- ------- ---- -- --- ------- --<br>------- ---------- ------ -- ----- -- ----- -- ---- ------<br>the ----- --- --- ------ -------- ----- --- ------ ----- --<br>----- ----- ---------- --- --- ------ ------ ---- -- ------<br>------- --- ------ ----- --- ---- ------- -- ---- --- --<br>------- ------,275032,275022,274489,274477.00000000006,274505,275072,,22,the
screen,html.Screen,1_1_1_1_23,2021-03-29T11:38:55.012Z,,,,,,,,,,,,,,,,54,,,,,,,,,,,,,,394,response,,,,100,,,,,,Space,keypress(Space),,,,,,,,-- --- ---- --- ------ ----- ------- ---- -- --- ------- --<br>------- ---------- ------ -- ----- -- ----- -- ---- ------<br>--- state --- --- ------ -------- ----- --- ------ ----- --<br>----- ----- ---------- --- --- ------ ------ ---- -- ------<br>------- --- ------ ----- --- ---- ------- -- ---- --- --<br>------- ------,275459,275450,275056,275032,275072,275489,,23,state
screen,html.Screen,1_1_1_1_24,2021-03-29T11:38:55.459Z,,,,,,,,,,,,,,,,54,,,,,,,,,,,,,,425,response,,,,100,,,,,,Space,keypress(Space),,,,,,,,-- --- ---- --- ------ ----- ------- ---- -- --- ------- --<br>------- ---------- ------ -- ----- -- ----- -- ---- ------<br>--- ----- cut --- ------ -------- ----- --- ------ ----- --<br>----- ----- ---------- --- --- ------ ------ ---- -- ------<br>------- --- ------ ----- --- ---- ------- -- ---- --- --<br>------- ------,275906,275897,275472,275459,275489,275939,,24,cut
screen,html.Screen,1_1_1_1_25,2021-03-29T11:38:55.912Z,,,,,,,,,,,,,,,,54,,,,,,,,,,,,,,428,response,,,,100,,,,,,Space,keypress(Space),,,,,,,,-- --- ---- --- ------ ----- ------- ---- -- --- ------- --<br>------- ---------- ------ -- ----- -- ----- -- ---- ------<br>--- ----- --- the ------ -------- ----- --- ------ ----- --<br>----- ----- ---------- --- --- ------ ------ ---- -- ------<br>------- --- ------ ----- --- ---- ------- -- ---- --- --<br>------- ------,276359,276350,275922,275906,275939,276389,,25,the
screen,html.Screen,1_1_1_1_26,2021-03-29T11:38:56.415Z,,,,,,,,,,,,,,,,54,,,,,,,,,,,,,,480.0000000000582,response,,,,100,,,,,,Space,keypress(Space),,,,,,,,-- --- ---- --- ------ ----- ------- ---- -- --- ------- --<br>------- ---------- ------ -- ----- -- ----- -- ---- ------<br>--- ----- --- --- bonds' -------- ----- --- ------ ----- --<br>----- ----- ---------- --- --- ------ ------ ---- -- ------<br>------- --- ------ ----- --- ---- ------- -- ---- --- --<br>------- ------,276862,276852.00000000006,276372,276359,276389,276906,,26,bonds'
screen,html.Screen,1_1_1_1_27,2021-03-29T11:38:56.937Z,,,,,,,,,,,,,,,,54,,,,,,,,,,,,,,485,response,,,,100,,,,,,Space,keypress(Space),,,,,,,,-- --- ---- --- ------ ----- ------- ---- -- --- ------- --<br>------- ---------- ------ -- ----- -- ----- -- ---- ------<br>--- ----- --- --- ------ interest ----- --- ------ ----- --<br>----- ----- ---------- --- --- ------ ------ ---- -- ------<br>------- --- ------ ----- --- ---- ------- -- ---- --- --<br>------- ------,277384,277374,276889,276862,276906,277422,,27,interest
screen,html.Screen,1_1_1_1_28,2021-03-29T11:38:57.420Z,,,,,,,,,,,,,,,,54,,,,,,,,,,,,,,451,response,,,,100,,,,,,Space,keypress(Space),,,,,,,,-- --- ---- --- ------ ----- ------- ---- -- --- ------- --<br>------- ---------- ------ -- ----- -- ----- -- ---- ------<br>--- ----- --- --- ------ -------- rate. --- ------ ----- --<br>----- ----- ---------- --- --- ------ ------ ---- -- ------<br>------- --- ------ ----- --- ---- ------- -- ---- --- --<br>------- ------,277867,277857,277406,277384,277422,277905,,28,rate.
screen,html.Screen,1_1_1_1_29,2021-03-29T11:38:58.006Z,,,,,,,,,,,,,,,,54,,,,,,,,,,,,,,553,response,,,,100,,,,,,Space,keypress(Space),,,,,,,,-- --- ---- --- ------ ----- ------- ---- -- --- ------- --<br>------- ---------- ------ -- ----- -- ----- -- ---- ------<br>--- ----- --- --- ------ -------- ----- The ------ ----- --<br>----- ----- ---------- --- --- ------ ------ ---- -- ------<br>------- --- ------ ----- --- ---- ------- -- ---- --- --<br>------- ------,278453.00000000006,278442,277889,277867,277905,278489,,29,The
screen,html.Screen,1_1_1_1_30,2021-03-29T11:38:58.567Z,,,,,,,,,,,,,,,,54,,,,,,,,,,,,,,533,response,,,,100,,,,,,Space,keypress(Space),,,,,,,,-- --- ---- --- ------ ----- ------- ---- -- --- ------- --<br>------- ---------- ------ -- ----- -- ----- -- ---- ------<br>--- ----- --- --- ------ -------- ----- --- market ----- --<br>----- ----- ---------- --- --- ------ ------ ---- -- ------<br>------- --- ------ ----- --- ---- ------- -- ---- --- --<br>------- ------,279014,279005,278472,278453.00000000006,278489,279055,,30,market
screen,html.Screen,1_1_1_1_31,2021-03-29T11:38:59.062Z,,,,,,,,,,,,,,,,54,,,,,,,,,,,,,,461,response,,,,100,,,,,,Space,keypress(Space),,,,,,,,-- --- ---- --- ------ ----- ------- ---- -- --- ------- --<br>------- ---------- ------ -- ----- -- ----- -- ---- ------<br>--- ----- --- --- ------ -------- ----- --- ------ value --<br>----- ----- ---------- --- --- ------ ------ ---- -- ------<br>------- --- ------ ----- --- ---- ------- -- ---- --- --<br>------- ------,279509,279500,279039,279014,279055,279539,,31,value
screen,html.Screen,1_1_1_1_32,2021-03-29T11:38:59.571Z,,,,,,,,,,,,,,,,54,,,,,,,,,,,,,,484,response,,,,100,,,,,,Space,keypress(Space),,,,,,,,-- --- ---- --- ------ ----- ------- ---- -- --- ------- --<br>------- ---------- ------ -- ----- -- ----- -- ---- ------<br>--- ----- --- --- ------ -------- ----- --- ------ ----- of<br>----- ----- ---------- --- --- ------ ------ ---- -- ------<br>------- --- ------ ----- --- ---- ------- -- ---- --- --<br>------- ------,280018,280006,279522,279509,279539,280055,,32,of
screen,html.Screen,1_1_1_1_33,2021-03-29T11:39:00.097Z,,,,,,,,,,,,,,,,54,,,,,,,,,,,,,,497,response,,,,100,,,,,,Space,keypress(Space),,,,,,,,-- --- ---- --- ------ ----- ------- ---- -- --- ------- --<br>------- ---------- ------ -- ----- -- ----- -- ---- ------<br>--- ----- --- --- ------ -------- ----- --- ------ ----- --<br>these ----- ---------- --- --- ------ ------ ---- -- ------<br>------- --- ------ ----- --- ---- ------- -- ---- --- --<br>------- ------,280544,280535,280038,280018,280055,280571,,33,these
screen,html.Screen,1_1_1_1_34,2021-03-29T11:39:00.642Z,,,,,,,,,,,,,,,,54,,,,,,,,,,,,,,524,response,,,,100,,,,,,Space,keypress(Space),,,,,,,,-- --- ---- --- ------ ----- ------- ---- -- --- ------- --<br>------- ---------- ------ -- ----- -- ----- -- ---- ------<br>--- ----- --- --- ------ -------- ----- --- ------ ----- --<br>----- bonds ---------- --- --- ------ ------ ---- -- ------<br>------- --- ------ ----- --- ---- ------- -- ---- --- --<br>------- ------,281089,281079,280555,280545,280571,281122,,34,bonds
screen,html.Screen,1_1_1_1_35,2021-03-29T11:39:01.099Z,,,,,,,,,,,,,,,,54,,,,,,,,,,,,,,430,response,,,,100,,,,,,Space,keypress(Space),,,,,,,,"-- --- ---- --- ------ ----- ------- ---- -- --- ------- --<br>------- ---------- ------ -- ----- -- ----- -- ---- ------<br>--- ----- --- --- ------ -------- ----- --- ------ ----- --<br>----- ----- plummeted, --- --- ------ ------ ---- -- ------<br>------- --- ------ ----- --- ---- ------- -- ---- --- --<br>------- ------",281546,281535,281105,281089,281122,281589,,35,"plummeted,"
screen,html.Screen,1_1_1_1_36,2021-03-29T11:39:01.594Z,,,,,,,,,,,,,,,,54,,,,,,,,,,,,,,459,response,,,,100,,,,,,Space,keypress(Space),,,,,,,,-- --- ---- --- ------ ----- ------- ---- -- --- ------- --<br>------- ---------- ------ -- ----- -- ----- -- ---- ------<br>--- ----- --- --- ------ -------- ----- --- ------ ----- --<br>----- ----- ---------- and --- ------ ------ ---- -- ------<br>------- --- ------ ----- --- ---- ------- -- ---- --- --<br>------- ------,282041,282031,281572,281546,281589,282072,,36,and
screen,html.Screen,1_1_1_1_37,2021-03-29T11:39:02.055Z,,,,,,,,,,,,,,,,54,,,,,,,,,,,,,,436,response,,,,100,,,,,,Space,keypress(Space),,,,,,,,-- --- ---- --- ------ ----- ------- ---- -- --- ------- --<br>------- ---------- ------ -- ----- -- ----- -- ---- ------<br>--- ----- --- --- ------ -------- ----- --- ------ ----- --<br>----- ----- ---------- --- the ------ ------ ---- -- ------<br>------- --- ------ ----- --- ---- ------- -- ---- --- --<br>------- ------,282502,282492,282056,282041,282072,282539,,37,the
screen,html.Screen,1_1_1_1_38,2021-03-29T11:39:02.613Z,,,,,,,,,,,,,,,,54,,,,,,,,,,,,,,529,response,,,,100,,,,,,Space,keypress(Space),,,,,,,,-- --- ---- --- ------ ----- ------- ---- -- --- ------- --<br>------- ---------- ------ -- ----- -- ----- -- ---- ------<br>--- ----- --- --- ------ -------- ----- --- ------ ----- --<br>----- ----- ---------- --- --- market ------ ---- -- ------<br>------- --- ------ ----- --- ---- ------- -- ---- --- --<br>------- ------,283060,283051,282522,282502,282539,283088,,38,market
screen,html.Screen,1_1_1_1_39,2021-03-29T11:39:03.067Z,,,,,,,,,,,,,,,,54,,,,,,,,,,,,,,432,response,,,,100,,,,,,Space,keypress(Space),,,,,,,,-- --- ---- --- ------ ----- ------- ---- -- --- ------- --<br>------- ---------- ------ -- ----- -- ----- -- ---- ------<br>--- ----- --- --- ------ -------- ----- --- ------ ----- --<br>----- ----- ---------- --- --- ------ became ---- -- ------<br>------- --- ------ ----- --- ---- ------- -- ---- --- --<br>------- ------,283514,283504,283072,283060,283088,283555,,39,became
screen,html.Screen,1_1_1_1_40,2021-03-29T11:39:03.548Z,,,,,,,,,,,,,,,,54,,,,,,,,,,,,,,447,response,,,,100,,,,,,Space,keypress(Space),,,,,,,,-- --- ---- --- ------ ----- ------- ---- -- --- ------- --<br>------- ---------- ------ -- ----- -- ----- -- ---- ------<br>--- ----- --- --- ------ -------- ----- --- ------ ----- --<br>----- ----- ---------- --- --- ------ ------ wary -- ------<br>------- --- ------ ----- --- ---- ------- -- ---- --- --<br>------- ------,283995,283985,283538,283514,283555,284038,,40,wary
screen,html.Screen,1_1_1_1_41,2021-03-29T11:39:04.147Z,,,,,,,,,,,,,,,,54,,,,,,,,,,,,,,562,response,,,,100,,,,,,Space,keypress(Space),,,,,,,,-- --- ---- --- ------ ----- ------- ---- -- --- ------- --<br>------- ---------- ------ -- ----- -- ----- -- ---- ------<br>--- ----- --- --- ------ -------- ----- --- ------ ----- --<br>----- ----- ---------- --- --- ------ ------ ---- of ------<br>------- --- ------ ----- --- ---- ------- -- ---- --- --<br>------- ------,284594,284584,284022,283995,284038,284622,,41,of
screen,html.Screen,1_1_1_1_42,2021-03-29T11:39:04.684Z,,,,,,,,,,,,,,,,54,,,,,,,,,,,,,,516,response,,,,100,,,,,,Space,keypress(Space),,,,,,,,-- --- ---- --- ------ ----- ------- ---- -- --- ------- --<br>------- ---------- ------ -- ----- -- ----- -- ---- ------<br>--- ----- --- --- ------ -------- ----- --- ------ ----- --<br>----- ----- ---------- --- --- ------ ------ ---- -- French<br>------- --- ------ ----- --- ---- ------- -- ---- --- --<br>------- ------,285131,285121,284605,284594,284622,285172,,42,French
screen,html.Screen,1_1_1_1_43,2021-03-29T11:39:05.182Z,,,,,,,,,,,,,,,,54,,,,,,,,,,,,,,464,response,,,,100,,,,,,Space,keypress(Space),,,,,,,,-- --- ---- --- ------ ----- ------- ---- -- --- ------- --<br>------- ---------- ------ -- ----- -- ----- -- ---- ------<br>--- ----- --- --- ------ -------- ----- --- ------ ----- --<br>----- ----- ---------- --- --- ------ ------ ---- -- ------<br>credit. --- ------ ----- --- ---- ------- -- ---- --- --<br>------- ------,285629,285619,285155,285131,285172,285672,,43,credit.
screen,html.Screen,1_1_1_1_44,2021-03-29T11:39:05.744Z,,,,,,,,,,,,,,,,54,,,,,,,,,,,,,,527,response,,,,100,,,,,,Space,keypress(Space),,,,,,,,-- --- ---- --- ------ ----- ------- ---- -- --- ------- --<br>------- ---------- ------ -- ----- -- ----- -- ---- ------<br>--- ----- --- --- ------ -------- ----- --- ------ ----- --<br>----- ----- ---------- --- --- ------ ------ ---- -- ------<br>------- The ------ ----- --- ---- ------- -- ---- --- --<br>------- ------,286191.00000000006,286182,285655,285629,285672,286222,,44,The
screen,html.Screen,1_1_1_1_45,2021-03-29T11:39:06.316Z,,,,,,,,,,,,,,,,54,,,,,,,,,,,,,,548,response,,,,100,,,,,,Space,keypress(Space),,,,,,,,-- --- ---- --- ------ ----- ------- ---- -- --- ------- --<br>------- ---------- ------ -- ----- -- ----- -- ---- ------<br>--- ----- --- --- ------ -------- ----- --- ------ ----- --<br>----- ----- ---------- --- --- ------ ------ ---- -- ------<br>------- --- French ----- --- ---- ------- -- ---- --- --<br>------- ------,286763.00000000006,286753,286205,286191.00000000006,286222,286805,,45,French
screen,html.Screen,1_1_1_1_46,2021-03-29T11:39:06.824Z,,,,,,,,,,,,,,,,54,,,,,,,,,,,,,,472,response,,,,100,,,,,,Space,keypress(Space),,,,,,,,-- --- ---- --- ------ ----- ------- ---- -- --- ------- --<br>------- ---------- ------ -- ----- -- ----- -- ---- ------<br>--- ----- --- --- ------ -------- ----- --- ------ ----- --<br>----- ----- ---------- --- --- ------ ------ ---- -- ------<br>------- --- ------ state --- ---- ------- -- ---- --- --<br>------- ------,287270,287261,286789,286763.00000000006,286805,287305,,46,state
screen,html.Screen,1_1_1_1_47,2021-03-29T11:39:07.286Z,,,,,,,,,,,,,,,,54,,,,,,,,,,,,,,435,response,,,,100,,,,,,Space,keypress(Space),,,,,,,,-- --- ---- --- ------ ----- ------- ---- -- --- ------- --<br>------- ---------- ------ -- ----- -- ----- -- ---- ------<br>--- ----- --- --- ------ -------- ----- --- ------ ----- --<br>----- ----- ---------- --- --- ------ ------ ---- -- ------<br>------- --- ------ ----- was ---- ------- -- ---- --- --<br>------- ------,287733,287723,287288,287270,287305,287771,,47,was
screen,html.Screen,1_1_1_1_48,2021-03-29T11:39:07.725Z,,,,,,,,,,,,,,,,54,,,,,,,,,,,,,,408,response,,,,100,,,,,,Space,keypress(Space),,,,,,,,-- --- ---- --- ------ ----- ------- ---- -- --- ------- --<br>------- ---------- ------ -- ----- -- ----- -- ---- ------<br>--- ----- --- --- ------ -------- ----- --- ------ ----- --<br>----- ----- ---------- --- --- ------ ------ ---- -- ------<br>------- --- ------ ----- --- left ------- -- ---- --- --<br>------- ------,288171,288162,287754,287733,287771,288205,,48,left
screen,html.Screen,1_1_1_1_49,2021-03-29T11:39:08.208Z,,,,,,,,,,,,,,,,54,,,,,,,,,,,,,,458,response,,,,100,,,,,,Space,keypress(Space),,,,,,,,-- --- ---- --- ------ ----- ------- ---- -- --- ------- --<br>------- ---------- ------ -- ----- -- ----- -- ---- ------<br>--- ----- --- --- ------ -------- ----- --- ------ ----- --<br>----- ----- ---------- --- --- ------ ------ ---- -- ------<br>------- --- ------ ----- --- ---- without -- ---- --- --<br>------- ------,288655.00000000006,288646,288188,288172,288205,288688,,49,without
screen,html.Screen,1_1_1_1_50,2021-03-29T11:39:08.681Z,,,,,,,,,,,,,,,,54,,,,,,,,,,,,,,447,response,,,,100,,,,,,Space,keypress(Space),,,,,,,,-- --- ---- --- ------ ----- ------- ---- -- --- ------- --<br>------- ---------- ------ -- ----- -- ----- -- ---- ------<br>--- ----- --- --- ------ -------- ----- --- ------ ----- --<br>----- ----- ---------- --- --- ------ ------ ---- -- ------<br>------- --- ------ ----- --- ---- ------- an ---- --- --<br>------- ------,289128,289118,288671,288655.00000000006,288688,289171,,50,an
screen,html.Screen,1_1_1_1_51,2021-03-29T11:39:09.243Z,,,,,,,,,,,,,,,,54,,,,,,,,,,,,,,526,response,,,,100,,,,,,Space,keypress(Space),,,,,,,,-- --- ---- --- ------ ----- ------- ---- -- --- ------- --<br>------- ---------- ------ -- ----- -- ----- -- ---- ------<br>--- ----- --- --- ------ -------- ----- --- ------ ----- --<br>----- ----- ---------- --- --- ------ ------ ---- -- ------<br>------- --- ------ ----- --- ---- ------- -- easy --- --<br>------- ------,289690,289681,289155,289128,289171,289721,,51,easy
screen,html.Screen,1_1_1_1_52,2021-03-29T11:39:09.784Z,,,,,,,,,,,,,,,,54,,,,,,,,,,,,,,516,response,,,,100,,,,,,Space,keypress(Space),,,,,,,,-- --- ---- --- ------ ----- ------- ---- -- --- ------- --<br>------- ---------- ------ -- ----- -- ----- -- ---- ------<br>--- ----- --- --- ------ -------- ----- --- ------ ----- --<br>----- ----- ---------- --- --- ------ ------ ---- -- ------<br>------- --- ------ ----- --- ---- ------- -- ---- way --<br>------- ------,290230,290221,289705,289690,289721,290271,,52,way
screen,html.Screen,1_1_1_1_53,2021-03-29T11:39:10.379Z,,,,,,,,,,,,,,,,54,,,,,,,,,,,,,,563,response,,,,100,,,,,,Space,keypress(Space),,,,,,,,-- --- ---- --- ------ ----- ------- ---- -- --- ------- --<br>------- ---------- ------ -- ----- -- ----- -- ---- ------<br>--- ----- --- --- ------ -------- ----- --- ------ ----- --<br>----- ----- ---------- --- --- ------ ------ ---- -- ------<br>------- --- ------ ----- --- ---- ------- -- ---- --- of<br>------- ------,290826,290818,290255,290231,290271,290855,,53,of
screen,html.Screen,1_1_1_1_54,2021-03-29T11:39:10.894Z,,,,,,,,,,,,,,,,54,,,,,,,,,,,,,,493,response,,,,100,,,,,,Space,keypress(Space),,,,,,,,-- --- ---- --- ------ ----- ------- ---- -- --- ------- --<br>------- ---------- ------ -- ----- -- ----- -- ---- ------<br>--- ----- --- --- ------ -------- ----- --- ------ ----- --<br>----- ----- ---------- --- --- ------ ------ ---- -- ------<br>------- --- ------ ----- --- ---- ------- -- ---- --- --<br>raising ------,291341,291331,290838,290826,290855,291371,,54,raising
screen,html.Screen,1_1_1_1_55,2021-03-29T11:39:11.423Z,,,,,,,,,,,,,,,,54,,,,,,,,,,,,,,508,response,,,,100,,,,,,Space,keypress(Space),,,,,,,,-- --- ---- --- ------ ----- ------- ---- -- --- ------- --<br>------- ---------- ------ -- ----- -- ----- -- ---- ------<br>--- ----- --- --- ------ -------- ----- --- ------ ----- --<br>----- ----- ---------- --- --- ------ ------ ---- -- ------<br>------- --- ------ ----- --- ---- ------- -- ---- --- --<br>------- money.,291870,291863,291355,291341,291371,291904,,55,money.
Item 100,flow.Loop,1_1_1_1,2021-03-29T11:39:11.424Z,,,,,,,,,,,,,,,,,,,,,,,,,,,,,,28341,completion,,,,,E,,,,,,,,,,silence,,,,,291870,291863,263505,263506,263522,291904,,,
Question 1,html.Screen,1_1_1_2,2021-03-29T11:39:16.184Z,,,,,,,,,,,,,,,,,,,,,,,,,,,true,TRUE,,4737,response,,,,100,E,,,,,TRUE,click #choice-1,,,,silence,,,,,296630,296625,291888,291871,291904,296654,,,
Question 2,html.Screen,1_1_1_3,2021-03-29T11:39:20.831Z,,,,,,,,,,,,,,,,,,,,,,,,,,,false,FALSE,,4634,response,,,,100,E,,,,,TRUE,click #choice-1,,,,silence,,,,,301278,301272,296638,296630,296654,301304,,,
Item 100,flow.Sequence,1_1_1,2021-03-29T11:39:20.831Z,,,,,,,,,,,,,,,,,,,,,,,,,,,,,,44749,completion,,,,,,,,,,,,,,,,,,,,301278,301272,256508,256504.00000000003,256523,301304,,,
End of Practice,html.Page,1_1_2,2021-03-29T11:39:34.312Z,,,,,,,,,,,,,,,,,,,,,,,,,,,,,,13454,form submission,,,,,,,,,,,,,,,,,,,,314759,314758,301286,301278,301304,314786,,,
Practice,flow.Sequence,1_1,2021-03-29T11:39:34.312Z,,,,,,,,,,,,,,,,,,,,,,,,,,,,,,110998,completion,,,,,,,,,,,,,,,,,,,,314759,314758,203743,203736.00000000003,203760,314786,,,
Trap_instruction,html.Page,1_2_0,2021-03-29T11:39:52.244Z,,,,,,,,,,,,,,,,,,,,,,,,,,,,,,17904,form submission,,,,,,,,,,,,,,,,,,,,332690,332690,314770,314759,314786,332769,,,
trap_trial,html.Screen,1_2_1,2021-03-29T11:39:57.637Z,,,,,,,,,,,,,,,,,,,,,,,,,,,true,1,,5319,response,,,,,,,,,,1,click #choice-1,,,,,,,,,338083,338079,332760,332690,332769,338123,,,
end of trap trial,html.Page,1_2_2,2021-03-29T11:40:07.431Z,,,,,,,,,,,,,,,,,,,,,,,,,,,,,,9753.000000000058,form submission,,,,,,,,,,,,,,,,,,,,347877,347876.00000000006,338121,338084,338123,347901,,,
Trap 1,flow.Sequence,1_2,2021-03-29T11:40:07.431Z,,,,,,,,,,,,,,,,,,,,,,,,,,,,,,33090.00000000006,completion,,,,,,,,,,,,,,,,,,,,347877,347876.00000000006,314770,314759,314786,347901,,,
Holding screen,html.Screen,1_3_0_0,2021-03-29T11:40:14.438Z,,,,,,,,,,,,,,,,,,,,,,,,,,,,,,7000,timeout,,,,,,,,,,,,,,,,,,,,354885,354884,347885,347877,347901,354901,,,
screen,html.Screen,1_3_0_1_0,2021-03-29T11:40:15.337Z,,,,,,,,,,,,,,,,48,,,,,,,,,,,,,,888,response,,,,10,E,,,,,Space,keypress(Space),,,,lyrical,,,,As -- --- ------ ------- --------- ----------- --------<br>--------- -------- --- ------- -- ------- ---- -- ------<br>-- --- -------- -------- ---------- ---- ---- ---- ------<br>-- --------- -- ---- -- --- -- --- ------- -- - -----<br>---------- -- -- -- ---- ----- -- ------ -- --- ------<br>-------,355783,355772,354884,354885,354901,355817,,0,As
screen,html.Screen,1_3_0_1_1,2021-03-29T11:40:15.820Z,,,,,,,,,,,,,,,,48,,,,,,,,,,,,,,455,response,,,,10,E,,,,,Space,keypress(Space),,,,lyrical,,,,-- in --- ------ ------- --------- ----------- --------<br>--------- -------- --- ------- -- ------- ---- -- ------<br>-- --- -------- -------- ---------- ---- ---- ---- ------<br>-- --------- -- ---- -- --- -- --- ------- -- - -----<br>---------- -- -- -- ---- ----- -- ------ -- --- ------<br>-------,356266,356256,355801,355783,355817,356301,,1,in
screen,html.Screen,1_3_0_1_2,2021-03-29T11:40:16.192Z,,,,,,,,,,,,,,,,48,,,,,,,,,,,,,,344,response,,,,10,E,,,,,Space,keypress(Space),,,,lyrical,,,,-- -- the ------ ------- --------- ----------- --------<br>--------- -------- --- ------- -- ------- ---- -- ------<br>-- --- -------- -------- ---------- ---- ---- ---- ------<br>-- --------- -- ---- -- --- -- --- ------- -- - -----<br>---------- -- -- -- ---- ----- -- ------ -- --- ------<br>-------,356638.00000000006,356628,356284,356267,356301,356668,,2,the
screen,html.Screen,1_3_0_1_3,2021-03-29T11:40:16.608Z,,,,,,,,,,,,,,,,48,,,,,,,,,,,,,,393,response,,,,10,E,,,,,Space,keypress(Space),,,,lyrical,,,,-- -- --- United ------- --------- ----------- --------<br>--------- -------- --- ------- -- ------- ---- -- ------<br>-- --- -------- -------- ---------- ---- ---- ---- ------<br>-- --------- -- ---- -- --- -- --- ------- -- - -----<br>---------- -- -- -- ---- ----- -- ------ -- --- ------<br>-------,357054.00000000006,357044,356651,356639,356668,357083,,3,United
screen,html.Screen,1_3_0_1_4,2021-03-29T11:40:17.103Z,,,,,,,,,,,,,,,,48,,,,,,,,,,,,,,471,response,,,,10,E,,,,,Space,keypress(Space),,,,lyrical,,,,"-- -- --- ------ States, --------- ----------- --------<br>--------- -------- --- ------- -- ------- ---- -- ------<br>-- --- -------- -------- ---------- ---- ---- ---- ------<br>-- --------- -- ---- -- --- -- --- ------- -- - -----<br>---------- -- -- -- ---- ----- -- ------ -- --- ------<br>-------",357549.00000000006,357539,357068,357055,357083,357584,,4,"States,"
screen,html.Screen,1_3_0_1_5,2021-03-29T11:40:17.575Z,,,,,,,,,,,,,,,,48,,,,,,,,,,,,,,444,response,,,,10,E,,,,,Space,keypress(Space),,,,lyrical,,,,-- -- --- ------ ------- Colombian ----------- --------<br>--------- -------- --- ------- -- ------- ---- -- ------<br>-- --- -------- -------- ---------- ---- ---- ---- ------<br>-- --------- -- ---- -- --- -- --- ------- -- - -----<br>---------- -- -- -- ---- ----- -- ------ -- --- ------<br>-------,358021,358012,357568,357549.00000000006,357584,358051,,5,Colombian
screen,html.Screen,1_3_0_1_6,2021-03-29T11:40:18.127Z,,,,,,,,,,,,,,,,48,,,,,,,,,,,,,,529,response,,,,10,E,,,,,Space,keypress(Space),,,,lyrical,,,,-- -- --- ------ ------- --------- legislation --------<br>--------- -------- --- ------- -- ------- ---- -- ------<br>-- --- -------- -------- ---------- ---- ---- ---- ------<br>-- --------- -- ---- -- --- -- --- ------- -- - -----<br>---------- -- -- -- ---- ----- -- ------ -- --- ------<br>-------,358573,358563,358034,358022,358051,358600,,6,legislation
screen,html.Screen,1_3_0_1_7,2021-03-29T11:40:18.779Z,,,,,,,,,,,,,,,,48,,,,,,,,,,,,,,631.0000000000582,response,,,,10,E,,,,,Space,keypress(Space),,,,lyrical,,,,-- -- --- ------ ------- --------- ----------- requires<br>--------- -------- --- ------- -- ------- ---- -- ------<br>-- --- -------- -------- ---------- ---- ---- ---- ------<br>-- --------- -- ---- -- --- -- --- ------- -- - -----<br>---------- -- -- -- ---- ----- -- ------ -- --- ------<br>-------,359225,359215.00000000006,358584,358573,358600,359267,,7,requires
screen,html.Screen,1_3_0_1_8,2021-03-29T11:40:19.511Z,,,,,,,,,,,,,,,,48,,,,,,,,,,,,,,696,response,,,,10,E,,,,,Space,keypress(Space),,,,lyrical,,,,-- -- --- ------ ------- --------- ----------- --------<br>travelers -------- --- ------- -- ------- ---- -- ------<br>-- --- -------- -------- ---------- ---- ---- ---- ------<br>-- --------- -- ---- -- --- -- --- ------- -- - -----<br>---------- -- -- -- ---- ----- -- ------ -- --- ------<br>-------,359957,359947,359251,359225,359267,360000,,8,travelers
screen,html.Screen,1_3_0_1_9,2021-03-29T11:40:20.073Z,,,,,,,,,,,,,,,,48,,,,,,,,,,,,,,525,response,,,,10,E,,,,,Space,keypress(Space),,,,lyrical,,,,-- -- --- ------ ------- --------- ----------- --------<br>--------- entering --- ------- -- ------- ---- -- ------<br>-- --- -------- -------- ---------- ---- ---- ---- ------<br>-- --------- -- ---- -- --- -- --- ------- -- - -----<br>---------- -- -- -- ---- ----- -- ------ -- --- ------<br>-------,360519,360509,359984,359957,360000,360551,,9,entering
screen,html.Screen,1_3_0_1_10,2021-03-29T11:40:20.629Z,,,,,,,,,,,,,,,,48,,,,,,,,,,,,,,531,response,,,,10,E,,,,,Space,keypress(Space),,,,lyrical,,,,-- -- --- ------ ------- --------- ----------- --------<br>--------- -------- the ------- -- ------- ---- -- ------<br>-- --- -------- -------- ---------- ---- ---- ---- ------<br>-- --------- -- ---- -- --- -- --- ------- -- - -----<br>---------- -- -- -- ---- ----- -- ------ -- --- ------<br>-------,361075,361065,360534,360519,360551,361117,,10,the
screen,html.Screen,1_3_0_1_11,2021-03-29T11:40:21.062Z,,,,,,,,,,,,,,,,48,,,,,,,,,,,,,,397,response,,,,10,E,,,,,Space,keypress(Space),,,,lyrical,,,,-- -- --- ------ ------- --------- ----------- --------<br>--------- -------- --- country -- ------- ---- -- ------<br>-- --- -------- -------- ---------- ---- ---- ---- ------<br>-- --------- -- ---- -- --- -- --- ------- -- - -----<br>---------- -- -- -- ---- ----- -- ------ -- --- ------<br>-------,361508,361498,361101,361075,361117,361551,,11,country
screen,html.Screen,1_3_0_1_12,2021-03-29T11:40:21.524Z,,,,,,,,,,,,,,,,48,,,,,,,,,,,,,,427,response,,,,10,E,,,,,Space,keypress(Space),,,,lyrical,,,,-- -- --- ------ ------- --------- ----------- --------<br>--------- -------- --- ------- to ------- ---- -- ------<br>-- --- -------- -------- ---------- ---- ---- ---- ------<br>-- --------- -- ---- -- --- -- --- ------- -- - -----<br>---------- -- -- -- ---- ----- -- ------ -- --- ------<br>-------,361970,361960,361533,361509,361551,362001,,12,to
screen,html.Screen,1_3_0_1_13,2021-03-29T11:40:22.495Z,,,,,,,,,,,,,,,,48,,,,,,,,,,,,,,948,response,,,,10,E,,,,,Space,keypress(Space),,,,lyrical,,,,-- -- --- ------ ------- --------- ----------- --------<br>--------- -------- --- ------- -- declare ---- -- ------<br>-- --- -------- -------- ---------- ---- ---- ---- ------<br>-- --------- -- ---- -- --- -- --- ------- -- - -----<br>---------- -- -- -- ---- ----- -- ------ -- --- ------<br>-------,362941.00000000006,362932,361984,361970,362001,362983,,13,declare
screen,html.Screen,1_3_0_1_14,2021-03-29T11:40:23.088Z,,,,,,,,,,,,,,,,48,,,,,,,,,,,,,,557,response,,,,10,E,,,,,Space,keypress(Space),,,,lyrical,,,,-- -- --- ------ ------- --------- ----------- --------<br>--------- -------- --- ------- -- ------- cash -- ------<br>-- --- -------- -------- ---------- ---- ---- ---- ------<br>-- --------- -- ---- -- --- -- --- ------- -- - -----<br>---------- -- -- -- ---- ----- -- ------ -- --- ------<br>-------,363534,363524,362967,362941.00000000006,362983,363567,,14,cash
screen,html.Screen,1_3_0_1_15,2021-03-29T11:40:23.647Z,,,,,,,,,,,,,,,,48,,,,,,,,,,,,,,533,response,,,,10,E,,,,,Space,keypress(Space),,,,lyrical,,,,-- -- --- ------ ------- --------- ----------- --------<br>--------- -------- --- ------- -- ------- ---- in ------<br>-- --- -------- -------- ---------- ---- ---- ---- ------<br>-- --------- -- ---- -- --- -- --- ------- -- - -----<br>---------- -- -- -- ---- ----- -- ------ -- --- ------<br>-------,364093,364083,363550,363534,363567,364134,,15,in
screen,html.Screen,1_3_0_1_16,2021-03-29T11:40:24.247Z,,,,,,,,,,,,,,,,48,,,,,,,,,,,,,,566,response,,,,10,E,,,,,Space,keypress(Space),,,,lyrical,,,,-- -- --- ------ ------- --------- ----------- --------<br>--------- -------- --- ------- -- ------- ---- -- excess<br>-- --- -------- -------- ---------- ---- ---- ---- ------<br>-- --------- -- ---- -- --- -- --- ------- -- - -----<br>---------- -- -- -- ---- ----- -- ------ -- --- ------<br>-------,364693,364683,364117,364093,364134,364734,,16,excess
screen,html.Screen,1_3_0_1_17,2021-03-29T11:40:24.865Z,,,,,,,,,,,,,,,,48,,,,,,,,,,,,,,584,response,,,,10,E,,,,,Space,keypress(Space),,,,lyrical,,,,-- -- --- ------ ------- --------- ----------- --------<br>--------- -------- --- ------- -- ------- ---- -- ------<br>of --- -------- -------- ---------- ---- ---- ---- ------<br>-- --------- -- ---- -- --- -- --- ------- -- - -----<br>---------- -- -- -- ---- ----- -- ------ -- --- ------<br>-------,365312,365301,364717,364693,364734,365350,,17,of
screen,html.Screen,1_3_0_1_18,2021-03-29T11:40:25.304Z,,,,,,,,,,,,,,,,48,,,,,,,,,,,,,,406,response,,,,10,E,,,,,Space,keypress(Space),,,,lyrical,,,,-- -- --- ------ ------- --------- ----------- --------<br>--------- -------- --- ------- -- ------- ---- -- ------<br>-- ten -------- -------- ---------- ---- ---- ---- ------<br>-- --------- -- ---- -- --- -- --- ------- -- - -----<br>---------- -- -- -- ---- ----- -- ------ -- --- ------<br>-------,365750,365740,365334,365312,365350,365784,,18,ten
screen,html.Screen,1_3_0_1_19,2021-03-29T11:40:25.664Z,,,,,,,,,,,,,,,,48,,,,,,,,,,,,,,333,response,,,,10,E,,,,,Space,keypress(Space),,,,lyrical,,,,-- -- --- ------ ------- --------- ----------- --------<br>--------- -------- --- ------- -- ------- ---- -- ------<br>-- --- thousand -------- ---------- ---- ---- ---- ------<br>-- --------- -- ---- -- --- -- --- ------- -- - -----<br>---------- -- -- -- ---- ----- -- ------ -- --- ------<br>-------,366110,366100,365767,365751.00000000006,365784,366134,,19,thousand
screen,html.Screen,1_3_0_1_20,2021-03-29T11:40:26.137Z,,,,,,,,,,,,,,,,48,,,,,,,,,,,,,,456.0000000000582,response,,,,10,E,,,,,Space,keypress(Space),,,,lyrical,,,,-- -- --- ------ ------- --------- ----------- --------<br>--------- -------- --- ------- -- ------- ---- -- ------<br>-- --- -------- dollars. ---------- ---- ---- ---- ------<br>-- --------- -- ---- -- --- -- --- ------- -- - -----<br>---------- -- -- -- ---- ----- -- ------ -- --- ------<br>-------,366583,366573.00000000006,366117,366110,366134,366617,,20,dollars.
screen,html.Screen,1_3_0_1_21,2021-03-29T11:40:27.127Z,,,,,,,,,,,,,,,,48,,,,,,,,,,,,,,963,response,,,,10,E,,,,,Space,keypress(Space),,,,lyrical,,,,-- -- --- ------ ------- --------- ----------- --------<br>--------- -------- --- ------- -- ------- ---- -- ------<br>-- --- -------- -------- Concealing ---- ---- ---- ------<br>-- --------- -- ---- -- --- -- --- ------- -- - -----<br>---------- -- -- -- ---- ----- -- ------ -- --- ------<br>-------,367573.00000000006,367563,366600,366583,366617,367600,,21,Concealing
screen,html.Screen,1_3_0_1_22,2021-03-29T11:40:27.712Z,,,,,,,,,,,,,,,,48,,,,,,,,,,,,,,564,response,,,,10,E,,,,,Space,keypress(Space),,,,lyrical,,,,-- -- --- ------ ------- --------- ----------- --------<br>--------- -------- --- ------- -- ------- ---- -- ------<br>-- --- -------- -------- ---------- more ---- ---- ------<br>-- --------- -- ---- -- --- -- --- ------- -- - -----<br>---------- -- -- -- ---- ----- -- ------ -- --- ------<br>-------,368158,368148,367584,367573.00000000006,367600,368200,,22,more
screen,html.Screen,1_3_0_1_23,2021-03-29T11:40:28.161Z,,,,,,,,,,,,,,,,48,,,,,,,,,,,,,,415,response,,,,10,E,,,,,Space,keypress(Space),,,,lyrical,,,,-- -- --- ------ ------- --------- ----------- --------<br>--------- -------- --- ------- -- ------- ---- -- ------<br>-- --- -------- -------- ---------- ---- than ---- ------<br>-- --------- -- ---- -- --- -- --- ------- -- - -----<br>---------- -- -- -- ---- ----- -- ------ -- --- ------<br>-------,368607,368598,368183,368158,368200,368650,,23,than
screen,html.Screen,1_3_0_1_24,2021-03-29T11:40:28.701Z,,,,,,,,,,,,,,,,48,,,,,,,,,,,,,,504,response,,,,10,E,,,,,Space,keypress(Space),,,,lyrical,,,,-- -- --- ------ ------- --------- ----------- --------<br>--------- -------- --- ------- -- ------- ---- -- ------<br>-- --- -------- -------- ---------- ---- ---- that ------<br>-- --------- -- ---- -- --- -- --- ------- -- - -----<br>---------- -- -- -- ---- ----- -- ------ -- --- ------<br>-------,369147,369137,368633,368608,368650,369183,,24,that
screen,html.Screen,1_3_0_1_25,2021-03-29T11:40:29.232Z,,,,,,,,,,,,,,,,48,,,,,,,,,,,,,,500,response,,,,10,E,,,,,Space,keypress(Space),,,,lyrical,,,,-- -- --- ------ ------- --------- ----------- --------<br>--------- -------- --- ------- -- ------- ---- -- ------<br>-- --- -------- -------- ---------- ---- ---- ---- amount<br>-- --------- -- ---- -- --- -- --- ------- -- - -----<br>---------- -- -- -- ---- ----- -- ------ -- --- ------<br>-------,369678,369666,369166,369147,369183,369717,,25,amount
screen,html.Screen,1_3_0_1_26,2021-03-29T11:40:29.759Z,,,,,,,,,,,,,,,,48,,,,,,,,,,,,,,495,response,,,,10,E,,,,,Space,keypress(Space),,,,lyrical,,,,-- -- --- ------ ------- --------- ----------- --------<br>--------- -------- --- ------- -- ------- ---- -- ------<br>-- --- -------- -------- ---------- ---- ---- ---- ------<br>to --------- -- ---- -- --- -- --- ------- -- - -----<br>---------- -- -- -- ---- ----- -- ------ -- --- ------<br>-------,370205,370195,369700,369678,369717,370233,,26,to
screen,html.Screen,1_3_0_1_27,2021-03-29T11:40:30.386Z,,,,,,,,,,,,,,,,48,,,,,,,,,,,,,,606,response,,,,10,E,,,,,Space,keypress(Space),,,,lyrical,,,,-- -- --- ------ ------- --------- ----------- --------<br>--------- -------- --- ------- -- ------- ---- -- ------<br>-- --- -------- -------- ---------- ---- ---- ---- ------<br>-- transport -- ---- -- --- -- --- ------- -- - -----<br>---------- -- -- -- ---- ----- -- ------ -- --- ------<br>-------,370832,370822,370216,370205,370233,370867,,27,transport
screen,html.Screen,1_3_0_1_28,2021-03-29T11:40:30.805Z,,,,,,,,,,,,,,,,48,,,,,,,,,,,,,,391,response,,,,10,E,,,,,Space,keypress(Space),,,,lyrical,,,,-- -- --- ------ ------- --------- ----------- --------<br>--------- -------- --- ------- -- ------- ---- -- ------<br>-- --- -------- -------- ---------- ---- ---- ---- ------<br>-- --------- it ---- -- --- -- --- ------- -- - -----<br>---------- -- -- -- ---- ----- -- ------ -- --- ------<br>-------,371252,371241,370850,370832,370867,371283,,28,it
screen,html.Screen,1_3_0_1_29,2021-03-29T11:40:31.638Z,,,,,,,,,,,,,,,,48,,,,,,,,,,,,,,807,response,,,,10,E,,,,,Space,keypress(Space),,,,lyrical,,,,-- -- --- ------ ------- --------- ----------- --------<br>--------- -------- --- ------- -- ------- ---- -- ------<br>-- --- -------- -------- ---------- ---- ---- ---- ------<br>-- --------- -- into -- --- -- --- ------- -- - -----<br>---------- -- -- -- ---- ----- -- ------ -- --- ------<br>-------,372084,372074,371267,371252,371283,372117,,29,into
screen,html.Screen,1_3_0_1_30,2021-03-29T11:40:32.077Z,,,,,,,,,,,,,,,,48,,,,,,,,,,,,,,412,response,,,,10,E,,,,,Space,keypress(Space),,,,lyrical,,,,-- -- --- ------ ------- --------- ----------- --------<br>--------- -------- --- ------- -- ------- ---- -- ------<br>-- --- -------- -------- ---------- ---- ---- ---- ------<br>-- --------- -- ---- or --- -- --- ------- -- - -----<br>---------- -- -- -- ---- ----- -- ------ -- --- ------<br>-------,372523,372512,372100,372084,372117,372567,,30,or
screen,html.Screen,1_3_0_1_31,2021-03-29T11:40:32.632Z,,,,,,,,,,,,,,,,48,,,,,,,,,,,,,,518,response,,,,10,E,,,,,Space,keypress(Space),,,,lyrical,,,,-- -- --- ------ ------- --------- ----------- --------<br>--------- -------- --- ------- -- ------- ---- -- ------<br>-- --- -------- -------- ---------- ---- ---- ---- ------<br>-- --------- -- ---- -- out -- --- ------- -- - -----<br>---------- -- -- -- ---- ----- -- ------ -- --- ------<br>-------,373078.00000000006,373068,372550,372523,372567,373115,,31,out
screen,html.Screen,1_3_0_1_32,2021-03-29T11:40:32.954Z,,,,,,,,,,,,,,,,48,,,,,,,,,,,,,,289,response,,,,10,E,,,,,Space,keypress(Space),,,,lyrical,,,,-- -- --- ------ ------- --------- ----------- --------<br>--------- -------- --- ------- -- ------- ---- -- ------<br>-- --- -------- -------- ---------- ---- ---- ---- ------<br>-- --------- -- ---- -- --- of --- ------- -- - -----<br>---------- -- -- -- ---- ----- -- ------ -- --- ------<br>-------,373400.00000000006,373389,373100,373078.00000000006,373115,373433,,32,of
screen,html.Screen,1_3_0_1_33,2021-03-29T11:40:33.303Z,,,,,,,,,,,,,,,,48,,,,,,,,,,,,,,323.0000000000582,response,,,,10,E,,,,,Space,keypress(Space),,,,lyrical,,,,-- -- --- ------ ------- --------- ----------- --------<br>--------- -------- --- ------- -- ------- ---- -- ------<br>-- --- -------- -------- ---------- ---- ---- ---- ------<br>-- --------- -- ---- -- --- -- the ------- -- - -----<br>---------- -- -- -- ---- ----- -- ------ -- --- ------<br>-------,373749,373739.00000000006,373416,373400.00000000006,373433,373783,,33,the
screen,html.Screen,1_3_0_1_34,2021-03-29T11:40:33.660Z,,,,,,,,,,,,,,,,48,,,,,,,,,,,,,,330,response,,,,10,E,,,,,Space,keypress(Space),,,,lyrical,,,,-- -- --- ------ ------- --------- ----------- --------<br>--------- -------- --- ------- -- ------- ---- -- ------<br>-- --- -------- -------- ---------- ---- ---- ---- ------<br>-- --------- -- ---- -- --- -- --- country -- - -----<br>---------- -- -- -- ---- ----- -- ------ -- --- ------<br>-------,374106,374096,373766,373749,373783,374133,,34,country
screen,html.Screen,1_3_0_1_35,2021-03-29T11:40:34.057Z,,,,,,,,,,,,,,,,48,,,,,,,,,,,,,,376,response,,,,10,E,,,,,Space,keypress(Space),,,,lyrical,,,,-- -- --- ------ ------- --------- ----------- --------<br>--------- -------- --- ------- -- ------- ---- -- ------<br>-- --- -------- -------- ---------- ---- ---- ---- ------<br>-- --------- -- ---- -- --- -- --- ------- is - -----<br>---------- -- -- -- ---- ----- -- ------ -- --- ------<br>-------,374503,374492,374116,374106,374133,374532,,35,is
screen,html.Screen,1_3_0_1_36,2021-03-29T11:40:34.844Z,,,,,,,,,,,,,,,,48,,,,,,,,,,,,,,764.0000000000582,response,,,,10,E,,,,,Space,keypress(Space),,,,lyrical,,,,-- -- --- ------ ------- --------- ----------- --------<br>--------- -------- --- ------- -- ------- ---- -- ------<br>-- --- -------- -------- ---------- ---- ---- ---- ------<br>-- --------- -- ---- -- --- -- --- ------- -- a -----<br>---------- -- -- -- ---- ----- -- ------ -- --- ------<br>-------,375290,375280.00000000006,374516,374503,374532,375333,,36,a
screen,html.Screen,1_3_0_1_37,2021-03-29T11:40:35.429Z,,,,,,,,,,,,,,,,48,,,,,,,,,,,,,,549,response,,,,10,E,,,,,Space,keypress(Space),,,,lyrical,,,,-- -- --- ------ ------- --------- ----------- --------<br>--------- -------- --- ------- -- ------- ---- -- ------<br>-- --- -------- -------- ---------- ---- ---- ---- ------<br>-- --------- -- ---- -- --- -- --- ------- -- - crime<br>---------- -- -- -- ---- ----- -- ------ -- --- ------<br>-------,375875,375865,375316,375290,375333,375915,,37,crime
screen,html.Screen,1_3_0_1_38,2021-03-29T11:40:36.025Z,,,,,,,,,,,,,,,,48,,,,,,,,,,,,,,561,response,,,,10,E,,,,,Space,keypress(Space),,,,lyrical,,,,-- -- --- ------ ------- --------- ----------- --------<br>--------- -------- --- ------- -- ------- ---- -- ------<br>-- --- -------- -------- ---------- ---- ---- ---- ------<br>-- --------- -- ---- -- --- -- --- ------- -- - -----<br>punishable -- -- -- ---- ----- -- ------ -- --- ------<br>-------,376471,376461,375900,375875,375915,376500,,38,punishable
screen,html.Screen,1_3_0_1_39,2021-03-29T11:40:36.700Z,,,,,,,,,,,,,,,,48,,,,,,,,,,,,,,653,response,,,,10,E,,,,,Space,keypress(Space),,,,lyrical,,,,-- -- --- ------ ------- --------- ----------- --------<br>--------- -------- --- ------- -- ------- ---- -- ------<br>-- --- -------- -------- ---------- ---- ---- ---- ------<br>-- --------- -- ---- -- --- -- --- ------- -- - -----<br>---------- by -- -- ---- ----- -- ------ -- --- ------<br>-------,377147,377136,376483,376471,376500,377183,,39,by
screen,html.Screen,1_3_0_1_40,2021-03-29T11:40:37.162Z,,,,,,,,,,,,,,,,48,,,,,,,,,,,,,,430,response,,,,10,E,,,,,Space,keypress(Space),,,,lyrical,,,,-- -- --- ------ ------- --------- ----------- --------<br>--------- -------- --- ------- -- ------- ---- -- ------<br>-- --- -------- -------- ---------- ---- ---- ---- ------<br>-- --------- -- ---- -- --- -- --- ------- -- - -----<br>---------- -- up -- ---- ----- -- ------ -- --- ------<br>-------,377608,377597,377167,377147,377183,377650,,40,up
screen,html.Screen,1_3_0_1_41,2021-03-29T11:40:37.533Z,,,,,,,,,,,,,,,,48,,,,,,,,,,,,,,336,response,,,,10,E,,,,,Space,keypress(Space),,,,lyrical,,,,-- -- --- ------ ------- --------- ----------- --------<br>--------- -------- --- ------- -- ------- ---- -- ------<br>-- --- -------- -------- ---------- ---- ---- ---- ------<br>-- --------- -- ---- -- --- -- --- ------- -- - -----<br>---------- -- -- to ---- ----- -- ------ -- --- ------<br>-------,377979,377969,377633,377608,377650,378000,,41,to
screen,html.Screen,1_3_0_1_42,2021-03-29T11:40:37.994Z,,,,,,,,,,,,,,,,48,,,,,,,,,,,,,,448,response,,,,10,E,,,,,Space,keypress(Space),,,,lyrical,,,,-- -- --- ------ ------- --------- ----------- --------<br>--------- -------- --- ------- -- ------- ---- -- ------<br>-- --- -------- -------- ---------- ---- ---- ---- ------<br>-- --------- -- ---- -- --- -- --- ------- -- - -----<br>---------- -- -- -- five ----- -- ------ -- --- ------<br>-------,378440,378430,377982,377980,378000,378483,,42,five
screen,html.Screen,1_3_0_1_43,2021-03-29T11:40:38.444Z,,,,,,,,,,,,,,,,48,,,,,,,,,,,,,,415,response,,,,10,E,,,,,Space,keypress(Space),,,,lyrical,,,,-- -- --- ------ ------- --------- ----------- --------<br>--------- -------- --- ------- -- ------- ---- -- ------<br>-- --- -------- -------- ---------- ---- ---- ---- ------<br>-- --------- -- ---- -- --- -- --- ------- -- - -----<br>---------- -- -- -- ---- years -- ------ -- --- ------<br>-------,378890,378880,378465,378441.00000000006,378483,378933,,43,years
screen,html.Screen,1_3_0_1_44,2021-03-29T11:40:38.850Z,,,,,,,,,,,,,,,,48,,,,,,,,,,,,,,370,response,,,,10,E,,,,,Space,keypress(Space),,,,lyrical,,,,-- -- --- ------ ------- --------- ----------- --------<br>--------- -------- --- ------- -- ------- ---- -- ------<br>-- --- -------- -------- ---------- ---- ---- ---- ------<br>-- --------- -- ---- -- --- -- --- ------- -- - -----<br>---------- -- -- -- ---- ----- in ------ -- --- ------<br>-------,379296,379285,378915,378890,378933,379315,,44,in
screen,html.Screen,1_3_0_1_45,2021-03-29T11:40:39.254Z,,,,,,,,,,,,,,,,48,,,,,,,,,,,,,,392,response,,,,10,E,,,,,Space,keypress(Space),,,,lyrical,,,,-- -- --- ------ ------- --------- ----------- --------<br>--------- -------- --- ------- -- ------- ---- -- ------<br>-- --- -------- -------- ---------- ---- ---- ---- ------<br>-- --------- -- ---- -- --- -- --- ------- -- - -----<br>---------- -- -- -- ---- ----- -- prison -- --- ------<br>-------,379700,379690,379298,379296,379315,379733,,45,prison
screen,html.Screen,1_3_0_1_46,2021-03-29T11:40:39.681Z,,,,,,,,,,,,,,,,48,,,,,,,,,,,,,,401,response,,,,10,E,,,,,Space,keypress(Space),,,,lyrical,,,,-- -- --- ------ ------- --------- ----------- --------<br>--------- -------- --- ------- -- ------- ---- -- ------<br>-- --- -------- -------- ---------- ---- ---- ---- ------<br>-- --------- -- ---- -- --- -- --- ------- -- - -----<br>---------- -- -- -- ---- ----- -- ------ in --- ------<br>-------,380127,380117,379716,379700,379733,380165,,46,in
screen,html.Screen,1_3_0_1_47,2021-03-29T11:40:40.053Z,,,,,,,,,,,,,,,,48,,,,,,,,,,,,,,340.0000000000582,response,,,,10,E,,,,,Space,keypress(Space),,,,lyrical,,,,-- -- --- ------ ------- --------- ----------- --------<br>--------- -------- --- ------- -- ------- ---- -- ------<br>-- --- -------- -------- ---------- ---- ---- ---- ------<br>-- --------- -- ---- -- --- -- --- ------- -- - -----<br>---------- -- -- -- ---- ----- -- ------ -- the ------<br>-------,380499,380489.00000000006,380149,380127,380165,380532,,47,the
screen,html.Screen,1_3_0_1_48,2021-03-29T11:40:40.638Z,,,,,,,,,,,,,,,,48,,,,,,,,,,,,,,558,response,,,,10,E,,,,,Space,keypress(Space),,,,lyrical,,,,-- -- --- ------ ------- --------- ----------- --------<br>--------- -------- --- ------- -- ------- ---- -- ------<br>-- --- -------- -------- ---------- ---- ---- ---- ------<br>-- --------- -- ---- -- --- -- --- ------- -- - -----<br>---------- -- -- -- ---- ----- -- ------ -- --- United<br>-------,381084,381074,380516,380499,380532,381116,,48,United
screen,html.Screen,1_3_0_1_49,2021-03-29T11:40:41.200Z,,,,,,,,,,,,,,,,48,,,,,,,,,,,,,,536,response,,,,10,E,,,,,Space,keypress(Space),,,,lyrical,,,,-- -- --- ------ ------- --------- ----------- --------<br>--------- -------- --- ------- -- ------- ---- -- ------<br>-- --- -------- -------- ---------- ---- ---- ---- ------<br>-- --------- -- ---- -- --- -- --- ------- -- - -----<br>---------- -- -- -- ---- ----- -- ------ -- --- ------<br>States.,381646,381636,381100,381084,381116,381683,,49,States.
Item 10,flow.Loop,1_3_0_1,2021-03-29T11:40:41.201Z,,,,,,,,,,,,,,,,,,,,,,,,,,,,,,26735,completion,,,,,,,,,,,,,,,,,,,,381647,381636,354884,354885,354901,381683,,,
Question 1,html.Screen,1_3_0_2,2021-03-29T11:40:48.895Z,,,,,,,,,,,,,,,,,,,,,,,,,,,true,TRUE,,7668,response,,,,10,E,,,,,TRUE,click #choice-1,,,,lyrical,,,,,389341,389334,381666,381647,381683,389365,,,
Question 2,html.Screen,1_3_0_3,2021-03-29T11:40:57.152Z,,,,,,,,,,,,,,,,,,,,,,,,,,,true,TRUE,,8242,response,,,,10,E,,,,,TRUE,click #choice-1,,,,lyrical,,,,,397598,397591,389349,389341,389365,397631,,,
Item 10,flow.Sequence,1_3_0,2021-03-29T11:40:57.153Z,,,,,,,,,,,,,,,,,,,,,,,,,,,,,,49690,completion,,,,,,,,,,,,,,,,,,,,397598,397591,347885,347877,347901,397631,,,
Holding screen,html.Screen,1_3_1_0,2021-03-29T11:41:04.168Z,,,,,,,,,,,,,,,,,,,,,,,,,,,,,,7000,timeout,,,,,,,,,,,,,,,,,,,,404614.00000000006,404614,397615,397599,397631,404631,,,
screen,html.Screen,1_3_1_1_0,2021-03-29T11:41:04.905Z,,,,,,,,,,,,,,,,11,,,,,,,,,,,,,,725,response,,,,4,E,,,,,Space,keypress(Space),,,,lyrical,,,,Known -- ---- --- -- --- -------- ------------ ---------- --<br>- ------- ------ --------- -- ------------ -- --- ---- -----<br>------ ---- ---- ------ ------ ------- --- ----- ---------<br>---- --- -------- -------- --- --- -- ------- --- --- -----<br>-- --- ------ ------- --- --- -------- ---- --------- --<br>---------- -- -------- ----------------,405351,405339,404614,404614.00000000006,404631,405381,,0,Known
screen,html.Screen,1_3_1_1_1,2021-03-29T11:41:05.522Z,,,,,,,,,,,,,,,,11,,,,,,,,,,,,,,593,response,,,,4,E,,,,,Space,keypress(Space),,,,lyrical,,,,----- as ---- --- -- --- -------- ------------ ---------- --<br>- ------- ------ --------- -- ------------ -- --- ---- -----<br>------ ---- ---- ------ ------ ------- --- ----- ---------<br>---- --- -------- -------- --- --- -- ------- --- --- -----<br>-- --- ------ ------- --- --- -------- ---- --------- --<br>---------- -- -------- ----------------,405968,405958,405365,405351,405381,405998,,1,as
screen,html.Screen,1_3_1_1_2,2021-03-29T11:41:05.940Z,,,,,,,,,,,,,,,,11,,,,,,,,,,,,,,394,response,,,,4,E,,,,,Space,keypress(Space),,,,lyrical,,,,----- -- Rapa --- -- --- -------- ------------ ---------- --<br>- ------- ------ --------- -- ------------ -- --- ---- -----<br>------ ---- ---- ------ ------ ------- --- ----- ---------<br>---- --- -------- -------- --- --- -- ------- --- --- -----<br>-- --- ------ ------- --- --- -------- ---- --------- --<br>---------- -- -------- ----------------,406385,406375,405981,405968,405998,406415,,2,Rapa
screen,html.Screen,1_3_1_1_3,2021-03-29T11:41:06.344Z,,,,,,,,,,,,,,,,11,,,,,,,,,,,,,,381,response,,,,4,E,,,,,Space,keypress(Space),,,,lyrical,,,,----- -- ---- Nui -- --- -------- ------------ ---------- --<br>- ------- ------ --------- -- ------------ -- --- ---- -----<br>------ ---- ---- ------ ------ ------- --- ----- ---------<br>---- --- -------- -------- --- --- -- ------- --- --- -----<br>-- --- ------ ------- --- --- -------- ---- --------- --<br>---------- -- -------- ----------------,406790,406779,406398,406386,406415,406831,,3,Nui
screen,html.Screen,1_3_1_1_4,2021-03-29T11:41:06.727Z,,,,,,,,,,,,,,,,11,,,,,,,,,,,,,,347.0000000000582,response,,,,4,E,,,,,Space,keypress(Space),,,,lyrical,,,,----- -- ---- --- to --- -------- ------------ ---------- --<br>- ------- ------ --------- -- ------------ -- --- ---- -----<br>------ ---- ---- ------ ------ ------- --- ----- ---------<br>---- --- -------- -------- --- --- -- ------- --- --- -----<br>-- --- ------ ------- --- --- -------- ---- --------- --<br>---------- -- -------- ----------------,407172,407162.00000000006,406815,406790,406831,407198,,4,to
screen,html.Screen,1_3_1_1_5,2021-03-29T11:41:07.615Z,,,,,,,,,,,,,,,,11,,,,,,,,,,,,,,869,response,,,,4,E,,,,,Space,keypress(Space),,,,lyrical,,,,----- -- ---- --- -- the -------- ------------ ---------- --<br>- ------- ------ --------- -- ------------ -- --- ---- -----<br>------ ---- ---- ------ ------ ------- --- ----- ---------<br>---- --- -------- -------- --- --- -- ------- --- --- -----<br>-- --- ------ ------- --- --- -------- ---- --------- --<br>---------- -- -------- ----------------,408061.00000000006,408050,407181,407173,407198,408097,,5,the
screen,html.Screen,1_3_1_1_6,2021-03-29T11:41:08.593Z,,,,,,,,,,,,,,,,11,,,,,,,,,,,,,,948,response,,,,4,E,,,,,Space,keypress(Space),,,,lyrical,,,,----- -- ---- --- -- --- island's ------------ ---------- --<br>- ------- ------ --------- -- ------------ -- --- ---- -----<br>------ ---- ---- ------ ------ ------- --- ----- ---------<br>---- --- -------- -------- --- --- -- ------- --- --- -----<br>-- --- ------ ------- --- --- -------- ---- --------- --<br>---------- -- -------- ----------------,409039,409029,408081,408061.00000000006,408097,409080,,6,island's
screen,html.Screen,1_3_1_1_7,2021-03-29T11:41:09.460Z,,,,,,,,,,,,,,,,11,,,,,,,,,,,,,,831,response,,,,4,E,,,,,Space,keypress(Space),,,,lyrical,,,,"----- -- ---- --- -- --- -------- inhabitants, ---------- --<br>- ------- ------ --------- -- ------------ -- --- ---- -----<br>------ ---- ---- ------ ------ ------- --- ----- ---------<br>---- --- -------- -------- --- --- -- ------- --- --- -----<br>-- --- ------ ------- --- --- -------- ---- --------- --<br>---------- -- -------- ----------------",409906,409895,409064,409039,409080,409947,,7,"inhabitants,"
screen,html.Screen,1_3_1_1_8,2021-03-29T11:41:10.638Z,,,,,,,,,,,,,,,,11,,,,,,,,,,,,,,1142.0000000000582,response,,,,4,E,,,,,Space,keypress(Space),,,,lyrical,,,,----- -- ---- --- -- --- -------- ------------ Rongorongo --<br>- ------- ------ --------- -- ------------ -- --- ---- -----<br>------ ---- ---- ------ ------ ------- --- ----- ---------<br>---- --- -------- -------- --- --- -- ------- --- --- -----<br>-- --- ------ ------- --- --- -------- ---- --------- --<br>---------- -- -------- ----------------,411084,411073.00000000006,409931,409906,409947,411114,,8,Rongorongo
screen,html.Screen,1_3_1_1_9,2021-03-29T11:41:11.205Z,,,,,,,,,,,,,,,,11,,,,,,,,,,,,,,542,response,,,,4,E,,,,,Space,keypress(Space),,,,lyrical,,,,----- -- ---- --- -- --- -------- ------------ ---------- is<br>- ------- ------ --------- -- ------------ -- --- ---- -----<br>------ ---- ---- ------ ------ ------- --- ----- ---------<br>---- --- -------- -------- --- --- -- ------- --- --- -----<br>-- --- ------ ------- --- --- -------- ---- --------- --<br>---------- -- -------- ----------------,411650.00000000006,411640,411098,411084,411114,411681,,9,is
screen,html.Screen,1_3_1_1_10,2021-03-29T11:41:11.811Z,,,,,,,,,,,,,,,,11,,,,,,,,,,,,,,583,response,,,,4,E,,,,,Space,keypress(Space),,,,lyrical,,,,----- -- ---- --- -- --- -------- ------------ ---------- --<br>a ------- ------ --------- -- ------------ -- --- ---- -----<br>------ ---- ---- ------ ------ ------- --- ----- ---------<br>---- --- -------- -------- --- --- -- ------- --- --- -----<br>-- --- ------ ------- --- --- -------- ---- --------- --<br>---------- -- -------- ----------------,412257,412247,411664,411651,411681,412298,,10,a
