sender,sender_type,sender_id,timestamp,meta,,Blues,Classical,Country,Dance,Electronic,Folk,Gospel,Hip-Hop,Jazz,Latin,Musical/Film,New-age,Pop,Provo_ID,R&B,Rap,Reggae,Religious,Rock,Soul,Swing,Traditional,age,artist_name,correct,correctResponse,distraction,duration,ended_on,familiarity,gender,headphone_check_performance,item,list,offensiveness,pleasantness,position_correct,preference,response,response_action,snippet_file,song_name,song_rating,sound,stimulus_1,stimulus_2,stimulus_3,text,time_commit,time_end,time_render,time_run,time_show,time_switch,url,word,word_ID
Introduction,html.Screen,0_0,2021-03-29T12:45:52.449Z,"{""labjs_version"":""20.2.2"",""labjs_build"":{""flavor"":""production"",""commit"":""a25486e0c714a0ae2ce03ff94b7bb6896854dcfa""},""location"":""https://run.pavlovia.org/mvasilev/music_f/"",""userAgent"":""Mozilla/5.0 (Windows NT 10.0; Win64; x64) AppleWebKit/537.36 (KHTML, like Gecko) Chrome/89.0.4389.90 Safari/537.36"",""platform"":""Win32"",""language"":""en-US"",""locale"":""en-US"",""timeZone"":""Europe/London"",""timezoneOffset"":-60,""screen_width"":1366,""screen_height"":768,""scroll_width"":1366,""scroll_height"":577,""window_innerWidth"":1366,""window_innerHeight"":625,""devicePixelRatio"":1}",,,,,,,,,,,,,,,,,,,,,,,,,,,,,8787.82799993503,response,,,,,,,,,,continue,click button,,,,,,,,,21541.849999921396,21536.98999993503,12582.33,12582.154999952763,12749.162,21597.365,{},,
Volume calibration,html.Screen,0_1,2021-03-29T12:46:31.194Z,,,,,,,,,,,,,,,,,,,,,,,,,,,,,,38675.19999999202,response,,,,,,,,,,continue,click button,,,,,,,,,60284.944999963045,60272.56499999203,21530.734,21542.97999991104,21597.365,60306.248,,,
Task instructions,html.Screen,0_2,2021-03-29T12:46:47.980Z,,,,,,,,,,,,,,,,,,,,,,,,,,,,,,16761.876999990687,response,,,,,,,,,,continue,click button,,,,,,,,,77071.61500002258,77068.12499999069,60272.949,60295.01500003971,60306.248,77086.187,,,
Sounds,html.Screen,0_3_0_0,2021-03-29T12:46:52.239Z,,,,,,,,,,,,,,,,,,,,,,,,,,,,,,4249.153999999995,timeout,,,,,,,,2,,,,,,,,I,S,O,,81330.32499998808,81318.902,77069.691,77072.64499994926,77086.187,81335.341,,,
Judgement,html.Screen,0_3_0_1,2021-03-29T12:46:53.575Z,,,,,,,,,,,,,,,,,,,,,,,,,,,true,2,,1327.7890000008192,response,,,,,,,,2,,2,click #choice-2,,,,,I,S,O,,82666.39499994926,82663.13000000082,81318.902,81331.01999992505,81335.341,82668.384,,,
Trial,flow.Sequence,0_3_0,2021-03-29T12:46:53.576Z,,,,,,,,,,,,,,,,,,,,,,,,,,,,,,5576.943000000814,completion,,,,,,,,2,,,,,,,,I,S,O,,82667.75999986567,82663.13000000082,77069.691,77072.36999995075,77086.187,82668.384,,,
Sounds,html.Screen,0_3_1_0,2021-03-29T12:46:57.811Z,,,,,,,,,,,,,,,,,,,,,,,,,,,,,,4249.1919999999955,timeout,,,,,,,,2,,,,,,,,O,S,I,,86902.80999988317,86900.89,82651.799,82670.57999991812,82668.384,86917.576,,,
Judgement,html.Screen,0_3_1_1,2021-03-29T12:46:58.497Z,,,,,,,,,,,,,,,,,,,,,,,,,,,true,2,,668.3540000593057,response,,,,,,,,2,,2,click #choice-2,,,,,O,S,I,,87588.8050000649,87585.9300000593,86900.89,86903.34499999881,86917.576,87601.716,,,
Trial,flow.Sequence,0_3_1,2021-03-29T12:46:58.499Z,,,,,,,,,,,,,,,,,,,,,,,,,,,,,,4917.546000059301,completion,,,,,,,,2,,,,,,,,O,S,I,,87590.09499987587,87585.9300000593,82651.799,82670.32000003383,82668.384,87601.716,,,
Sounds,html.Screen,0_3_2_0,2021-03-29T12:47:02.749Z,,,,,,,,,,,,,,,,,,,,,,,,,,,,,,4248.125,timeout,,,,,,,,1,,,,,,,,S,O,I,,91840.44499997981,91833.353,87584.116,87590.8899998758,87601.716,91849.841,,,
Judgement,html.Screen,0_3_2_1,2021-03-29T12:47:03.347Z,,,,,,,,,,,,,,,,,,,,,,,,,,,true,1,,585.464000049993,response,,,,,,,,1,,1,click #choice-1,,,,,S,O,I,,92438.21000005119,92435.30500005,91833.353,91840.95499990508,91849.841,92450.731,,,
Trial,flow.Sequence,0_3_2,2021-03-29T12:47:03.348Z,,,,,,,,,,,,,,,,,,,,,,,,,,,,,,4833.589000049993,completion,,,,,,,,1,,,,,,,,S,O,I,,92439.58500004373,92435.30500005,87584.116,87590.58999991976,87601.716,92450.731,,,
Sounds,html.Screen,0_3_3_0,2021-03-29T12:47:07.593Z,,,,,,,,,,,,,,,,,,,,,,,,,,,,,,4248.5610000000015,timeout,,,,,,,,1,,,,,,,,S,I,O,,96684.1649999842,96682.385,92433.41,92440.3849998489,92450.731,96699.292,,,
Judgement,html.Screen,0_3_3_1,2021-03-29T12:47:08.122Z,,,,,,,,,,,,,,,,,,,,,,,,,,,true,1,,511.0929998675274,response,,,,,,,,1,,1,click #choice-1,,,,,S,I,O,,97213.08999997564,97210.38499986753,96682.385,96684.65499999002,96699.292,97216.344,,,
Trial,flow.Sequence,0_3_3,2021-03-29T12:47:08.123Z,,,,,,,,,,,,,,,,,,,,,,,,,,,,,,4759.653999867529,completion,,,,,,,,1,,,,,,,,S,I,O,,97213.89000001363,97210.38499986753,92433.41,92440.12499996461,92450.731,97216.344,,,
Sounds,html.Screen,0_3_4_0,2021-03-29T12:47:12.360Z,,,,,,,,,,,,,,,,,,,,,,,,,,,,,,4259.562000000005,timeout,,,,,,,,3,,,,,,,,O,I,S,,101451.32999983616,101448.081,97198.928,97214.56999983639,97216.344,101475.906,,,
Judgement,html.Screen,0_3_4_1,2021-03-29T12:47:13.112Z,,,,,,,,,,,,,,,,,,,,,,,,,,,true,3,,724.2039998597029,response,,,,,,,,3,,3,click #choice-3,,,,,O,I,S,,102202.90499995463,102200.1099998597,101448.081,101451.82999991812,101475.906,102215.561,,,
Trial,flow.Sequence,0_3_4,2021-03-29T12:47:13.112Z,,,,,,,,,,,,,,,,,,,,,,,,,,,,,,4983.765999859708,completion,,,,,,,,3,,,,,,,,O,I,S,,102203.79499997944,102200.1099998597,97198.928,97214.29499983788,97216.344,102215.561,,,
Sounds,html.Screen,0_3_5_0,2021-03-29T12:47:17.358Z,,,,,,,,,,,,,,,,,,,,,,,,,,,,,,4247.986999999994,timeout,,,,,,,,3,,,,,,,,I,O,S,,106449.07499989495,106447.088,102198.047,102204.3850000482,102215.561,106463.548,,,
Judgement,html.Screen,0_3_5_1,2021-03-29T12:47:17.872Z,,,,,,,,,,,,,,,,,,,,,,,,,,,true,3,,496.8069998719293,response,,,,,,,,3,,3,click #choice-3,,,,,I,O,S,,106963.0350000225,106960.35499987192,106447.088,106449.67500003986,106463.548,106996.832,,,
Trial,flow.Sequence,0_3_5,2021-03-29T12:47:17.874Z,,,,,,,,,,,,,,,,,,,,,,,,,,,,,,4744.793999871923,completion,,,,,,,,3,,,,,,,,I,O,S,,106965.67000006326,106960.35499987192,102198.047,102204.19499999844,102215.561,106996.832,,,
Task,flow.Loop,0_3,2021-03-29T12:47:17.892Z,,,,,,,,,,,,,,,,,,,,,,,,,,,,,,29874.16799987192,completion,,,1,,,,,,,,,,,,,,,,,106983.52999985218,106960.35499987192,77069.691,77072.13500002399,77086.187,106996.832,,,
Trap,html.Screen,0_4,2021-03-29T12:47:17.902Z,,,,,,,,,,,,,,,,,,,,,,,,,,,,,,NaN,skipped,,,,,,,,,,,,,,,,,,,,106993.68999991566,106960.35499987192,,106993.10999992304,,106996.832,,,
Thanks,html.Screen,0_5,2021-03-29T12:47:22.512Z,,,,,,,,,,,,,,,,,,,,,,,,,,,,,,4603.502999850025,response,,,,,,,,,,continue,click button,,,,,,,,,111603.00499992445,111600.33499985002,106946.893,106994.18499995954,106996.832,128225.936,,,
Headphone screening,flow.Sequence,0,2021-03-29T12:47:22.512Z,,,,,,,,,,,,,,,,,,,,,,,,,,,,,,98851.17299985002,completion,,,,,,,,,,,,,,,,,,,,111603.7349998951,111600.33499985002,12582.33,12581.95500005968,12749.162,128225.936,,,
Instructions,html.Page,1_0,2021-03-29T12:47:52.813Z,,,,,,,,,,,,,,,,,,,,,,,,,,,,,,13675.253999887718,form submission,,,,,,,,,,,,,,,,,,,,141902.054999955,141901.18999988772,128159.249,128217.18999999575,128225.936,141906.468,,,
Holding screen,html.Screen,1_1_0_0,2021-03-29T12:47:59.801Z,,,,,,,,,,,,,,,,,,,,,,,,,,,,,,7065.24000000002,timeout,,,,,,,,,,,,,,,,,,,,148889.74500005133,148888.365,141873.099,141902.92500006035,141906.468,148971.708,,,
screen,html.Screen,1_1_0_1_0,2021-03-29T12:48:01.250Z,,,,,,,,,,,,,,,,53,,,,,,,,,,,,,,1363.3419998777972,response,,,,99,,,,,,Space,keypress(Space),,,,,,,,When -- ----- -- ------ - ------- --- ----------<br>------------- ------ ------ ---- ---- ------- ----- -- ----<br>-------- ------- -- ---------- --- - --- ----- ----- ----<br>---- --- --- ----- --- ---- ---- ------- ----- ---- -------<br>--- --- -- ----- -- --- ---- -- --- ---- -- ------ ------<br>--- ----- -- ----,150338.74999987893,150335.0499998778,148888.365,148890.4849998653,148971.708,150338.005,,0,When
screen,html.Screen,1_1_0_1_1,2021-03-29T12:48:01.828Z,,,,,,,,,,,,,,,,53,,,,,,,,,,,,,,577.6950000122888,response,,,,99,,,,,,Space,keypress(Space),,,,,,,,---- it ----- -- ------ - ------- --- ----------<br>------------- ------ ------ ---- ---- ------- ----- -- ----<br>-------- ------- -- ---------- --- - --- ----- ----- ----<br>---- --- --- ----- --- ---- ---- ------- ----- ---- -------<br>--- --- -- ----- -- --- ---- -- --- ---- -- ------ ------<br>--- ----- -- ----,150916.65500006638,150915.7000000123,150321.546,150338.9699999243,150338.005,150921.475,,1,it
screen,html.Screen,1_1_0_1_2,2021-03-29T12:48:02.533Z,,,,,,,,,,,,,,,,53,,,,,,,,,,,,,,700.0049999725015,response,,,,99,,,,,,Space,keypress(Space),,,,,,,,---- -- comes -- ------ - ------- --- ----------<br>------------- ------ ------ ---- ---- ------- ----- -- ----<br>-------- ------- -- ---------- --- - --- ----- ----- ----<br>---- --- --- ----- --- ---- ---- ------- ----- ---- -------<br>--- --- -- ----- -- --- ---- -- --- ---- -- ------ ------<br>--- ----- -- ----,151622.45999998413,151621.4799999725,150904.593,150916.83500004,150921.475,151637.743,,2,comes
screen,html.Screen,1_1_0_1_3,2021-03-29T12:48:03.031Z,,,,,,,,,,,,,,,,53,,,,,,,,,,,,,,480.7319999083702,response,,,,99,,,,,,Space,keypress(Space),,,,,,,,---- -- ----- to ------ - ------- --- ----------<br>------------- ------ ------ ---- ---- ------- ----- -- ----<br>-------- ------- -- ---------- --- - --- ----- ----- ----<br>---- --- --- ----- --- ---- ---- ------- ----- ---- -------<br>--- --- -- ----- -- --- ---- -- --- ---- -- ------ ------<br>--- ----- -- ----,152120.48000004143,152118.47499990836,151621.13,151622.64499999583,151637.743,152137.875,,3,to
screen,html.Screen,1_1_0_1_4,2021-03-29T12:48:03.666Z,,,,,,,,,,,,,,,,53,,,,,,,,,,,,,,615.609999993816,response,,,,99,,,,,,Space,keypress(Space),,,,,,,,---- -- ----- -- having - ------- --- ----------<br>------------- ------ ------ ---- ---- ------- ----- -- ----<br>-------- ------- -- ---------- --- - --- ----- ----- ----<br>---- --- --- ----- --- ---- ---- ------- ----- ---- -------<br>--- --- -- ----- -- --- ---- -- --- ---- -- ------ ------<br>--- ----- -- ----,152755.45999989845,152753.48499999382,152121.061,152120.94499985687,152137.875,152771.121,,4,having
screen,html.Screen,1_1_0_1_5,2021-03-29T12:48:04.300Z,,,,,,,,,,,,,,,,53,,,,,,,,,,,,,,617.2989999738347,response,,,,99,,,,,,Space,keypress(Space),,,,,,,,---- -- ----- -- ------ a ------- --- ----------<br>------------- ------ ------ ---- ---- ------- ----- -- ----<br>-------- ------- -- ---------- --- - --- ----- ----- ----<br>---- --- --- ----- --- ---- ---- ------- ----- ---- -------<br>--- --- -- ----- -- --- ---- -- --- ---- -- ------ ------<br>--- ----- -- ----,153389.31999984197,153388.41999997385,152754.401,152758.02499987185,152771.121,153404.057,,5,a
screen,html.Screen,1_1_0_1_6,2021-03-29T12:48:04.912Z,,,,,,,,,,,,,,,,53,,,,,,,,,,,,,,595.5180000234686,response,,,,99,,,,,,Space,keypress(Space),,,,,,,,---- -- ----- -- ------ - lasting --- ----------<br>------------- ------ ------ ---- ---- ------- ----- -- ----<br>-------- ------- -- ---------- --- - --- ----- ----- ----<br>---- --- --- ----- --- ---- ---- ------- ----- ---- -------<br>--- --- -- ----- -- --- ---- -- --- ---- -- ------ ------<br>--- ----- -- ----,154001.5499999281,153999.57500002347,153387.638,153389.50000004843,153404.057,154003.989,,6,lasting
screen,html.Screen,1_1_0_1_7,2021-03-29T12:48:05.483Z,,,,,,,,,,,,,,,,53,,,,,,,,,,,,,,566.0710000563995,response,,,,99,,,,,,Space,keypress(Space),,,,,,,,---- -- ----- -- ------ - ------- and ----------<br>------------- ------ ------ ---- ---- ------- ----- -- ----<br>-------- ------- -- ---------- --- - --- ----- ----- ----<br>---- --- --- ----- --- ---- ---- ------- ----- ---- -------<br>--- --- -- ----- -- --- ---- -- --- ---- -- ------ ------<br>--- ----- -- ----,154572.0699999947,154570.0600000564,153987.266,154002.01499997638,154003.989,154587.38,,7,and
screen,html.Screen,1_1_0_1_8,2021-03-29T12:48:06.129Z,,,,,,,,,,,,,,,,53,,,,,,,,,,,,,,628.39499993145,response,,,,99,,,,,,Space,keypress(Space),,,,,,,,---- -- ----- -- ------ - ------- --- fulfilling<br>------------- ------ ------ ---- ---- ------- ----- -- ----<br>-------- ------- -- ---------- --- - --- ----- ----- ----<br>---- --- --- ----- --- ---- ---- ------- ----- ---- -------<br>--- --- -- ----- -- --- ---- -- --- ---- -- ------ ------<br>--- ----- -- ----,155217.70999999717,155215.77499993145,154570.719,154572.535000043,154587.38,155220.435,,8,fulfilling
screen,html.Screen,1_1_0_1_9,2021-03-29T12:48:06.744Z,,,,,,,,,,,,,,,,53,,,,,,,,,,,,,,610.8999999953085,response,,,,99,,,,,,Space,keypress(Space),,,,,,,,"---- -- ----- -- ------ - ------- --- ----------<br>relationship, ------ ------ ---- ---- ------- ----- -- ----<br>-------- ------- -- ---------- --- - --- ----- ----- ----<br>---- --- --- ----- --- ---- ---- ------- ----- ---- -------<br>--- --- -- ----- -- --- ---- -- --- ---- -- ------ ------<br>--- ----- -- ----",155833.27499986626,155831.3349999953,155203.917,155218.2099998463,155220.435,155836.959,,9,"relationship,"
screen,html.Screen,1_1_0_1_10,2021-03-29T12:48:07.515Z,,,,,,,,,,,,,,,,53,,,,,,,,,,,,,,765.1460000563238,response,,,,99,,,,,,Space,keypress(Space),,,,,,,,---- -- ----- -- ------ - ------- --- ----------<br>------------- common ------ ---- ---- ------- ----- -- ----<br>-------- ------- -- ---------- --- - --- ----- ----- ----<br>---- --- --- ----- --- ---- ---- ------- ----- ---- -------<br>--- --- -- ----- -- --- ---- -- --- ---- -- ------ ------<br>--- ----- -- ----,156604.24000001512,156602.10500005633,155820.486,155833.8549998589,155836.959,156620.209,,10,common
screen,html.Screen,1_1_0_1_11,2021-03-29T12:48:08.242Z,,,,,,,,,,,,,,,,53,,,,,,,,,,,,,,708.4759998403315,response,,,,99,,,,,,Space,keypress(Space),,,,,,,,---- -- ----- -- ------ - ------- --- ----------<br>------------- ------ wisdom ---- ---- ------- ----- -- ----<br>-------- ------- -- ---------- --- - --- ----- ----- ----<br>---- --- --- ----- --- ---- ---- ------- ----- ---- -------<br>--- --- -- ----- -- --- ---- -- --- ---- -- ------ ------<br>--- ----- -- ----,157330.6599999778,157328.68499984033,156603.655,156604.70999986865,156620.209,157336.635,,11,wisdom
screen,html.Screen,1_1_0_1_12,2021-03-29T12:48:08.966Z,,,,,,,,,,,,,,,,53,,,,,,,,,,,,,,716.8549998456147,response,,,,99,,,,,,Space,keypress(Space),,,,,,,,---- -- ----- -- ------ - ------- --- ----------<br>------------- ------ ------ says ---- ------- ----- -- ----<br>-------- ------- -- ---------- --- - --- ----- ----- ----<br>---- --- --- ----- --- ---- ---- ------- ----- ---- -------<br>--- --- -- ----- -- --- ---- -- --- ---- -- ------ ------<br>--- ----- -- ----,158055.50500005484,158053.48999984562,157320.156,157331.1349998694,157336.635,158070.012,,12,says
screen,html.Screen,1_1_0_1_13,2021-03-29T12:48:09.552Z,,,,,,,,,,,,,,,,53,,,,,,,,,,,,,,569.1379999445053,response,,,,99,,,,,,Space,keypress(Space),,,,,,,,---- -- ----- -- ------ - ------- --- ----------<br>------------- ------ ------ ---- that ------- ----- -- ----<br>-------- ------- -- ---------- --- - --- ----- ----- ----<br>---- --- --- ----- --- ---- ---- ------- ----- ---- -------<br>--- --- -- ----- -- --- ---- -- --- ---- -- ------ ------<br>--- ----- -- ----,158641.38499996625,158639.1499999445,158053.368,158055.9849999845,158070.012,158653.114,,13,that
screen,html.Screen,1_1_0_1_14,2021-03-29T12:48:10.143Z,,,,,,,,,,,,,,,,53,,,,,,,,,,,,,,576.4859999623732,response,,,,99,,,,,,Space,keypress(Space),,,,,,,,---- -- ----- -- ------ - ------- --- ----------<br>------------- ------ ------ ---- ---- feeling ----- -- ----<br>-------- ------- -- ---------- --- - --- ----- ----- ----<br>---- --- --- ----- --- ---- ---- ------- ----- ---- -------<br>--- --- -- ----- -- --- ---- -- --- ---- -- ------ ------<br>--- ----- -- ----,159231.82499990799,159229.59999996237,158636.562,158641.86499989592,158653.114,159236.274,,14,feeling
screen,html.Screen,1_1_0_1_15,2021-03-29T12:48:10.683Z,,,,,,,,,,,,,,,,53,,,,,,,,,,,,,,533.8210000435065,response,,,,99,,,,,,Space,keypress(Space),,,,,,,,---- -- ----- -- ------ - ------- --- ----------<br>------------- ------ ------ ---- ---- ------- close -- ----<br>-------- ------- -- ---------- --- - --- ----- ----- ----<br>---- --- --- ----- --- ---- ---- ------- ----- ---- -------<br>--- --- -- ----- -- --- ---- -- --- ---- -- ------ ------<br>--- ----- -- ----,159772.3649998661,159770.0950000435,159219.799,159232.30999987572,159236.274,159786.336,,15,close
screen,html.Screen,1_1_0_1_16,2021-03-29T12:48:11.124Z,,,,,,,,,,,,,,,,53,,,,,,,,,,,,,,424.17399988800753,response,,,,99,,,,,,Space,keypress(Space),,,,,,,,---- -- ----- -- ------ - ------- --- ----------<br>------------- ------ ------ ---- ---- ------- ----- to ----<br>-------- ------- -- ---------- --- - --- ----- ----- ----<br>---- --- --- ----- --- ---- ---- ------- ----- ---- -------<br>--- --- -- ----- -- --- ---- -- --- ---- -- ------ ------<br>--- ----- -- ----,160212.74999994785,160210.50999988802,159769.689,159772.85000006668,159786.336,160219.454,,16,to
screen,html.Screen,1_1_0_1_17,2021-03-29T12:48:11.599Z,,,,,,,,,,,,,,,,53,,,,,,,,,,,,,,466.55100002503605,response,,,,99,,,,,,Space,keypress(Space),,,,,,,,---- -- ----- -- ------ - ------- --- ----------<br>------------- ------ ------ ---- ---- ------- ----- -- your<br>-------- ------- -- ---------- --- - --- ----- ----- ----<br>---- --- --- ----- --- ---- ---- ------- ----- ---- -------<br>--- --- -- ----- -- --- ---- -- --- ---- -- ------ ------<br>--- ----- -- ----,160688.2050000131,160686.00500002503,160202.902,160213.2200000342,160219.454,160702.815,,17,your
screen,html.Screen,1_1_0_1_18,2021-03-29T12:48:12.299Z,,,,,,,,,,,,,,,,53,,,,,,,,,,,,,,683.5749998832471,response,,,,99,,,,,,Space,keypress(Space),,,,,,,,---- -- ----- -- ------ - ------- --- ----------<br>------------- ------ ------ ---- ---- ------- ----- -- ----<br>romantic ------- -- ---------- --- - --- ----- ----- ----<br>---- --- --- ----- --- ---- ---- ------- ----- ---- -------<br>--- --- -- ----- -- --- ---- -- --- ---- -- ------ ------<br>--- ----- -- ----,161388.52499984205,161386.38999988325,160686.178,160688.67499986663,160702.815,161402.597,,18,romantic
screen,html.Screen,1_1_0_1_19,2021-03-29T12:48:13.106Z,,,,,,,,,,,,,,,,53,,,,,,,,,,,,,,790.4979999950738,response,,,,99,,,,,,Space,keypress(Space),,,,,,,,---- -- ----- -- ------ - ------- --- ----------<br>------------- ------ ------ ---- ---- ------- ----- -- ----<br>-------- partner -- ---------- --- - --- ----- ----- ----<br>---- --- --- ----- --- ---- ---- ------- ----- ---- -------<br>--- --- -- ----- -- --- ---- -- --- ---- -- ------ ------<br>--- ----- -- ----,162195.29499998316,162193.09499999508,161385.864,161389.00500000454,161402.597,162202.333,,19,partner
screen,html.Screen,1_1_0_1_20,2021-03-29T12:48:13.606Z,,,,,,,,,,,,,,,,53,,,,,,,,,,,,,,490.6420000126527,response,,,,99,,,,,,Space,keypress(Space),,,,,,,,---- -- ----- -- ------ - ------- --- ----------<br>------------- ------ ------ ---- ---- ------- ----- -- ----<br>-------- ------- is ---------- --- - --- ----- ----- ----<br>---- --- --- ----- --- ---- ---- ------- ----- ---- -------<br>--- --- -- ----- -- --- ---- -- --- ---- -- ------ ------<br>--- ----- -- ----,162695.16999996267,162692.97500001267,162185.829,162195.75499999337,162202.333,162702.259,,20,is
screen,html.Screen,1_1_0_1_21,2021-03-29T12:48:14.208Z,,,,,,,,,,,,,,,,53,,,,,,,,,,,,,,592.2060000427009,response,,,,99,,,,,,Space,keypress(Space),,,,,,,,---- -- ----- -- ------ - ------- --- ----------<br>------------- ------ ------ ---- ---- ------- ----- -- ----<br>-------- ------- -- paramount. --- - --- ----- ----- ----<br>---- --- --- ----- --- ---- ---- ------- ----- ---- -------<br>--- --- -- ----- -- --- ---- -- --- ---- -- ------ ------<br>--- ----- -- ----,163296.86999996193,163294.4650000427,162685.768,162695.64499985427,162702.259,163302.135,,21,paramount.
screen,html.Screen,1_1_0_1_22,2021-03-29T12:48:14.927Z,,,,,,,,,,,,,,,,53,,,,,,,,,,,,,,711.9399998390581,response,,,,99,,,,,,Space,keypress(Space),,,,,,,,---- -- ----- -- ------ - ------- --- ----------<br>------------- ------ ------ ---- ---- ------- ----- -- ----<br>-------- ------- -- ---------- But - --- ----- ----- ----<br>---- --- --- ----- --- ---- ---- ------- ----- ---- -------<br>--- --- -- ----- -- --- ---- -- --- ---- -- ------ ------<br>--- ----- -- ----,164016.27999986522,164014.07499983907,163285.648,163297.32999997213,163302.135,164018.638,,22,But
screen,html.Screen,1_1_0_1_23,2021-03-29T12:48:15.373Z,,,,,,,,,,,,,,,,53,,,,,,,,,,,,,,440.83699992325273,response,,,,99,,,,,,Space,keypress(Space),,,,,,,,---- -- ----- -- ------ - ------- --- ----------<br>------------- ------ ------ ---- ---- ------- ----- -- ----<br>-------- ------- -- ---------- --- a --- ----- ----- ----<br>---- --- --- ----- --- ---- ---- ------- ----- ---- -------<br>--- --- -- ----- -- --- ---- -- --- ---- -- ------ ------<br>--- ----- -- ----,164461.66999987327,164459.47499992326,164002.17,164016.7449999135,164018.638,164468.542,,23,a
screen,html.Screen,1_1_0_1_24,2021-03-29T12:48:15.853Z,,,,,,,,,,,,,,,,53,,,,,,,,,,,,,,471.38799987678067,response,,,,99,,,,,,Space,keypress(Space),,,,,,,,---- -- ----- -- ------ - ------- --- ----------<br>------------- ------ ------ ---- ---- ------- ----- -- ----<br>-------- ------- -- ---------- --- - new ----- ----- ----<br>---- --- --- ----- --- ---- ---- ------- ----- ---- -------<br>--- --- -- ----- -- --- ---- -- --- ---- -- ------ ------<br>--- ----- -- ----,164942.1250000596,164939.92999987677,164452.094,164462.1449999977,164468.542,164951.809,,24,new
screen,html.Screen,1_1_0_1_25,2021-03-29T12:48:16.499Z,,,,,,,,,,,,,,,,53,,,,,,,,,,,,,,633.7759999934351,response,,,,99,,,,,,Space,keypress(Space),,,,,,,,---- -- ----- -- ------ - ------- --- ----------<br>------------- ------ ------ ---- ---- ------- ----- -- ----<br>-------- ------- -- ---------- --- - --- study ----- ----<br>---- --- --- ----- --- ---- ---- ------- ----- ---- -------<br>--- --- -- ----- -- --- ---- -- --- ---- -- ------ ------<br>--- ----- -- ----,165587.92999992147,165585.58499999344,164935.32,164942.63499998488,164951.809,165601.697,,25,study
screen,html.Screen,1_1_0_1_26,2021-03-29T12:48:16.962Z,,,,,,,,,,,,,,,,53,,,,,,,,,,,,,,448.61299984593643,response,,,,99,,,,,,Space,keypress(Space),,,,,,,,---- -- ----- -- ------ - ------- --- ----------<br>------------- ------ ------ ---- ---- ------- ----- -- ----<br>-------- ------- -- ---------- --- - --- ----- finds ----<br>---- --- --- ----- --- ---- ---- ------- ----- ---- -------<br>--- --- -- ----- -- --- ---- -- --- ---- -- ------ ------<br>--- ----- -- ----,166051.34000000544,166050.30999984592,165585.2,165588.4149998892,165601.697,166068.18,,26,finds
screen,html.Screen,1_1_0_1_27,2021-03-29T12:48:17.430Z,,,,,,,,,,,,,,,,53,,,,,,,,,,,,,,448.0900000219117,response,,,,99,,,,,,Space,keypress(Space),,,,,,,,---- -- ----- -- ------ - ------- --- ----------<br>------------- ------ ------ ---- ---- ------- ----- -- ----<br>-------- ------- -- ---------- --- - --- ----- ----- that<br>---- --- --- ----- --- ---- ---- ------- ----- ---- -------<br>--- --- -- ----- -- --- ---- -- --- ---- -- ------ ------<br>--- ----- -- ----,166518.65500002168,166516.2700000219,166051.734,166051.5300000552,166068.18,166534.844,,27,that
screen,html.Screen,1_1_0_1_28,2021-03-29T12:48:17.875Z,,,,,,,,,,,,,,,,53,,,,,,,,,,,,,,427.0459999186278,response,,,,99,,,,,,Space,keypress(Space),,,,,,,,---- -- ----- -- ------ - ------- --- ----------<br>------------- ------ ------ ---- ---- ------- ----- -- ----<br>-------- ------- -- ---------- --- - --- ----- ----- ----<br>it's --- --- ----- --- ---- ---- ------- ----- ---- -------<br>--- --- -- ----- -- --- ---- -- --- ---- -- ------ ------<br>--- ----- -- ----,166964.29000003263,166961.88999991864,166518.088,166519.1150000319,166534.844,166968.05,,28,it's
screen,html.Screen,1_1_0_1_29,2021-03-29T12:48:18.361Z,,,,,,,,,,,,,,,,53,,,,,,,,,,,,,,479.4200000137207,response,,,,99,,,,,,Space,keypress(Space),,,,,,,,---- -- ----- -- ------ - ------- --- ----------<br>------------- ------ ------ ---- ---- ------- ----- -- ----<br>-------- ------- -- ---------- --- - --- ----- ----- ----<br>---- not --- ----- --- ---- ---- ------- ----- ---- -------<br>--- --- -- ----- -- --- ---- -- --- ---- -- ------ ------<br>--- ----- -- ----,167449.68999992125,167447.4700000137,166951.557,166964.75499984808,166968.05,167473.306,,29,not
screen,html.Screen,1_1_0_1_30,2021-03-29T12:48:18.801Z,,,,,,,,,,,,,,,,53,,,,,,,,,,,,,,414.4589998757874,response,,,,99,,,,,,Space,keypress(Space),,,,,,,,---- -- ----- -- ------ - ------- --- ----------<br>------------- ------ ------ ---- ---- ------- ----- -- ----<br>-------- ------- -- ---------- --- - --- ----- ----- ----<br>---- --- how ----- --- ---- ---- ------- ----- ---- -------<br>--- --- -- ----- -- --- ---- -- --- ---- -- ------ ------<br>--- ----- -- ----,167890.02999989316,167887.7649998758,167434.819,167450.16500004567,167473.306,167901.276,,30,how
screen,html.Screen,1_1_0_1_31,2021-03-29T12:48:19.281Z,,,,,,,,,,,,,,,,53,,,,,,,,,,,,,,466.8790000328445,response,,,,99,,,,,,Space,keypress(Space),,,,,,,,---- -- ----- -- ------ - ------- --- ----------<br>------------- ------ ------ ---- ---- ------- ----- -- ----<br>-------- ------- -- ---------- --- - --- ----- ----- ----<br>---- --- --- close --- ---- ---- ------- ----- ---- -------<br>--- --- -- ----- -- --- ---- -- --- ---- -- ------ ------<br>--- ----- -- ----,168370.45499985106,168368.15500003286,167884.726,167890.51000005566,167901.276,168384.608,,31,close
screen,html.Screen,1_1_0_1_32,2021-03-29T12:48:19.717Z,,,,,,,,,,,,,,,,53,,,,,,,,,,,,,,419.0270000183955,response,,,,99,,,,,,Space,keypress(Space),,,,,,,,---- -- ----- -- ------ - ------- --- ----------<br>------------- ------ ------ ---- ---- ------- ----- -- ----<br>-------- ------- -- ---------- --- - --- ----- ----- ----<br>---- --- --- ----- you ---- ---- ------- ----- ---- -------<br>--- --- -- ----- -- --- ---- -- --- ---- -- ------ ------<br>--- ----- -- ----,168805.85499992594,168803.6350000184,168367.961,168370.9899999667,168384.608,168817.86,,32,you
screen,html.Screen,1_1_0_1_33,2021-03-29T12:48:20.142Z,,,,,,,,,,,,,,,,53,,,,,,,,,,,,,,411.1499998936197,response,,,,99,,,,,,Space,keypress(Space),,,,,,,,---- -- ----- -- ------ - ------- --- ----------<br>------------- ------ ------ ---- ---- ------- ----- -- ----<br>-------- ------- -- ---------- --- - --- ----- ----- ----<br>---- --- --- ----- --- feel ---- ------- ----- ---- -------<br>--- --- -- ----- -- --- ---- -- --- ---- -- ------ ------<br>--- ----- -- ----,169231.41500004567,169229.0099998936,168801.187,168806.3250000123,168817.86,169234.254,,33,feel
screen,html.Screen,1_1_0_1_34,2021-03-29T12:48:20.522Z,,,,,,,,,,,,,,,,53,,,,,,,,,,,,,,375.10599988579634,response,,,,99,,,,,,Space,keypress(Space),,,,,,,,---- -- ----- -- ------ - ------- --- ----------<br>------------- ------ ------ ---- ---- ------- ----- -- ----<br>-------- ------- -- ---------- --- - --- ----- ----- ----<br>---- --- --- ----- --- ---- that ------- ----- ---- -------<br>--- --- -- ----- -- --- ---- -- --- ---- -- ------ ------<br>--- ----- -- ----,169611.5999999456,169609.35999988578,169217.789,169231.87999986112,169234.254,169617.503,,34,that
screen,html.Screen,1_1_0_1_35,2021-03-29T12:48:20.958Z,,,,,,,,,,,,,,,,53,,,,,,,,,,,,,,427.2119998508424,response,,,,99,,,,,,Space,keypress(Space),,,,,,,,---- -- ----- -- ------ - ------- --- ----------<br>------------- ------ ------ ---- ---- ------- ----- -- ----<br>-------- ------- -- ---------- --- - --- ----- ----- ----<br>---- --- --- ----- --- ---- ---- matters ----- ---- -------<br>--- --- -- ----- -- --- ---- -- --- ---- -- ------ ------<br>--- ----- -- ----,170046.91000003368,170044.71499985084,169601.048,169612.07000003196,169617.503,170050.757,,35,matters
screen,html.Screen,1_1_0_1_36,2021-03-29T12:48:21.413Z,,,,,,,,,,,,,,,,53,,,,,,,,,,,,,,449.41799993554014,response,,,,99,,,,,,Space,keypress(Space),,,,,,,,"---- -- ----- -- ------ - ------- --- ----------<br>------------- ------ ------ ---- ---- ------- ----- -- ----<br>-------- ------- -- ---------- --- - --- ----- ----- ----<br>---- --- --- ----- --- ---- ---- ------- most, ---- -------<br>--- --- -- ----- -- --- ---- -- --- ---- -- ------ ------<br>--- ----- -- ----",170502.36999988556,170500.17499993555,170034.29,170047.38999996334,170050.757,170517.523,,36,"most,"
screen,html.Screen,1_1_0_1_37,2021-03-29T12:48:22.099Z,,,,,,,,,,,,,,,,53,,,,,,,,,,,,,,668.3219999708817,response,,,,99,,,,,,Space,keypress(Space),,,,,,,,---- -- ----- -- ------ - ------- --- ----------<br>------------- ------ ------ ---- ---- ------- ----- -- ----<br>-------- ------- -- ---------- --- - --- ----- ----- ----<br>---- --- --- ----- --- ---- ---- ------- ----- it's -------<br>--- --- -- ----- -- --- ---- -- --- ---- -- ------ ------<br>--- ----- -- ----,171188.0550000351,171185.84499997087,170500.861,170503.06500005536,170517.523,171200.696,,37,it's
screen,html.Screen,1_1_0_1_38,2021-03-29T12:48:22.624Z,,,,,,,,,,,,,,,,53,,,,,,,,,,,,,,510.42899991432205,response,,,,99,,,,,,Space,keypress(Space),,,,,,,,---- -- ----- -- ------ - ------- --- ----------<br>------------- ------ ------ ---- ---- ------- ----- -- ----<br>-------- ------- -- ---------- --- - --- ----- ----- ----<br>---- --- --- ----- --- ---- ---- ------- ----- ---- whether<br>--- --- -- ----- -- --- ---- -- --- ---- -- ------ ------<br>--- ----- -- ----,171713.32999994047,171711.12499991432,171184.095,171188.53499996476,171200.696,171717.092,,38,whether
screen,html.Screen,1_1_0_1_39,2021-03-29T12:48:23.095Z,,,,,,,,,,,,,,,,53,,,,,,,,,,,,,,464.70299986581085,response,,,,99,,,,,,Space,keypress(Space),,,,,,,,---- -- ----- -- ------ - ------- --- ----------<br>------------- ------ ------ ---- ---- ------- ----- -- ----<br>-------- ------- -- ---------- --- - --- ----- ----- ----<br>---- --- --- ----- --- ---- ---- ------- ----- ---- -------<br>you --- -- ----- -- --- ---- -- --- ---- -- ------ ------<br>--- ----- -- ----,172184.17500006035,172181.79499986582,171700.478,171713.8050000649,171717.092,172200.4,,39,you
screen,html.Screen,1_1_0_1_40,2021-03-29T12:48:23.546Z,,,,,,,,,,,,,,,,53,,,,,,,,,,,,,,432.4350000549166,response,,,,99,,,,,,Space,keypress(Space),,,,,,,,---- -- ----- -- ------ - ------- --- ----------<br>------------- ------ ------ ---- ---- ------- ----- -- ----<br>-------- ------- -- ---------- --- - --- ----- ----- ----<br>---- --- --- ----- --- ---- ---- ------- ----- ---- -------<br>--- are -- ----- -- --- ---- -- --- ---- -- ------ ------<br>--- ----- -- ----,172635.035000043,172632.8350000549,172183.863,172184.67499990948,172200.4,172650.411,,40,are
screen,html.Screen,1_1_0_1_41,2021-03-29T12:48:24.071Z,,,,,,,,,,,,,,,,53,,,,,,,,,,,,,,507.20899995448417,response,,,,99,,,,,,Space,keypress(Space),,,,,,,,---- -- ----- -- ------ - ------- --- ----------<br>------------- ------ ------ ---- ---- ------- ----- -- ----<br>-------- ------- -- ---------- --- - --- ----- ----- ----<br>---- --- --- ----- --- ---- ---- ------- ----- ---- -------<br>--- --- as ----- -- --- ---- -- --- ---- -- ------ ------<br>--- ----- -- ----,173159.89500004798,173157.61999995448,172633.741,172635.52000001073,172650.411,173166.788,,41,as
screen,html.Screen,1_1_0_1_42,2021-03-29T12:48:24.491Z,,,,,,,,,,,,,,,,53,,,,,,,,,,,,,,411.2369999370421,response,,,,99,,,,,,Space,keypress(Space),,,,,,,,---- -- ----- -- ------ - ------- --- ----------<br>------------- ------ ------ ---- ---- ------- ----- -- ----<br>-------- ------- -- ---------- --- - --- ----- ----- ----<br>---- --- --- ----- --- ---- ---- ------- ----- ---- -------<br>--- --- -- close -- --- ---- -- --- ---- -- ------ ------<br>--- ----- -- ----,173580.23500000127,173578.02499993704,173150.308,173160.3949998971,173166.788,173583.377,,42,close
screen,html.Screen,1_1_0_1_43,2021-03-29T12:48:24.961Z,,,,,,,,,,,,,,,,53,,,,,,,,,,,,,,465.0379998519493,response,,,,99,,,,,,Space,keypress(Space),,,,,,,,---- -- ----- -- ------ - ------- --- ----------<br>------------- ------ ------ ---- ---- ------- ----- -- ----<br>-------- ------- -- ---------- --- - --- ----- ----- ----<br>---- --- --- ----- --- ---- ---- ------- ----- ---- -------<br>--- --- -- ----- as --- ---- -- --- ---- -- ------ ------<br>--- ----- -- ----,174050.6199998781,174048.41499985196,173566.913,173580.72500000708,173583.377,174066.793,,43,as
screen,html.Screen,1_1_0_1_44,2021-03-29T12:48:25.382Z,,,,,,,,,,,,,,,,53,,,,,,,,,,,,,,401.9969998389133,response,,,,99,,,,,,Space,keypress(Space),,,,,,,,---- -- ----- -- ------ - ------- --- ----------<br>------------- ------ ------ ---- ---- ------- ----- -- ----<br>-------- ------- -- ---------- --- - --- ----- ----- ----<br>---- --- --- ----- --- ---- ---- ------- ----- ---- -------<br>--- --- -- ----- -- you ---- -- --- ---- -- ------ ------<br>--- ----- -- ----,174471.14999988116,174468.78999983892,174050.148,174051.0849999264,174066.793,174483.444,,44,you
screen,html.Screen,1_1_0_1_45,2021-03-29T12:48:25.848Z,,,,,,,,,,,,,,,,53,,,,,,,,,,,,,,451.06100001200684,response,,,,99,,,,,,Space,keypress(Space),,,,,,,,---- -- ----- -- ------ - ------- --- ----------<br>------------- ------ ------ ---- ---- ------- ----- -- ----<br>-------- ------- -- ---------- --- - --- ----- ----- ----<br>---- --- --- ----- --- ---- ---- ------- ----- ---- -------<br>--- --- -- ----- -- --- want -- --- ---- -- ------ ------<br>--- ----- -- ----,174936.7149998434,174934.505000012,174466.695,174471.6250000056,174483.444,174949.915,,45,want
screen,html.Screen,1_1_0_1_46,2021-03-29T12:48:26.323Z,,,,,,,,,,,,,,,,53,,,,,,,,,,,,,,459.80999991766294,response,,,,99,,,,,,Space,keypress(Space),,,,,,,,---- -- ----- -- ------ - ------- --- ----------<br>------------- ------ ------ ---- ---- ------- ----- -- ----<br>-------- ------- -- ---------- --- - --- ----- ----- ----<br>---- --- --- ----- --- ---- ---- ------- ----- ---- -------<br>--- --- -- ----- -- --- ---- to --- ---- -- ------ ------<br>--- ----- -- ----,175412.0249999687,175409.72499991767,174933.301,174937.1950000059,174949.915,175416.351,,46,to
screen,html.Screen,1_1_0_1_47,2021-03-29T12:48:26.713Z,,,,,,,,,,,,,,,,53,,,,,,,,,,,,,,383.81899994405103,response,,,,99,,,,,,Space,keypress(Space),,,,,,,,"---- -- ----- -- ------ - ------- --- ----------<br>------------- ------ ------ ---- ---- ------- ----- -- ----<br>-------- ------- -- ---------- --- - --- ----- ----- ----<br>---- --- --- ----- --- ---- ---- ------- ----- ---- -------<br>--- --- -- ----- -- --- ---- -- be, ---- -- ------ ------<br>--- ----- -- ----",175802.38500004634,175800.16999994405,175399.852,175412.53499989398,175416.351,175816.293,,47,"be,"
screen,html.Screen,1_1_0_1_48,2021-03-29T12:48:27.729Z,,,,,,,,,,,,,,,,53,,,,,,,,,,,,,,999.7069998751977,response,,,,99,,,,,,Space,keypress(Space),,,,,,,,---- -- ----- -- ------ - ------- --- ----------<br>------------- ------ ------ ---- ---- ------- ----- -- ----<br>-------- ------- -- ---------- --- - --- ----- ----- ----<br>---- --- --- ----- --- ---- ---- ------- ----- ---- -------<br>--- --- -- ----- -- --- ---- -- --- even -- ------ ------<br>--- ----- -- ----,176818.4299999848,176815.9999998752,175799.799,175802.88999993354,175816.293,176832.905,,48,even
screen,html.Screen,1_1_0_1_49,2021-03-29T12:48:28.159Z,,,,,,,,,,,,,,,,53,,,,,,,,,,,,,,413.3899999608111,response,,,,99,,,,,,Space,keypress(Space),,,,,,,,---- -- ----- -- ------ - ------- --- ----------<br>------------- ------ ------ ---- ---- ------- ----- -- ----<br>-------- ------- -- ---------- --- - --- ----- ----- ----<br>---- --- --- ----- --- ---- ---- ------- ----- ---- -------<br>--- --- -- ----- -- --- ---- -- --- ---- if ------ ------<br>--- ----- -- ----,177248.5100000631,177246.2949999608,176816.227,176818.89500003308,176832.905,177266.078,,49,if
screen,html.Screen,1_1_0_1_50,2021-03-29T12:48:28.705Z,,,,,,,,,,,,,,,,53,,,,,,,,,,,,,,525.8719999843452,response,,,,99,,,,,,Space,keypress(Space),,,,,,,,---- -- ----- -- ------ - ------- --- ----------<br>------------- ------ ------ ---- ---- ------- ----- -- ----<br>-------- ------- -- ---------- --- - --- ----- ----- ----<br>---- --- --- ----- --- ---- ---- ------- ----- ---- -------<br>--- --- -- ----- -- --- ---- -- --- ---- -- that's ------<br>--- ----- -- ----,177794.13499985822,177791.94999998435,177249.376,177248.97999991663,177266.078,177799.215,,50,that's
screen,html.Screen,1_1_0_1_51,2021-03-29T12:48:29.251Z,,,,,,,,,,,,,,,,53,,,,,,,,,,,,,,538.9599999243801,response,,,,99,,,,,,Space,keypress(Space),,,,,,,,---- -- ----- -- ------ - ------- --- ----------<br>------------- ------ ------ ---- ---- ------- ----- -- ----<br>-------- ------- -- ---------- --- - --- ----- ----- ----<br>---- --- --- ----- --- ---- ---- ------- ----- ---- -------<br>--- --- -- ----- -- --- ---- -- --- ---- -- ------ really<br>--- ----- -- ----,178340.45500005595,178338.17499992438,177782.701,177794.60999998264,177799.215,178349.148,,51,really
screen,html.Screen,1_1_0_1_52,2021-03-29T12:48:29.786Z,,,,,,,,,,,,,,,,53,,,,,,,,,,,,,,523.5269999914453,response,,,,99,,,,,,Space,keypress(Space),,,,,,,,---- -- ----- -- ------ - ------- --- ----------<br>------------- ------ ------ ---- ---- ------- ----- -- ----<br>-------- ------- -- ---------- --- - --- ----- ----- ----<br>---- --- --- ----- --- ---- ---- ------- ----- ---- -------<br>--- --- -- ----- -- --- ---- -- --- ---- -- ------ ------<br>not ----- -- ----,178875.4900000058,178872.67499999143,178332.794,178340.9400000237,178349.148,178882.301,,52,not
screen,html.Screen,1_1_0_1_53,2021-03-29T12:48:30.286Z,,,,,,,,,,,,,,,,53,,,,,,,,,,,,,,491.0039998991124,response,,,,99,,,,,,Space,keypress(Space),,,,,,,,---- -- ----- -- ------ - ------- --- ----------<br>------------- ------ ------ ---- ---- ------- ----- -- ----<br>-------- ------- -- ---------- --- - --- ----- ----- ----<br>---- --- --- ----- --- ---- ---- ------- ----- ---- -------<br>--- --- -- ----- -- --- ---- -- --- ---- -- ------ ------<br>--- close -- ----,179375.5649998784,179373.30499989912,178865.62,178876.0899999179,178882.301,179382.232,,53,close
screen,html.Screen,1_1_0_1_54,2021-03-29T12:48:30.712Z,,,,,,,,,,,,,,,,53,,,,,,,,,,,,,,416.4329998929461,response,,,,99,,,,,,Space,keypress(Space),,,,,,,,---- -- ----- -- ------ - ------- --- ----------<br>------------- ------ ------ ---- ---- ------- ----- -- ----<br>-------- ------- -- ---------- --- - --- ----- ----- ----<br>---- --- --- ----- --- ---- ---- ------- ----- ---- -------<br>--- --- -- ----- -- --- ---- -- --- ---- -- ------ ------<br>--- ----- at ----,179800.99499993958,179798.66499989294,179365.742,179376.13500002772,179382.232,179815.631,,54,at
screen,html.Screen,1_1_0_1_55,2021-03-29T12:48:31.878Z,,,,,,,,,,,,,,,,53,,,,,,,,,,,,,,1149.1140000047744,response,,,,99,,,,,,Space,keypress(Space),,,,,,,,---- -- ----- -- ------ - ------- --- ----------<br>------------- ------ ------ ---- ---- ------- ----- -- ----<br>-------- ------- -- ---------- --- - --- ----- ----- ----<br>---- --- --- ----- --- ---- ---- ------- ----- ---- -------<br>--- --- -- ----- -- --- ---- -- --- ---- -- ------ ------<br>--- ----- -- all.,180967.16500003822,180964.74500000477,179798.991,179801.470000064,179815.631,180998.601,,55,all.
Item 99,flow.Loop,1_1_0_1,2021-03-29T12:48:31.879Z,,,,,,,,,,,,,,,,,,,,,,,,,,,,,,31993.037000004755,completion,,,,,F,,,,,,,,,,silence,,,,,180968.09499990195,180964.74500000477,148888.365,148890.26000001468,148971.708,180998.601,,,
Question 1,html.Screen,1_1_0_2,2021-03-29T12:48:36.888Z,,,,,,,,,,,,,,,,,,,,,,,,,,,false,FALSE,,4975.753999838402,response,,,,99,F,,,,,TRUE,click #choice-1,,,,silence,,,,,185977.44000004604,185974.3549998384,180965.31,180968.5649999883,180998.601,185997.548,,,
Question 2,html.Screen,1_1_0_3,2021-03-29T12:48:43.569Z,,,,,,,,,,,,,,,,,,,,,,,,,,,true,TRUE,,6661.256999897247,response,,,,99,F,,,,,TRUE,click #choice-1,,,,silence,,,,,192661.51500004344,192658.80499989726,185964.339,185977.9550000094,185997.548,192679.534,,,
Item 99,flow.Sequence,1_1_0,2021-03-29T12:48:43.570Z,,,,,,,,,,,,,,,,,,,,,,,,,,,,,,50752.33699989726,completion,,,,,,,,,,,,,,,,,,,,192662.22999989986,192658.80499989726,141873.099,141902.7449998539,141906.468,192679.534,,,
Holding screen,html.Screen,1_1_1_0,2021-03-29T12:48:50.571Z,,,,,,,,,,,,,,,,,,,,,,,,,,,,,,6998.609999999986,timeout,,,,,,,,,,,,,,,,,,,,199663.0700000096,199661.616,192646.403,192662.80000004917,192679.534,199678.144,,,
screen,html.Screen,1_1_1_1_0,2021-03-29T12:48:51.314Z,,,,,,,,,,,,,,,,54,,,,,,,,,,,,,,725.2360000324843,response,,,,100,,,,,,Space,keypress(Space),,,,,,,,At --- ---- --- ------ ----- ------- ---- -- --- ------- --<br>------- ---------- ------ -- ----- -- ----- -- ---- ------<br>--- ----- --- --- ------ -------- ----- --- ------ ----- --<br>----- ----- ---------- --- --- ------ ------ ---- -- ------<br>------- --- ------ ----- --- ---- ------- -- ---- --- --<br>------- ------,200406.14499989897,200403.38000003248,199661.616,199663.69499987923,199678.144,200411.346,,0,At
screen,html.Screen,1_1_1_1_1,2021-03-29T12:48:52.209Z,,,,,,,,,,,,,,,,54,,,,,,,,,,,,,,888.083999897266,response,,,,100,,,,,,Space,keypress(Space),,,,,,,,-- the ---- --- ------ ----- ------- ---- -- --- ------- --<br>------- ---------- ------ -- ----- -- ----- -- ---- ------<br>--- ----- --- --- ------ -------- ----- --- ------ ----- --<br>----- ----- ---------- --- --- ------ ------ ---- -- ------<br>------- --- ------ ----- --- ---- ------- -- ---- --- --<br>------- ------,201301.42999999225,201299.42999989726,200394.833,200406.63499990478,200411.346,201311.388,,1,the
screen,html.Screen,1_1_1_1_2,2021-03-29T12:48:52.664Z,,,,,,,,,,,,,,,,54,,,,,,,,,,,,,,442.4569999410596,response,,,,100,,,,,,Space,keypress(Space),,,,,,,,-- --- time --- ------ ----- ------- ---- -- --- ------- --<br>------- ---------- ------ -- ----- -- ----- -- ---- ------<br>--- ----- --- --- ------ -------- ----- --- ------ ----- --<br>----- ----- ---------- --- --- ------ ------ ---- -- ------<br>------- --- ------ ----- --- ---- ------- -- ---- --- --<br>------- ------,201756.0850000009,201753.84499994107,201294.65,201301.8849999644,201311.388,201761.015,,2,time
screen,html.Screen,1_1_1_1_3,2021-03-29T12:48:53.210Z,,,,,,,,,,,,,,,,54,,,,,,,,,,,,,,539.2000000538537,response,,,,100,,,,,,Space,keypress(Space),,,,,,,,-- --- ---- the ------ ----- ------- ---- -- --- ------- --<br>------- ---------- ------ -- ----- -- ----- -- ---- ------<br>--- ----- --- --- ------ -------- ----- --- ------ ----- --<br>----- ----- ---------- --- --- ------ ------ ---- -- ------<br>------- --- ------ ----- --- ---- ------- -- ---- --- --<br>------- ------,202302.07500001416,202300.21500005387,201744.579,201756.55000004917,201761.015,202310.969,,3,the
screen,html.Screen,1_1_1_1_4,2021-03-29T12:48:53.700Z,,,,,,,,,,,,,,,,54,,,,,,,,,,,,,,478.810999991867,response,,,,100,,,,,,Space,keypress(Space),,,,,,,,-- --- ---- --- French ----- ------- ---- -- --- ------- --<br>------- ---------- ------ -- ----- -- ----- -- ---- ------<br>--- ----- --- --- ------ -------- ----- --- ------ ----- --<br>----- ----- ---------- --- --- ------ ------ ---- -- ------<br>------- --- ------ ----- --- ---- ------- -- ---- --- --<br>------- ------,202791.75999993458,202789.77999999188,202294.461,202302.5299999863,202310.969,202794.164,,4,French
screen,html.Screen,1_1_1_1_5,2021-03-29T12:48:54.150Z,,,,,,,,,,,,,,,,54,,,,,,,,,,,,,,446.0309998457087,response,,,,100,,,,,,Space,keypress(Space),,,,,,,,-- --- ---- --- ------ crown ------- ---- -- --- ------- --<br>------- ---------- ------ -- ----- -- ----- -- ---- ------<br>--- ----- --- --- ------ -------- ----- --- ------ ----- --<br>----- ----- ---------- --- --- ------ ------ ---- -- ------<br>------- --- ------ ----- --- ---- ------- -- ---- --- --<br>------- ------,203242.04499996267,203240.1949998457,202777.7,202792.279999936,202794.164,203264.855,,5,crown
screen,html.Screen,1_1_1_1_6,2021-03-29T12:48:54.616Z,,,,,,,,,,,,,,,,54,,,,,,,,,,,,,,440.76999994411017,response,,,,100,,,,,,Space,keypress(Space),,,,,,,,-- --- ---- --- ------ ----- secured ---- -- --- ------- --<br>------- ---------- ------ -- ----- -- ----- -- ---- ------<br>--- ----- --- --- ------ -------- ----- --- ------ ----- --<br>----- ----- ---------- --- --- ------ ------ ---- -- ------<br>------- --- ------ ----- --- ---- ------- -- ---- --- --<br>------- ------,203707.6999999117,203705.62499994412,203227.613,203242.4999999348,203264.855,203710.654,,6,secured
screen,html.Screen,1_1_1_1_7,2021-03-29T12:48:55.111Z,,,,,,,,,,,,,,,,54,,,,,,,,,,,,,,490.4409999093914,response,,,,100,,,,,,Space,keypress(Space),,,,,,,,-- --- ---- --- ------ ----- ------- much -- --- ------- --<br>------- ---------- ------ -- ----- -- ----- -- ---- ------<br>--- ----- --- --- ------ -------- ----- --- ------ ----- --<br>----- ----- ---------- --- --- ------ ------ ---- -- ------<br>------- --- ------ ----- --- ---- ------- -- ---- --- --<br>------- ------,204203.1399998814,204201.0949999094,203694.182,203708.15499988385,203710.654,204211.297,,7,much
screen,html.Screen,1_1_1_1_8,2021-03-29T12:48:55.561Z,,,,,,,,,,,,,,,,54,,,,,,,,,,,,,,440.24299999166396,response,,,,100,,,,,,Space,keypress(Space),,,,,,,,-- --- ---- --- ------ ----- ------- ---- of --- ------- --<br>------- ---------- ------ -- ----- -- ----- -- ---- ------<br>--- ----- --- --- ------ -------- ----- --- ------ ----- --<br>----- ----- ---------- --- --- ------ ------ ---- -- ------<br>------- --- ------ ----- --- ---- ------- -- ---- --- --<br>------- ------,204653.53500004858,204651.53999999166,204194.082,204203.60499992967,204211.297,204660.491,,8,of
screen,html.Screen,1_1_1_1_9,2021-03-29T12:48:55.952Z,,,,,,,,,,,,,,,,54,,,,,,,,,,,,,,381.40400003120885,response,,,,100,,,,,,Space,keypress(Space),,,,,,,,-- --- ---- --- ------ ----- ------- ---- -- its ------- --<br>------- ---------- ------ -- ----- -- ----- -- ---- ------<br>--- ----- --- --- ------ -------- ----- --- ------ ----- --<br>----- ----- ---------- --- --- ------ ------ ---- -- ------<br>------- --- ------ ----- --- ---- ------- -- ---- --- --<br>------- ------,205043.90499996953,205041.89500003122,204644.068,204653.99500005879,204660.491,205060.362,,9,its
screen,html.Screen,1_1_1_1_10,2021-03-29T12:48:56.408Z,,,,,,,,,,,,,,,,54,,,,,,,,,,,,,,436.99799992117914,response,,,,100,,,,,,Space,keypress(Space),,,,,,,,-- --- ---- --- ------ ----- ------- ---- -- --- revenue --<br>------- ---------- ------ -- ----- -- ----- -- ---- ------<br>--- ----- --- --- ------ -------- ----- --- ------ ----- --<br>----- ----- ---------- --- --- ------ ------ ---- -- ------<br>------- --- ------ ----- --- ---- ------- -- ---- --- --<br>------- ------,205499.8299998697,205497.35999992117,205043.915,205047.1850000322,205060.362,205510.296,,10,revenue
screen,html.Screen,1_1_1_1_11,2021-03-29T12:48:56.948Z,,,,,,,,,,,,,,,,54,,,,,,,,,,,,,,527.7989999671408,response,,,,100,,,,,,Space,keypress(Space),,,,,,,,-- --- ---- --- ------ ----- ------- ---- -- --- ------- by<br>------- ---------- ------ -- ----- -- ----- -- ---- ------<br>--- ----- --- --- ------ -------- ----- --- ------ ----- --<br>----- ----- ---------- --- --- ------ ------ ---- -- ------<br>------- --- ------ ----- --- ---- ------- -- ---- --- --<br>------- ------,206040.2999999933,206038.09499996714,205493.805,205500.4300000146,205510.296,206043.514,,11,by
screen,html.Screen,1_1_1_1_12,2021-03-29T12:48:57.598Z,,,,,,,,,,,,,,,,54,,,,,,,,,,,,,,644.9609999735549,response,,,,100,,,,,,Space,keypress(Space),,,,,,,,-- --- ---- --- ------ ----- ------- ---- -- --- ------- --<br>issuing ---------- ------ -- ----- -- ----- -- ---- ------<br>--- ----- --- --- ------ -------- ----- --- ------ ----- --<br>----- ----- ---------- --- --- ------ ------ ---- -- ------<br>------- --- ------ ----- --- ---- ------- -- ---- --- --<br>------- ------,206690.44999987818,206688.47499997355,206027.05,206040.79999984242,206043.514,206693.38,,12,issuing
screen,html.Screen,1_1_1_1_13,2021-03-29T12:48:58.089Z,,,,,,,,,,,,,,,,54,,,,,,,,,,,,,,485.4849999070866,response,,,,100,,,,,,Space,keypress(Space),,,,,,,,-- --- ---- --- ------ ----- ------- ---- -- --- ------- --<br>------- government ------ -- ----- -- ----- -- ---- ------<br>--- ----- --- --- ------ -------- ----- --- ------ ----- --<br>----- ----- ---------- --- --- ------ ------ ---- -- ------<br>------- --- ------ ----- --- ---- ------- -- ---- --- --<br>------- ------,207181.03499989957,207178.8649999071,206676.911,206691.0500000231,206693.38,207193.437,,13,government
screen,html.Screen,1_1_1_1_14,2021-03-29T12:48:58.675Z,,,,,,,,,,,,,,,,54,,,,,,,,,,,,,,570.962999985466,response,,,,100,,,,,,Space,keypress(Space),,,,,,,,-- --- ---- --- ------ ----- ------- ---- -- --- ------- --<br>------- ---------- bonds. -- ----- -- ----- -- ---- ------<br>--- ----- --- --- ------ -------- ----- --- ------ ----- --<br>----- ----- ---------- --- --- ------ ------ ---- -- ------<br>------- --- ------ ----- --- ---- ------- -- ---- --- --<br>------- ------,207766.73999987543,207764.39999998547,207176.804,207181.49499990977,207193.437,207776.515,,14,bonds.
screen,html.Screen,1_1_1_1_15,2021-03-29T12:48:59.571Z,,,,,,,,,,,,,,,,54,,,,,,,,,,,,,,884.115000056685,response,,,,100,,,,,,Space,keypress(Space),,,,,,,,-- --- ---- --- ------ ----- ------- ---- -- --- ------- --<br>------- ---------- ------ In ----- -- ----- -- ---- ------<br>--- ----- --- --- ------ -------- ----- --- ------ ----- --<br>----- ----- ---------- --- --- ------ ------ ---- -- ------<br>------- --- ------ ----- --- ---- ------- -- ---- --- --<br>------- ------,208662.97499998473,208660.6300000567,207759.893,207767.19000004232,207776.515,208676.383,,15,In
screen,html.Screen,1_1_1_1_16,2021-03-29T12:49:01.002Z,,,,,,,,,,,,,,,,54,,,,,,,,,,,,,,1415.276999918191,response,,,,100,,,,,,Space,keypress(Space),,,,,,,,"-- --- ---- --- ------ ----- ------- ---- -- --- ------- --<br>------- ---------- ------ -- 1727, -- ----- -- ---- ------<br>--- ----- --- --- ------ -------- ----- --- ------ ----- --<br>----- ----- ---------- --- --- ------ ------ ---- -- ------<br>------- --- ------ ----- --- ---- ------- -- ---- --- --<br>------- ------",210093.86499994434,210091.6599999182,208659.844,208663.41999988072,208676.383,210109.538,,16,"1727,"
screen,html.Screen,1_1_1_1_17,2021-03-29T12:49:01.508Z,,,,,,,,,,,,,,,,54,,,,,,,,,,,,,,488.11699993227376,response,,,,100,,,,,,Space,keypress(Space),,,,,,,,-- --- ---- --- ------ ----- ------- ---- -- --- ------- --<br>------- ---------- ------ -- ----- in ----- -- ---- ------<br>--- ----- --- --- ------ -------- ----- --- ------ ----- --<br>----- ----- ---------- --- --- ------ ------ ---- -- ------<br>------- --- ------ ----- --- ---- ------- -- ---- --- --<br>------- ------,210599.79499992914,210597.65499993227,210092.878,210094.31999991648,210109.538,210609.56,,17,in
screen,html.Screen,1_1_1_1_18,2021-03-29T12:49:02.048Z,,,,,,,,,,,,,,,,54,,,,,,,,,,,,,,528.1000000076019,response,,,,100,,,,,,Space,keypress(Space),,,,,,,,-- --- ---- --- ------ ----- ------- ---- -- --- ------- --<br>------- ---------- ------ -- ----- -- order -- ---- ------<br>--- ----- --- --- ------ -------- ----- --- ------ ----- --<br>----- ----- ---------- --- --- ------ ------ ---- -- ------<br>------- --- ------ ----- --- ---- ------- -- ---- --- --<br>------- ------,211139.92500002496,211137.6600000076,210592.766,210600.2449998632,210609.56,211142.483,,18,order
screen,html.Screen,1_1_1_1_19,2021-03-29T12:49:02.473Z,,,,,,,,,,,,,,,,54,,,,,,,,,,,,,,420.5319999633357,response,,,,100,,,,,,Space,keypress(Space),,,,,,,,-- --- ---- --- ------ ----- ------- ---- -- --- ------- --<br>------- ---------- ------ -- ----- -- ----- to ---- ------<br>--- ----- --- --- ------ -------- ----- --- ------ ----- --<br>----- ----- ---------- --- --- ------ ------ ---- -- ------<br>------- --- ------ ----- --- ---- ------- -- ---- --- --<br>------- ------,211565.3549998533,211563.01499996334,211126.012,211140.57999989018,211142.483,211575.851,,19,to
screen,html.Screen,1_1_1_1_20,2021-03-29T12:49:02.879Z,,,,,,,,,,,,,,,,54,,,,,,,,,,,,,,392.539000052755,response,,,,100,,,,,,Space,keypress(Space),,,,,,,,-- --- ---- --- ------ ----- ------- ---- -- --- ------- --<br>------- ---------- ------ -- ----- -- ----- -- save ------<br>--- ----- --- --- ------ -------- ----- --- ------ ----- --<br>----- ----- ---------- --- --- ------ ------ ---- -- ------<br>------- --- ------ ----- --- ---- ------- -- ---- --- --<br>------- ------,211970.6399999559,211968.39000005275,211559.266,211565.79999998212,211575.851,211975.666,,20,save
screen,html.Screen,1_1_1_1_21,2021-03-29T12:49:03.349Z,,,,,,,,,,,,,,,,54,,,,,,,,,,,,,,463.23399995008367,response,,,,100,,,,,,Space,keypress(Space),,,,,,,,"-- --- ---- --- ------ ----- ------- ---- -- --- ------- --<br>------- ---------- ------ -- ----- -- ----- -- ---- money,<br>--- ----- --- --- ------ -------- ----- --- ------ ----- --<br>----- ----- ---------- --- --- ------ ------ ---- -- ------<br>------- --- ------ ----- --- ---- ------- -- ---- --- --<br>------- ------",212441.06999994256,212438.89999995008,211959.181,211971.09499992803,211975.666,212475.73,,21,"money,"
screen,html.Screen,1_1_1_1_22,2021-03-29T12:49:04.030Z,,,,,,,,,,,,,,,,54,,,,,,,,,,,,,,643.7199998818978,response,,,,100,,,,,,Space,keypress(Space),,,,,,,,-- --- ---- --- ------ ----- ------- ---- -- --- ------- --<br>------- ---------- ------ -- ----- -- ----- -- ---- ------<br>the ----- --- --- ------ -------- ----- --- ------ ----- --<br>----- ----- ---------- --- --- ------ ------ ---- -- ------<br>------- --- ------ ----- --- ---- ------- -- ---- --- --<br>------- ------,213121.70000001788,213119.4499998819,212459.07,212441.52999995276,212475.73,213125.421,,22,the
screen,html.Screen,1_1_1_1_23,2021-03-29T12:49:04.505Z,,,,,,,,,,,,,,,,54,,,,,,,,,,,,,,469.42899999403744,response,,,,100,,,,,,Space,keypress(Space),,,,,,,,-- --- ---- --- ------ ----- ------- ---- -- --- ------- --<br>------- ---------- ------ -- ----- -- ----- -- ---- ------<br>--- state --- --- ------ -------- ----- --- ------ ----- --<br>----- ----- ---------- --- --- ------ ------ ---- -- ------<br>------- --- ------ ----- --- ---- ------- -- ---- --- --<br>------- ------,213597.09000005387,213594.84999999404,213108.915,213122.2800000105,213125.421,213608.712,,23,state
screen,html.Screen,1_1_1_1_24,2021-03-29T12:49:04.941Z,,,,,,,,,,,,,,,,54,,,,,,,,,,,,,,421.6629998565768,response,,,,100,,,,,,Space,keypress(Space),,,,,,,,-- --- ---- --- ------ ----- ------- ---- -- --- ------- --<br>------- ---------- ------ -- ----- -- ----- -- ---- ------<br>--- ----- cut --- ------ -------- ----- --- ------ ----- --<br>----- ----- ---------- --- --- ------ ------ ---- -- ------<br>------- --- ------ ----- --- ---- ------- -- ---- --- --<br>------- ------,214032.644999912,214030.37499985658,213592.186,213597.545000026,213608.712,214041.918,,24,cut
screen,html.Screen,1_1_1_1_25,2021-03-29T12:49:05.421Z,,,,,,,,,,,,,,,,54,,,,,,,,,,,,,,469.18200000334764,response,,,,100,,,,,,Space,keypress(Space),,,,,,,,-- --- ---- --- ------ ----- ------- ---- -- --- ------- --<br>------- ---------- ------ -- ----- -- ----- -- ---- ------<br>--- ----- --- the ------ -------- ----- --- ------ ----- --<br>----- ----- ---------- --- --- ------ ------ ---- -- ------<br>------- --- ------ ----- --- ---- ------- -- ---- --- --<br>------- ------,214513.26999999583,214511.10000000335,214025.433,214033.10499992222,214041.918,214525.27,,25,the
screen,html.Screen,1_1_1_1_26,2021-03-29T12:49:05.846Z,,,,,,,,,,,,,,,,54,,,,,,,,,,,,,,410.8250000118569,response,,,,100,,,,,,Space,keypress(Space),,,,,,,,-- --- ---- --- ------ ----- ------- ---- -- --- ------- --<br>------- ---------- ------ -- ----- -- ----- -- ---- ------<br>--- ----- --- --- bonds' -------- ----- --- ------ ----- --<br>----- ----- ---------- --- --- ------ ------ ---- -- ------<br>------- --- ------ ----- --- ---- ------- -- ---- --- --<br>------- ------,214938.300000038,214936.09500001185,214508.672,214513.7199999299,214525.27,214941.724,,26,bonds'
screen,html.Screen,1_1_1_1_27,2021-03-29T12:49:06.327Z,,,,,,,,,,,,,,,,54,,,,,,,,,,,,,,474.9209999902523,response,,,,100,,,,,,Space,keypress(Space),,,,,,,,-- --- ---- --- ------ ----- ------- ---- -- --- ------- --<br>------- ---------- ------ -- ----- -- ----- -- ---- ------<br>--- ----- --- --- ------ interest ----- --- ------ ----- --<br>----- ----- ---------- --- --- ------ ------ ---- -- ------<br>------- --- ------ ----- --- ---- ------- -- ---- --- --<br>------- ------,215418.8500000164,215416.64499999024,214925.313,214938.74999997206,214941.724,215424.982,,27,interest
screen,html.Screen,1_1_1_1_28,2021-03-29T12:49:06.912Z,,,,,,,,,,,,,,,,54,,,,,,,,,,,,,,577.1529999588092,response,,,,100,,,,,,Space,keypress(Space),,,,,,,,-- --- ---- --- ------ ----- ------- ---- -- --- ------- --<br>------- ---------- ------ -- ----- -- ----- -- ---- ------<br>--- ----- --- --- ------ -------- rate. --- ------ ----- --<br>----- ----- ---------- --- --- ------ ------ ---- -- ------<br>------- --- ------ ----- --- ---- ------- -- ---- --- --<br>------- ------,216004.30499995127,216002.1349999588,215408.291,215419.26999995485,215424.982,216008.183,,28,rate.
screen,html.Screen,1_1_1_1_29,2021-03-29T12:49:07.608Z,,,,,,,,,,,,,,,,54,,,,,,,,,,,,,,689.4969999829482,response,,,,100,,,,,,Space,keypress(Space),,,,,,,,-- --- ---- --- ------ ----- ------- ---- -- --- ------- --<br>------- ---------- ------ -- ----- -- ----- -- ---- ------<br>--- ----- --- --- ------ -------- ----- The ------ ----- --<br>----- ----- ---------- --- --- ------ ------ ---- -- ------<br>------- --- ------ ----- --- ---- ------- -- ---- --- --<br>------- ------,216699.83999989927,216697.67999998294,215991.698,216004.72499988973,216008.183,216708.668,,29,The
screen,html.Screen,1_1_1_1_30,2021-03-29T12:49:08.048Z,,,,,,,,,,,,,,,,54,,,,,,,,,,,,,,429.46199986111606,response,,,,100,,,,,,Space,keypress(Space),,,,,,,,-- --- ---- --- ------ ----- ------- ---- -- --- ------- --<br>------- ---------- ------ -- ----- -- ----- -- ---- ------<br>--- ----- --- --- ------ -------- ----- --- market ----- --<br>----- ----- ---------- --- --- ------ ------ ---- -- ------<br>------- --- ------ ----- --- ---- ------- -- ---- --- --<br>------- ------,217140.36499988288,217138.12999986112,216691.56,216700.2499999944,216708.668,217174.778,,30,market
screen,html.Screen,1_1_1_1_31,2021-03-29T12:49:08.474Z,,,,,,,,,,,,,,,,54,,,,,,,,,,,,,,388.7569999647676,response,,,,100,,,,,,Space,keypress(Space),,,,,,,,-- --- ---- --- ------ ----- ------- ---- -- --- ------- --<br>------- ---------- ------ -- ----- -- ----- -- ---- ------<br>--- ----- --- --- ------ -------- ----- --- ------ value --<br>----- ----- ---------- --- --- ------ ------ ---- -- ------<br>------- --- ------ ----- --- ---- ------- -- ---- --- --<br>------- ------,217565.7399999909,217563.53499996476,217158.125,217140.90500003658,217174.778,217574.552,,31,value
screen,html.Screen,1_1_1_1_32,2021-03-29T12:49:09.006Z,,,,,,,,,,,,,,,,54,,,,,,,,,,,,,,521.1529999851773,response,,,,100,,,,,,Space,keypress(Space),,,,,,,,-- --- ---- --- ------ ----- ------- ---- -- --- ------- --<br>------- ---------- ------ -- ----- -- ----- -- ---- ------<br>--- ----- --- --- ------ -------- ----- --- ------ ----- of<br>----- ----- ---------- --- --- ------ ------ ---- -- ------<br>------- --- ------ ----- --- ---- ------- -- ---- --- --<br>------- ------,218098.05499995127,218095.70499998517,217558.034,217566.16499996744,217574.552,218107.855,,32,of
screen,html.Screen,1_1_1_1_33,2021-03-29T12:49:09.495Z,,,,,,,,,,,,,,,,54,,,,,,,,,,,,,,476.6650000330701,response,,,,100,,,,,,Space,keypress(Space),,,,,,,,-- --- ---- --- ------ ----- ------- ---- -- --- ------- --<br>------- ---------- ------ -- ----- -- ----- -- ---- ------<br>--- ----- --- --- ------ -------- ----- --- ------ ----- --<br>these ----- ---------- --- --- ------ ------ ---- -- ------<br>------- --- ------ ----- --- ---- ------- -- ---- --- --<br>------- ------,218586.70499990694,218584.52000003308,218091.28,218098.48499996588,218107.855,218590.994,,33,these
screen,html.Screen,1_1_1_1_34,2021-03-29T12:49:09.935Z,,,,,,,,,,,,,,,,54,,,,,,,,,,,,,,433.8060000137775,response,,,,100,,,,,,Space,keypress(Space),,,,,,,,-- --- ---- --- ------ ----- ------- ---- -- --- ------- --<br>------- ---------- ------ -- ----- -- ----- -- ---- ------<br>--- ----- --- --- ------ -------- ----- --- ------ ----- --<br>----- bonds ---------- --- --- ------ ------ ---- -- ------<br>------- --- ------ ----- --- ---- ------- -- ---- --- --<br>------- ------,219027.01999992132,219024.80000001378,218574.508,218587.12000004016,218590.994,219041.065,,34,bonds
screen,html.Screen,1_1_1_1_35,2021-03-29T12:49:10.385Z,,,,,,,,,,,,,,,,54,,,,,,,,,,,,,,434.02000004186993,response,,,,100,,,,,,Space,keypress(Space),,,,,,,,"-- --- ---- --- ------ ----- ------- ---- -- --- ------- --<br>------- ---------- ------ -- ----- -- ----- -- ---- ------<br>--- ----- --- --- ------ -------- ----- --- ------ ----- --<br>----- ----- plummeted, --- --- ------ ------ ---- -- ------<br>------- --- ------ ----- --- ---- ------- -- ---- --- --<br>------- ------",219477.2599998396,219475.08500004187,219024.744,219027.44499989785,219041.065,219490.825,,35,"plummeted,"
screen,html.Screen,1_1_1_1_36,2021-03-29T12:49:10.901Z,,,,,,,,,,,,,,,,54,,,,,,,,,,,,,,499.83999993203906,response,,,,100,,,,,,Space,keypress(Space),,,,,,,,-- --- ---- --- ------ ----- ------- ---- -- --- ------- --<br>------- ---------- ------ -- ----- -- ----- -- ---- ------<br>--- ----- --- --- ------ -------- ----- --- ------ ----- --<br>----- ----- ---------- and --- ------ ------ ---- -- ------<br>------- --- ------ ----- --- ---- ------- -- ---- --- --<br>------- ------,219992.83499992453,219990.66499993205,219474.304,219477.68500004895,219490.825,220007.543,,36,and
screen,html.Screen,1_1_1_1_37,2021-03-29T12:49:11.316Z,,,,,,,,,,,,,,,,54,,,,,,,,,,,,,,398.51199991215253,response,,,,100,,,,,,Space,keypress(Space),,,,,,,,-- --- ---- --- ------ ----- ------- ---- -- --- ------- --<br>------- ---------- ------ -- ----- -- ----- -- ---- ------<br>--- ----- --- --- ------ -------- ----- --- ------ ----- --<br>----- ----- ---------- --- the ------ ------ ---- -- ------<br>------- --- ------ ----- --- ---- ------- -- ---- --- --<br>------- ------,220408.24500005692,220406.05499991216,219990.871,219993.25499986298,220007.543,220424.125,,37,the
screen,html.Screen,1_1_1_1_38,2021-03-29T12:49:11.823Z,,,,,,,,,,,,,,,,54,,,,,,,,,,,,,,487.9299999643117,response,,,,100,,,,,,Space,keypress(Space),,,,,,,,-- --- ---- --- ------ ----- ------- ---- -- --- ------- --<br>------- ---------- ------ -- ----- -- ----- -- ---- ------<br>--- ----- --- --- ------ -------- ----- --- ------ ----- --<br>----- ----- ---------- --- --- market ------ ---- -- ------<br>------- --- ------ ----- --- ---- ------- -- ---- --- --<br>------- ------,220915.12000001967,220912.0549999643,220407.458,220408.66499999538,220424.125,220923.856,,38,market
screen,html.Screen,1_1_1_1_39,2021-03-29T12:49:12.253Z,,,,,,,,,,,,,,,,54,,,,,,,,,,,,,,419.1789999107423,response,,,,100,,,,,,Space,keypress(Space),,,,,,,,-- --- ---- --- ------ ----- ------- ---- -- --- ------- --<br>------- ---------- ------ -- ----- -- ----- -- ---- ------<br>--- ----- --- --- ------ -------- ----- --- ------ ----- --<br>----- ----- ---------- --- --- ------ became ---- -- ------<br>------- --- ------ ----- --- ---- ------- -- ---- --- --<br>------- ------,221345.17999994569,221343.03499991074,220907.345,220915.53499992006,220923.856,221357.115,,39,became
screen,html.Screen,1_1_1_1_40,2021-03-29T12:49:12.702Z,,,,,,,,,,,,,,,,54,,,,,,,,,,,,,,435.2549999228213,response,,,,100,,,,,,Space,keypress(Space),,,,,,,,-- --- ---- --- ------ ----- ------- ---- -- --- ------- --<br>------- ---------- ------ -- ----- -- ----- -- ---- ------<br>--- ----- --- --- ------ -------- ----- --- ------ ----- --<br>----- ----- ---------- --- --- ------ ------ wary -- ------<br>------- --- ------ ----- --- ---- ------- -- ---- --- --<br>------- ------,221794.5699999109,221792.3699999228,221340.479,221345.60499992222,221357.115,221807.002,,40,wary
screen,html.Screen,1_1_1_1_41,2021-03-29T12:49:13.098Z,,,,,,,,,,,,,,,,54,,,,,,,,,,,,,,380.7480000409705,response,,,,100,,,,,,Space,keypress(Space),,,,,,,,-- --- ---- --- ------ ----- ------- ---- -- --- ------- --<br>------- ---------- ------ -- ----- -- ----- -- ---- ------<br>--- ----- --- --- ------ -------- ----- --- ------ ----- --<br>----- ----- ---------- --- --- ------ ------ ---- of ------<br>------- --- ------ ----- --- ---- ------- -- ---- --- --<br>------- ------,222189.95999987237,222187.75000004098,221790.539,221794.9850000441,221807.002,222206.997,,41,of
screen,html.Screen,1_1_1_1_42,2021-03-29T12:49:13.523Z,,,,,,,,,,,,,,,,54,,,,,,,,,,,,,,406.3029998517304,response,,,,100,,,,,,Space,keypress(Space),,,,,,,,-- --- ---- --- ------ ----- ------- ---- -- --- ------- --<br>------- ---------- ------ -- ----- -- ----- -- ---- ------<br>--- ----- --- --- ------ -------- ----- --- ------ ----- --<br>----- ----- ---------- --- --- ------ ------ ---- -- French<br>------- --- ------ ----- --- ---- ------- -- ---- --- --<br>------- ------,222615.50999991596,222613.29999985173,222190.457,222190.54499990307,222206.997,222623.496,,42,French
screen,html.Screen,1_1_1_1_43,2021-03-29T12:49:14.474Z,,,,,,,,,,,,,,,,54,,,,,,,,,,,,,,940.6539999910456,response,,,,100,,,,,,Space,keypress(Space),,,,,,,,-- --- ---- --- ------ ----- ------- ---- -- --- ------- --<br>------- ---------- ------ -- ----- -- ----- -- ---- ------<br>--- ----- --- --- ------ -------- ----- --- ------ ----- --<br>----- ----- ---------- --- --- ------ ------ ---- -- ------<br>credit. --- ------ ----- --- ---- ------- -- ---- --- --<br>------- ------,223566.33499986492,223564.14999999106,222607.017,222615.94499996863,222623.496,223573.297,,43,credit.
screen,html.Screen,1_1_1_1_44,2021-03-29T12:49:14.950Z,,,,,,,,,,,,,,,,54,,,,,,,,,,,,,,466.3529999333259,response,,,,100,,,,,,Space,keypress(Space),,,,,,,,-- --- ---- --- ------ ----- ------- ---- -- --- ------- --<br>------- ---------- ------ -- ----- -- ----- -- ---- ------<br>--- ----- --- --- ------ -------- ----- --- ------ ----- --<br>----- ----- ---------- --- --- ------ ------ ---- -- ------<br>------- The ------ ----- --- ---- ------- -- ---- --- --<br>------- ------,224041.83000000194,224039.64999993332,223556.838,223566.8949999381,223573.297,224056.724,,44,The
screen,html.Screen,1_1_1_1_45,2021-03-29T12:49:15.465Z,,,,,,,,,,,,,,,,54,,,,,,,,,,,,,,498.35599984548753,response,,,,100,,,,,,Space,keypress(Space),,,,,,,,-- --- ---- --- ------ ----- ------- ---- -- --- ------- --<br>------- ---------- ------ -- ----- -- ----- -- ---- ------<br>--- ----- --- --- ------ -------- ----- --- ------ ----- --<br>----- ----- ---------- --- --- ------ ------ ---- -- ------<br>------- --- French ----- --- ---- ------- -- ---- --- --<br>------- ------,224557.39500001073,224555.07999984547,224040.134,224042.23999986425,224056.724,224573.197,,45,French
screen,html.Screen,1_1_1_1_46,2021-03-29T12:49:15.966Z,,,,,,,,,,,,,,,,54,,,,,,,,,,,,,,482.3529999318416,response,,,,100,,,,,,Space,keypress(Space),,,,,,,,-- --- ---- --- ------ ----- ------- ---- -- --- ------- --<br>------- ---------- ------ -- ----- -- ----- -- ---- ------<br>--- ----- --- --- ------ -------- ----- --- ------ ----- --<br>----- ----- ---------- --- --- ------ ------ ---- -- ------<br>------- --- ------ state --- ---- ------- -- ---- --- --<br>------- ------,225057.8149999492,225055.54999993183,224556.617,224557.8300000634,224573.197,225073.19,,46,state
screen,html.Screen,1_1_1_1_47,2021-03-29T12:49:16.406Z,,,,,,,,,,,,,,,,54,,,,,,,,,,,,,,422.82999996229773,response,,,,100,,,,,,Space,keypress(Space),,,,,,,,-- --- ---- --- ------ ----- ------- ---- -- --- ------- --<br>------- ---------- ------ -- ----- -- ----- -- ---- ------<br>--- ----- --- --- ------ -------- ----- --- ------ ----- --<br>----- ----- ---------- --- --- ------ ------ ---- -- ------<br>------- --- ------ ----- was ---- ------- -- ---- --- --<br>------- ------,225498.17999987863,225496.0199999623,225056.511,225058.22999984957,225073.19,225506.587,,47,was
screen,html.Screen,1_1_1_1_48,2021-03-29T12:49:16.937Z,,,,,,,,,,,,,,,,54,,,,,,,,,,,,,,519.8779998862301,response,,,,100,,,,,,Space,keypress(Space),,,,,,,,-- --- ---- --- ------ ----- ------- ---- -- --- ------- --<br>------- ---------- ------ -- ----- -- ----- -- ---- ------<br>--- ----- --- --- ------ -------- ----- --- ------ ----- --<br>----- ----- ---------- --- --- ------ ------ ---- -- ------<br>------- --- ------ ----- --- left ------- -- ---- --- --<br>------- ------,226028.6649998743,226026.46499988623,225489.766,225498.58999997377,225506.587,226039.47,,48,left
screen,html.Screen,1_1_1_1_49,2021-03-29T12:49:17.667Z,,,,,,,,,,,,,,,,54,,,,,,,,,,,,,,717.6749999231833,response,,,,100,,,,,,Space,keypress(Space),,,,,,,,-- --- ---- --- ------ ----- ------- ---- -- --- ------- --<br>------- ---------- ------ -- ----- -- ----- -- ---- ------<br>--- ----- --- --- ------ -------- ----- --- ------ ----- --<br>----- ----- ---------- --- --- ------ ------ ---- -- ------<br>------- --- ------ ----- --- ---- without -- ---- --- --<br>------- ------,226759.36500006355,226757.14499992318,226023.021,226029.08999985084,226039.47,226772.837,,49,without
screen,html.Screen,1_1_1_1_50,2021-03-29T12:49:18.488Z,,,,,,,,,,,,,,,,54,,,,,,,,,,,,,,805.1430000600521,response,,,,100,,,,,,Space,keypress(Space),,,,,,,,-- --- ---- --- ------ ----- ------- ---- -- --- ------- --<br>------- ---------- ------ -- ----- -- ----- -- ---- ------<br>--- ----- --- --- ------ -------- ----- --- ------ ----- --<br>----- ----- ---------- --- --- ------ ------ ---- -- ------<br>------- --- ------ ----- --- ---- ------- an ---- --- --<br>------- ------,227580.13999997638,227577.98000006005,226756.198,226759.83499991708,226772.837,227589.2,,50,an
screen,html.Screen,1_1_1_1_51,2021-03-29T12:49:19.104Z,,,,,,,,,,,,,,,,54,,,,,,,,,,,,,,604.2599999803933,response,,,,100,,,,,,Space,keypress(Space),,,,,,,,-- --- ---- --- ------ ----- ------- ---- -- --- ------- --<br>------- ---------- ------ -- ----- -- ----- -- ---- ------<br>--- ----- --- --- ------ -------- ----- --- ------ ----- --<br>----- ----- ---------- --- --- ------ ------ ---- -- ------<br>------- --- ------ ----- --- ---- ------- -- easy --- --<br>------- ------,228195.66500000656,228193.4599999804,227572.666,227580.55999991484,227589.2,228205.741,,51,easy
screen,html.Screen,1_1_1_1_52,2021-03-29T12:49:19.689Z,,,,,,,,,,,,,,,,54,,,,,,,,,,,,,,573.3239998932986,response,,,,100,,,,,,Space,keypress(Space),,,,,,,,-- --- ---- --- ------ ----- ------- ---- -- --- ------- --<br>------- ---------- ------ -- ----- -- ----- -- ---- ------<br>--- ----- --- --- ------ -------- ----- --- ------ ----- --<br>----- ----- ---------- --- --- ------ ------ ---- -- ------<br>------- --- ------ ----- --- ---- ------- -- ---- way --<br>------- ------,228781.26999991946,228779.0649998933,228189.247,228196.08499994501,228205.741,228789.154,,52,way
screen,html.Screen,1_1_1_1_53,2021-03-29T12:49:20.515Z,,,,,,,,,,,,,,,,54,,,,,,,,,,,,,,815.6459998554492,response,,,,100,,,,,,Space,keypress(Space),,,,,,,,-- --- ---- --- ------ ----- ------- ---- -- --- ------- --<br>------- ---------- ------ -- ----- -- ----- -- ---- ------<br>--- ----- --- --- ------ -------- ----- --- ------ ----- --<br>----- ----- ---------- --- --- ------ ------ ---- -- ------<br>------- --- ------ ----- --- ---- ------- -- ---- --- of<br>------- ------,229606.974999886,229604.79999985546,228772.461,228781.694999896,228789.154,229622.273,,53,of
screen,html.Screen,1_1_1_1_54,2021-03-29T12:49:21.011Z,,,,,,,,,,,,,,,,54,,,,,,,,,,,,,,478.0570000447915,response,,,,100,,,,,,Space,keypress(Space),,,,,,,,-- --- ---- --- ------ ----- ------- ---- -- --- ------- --<br>------- ---------- ------ -- ----- -- ----- -- ---- ------<br>--- ----- --- --- ------ -------- ----- --- ------ ----- --<br>----- ----- ---------- --- --- ------ ------ ---- -- ------<br>------- --- ------ ----- --- ---- ------- -- ---- --- --<br>raising ------,230102.75499988347,230100.33000004478,229605.62,229607.3950000573,229622.273,230105.33,,54,raising
screen,html.Screen,1_1_1_1_55,2021-03-29T12:49:21.446Z,,,,,,,,,,,,,,,,54,,,,,,,,,,,,,,430.46499991611927,response,,,,100,,,,,,Space,keypress(Space),,,,,,,,-- --- ---- --- ------ ----- ------- ---- -- --- ------- --<br>------- ---------- ------ -- ----- -- ----- -- ---- ------<br>--- ----- --- --- ------ -------- ----- --- ------ ----- --<br>----- ----- ---------- --- --- ------ ------ ---- -- ------<br>------- --- ------ ----- --- ---- ------- -- ---- --- --<br>------- money.,230537.93999995105,230535.7949999161,230088.829,230103.18499989808,230105.33,230555.277,,55,money.
Item 100,flow.Loop,1_1_1_1,2021-03-29T12:49:21.447Z,,,,,,,,,,,,,,,,,,,,,,,,,,,,,,30857.650999916106,completion,,,,,F,,,,,,,,,,silence,,,,,230538.6699999217,230535.7949999161,199661.616,199663.50999986753,199678.144,230555.277,,,
Question 1,html.Screen,1_1_1_2,2021-03-29T12:49:24.215Z,,,,,,,,,,,,,,,,,,,,,,,,,,,true,TRUE,,2749.4930000461172,response,,,,100,F,,,,,TRUE,click #choice-1,,,,silence,,,,,233307.53999995068,233304.77000004612,230538.777,230539.01499998756,230555.277,233322.625,,,
Question 2,html.Screen,1_1_1_3,2021-03-29T12:49:27.647Z,,,,,,,,,,,,,,,,,,,,,,,,,,,true,FALSE,,3413.454999944195,response,,,,100,F,,,,,FALSE,click #choice-2,,,,silence,,,,,236739.60500000976,236736.0799999442,233304.871,233307.98499984667,233322.625,236753.992,,,
Item 100,flow.Sequence,1_1_1,2021-03-29T12:49:27.648Z,,,,,,,,,,,,,,,,,,,,,,,,,,,,,,44056.54599994418,completion,,,,,,,,,,,,,,,,,,,,236740.4399998486,236736.0799999442,192646.403,192662.61999984272,192679.534,236753.992,,,
End of Practice,html.Page,1_1_2,2021-03-29T12:49:30.947Z,,,,,,,,,,,,,,,,,,,,,,,,,,,,,,3282.518000005366,form submission,,,,,,,,,,,,,,,,,,,,240038.69499987923,240036.51000000536,236737.517,236740.809999872,236753.992,240036.661,,,
Practice,flow.Sequence,1_1,2021-03-29T12:49:30.947Z,,,,,,,,,,,,,,,,,,,,,,,,,,,,,,98130.04200000537,completion,,,,,,,,,,,,,,,,,,,,240039.39999989234,240036.51000000536,141873.099,141902.5749999564,141906.468,240036.661,,,
Trap_instruction,html.Page,1_2_0,2021-03-29T12:49:34.679Z,,,,,,,,,,,,,,,,,,,,,,,,,,,,,,3732.168999957241,form submission,,,,,,,,,,,,,,,,,,,,243771.45999995992,243768.82999995723,240020.871,240039.89499993622,240036.661,243852.554,,,
trap_trial,html.Screen,1_2_1,2021-03-29T12:49:38.553Z,,,,,,,,,,,,,,,,,,,,,,,,,,,true,1,,3782.6360000590794,response,,,,,,,,,,1,click #choice-1,,,,,,,,,247644.05500004068,247635.19000005908,243752.747,243772.0449999906,243852.554,247652.178,,,
end of trap trial,html.Page,1_2_2,2021-03-29T12:49:40.276Z,,,,,,,,,,,,,,,,,,,,,,,,,,,,,,1714.2370000549708,form submission,,,,,,,,,,,,,,,,,,,,249367.22999997437,249366.41500005499,247636.711,247644.54999985173,247652.178,249384.814,,,
Trap 1,flow.Sequence,1_2,2021-03-29T12:49:40.279Z,,,,,,,,,,,,,,,,,,,,,,,,,,,,,,9329.754000054993,completion,,,,,,,,,,,,,,,,,,,,249370.24499988183,249366.41500005499,240020.871,240039.72999984398,240036.661,249384.814,,,
Holding screen,html.Screen,1_3_0_0,2021-03-29T12:49:47.277Z,,,,,,,,,,,,,,,,,,,,,,,,,,,,,,6998.675999999978,timeout,,,,,,,,,,,,,,,,,,,,256368.3149998542,256366.888,249351.509,249371.34999991395,249384.814,256383.49,,,
screen,html.Screen,1_3_0_1_0,2021-03-29T12:49:48.135Z,,,,,,,,,,,,,,,,15,,,,,,,,,,,,,,839.349999943981,response,,,,7,F,,,,,Space,keypress(Space),,,,instrumental,,,,Greg --------- ---------- - --- ------- -- --- ------------<br>----- -- -------- ------- ---- ------ - -------- ---- -----<br>--- ------- ---- -- --- -------- --- - ----- ------ ---- --<br>-------- --- -------- -------- --- -------- ---- -- ----- -<br>-------- ---- --- ---------- --------- -- ------- ------ -<br>--------- ----- -----,257225.5549998954,257222.83999994397,256366.888,256368.8999998849,256383.49,257233.463,,0,Greg
screen,html.Screen,1_3_0_1_1,2021-03-29T12:49:48.543Z,,,,,,,,,,,,,,,,15,,,,,,,,,,,,,,399.0169999129139,response,,,,7,F,,,,,Space,keypress(Space),,,,instrumental,,,,"---- Anderson, ---------- - --- ------- -- --- ------------<br>----- -- -------- ------- ---- ------ - -------- ---- -----<br>--- ------- ---- -- --- -------- --- - ----- ------ ---- --<br>-------- --- -------- -------- --- -------- ---- -- ----- -<br>-------- ---- --- ---------- --------- -- ------- ------ -<br>--------- ----- -----",257634.39000002109,257632.4799999129,257216.696,257226.1250000447,257233.463,257649.995,,1,"Anderson,"
screen,html.Screen,1_3_0_1_2,2021-03-29T12:49:49.246Z,,,,,,,,,,,,,,,,15,,,,,,,,,,,,,,684.6699999730336,response,,,,7,F,,,,,Space,keypress(Space),,,,instrumental,,,,---- --------- considered - --- ------- -- --- ------------<br>----- -- -------- ------- ---- ------ - -------- ---- -----<br>--- ------- ---- -- --- -------- --- - ----- ------ ---- --<br>-------- --- -------- -------- --- -------- ---- -- ----- -<br>-------- ---- --- ---------- --------- -- ------- ------ -<br>--------- ----- -----,258336.60000003874,258334.66499997303,257633.295,257634.80999995954,257649.995,258349.697,,2,considered
screen,html.Screen,1_3_0_1_3,2021-03-29T12:49:49.694Z,,,,,,,,,,,,,,,,15,,,,,,,,,,,,,,433.4179999983753,response,,,,7,F,,,,,Space,keypress(Space),,,,instrumental,,,,---- --------- ---------- a --- ------- -- --- ------------<br>----- -- -------- ------- ---- ------ - -------- ---- -----<br>--- ------- ---- -- --- -------- --- - ----- ------ ---- --<br>-------- --- -------- -------- --- -------- ---- -- ----- -<br>-------- ---- --- ---------- --------- -- ------- ------ -<br>--------- ----- -----,258785.0750000216,258783.11499999836,258333.144,258337.01499993913,258349.697,258799.757,,3,a
screen,html.Screen,1_3_0_1_4,2021-03-29T12:49:50.080Z,,,,,,,,,,,,,,,,15,,,,,,,,,,,,,,368.6729998450901,response,,,,7,F,,,,,Space,keypress(Space),,,,instrumental,,,,---- --------- ---------- - key ------- -- --- ------------<br>----- -- -------- ------- ---- ------ - -------- ---- -----<br>--- ------- ---- -- --- -------- --- - ----- ------ ---- --<br>-------- --- -------- -------- --- -------- ---- -- ----- -<br>-------- ---- --- ---------- --------- -- ------- ------ -<br>--------- ----- -----,259170.48499989323,259168.4299998451,258783.056,258785.5350000318,258799.757,259183.021,,4,key
screen,html.Screen,1_3_0_1_5,2021-03-29T12:49:50.505Z,,,,,,,,,,,,,,,,15,,,,,,,,,,,,,,410.73400003806455,response,,,,7,F,,,,,Space,keypress(Space),,,,instrumental,,,,---- --------- ---------- - --- witness -- --- ------------<br>----- -- -------- ------- ---- ------ - -------- ---- -----<br>--- ------- ---- -- --- -------- --- - ----- ------ ---- --<br>-------- --- -------- -------- --- -------- ---- -- ----- -<br>-------- ---- --- ---------- --------- -- ------- ------ -<br>--------- ----- -----,259595.65499983728,259593.75500003807,259166.313,259170.93500006013,259183.021,259599.382,,5,witness
screen,html.Screen,1_3_0_1_6,2021-03-29T12:49:50.930Z,,,,,,,,,,,,,,,,15,,,,,,,,,,,,,,419.8479999762203,response,,,,7,F,,,,,Space,keypress(Space),,,,instrumental,,,,---- --------- ---------- - --- ------- by --- ------------<br>----- -- -------- ------- ---- ------ - -------- ---- -----<br>--- ------- ---- -- --- -------- --- - ----- ------ ---- --<br>-------- --- -------- -------- --- -------- ---- -- ----- -<br>-------- ---- --- ---------- --------- -- ------- ------ -<br>--------- ----- -----,260021.17999992333,260019.22999997623,259582.912,259596.05999989435,259599.382,260032.582,,6,by
screen,html.Screen,1_3_0_1_7,2021-03-29T12:49:51.357Z,,,,,,,,,,,,,,,,15,,,,,,,,,,,,,,412.2930000447086,response,,,,7,F,,,,,Space,keypress(Space),,,,instrumental,,,,---- --------- ---------- - --- ------- -- the ------------<br>----- -- -------- ------- ---- ------ - -------- ---- -----<br>--- ------- ---- -- --- -------- --- - ----- ------ ---- --<br>-------- --- -------- -------- --- -------- ---- -- ----- -<br>-------- ---- --- ---------- --------- -- ------- ------ -<br>--------- ----- -----,260447.83499999903,260444.8750000447,260016.14,260021.59000001848,260032.582,260466.055,,7,the
screen,html.Screen,1_3_0_1_8,2021-03-29T12:49:51.816Z,,,,,,,,,,,,,,,,15,,,,,,,,,,,,,,439.01499986246927,response,,,,7,F,,,,,Space,keypress(Space),,,,instrumental,,,,"---- --------- ---------- - --- ------- -- --- prosecution,<br>----- -- -------- ------- ---- ------ - -------- ---- -----<br>--- ------- ---- -- --- -------- --- - ----- ------ ---- --<br>-------- --- -------- -------- --- -------- ---- -- ----- -<br>-------- ---- --- ---------- --------- -- ------- ------ -<br>--------- ----- -----",260907.0599998813,260905.06999986246,260432.753,260448.24999989942,260466.055,260915.812,,8,"prosecution,"
screen,html.Screen,1_3_0_1_9,2021-03-29T12:49:52.542Z,,,,,,,,,,,,,,,,15,,,,,,,,,,,,,,715.1029998705781,response,,,,7,F,,,,,Space,keypress(Space),,,,instrumental,,,,---- --------- ---------- - --- ------- -- --- ------------<br>vowed -- -------- ------- ---- ------ - -------- ---- -----<br>--- ------- ---- -- --- -------- --- - ----- ------ ---- --<br>-------- --- -------- -------- --- -------- ---- -- ----- -<br>-------- ---- --- ---------- --------- -- ------- ------ -<br>--------- ----- -----,261633.23499984108,261630.91499987058,260899.297,260907.47500001453,260915.812,261649.187,,9,vowed
screen,html.Screen,1_3_0_1_10,2021-03-29T12:49:52.923Z,,,,,,,,,,,,,,,,15,,,,,,,,,,,,,,361.9879998759425,response,,,,7,F,,,,,Space,keypress(Space),,,,instrumental,,,,---- --------- ---------- - --- ------- -- --- ------------<br>----- he -------- ------- ---- ------ - -------- ---- -----<br>--- ------- ---- -- --- -------- --- - ----- ------ ---- --<br>-------- --- -------- -------- --- -------- ---- -- ----- -<br>-------- ---- --- ---------- --------- -- ------- ------ -<br>--------- ----- -----,262013.50999996066,262011.17499987595,261632.476,261633.64499993622,261649.187,262050.946,,10,he
screen,html.Screen,1_3_0_1_11,2021-03-29T12:49:53.318Z,,,,,,,,,,,,,,,,15,,,,,,,,,,,,,,356.4239999135025,response,,,,7,F,,,,,Space,keypress(Space),,,,instrumental,,,,---- --------- ---------- - --- ------- -- --- ------------<br>----- -- wouldn't ------- ---- ------ - -------- ---- -----<br>--- ------- ---- -- --- -------- --- - ----- ------ ---- --<br>-------- --- -------- -------- --- -------- ---- -- ----- -<br>-------- ---- --- ---------- --------- -- ------- ------ -<br>--------- ----- -----,262409.289999865,262407.3699999135,261999.04,262013.92499986105,262050.946,262415.478,,11,wouldn't
screen,html.Screen,1_3_0_1_12,2021-03-29T12:49:53.768Z,,,,,,,,,,,,,,,,15,,,,,,,,,,,,,,441.59199991088826,response,,,,7,F,,,,,Space,keypress(Space),,,,instrumental,,,,---- --------- ---------- - --- ------- -- --- ------------<br>----- -- -------- testify ---- ------ - -------- ---- -----<br>--- ------- ---- -- --- -------- --- - ----- ------ ---- --<br>-------- --- -------- -------- --- -------- ---- -- ----- -<br>-------- ---- --- ---------- --------- -- ------- ------ -<br>--------- ----- -----,262858.98500005715,262857.0699999109,262398.895,262409.69999996014,262415.478,262865.425,,12,testify
screen,html.Screen,1_3_0_1_13,2021-03-29T12:49:54.254Z,,,,,,,,,,,,,,,,15,,,,,,,,,,,,,,477.6449999444303,response,,,,7,F,,,,,Space,keypress(Space),,,,instrumental,,,,---- --------- ---------- - --- ------- -- --- ------------<br>----- -- -------- ------- when ------ - -------- ---- -----<br>--- ------- ---- -- --- -------- --- - ----- ------ ---- --<br>-------- --- -------- -------- --- -------- ---- -- ----- -<br>-------- ---- --- ---------- --------- -- ------- ------ -<br>--------- ----- -----,263345.21499997936,263343.0699999444,262848.907,262859.39999995753,262865.425,263348.638,,13,when
screen,html.Screen,1_3_0_1_14,2021-03-29T12:49:54.689Z,,,,,,,,,,,,,,,,15,,,,,,,,,,,,,,429.11699993006187,response,,,,7,F,,,,,Space,keypress(Space),,,,instrumental,,,,---- --------- ---------- - --- ------- -- --- ------------<br>----- -- -------- ------- ---- served - -------- ---- -----<br>--- ------- ---- -- --- -------- --- - ----- ------ ---- --<br>-------- --- -------- -------- --- -------- ---- -- ----- -<br>-------- ---- --- ---------- --------- -- ------- ------ -<br>--------- ----- -----,263780.0199999474,263777.75499993004,263332.139,263345.6349999178,263348.638,263800.543,,14,served
screen,html.Screen,1_3_0_1_15,2021-03-29T12:49:55.164Z,,,,,,,,,,,,,,,,15,,,,,,,,,,,,,,452.5019999030628,response,,,,7,F,,,,,Space,keypress(Space),,,,instrumental,,,,---- --------- ---------- - --- ------- -- --- ------------<br>----- -- -------- ------- ---- ------ a -------- ---- -----<br>--- ------- ---- -- --- -------- --- - ----- ------ ---- --<br>-------- --- -------- -------- --- -------- ---- -- ----- -<br>-------- ---- --- ---------- --------- -- ------- ------ -<br>--------- ----- -----,264255.23500004783,264253.04499990307,263765.266,263780.4349998478,263800.543,264265.257,,15,a
screen,html.Screen,1_3_0_1_16,2021-03-29T12:49:56.396Z,,,,,,,,,,,,,,,,15,,,,,,,,,,,,,,1219.2679999780376,response,,,,7,F,,,,,Space,keypress(Space),,,,instrumental,,,,---- --------- ---------- - --- ------- -- --- ------------<br>----- -- -------- ------- ---- ------ - subpoena ---- -----<br>--- ------- ---- -- --- -------- --- - ----- ------ ---- --<br>-------- --- -------- -------- --- -------- ---- -- ----- -<br>-------- ---- --- ---------- --------- -- ------- ------ -<br>--------- ----- -----,265486.7599999998,265484.524999978,264248.504,264255.6499999482,264265.257,265498.267,,16,subpoena
screen,html.Screen,1_3_0_1_17,2021-03-29T12:49:57.347Z,,,,,,,,,,,,,,,,15,,,,,,,,,,,,,,937.7179998727515,response,,,,7,F,,,,,Space,keypress(Space),,,,instrumental,,,,---- --------- ---------- - --- ------- -- --- ------------<br>----- -- -------- ------- ---- ------ - -------- last -----<br>--- ------- ---- -- --- -------- --- - ----- ------ ---- --<br>-------- --- -------- -------- --- -------- ---- -- ----- -<br>-------- ---- --- ---------- --------- -- ------- ------ -<br>--------- ----- -----,266438.2050000131,266435.98499987274,265481.692,265487.17499990016,265498.267,266448.267,,17,last
screen,html.Screen,1_3_0_1_18,2021-03-29T12:49:57.757Z,,,,,,,,,,,,,,,,15,,,,,,,,,,,,,,397.2129999017343,response,,,,7,F,,,,,Space,keypress(Space),,,,instrumental,,,,---- --------- ---------- - --- ------- -- --- ------------<br>----- -- -------- ------- ---- ------ - -------- ---- week.<br>--- ------- ---- -- --- -------- --- - ----- ------ ---- --<br>-------- --- -------- -------- --- -------- ---- -- ----- -<br>-------- ---- --- ---------- --------- -- ------- ------ -<br>--------- ----- -----,266847.7749999147,266845.4799999017,266431.371,266438.6149998754,266448.267,266864.799,,18,week.
screen,html.Screen,1_3_0_1_19,2021-03-29T12:49:58.608Z,,,,,,,,,,,,,,,,15,,,,,,,,,,,,,,832.2110000035027,response,,,,7,F,,,,,Space,keypress(Space),,,,instrumental,,,,---- --------- ---------- - --- ------- -- --- ------------<br>----- -- -------- ------- ---- ------ - -------- ---- -----<br>His ------- ---- -- --- -------- --- - ----- ------ ---- --<br>-------- --- -------- -------- --- -------- ---- -- ----- -<br>-------- ---- --- ---------- --------- -- ------- ------ -<br>--------- ----- -----,267699.2099999916,267697.0100000035,266847.968,266848.18500000983,266864.799,267714.636,,19,His
screen,html.Screen,1_3_0_1_20,2021-03-29T12:49:59.093Z,,,,,,,,,,,,,,,,15,,,,,,,,,,,,,,467.09399983653566,response,,,,7,F,,,,,Space,keypress(Space),,,,instrumental,,,,---- --------- ---------- - --- ------- -- --- ------------<br>----- -- -------- ------- ---- ------ - -------- ---- -----<br>--- lawyers ---- -- --- -------- --- - ----- ------ ---- --<br>-------- --- -------- -------- --- -------- ---- -- ----- -<br>-------- ---- --- ---------- --------- -- ------- ------ -<br>--------- ----- -----,268184.14999987,268181.72999983653,267697.92,267699.62499989197,267714.636,268197.735,,20,lawyers
screen,html.Screen,1_3_0_1_21,2021-03-29T12:49:59.543Z,,,,,,,,,,,,,,,,15,,,,,,,,,,,,,,434.234999987646,response,,,,7,F,,,,,Space,keypress(Space),,,,instrumental,,,,---- --------- ---------- - --- ------- -- --- ------------<br>----- -- -------- ------- ---- ------ - -------- ---- -----<br>--- ------- said -- --- -------- --- - ----- ------ ---- --<br>-------- --- -------- -------- --- -------- ---- -- ----- -<br>-------- ---- --- ---------- --------- -- ------- ------ -<br>--------- ----- -----,268634.1849998571,268631.96999998763,268181.168,268184.5650000032,268197.735,268647.597,,21,said
screen,html.Screen,1_3_0_1_22,2021-03-29T12:49:59.909Z,,,,,,,,,,,,,,,,15,,,,,,,,,,,,,,349.89800001779804,response,,,,7,F,,,,,Space,keypress(Space),,,,instrumental,,,,---- --------- ---------- - --- ------- -- --- ------------<br>----- -- -------- ------- ---- ------ - -------- ---- -----<br>--- ------- ---- he --- -------- --- - ----- ------ ---- --<br>-------- --- -------- -------- --- -------- ---- -- ----- -<br>-------- ---- --- ---------- --------- -- ------- ------ -<br>--------- ----- -----,268999.7099998873,268997.4950000178,268631.075,268634.58999991417,268647.597,269014.371,,22,he
screen,html.Screen,1_3_0_1_23,2021-03-29T12:50:00.249Z,,,,,,,,,,,,,,,,15,,,,,,,,,,,,,,323.36899987171637,response,,,,7,F,,,,,Space,keypress(Space),,,,instrumental,,,,---- --------- ---------- - --- ------- -- --- ------------<br>----- -- -------- ------- ---- ------ - -------- ---- -----<br>--- ------- ---- -- was -------- --- - ----- ------ ---- --<br>-------- --- -------- -------- --- -------- ---- -- ----- -<br>-------- ---- --- ---------- --------- -- ------- ------ -<br>--------- ----- -----,269339.96000001207,269337.7399998717,268997.671,269000.1250000205,269014.371,269364.293,,23,was
screen,html.Screen,1_3_0_1_24,2021-03-29T12:50:00.675Z,,,,,,,,,,,,,,,,15,,,,,,,,,,,,,,399.0069999914267,response,,,,7,F,,,,,Space,keypress(Space),,,,instrumental,,,,---- --------- ---------- - --- ------- -- --- ------------<br>----- -- -------- ------- ---- ------ - -------- ---- -----<br>--- ------- ---- -- --- prepared --- - ----- ------ ---- --<br>-------- --- -------- -------- --- -------- ---- -- ----- -<br>-------- ---- --- ---------- --------- -- ------- ------ -<br>--------- ----- -----,269765.54000005126,269763.29999999143,269330.936,269340.3699998744,269364.293,269780.884,,24,prepared
screen,html.Screen,1_3_0_1_25,2021-03-29T12:50:01.105Z,,,,,,,,,,,,,,,,15,,,,,,,,,,,,,,412.5959998998442,response,,,,7,F,,,,,Space,keypress(Space),,,,instrumental,,,,---- --------- ---------- - --- ------- -- --- ------------<br>----- -- -------- ------- ---- ------ - -------- ---- -----<br>--- ------- ---- -- --- -------- for - ----- ------ ---- --<br>-------- --- -------- -------- --- -------- ---- -- ----- -<br>-------- ---- --- ---------- --------- -- ------- ------ -<br>--------- ----- -----,270195.70999988355,270193.47999989986,269764.178,269765.9599999897,269780.884,270230.774,,25,for
screen,html.Screen,1_3_0_1_26,2021-03-29T12:50:01.510Z,,,,,,,,,,,,,,,,15,,,,,,,,,,,,,,368.11099998489954,response,,,,7,F,,,,,Space,keypress(Space),,,,instrumental,,,,---- --------- ---------- - --- ------- -- --- ------------<br>----- -- -------- ------- ---- ------ - -------- ---- -----<br>--- ------- ---- -- --- -------- --- a ----- ------ ---- --<br>-------- --- -------- -------- --- -------- ---- -- ----- -<br>-------- ---- --- ---------- --------- -- ------- ------ -<br>--------- ----- -----,270601.2750000227,270598.8849999849,270180.766,270196.1149999406,270230.774,270613.993,,26,a
screen,html.Screen,1_3_0_1_27,2021-03-29T12:50:01.976Z,,,,,,,,,,,,,,,,15,,,,,,,,,,,,,,450.3069999690633,response,,,,7,F,,,,,Space,keypress(Space),,,,instrumental,,,,---- --------- ---------- - --- ------- -- --- ------------<br>----- -- -------- ------- ---- ------ - -------- ---- -----<br>--- ------- ---- -- --- -------- --- - third ------ ---- --<br>-------- --- -------- -------- --- -------- ---- -- ----- -<br>-------- ---- --- ---------- --------- -- ------- ------ -<br>--------- ----- -----,271066.589999944,271064.2999999691,270597.344,270601.79500002414,270613.993,271080.524,,27,third
screen,html.Screen,1_3_0_1_28,2021-03-29T12:50:02.381Z,,,,,,,,,,,,,,,,15,,,,,,,,,,,,,,389.1559998637531,response,,,,7,F,,,,,Space,keypress(Space),,,,instrumental,,,,---- --------- ---------- - --- ------- -- --- ------------<br>----- -- -------- ------- ---- ------ - -------- ---- -----<br>--- ------- ---- -- --- -------- --- - ----- prison ---- --<br>-------- --- -------- -------- --- -------- ---- -- ----- -<br>-------- ---- --- ---------- --------- -- ------- ------ -<br>--------- ----- -----,271472.16999996454,271469.6799998637,271063.902,271067.0000000391,271080.524,271480.437,,28,prison
screen,html.Screen,1_3_0_1_29,2021-03-29T12:50:02.842Z,,,,,,,,,,,,,,,,15,,,,,,,,,,,,,,449.617999887967,response,,,,7,F,,,,,Space,keypress(Space),,,,instrumental,,,,---- --------- ---------- - --- ------- -- --- ------------<br>----- -- -------- ------- ---- ------ - -------- ---- -----<br>--- ------- ---- -- --- -------- --- - ----- ------ stay --<br>-------- --- -------- -------- --- -------- ---- -- ----- -<br>-------- ---- --- ---------- --------- -- ------- ------ -<br>--------- ----- -----,271932.6899999287,271930.05499988794,271463.837,271472.6149998605,271480.437,271947.11,,29,stay
screen,html.Screen,1_3_0_1_30,2021-03-29T12:50:03.313Z,,,,,,,,,,,,,,,,15,,,,,,,,,,,,,,454.3049999711802,response,,,,7,F,,,,,Space,keypress(Space),,,,instrumental,,,,---- --------- ---------- - --- ------- -- --- ------------<br>----- -- -------- ------- ---- ------ - -------- ---- -----<br>--- ------- ---- -- --- -------- --- - ----- ------ ---- to<br>-------- --- -------- -------- --- -------- ---- -- ----- -<br>-------- ---- --- ---------- --------- -- ------- ------ -<br>--------- ----- -----,272403.805000009,272401.41499997117,271930.404,271933.10000002384,271947.11,272413.467,,30,to
screen,html.Screen,1_3_0_1_31,2021-03-29T12:50:03.827Z,,,,,,,,,,,,,,,,15,,,,,,,,,,,,,,502.5130000488716,response,,,,7,F,,,,,Space,keypress(Space),,,,instrumental,,,,---- --------- ---------- - --- ------- -- --- ------------<br>----- -- -------- ------- ---- ------ - -------- ---- -----<br>--- ------- ---- -- --- -------- --- - ----- ------ ---- --<br>maintain --- -------- -------- --- -------- ---- -- ----- -<br>-------- ---- --- ---------- --------- -- ------- ------ -<br>--------- ----- -----,272918.18000003695,272915.9800000489,272396.979,272404.24499986693,272413.467,272930.169,,31,maintain
screen,html.Screen,1_3_0_1_32,2021-03-29T12:50:04.228Z,,,,,,,,,,,,,,,,15,,,,,,,,,,,,,,386.41599990590475,response,,,,7,F,,,,,Space,keypress(Space),,,,instrumental,,,,---- --------- ---------- - --- ------- -- --- ------------<br>----- -- -------- ------- ---- ------ - -------- ---- -----<br>--- ------- ---- -- --- -------- --- - ----- ------ ---- --<br>-------- his -------- -------- --- -------- ---- -- ----- -<br>-------- ---- --- ---------- --------- -- ------- ------ -<br>--------- ----- -----,273318.784999894,273316.5849999059,272913.53,272918.58999989927,272930.169,273330.03,,32,his
screen,html.Screen,1_3_0_1_33,2021-03-29T12:50:04.664Z,,,,,,,,,,,,,,,,15,,,,,,,,,,,,,,422.3349998474587,response,,,,7,F,,,,,Space,keypress(Space),,,,instrumental,,,,---- --------- ---------- - --- ------- -- --- ------------<br>----- -- -------- ------- ---- ------ - -------- ---- -----<br>--- ------- ---- -- --- -------- --- - ----- ------ ---- --<br>-------- --- silence. -------- --- -------- ---- -- ----- -<br>-------- ---- --- ---------- --------- -- ------- ------ -<br>--------- ----- -----,273754.5600000303,273752.3649998475,273313.463,273319.2149999086,273330.03,273763.195,,33,silence.
screen,html.Screen,1_3_0_1_34,2021-03-29T12:50:05.330Z,,,,,,,,,,,,,,,,15,,,,,,,,,,,,,,654.9999999183347,response,,,,7,F,,,,,Space,keypress(Space),,,,instrumental,,,,---- --------- ---------- - --- ------- -- --- ------------<br>----- -- -------- ------- ---- ------ - -------- ---- -----<br>--- ------- ---- -- --- -------- --- - ----- ------ ---- --<br>-------- --- -------- Anderson --- -------- ---- -- ----- -<br>-------- ---- --- ---------- --------- -- ------- ------ -<br>--------- ----- -----,274420.4649999738,274418.19499991834,273746.709,273754.96999989264,273763.195,274429.756,,34,Anderson
screen,html.Screen,1_3_0_1_35,2021-03-29T12:50:05.754Z,,,,,,,,,,,,,,,,15,,,,,,,,,,,,,,412.8589999722899,response,,,,7,F,,,,,Space,keypress(Space),,,,instrumental,,,,---- --------- ---------- - --- ------- -- --- ------------<br>----- -- -------- ------- ---- ------ - -------- ---- -----<br>--- ------- ---- -- --- -------- --- - ----- ------ ---- --<br>-------- --- -------- -------- was -------- ---- -- ----- -<br>-------- ---- --- ---------- --------- -- ------- ------ -<br>--------- ----- -----,274844.7650000453,274842.6149999723,274413.241,274420.88499991223,274429.756,274880.685,,35,was
screen,html.Screen,1_3_0_1_36,2021-03-29T12:50:06.209Z,,,,,,,,,,,,,,,,15,,,,,,,,,,,,,,417.4450000101351,response,,,,7,F,,,,,Space,keypress(Space),,,,instrumental,,,,---- --------- ---------- - --- ------- -- --- ------------<br>----- -- -------- ------- ---- ------ - -------- ---- -----<br>--- ------- ---- -- --- -------- --- - ----- ------ ---- --<br>-------- --- -------- -------- --- released ---- -- ----- -<br>-------- ---- --- ---------- --------- -- ------- ------ -<br>--------- ----- -----,275300.31999992207,275298.13000001013,274829.822,274845.1749999076,274880.685,275313.008,,36,released
screen,html.Screen,1_3_0_1_37,2021-03-29T12:50:06.610Z,,,,,,,,,,,,,,,,15,,,,,,,,,,,,,,385.4569999067462,response,,,,7,F,,,,,Space,keypress(Space),,,,instrumental,,,,---- --------- ---------- - --- ------- -- --- ------------<br>----- -- -------- ------- ---- ------ - -------- ---- -----<br>--- ------- ---- -- --- -------- --- - ----- ------ ---- --<br>-------- --- -------- -------- --- -------- July -- ----- -<br>-------- ---- --- ---------- --------- -- ------- ------ -<br>--------- ----- -----,275700.80999983475,275698.4649999067,275296.397,275300.79999985173,275313.008,275712.861,,37,July
screen,html.Screen,1_3_0_1_38,2021-03-29T12:50:07.070Z,,,,,,,,,,,,,,,,15,,,,,,,,,,,,,,446.00899992656196,response,,,,7,F,,,,,Space,keypress(Space),,,,instrumental,,,,---- --------- ---------- - --- ------- -- --- ------------<br>----- -- -------- ------- ---- ------ - -------- ---- -----<br>--- ------- ---- -- --- -------- --- - ----- ------ ---- --<br>-------- --- -------- -------- --- -------- ---- 20 ----- -<br>-------- ---- --- ---------- --------- -- ------- ------ -<br>--------- ----- -----,276161.1200000625,276158.86999992654,275696.209,275701.34999998845,275712.861,276196.255,,38,20
screen,html.Screen,1_3_0_1_39,2021-03-29T12:50:07.856Z,,,,,,,,,,,,,,,,15,,,,,,,,,,,,,,748.3999999993248,response,,,,7,F,,,,,Space,keypress(Space),,,,instrumental,,,,---- --------- ---------- - --- ------- -- --- ------------<br>----- -- -------- ------- ---- ------ - -------- ---- -----<br>--- ------- ---- -- --- -------- --- - ----- ------ ---- --<br>-------- --- -------- -------- --- -------- ---- -- after -<br>-------- ---- --- ---------- --------- -- ------- ------ -<br>--------- ----- -----,276946.8600000255,276944.65499999933,276180.822,276161.5299999248,276196.255,276962.765,,39,after
screen,html.Screen,1_3_0_1_40,2021-03-29T12:50:08.406Z,,,,,,,,,,,,,,,,15,,,,,,,,,,,,,,532.3450000180164,response,,,,7,F,,,,,Space,keypress(Space),,,,instrumental,,,,---- --------- ---------- - --- ------- -- --- ------------<br>----- -- -------- ------- ---- ------ - -------- ---- -----<br>--- ------- ---- -- --- -------- --- - ----- ------ ---- --<br>-------- --- -------- -------- --- -------- ---- -- ----- a<br>-------- ---- --- ---------- --------- -- ------- ------ -<br>--------- ----- -----,277497.3849998787,277495.11000001803,276946.056,276947.2699998878,276962.765,277512.552,,40,a
