sender,sender_type,sender_id,timestamp,meta,,Blues,Classical,Country,Dance,Electronic,Folk,Gospel,Hip-Hop,Jazz,Latin,Musical/Film,New-age,Pop,Provo_ID,R&B,Rap,Reggae,Religious,Rock,Soul,Swing,Traditional,age,artist_name,correct,correctResponse,distraction,duration,education,ended_on,familiarity,gender,headphone_check_performance,item,list,music_frequency,offensiveness,pleasantness,position_correct,preference,response,response_action,snippet_file,song_name,song_rating,sound,stimulus_1,stimulus_2,stimulus_3,text,time_commit,time_end,time_render,time_run,time_show,time_switch,url,word,word_ID
Introduction,html.Screen,0_0,2021-04-22T00:47:25.810Z,"{""labjs_version"":""20.2.2"",""labjs_build"":{""flavor"":""production"",""commit"":""a25486e0c714a0ae2ce03ff94b7bb6896854dcfa""},""location"":""https://run.pavlovia.org/mvasilev/music_d/"",""userAgent"":""Mozilla/5.0 (Windows NT 10.0; Win64; x64) AppleWebKit/537.36 (KHTML, like Gecko) Chrome/89.0.4389.128 Safari/537.36"",""platform"":""Win32"",""language"":""en-GB"",""locale"":""en-US"",""timeZone"":""Europe/London"",""timezoneOffset"":-60,""screen_width"":1536,""screen_height"":864,""scroll_width"":1536,""scroll_height"":706,""window_innerWidth"":1536,""window_innerHeight"":754,""devicePixelRatio"":1.25}",,,,,,,,,,,,,,,,,,,,,,,,,,,,,30226.979000002157,,response,,,,,,,,,,,continue,click button,,,,,,,,,42916.409999997995,42911.565000002156,12617.969,12631.965000000491,12684.586,42937.845,{},,
Volume calibration,html.Screen,0_1,2021-04-22T00:48:15.999Z,,,,,,,,,,,,,,,,,,,,,,,,,,,,,,50155.0449999999,,response,,,,,,,,,,,continue,click button,,,,,,,,,93105.14500000136,93092.8899999999,42904.904,42917.64500000136,42937.845,93115.55,,,
Task instructions,html.Screen,0_2,2021-04-22T00:48:29.333Z,,,,,,,,,,,,,,,,,,,,,,,,,,,,,,13321.859999998633,,response,,,,,,,,,,,continue,click button,,,,,,,,,106439.70999999874,106437.40999999864,93082.328,93105.86499999772,93115.55,106442.964,,,
Sounds,html.Screen,0_3_0_0,2021-04-22T00:48:33.576Z,,,,,,,,,,,,,,,,,,,,,,,,,,,,,,4248.112999999998,,timeout,,,,,,,,,2,,,,,,,,I,S,O,,110683.06499999744,110674.66,106426.607,106440.72500000038,106442.964,110691.077,,,
Judgement,html.Screen,0_3_0_1,2021-04-22T00:48:35.055Z,,,,,,,,,,,,,,,,,,,,,,,,,,,true,2,,1468.1030000023748,,response,,,,,,,,,2,,2,click #choice-2,,,,,I,S,O,,112161.84500000236,112159.18000000238,110674.66,110683.7349999987,110691.077,112173.83,,,
Trial,flow.Sequence,0_3_0,2021-04-22T00:48:35.056Z,,,,,,,,,,,,,,,,,,,,,,,,,,,,,,5716.216000002372,,completion,,,,,,,,,2,,,,,,,,I,S,O,,112163.11999999743,112159.18000000238,106426.607,106440.45999999798,106442.964,112173.83,,,
Sounds,html.Screen,0_3_1_0,2021-04-22T00:48:39.300Z,,,,,,,,,,,,,,,,,,,,,,,,,,,,,,4247.979999999996,,timeout,,,,,,,,,1,,,,,,,,S,O,I,,116407.35999999742,116405.499,112157.344,112163.82000000158,112173.83,116421.81,,,
Judgement,html.Screen,0_3_1_1,2021-04-22T00:48:40.135Z,,,,,,,,,,,,,,,,,,,,,,,,,,,false,1,,818.0449999998091,,response,,,,,,,,,1,,3,click #choice-3,,,,,S,O,I,,117242.1800000011,117239.8549999998,116405.499,116407.89000000223,116421.81,117254.783,,,
Trial,flow.Sequence,0_3_1,2021-04-22T00:48:40.136Z,,,,,,,,,,,,,,,,,,,,,,,,,,,,,,5066.024999999805,,completion,,,,,,,,,1,,,,,,,,S,O,I,,117243.054999999,117239.8549999998,112157.344,112163.59499999817,112173.83,117254.783,,,
Sounds,html.Screen,0_3_2_0,2021-04-22T00:48:44.381Z,,,,,,,,,,,,,,,,,,,,,,,,,,,,,,4248.633000000002,,timeout,,,,,,,,,1,,,,,,,,S,I,O,,121488.44000000099,121486.573,117238.538,117243.77999999706,117254.783,121503.416,,,
Judgement,html.Screen,0_3_2_1,2021-04-22T00:48:45.985Z,,,,,,,,,,,,,,,,,,,,,,,,,,,true,1,,1586.263999997318,,response,,,,,,,,,1,,1,click #choice-1,,,,,S,I,O,,123092.00499999861,123089.67999999732,121486.573,121488.94000000291,121503.416,123102.23,,,
Trial,flow.Sequence,0_3_2,2021-04-22T00:48:45.986Z,,,,,,,,,,,,,,,,,,,,,,,,,,,,,,5834.89699999732,,completion,,,,,,,,,1,,,,,,,,S,I,O,,123092.77000000293,123089.67999999732,117238.538,117243.55500000092,117254.783,123102.23,,,
Sounds,html.Screen,0_3_3_0,2021-04-22T00:48:50.229Z,,,,,,,,,,,,,,,,,,,,,,,,,,,,,,4248.491999999998,,timeout,,,,,,,,,2,,,,,,,,O,S,I,,127336.13000000332,127333.994,123085.838,123093.39000000182,123102.23,127350.722,,,
Judgement,html.Screen,0_3_3_1,2021-04-22T00:48:51.445Z,,,,,,,,,,,,,,,,,,,,,,,,,,,true,2,,1198.6480000006413,,response,,,,,,,,,2,,2,click #choice-2,,,,,O,S,I,,128551.74499999703,128549.37000000064,127333.994,127336.62000000186,127350.722,128566.558,,,
Trial,flow.Sequence,0_3_3,2021-04-22T00:48:51.446Z,,,,,,,,,,,,,,,,,,,,,,,,,,,,,,5447.14000000064,,completion,,,,,,,,,2,,,,,,,,O,S,I,,128552.50499999966,128549.37000000064,123085.838,123093.16499999841,123102.23,128566.558,,,
Sounds,html.Screen,0_3_4_0,2021-04-22T00:48:55.693Z,,,,,,,,,,,,,,,,,,,,,,,,,,,,,,4247.9909999999945,,timeout,,,,,,,,,3,,,,,,,,O,I,S,,132800.08500000258,132798.213,128550.069,128553.07999999786,128566.558,132814.549,,,
Judgement,html.Screen,0_3_4_1,2021-04-22T00:48:56.385Z,,,,,,,,,,,,,,,,,,,,,,,,,,,true,3,,674.996000004001,,response,,,,,,,,,3,,3,click #choice-3,,,,,O,I,S,,133491.909999997,133489.545000004,132798.213,132800.53500000213,132814.549,133497.619,,,
Trial,flow.Sequence,0_3_4,2021-04-22T00:48:56.386Z,,,,,,,,,,,,,,,,,,,,,,,,,,,,,,4922.9870000039955,,completion,,,,,,,,,3,,,,,,,,O,I,S,,133492.64499999845,133489.545000004,128550.069,128552.90000000241,128566.558,133497.619,,,
Sounds,html.Screen,0_3_5_0,2021-04-22T00:49:00.624Z,,,,,,,,,,,,,,,,,,,,,,,,,,,,,,4248.0749999999825,,timeout,,,,,,,,,3,,,,,,,,I,O,S,,137730.79999999754,137729.138,133481.265,133493.21500000224,133497.619,137745.694,,,
Judgement,html.Screen,0_3_5_1,2021-04-22T00:49:01.225Z,,,,,,,,,,,,,,,,,,,,,,,,,,,true,3,,583.9059999973106,,response,,,,,,,,,3,,3,click #choice-3,,,,,I,O,S,,138331.8599999984,138329.5999999973,137729.138,137731.26000000047,137745.694,138362.132,,,
Trial,flow.Sequence,0_3_5,2021-04-22T00:49:01.226Z,,,,,,,,,,,,,,,,,,,,,,,,,,,,,,4831.980999997293,,completion,,,,,,,,,3,,,,,,,,I,O,S,,138332.58999999816,138329.5999999973,133481.265,133493.02999999782,133497.619,138362.132,,,
Task,flow.Loop,0_3,2021-04-22T00:49:01.244Z,,,,,,,,,,,,,,,,,,,,,,,,,,,,,,31886.635999997292,,completion,,,0.8333333333333334,,,,,,,,,,,,,,,,,,138350.76999999728,138329.5999999973,106426.607,106440.22000000405,106442.964,138362.132,,,
Trap,html.Screen,0_4,2021-04-22T00:49:01.248Z,,,,,,,,,,,,,,,,,,,,,,,,,,,,,,NaN,,skipped,,,,,,,,,,,,,,,,,,,,,138355.27000000002,138329.5999999973,,138354.7749999998,,138362.132,,,
Thanks,html.Screen,0_5,2021-04-22T00:49:04.745Z,,,,,,,,,,,,,,,,,,,,,,,,,,,,,,3487.5429999976477,,response,,,,,,,,,,,continue,click button,,,,,,,,,141851.92999999708,141849.67499999766,138329.093,138355.73999999906,138362.132,147108.598,,,
Headphone screening,flow.Sequence,0,2021-04-22T00:49:04.746Z,,,,,,,,,,,,,,,,,,,,,,,,,,,,,,129165.08899999766,,completion,,,,,,,,,,,,,,,,,,,,,141852.65000000072,141849.67499999766,12617.969,12631.900000000314,12684.586,147108.598,,,
Instructions,html.Page,1_0,2021-04-22T00:49:45.452Z,,,,,,,,,,,,,,,,,,,,,,,,,,,,,,35444.9070000035,,form submission,,,,,,,,,,,,,,,,,,,,,182554.4200000004,182553.5050000035,147058.302,147097.67000000284,147108.598,182559.147,,,
Holding screen,html.Screen,1_1_0_0,2021-04-22T00:49:55.438Z,,,,,,,,,,,,,,,,,,,,,,,,,,,,,,10045.453000000009,,timeout,,,,,,,,,,,,,,,,,,,,,192539.94500000408,192538.32,182542.732,182555.2699999971,182559.147,192604.6,,,
screen,html.Screen,1_1_0_1_0,2021-04-22T00:49:56.197Z,,,,,,,,,,,,,,,,53,,,,,,,,,,,,,,686.9399999983434,,response,,,,99,,,,,,,Space,keypress(Space),,,,,,,,When -- ----- -- ------ - ------- --- ----------<br>------------- ------ ------ ---- ---- ------- ----- -- ----<br>-------- ------- -- ---------- --- - --- ----- ----- ----<br>---- --- --- ----- --- ---- ---- ------- ----- ---- -------<br>--- --- -- ----- -- --- ---- -- --- ---- -- ------ ------<br>--- ----- -- ----,193299.55499999778,193291.53999999835,192538.32,192540.68499999994,192604.6,193304.35,,0,When
screen,html.Screen,1_1_0_1_1,2021-04-22T00:49:56.483Z,,,,,,,,,,,,,,,,53,,,,,,,,,,,,,,279.41500000303495,,response,,,,99,,,,,,,Space,keypress(Space),,,,,,,,---- it ----- -- ------ - ------- --- ----------<br>------------- ------ ------ ---- ---- ------- ----- -- ----<br>-------- ------- -- ---------- --- - --- ----- ----- ----<br>---- --- --- ----- --- ---- ---- ------- ----- ---- -------<br>--- --- -- ----- -- --- ---- -- --- ---- -- ------ ------<br>--- ----- -- ----,193585.404999998,193583.76500000304,193287.947,193300.10500000208,193304.35,193606.571,,1,it
screen,html.Screen,1_1_0_1_2,2021-04-22T00:49:56.781Z,,,,,,,,,,,,,,,,53,,,,,,,,,,,,,,274.96900000213645,,response,,,,99,,,,,,,Space,keypress(Space),,,,,,,,---- -- comes -- ------ - ------- --- ----------<br>------------- ------ ------ ---- ---- ------- ----- -- ----<br>-------- ------- -- ---------- --- - --- ----- ----- ----<br>---- --- --- ----- --- ---- ---- ------- ----- ---- -------<br>--- --- -- ----- -- --- ---- -- --- ---- -- ------ ------<br>--- ----- -- ----,193883.24999999895,193881.54000000213,193571.051,193585.87000000261,193606.571,193887.433,,2,comes
screen,html.Screen,1_1_0_1_3,2021-04-22T00:49:57.148Z,,,,,,,,,,,,,,,,53,,,,,,,,,,,,,,359.0569999977306,,response,,,,99,,,,,,,Space,keypress(Space),,,,,,,,---- -- ----- to ------ - ------- --- ----------<br>------------- ------ ------ ---- ---- ------- ----- -- ----<br>-------- ------- -- ---------- --- - --- ----- ----- ----<br>---- --- --- ----- --- ---- ---- ------- ----- ---- -------<br>--- --- -- ----- -- --- ---- -- --- ---- -- ------ ------<br>--- ----- -- ----,194250.07999999798,194246.48999999772,193871.029,193883.7249999997,193887.433,194253.93,,3,to
screen,html.Screen,1_1_0_1_4,2021-04-22T00:49:57.328Z,,,,,,,,,,,,,,,,53,,,,,,,,,,,,,,174.46999999706168,,response,,,,99,,,,,,,Space,keypress(Space),,,,,,,,---- -- ----- -- having - ------- --- ----------<br>------------- ------ ------ ---- ---- ------- ----- -- ----<br>-------- ------- -- ---------- --- - --- ----- ----- ----<br>---- --- --- ----- --- ---- ---- ------- ----- ---- -------<br>--- --- -- ----- -- --- ---- -- --- ---- -- ------ ------<br>--- ----- -- ----,194429.88499999774,194428.39999999705,194237.532,194250.5600000004,194253.93,194437.191,,4,having
screen,html.Screen,1_1_0_1_5,2021-04-22T00:49:57.496Z,,,,,,,,,,,,,,,,53,,,,,,,,,,,,,,159.47899999900255,,response,,,,99,,,,,,,Space,keypress(Space),,,,,,,,---- -- ----- -- ------ a ------- --- ----------<br>------------- ------ ------ ---- ---- ------- ----- -- ----<br>-------- ------- -- ---------- --- - --- ----- ----- ----<br>---- --- --- ----- --- ---- ---- ------- ----- ---- -------<br>--- --- -- ----- -- --- ---- -- --- ---- -- ------ ------<br>--- ----- -- ----,194598.0849999978,194596.669999999,194420.786,194430.35999999847,194437.191,194603.759,,5,a
screen,html.Screen,1_1_0_1_6,2021-04-22T00:49:57.687Z,,,,,,,,,,,,,,,,53,,,,,,,,,,,,,,183.4260000010545,,response,,,,99,,,,,,,Space,keypress(Space),,,,,,,,---- -- ----- -- ------ - lasting --- ----------<br>------------- ------ ------ ---- ---- ------- ----- -- ----<br>-------- ------- -- ---------- --- - --- ----- ----- ----<br>---- --- --- ----- --- ---- ---- ------- ----- ---- -------<br>--- --- -- ----- -- --- ---- -- --- ---- -- ------ ------<br>--- ----- -- ----,194788.67500000342,194787.18500000105,194587.38,194598.54500000074,194603.759,194803.78,,6,lasting
screen,html.Screen,1_1_0_1_7,2021-04-22T00:49:57.890Z,,,,,,,,,,,,,,,,53,,,,,,,,,,,,,,186.45499999748426,,response,,,,99,,,,,,,Space,keypress(Space),,,,,,,,---- -- ----- -- ------ - ------- and ----------<br>------------- ------ ------ ---- ---- ------- ----- -- ----<br>-------- ------- -- ---------- --- - --- ----- ----- ----<br>---- --- --- ----- --- ---- ---- ------- ----- ---- -------<br>--- --- -- ----- -- --- ---- -- --- ---- -- ------ ------<br>--- ----- -- ----,194991.71000000206,194990.23499999748,194787.286,194789.14000000077,194803.78,195003.655,,7,and
screen,html.Screen,1_1_0_1_8,2021-04-22T00:49:58.088Z,,,,,,,,,,,,,,,,53,,,,,,,,,,,,,,184.50499999788008,,response,,,,99,,,,,,,Space,keypress(Space),,,,,,,,---- -- ----- -- ------ - ------- --- fulfilling<br>------------- ------ ------ ---- ---- ------- ----- -- ----<br>-------- ------- -- ---------- --- - --- ----- ----- ----<br>---- --- --- ----- --- ---- ---- ------- ----- ---- -------<br>--- --- -- ----- -- --- ---- -- --- ---- -- ------ ------<br>--- ----- -- ----,195189.68999999925,195188.15999999788,194987.203,194992.1650000033,195003.655,195203.556,,8,fulfilling
screen,html.Screen,1_1_0_1_9,2021-04-22T00:49:58.275Z,,,,,,,,,,,,,,,,53,,,,,,,,,,,,,,172.56900000249152,,response,,,,99,,,,,,,Space,keypress(Space),,,,,,,,"---- -- ----- -- ------ - ------- --- ----------<br>relationship, ------ ------ ---- ---- ------- ----- -- ----<br>-------- ------- -- ---------- --- - --- ----- ----- ----<br>---- --- --- ----- --- ---- ---- ------- ----- ---- -------<br>--- --- -- ----- -- --- ---- -- --- ---- -- ------ ------<br>--- ----- -- ----",195377.5999999998,195376.1250000025,195187.113,195190.1599999983,195203.556,195386.77,,9,"relationship,"
screen,html.Screen,1_1_0_1_10,2021-04-22T00:49:58.477Z,,,,,,,,,,,,,,,,53,,,,,,,,,,,,,,191.23500000304193,,response,,,,99,,,,,,,Space,keypress(Space),,,,,,,,---- -- ----- -- ------ - ------- --- ----------<br>------------- common ------ ---- ---- ------- ----- -- ----<br>-------- ------- -- ---------- --- - --- ----- ----- ----<br>---- --- --- ----- --- ---- ---- ------- ----- ---- -------<br>--- --- -- ----- -- --- ---- -- --- ---- -- ------ ------<br>--- ----- -- ----,195579.49999999983,195578.00500000303,195370.372,195378.06999999884,195386.77,195586.687,,10,common
screen,html.Screen,1_1_0_1_11,2021-04-22T00:49:58.760Z,,,,,,,,,,,,,,,,53,,,,,,,,,,,,,,273.87300000098185,,response,,,,99,,,,,,,Space,keypress(Space),,,,,,,,---- -- ----- -- ------ - ------- --- ----------<br>------------- ------ wisdom ---- ---- ------- ----- -- ----<br>-------- ------- -- ---------- --- - --- ----- ----- ----<br>---- --- --- ----- --- ---- ---- ------- ----- ---- -------<br>--- --- -- ----- -- --- ---- -- --- ---- -- ------ ------<br>--- ----- -- ----,195862.13999999745,195860.560000001,195570.277,195579.96499999717,195586.687,195869.854,,11,wisdom
screen,html.Screen,1_1_0_1_12,2021-04-22T00:49:58.942Z,,,,,,,,,,,,,,,,53,,,,,,,,,,,,,,173.32099999889033,,response,,,,99,,,,,,,Space,keypress(Space),,,,,,,,---- -- ----- -- ------ - ------- --- ----------<br>------------- ------ ------ says ---- ------- ----- -- ----<br>-------- ------- -- ---------- --- - --- ----- ----- ----<br>---- --- --- ----- --- ---- ---- ------- ----- ---- -------<br>--- --- -- ----- -- --- ---- -- --- ---- -- ------ ------<br>--- ----- -- ----,196044.64000000007,196043.17499999888,195853.601,195862.63000000326,195869.854,196053.141,,12,says
screen,html.Screen,1_1_0_1_13,2021-04-22T00:49:59.260Z,,,,,,,,,,,,,,,,53,,,,,,,,,,,,,,307.77899999916553,,response,,,,99,,,,,,,Space,keypress(Space),,,,,,,,---- -- ----- -- ------ - ------- --- ----------<br>------------- ------ ------ ---- that ------- ----- -- ----<br>-------- ------- -- ---------- --- - --- ----- ----- ----<br>---- --- --- ----- --- ---- ---- ------- ----- ---- -------<br>--- --- -- ----- -- --- ---- -- --- ---- -- ------ ------<br>--- ----- -- ----,196362.38500000036,196360.91999999917,196036.528,196045.100000003,196053.141,196369.643,,13,that
screen,html.Screen,1_1_0_1_14,2021-04-22T00:49:59.603Z,,,,,,,,,,,,,,,,53,,,,,,,,,,,,,,334.06199999988894,,response,,,,99,,,,,,,Space,keypress(Space),,,,,,,,---- -- ----- -- ------ - ------- --- ----------<br>------------- ------ ------ ---- ---- feeling ----- -- ----<br>-------- ------- -- ---------- --- - --- ----- ----- ----<br>---- --- --- ----- --- ---- ---- ------- ----- ---- -------<br>--- --- -- ----- -- --- ---- -- --- ---- -- ------ ------<br>--- ----- -- ----,196705.19500000228,196703.7049999999,196353.256,196362.8749999989,196369.643,196719.484,,14,feeling
screen,html.Screen,1_1_0_1_15,2021-04-22T00:49:59.892Z,,,,,,,,,,,,,,,,53,,,,,,,,,,,,,,272.64599999872735,,response,,,,99,,,,,,,Space,keypress(Space),,,,,,,,---- -- ----- -- ------ - ------- --- ----------<br>------------- ------ ------ ---- ---- ------- close -- ----<br>-------- ------- -- ---------- --- - --- ----- ----- ----<br>---- --- --- ----- --- ---- ---- ------- ----- ---- -------<br>--- --- -- ----- -- --- ---- -- --- ---- -- ------ ------<br>--- ----- -- ----,196993.77500000264,196992.12999999872,196703.172,196705.67499999743,196719.484,197002.71,,15,close
screen,html.Screen,1_1_0_1_16,2021-04-22T00:50:00.159Z,,,,,,,,,,,,,,,,53,,,,,,,,,,,,,,256.7550000028277,,response,,,,99,,,,,,,Space,keypress(Space),,,,,,,,---- -- ----- -- ------ - ------- --- ----------<br>------------- ------ ------ ---- ---- ------- ----- to ----<br>-------- ------- -- ---------- --- - --- ----- ----- ----<br>---- --- --- ----- --- ---- ---- ------- ----- ---- -------<br>--- --- -- ----- -- --- ---- -- --- ---- -- ------ ------<br>--- ----- -- ----,197260.95499999792,197259.46500000282,196986.101,196994.27000000287,197002.71,197269.249,,16,to
screen,html.Screen,1_1_0_1_17,2021-04-22T00:50:00.406Z,,,,,,,,,,,,,,,,53,,,,,,,,,,,,,,237.48600000265287,,response,,,,99,,,,,,,Space,keypress(Space),,,,,,,,---- -- ----- -- ------ - ------- --- ----------<br>------------- ------ ------ ---- ---- ------- ----- -- your<br>-------- ------- -- ---------- --- - --- ----- ----- ----<br>---- --- --- ----- --- ---- ---- ------- ----- ---- -------<br>--- --- -- ----- -- --- ---- -- --- ---- -- ------ ------<br>--- ----- -- ----,197508.19500000216,197506.73500000266,197252.977,197261.42499999696,197269.249,197519.144,,17,your
screen,html.Screen,1_1_0_1_18,2021-04-22T00:50:00.925Z,,,,,,,,,,,,,,,,53,,,,,,,,,,,,,,506.1360000016575,,response,,,,99,,,,,,,Space,keypress(Space),,,,,,,,---- -- ----- -- ------ - ------- --- ----------<br>------------- ------ ------ ---- ---- ------- ----- -- ----<br>romantic ------- -- ---------- --- - --- ----- ----- ----<br>---- --- --- ----- --- ---- ---- ------- ----- ---- -------<br>--- --- -- ----- -- --- ---- -- --- ---- -- ------ ------<br>--- ----- -- ----,198026.72999999777,198025.28000000166,197502.747,197508.65499999782,197519.144,198035.596,,18,romantic
screen,html.Screen,1_1_0_1_19,2021-04-22T00:50:01.259Z,,,,,,,,,,,,,,,,53,,,,,,,,,,,,,,324.18399999887333,,response,,,,99,,,,,,,Space,keypress(Space),,,,,,,,---- -- ----- -- ------ - ------- --- ----------<br>------------- ------ ------ ---- ---- ------- ----- -- ----<br>-------- partner -- ---------- --- - --- ----- ----- ----<br>---- --- --- ----- --- ---- ---- ------- ----- ---- -------<br>--- --- -- ----- -- --- ---- -- --- ---- -- ------ ------<br>--- ----- -- ----,198361.31500000192,198359.77999999886,198019.18,198027.2000000041,198035.596,198368.763,,19,partner
screen,html.Screen,1_1_0_1_20,2021-04-22T00:50:01.561Z,,,,,,,,,,,,,,,,53,,,,,,,,,,,,,,292.76699999757693,,response,,,,99,,,,,,,Space,keypress(Space),,,,,,,,---- -- ----- -- ------ - ------- --- ----------<br>------------- ------ ------ ---- ---- ------- ----- -- ----<br>-------- ------- is ---------- --- - --- ----- ----- ----<br>---- --- --- ----- --- ---- ---- ------- ----- ---- -------<br>--- --- -- ----- -- --- ---- -- --- ---- -- ------ ------<br>--- ----- -- ----,198663.01000000385,198661.52999999758,198352.368,198361.79499999707,198368.763,198668.639,,20,is
screen,html.Screen,1_1_0_1_21,2021-04-22T00:50:01.854Z,,,,,,,,,,,,,,,,53,,,,,,,,,,,,,,286.3410000022559,,response,,,,99,,,,,,,Space,keypress(Space),,,,,,,,---- -- ----- -- ------ - ------- --- ----------<br>------------- ------ ------ ---- ---- ------- ----- -- ----<br>-------- ------- -- paramount. --- - --- ----- ----- ----<br>---- --- --- ----- --- ---- ---- ------- ----- ---- -------<br>--- --- -- ----- -- --- ---- -- --- ---- -- ------ ------<br>--- ----- -- ----,198956.40499999718,198954.98000000225,198652.356,198663.4800000029,198668.639,198968.546,,21,paramount.
screen,html.Screen,1_1_0_1_22,2021-04-22T00:50:02.313Z,,,,,,,,,,,,,,,,53,,,,,,,,,,,,,,445.4490000026126,,response,,,,99,,,,,,,Space,keypress(Space),,,,,,,,---- -- ----- -- ------ - ------- --- ----------<br>------------- ------ ------ ---- ---- ------- ----- -- ----<br>-------- ------- -- ---------- But - --- ----- ----- ----<br>---- --- --- ----- --- ---- ---- ------- ----- ---- -------<br>--- --- -- ----- -- --- ---- -- --- ---- -- ------ ------<br>--- ----- -- ----,199415.41500000312,199413.99500000261,198952.105,198956.8599999984,198968.546,199418.299,,22,But
screen,html.Screen,1_1_0_1_23,2021-04-22T00:50:02.565Z,,,,,,,,,,,,,,,,53,,,,,,,,,,,,,,247.71100000082515,,response,,,,99,,,,,,,Space,keypress(Space),,,,,,,,---- -- ----- -- ------ - ------- --- ----------<br>------------- ------ ------ ---- ---- ------- ----- -- ----<br>-------- ------- -- ---------- --- a --- ----- ----- ----<br>---- --- --- ----- --- ---- ---- ------- ----- ---- -------<br>--- --- -- ----- -- --- ---- -- --- ---- -- ------ ------<br>--- ----- -- ----,199667.4800000037,199666.01000000082,199401.714,199415.88000000047,199418.299,199685.091,,23,a
screen,html.Screen,1_1_0_1_24,2021-04-22T00:50:02.863Z,,,,,,,,,,,,,,,,53,,,,,,,,,,,,,,278.8940000021539,,response,,,,99,,,,,,,Space,keypress(Space),,,,,,,,---- -- ----- -- ------ - ------- --- ----------<br>------------- ------ ------ ---- ---- ------- ----- -- ----<br>-------- ------- -- ---------- --- - new ----- ----- ----<br>---- --- --- ----- --- ---- ---- ------- ----- ---- -------<br>--- --- -- ----- -- --- ---- -- --- ---- -- ------ ------<br>--- ----- -- ----,199965.40999999706,199963.98500000214,199668.45,199667.94500000105,199685.091,199968.055,,24,new
screen,html.Screen,1_1_0_1_25,2021-04-22T00:50:03.130Z,,,,,,,,,,,,,,,,53,,,,,,,,,,,,,,263.0699999984354,,response,,,,99,,,,,,,Space,keypress(Space),,,,,,,,---- -- ----- -- ------ - ------- --- ----------<br>------------- ------ ------ ---- ---- ------- ----- -- ----<br>-------- ------- -- ---------- --- - --- study ----- ----<br>---- --- --- ----- --- ---- ---- ------- ----- ---- -------<br>--- --- -- ----- -- --- ---- -- --- ---- -- ------ ------<br>--- ----- -- ----,200232.51000000164,200231.12499999843,199951.686,199965.8750000017,199968.055,200254.116,,25,study
screen,html.Screen,1_1_0_1_26,2021-04-22T00:50:03.434Z,,,,,,,,,,,,,,,,53,,,,,,,,,,,,,,280.8039999982284,,response,,,,99,,,,,,,Space,keypress(Space),,,,,,,,---- -- ----- -- ------ - ------- --- ----------<br>------------- ------ ------ ---- ---- ------- ----- -- ----<br>-------- ------- -- ---------- --- - --- ----- finds ----<br>---- --- --- ----- --- ---- ---- ------- ----- ---- -------<br>--- --- -- ----- -- --- ---- -- --- ---- -- ------ ------<br>--- ----- -- ----,200536.460000003,200534.91999999824,200218.211,200232.974999999,200254.116,200551.145,,26,finds
screen,html.Screen,1_1_0_1_27,2021-04-22T00:50:03.753Z,,,,,,,,,,,,,,,,53,,,,,,,,,,,,,,302.4500000005064,,response,,,,99,,,,,,,Space,keypress(Space),,,,,,,,---- -- ----- -- ------ - ------- --- ----------<br>------------- ------ ------ ---- ---- ------- ----- -- ----<br>-------- ------- -- ---------- --- - --- ----- ----- that<br>---- --- --- ----- --- ---- ---- ------- ----- ---- -------<br>--- --- -- ----- -- --- ---- -- --- ---- -- ------ ------<br>--- ----- -- ----,200855.16500000085,200853.5950000005,200534.733,200536.89999999915,200551.145,200867.721,,27,that
screen,html.Screen,1_1_0_1_28,2021-04-22T00:50:04.007Z,,,,,,,,,,,,,,,,53,,,,,,,,,,,,,,239.9890000038722,,response,,,,99,,,,,,,Space,keypress(Space),,,,,,,,---- -- ----- -- ------ - ------- --- ----------<br>------------- ------ ------ ---- ---- ------- ----- -- ----<br>-------- ------- -- ---------- --- - --- ----- ----- ----<br>it's --- --- ----- --- ---- ---- ------- ----- ---- -------<br>--- --- -- ----- -- --- ---- -- --- ---- -- ------ ------<br>--- ----- -- ----,201109.14000000048,201107.71000000386,200851.284,200855.6299999982,200867.721,201117.555,,28,it's
screen,html.Screen,1_1_0_1_29,2021-04-22T00:50:04.234Z,,,,,,,,,,,,,,,,53,,,,,,,,,,,,,,216.19499999796972,,response,,,,99,,,,,,,Space,keypress(Space),,,,,,,,---- -- ----- -- ------ - ------- --- ----------<br>------------- ------ ------ ---- ---- ------- ----- -- ----<br>-------- ------- -- ---------- --- - --- ----- ----- ----<br>---- not --- ----- --- ---- ---- ------- ----- ---- -------<br>--- --- -- ----- -- --- ---- -- --- ---- -- ------ ------<br>--- ----- -- ----,201335.6849999982,201333.74999999796,201101.188,201109.60999999952,201117.555,201350.784,,29,not
screen,html.Screen,1_1_0_1_30,2021-04-22T00:50:04.466Z,,,,,,,,,,,,,,,,53,,,,,,,,,,,,,,215.69099999961327,,response,,,,99,,,,,,,Space,keypress(Space),,,,,,,,---- -- ----- -- ------ - ------- --- ----------<br>------------- ------ ------ ---- ---- ------- ----- -- ----<br>-------- ------- -- ---------- --- - --- ----- ----- ----<br>---- --- how ----- --- ---- ---- ------- ----- ---- -------<br>--- --- -- ----- -- --- ---- -- --- ---- -- ------ ------<br>--- ----- -- ----,201567.90000000183,201566.47499999963,201334.381,201336.16500000062,201350.784,201583.996,,30,how
screen,html.Screen,1_1_0_1_31,2021-04-22T00:50:04.698Z,,,,,,,,,,,,,,,,53,,,,,,,,,,,,,,214.24899999811896,,response,,,,99,,,,,,,Space,keypress(Space),,,,,,,,---- -- ----- -- ------ - ------- --- ----------<br>------------- ------ ------ ---- ---- ------- ----- -- ----<br>-------- ------- -- ---------- --- - --- ----- ----- ----<br>---- --- --- close --- ---- ---- ------- ----- ---- -------<br>--- --- -- ----- -- --- ---- -- --- ---- -- ------ ------<br>--- ----- -- ----,201800.19000000175,201798.24499999813,201567.635,201572.18499999726,201583.996,201817.516,,31,close
screen,html.Screen,1_1_0_1_32,2021-04-22T00:50:04.936Z,,,,,,,,,,,,,,,,53,,,,,,,,,,,,,,218.8940000006114,,response,,,,99,,,,,,,Space,keypress(Space),,,,,,,,---- -- ----- -- ------ - ------- --- ----------<br>------------- ------ ------ ---- ---- ------- ----- -- ----<br>-------- ------- -- ---------- --- - --- ----- ----- ----<br>---- --- --- ----- you ---- ---- ------- ----- ---- -------<br>--- --- -- ----- -- --- ---- -- --- ---- -- ------ ------<br>--- ----- -- ----,202037.8849999979,202036.41000000061,201800.836,201800.6349999996,201817.516,202050.549,,32,you
screen,html.Screen,1_1_0_1_33,2021-04-22T00:50:05.198Z,,,,,,,,,,,,,,,,53,,,,,,,,,,,,,,248.17600000055972,,response,,,,99,,,,,,,Space,keypress(Space),,,,,,,,---- -- ----- -- ------ - ------- --- ----------<br>------------- ------ ------ ---- ---- ------- ----- -- ----<br>-------- ------- -- ---------- --- - --- ----- ----- ----<br>---- --- --- ----- --- feel ---- ------- ----- ---- -------<br>--- --- -- ----- -- --- ---- -- --- ---- -- ------ ------<br>--- ----- -- ----,202300.23000000074,202298.72500000056,202034.092,202038.31999999966,202050.549,202317.322,,33,feel
screen,html.Screen,1_1_0_1_34,2021-04-22T00:50:05.455Z,,,,,,,,,,,,,,,,53,,,,,,,,,,,,,,238.29799999919487,,response,,,,99,,,,,,,Space,keypress(Space),,,,,,,,---- -- ----- -- ------ - ------- --- ----------<br>------------- ------ ------ ---- ---- ------- ----- -- ----<br>-------- ------- -- ---------- --- - --- ----- ----- ----<br>---- --- --- ----- --- ---- that ------- ----- ---- -------<br>--- --- -- ----- -- --- ---- -- --- ---- -- ------ ------<br>--- ----- -- ----,202557.04500000138,202555.61999999918,202300.619,202300.68500000198,202317.322,202566.948,,34,that
screen,html.Screen,1_1_0_1_35,2021-04-22T00:50:05.702Z,,,,,,,,,,,,,,,,53,,,,,,,,,,,,,,236.10700000394718,,response,,,,99,,,,,,,Space,keypress(Space),,,,,,,,---- -- ----- -- ------ - ------- --- ----------<br>------------- ------ ------ ---- ---- ------- ----- -- ----<br>-------- ------- -- ---------- --- - --- ----- ----- ----<br>---- --- --- ----- --- ---- ---- matters ----- ---- -------<br>--- --- -- ----- -- --- ---- -- --- ---- -- ------ ------<br>--- ----- -- ----,202804.52499999956,202803.05500000395,202550.539,202557.47500000143,202566.948,202816.958,,35,matters
screen,html.Screen,1_1_0_1_36,2021-04-22T00:50:05.970Z,,,,,,,,,,,,,,,,53,,,,,,,,,,,,,,253.42699999906472,,response,,,,99,,,,,,,Space,keypress(Space),,,,,,,,"---- -- ----- -- ------ - ------- --- ----------<br>------------- ------ ------ ---- ---- ------- ----- -- ----<br>-------- ------- -- ---------- --- - --- ----- ----- ----<br>---- --- --- ----- --- ---- ---- ------- most, ---- -------<br>--- --- -- ----- -- --- ---- -- --- ---- -- ------ ------<br>--- ----- -- ----",203071.83999999688,203070.38499999908,202800.224,202807.11000000156,202816.958,203083.325,,36,"most,"
screen,html.Screen,1_1_0_1_37,2021-04-22T00:50:06.249Z,,,,,,,,,,,,,,,,53,,,,,,,,,,,,,,266.23000000067987,,response,,,,99,,,,,,,Space,keypress(Space),,,,,,,,---- -- ----- -- ------ - ------- --- ----------<br>------------- ------ ------ ---- ---- ------- ----- -- ----<br>-------- ------- -- ---------- --- - --- ----- ----- ----<br>---- --- --- ----- --- ---- ---- ------- ----- it's -------<br>--- --- -- ----- -- --- ---- -- --- ---- -- ------ ------<br>--- ----- -- ----,203350.9950000007,203349.5550000007,203066.99,203072.3100000032,203083.325,203366.827,,37,it's
screen,html.Screen,1_1_0_1_38,2021-04-22T00:50:06.540Z,,,,,,,,,,,,,,,,53,,,,,,,,,,,,,,273.5080000036978,,response,,,,99,,,,,,,Space,keypress(Space),,,,,,,,---- -- ----- -- ------ - ------- --- ----------<br>------------- ------ ------ ---- ---- ------- ----- -- ----<br>-------- ------- -- ---------- --- - --- ----- ----- ----<br>---- --- --- ----- --- ---- ---- ------- ----- ---- whether<br>--- --- -- ----- -- --- ---- -- --- ---- -- ------ ------<br>--- ----- -- ----,203641.7900000015,203640.3350000037,203350.149,203351.42500000075,203366.827,203649.763,,38,whether
screen,html.Screen,1_1_0_1_39,2021-04-22T00:50:06.789Z,,,,,,,,,,,,,,,,53,,,,,,,,,,,,,,239.3670000031998,,response,,,,99,,,,,,,Space,keypress(Space),,,,,,,,---- -- ----- -- ------ - ------- --- ----------<br>------------- ------ ------ ---- ---- ------- ----- -- ----<br>-------- ------- -- ---------- --- - --- ----- ----- ----<br>---- --- --- ----- --- ---- ---- ------- ----- ---- -------<br>you --- -- ----- -- --- ---- -- --- ---- -- ------ ------<br>--- ----- -- ----,203890.78999999765,203889.1300000032,203633.387,203642.22500000324,203649.763,203899.649,,39,you
screen,html.Screen,1_1_0_1_40,2021-04-22T00:50:07.052Z,,,,,,,,,,,,,,,,53,,,,,,,,,,,,,,253.05099999872618,,response,,,,99,,,,,,,Space,keypress(Space),,,,,,,,---- -- ----- -- ------ - ------- --- ----------<br>------------- ------ ------ ---- ---- ------- ----- -- ----<br>-------- ------- -- ---------- --- - --- ----- ----- ----<br>---- --- --- ----- --- ---- ---- ------- ----- ---- -------<br>--- are -- ----- -- --- ---- -- --- ---- -- ------ ------<br>--- ----- -- ----,204154.1950000028,204152.69999999873,203883.245,203891.2449999989,203899.649,204166.231,,40,are
screen,html.Screen,1_1_0_1_41,2021-04-22T00:50:07.301Z,,,,,,,,,,,,,,,,53,,,,,,,,,,,,,,235.38400000249385,,response,,,,99,,,,,,,Space,keypress(Space),,,,,,,,---- -- ----- -- ------ - ------- --- ----------<br>------------- ------ ------ ---- ---- ------- ----- -- ----<br>-------- ------- -- ---------- --- - --- ----- ----- ----<br>---- --- --- ----- --- ---- ---- ------- ----- ---- -------<br>--- --- as ----- -- --- ---- -- --- ---- -- ------ ------<br>--- ----- -- ----,204403.11500000098,204401.6150000025,204149.794,204154.63499999896,204166.231,204416.163,,41,as
screen,html.Screen,1_1_0_1_42,2021-04-22T00:50:07.534Z,,,,,,,,,,,,,,,,53,,,,,,,,,,,,,,212.811999999627,,response,,,,99,,,,,,,Space,keypress(Space),,,,,,,,---- -- ----- -- ------ - ------- --- ----------<br>------------- ------ ------ ---- ---- ------- ----- -- ----<br>-------- ------- -- ---------- --- - --- ----- ----- ----<br>---- --- --- ----- --- ---- ---- ------- ----- ---- -------<br>--- --- -- close -- --- ---- -- --- ---- -- ------ ------<br>--- ----- -- ----,204635.95499999792,204628.97499999963,204399.689,204403.57000000222,204416.163,204649.274,,42,close
screen,html.Screen,1_1_0_1_43,2021-04-22T00:50:07.766Z,,,,,,,,,,,,,,,,53,,,,,,,,,,,,,,217.2359999998298,,response,,,,99,,,,,,,Space,keypress(Space),,,,,,,,---- -- ----- -- ------ - ------- --- ----------<br>------------- ------ ------ ---- ---- ------- ----- -- ----<br>-------- ------- -- ---------- --- - --- ----- ----- ----<br>---- --- --- ----- --- ---- ---- ------- ----- ---- -------<br>--- --- -- ----- as --- ---- -- --- ---- -- ------ ------<br>--- ----- -- ----,204868.54999999923,204866.50999999983,204632.917,204636.43500000035,204649.274,204882.624,,43,as
screen,html.Screen,1_1_0_1_44,2021-04-22T00:50:07.993Z,,,,,,,,,,,,,,,,53,,,,,,,,,,,,,,210.94599999726051,,response,,,,99,,,,,,,Space,keypress(Space),,,,,,,,---- -- ----- -- ------ - ------- --- ----------<br>------------- ------ ------ ---- ---- ------- ----- -- ----<br>-------- ------- -- ---------- --- - --- ----- ----- ----<br>---- --- --- ----- --- ---- ---- ------- ----- ---- -------<br>--- --- -- ----- -- you ---- -- --- ---- -- ------ ------<br>--- ----- -- ----,205095.03000000404,205093.56999999727,204866.147,204868.95000000368,204882.624,205099.104,,44,you
screen,html.Screen,1_1_0_1_45,2021-04-22T00:50:08.211Z,,,,,,,,,,,,,,,,53,,,,,,,,,,,,,,212.64099999907194,,response,,,,99,,,,,,,Space,keypress(Space),,,,,,,,---- -- ----- -- ------ - ------- --- ----------<br>------------- ------ ------ ---- ---- ------- ----- -- ----<br>-------- ------- -- ---------- --- - --- ----- ----- ----<br>---- --- --- ----- --- ---- ---- ------- ----- ---- -------<br>--- --- -- ----- -- --- want -- --- ---- -- ------ ------<br>--- ----- -- ----,205313.22000000364,205311.74499999906,205082.714,205095.43999999732,205099.104,205315.677,,45,want
screen,html.Screen,1_1_0_1_46,2021-04-22T00:50:08.438Z,,,,,,,,,,,,,,,,53,,,,,,,,,,,,,,223.1329999981972,,response,,,,99,,,,,,,Space,keypress(Space),,,,,,,,---- -- ----- -- ------ - ------- --- ----------<br>------------- ------ ------ ---- ---- ------- ----- -- ----<br>-------- ------- -- ---------- --- - --- ----- ----- ----<br>---- --- --- ----- --- ---- ---- ------- ----- ---- -------<br>--- --- -- ----- -- --- ---- to --- ---- -- ------ ------<br>--- ----- -- ----,205540.33499999787,205538.8099999982,205299.285,205313.6400000003,205315.677,205548.895,,46,to
screen,html.Screen,1_1_0_1_47,2021-04-22T00:50:08.642Z,,,,,,,,,,,,,,,,53,,,,,,,,,,,,,,193.6649999987858,,response,,,,99,,,,,,,Space,keypress(Space),,,,,,,,"---- -- ----- -- ------ - ------- --- ----------<br>------------- ------ ------ ---- ---- ------- ----- -- ----<br>-------- ------- -- ---------- --- - --- ----- ----- ----<br>---- --- --- ----- --- ---- ---- ------- ----- ---- -------<br>--- --- -- ----- -- --- ---- -- be, ---- -- ------ ------<br>--- ----- -- ----",205743.9749999976,205742.55999999878,205532.512,205540.75000000012,205548.895,205748.819,,47,"be,"
screen,html.Screen,1_1_0_1_48,2021-04-22T00:50:08.868Z,,,,,,,,,,,,,,,,53,,,,,,,,,,,,,,220.12099999884958,,response,,,,99,,,,,,,Space,keypress(Space),,,,,,,,---- -- ----- -- ------ - ------- --- ----------<br>------------- ------ ------ ---- ---- ------- ----- -- ----<br>-------- ------- -- ---------- --- - --- ----- ----- ----<br>---- --- --- ----- --- ---- ---- ------- ----- ---- -------<br>--- --- -- ----- -- --- ---- -- --- even -- ------ ------<br>--- ----- -- ----,205970.40500000003,205968.93999999884,205732.54,205744.38000000373,205748.819,205982.131,,48,even
screen,html.Screen,1_1_0_1_49,2021-04-22T00:50:09.112Z,,,,,,,,,,,,,,,,53,,,,,,,,,,,,,,230.12399999855552,,response,,,,99,,,,,,,Space,keypress(Space),,,,,,,,---- -- ----- -- ------ - ------- --- ----------<br>------------- ------ ------ ---- ---- ------- ----- -- ----<br>-------- ------- -- ---------- --- - --- ----- ----- ----<br>---- --- --- ----- --- ---- ---- ------- ----- ---- -------<br>--- --- -- ----- -- --- ---- -- --- ---- if ------ ------<br>--- ----- -- ----,206213.75999999873,206212.25499999855,205965.653,205970.81500000058,205982.131,206245.744,,49,if
screen,html.Screen,1_1_0_1_50,2021-04-22T00:50:09.366Z,,,,,,,,,,,,,,,,53,,,,,,,,,,,,,,220.9060000021127,,response,,,,99,,,,,,,Space,keypress(Space),,,,,,,,---- -- ----- -- ------ - ------- --- ----------<br>------------- ------ ------ ---- ---- ------- ----- -- ----<br>-------- ------- -- ---------- --- - --- ----- ----- ----<br>---- --- --- ----- --- ---- ---- ------- ----- ---- -------<br>--- --- -- ----- -- --- ---- -- --- ---- -- that's ------<br>--- ----- -- ----,206468.10499999992,206466.65000000212,206198.893,206214.1649999976,206245.744,206481.92,,50,that's
screen,html.Screen,1_1_0_1_51,2021-04-22T00:50:09.583Z,,,,,,,,,,,,,,,,53,,,,,,,,,,,,,,201.4899999978079,,response,,,,99,,,,,,,Space,keypress(Space),,,,,,,,---- -- ----- -- ------ - ------- --- ----------<br>------------- ------ ------ ---- ---- ------- ----- -- ----<br>-------- ------- -- ---------- --- - --- ----- ----- ----<br>---- --- --- ----- --- ---- ---- ------- ----- ---- -------<br>--- --- -- ----- -- --- ---- -- --- ---- -- ------ really<br>--- ----- -- ----,206684.76999999984,206683.40999999782,206465.434,206468.52500000386,206481.92,206698.495,,51,really
screen,html.Screen,1_1_0_1_52,2021-04-22T00:50:09.830Z,,,,,,,,,,,,,,,,53,,,,,,,,,,,,,,232.37999999820022,,response,,,,99,,,,,,,Space,keypress(Space),,,,,,,,---- -- ----- -- ------ - ------- --- ----------<br>------------- ------ ------ ---- ---- ------- ----- -- ----<br>-------- ------- -- ---------- --- - --- ----- ----- ----<br>---- --- --- ----- --- ---- ---- ------- ----- ---- -------<br>--- --- -- ----- -- --- ---- -- --- ---- -- ------ ------<br>not ----- -- ----,206932.39000000176,206930.8749999982,206681.999,206685.1749999987,206698.495,206948.571,,52,not
screen,html.Screen,1_1_0_1_53,2021-04-22T00:50:10.074Z,,,,,,,,,,,,,,,,53,,,,,,,,,,,,,,226.40900000341935,,response,,,,99,,,,,,,Space,keypress(Space),,,,,,,,---- -- ----- -- ------ - ------- --- ----------<br>------------- ------ ------ ---- ---- ------- ----- -- ----<br>-------- ------- -- ---------- --- - --- ----- ----- ----<br>---- --- --- ----- --- ---- ---- ------- ----- ---- -------<br>--- --- -- ----- -- --- ---- -- --- ---- -- ------ ------<br>--- close -- ----,207176.35000000155,207174.98000000342,206931.897,206932.79500000062,206948.571,207181.527,,53,close
screen,html.Screen,1_1_0_1_54,2021-04-22T00:50:10.327Z,,,,,,,,,,,,,,,,53,,,,,,,,,,,,,,245.74300000013318,,response,,,,99,,,,,,,Space,keypress(Space),,,,,,,,---- -- ----- -- ------ - ------- --- ----------<br>------------- ------ ------ ---- ---- ------- ----- -- ----<br>-------- ------- -- ---------- --- - --- ----- ----- ----<br>---- --- --- ----- --- ---- ---- ------- ----- ---- -------<br>--- --- -- ----- -- --- ---- -- --- ---- -- ------ ------<br>--- ----- at ----,207428.66499999946,207427.27000000014,207165.15,207176.7550000004,207181.527,207431.404,,54,at
screen,html.Screen,1_1_0_1_55,2021-04-22T00:50:10.586Z,,,,,,,,,,,,,,,,53,,,,,,,,,,,,,,255.11100000122678,,response,,,,99,,,,,,,Space,keypress(Space),,,,,,,,---- -- ----- -- ------ - ------- --- ----------<br>------------- ------ ------ ---- ---- ------- ----- -- ----<br>-------- ------- -- ---------- --- - --- ----- ----- ----<br>---- --- --- ----- --- ---- ---- ------- ----- ---- -------<br>--- --- -- ----- -- --- ---- -- --- ---- -- ------ ------<br>--- ----- -- all.,207688.00000000192,207686.51500000124,207414.794,207429.06999999832,207431.404,207714.645,,55,all.
Item 99,flow.Loop,1_1_0_1,2021-04-22T00:50:10.587Z,,,,,,,,,,,,,,,,,,,,,,,,,,,,,,15081.91500000123,,completion,,,,,D,,,,,,,,,,,silence,,,,,207688.84499999695,207686.51500000124,192538.32,192540.4600000038,192604.6,207714.645,,,
Question 1,html.Screen,1_1_0_2,2021-04-22T00:50:14.176Z,,,,,,,,,,,,,,,,,,,,,,,,,,,true,FALSE,,3560.749999996944,,response,,,,99,D,,,,,,FALSE,click #choice-2,,,,silence,,,,,211277.84000000247,211275.39499999693,207681.557,207689.2549999975,207714.645,211279.683,,,
Question 2,html.Screen,1_1_0_3,2021-04-22T00:50:19.023Z,,,,,,,,,,,,,,,,,,,,,,,,,,,false,TRUE,,4843.101999999577,,response,,,,99,D,,,,,,FALSE,click #choice-2,,,,silence,,,,,216125.039999999,216122.78499999957,211263.301,211278.29999999813,211279.683,216127.511,,,
Item 99,flow.Sequence,1_1_0,2021-04-22T00:50:19.024Z,,,,,,,,,,,,,,,,,,,,,,,,,,,,,,33563.63799999957,,completion,,,,,,,,,,,,,,,,,,,,,216125.69999999687,216122.78499999957,182542.732,182555.10499999946,182559.147,216127.511,,,
Holding screen,html.Screen,1_1_1_0,2021-04-22T00:50:29.007Z,,,,,,,,,,,,,,,,,,,,,,,,,,,,,,9995.592000000004,,timeout,,,,,,,,,,,,,,,,,,,,,226108.41500000242,226106.729,216111.272,216126.1799999993,216127.511,226123.103,,,
screen,html.Screen,1_1_1_1_0,2021-04-22T00:50:30.152Z,,,,,,,,,,,,,,,,54,,,,,,,,,,,,,,1128.9369999993942,,response,,,,100,,,,,,,Space,keypress(Space),,,,,,,,At --- ---- --- ------ ----- ------- ---- -- --- ------- --<br>------- ---------- ------ -- ----- -- ----- -- ---- ------<br>--- ----- --- --- ------ -------- ----- --- ------ ----- --<br>----- ----- ---------- --- --- ------ ------ ---- -- ------<br>------- --- ------ ----- --- ---- ------- -- ---- --- --<br>------- ------,227253.95500000013,227252.0399999994,226106.729,226109.17499999778,226123.103,227255.933,,0,At
screen,html.Screen,1_1_1_1_1,2021-04-22T00:50:30.473Z,,,,,,,,,,,,,,,,54,,,,,,,,,,,,,,317.6569999999774,,response,,,,100,,,,,,,Space,keypress(Space),,,,,,,,-- the ---- --- ------ ----- ------- ---- -- --- ------- --<br>------- ---------- ------ -- ----- -- ----- -- ---- ------<br>--- ----- --- --- ------ -------- ----- --- ------ ----- --<br>----- ----- ---------- --- --- ------ ------ ---- -- ------<br>------- --- ------ ----- --- ---- ------- -- ---- --- --<br>------- ------,227574.9649999998,227573.58999999997,227239.516,227254.43500000256,227255.933,227589.268,,1,the
screen,html.Screen,1_1_1_1_2,2021-04-22T00:50:30.725Z,,,,,,,,,,,,,,,,54,,,,,,,,,,,,,,236.01199999728124,,response,,,,100,,,,,,,Space,keypress(Space),,,,,,,,-- --- time --- ------ ----- ------- ---- -- --- ------- --<br>------- ---------- ------ -- ----- -- ----- -- ---- ------<br>--- ----- --- --- ------ -------- ----- --- ------ ----- --<br>----- ----- ---------- --- --- ------ ------ ---- -- ------<br>------- --- ------ ----- --- ---- ------- -- ---- --- --<br>------- ------,227826.71500000288,227825.2799999973,227572.718,227575.38500000373,227589.268,227839.085,,2,time
screen,html.Screen,1_1_1_1_3,2021-04-22T00:50:31.014Z,,,,,,,,,,,,,,,,54,,,,,,,,,,,,,,275.0050000027695,,response,,,,100,,,,,,,Space,keypress(Space),,,,,,,,-- --- ---- the ------ ----- ------- ---- -- --- ------- --<br>------- ---------- ------ -- ----- -- ----- -- ---- ------<br>--- ----- --- --- ------ -------- ----- --- ------ ----- --<br>----- ----- ---------- --- --- ------ ------ ---- -- ------<br>------- --- ------ ----- --- ---- ------- -- ---- --- --<br>------- ------,228115.55500000395,228114.09000000276,227822.766,227827.12500000343,227839.085,228122.23,,3,the
screen,html.Screen,1_1_1_1_4,2021-04-22T00:50:31.296Z,,,,,,,,,,,,,,,,54,,,,,,,,,,,,,,273.7399999977497,,response,,,,100,,,,,,,Space,keypress(Space),,,,,,,,-- --- ---- --- French ----- ------- ---- -- --- ------- --<br>------- ---------- ------ -- ----- -- ----- -- ---- ------<br>--- ----- --- --- ------ -------- ----- --- ------ ----- --<br>----- ----- ---------- --- --- ------ ------ ---- -- ------<br>------- --- ------ ----- --- ---- ------- -- ---- --- --<br>------- ------,228397.42500000284,228395.96999999776,228105.818,228116.07999999978,228122.23,228405.424,,4,French
screen,html.Screen,1_1_1_1_5,2021-04-22T00:50:31.605Z,,,,,,,,,,,,,,,,54,,,,,,,,,,,,,,299.466000000888,,response,,,,100,,,,,,,Space,keypress(Space),,,,,,,,-- --- ---- --- ------ crown ------- ---- -- --- ------- --<br>------- ---------- ------ -- ----- -- ----- -- ---- ------<br>--- ----- --- --- ------ -------- ----- --- ------ ----- --<br>----- ----- ---------- --- --- ------ ------ ---- -- ------<br>------- --- ------ ----- --- ---- ------- -- ---- --- --<br>------- ------,228706.38499999768,228704.8900000009,228389.077,228397.8350000034,228405.424,228722.22,,5,crown
screen,html.Screen,1_1_1_1_6,2021-04-22T00:50:31.862Z,,,,,,,,,,,,,,,,54,,,,,,,,,,,,,,240.54000000216183,,response,,,,100,,,,,,,Space,keypress(Space),,,,,,,,-- --- ---- --- ------ ----- secured ---- -- --- ------- --<br>------- ---------- ------ -- ----- -- ----- -- ---- ------<br>--- ----- --- --- ------ -------- ----- --- ------ ----- --<br>----- ----- ---------- --- --- ------ ------ ---- -- ------<br>------- --- ------ ----- --- ---- ------- -- ---- --- --<br>------- ------,228964.20000000217,228962.76000000216,228705.544,228706.79499999824,228722.22,228971.822,,6,secured
screen,html.Screen,1_1_1_1_7,2021-04-22T00:50:32.159Z,,,,,,,,,,,,,,,,54,,,,,,,,,,,,,,287.49300000298535,,response,,,,100,,,,,,,Space,keypress(Space),,,,,,,,-- --- ---- --- ------ ----- ------- much -- --- ------- --<br>------- ---------- ------ -- ----- -- ----- -- ---- ------<br>--- ----- --- --- ------ -------- ----- --- ------ ----- --<br>----- ----- ---------- --- --- ------ ------ ---- -- ------<br>------- --- ------ ----- --- ---- ------- -- ---- --- --<br>------- ------,229260.7199999984,229259.31500000297,228955.594,228964.62500000052,228971.822,229271.693,,7,much
screen,html.Screen,1_1_1_1_8,2021-04-22T00:50:32.503Z,,,,,,,,,,,,,,,,54,,,,,,,,,,,,,,331.7869999979448,,response,,,,100,,,,,,,Space,keypress(Space),,,,,,,,-- --- ---- --- ------ ----- ------- ---- of --- ------- --<br>------- ---------- ------ -- ----- -- ----- -- ---- ------<br>--- ----- --- --- ------ -------- ----- --- ------ ----- --<br>----- ----- ---------- --- --- ------ ------ ---- -- ------<br>------- --- ------ ----- --- ---- ------- -- ---- --- --<br>------- ------,229604.95999999694,229603.47999999794,229255.301,229261.12999999896,229271.693,229621.832,,8,of
screen,html.Screen,1_1_1_1_9,2021-04-22T00:50:32.826Z,,,,,,,,,,,,,,,,54,,,,,,,,,,,,,,304.5529999988503,,response,,,,100,,,,,,,Space,keypress(Space),,,,,,,,-- --- ---- --- ------ ----- ------- ---- -- its ------- --<br>------- ---------- ------ -- ----- -- ----- -- ---- ------<br>--- ----- --- --- ------ -------- ----- --- ------ ----- --<br>----- ----- ---------- --- --- ------ ------ ---- -- ------<br>------- --- ------ ----- --- ---- ------- -- ---- --- --<br>------- ------,229927.73000000307,229926.38499999885,229604.923,229605.3699999975,229621.832,229938.137,,9,its
screen,html.Screen,1_1_1_1_10,2021-04-22T00:50:33.063Z,,,,,,,,,,,,,,,,54,,,,,,,,,,,,,,225.4680000015651,,response,,,,100,,,,,,,Space,keypress(Space),,,,,,,,-- --- ---- --- ------ ----- ------- ---- -- --- revenue --<br>------- ---------- ------ -- ----- -- ----- -- ---- ------<br>--- ----- --- --- ------ -------- ----- --- ------ ----- --<br>----- ----- ---------- --- --- ------ ------ ---- -- ------<br>------- --- ------ ----- --- ---- ------- -- ---- --- --<br>------- ------,230164.98000000138,230163.60500000155,229921.696,229928.33000000246,229938.137,230171.302,,10,revenue
screen,html.Screen,1_1_1_1_11,2021-04-22T00:50:33.553Z,,,,,,,,,,,,,,,,54,,,,,,,,,,,,,,481.623000002146,,response,,,,100,,,,,,,Space,keypress(Space),,,,,,,,-- --- ---- --- ------ ----- ------- ---- -- --- ------- by<br>------- ---------- ------ -- ----- -- ----- -- ---- ------<br>--- ----- --- --- ------ -------- ----- --- ------ ----- --<br>----- ----- ---------- --- --- ------ ------ ---- -- ------<br>------- --- ------ ----- --- ---- ------- -- ---- --- --<br>------- ------,230654.40500000113,230652.92500000214,230155.109,230165.39500000363,230171.302,230671.358,,11,by
screen,html.Screen,1_1_1_1_12,2021-04-22T00:50:33.931Z,,,,,,,,,,,,,,,,54,,,,,,,,,,,,,,354.2369999991497,,response,,,,100,,,,,,,Space,keypress(Space),,,,,,,,-- --- ---- --- ------ ----- ------- ---- -- --- ------- --<br>issuing ---------- ------ -- ----- -- ----- -- ---- ------<br>--- ----- --- --- ------ -------- ----- --- ------ ----- --<br>----- ----- ---------- --- --- ------ ------ ---- -- ------<br>------- --- ------ ----- --- ---- ------- -- ---- --- --<br>------- ------,231032.984999998,231025.59499999916,230654.635,230654.8150000017,230671.358,231037.609,,12,issuing
screen,html.Screen,1_1_1_1_13,2021-04-22T00:50:34.175Z,,,,,,,,,,,,,,,,54,,,,,,,,,,,,,,237.5860000019893,,response,,,,100,,,,,,,Space,keypress(Space),,,,,,,,-- --- ---- --- ------ ----- ------- ---- -- --- ------- --<br>------- government ------ -- ----- -- ----- -- ---- ------<br>--- ----- --- --- ------ -------- ----- --- ------ ----- --<br>----- ----- ---------- --- --- ------ ------ ---- -- ------<br>------- --- ------ ----- --- ---- ------- -- ---- --- --<br>------- ------,231276.48000000045,231275.195000002,231021.207,231033.41499999806,231037.609,231287.448,,13,government
screen,html.Screen,1_1_1_1_14,2021-04-22T00:50:34.478Z,,,,,,,,,,,,,,,,54,,,,,,,,,,,,,,290.45200000386103,,response,,,,100,,,,,,,Space,keypress(Space),,,,,,,,-- --- ---- --- ------ ----- ------- ---- -- --- ------- --<br>------- ---------- bonds. -- ----- -- ----- -- ---- ------<br>--- ----- --- --- ------ -------- ----- --- ------ ----- --<br>----- ----- ---------- --- --- ------ ------ ---- -- ------<br>------- --- ------ ----- --- ---- ------- -- ---- --- --<br>------- ------,231579.34999999998,231577.90000000386,231271.124,231276.8950000027,231287.448,231587.357,,14,bonds.
screen,html.Screen,1_1_1_1_15,2021-04-22T00:50:34.806Z,,,,,,,,,,,,,,,,54,,,,,,,,,,,,,,318.83800000321935,,response,,,,100,,,,,,,Space,keypress(Space),,,,,,,,-- --- ---- --- ------ ----- ------- ---- -- --- ------- --<br>------- ---------- ------ In ----- -- ----- -- ---- ------<br>--- ----- --- --- ------ -------- ----- --- ------ ----- --<br>----- ----- ---------- --- --- ------ ------ ---- -- ------<br>------- --- ------ ----- --- ---- ------- -- ---- --- --<br>------- ------,231907.7000000034,231906.1950000032,231570.903,231579.76000000053,231587.357,231920.532,,15,In
screen,html.Screen,1_1_1_1_16,2021-04-22T00:50:35.154Z,,,,,,,,,,,,,,,,54,,,,,,,,,,,,,,333.2929999997723,,response,,,,100,,,,,,,Space,keypress(Space),,,,,,,,"-- --- ---- --- ------ ----- ------- ---- -- --- ------- --<br>------- ---------- ------ -- 1727, -- ----- -- ---- ------<br>--- ----- --- --- ------ -------- ----- --- ------ ----- --<br>----- ----- ---------- --- --- ------ ------ ---- -- ------<br>------- --- ------ ----- --- ---- ------- -- ---- --- --<br>------- ------",232255.34999999945,232253.82499999978,231903.901,231908.12500000175,231920.532,232270.746,,16,"1727,"
screen,html.Screen,1_1_1_1_17,2021-04-22T00:50:35.528Z,,,,,,,,,,,,,,,,54,,,,,,,,,,,,,,357.0540000020119,,response,,,,100,,,,,,,Space,keypress(Space),,,,,,,,-- --- ---- --- ------ ----- ------- ---- -- --- ------- --<br>------- ---------- ------ -- ----- in ----- -- ---- ------<br>--- ----- --- --- ------ -------- ----- --- ------ ----- --<br>----- ----- ---------- --- --- ------ ------ ---- -- ------<br>------- --- ------ ----- --- ---- ------- -- ---- --- --<br>------- ------,232629.2850000027,232627.80000000203,232254.146,232255.76,232270.746,232636.973,,17,in
screen,html.Screen,1_1_1_1_18,2021-04-22T00:50:35.866Z,,,,,,,,,,,,,,,,54,,,,,,,,,,,,,,329.27200000325684,,response,,,,100,,,,,,,Space,keypress(Space),,,,,,,,-- --- ---- --- ------ ----- ------- ---- -- --- ------- --<br>------- ---------- ------ -- ----- -- order -- ---- ------<br>--- ----- --- --- ------ -------- ----- --- ------ ----- --<br>----- ----- ---------- --- --- ------ ------ ---- -- ------<br>------- --- ------ ----- --- ---- ------- -- ---- --- --<br>------- ------,232967.8500000009,232966.24500000325,232620.494,232629.69500000327,232636.973,232992.102,,18,order
screen,html.Screen,1_1_1_1_19,2021-04-22T00:50:36.205Z,,,,,,,,,,,,,,,,54,,,,,,,,,,,,,,312.8879999968922,,response,,,,100,,,,,,,Space,keypress(Space),,,,,,,,-- --- ---- --- ------ ----- ------- ---- -- --- ------- --<br>------- ---------- ------ -- ----- -- ----- to ---- ------<br>--- ----- --- --- ------ -------- ----- --- ------ ----- --<br>----- ----- ---------- --- --- ------ ------ ---- -- ------<br>------- --- ------ ----- --- ---- ------- -- ---- --- --<br>------- ------,233306.4749999976,233304.9899999969,232953.654,232968.28000000096,232992.102,233319.985,,19,to
screen,html.Screen,1_1_1_1_20,2021-04-22T00:50:36.544Z,,,,,,,,,,,,,,,,54,,,,,,,,,,,,,,324.25500000145985,,response,,,,100,,,,,,,Space,keypress(Space),,,,,,,,-- --- ---- --- ------ ----- ------- ---- -- --- ------- --<br>------- ---------- ------ -- ----- -- ----- -- save ------<br>--- ----- --- --- ------ -------- ----- --- ------ ----- --<br>----- ----- ---------- --- --- ------ ------ ---- -- ------<br>------- --- ------ ----- --- ---- ------- -- ---- --- --<br>------- ------,233645.66000000195,233644.24000000145,233303.503,233306.88499999815,233319.985,233653.247,,20,save
screen,html.Screen,1_1_1_1_21,2021-04-22T00:50:36.831Z,,,,,,,,,,,,,,,,54,,,,,,,,,,,,,,278.36299999963376,,response,,,,100,,,,,,,Space,keypress(Space),,,,,,,,"-- --- ---- --- ------ ----- ------- ---- -- --- ------- --<br>------- ---------- ------ -- ----- -- ----- -- ---- money,<br>--- ----- --- --- ------ -------- ----- --- ------ ----- --<br>----- ----- ---------- --- --- ------ ------ ---- -- ------<br>------- --- ------ ----- --- ---- ------- -- ---- --- --<br>------- ------",233933.1450000027,233931.60999999964,233636.811,233646.0700000025,233653.247,233936.378,,21,"money,"
screen,html.Screen,1_1_1_1_22,2021-04-22T00:50:37.113Z,,,,,,,,,,,,,,,,54,,,,,,,,,,,,,,277.2370000005758,,response,,,,100,,,,,,,Space,keypress(Space),,,,,,,,-- --- ---- --- ------ ----- ------- ---- -- --- ------- --<br>------- ---------- ------ -- ----- -- ----- -- ---- ------<br>the ----- --- --- ------ -------- ----- --- ------ ----- --<br>----- ----- ---------- --- --- ------ ------ ---- -- ------<br>------- --- ------ ----- --- ---- ------- -- ---- --- --<br>------- ------,234215.0299999994,234213.61500000057,233919.922,233933.56499999936,233936.378,234219.505,,22,the
screen,html.Screen,1_1_1_1_23,2021-04-22T00:50:37.366Z,,,,,,,,,,,,,,,,54,,,,,,,,,,,,,,246.63000000239117,,response,,,,100,,,,,,,Space,keypress(Space),,,,,,,,-- --- ---- --- ------ ----- ------- ---- -- --- ------- --<br>------- ---------- ------ -- ----- -- ----- -- ---- ------<br>--- state --- --- ------ -------- ----- --- ------ ----- --<br>----- ----- ---------- --- --- ------ ------ ---- -- ------<br>------- --- ------ ----- --- ---- ------- -- ---- --- --<br>------- ------,234467.5750000024,234466.1350000024,234203.149,234215.44500000164,234219.505,234494.937,,23,state
screen,html.Screen,1_1_1_1_24,2021-04-22T00:50:37.644Z,,,,,,,,,,,,,,,,54,,,,,,,,,,,,,,249.54300000119838,,response,,,,100,,,,,,,Space,keypress(Space),,,,,,,,-- --- ---- --- ------ ----- ------- ---- -- --- ------- --<br>------- ---------- ------ -- ----- -- ----- -- ---- ------<br>--- ----- cut --- ------ -------- ----- --- ------ ----- --<br>----- ----- ---------- --- --- ------ ------ ---- -- ------<br>------- --- ------ ----- --- ---- ------- -- ---- --- --<br>------- ------,234745.9050000034,234744.4800000012,234452.794,234467.98500000295,234494.937,234752.598,,24,cut
screen,html.Screen,1_1_1_1_25,2021-04-22T00:50:37.906Z,,,,,,,,,,,,,,,,54,,,,,,,,,,,,,,253.8520000007702,,response,,,,100,,,,,,,Space,keypress(Space),,,,,,,,-- --- ---- --- ------ ----- ------- ---- -- --- ------- --<br>------- ---------- ------ -- ----- -- ----- -- ---- ------<br>--- ----- --- the ------ -------- ----- --- ------ ----- --<br>----- ----- ---------- --- --- ------ ------ ---- -- ------<br>------- --- ------ ----- --- ---- ------- -- ---- --- --<br>------- ------,235007.96000000264,235006.45000000077,234736.245,234746.33500000346,234752.598,235019.135,,25,the
screen,html.Screen,1_1_1_1_26,2021-04-22T00:50:38.235Z,,,,,,,,,,,,,,,,54,,,,,,,,,,,,,,316.5499999981839,,response,,,,100,,,,,,,Space,keypress(Space),,,,,,,,-- --- ---- --- ------ ----- ------- ---- -- --- ------- --<br>------- ---------- ------ -- ----- -- ----- -- ---- ------<br>--- ----- --- --- bonds' -------- ----- --- ------ ----- --<br>----- ----- ---------- --- --- ------ ------ ---- -- ------<br>------- --- ------ ----- --- ---- ------- -- ---- --- --<br>------- ------,235337.14000000327,235335.6849999982,235002.669,235008.3650000015,235019.135,235352.344,,26,bonds'
screen,html.Screen,1_1_1_1_27,2021-04-22T00:50:38.534Z,,,,,,,,,,,,,,,,54,,,,,,,,,,,,,,281.6910000027565,,response,,,,100,,,,,,,Space,keypress(Space),,,,,,,,-- --- ---- --- ------ ----- ------- ---- -- --- ------- --<br>------- ---------- ------ -- ----- -- ----- -- ---- ------<br>--- ----- --- --- ------ interest ----- --- ------ ----- --<br>----- ----- ---------- --- --- ------ ------ ---- -- ------<br>------- --- ------ ----- --- ---- ------- -- ---- --- --<br>------- ------,235635.48499999888,235634.03500000277,235336.012,235337.54500000214,235352.344,235652.476,,27,interest
screen,html.Screen,1_1_1_1_28,2021-04-22T00:50:38.852Z,,,,,,,,,,,,,,,,54,,,,,,,,,,,,,,299.3640000015439,,response,,,,100,,,,,,,Space,keypress(Space),,,,,,,,-- --- ---- --- ------ ----- ------- ---- -- --- ------- --<br>------- ---------- ------ -- ----- -- ----- -- ---- ------<br>--- ----- --- --- ------ -------- rate. --- ------ ----- --<br>----- ----- ---------- --- --- ------ ------ ---- -- ------<br>------- --- ------ ----- --- ---- ------- -- ---- --- --<br>------- ------,235953.24499999697,235951.84000000154,235635.676,235635.92500000232,235652.476,235968.831,,28,rate.
screen,html.Screen,1_1_1_1_29,2021-04-22T00:50:39.141Z,,,,,,,,,,,,,,,,54,,,,,,,,,,,,,,271.9290000005858,,response,,,,100,,,,,,,Space,keypress(Space),,,,,,,,-- --- ---- --- ------ ----- ------- ---- -- --- ------- --<br>------- ---------- ------ -- ----- -- ----- -- ---- ------<br>--- ----- --- --- ------ -------- ----- The ------ ----- --<br>----- ----- ---------- --- --- ------ ------ ---- -- ------<br>------- --- ------ ----- --- ---- ------- -- ---- --- --<br>------- ------,236242.24500000128,236240.7600000006,235952.343,235953.65999999922,235968.831,236251.942,,29,The
screen,html.Screen,1_1_1_1_30,2021-04-22T00:50:39.399Z,,,,,,,,,,,,,,,,54,,,,,,,,,,,,,,246.91799999968498,,response,,,,100,,,,,,,Space,keypress(Space),,,,,,,,-- --- ---- --- ------ ----- ------- ---- -- --- ------- --<br>------- ---------- ------ -- ----- -- ----- -- ---- ------<br>--- ----- --- --- ------ -------- ----- --- market ----- --<br>----- ----- ---------- --- --- ------ ------ ---- -- ------<br>------- --- ------ ----- --- ---- ------- -- ---- --- --<br>------- ------,236500.2650000024,236498.8599999997,236235.538,236242.65500000183,236251.942,236519.363,,30,market
screen,html.Screen,1_1_1_1_31,2021-04-22T00:50:39.420Z,,,,,,,,,,,,,,,,54,,,,,,,,,,,,,,0.8569999985047616,,response,,,,100,,,,,,,Space,keypress(Space),,,,,,,,-- --- ---- --- ------ ----- ------- ---- -- --- ------- --<br>------- ---------- ------ -- ----- -- ----- -- ---- ------<br>--- ----- --- --- ------ -------- ----- --- ------ value --<br>----- ----- ---------- --- --- ------ ------ ---- -- ------<br>------- --- ------ ----- --- ---- ------- -- ---- --- --<br>------- ------,236522.0449999979,236520.21999999852,236485.579,236500.69500000245,236519.363,236551.858,,31,value
screen,html.Screen,1_1_1_1_32,2021-04-22T00:50:39.694Z,,,,,,,,,,,,,,,,54,,,,,,,,,,,,,,242.19200000405544,,response,,,,100,,,,,,,Space,keypress(Space),,,,,,,,-- --- ---- --- ------ ----- ------- ---- -- --- ------- --<br>------- ---------- ------ -- ----- -- ----- -- ---- ------<br>--- ----- --- --- ------ -------- ----- --- ------ ----- of<br>----- ----- ---------- --- --- ------ ------ ---- -- ------<br>------- --- ------ ----- --- ---- ------- -- ---- --- --<br>------- ------,236795.28500000015,236794.05000000406,236535.424,236522.74500000203,236551.858,236801.692,,32,of
screen,html.Screen,1_1_1_1_33,2021-04-22T00:50:40.007Z,,,,,,,,,,,,,,,,54,,,,,,,,,,,,,,305.1730000015523,,response,,,,100,,,,,,,Space,keypress(Space),,,,,,,,-- --- ---- --- ------ ----- ------- ---- -- --- ------- --<br>------- ---------- ------ -- ----- -- ----- -- ---- ------<br>--- ----- --- --- ------ -------- ----- --- ------ ----- --<br>these ----- ---------- --- --- ------ ------ ---- -- ------<br>------- --- ------ ----- --- ---- ------- -- ---- --- --<br>------- ------,237108.36500000005,237106.86500000156,236785.101,236795.689999999,236801.692,237118.301,,33,these
screen,html.Screen,1_1_1_1_34,2021-04-22T00:50:40.260Z,,,,,,,,,,,,,,,,54,,,,,,,,,,,,,,242.04400000095484,,response,,,,100,,,,,,,Space,keypress(Space),,,,,,,,-- --- ---- --- ------ ----- ------- ---- -- --- ------- --<br>------- ---------- ------ -- ----- -- ----- -- ---- ------<br>--- ----- --- --- ------ -------- ----- --- ------ ----- --<br>----- bonds ---------- --- --- ------ ------ ---- -- ------<br>------- --- ------ ----- --- ---- ------- -- ---- --- --<br>------- ------,237361.7099999974,237360.34500000096,237101.623,237108.8000000018,237118.301,237368.073,,34,bonds
screen,html.Screen,1_1_1_1_35,2021-04-22T00:50:40.684Z,,,,,,,,,,,,,,,,54,,,,,,,,,,,,,,416.02200000270386,,response,,,,100,,,,,,,Space,keypress(Space),,,,,,,,"-- --- ---- --- ------ ----- ------- ---- -- --- ------- --<br>------- ---------- ------ -- ----- -- ----- -- ---- ------<br>--- ----- --- --- ------ -------- ----- --- ------ ----- --<br>----- ----- plummeted, --- --- ------ ------ ---- -- ------<br>------- --- ------ ----- --- ---- ------- -- ---- --- --<br>------- ------",237785.62500000407,237784.0950000027,237351.704,237362.11500000354,237368.073,237801.532,,35,"plummeted,"
screen,html.Screen,1_1_1_1_36,2021-04-22T00:50:40.931Z,,,,,,,,,,,,,,,,54,,,,,,,,,,,,,,229.50299999996787,,response,,,,100,,,,,,,Space,keypress(Space),,,,,,,,-- --- ---- --- ------ ----- ------- ---- -- --- ------- --<br>------- ---------- ------ -- ----- -- ----- -- ---- ------<br>--- ----- --- --- ------ -------- ----- --- ------ ----- --<br>----- ----- ---------- and --- ------ ------ ---- -- ------<br>------- --- ------ ----- --- ---- ------- -- ---- --- --<br>------- ------,238032.52500000235,238031.03499999997,237784.607,237786.04500000074,237801.532,238052.267,,36,and
screen,html.Screen,1_1_1_1_37,2021-04-22T00:50:41.228Z,,,,,,,,,,,,,,,,54,,,,,,,,,,,,,,276.1830000008922,,response,,,,100,,,,,,,Space,keypress(Space),,,,,,,,-- --- ---- --- ------ ----- ------- ---- -- --- ------- --<br>------- ---------- ------ -- ----- -- ----- -- ---- ------<br>--- ----- --- --- ------ -------- ----- --- ------ ----- --<br>----- ----- ---------- --- the ------ ------ ---- -- ------<br>------- --- ------ ----- --- ---- ------- -- ---- --- --<br>------- ------,238329.91500000207,238328.45000000088,238018.097,238032.94499999902,238052.267,238334.353,,37,the
screen,html.Screen,1_1_1_1_38,2021-04-22T00:50:41.572Z,,,,,,,,,,,,,,,,54,,,,,,,,,,,,,,337.5219999999972,,response,,,,100,,,,,,,Space,keypress(Space),,,,,,,,-- --- ---- --- ------ ----- ------- ---- -- --- ------- --<br>------- ---------- ------ -- ----- -- ----- -- ---- ------<br>--- ----- --- --- ------ -------- ----- --- ------ ----- --<br>----- ----- ---------- --- --- market ------ ---- -- ------<br>------- --- ------ ----- --- ---- ------- -- ---- --- --<br>------- ------,238673.36000000068,238671.875,238317.945,238330.33499999874,238334.353,238684.243,,38,market
screen,html.Screen,1_1_1_1_39,2021-04-22T00:50:41.915Z,,,,,,,,,,,,,,,,54,,,,,,,,,,,,,,330.9069999992789,,response,,,,100,,,,,,,Space,keypress(Space),,,,,,,,-- --- ---- --- ------ ----- ------- ---- -- --- ------- --<br>------- ---------- ------ -- ----- -- ----- -- ---- ------<br>--- ----- --- --- ------ -------- ----- --- ------ ----- --<br>----- ----- ---------- --- --- ------ became ---- -- ------<br>------- --- ------ ----- --- ---- ------- -- ---- --- --<br>------- ------,239016.53000000078,239015.14999999927,238667.786,238673.77000000124,238684.243,239050.973,,39,became
screen,html.Screen,1_1_1_1_40,2021-04-22T00:50:42.288Z,,,,,,,,,,,,,,,,54,,,,,,,,,,,,,,337.626999998407,,response,,,,100,,,,,,,Space,keypress(Space),,,,,,,,-- --- ---- --- ------ ----- ------- ---- -- --- ------- --<br>------- ---------- ------ -- ----- -- ----- -- ---- ------<br>--- ----- --- --- ------ -------- ----- --- ------ ----- --<br>----- ----- ---------- --- --- ------ ------ wary -- ------<br>------- --- ------ ----- --- ---- ------- -- ---- --- --<br>------- ------,239390.0550000035,239388.5999999984,239034.413,239016.95499999914,239050.973,239400.516,,40,wary
screen,html.Screen,1_1_1_1_41,2021-04-22T00:50:42.576Z,,,,,,,,,,,,,,,,54,,,,,,,,,,,,,,276.0290000020759,,response,,,,100,,,,,,,Space,keypress(Space),,,,,,,,-- --- ---- --- ------ ----- ------- ---- -- --- ------- --<br>------- ---------- ------ -- ----- -- ----- -- ---- ------<br>--- ----- --- --- ------ -------- ----- --- ------ ----- --<br>----- ----- ---------- --- --- ------ ------ ---- of ------<br>------- --- ------ ----- --- ---- ------- -- ---- --- --<br>------- ------,239677.9050000041,239676.54500000208,239384.159,239390.48000000184,239400.516,239683.746,,41,of
screen,html.Screen,1_1_1_1_42,2021-04-22T00:50:42.878Z,,,,,,,,,,,,,,,,54,,,,,,,,,,,,,,294.25899999719695,,response,,,,100,,,,,,,Space,keypress(Space),,,,,,,,-- --- ---- --- ------ ----- ------- ---- -- --- ------- --<br>------- ---------- ------ -- ----- -- ----- -- ---- ------<br>--- ----- --- --- ------ -------- ----- --- ------ ----- --<br>----- ----- ---------- --- --- ------ ------ ---- -- French<br>------- --- ------ ----- --- ---- ------- -- ---- --- --<br>------- ------,239979.37999999704,239978.0049999972,239667.349,239678.31499999738,239683.746,240000.554,,42,French
screen,html.Screen,1_1_1_1_43,2021-04-22T00:50:43.166Z,,,,,,,,,,,,,,,,54,,,,,,,,,,,,,,266.1209999989369,,response,,,,100,,,,,,,Space,keypress(Space),,,,,,,,-- --- ---- --- ------ ----- ------- ---- -- --- ------- --<br>------- ---------- ------ -- ----- -- ----- -- ---- ------<br>--- ----- --- --- ------ -------- ----- --- ------ ----- --<br>----- ----- ---------- --- --- ------ ------ ---- -- ------<br>credit. --- ------ ----- --- ---- ------- -- ---- --- --<br>------- ------,240268.14000000013,240266.67499999894,239983.844,239979.8099999971,240000.554,240283.566,,43,credit.
screen,html.Screen,1_1_1_1_44,2021-04-22T00:50:43.434Z,,,,,,,,,,,,,,,,54,,,,,,,,,,,,,,250.4939999981434,,response,,,,100,,,,,,,Space,keypress(Space),,,,,,,,-- --- ---- --- ------ ----- ------- ---- -- --- ------- --<br>------- ---------- ------ -- ----- -- ----- -- ---- ------<br>--- ----- --- --- ------ -------- ----- --- ------ ----- --<br>----- ----- ---------- --- --- ------ ------ ---- -- ------<br>------- The ------ ----- --- ---- ------- -- ---- --- --<br>------- ------,240535.5350000027,240534.05999999814,240266.833,240268.56000000407,240283.566,240550.114,,44,The
screen,html.Screen,1_1_1_1_45,2021-04-22T00:50:43.681Z,,,,,,,,,,,,,,,,54,,,,,,,,,,,,,,231.33100000052946,,response,,,,100,,,,,,,Space,keypress(Space),,,,,,,,-- --- ---- --- ------ ----- ------- ---- -- --- ------- --<br>------- ---------- ------ -- ----- -- ----- -- ---- ------<br>--- ----- --- --- ------ -------- ----- --- ------ ----- --<br>----- ----- ---------- --- --- ------ ------ ---- -- ------<br>------- --- French ----- --- ---- ------- -- ---- --- --<br>------- ------,240782.89000000223,240781.44500000053,240533.622,240535.94999999768,240550.114,240800.191,,45,French
screen,html.Screen,1_1_1_1_46,2021-04-22T00:50:43.938Z,,,,,,,,,,,,,,,,54,,,,,,,,,,,,,,238.19399999984307,,response,,,,100,,,,,,,Space,keypress(Space),,,,,,,,-- --- ---- --- ------ ----- ------- ---- -- --- ------- --<br>------- ---------- ------ -- ----- -- ----- -- ---- ------<br>--- ----- --- --- ------ -------- ----- --- ------ ----- --<br>----- ----- ---------- --- --- ------ ------ ---- -- ------<br>------- --- ------ state --- ---- ------- -- ---- --- --<br>------- ------,241039.81500000373,241038.38499999983,240783.392,240783.32000000228,240800.191,241049.887,,46,state
screen,html.Screen,1_1_1_1_47,2021-04-22T00:50:44.170Z,,,,,,,,,,,,,,,,54,,,,,,,,,,,,,,220.73300000297604,,response,,,,100,,,,,,,Space,keypress(Space),,,,,,,,-- --- ---- --- ------ ----- ------- ---- -- --- ------- --<br>------- ---------- ------ -- ----- -- ----- -- ---- ------<br>--- ----- --- --- ------ -------- ----- --- ------ ----- --<br>----- ----- ---------- --- --- ------ ------ ---- -- ------<br>------- --- ------ ----- was ---- ------- -- ---- --- --<br>------- ------,241272.04999999958,241270.62000000296,241033.433,241040.2299999987,241049.887,241283.095,,47,was
screen,html.Screen,1_1_1_1_48,2021-04-22T00:50:44.399Z,,,,,,,,,,,,,,,,54,,,,,,,,,,,,,,215.96000000022468,,response,,,,100,,,,,,,Space,keypress(Space),,,,,,,,-- --- ---- --- ------ ----- ------- ---- -- --- ------- --<br>------- ---------- ------ -- ----- -- ----- -- ---- ------<br>--- ----- --- --- ------ -------- ----- --- ------ ----- --<br>----- ----- ---------- --- --- ------ ------ ---- -- ------<br>------- --- ------ ----- --- left ------- -- ---- --- --<br>------- ------,241500.69500000245,241499.05500000023,241266.63,241272.46000000014,241283.095,241516.266,,48,left
screen,html.Screen,1_1_1_1_49,2021-04-22T00:50:44.603Z,,,,,,,,,,,,,,,,54,,,,,,,,,,,,,,186.694000002346,,response,,,,100,,,,,,,Space,keypress(Space),,,,,,,,-- --- ---- --- ------ ----- ------- ---- -- --- ------- --<br>------- ---------- ------ -- ----- -- ----- -- ---- ------<br>--- ----- --- --- ------ -------- ----- --- ------ ----- --<br>----- ----- ---------- --- --- ------ ------ ---- -- ------<br>------- --- ------ ----- --- ---- without -- ---- --- --<br>------- ------,241704.37500000116,241702.96000000235,241500.039,241501.1349999986,241516.266,241716.143,,49,without
screen,html.Screen,1_1_1_1_50,2021-04-22T00:50:44.810Z,,,,,,,,,,,,,,,,54,,,,,,,,,,,,,,193.80700000110664,,response,,,,100,,,,,,,Space,keypress(Space),,,,,,,,-- --- ---- --- ------ ----- ------- ---- -- --- ------- --<br>------- ---------- ------ -- ----- -- ----- -- ---- ------<br>--- ----- --- --- ------ -------- ----- --- ------ ----- --<br>----- ----- ---------- --- --- ------ ------ ---- -- ------<br>------- --- ------ ----- --- ---- ------- an ---- --- --<br>------- ------,241911.460000003,241909.95000000112,241699.598,241704.78500000172,241716.143,241916.059,,50,an
screen,html.Screen,1_1_1_1_51,2021-04-22T00:50:45.007Z,,,,,,,,,,,,,,,,54,,,,,,,,,,,,,,191.53099999960978,,response,,,,100,,,,,,,Space,keypress(Space),,,,,,,,-- --- ---- --- ------ ----- ------- ---- -- --- ------- --<br>------- ---------- ------ -- ----- -- ----- -- ---- ------<br>--- ----- --- --- ------ -------- ----- --- ------ ----- --<br>----- ----- ---------- --- --- ------ ------ ---- -- ------<br>------- --- ------ ----- --- ---- ------- -- easy --- --<br>------- ------,242109.1099999976,242107.58999999962,241899.529,241911.89000000304,241916.059,242115.993,,51,easy
screen,html.Screen,1_1_1_1_52,2021-04-22T00:50:45.206Z,,,,,,,,,,,,,,,,54,,,,,,,,,,,,,,189.9669999978796,,response,,,,100,,,,,,,Space,keypress(Space),,,,,,,,-- --- ---- --- ------ ----- ------- ---- -- --- ------- --<br>------- ---------- ------ -- ----- -- ----- -- ---- ------<br>--- ----- --- --- ------ -------- ----- --- ------ ----- --<br>----- ----- ---------- --- --- ------ ------ ---- -- ------<br>------- --- ------ ----- --- ---- ------- -- ---- way --<br>------- ------,242307.45000000024,242305.95999999787,242099.594,242109.6450000041,242115.993,242315.909,,52,way
screen,html.Screen,1_1_1_1_53,2021-04-22T00:50:45.403Z,,,,,,,,,,,,,,,,54,,,,,,,,,,,,,,187.1110000037297,,response,,,,100,,,,,,,Space,keypress(Space),,,,,,,,-- --- ---- --- ------ ----- ------- ---- -- --- ------- --<br>------- ---------- ------ -- ----- -- ----- -- ---- ------<br>--- ----- --- --- ------ -------- ----- --- ------ ----- --<br>----- ----- ---------- --- --- ------ ------ ---- -- ------<br>------- --- ------ ----- --- ---- ------- -- ---- --- of<br>------- ------,242504.52500000392,242503.02000000374,242299.398,242307.8650000025,242315.909,242515.844,,53,of
screen,html.Screen,1_1_1_1_54,2021-04-22T00:50:45.715Z,,,,,,,,,,,,,,,,54,,,,,,,,,,,,,,299.06600000095204,,response,,,,100,,,,,,,Space,keypress(Space),,,,,,,,-- --- ---- --- ------ ----- ------- ---- -- --- ------- --<br>------- ---------- ------ -- ----- -- ----- -- ---- ------<br>--- ----- --- --- ------ -------- ----- --- ------ ----- --<br>----- ----- ---------- --- --- ------ ------ ---- -- ------<br>------- --- ------ ----- --- ---- ------- -- ---- --- --<br>raising ------,242816.40999999945,242814.91000000096,242499.423,242504.9599999984,242515.844,242832.624,,54,raising
screen,html.Screen,1_1_1_1_55,2021-04-22T00:50:45.912Z,,,,,,,,,,,,,,,,54,,,,,,,,,,,,,,179.84600000147475,,response,,,,100,,,,,,,Space,keypress(Space),,,,,,,,-- --- ---- --- ------ ----- ------- ---- -- --- ------- --<br>------- ---------- ------ -- ----- -- ----- -- ---- ------<br>--- ----- --- --- ------ -------- ----- --- ------ ----- --<br>----- ----- ---------- --- --- ------ ------ ---- -- ------<br>------- --- ------ ----- --- ---- ------- -- ---- --- --<br>------- money.,243013.8300000035,243012.4700000015,242815.941,242816.8349999978,242832.624,243032.274,,55,money.
Item 100,flow.Loop,1_1_1_1,2021-04-22T00:50:45.913Z,,,,,,,,,,,,,,,,,,,,,,,,,,,,,,16889.367000001483,,completion,,,,,D,,,,,,,,,,,silence,,,,,243014.57500000106,243012.4700000015,226106.729,226109.01500000182,226123.103,243032.274,,,
Question 1,html.Screen,1_1_1_2,2021-04-22T00:50:48.728Z,,,,,,,,,,,,,,,,,,,,,,,,,,,true,TRUE,,2795.0109999993874,,response,,,,100,D,,,,,,TRUE,click #choice-1,,,,silence,,,,,245829.66499999748,245827.2849999994,243015.88,243014.94999999704,243032.274,245831.006,,,
Question 2,html.Screen,1_1_1_3,2021-04-22T00:50:51.486Z,,,,,,,,,,,,,,,,,,,,,,,,,,,true,FALSE,,2754.814000000246,,response,,,,100,D,,,,,,FALSE,click #choice-2,,,,silence,,,,,248587.98000000388,248585.82000000024,245814.655,245830.1350000038,245831.006,248596.464,,,
Item 100,flow.Sequence,1_1_1,2021-04-22T00:50:51.487Z,,,,,,,,,,,,,,,,,,,,,,,,,,,,,,32458.30900000024,,completion,,,,,,,,,,,,,,,,,,,,,248588.65499999956,248585.82000000024,216111.272,216126.04499999725,216127.511,248596.464,,,
End of Practice,html.Page,1_1_2,2021-04-22T00:50:55.128Z,,,,,,,,,,,,,,,,,,,,,,,,,,,,,,3632.671000001399,,form submission,,,,,,,,,,,,,,,,,,,,,252230.00499999762,252229.1350000014,248580.252,248589.01000000333,248596.464,252250.59,,,
Practice,flow.Sequence,1_1,2021-04-22T00:50:55.129Z,,,,,,,,,,,,,,,,,,,,,,,,,,,,,,69669.98800000141,,completion,,,,,,,,,,,,,,,,,,,,,252230.70500000176,252229.1350000014,182542.732,182554.92999999842,182559.147,252250.59,,,
Trap_instruction,html.Page,1_2_0,2021-04-22T00:50:58.418Z,,,,,,,,,,,,,,,,,,,,,,,,,,,,,,3268.7249999977357,,form submission,,,,,,,,,,,,,,,,,,,,,255520.0049999985,255519.31499999773,252211.477,252231.2099999981,252250.59,255576.681,,,
trap_trial,html.Screen,1_2_1,2021-04-22T00:51:02.752Z,,,,,,,,,,,,,,,,,,,,,,,,,,,false,1,,4275.103999998915,,response,,,,,,,,,,,2,click #choice-2,,,,,,,,,259853.93499999918,259851.78499999893,255510.11,255520.40500000294,255576.681,259858.128,,,
end of trap trial,html.Page,1_2_2,2021-04-22T00:51:05.320Z,,,,,,,,,,,,,,,,,,,,,,,,,,,,,,2562.7620000012394,,form submission,,,,,,,,,,,,,,,,,,,,,262421.5550000008,262420.89000000124,259841.734,259854.37999999704,259858.128,262423.643,,,
Trap 1,flow.Sequence,1_2,2021-04-22T00:51:05.320Z,,,,,,,,,,,,,,,,,,,,,,,,,,,,,,10170.30000000124,,completion,,,,,,,,,,,,,,,,,,,,,262422.1650000036,262420.89000000124,252211.477,252231.05000000214,252250.59,262423.643,,,
Standby,html.Page,1_3_0,2021-04-22T00:51:13.304Z,,,,,,,,,,,,,,,,,,,,,,,,,,,,,,7996.478000000003,,timeout,,,,,,,,,,,,,,,,,,,,,270405.3550000026,270403.709,262407.233,262422.6550000021,262423.643,270420.121,,,
Holding screen,html.Screen,1_3_1_0_0,2021-04-22T00:51:20.300Z,,,,,,,,,,,,,,,,,,,,,,,,,,,,,,6996.869999999995,,timeout,,,,,,,,,,,,,,,,,,,,,277402.2049999985,277400.608,270403.709,270406.11999999965,270420.121,277416.991,,,
screen,html.Screen,1_3_1_0_1_0,2021-04-22T00:51:20.928Z,,,,,,,,,,,,,,,,15,,,,,,,,,,,,,,610.4640000031213,,response,,,,7,D,,,,,,Space,keypress(Space),,,,silence,,,,Greg --------- ---------- - --- ------- -- --- ------------<br>----- -- -------- ------- ---- ------ - -------- ---- -----<br>--- ------- ---- -- --- -------- --- - ----- ------ ---- --<br>-------- --- -------- -------- --- -------- ---- -- ----- -<br>-------- ---- --- ---------- --------- -- ------- ------ -<br>--------- ----- -----,278029.43999999843,278027.4550000031,277400.608,277402.8550000003,277416.991,278033.374,,0,Greg
screen,html.Screen,1_3_1_0_1_1,2021-04-22T00:51:21.235Z,,,,,,,,,,,,,,,,15,,,,,,,,,,,,,,302.2859999969951,,response,,,,7,D,,,,,,Space,keypress(Space),,,,silence,,,,"---- Anderson, ---------- - --- ------- -- --- ------------<br>----- -- -------- ------- ---- ------ - -------- ---- -----<br>--- ------- ---- -- --- -------- --- - ----- ------ ---- --<br>-------- --- -------- -------- --- -------- ---- -- ----- -<br>-------- ---- --- ---------- --------- -- ------- ------ -<br>--------- ----- -----",278337.1100000004,278335.659999997,278016.958,278029.92500000255,278033.374,278349.97,,1,"Anderson,"
screen,html.Screen,1_3_1_0_1_2,2021-04-22T00:51:21.572Z,,,,,,,,,,,,,,,,15,,,,,,,,,,,,,,322.8049999991199,,response,,,,7,D,,,,,,Space,keypress(Space),,,,silence,,,,---- --------- considered - --- ------- -- --- ------------<br>----- -- -------- ------- ---- ------ - -------- ---- -----<br>--- ------- ---- -- --- -------- --- - ----- ------ ---- --<br>-------- --- -------- -------- --- -------- ---- -- ----- -<br>-------- ---- --- ---------- --------- -- ------- ------ -<br>--------- ----- -----,278673.52499999834,278672.7749999991,278333.489,278337.53499999875,278349.97,278683.013,,2,considered
screen,html.Screen,1_3_1_0_1_3,2021-04-22T00:51:21.955Z,,,,,,,,,,,,,,,,15,,,,,,,,,,,,,,372.4470000032452,,response,,,,7,D,,,,,,Space,keypress(Space),,,,silence,,,,---- --------- ---------- a --- ------- -- --- ------------<br>----- -- -------- ------- ---- ------ - -------- ---- -----<br>--- ------- ---- -- --- -------- --- - ----- ------ ---- --<br>-------- --- -------- -------- --- -------- ---- -- ----- -<br>-------- ---- --- ---------- --------- -- ------- ------ -<br>--------- ----- -----,279056.30000000383,279055.4600000032,278666.437,278673.6949999977,278683.013,279066.169,,3,a
screen,html.Screen,1_3_1_0_1_4,2021-04-22T00:51:22.290Z,,,,,,,,,,,,,,,,15,,,,,,,,,,,,,,323.85600000061095,,response,,,,7,D,,,,,,Space,keypress(Space),,,,silence,,,,---- --------- ---------- - key ------- -- --- ------------<br>----- -- -------- ------- ---- ------ - -------- ---- -----<br>--- ------- ---- -- --- -------- --- - ----- ------ ---- --<br>-------- --- -------- -------- --- -------- ---- -- ----- -<br>-------- ---- --- ---------- --------- -- ------- ------ -<br>--------- ----- -----,279391.555000002,279390.0250000006,279049.556,279056.485000001,279066.169,279399.428,,4,key
screen,html.Screen,1_3_1_0_1_5,2021-04-22T00:51:22.573Z,,,,,,,,,,,,,,,,15,,,,,,,,,,,,,,273.9269999989774,,response,,,,7,D,,,,,,Space,keypress(Space),,,,silence,,,,---- --------- ---------- - --- witness -- --- ------------<br>----- -- -------- ------- ---- ------ - -------- ---- -----<br>--- ------- ---- -- --- -------- --- - ----- ------ ---- --<br>-------- --- -------- -------- --- -------- ---- -- ----- -<br>-------- ---- --- ---------- --------- -- ------- ------ -<br>--------- ----- -----,279674.7899999973,279673.354999999,279382.736,279391.96999999695,279399.428,279682.641,,5,witness
screen,html.Screen,1_3_1_0_1_6,2021-04-22T00:51:22.906Z,,,,,,,,,,,,,,,,15,,,,,,,,,,,,,,324.13400000164984,,response,,,,7,D,,,,,,Space,keypress(Space),,,,silence,,,,---- --------- ---------- - --- ------- by --- ------------<br>----- -- -------- ------- ---- ------ - -------- ---- -----<br>--- ------- ---- -- --- -------- --- - ----- ------ ---- --<br>-------- --- -------- -------- --- -------- ---- -- ----- -<br>-------- ---- --- ---------- --------- -- ------- ------ -<br>--------- ----- -----,280008.1550000032,280006.77500000165,279666.262,279675.20499999955,279682.641,280015.825,,6,by
screen,html.Screen,1_3_1_0_1_7,2021-04-22T00:51:23.265Z,,,,,,,,,,,,,,,,15,,,,,,,,,,,,,,348.97999999742024,,response,,,,7,D,,,,,,Space,keypress(Space),,,,silence,,,,---- --------- ---------- - --- ------- -- the ------------<br>----- -- -------- ------- ---- ------ - -------- ---- -----<br>--- ------- ---- -- --- -------- --- - ----- ------ ---- --<br>-------- --- -------- -------- --- -------- ---- -- ----- -<br>-------- ---- --- ---------- --------- -- ------- ------ -<br>--------- ----- -----,280366.3050000032,280364.80499999743,279999.443,280008.56999999814,280015.825,280382.599,,7,the
screen,html.Screen,1_3_1_0_1_8,2021-04-22T00:51:23.632Z,,,,,,,,,,,,,,,,15,,,,,,,,,,,,,,349.70100000331877,,response,,,,7,D,,,,,,Space,keypress(Space),,,,silence,,,,"---- --------- ---------- - --- ------- -- --- prosecution,<br>----- -- -------- ------- ---- ------ - -------- ---- -----<br>--- ------- ---- -- --- -------- --- - ----- ------ ---- --<br>-------- --- -------- -------- --- -------- ---- -- ----- -<br>-------- ---- --- ---------- --------- -- ------- ------ -<br>--------- ----- -----",280733.69000000093,280732.3000000033,280365.919,280366.73999999766,280382.599,280748.928,,8,"prosecution,"
screen,html.Screen,1_3_1_0_1_9,2021-04-22T00:51:24.171Z,,,,,,,,,,,,,,,,15,,,,,,,,,,,,,,522.5870000003488,,response,,,,7,D,,,,,,Space,keypress(Space),,,,silence,,,,---- --------- ---------- - --- ------- -- --- ------------<br>vowed -- -------- ------- ---- ------ - -------- ---- -----<br>--- ------- ---- -- --- -------- --- - ----- ------ ---- --<br>-------- --- -------- -------- --- -------- ---- -- ----- -<br>-------- ---- --- ---------- --------- -- ------- ------ -<br>--------- ----- -----,281272.99499999936,281271.51500000036,280732.439,280734.1050000032,280748.928,281281.934,,9,vowed
screen,html.Screen,1_3_1_0_1_10,2021-04-22T00:51:24.616Z,,,,,,,,,,,,,,,,15,,,,,,,,,,,,,,434.6710000014282,,response,,,,7,D,,,,,,Space,keypress(Space),,,,silence,,,,---- --------- ---------- - --- ------- -- --- ------------<br>----- he -------- ------- ---- ------ - -------- ---- -----<br>--- ------- ---- -- --- -------- --- - ----- ------ ---- --<br>-------- --- -------- -------- --- -------- ---- -- ----- -<br>-------- ---- --- ---------- --------- -- ------- ------ -<br>--------- ----- -----,281718.06500000093,281716.60500000144,281265.517,281273.4199999977,281281.934,281731.746,,10,he
screen,html.Screen,1_3_1_0_1_11,2021-04-22T00:51:25.040Z,,,,,,,,,,,,,,,,15,,,,,,,,,,,,,,408.30400000180816,,response,,,,7,D,,,,,,Space,keypress(Space),,,,silence,,,,---- --------- ---------- - --- ------- -- --- ------------<br>----- -- wouldn't ------- ---- ------ - -------- ---- -----<br>--- ------- ---- -- --- -------- --- - ----- ------ ---- --<br>-------- --- -------- -------- --- -------- ---- -- ----- -<br>-------- ---- --- ---------- --------- -- ------- ------ -<br>--------- ----- -----,282141.515000003,282140.0500000018,281715.116,281718.4649999981,281731.746,282148.202,,11,wouldn't
screen,html.Screen,1_3_1_0_1_12,2021-04-22T00:51:25.428Z,,,,,,,,,,,,,,,,15,,,,,,,,,,,,,,380.50799999869196,,response,,,,7,D,,,,,,Space,keypress(Space),,,,silence,,,,---- --------- ---------- - --- ------- -- --- ------------<br>----- -- -------- testify ---- ------ - -------- ---- -----<br>--- ------- ---- -- --- -------- --- - ----- ------ ---- --<br>-------- --- -------- -------- --- -------- ---- -- ----- -<br>-------- ---- --- ---------- --------- -- ------- ------ -<br>--------- ----- -----,282530.18500000326,282528.7099999987,282131.608,282141.92000000185,282148.202,282548.317,,12,testify
screen,html.Screen,1_3_1_0_1_13,2021-04-22T00:51:25.983Z,,,,,,,,,,,,,,,,15,,,,,,,,,,,,,,534.4279999997234,,response,,,,7,D,,,,,,Space,keypress(Space),,,,silence,,,,---- --------- ---------- - --- ------- -- --- ------------<br>----- -- -------- ------- when ------ - -------- ---- -----<br>--- ------- ---- -- --- -------- --- - ----- ------ ---- --<br>-------- --- -------- -------- --- -------- ---- -- ----- -<br>-------- ---- --- ---------- --------- -- ------- ------ -<br>--------- ----- -----,283084.2449999982,283082.7449999997,282515.144,282530.6100000016,282548.317,283097.86,,13,when
screen,html.Screen,1_3_1_0_1_14,2021-04-22T00:51:26.754Z,,,,,,,,,,,,,,,,15,,,,,,,,,,,,,,756.7700000016484,,response,,,,7,D,,,,,,Space,keypress(Space),,,,silence,,,,---- --------- ---------- - --- ------- -- --- ------------<br>----- -- -------- ------- ---- served - -------- ---- -----<br>--- ------- ---- -- --- -------- --- - ----- ------ ---- --<br>-------- --- -------- -------- --- -------- ---- -- ----- -<br>-------- ---- --- ---------- --------- -- ------- ------ -<br>--------- ----- -----,283856.02500000095,283854.63000000163,283081.303,283084.64999999705,283097.86,283864.113,,14,served
screen,html.Screen,1_3_1_0_1_15,2021-04-22T00:51:27.227Z,,,,,,,,,,,,,,,,15,,,,,,,,,,,,,,462.70200000033947,,response,,,,7,D,,,,,,Space,keypress(Space),,,,silence,,,,---- --------- ---------- - --- ------- -- --- ------------<br>----- -- -------- ------- ---- ------ a -------- ---- -----<br>--- ------- ---- -- --- -------- --- - ----- ------ ---- --<br>-------- --- -------- -------- --- -------- ---- -- ----- -<br>-------- ---- --- ---------- --------- -- ------- ------ -<br>--------- ----- -----,284328.28999999765,284326.81500000035,283847.697,283856.4449999976,283864.113,284330.554,,15,a
screen,html.Screen,1_3_1_0_1_16,2021-04-22T00:51:27.631Z,,,,,,,,,,,,,,,,15,,,,,,,,,,,,,,400.39599999738857,,response,,,,7,D,,,,,,Space,keypress(Space),,,,silence,,,,---- --------- ---------- - --- ------- -- --- ------------<br>----- -- -------- ------- ---- ------ - subpoena ---- -----<br>--- ------- ---- -- --- -------- --- - ----- ------ ---- --<br>-------- --- -------- -------- --- -------- ---- -- ----- -<br>-------- ---- --- ---------- --------- -- ------- ------ -<br>--------- ----- -----,284732.3949999991,284730.9499999974,284314.162,284328.7049999999,284330.554,284747.079,,16,subpoena
screen,html.Screen,1_3_1_0_1_17,2021-04-22T00:51:28.011Z,,,,,,,,,,,,,,,,15,,,,,,,,,,,,,,367.6710000006133,,response,,,,7,D,,,,,,Space,keypress(Space),,,,silence,,,,---- --------- ---------- - --- ------- -- --- ------------<br>----- -- -------- ------- ---- ------ - -------- last -----<br>--- ------- ---- -- --- -------- --- - ----- ------ ---- --<br>-------- --- -------- -------- --- -------- ---- -- ----- -<br>-------- ---- --- ---------- --------- -- ------- ------ -<br>--------- ----- -----,285116.2649999969,285114.75000000064,284730.815,284732.82499999914,284747.079,285130.22,,17,last
screen,html.Screen,1_3_1_0_1_18,2021-04-22T00:51:28.343Z,,,,,,,,,,,,,,,,15,,,,,,,,,,,,,,317.4500000014086,,response,,,,7,D,,,,,,Space,keypress(Space),,,,silence,,,,---- --------- ---------- - --- ------- -- --- ------------<br>----- -- -------- ------- ---- ------ - -------- ---- week.<br>--- ------- ---- -- --- -------- --- - ----- ------ ---- --<br>-------- --- -------- -------- --- -------- ---- -- ----- -<br>-------- ---- --- ---------- --------- -- ------- ------ -<br>--------- ----- -----,285449.0450000012,285447.6700000014,285113.808,285116.6749999975,285130.22,285463.41,,18,week.
screen,html.Screen,1_3_1_0_1_19,2021-04-22T00:51:28.783Z,,,,,,,,,,,,,,,,15,,,,,,,,,,,,,,423.740000002319,,response,,,,7,D,,,,,,Space,keypress(Space),,,,silence,,,,---- --------- ---------- - --- ------- -- --- ------------<br>----- -- -------- ------- ---- ------ - -------- ---- -----<br>His ------- ---- -- --- -------- --- - ----- ------ ---- --<br>-------- --- -------- -------- --- -------- ---- -- ----- -<br>-------- ---- --- ---------- --------- -- ------- ------ -<br>--------- ----- -----,285888.5799999989,285887.1500000023,285446.794,285449.48000000295,285463.41,285896.535,,19,His
screen,html.Screen,1_3_1_0_1_20,2021-04-22T00:51:29.025Z,,,,,,,,,,,,,,,,15,,,,,,,,,,,,,,232.6850000025588,,response,,,,7,D,,,,,,Space,keypress(Space),,,,silence,,,,---- --------- ---------- - --- ------- -- --- ------------<br>----- -- -------- ------- ---- ------ - -------- ---- -----<br>--- lawyers ---- -- --- -------- --- - ----- ------ ---- --<br>-------- --- -------- -------- --- -------- ---- -- ----- -<br>-------- ---- --- ---------- --------- -- ------- ------ -<br>--------- ----- -----,286130.7250000027,286129.22000000253,285880.231,285889.1650000005,285896.535,286146.661,,20,lawyers
screen,html.Screen,1_3_1_0_1_21,2021-04-22T00:51:29.343Z,,,,,,,,,,,,,,,,15,,,,,,,,,,,,,,300.0539999981993,,response,,,,7,D,,,,,,Space,keypress(Space),,,,silence,,,,---- --------- ---------- - --- ------- -- --- ------------<br>----- -- -------- ------- ---- ------ - -------- ---- -----<br>--- ------- said -- --- -------- --- - ----- ------ ---- --<br>-------- --- -------- -------- --- -------- ---- -- ----- -<br>-------- ---- --- ---------- --------- -- ------- ------ -<br>--------- ----- -----,286448.215000004,286446.7149999982,286130.023,286131.1500000011,286146.661,286462.997,,21,said
screen,html.Screen,1_3_1_0_1_22,2021-04-22T00:51:29.612Z,,,,,,,,,,,,,,,,15,,,,,,,,,,,,,,252.9630000013858,,response,,,,7,D,,,,,,Space,keypress(Space),,,,silence,,,,---- --------- ---------- - --- ------- -- --- ------------<br>----- -- -------- ------- ---- ------ - -------- ---- -----<br>--- ------- ---- he --- -------- --- - ----- ------ ---- --<br>-------- --- -------- -------- --- -------- ---- -- ----- -<br>-------- ---- --- ---------- --------- -- ------- ------ -<br>--------- ----- -----,286717.3350000012,286715.96000000136,286446.541,286448.62999999896,286462.997,286729.581,,22,he
screen,html.Screen,1_3_1_0_1_23,2021-04-22T00:51:29.894Z,,,,,,,,,,,,,,,,15,,,,,,,,,,,,,,268.8439999979455,,response,,,,7,D,,,,,,Space,keypress(Space),,,,silence,,,,---- --------- ---------- - --- ------- -- --- ------------<br>----- -- -------- ------- ---- ------ - -------- ---- -----<br>--- ------- ---- -- was -------- --- - ----- ------ ---- --<br>-------- --- -------- -------- --- -------- ---- -- ----- -<br>-------- ---- --- ---------- --------- -- ------- ------ -<br>--------- ----- -----,286999.785,286998.42499999795,286713.103,286717.77499999735,286729.581,287012.786,,23,was
screen,html.Screen,1_3_1_0_1_24,2021-04-22T00:51:30.102Z,,,,,,,,,,,,,,,,15,,,,,,,,,,,,,,193.88399999955436,,response,,,,7,D,,,,,,Space,keypress(Space),,,,silence,,,,---- --------- ---------- - --- ------- -- --- ------------<br>----- -- -------- ------- ---- ------ - -------- ---- -----<br>--- ------- ---- -- --- prepared --- - ----- ------ ---- --<br>-------- --- -------- -------- --- -------- ---- -- ----- -<br>-------- ---- --- ---------- --------- -- ------- ------ -<br>--------- ----- -----,287207.9799999992,287206.6699999996,286996.108,287000.19500000053,287012.786,287212.591,,24,prepared
screen,html.Screen,1_3_1_0_1_25,2021-04-22T00:51:30.320Z,,,,,,,,,,,,,,,,15,,,,,,,,,,,,,,211.8690000019851,,response,,,,7,D,,,,,,Space,keypress(Space),,,,silence,,,,---- --------- ---------- - --- ------- -- --- ------------<br>----- -- -------- ------- ---- ------ - -------- ---- -----<br>--- ------- ---- -- --- -------- for - ----- ------ ---- --<br>-------- --- -------- -------- --- -------- ---- -- ----- -<br>-------- ---- --- ---------- --------- -- ------- ------ -<br>--------- ----- -----,287425.84499999793,287424.460000002,287196.109,287208.3899999998,287212.591,287429.185,,25,for
screen,html.Screen,1_3_1_0_1_26,2021-04-22T00:51:30.538Z,,,,,,,,,,,,,,,,15,,,,,,,,,,,,,,212.5900000036927,,response,,,,7,D,,,,,,Space,keypress(Space),,,,silence,,,,---- --------- ---------- - --- ------- -- --- ------------<br>----- -- -------- ------- ---- ------ - -------- ---- -----<br>--- ------- ---- -- --- -------- --- a ----- ------ ---- --<br>-------- --- -------- -------- --- -------- ---- -- ----- -<br>-------- ---- --- ---------- --------- -- ------- ------ -<br>--------- ----- -----,287643.2700000005,287641.7750000037,287412.805,287426.2500000041,287429.185,287645.752,,26,a
screen,html.Screen,1_3_1_0_1_27,2021-04-22T00:51:30.744Z,,,,,,,,,,,,,,,,15,,,,,,,,,,,,,,202.42299999919487,,response,,,,7,D,,,,,,Space,keypress(Space),,,,silence,,,,---- --------- ---------- - --- ------- -- --- ------------<br>----- -- -------- ------- ---- ------ - -------- ---- -----<br>--- ------- ---- -- --- -------- --- - third ------ ---- --<br>-------- --- -------- -------- --- -------- ---- -- ----- -<br>-------- ---- --- ---------- --------- -- ------- ------ -<br>--------- ----- -----,287849.62500000256,287848.1749999992,287629.358,287643.67499999935,287645.752,287862.408,,27,third
screen,html.Screen,1_3_1_0_1_28,2021-04-22T00:51:30.972Z,,,,,,,,,,,,,,,,15,,,,,,,,,,,,,,214.0870000011637,,response,,,,7,D,,,,,,Space,keypress(Space),,,,silence,,,,---- --------- ---------- - --- ------- -- --- ------------<br>----- -- -------- ------- ---- ------ - -------- ---- -----<br>--- ------- ---- -- --- -------- --- - ----- prison ---- --<br>-------- --- -------- -------- --- -------- ---- -- ----- -<br>-------- ---- --- ---------- --------- -- ------- ------ -<br>--------- ----- -----,288078.0749999976,288076.49500000116,287845.777,287850.0350000031,287862.408,288095.838,,28,prison
screen,html.Screen,1_3_1_0_1_29,2021-04-22T00:51:31.209Z,,,,,,,,,,,,,,,,15,,,,,,,,,,,,,,217.21199999703094,,response,,,,7,D,,,,,,Space,keypress(Space),,,,silence,,,,---- --------- ---------- - --- ------- -- --- ------------<br>----- -- -------- ------- ---- ------ - -------- ---- -----<br>--- ------- ---- -- --- -------- --- - ----- ------ stay --<br>-------- --- -------- -------- --- -------- ---- -- ----- -<br>-------- ---- --- ---------- --------- -- ------- ------ -<br>--------- ----- -----,288314.5399999994,288313.049999997,288079.162,288078.4899999999,288095.838,288328.827,,29,stay
screen,html.Screen,1_3_1_0_1_30,2021-04-22T00:51:31.503Z,,,,,,,,,,,,,,,,15,,,,,,,,,,,,,,278.22299999871757,,response,,,,7,D,,,,,,Space,keypress(Space),,,,silence,,,,---- --------- ---------- - --- ------- -- --- ------------<br>----- -- -------- ------- ---- ------ - -------- ---- -----<br>--- ------- ---- -- --- -------- --- - ----- ------ ---- to<br>-------- --- -------- -------- --- -------- ---- -- ----- -<br>-------- ---- --- ---------- --------- -- ------- ------ -<br>--------- ----- -----,288608.5299999977,288607.0499999987,288312.27,288314.94499999826,288328.827,288611.993,,30,to
screen,html.Screen,1_3_1_0_1_31,2021-04-22T00:51:31.769Z,,,,,,,,,,,,,,,,15,,,,,,,,,,,,,,260.84200000192504,,response,,,,7,D,,,,,,Space,keypress(Space),,,,silence,,,,---- --------- ---------- - --- ------- -- --- ------------<br>----- -- -------- ------- ---- ------ - -------- ---- -----<br>--- ------- ---- -- --- -------- --- - ----- ------ ---- --<br>maintain --- -------- -------- --- -------- ---- -- ----- -<br>-------- ---- --- ---------- --------- -- ------- ------ -<br>--------- ----- -----,288874.30999999924,288872.83500000194,288595.664,288608.93500000384,288611.993,288878.541,,31,maintain
screen,html.Screen,1_3_1_0_1_32,2021-04-22T00:51:31.986Z,,,,,,,,,,,,,,,,15,,,,,,,,,,,,,,211.22399999696063,,response,,,,7,D,,,,,,Space,keypress(Space),,,,silence,,,,---- --------- ---------- - --- ------- -- --- ------------<br>----- -- -------- ------- ---- ------ - -------- ---- -----<br>--- ------- ---- -- --- -------- --- - ----- ------ ---- --<br>-------- his -------- -------- --- -------- ---- -- ----- -<br>-------- ---- --- ---------- --------- -- ------- ------ -<br>--------- ----- -----,289091.2299999982,289089.764999997,288862.185,288874.7149999981,288878.541,289095.116,,32,his
screen,html.Screen,1_3_1_0_1_33,2021-04-22T00:51:32.198Z,,,,,,,,,,,,,,,,15,,,,,,,,,,,,,,207.15900000184774,,response,,,,7,D,,,,,,Space,keypress(Space),,,,silence,,,,---- --------- ---------- - --- ------- -- --- ------------<br>----- -- -------- ------- ---- ------ - -------- ---- -----<br>--- ------- ---- -- --- -------- --- - ----- ------ ---- --<br>-------- --- silence. -------- --- -------- ---- -- ----- -<br>-------- ---- --- ---------- --------- -- ------- ------ -<br>--------- ----- -----,289303.72499999794,289302.2750000018,289078.894,289091.63499999704,289095.116,289311.694,,33,silence.
screen,html.Screen,1_3_1_0_1_34,2021-04-22T00:51:32.431Z,,,,,,,,,,,,,,,,15,,,,,,,,,,,,,,222.88099999784026,,response,,,,7,D,,,,,,Space,keypress(Space),,,,silence,,,,---- --------- ---------- - --- ------- -- --- ------------<br>----- -- -------- ------- ---- ------ - -------- ---- -----<br>--- ------- ---- -- --- -------- --- - ----- ------ ---- --<br>-------- --- -------- Anderson --- -------- ---- -- ----- -<br>-------- ---- --- ---------- --------- -- ------- ------ -<br>--------- ----- -----,289536.1750000011,289534.57499999786,289295.289,289304.1599999997,289311.694,289544.917,,34,Anderson
screen,html.Screen,1_3_1_0_1_35,2021-04-22T00:51:32.679Z,,,,,,,,,,,,,,,,15,,,,,,,,,,,,,,238.15799999935552,,response,,,,7,D,,,,,,Space,keypress(Space),,,,silence,,,,---- --------- ---------- - --- ------- -- --- ------------<br>----- -- -------- ------- ---- ------ - -------- ---- -----<br>--- ------- ---- -- --- -------- --- - ----- ------ ---- --<br>-------- --- -------- -------- was -------- ---- -- ----- -<br>-------- ---- --- ---------- --------- -- ------- ------ -<br>--------- ----- -----,289784.4949999999,289783.0749999994,289528.364,289536.61499999725,289544.917,289794.997,,35,was
screen,html.Screen,1_3_1_0_1_36,2021-04-22T00:51:32.876Z,,,,,,,,,,,,,,,,15,,,,,,,,,,,,,,185.5879999975441,,response,,,,7,D,,,,,,Space,keypress(Space),,,,silence,,,,---- --------- ---------- - --- ------- -- --- ------------<br>----- -- -------- ------- ---- ------ - -------- ---- -----<br>--- ------- ---- -- --- -------- --- - ----- ------ ---- --<br>-------- --- -------- -------- --- released ---- -- ----- -<br>-------- ---- --- ---------- --------- -- ------- ------ -<br>--------- ----- -----,289982.1050000028,289980.5849999975,289778.404,289784.92499999993,289794.997,289994.72,,36,released
screen,html.Screen,1_3_1_0_1_37,2021-04-22T00:51:33.114Z,,,,,,,,,,,,,,,,15,,,,,,,,,,,,,,223.31000000366475,,response,,,,7,D,,,,,,Space,keypress(Space),,,,silence,,,,---- --------- ---------- - --- ------- -- --- ------------<br>----- -- -------- ------- ---- ------ - -------- ---- -----<br>--- ------- ---- -- --- -------- --- - ----- ------ ---- --<br>-------- --- -------- -------- --- -------- July -- ----- -<br>-------- ---- --- ---------- --------- -- ------- ------ -<br>--------- ----- -----,290219.42000000126,290218.03000000364,289978.319,289982.51500000333,289994.72,290227.955,,37,July
screen,html.Screen,1_3_1_0_1_38,2021-04-22T00:51:33.346Z,,,,,,,,,,,,,,,,15,,,,,,,,,,,,,,222.24499999929685,,response,,,,7,D,,,,,,Space,keypress(Space),,,,silence,,,,---- --------- ---------- - --- ------- -- --- ------------<br>----- -- -------- ------- ---- ------ - -------- ---- -----<br>--- ------- ---- -- --- -------- --- - ----- ------ ---- --<br>-------- --- -------- -------- --- -------- ---- 20 ----- -<br>-------- ---- --- ---------- --------- -- ------- ------ -<br>--------- ----- -----,290451.6650000005,290450.1999999993,290211.547,290219.8649999991,290227.955,290461.164,,38,20
screen,html.Screen,1_3_1_0_1_39,2021-04-22T00:51:33.563Z,,,,,,,,,,,,,,,,15,,,,,,,,,,,,,,206.08599999861326,,response,,,,7,D,,,,,,Space,keypress(Space),,,,silence,,,,---- --------- ---------- - --- ------- -- --- ------------<br>----- -- -------- ------- ---- ------ - -------- ---- -----<br>--- ------- ---- -- --- -------- --- - ----- ------ ---- --<br>-------- --- -------- -------- --- -------- ---- -- after -<br>-------- ---- --- ---------- --------- -- ------- ------ -<br>--------- ----- -----,290668.6249999984,290667.2499999986,290444.776,290452.08499999717,290461.164,290677.746,,39,after
