sender,sender_type,sender_id,timestamp,meta,,Blues,Classical,Country,Dance,Electronic,Folk,Gospel,Hip-Hop,Jazz,Latin,Musical/Film,New-age,Pop,Provo_ID,R&B,Rap,Reggae,Religious,Rock,Soul,Swing,Traditional,age,artist_name,correct,correctResponse,distraction,duration,education,ended_on,familiarity,gender,headphone_check_performance,item,list,music_frequency,offensiveness,pleasantness,position_correct,preference,response,response_action,snippet_file,song_name,song_rating,sound,stimulus_1,stimulus_2,stimulus_3,text,time_commit,time_end,time_render,time_run,time_show,time_switch,url,word,word_ID
Introduction,html.Screen,0_0,2021-04-18T18:04:24.313Z,"{""labjs_version"":""20.2.2"",""labjs_build"":{""flavor"":""production"",""commit"":""a25486e0c714a0ae2ce03ff94b7bb6896854dcfa""},""location"":""https://run.pavlovia.org/mvasilev/music_d/"",""userAgent"":""Mozilla/5.0 (Windows NT 10.0; Win64; x64) AppleWebKit/537.36 (KHTML, like Gecko) Chrome/89.0.4389.128 Safari/537.36"",""platform"":""Win32"",""language"":""en-US"",""locale"":""en-US"",""timeZone"":""Europe/London"",""timezoneOffset"":-60,""screen_width"":1280,""screen_height"":720,""scroll_width"":1280,""scroll_height"":562,""window_innerWidth"":1280,""window_innerHeight"":610,""devicePixelRatio"":1.5}",,,,,,,,,,,,,,,,,,,,,,,,,,,,,13338.148999999938,,response,,,,,,,,,,,continue,click button,,,,,,,,,26130.245000000286,26117.369999999937,12745.535,12750.920000005863,12779.221,26135.011,{},,
Volume calibration,html.Screen,0_1,2021-04-18T18:05:05.048Z,,,,,,,,,,,,,,,,,,,,,,,,,,,,,,40721.07399999944,,response,,,,,,,,,,,continue,click button,,,,,,,,,66865.29000000155,66856.08499999944,26118.601,26130.925000004936,26135.011,66868.014,,,
Task instructions,html.Screen,0_2,2021-04-18T18:05:23.028Z,,,,,,,,,,,,,,,,,,,,,,,,,,,,,,17974.371000003564,,response,,,,,,,,,,,continue,click button,,,,,,,,,84845.1750000022,84842.38500000356,66851.798,66866.22500000522,66868.014,84853.27,,,
Sounds,html.Screen,0_3_0_0,2021-04-18T18:05:27.273Z,,,,,,,,,,,,,,,,,,,,,,,,,,,,,,4246.407999999996,,timeout,,,,,,,,,1,,,,,,,,S,O,I,,89089.10499999911,89083.441,84836.993,84845.82000000228,84853.27,89099.678,,,
Judgement,html.Screen,0_3_0_1,2021-04-18T18:05:30.038Z,,,,,,,,,,,,,,,,,,,,,,,,,,,true,1,,2751.6120000059746,,response,,,,,,,,,1,,1,click #choice-1,,,,,S,O,I,,91854.24500000227,91851.29000000597,89083.441,89089.50500000356,89099.678,91864.328,,,
Trial,flow.Sequence,0_3_0,2021-04-18T18:05:30.039Z,,,,,,,,,,,,,,,,,,,,,,,,,,,,,,6998.02000000597,,completion,,,,,,,,,1,,,,,,,,S,O,I,,91855.06500000338,91851.29000000597,84836.993,84845.66500000074,84853.27,91864.328,,,
Sounds,html.Screen,0_3_1_0,2021-04-18T18:05:34.279Z,,,,,,,,,,,,,,,,,,,,,,,,,,,,,,4246.707000000009,,timeout,,,,,,,,,2,,,,,,,,I,S,O,,96095.59000000445,96094.243,91847.917,91855.45000000275,91864.328,96111.035,,,
Judgement,html.Screen,0_3_1_1,2021-04-18T18:05:35.819Z,,,,,,,,,,,,,,,,,,,,,,,,,,,true,2,,1521.1750000033935,,response,,,,,,,,,2,,2,click #choice-2,,,,,I,S,O,,97634.89000000118,97632.2100000034,96094.243,96095.91000000364,96111.035,97642.695,,,
Trial,flow.Sequence,0_3_1,2021-04-18T18:05:35.819Z,,,,,,,,,,,,,,,,,,,,,,,,,,,,,,5767.882000003403,,completion,,,,,,,,,2,,,,,,,,I,S,O,,97635.48000000446,97632.2100000034,91847.917,91855.34000000189,91864.328,97642.695,,,
Sounds,html.Screen,0_3_2_0,2021-04-18T18:05:40.058Z,,,,,,,,,,,,,,,,,,,,,,,,,,,,,,4246.828999999998,,timeout,,,,,,,,,3,,,,,,,,O,I,S,,101874.26000000414,101872.87,97626.149,97635.90500000282,97642.695,101889.524,,,
Judgement,html.Screen,0_3_2_1,2021-04-18T18:05:40.989Z,,,,,,,,,,,,,,,,,,,,,,,,,,,true,3,,913.5210000005609,,response,,,,,,,,,3,,3,click #choice-3,,,,,O,I,S,,102805.83000000479,102803.04500000057,101872.87,101874.58999999944,101889.524,102830.879,,,
Trial,flow.Sequence,0_3_2,2021-04-18T18:05:40.990Z,,,,,,,,,,,,,,,,,,,,,,,,,,,,,,5160.350000000559,,completion,,,,,,,,,3,,,,,,,,O,I,S,,102806.3850000035,102803.04500000057,97626.149,97635.78500000585,97642.695,102830.879,,,
Sounds,html.Screen,0_3_3_0,2021-04-18T18:05:45.254Z,,,,,,,,,,,,,,,,,,,,,,,,,,,,,,4254.085999999996,,timeout,,,,,,,,,1,,,,,,,,S,I,O,,107070.59500000469,107068.723,102788.818,102806.77000000287,102830.879,107084.965,,,
Judgement,html.Screen,0_3_3_1,2021-04-18T18:05:46.559Z,,,,,,,,,,,,,,,,,,,,,,,,,,,true,1,,1287.5000000003783,,response,,,,,,,,,1,,1,click #choice-1,,,,,S,I,O,,108375.10000000475,108372.46500000037,107068.723,107070.93500000337,107084.965,108383.863,,,
Trial,flow.Sequence,0_3_3,2021-04-18T18:05:46.559Z,,,,,,,,,,,,,,,,,,,,,,,,,,,,,,5541.586000000374,,completion,,,,,,,,,1,,,,,,,,S,I,O,,108375.63500000397,108372.46500000037,102788.818,102806.64500000421,102830.879,108383.863,,,
Sounds,html.Screen,0_3_4_0,2021-04-18T18:05:50.799Z,,,,,,,,,,,,,,,,,,,,,,,,,,,,,,4246.489000000001,,timeout,,,,,,,,,3,,,,,,,,I,O,S,,112615.33000000054,112614.01,108367.562,108375.97500000265,108383.863,112630.352,,,
Judgement,html.Screen,0_3_4_1,2021-04-18T18:05:52.049Z,,,,,,,,,,,,,,,,,,,,,,,,,,,true,3,,1232.2430000059685,,response,,,,,,,,,3,,3,click #choice-3,,,,,I,O,S,,113864.98500000016,113862.59500000597,112614.01,112615.61000000074,112630.352,113879.734,,,
Trial,flow.Sequence,0_3_4,2021-04-18T18:05:52.049Z,,,,,,,,,,,,,,,,,,,,,,,,,,,,,,5478.73200000597,,completion,,,,,,,,,3,,,,,,,,I,O,S,,113865.4400000014,113862.59500000597,108367.562,108375.88500000129,108383.863,113879.734,,,
Sounds,html.Screen,0_3_5_0,2021-04-18T18:05:56.295Z,,,,,,,,,,,,,,,,,,,,,,,,,,,,,,4246.13900000001,,timeout,,,,,,,,,2,,,,,,,,O,S,I,,118110.93000000255,118109.541,113863.158,113865.78500000178,113879.734,118125.873,,,
Judgement,html.Screen,0_3_5_1,2021-04-18T18:05:59.479Z,,,,,,,,,,,,,,,,,,,,,,,,,,,false,2,,3166.862000002715,,response,,,,,,,,,2,,3,click #choice-3,,,,,O,S,I,,121295.33500000252,121292.73500000272,118109.541,118111.26000000513,118125.873,121306.602,,,
Trial,flow.Sequence,0_3_5,2021-04-18T18:05:59.479Z,,,,,,,,,,,,,,,,,,,,,,,,,,,,,,7413.001000002725,,completion,,,,,,,,,2,,,,,,,,O,S,I,,121295.81999999937,121292.73500000272,113863.158,113865.690000006,113879.734,121306.602,,,
Task,flow.Loop,0_3,2021-04-18T18:05:59.490Z,,,,,,,,,,,,,,,,,,,,,,,,,,,,,,36439.46500000272,,completion,,,0.8333333333333334,,,,,,,,,,,,,,,,,,121306.23000000196,121292.73500000272,84836.993,84845.52500000427,84853.27,121306.602,,,
Trap,html.Screen,0_4,2021-04-18T18:05:59.493Z,,,,,,,,,,,,,,,,,,,,,,,,,,,,,,NaN,,skipped,,,,,,,,,,,,,,,,,,,,,121309.37000000267,121292.73500000272,,121309.04500000179,,121306.602,,,
Thanks,html.Screen,0_5,2021-04-18T18:06:09.009Z,,,,,,,,,,,,,,,,,,,,,,,,,,,,,,9516.323000000397,,response,,,,,,,,,,,continue,click button,,,,,,,,,130825.53000000189,130822.9250000004,121290.344,121309.63999999949,121306.602,134728.807,,,
Headphone screening,flow.Sequence,0,2021-04-18T18:06:09.010Z,,,,,,,,,,,,,,,,,,,,,,,,,,,,,,118043.70400000039,,completion,,,,,,,,,,,,,,,,,,,,,130826.03999999992,130822.9250000004,12745.535,12750.890000002983,12779.221,134728.807,,,
Instructions,html.Page,1_0,2021-04-18T18:06:58.981Z,,,,,,,,,,,,,,,,,,,,,,,,,,,,,,46060.728000003524,,form submission,,,,,,,,,,,,,,,,,,,,,180797.58000000584,180789.53500000353,134712.229,134721.79999999935,134728.807,180807.576,,,
Holding screen,html.Screen,1_1_0_0,2021-04-18T18:07:08.967Z,,,,,,,,,,,,,,,,,,,,,,,,,,,,,,10008.472999999998,,timeout,,,,,,,,,,,,,,,,,,,,,190784.0750000032,190782.944,180774.592,180798.18499999965,180807.576,190816.049,,,
screen,html.Screen,1_1_0_1_0,2021-04-18T18:07:10.521Z,,,,,,,,,,,,,,,,53,,,,,,,,,,,,,,1517.0660000012722,,response,,,,99,,,,,,,Space,keypress(Space),,,,,,,,When -- ----- -- ------ - ------- --- ----------<br>------------- ------ ------ ---- ---- ------- ----- -- ----<br>-------- ------- -- ---------- --- - --- ----- ----- ----<br>---- --- --- ----- --- ---- ---- ------- ----- ---- -------<br>--- --- -- ----- -- --- ---- -- --- ---- -- ------ ------<br>--- ----- -- ----,192338.13500000542,192333.11500000127,190782.944,190784.49499999988,190816.049,192348.086,,0,When
screen,html.Screen,1_1_0_1_1,2021-04-18T18:07:11.190Z,,,,,,,,,,,,,,,,53,,,,,,,,,,,,,,657.7290000040666,,response,,,,99,,,,,,,Space,keypress(Space),,,,,,,,---- it ----- -- ------ - ------- --- ----------<br>------------- ------ ------ ---- ---- ------- ----- -- ----<br>-------- ------- -- ---------- --- - --- ----- ----- ----<br>---- --- --- ----- --- ---- ---- ------- ----- ---- -------<br>--- --- -- ----- -- --- ---- -- --- ---- -- ------ ------<br>--- ----- -- ----,193006.8700000047,193005.81500000408,192331.702,192338.46500000072,192348.086,193014.147,,1,it
screen,html.Screen,1_1_0_1_2,2021-04-18T18:07:11.639Z,,,,,,,,,,,,,,,,53,,,,,,,,,,,,,,440.2879999996512,,response,,,,99,,,,,,,Space,keypress(Space),,,,,,,,---- -- comes -- ------ - ------- --- ----------<br>------------- ------ ------ ---- ---- ------- ----- -- ----<br>-------- ------- -- ---------- --- - --- ----- ----- ----<br>---- --- --- ----- --- ---- ---- ------- ----- ---- -------<br>--- --- -- ----- -- --- ---- -- --- ---- -- ------ ------<br>--- ----- -- ----,193455.58000000165,193454.43499999965,192997.825,193007.14500000322,193014.147,193463.838,,2,comes
screen,html.Screen,1_1_0_1_3,2021-04-18T18:07:12.102Z,,,,,,,,,,,,,,,,53,,,,,,,,,,,,,,454.03200000477955,,response,,,,99,,,,,,,Space,keypress(Space),,,,,,,,---- -- ----- to ------ - ------- --- ----------<br>------------- ------ ------ ---- ---- ------- ----- -- ----<br>-------- ------- -- ---------- --- - --- ----- ----- ----<br>---- --- --- ----- --- ---- ---- ------- ----- ---- -------<br>--- --- -- ----- -- --- ---- -- --- ---- -- ------ ------<br>--- ----- -- ----,193918.7349999993,193917.87000000477,193447.59,193455.85500000016,193463.838,193930.443,,3,to
screen,html.Screen,1_1_0_1_4,2021-04-18T18:07:12.538Z,,,,,,,,,,,,,,,,53,,,,,,,,,,,,,,423.1170000031998,,response,,,,99,,,,,,,Space,keypress(Space),,,,,,,,---- -- ----- -- having - ------- --- ----------<br>------------- ------ ------ ---- ---- ------- ----- -- ----<br>-------- ------- -- ---------- --- - --- ----- ----- ----<br>---- --- --- ----- --- ---- ---- ------- ----- ---- -------<br>--- --- -- ----- -- --- ---- -- --- ---- -- ------ ------<br>--- ----- -- ----,194354.57000000315,194353.5600000032,193913.769,193918.995,193930.443,194363.213,,4,having
screen,html.Screen,1_1_0_1_5,2021-04-18T18:07:13.020Z,,,,,,,,,,,,,,,,53,,,,,,,,,,,,,,472.5370000056573,,response,,,,99,,,,,,,Space,keypress(Space),,,,,,,,---- -- ----- -- ------ a ------- --- ----------<br>------------- ------ ------ ---- ---- ------- ----- -- ----<br>-------- ------- -- ---------- --- - --- ----- ----- ----<br>---- --- --- ----- --- ---- ---- ------- ----- ---- -------<br>--- --- -- ----- -- --- ---- -- --- ---- -- ------ ------<br>--- ----- -- ----,194836.7400000061,194835.75000000565,194346.791,194354.85000000335,194363.213,194846.06,,5,a
screen,html.Screen,1_1_0_1_6,2021-04-18T18:07:13.624Z,,,,,,,,,,,,,,,,53,,,,,,,,,,,,,,593.4300000043004,,response,,,,99,,,,,,,Space,keypress(Space),,,,,,,,---- -- ----- -- ------ - lasting --- ----------<br>------------- ------ ------ ---- ---- ------- ----- -- ----<br>-------- ------- -- ---------- --- - --- ----- ----- ----<br>---- --- --- ----- --- ---- ---- ------- ----- ---- -------<br>--- --- -- ----- -- --- ---- -- --- ---- -- ------ ------<br>--- ----- -- ----,195440.57500000054,195439.4900000043,194829.731,194837.0300000024,194846.06,195445.506,,6,lasting
screen,html.Screen,1_1_0_1_7,2021-04-18T18:07:14.059Z,,,,,,,,,,,,,,,,53,,,,,,,,,,,,,,429.36399999965215,,response,,,,99,,,,,,,Space,keypress(Space),,,,,,,,---- -- ----- -- ------ - ------- and ----------<br>------------- ------ ------ ---- ---- ------- ----- -- ----<br>-------- ------- -- ---------- --- - --- ----- ----- ----<br>---- --- --- ----- --- ---- ---- ------- ----- ---- -------<br>--- --- -- ----- -- --- ---- -- --- ---- -- ------ ------<br>--- ----- -- ----,195875.81499999942,195874.86999999965,195428.789,195440.84500000463,195445.506,195878.513,,7,and
screen,html.Screen,1_1_0_1_8,2021-04-18T18:07:14.750Z,,,,,,,,,,,,,,,,53,,,,,,,,,,,,,,686.7320000052277,,response,,,,99,,,,,,,Space,keypress(Space),,,,,,,,---- -- ----- -- ------ - ------- --- fulfilling<br>------------- ------ ------ ---- ---- ------- ----- -- ----<br>-------- ------- -- ---------- --- - --- ----- ----- ----<br>---- --- --- ----- --- ---- ---- ------- ----- ---- -------<br>--- --- -- ----- -- --- ---- -- --- ---- -- ------ ------<br>--- ----- -- ----,196566.230000004,196565.24500000523,195862.222,195876.0900000052,195878.513,196578.211,,8,fulfilling
screen,html.Screen,1_1_0_1_9,2021-04-18T18:07:14.980Z,,,,,,,,,,,,,,,,53,,,,,,,,,,,,,,217.19400000438327,,response,,,,99,,,,,,,Space,keypress(Space),,,,,,,,"---- -- ----- -- ------ - ------- --- ----------<br>relationship, ------ ------ ---- ---- ------- ----- -- ----<br>-------- ------- -- ---------- --- - --- ----- ----- ----<br>---- --- --- ----- --- ---- ---- ------- ----- ---- -------<br>--- --- -- ----- -- --- ---- -- --- ---- -- ------ ------<br>--- ----- -- ----",196796.45000000164,196795.4050000044,196561.647,196566.5100000042,196578.211,196811.327,,9,"relationship,"
screen,html.Screen,1_1_0_1_10,2021-04-18T18:07:15.703Z,,,,,,,,,,,,,,,,53,,,,,,,,,,,,,,707.0980000020354,,response,,,,99,,,,,,,Space,keypress(Space),,,,,,,,---- -- ----- -- ------ - ------- --- ----------<br>------------- common ------ ---- ---- ------- ----- -- ----<br>-------- ------- -- ---------- --- - --- ----- ----- ----<br>---- --- --- ----- --- ---- ---- ------- ----- ---- -------<br>--- --- -- ----- -- --- ---- -- --- ---- -- ------ ------<br>--- ----- -- ----,197519.51499999996,197518.42500000203,196794.81,196796.73000000184,196811.327,197527.124,,10,common
screen,html.Screen,1_1_0_1_11,2021-04-18T18:07:16.109Z,,,,,,,,,,,,,,,,53,,,,,,,,,,,,,,397.7560000059311,,response,,,,99,,,,,,,Space,keypress(Space),,,,,,,,---- -- ----- -- ------ - ------- --- ----------<br>------------- ------ wisdom ---- ---- ------- ----- -- ----<br>-------- ------- -- ---------- --- - --- ----- ----- ----<br>---- --- --- ----- --- ---- ---- ------- ----- ---- -------<br>--- --- -- ----- -- --- ---- -- --- ---- -- ------ ------<br>--- ----- -- ----,197925.84999999963,197924.88000000594,197510.849,197519.79500000016,197527.124,197943.504,,11,wisdom
screen,html.Screen,1_1_0_1_12,2021-04-18T18:07:16.575Z,,,,,,,,,,,,,,,,53,,,,,,,,,,,,,,447.29099999935715,,response,,,,99,,,,,,,Space,keypress(Space),,,,,,,,---- -- ----- -- ------ - ------- --- ----------<br>------------- ------ ------ says ---- ------- ----- -- ----<br>-------- ------- -- ---------- --- - --- ----- ----- ----<br>---- --- --- ----- --- ---- ---- ------- ----- ---- -------<br>--- --- -- ----- -- --- ---- -- --- ---- -- ------ ------<br>--- ----- -- ----,198391.80000000488,198390.79499999934,197910.543,197926.12999999983,197943.504,198426.441,,12,says
screen,html.Screen,1_1_0_1_13,2021-04-18T18:07:17.046Z,,,,,,,,,,,,,,,,53,,,,,,,,,,,,,,435.5590000009979,,response,,,,99,,,,,,,Space,keypress(Space),,,,,,,,---- -- ----- -- ------ - ------- --- ----------<br>------------- ------ ------ ---- that ------- ----- -- ----<br>-------- ------- -- ---------- --- - --- ----- ----- ----<br>---- --- --- ----- --- ---- ---- ------- ----- ---- -------<br>--- --- -- ----- -- --- ---- -- --- ---- -- ------ ------<br>--- ----- -- ----,198862.99000000145,198862.000000001,198376.857,198392.08000000508,198426.441,198876.426,,13,that
screen,html.Screen,1_1_0_1_14,2021-04-18T18:07:17.430Z,,,,,,,,,,,,,,,,53,,,,,,,,,,,,,,368.90899999960675,,response,,,,99,,,,,,,Space,keypress(Space),,,,,,,,---- -- ----- -- ------ - ------- --- ----------<br>------------- ------ ------ ---- ---- feeling ----- -- ----<br>-------- ------- -- ---------- --- - --- ----- ----- ----<br>---- --- --- ----- --- ---- ---- ------- ----- ---- -------<br>--- --- -- ----- -- --- ---- -- --- ---- -- ------ ------<br>--- ----- -- ----,199246.2250000026,199245.3349999996,198859.693,198863.26499999996,198876.426,199259.43,,14,feeling
screen,html.Screen,1_1_0_1_15,2021-04-18T18:07:17.825Z,,,,,,,,,,,,,,,,53,,,,,,,,,,,,,,381.65000000124564,,response,,,,99,,,,,,,Space,keypress(Space),,,,,,,,---- -- ----- -- ------ - ------- --- ----------<br>------------- ------ ------ ---- ---- ------- close -- ----<br>-------- ------- -- ---------- --- - --- ----- ----- ----<br>---- --- --- ----- --- ---- ---- ------- ----- ---- -------<br>--- --- -- ----- -- --- ---- -- --- ---- -- ------ ------<br>--- ----- -- ----,199642.09500000288,199641.08000000124,199242.396,199246.51500000618,199259.43,199659.092,,15,close
screen,html.Screen,1_1_0_1_16,2021-04-18T18:07:18.164Z,,,,,,,,,,,,,,,,53,,,,,,,,,,,,,,320.81800000183284,,response,,,,99,,,,,,,Space,keypress(Space),,,,,,,,---- -- ----- -- ------ - ------- --- ----------<br>------------- ------ ------ ---- ---- ------- ----- to ----<br>-------- ------- -- ---------- --- - --- ----- ----- ----<br>---- --- --- ----- --- ---- ---- ------- ----- ---- -------<br>--- --- -- ----- -- --- ---- -- --- ---- -- ------ ------<br>--- ----- -- ----,199980.89000000618,199979.91000000184,199642.385,199642.38000000478,199659.092,199991.819,,16,to
screen,html.Screen,1_1_0_1_17,2021-04-18T18:07:18.600Z,,,,,,,,,,,,,,,,53,,,,,,,,,,,,,,423.52600000126404,,response,,,,99,,,,,,,Space,keypress(Space),,,,,,,,---- -- ----- -- ------ - ------- --- ----------<br>------------- ------ ------ ---- ---- ------- ----- -- your<br>-------- ------- -- ---------- --- - --- ----- ----- ----<br>---- --- --- ----- --- ---- ---- ------- ----- ---- -------<br>--- --- -- ----- -- --- ---- -- --- ---- -- ------ ------<br>--- ----- -- ----,200416.3000000044,200415.34500000125,199975.453,199981.1750000008,199991.819,200424.789,,17,your
screen,html.Screen,1_1_0_1_18,2021-04-18T18:07:19.112Z,,,,,,,,,,,,,,,,53,,,,,,,,,,,,,,502.3860000043642,,response,,,,99,,,,,,,Space,keypress(Space),,,,,,,,---- -- ----- -- ------ - ------- --- ----------<br>------------- ------ ------ ---- ---- ------- ----- -- ----<br>romantic ------- -- ---------- --- - --- ----- ----- ----<br>---- --- --- ----- --- ---- ---- ------- ----- ---- -------<br>--- --- -- ----- -- --- ---- -- --- ---- -- ------ ------<br>--- ----- -- ----,200928.230000005,200927.17500000435,200408.483,200416.58000000461,200424.789,200941.354,,18,romantic
screen,html.Screen,1_1_0_1_19,2021-04-18T18:07:19.508Z,,,,,,,,,,,,,,,,53,,,,,,,,,,,,,,382.4860000045737,,response,,,,99,,,,,,,Space,keypress(Space),,,,,,,,---- -- ----- -- ------ - ------- --- ----------<br>------------- ------ ------ ---- ---- ------- ----- -- ----<br>-------- partner -- ---------- --- - --- ----- ----- ----<br>---- --- --- ----- --- ---- ---- ------- ----- ---- -------<br>--- --- -- ----- -- --- ---- -- --- ---- -- ------ ------<br>--- ----- -- ----,201324.5950000055,201323.84000000457,200924.687,200928.4950000001,200941.354,201340.667,,19,partner
screen,html.Screen,1_1_0_1_20,2021-04-18T18:07:19.880Z,,,,,,,,,,,,,,,,53,,,,,,,,,,,,,,354.93800000080955,,response,,,,99,,,,,,,Space,keypress(Space),,,,,,,,---- -- ----- -- ------ - ------- --- ----------<br>------------- ------ ------ ---- ---- ------- ----- -- ----<br>-------- ------- is ---------- --- - --- ----- ----- ----<br>---- --- --- ----- --- ---- ---- ------- ----- ---- -------<br>--- --- -- ----- -- --- ---- -- --- ---- -- ------ ------<br>--- ----- -- ----,201696.27500000206,201695.6050000008,201324.398,201324.79500000045,201340.667,201707.011,,20,is
screen,html.Screen,1_1_0_1_21,2021-04-18T18:07:20.201Z,,,,,,,,,,,,,,,,53,,,,,,,,,,,,,,309.359000004828,,response,,,,99,,,,,,,Space,keypress(Space),,,,,,,,---- -- ----- -- ------ - ------- --- ----------<br>------------- ------ ------ ---- ---- ------- ----- -- ----<br>-------- ------- -- paramount. --- - --- ----- ----- ----<br>---- --- --- ----- --- ---- ---- ------- ----- ---- -------<br>--- --- -- ----- -- --- ---- -- --- ---- -- ------ ------<br>--- ----- -- ----,202017.38000000478,202016.37000000483,201690.358,201696.47500000428,201707.011,202023.809,,21,paramount.
screen,html.Screen,1_1_0_1_22,2021-04-18T18:07:20.977Z,,,,,,,,,,,,,,,,53,,,,,,,,,,,,,,768.4760000031674,,response,,,,99,,,,,,,Space,keypress(Space),,,,,,,,---- -- ----- -- ------ - ------- --- ----------<br>------------- ------ ------ ---- ---- ------- ----- -- ----<br>-------- ------- -- ---------- But - --- ----- ----- ----<br>---- --- --- ----- --- ---- ---- ------- ----- ---- -------<br>--- --- -- ----- -- --- ---- -- --- ---- -- ------ ------<br>--- ----- -- ----,202793.17000000447,202792.28500000318,202006.836,202017.66000000498,202023.809,202806.159,,22,But
screen,html.Screen,1_1_0_1_23,2021-04-18T18:07:21.393Z,,,,,,,,,,,,,,,,53,,,,,,,,,,,,,,402.17600000297534,,response,,,,99,,,,,,,Space,keypress(Space),,,,,,,,---- -- ----- -- ------ - ------- --- ----------<br>------------- ------ ------ ---- ---- ------- ----- -- ----<br>-------- ------- -- ---------- --- a --- ----- ----- ----<br>---- --- --- ----- --- ---- ---- ------- ----- ---- -------<br>--- --- -- ----- -- --- ---- -- --- ---- -- ------ ------<br>--- ----- -- ----,203209.31000000564,203208.335000003,202789.762,202793.45499999908,202806.159,203222.891,,23,a
screen,html.Screen,1_1_0_1_24,2021-04-18T18:07:21.759Z,,,,,,,,,,,,,,,,53,,,,,,,,,,,,,,351.92399999994086,,response,,,,99,,,,,,,Space,keypress(Space),,,,,,,,---- -- ----- -- ------ - ------- --- ----------<br>------------- ------ ------ ---- ---- ------- ----- -- ----<br>-------- ------- -- ---------- --- - new ----- ----- ----<br>---- --- --- ----- --- ---- ---- ------- ----- ---- -------<br>--- --- -- ----- -- --- ---- -- --- ---- -- ------ ------<br>--- ----- -- ----,203575.7750000048,203574.81499999994,203206.109,203209.61000000534,203222.891,203589.201,,24,new
screen,html.Screen,1_1_0_1_25,2021-04-18T18:07:22.088Z,,,,,,,,,,,,,,,,53,,,,,,,,,,,,,,313.9940000062343,,response,,,,99,,,,,,,Space,keypress(Space),,,,,,,,---- -- ----- -- ------ - ------- --- ----------<br>------------- ------ ------ ---- ---- ------- ----- -- ----<br>-------- ------- -- ---------- --- - --- study ----- ----<br>---- --- --- ----- --- ---- ---- ------- ----- ---- -------<br>--- --- -- ----- -- --- ---- -- --- ---- -- ------ ------<br>--- ----- -- ----,203904.1950000028,203903.19500000624,203572.153,203576.05999999942,203589.201,203921.922,,25,study
screen,html.Screen,1_1_0_1_26,2021-04-18T18:07:22.397Z,,,,,,,,,,,,,,,,53,,,,,,,,,,,,,,290.8680000050517,,response,,,,99,,,,,,,Space,keypress(Space),,,,,,,,---- -- ----- -- ------ - ------- --- ----------<br>------------- ------ ------ ---- ---- ------- ----- -- ----<br>-------- ------- -- ---------- --- - --- ----- finds ----<br>---- --- --- ----- --- ---- ---- ------- ----- ---- -------<br>--- --- -- ----- -- --- ---- -- --- ---- -- ------ ------<br>--- ----- -- ----,204213.7700000021,204212.79000000504,203888.906,203904.475000003,203921.922,204221.585,,26,finds
screen,html.Screen,1_1_0_1_27,2021-04-18T18:07:22.752Z,,,,,,,,,,,,,,,,53,,,,,,,,,,,,,,345.7300000002433,,response,,,,99,,,,,,,Space,keypress(Space),,,,,,,,---- -- ----- -- ------ - ------- --- ----------<br>------------- ------ ------ ---- ---- ------- ----- -- ----<br>-------- ------- -- ---------- --- - --- ----- ----- that<br>---- --- --- ----- --- ---- ---- ------- ----- ---- -------<br>--- --- -- ----- -- --- ---- -- --- ---- -- ------ ------<br>--- ----- -- ----,204568.2650000017,204567.31500000024,204205.38,204214.0400000062,204221.585,204571.337,,27,that
screen,html.Screen,1_1_0_1_28,2021-04-18T18:07:23.114Z,,,,,,,,,,,,,,,,53,,,,,,,,,,,,,,357.9880000046105,,response,,,,99,,,,,,,Space,keypress(Space),,,,,,,,---- -- ----- -- ------ - ------- --- ----------<br>------------- ------ ------ ---- ---- ------- ----- -- ----<br>-------- ------- -- ---------- --- - --- ----- ----- ----<br>it's --- --- ----- --- ---- ---- ------- ----- ---- -------<br>--- --- -- ----- -- --- ---- -- --- ---- -- ------ ------<br>--- ----- -- ----,204930.2850000022,204929.3250000046,204555.084,204568.5700000031,204571.337,204937.696,,28,it's
screen,html.Screen,1_1_0_1_29,2021-04-18T18:07:23.407Z,,,,,,,,,,,,,,,,53,,,,,,,,,,,,,,284.9340000038501,,response,,,,99,,,,,,,Space,keypress(Space),,,,,,,,---- -- ----- -- ------ - ------- --- ----------<br>------------- ------ ------ ---- ---- ------- ----- -- ----<br>-------- ------- -- ---------- --- - --- ----- ----- ----<br>---- not --- ----- --- ---- ---- ------- ----- ---- -------<br>--- --- -- ----- -- --- ---- -- --- ---- -- ------ ------<br>--- ----- -- ----,205223.56000000582,205222.63000000385,204921.462,204930.57000000408,204937.696,205237.89,,29,not
screen,html.Screen,1_1_0_1_30,2021-04-18T18:07:23.795Z,,,,,,,,,,,,,,,,53,,,,,,,,,,,,,,373.2850000054459,,response,,,,99,,,,,,,Space,keypress(Space),,,,,,,,---- -- ----- -- ------ - ------- --- ----------<br>------------- ------ ------ ---- ---- ------- ----- -- ----<br>-------- ------- -- ---------- --- - --- ----- ----- ----<br>---- --- how ----- --- ---- ---- ------- ----- ---- -------<br>--- --- -- ----- -- --- ---- -- --- ---- -- ------ ------<br>--- ----- -- ----,205612.14000000473,205611.17500000546,205221.16,205223.83500000433,205237.89,205620.485,,30,how
screen,html.Screen,1_1_0_1_31,2021-04-18T18:07:24.103Z,,,,,,,,,,,,,,,,53,,,,,,,,,,,,,,297.95500000129687,,response,,,,99,,,,,,,Space,keypress(Space),,,,,,,,---- -- ----- -- ------ - ------- --- ----------<br>------------- ------ ------ ---- ---- ------- ----- -- ----<br>-------- ------- -- ---------- --- - --- ----- ----- ----<br>---- --- --- close --- ---- ---- ------- ----- ---- -------<br>--- --- -- ----- -- --- ---- -- --- ---- -- ------ ------<br>--- ----- -- ----,205919.40500000055,205918.44000000128,205604.213,205612.40000000544,205620.485,205937.197,,31,close
screen,html.Screen,1_1_0_1_32,2021-04-18T18:07:24.572Z,,,,,,,,,,,,,,,,53,,,,,,,,,,,,,,450.2679999998072,,response,,,,99,,,,,,,Space,keypress(Space),,,,,,,,---- -- ----- -- ------ - ------- --- ----------<br>------------- ------ ------ ---- ---- ------- ----- -- ----<br>-------- ------- -- ---------- --- - --- ----- ----- ----<br>---- --- --- ----- you ---- ---- ------- ----- ---- -------<br>--- --- -- ----- -- --- ---- -- --- ---- -- ------ ------<br>--- ----- -- ----,206388.34000000497,206387.4649999998,205903.99,205919.66500000126,205937.197,206403.599,,32,you
screen,html.Screen,1_1_0_1_33,2021-04-18T18:07:24.983Z,,,,,,,,,,,,,,,,53,,,,,,,,,,,,,,395.4160000041593,,response,,,,99,,,,,,,Space,keypress(Space),,,,,,,,---- -- ----- -- ------ - ------- --- ----------<br>------------- ------ ------ ---- ---- ------- ----- -- ----<br>-------- ------- -- ---------- --- - --- ----- ----- ----<br>---- --- --- ----- --- feel ---- ------- ----- ---- -------<br>--- --- -- ----- -- --- ---- -- --- ---- -- ------ ------<br>--- ----- -- ----,206799.98000000342,206799.01500000415,206386.809,206388.5750000045,206403.599,206802.841,,33,feel
screen,html.Screen,1_1_0_1_34,2021-04-18T18:07:25.373Z,,,,,,,,,,,,,,,,53,,,,,,,,,,,,,,385.753999999637,,response,,,,99,,,,,,,Space,keypress(Space),,,,,,,,---- -- ----- -- ------ - ------- --- ----------<br>------------- ------ ------ ---- ---- ------- ----- -- ----<br>-------- ------- -- ---------- --- - --- ----- ----- ----<br>---- --- --- ----- --- ---- that ------- ----- ---- -------<br>--- --- -- ----- -- --- ---- -- --- ---- -- ------ ------<br>--- ----- -- ----,207189.59500000346,207188.59499999962,206786.513,206800.24000000412,206802.841,207202.924,,34,that
screen,html.Screen,1_1_0_1_35,2021-04-18T18:07:25.802Z,,,,,,,,,,,,,,,,53,,,,,,,,,,,,,,414.43600000382867,,response,,,,99,,,,,,,Space,keypress(Space),,,,,,,,---- -- ----- -- ------ - ------- --- ----------<br>------------- ------ ------ ---- ---- ------- ----- -- ----<br>-------- ------- -- ---------- --- - --- ----- ----- ----<br>---- --- --- ----- --- ---- ---- matters ----- ---- -------<br>--- --- -- ----- -- --- ---- -- --- ---- -- ------ ------<br>--- ----- -- ----,207618.3450000026,207617.36000000383,207186.252,207189.86000000587,207202.924,207652.556,,35,matters
screen,html.Screen,1_1_0_1_36,2021-04-18T18:07:26.588Z,,,,,,,,,,,,,,,,53,,,,,,,,,,,,,,750.6490000023332,,response,,,,99,,,,,,,Space,keypress(Space),,,,,,,,"---- -- ----- -- ------ - ------- --- ----------<br>------------- ------ ------ ---- ---- ------- ----- -- ----<br>-------- ------- -- ---------- --- - --- ----- ----- ----<br>---- --- --- ----- --- ---- ---- ------- most, ---- -------<br>--- --- -- ----- -- --- ---- -- --- ---- -- ------ ------<br>--- ----- -- ----",208404.1600000055,208403.20500000234,207635.871,207618.6050000033,207652.556,208418.229,,36,"most,"
screen,html.Screen,1_1_0_1_37,2021-04-18T18:07:27.055Z,,,,,,,,,,,,,,,,53,,,,,,,,,,,,,,452.8660000022501,,response,,,,99,,,,,,,Space,keypress(Space),,,,,,,,---- -- ----- -- ------ - ------- --- ----------<br>------------- ------ ------ ---- ---- ------- ----- -- ----<br>-------- ------- -- ---------- --- - --- ----- ----- ----<br>---- --- --- ----- --- ---- ---- ------- ----- it's -------<br>--- --- -- ----- -- --- ---- -- --- ---- -- ------ ------<br>--- ----- -- ----,208872.02000000252,208871.09500000224,208401.852,208404.42500000063,208418.229,208884.859,,37,it's
screen,html.Screen,1_1_0_1_38,2021-04-18T18:07:27.571Z,,,,,,,,,,,,,,,,53,,,,,,,,,,,,,,501.7510000013863,,response,,,,99,,,,,,,Space,keypress(Space),,,,,,,,---- -- ----- -- ------ - ------- --- ----------<br>------------- ------ ------ ---- ---- ------- ----- -- ----<br>-------- ------- -- ---------- --- - --- ----- ----- ----<br>---- --- --- ----- --- ---- ---- ------- ----- ---- whether<br>--- --- -- ----- -- --- ---- -- --- ---- -- ------ ------<br>--- ----- -- ----,209387.55500000116,209386.61000000138,208867.743,208872.27500000154,208884.859,209401.132,,38,whether
screen,html.Screen,1_1_0_1_39,2021-04-18T18:07:28.245Z,,,,,,,,,,,,,,,,53,,,,,,,,,,,,,,659.7530000062252,,response,,,,99,,,,,,,Space,keypress(Space),,,,,,,,---- -- ----- -- ------ - ------- --- ----------<br>------------- ------ ------ ---- ---- ------- ----- -- ----<br>-------- ------- -- ---------- --- - --- ----- ----- ----<br>---- --- --- ----- --- ---- ---- ------- ----- ---- -------<br>you --- -- ----- -- --- ---- -- --- ---- -- ------ ------<br>--- ----- -- ----,210061.8900000045,210060.88500000624,209384.339,209387.81000000017,209401.132,210066.764,,39,you
screen,html.Screen,1_1_0_1_40,2021-04-18T18:07:28.689Z,,,,,,,,,,,,,,,,53,,,,,,,,,,,,,,437.9360000049637,,response,,,,99,,,,,,,Space,keypress(Space),,,,,,,,---- -- ----- -- ------ - ------- --- ----------<br>------------- ------ ------ ---- ---- ------- ----- -- ----<br>-------- ------- -- ---------- --- - --- ----- ----- ----<br>---- --- --- ----- --- ---- ---- ------- ----- ---- -------<br>--- are -- ----- -- --- ---- -- --- ---- -- ------ ------<br>--- ----- -- ----,210505.70500000322,210504.70000000496,210050.526,210062.1500000052,210066.764,210516.832,,40,are
screen,html.Screen,1_1_0_1_41,2021-04-18T18:07:29.108Z,,,,,,,,,,,,,,,,53,,,,,,,,,,,,,,407.0829999994021,,response,,,,99,,,,,,,Space,keypress(Space),,,,,,,,---- -- ----- -- ------ - ------- --- ----------<br>------------- ------ ------ ---- ---- ------- ----- -- ----<br>-------- ------- -- ---------- --- - --- ----- ----- ----<br>---- --- --- ----- --- ---- ---- ------- ----- ---- -------<br>--- --- as ----- -- --- ---- -- --- ---- -- ------ ------<br>--- ----- -- ----,210924.89500000374,210923.9149999994,210500.173,210505.96500000393,210516.832,210932.766,,41,as
screen,html.Screen,1_1_0_1_42,2021-04-18T18:07:29.542Z,,,,,,,,,,,,,,,,53,,,,,,,,,,,,,,424.8990000031772,,response,,,,99,,,,,,,Space,keypress(Space),,,,,,,,---- -- ----- -- ------ - ------- --- ----------<br>------------- ------ ------ ---- ---- ------- ----- -- ----<br>-------- ------- -- ---------- --- - --- ----- ----- ----<br>---- --- --- ----- --- ---- ---- ------- ----- ---- -------<br>--- --- -- close -- --- ---- -- --- ---- -- ------ ------<br>--- ----- -- ----,211358.57500000566,211357.66500000318,210916.053,210925.17000000225,210932.766,211365.73,,42,close
screen,html.Screen,1_1_0_1_43,2021-04-18T18:07:30.014Z,,,,,,,,,,,,,,,,53,,,,,,,,,,,,,,464.00499999933527,,response,,,,99,,,,,,,Space,keypress(Space),,,,,,,,---- -- ----- -- ------ - ------- --- ----------<br>------------- ------ ------ ---- ---- ------- ----- -- ----<br>-------- ------- -- ---------- --- - --- ----- ----- ----<br>---- --- --- ----- --- ---- ---- ------- ----- ---- -------<br>--- --- -- ----- as --- ---- -- --- ---- -- ------ ------<br>--- ----- -- ----,211830.670000003,211829.73499999935,211349.529,211358.84000000078,211365.73,211863.353,,43,as
screen,html.Screen,1_1_0_1_44,2021-04-18T18:07:30.463Z,,,,,,,,,,,,,,,,53,,,,,,,,,,,,,,415.27200000628363,,response,,,,99,,,,,,,Space,keypress(Space),,,,,,,,---- -- ----- -- ------ - ------- --- ----------<br>------------- ------ ------ ---- ---- ------- ----- -- ----<br>-------- ------- -- ---------- --- - --- ----- ----- ----<br>---- --- --- ----- --- ---- ---- ------- ----- ---- -------<br>--- --- -- ----- -- you ---- -- --- ---- -- ------ ------<br>--- ----- -- ----,212279.515000002,212278.6250000063,211815.797,211830.91500000592,211863.353,212281.678,,44,you
screen,html.Screen,1_1_0_1_45,2021-04-18T18:07:30.904Z,,,,,,,,,,,,,,,,53,,,,,,,,,,,,,,437.8920000010985,,response,,,,99,,,,,,,Space,keypress(Space),,,,,,,,---- -- ----- -- ------ - ------- --- ----------<br>------------- ------ ------ ---- ---- ------- ----- -- ----<br>-------- ------- -- ---------- --- - --- ----- ----- ----<br>---- --- --- ----- --- ---- ---- ------- ----- ---- -------<br>--- --- -- ----- -- --- want -- --- ---- -- ------ ------<br>--- ----- -- ----,212720.5150000009,212719.5700000011,212265.4,212279.76499999932,212281.678,212731.638,,45,want
screen,html.Screen,1_1_0_1_46,2021-04-18T18:07:31.400Z,,,,,,,,,,,,,,,,53,,,,,,,,,,,,,,484.1420000059006,,response,,,,99,,,,,,,Space,keypress(Space),,,,,,,,---- -- ----- -- ------ - ------- --- ----------<br>------------- ------ ------ ---- ---- ------- ----- -- ----<br>-------- ------- -- ---------- --- - --- ----- ----- ----<br>---- --- --- ----- --- ---- ---- ------- ----- ---- -------<br>--- --- -- ----- -- --- ---- to --- ---- -- ------ ------<br>--- ----- -- ----,213216.7300000001,213215.7800000059,212715.004,212720.7800000033,212731.638,213231.311,,46,to
screen,html.Screen,1_1_0_1_47,2021-04-18T18:07:31.853Z,,,,,,,,,,,,,,,,53,,,,,,,,,,,,,,437.92400000122143,,response,,,,99,,,,,,,Space,keypress(Space),,,,,,,,"---- -- ----- -- ------ - ------- --- ----------<br>------------- ------ ------ ---- ---- ------- ----- -- ----<br>-------- ------- -- ---------- --- - --- ----- ----- ----<br>---- --- --- ----- --- ---- ---- ------- ----- ---- -------<br>--- --- -- ----- -- --- ---- -- be, ---- -- ------ ------<br>--- ----- -- ----",213670.13000000588,213669.2350000012,213214.592,213216.9800000047,213231.311,213680.434,,47,"be,"
screen,html.Screen,1_1_0_1_48,2021-04-18T18:07:32.349Z,,,,,,,,,,,,,,,,53,,,,,,,,,,,,,,484.1810000014957,,response,,,,99,,,,,,,Space,keypress(Space),,,,,,,,---- -- ----- -- ------ - ------- --- ----------<br>------------- ------ ------ ---- ---- ------- ----- -- ----<br>-------- ------- -- ---------- --- - --- ----- ----- ----<br>---- --- --- ----- --- ---- ---- ------- ----- ---- -------<br>--- --- -- ----- -- --- ---- -- --- even -- ------ ------<br>--- ----- -- ----,214165.62500000146,214164.6150000015,213664.231,213670.35500000202,213680.434,214180.462,,48,even
screen,html.Screen,1_1_0_1_49,2021-04-18T18:07:32.640Z,,,,,,,,,,,,,,,,53,,,,,,,,,,,,,,275.3230000055628,,response,,,,99,,,,,,,Space,keypress(Space),,,,,,,,---- -- ----- -- ------ - ------- --- ----------<br>------------- ------ ------ ---- ---- ------- ----- -- ----<br>-------- ------- -- ---------- --- - --- ----- ----- ----<br>---- --- --- ----- --- ---- ---- ------- ----- ---- -------<br>--- --- -- ----- -- --- ---- -- --- ---- if ------ ------<br>--- ----- -- ----,214456.75499999925,214455.78500000556,214163.784,214165.89500000555,214180.462,214463.151,,49,if
screen,html.Screen,1_1_0_1_50,2021-04-18T18:07:32.976Z,,,,,,,,,,,,,,,,53,,,,,,,,,,,,,,328.20400000119116,,response,,,,99,,,,,,,Space,keypress(Space),,,,,,,,---- -- ----- -- ------ - ------- --- ----------<br>------------- ------ ------ ---- ---- ------- ----- -- ----<br>-------- ------- -- ---------- --- - --- ----- ----- ----<br>---- --- --- ----- --- ---- ---- ------- ----- ---- -------<br>--- --- -- ----- -- --- ---- -- --- ---- -- that's ------<br>--- ----- -- ----,214792.15000000113,214791.3550000012,214446.925,214457.00000000215,214463.151,214796.248,,50,that's
screen,html.Screen,1_1_0_1_51,2021-04-18T18:07:33.412Z,,,,,,,,,,,,,,,,53,,,,,,,,,,,,,,431.6470000036352,,response,,,,99,,,,,,,Space,keypress(Space),,,,,,,,---- -- ----- -- ------ - ------- --- ----------<br>------------- ------ ------ ---- ---- ------- ----- -- ----<br>-------- ------- -- ---------- --- - --- ----- ----- ----<br>---- --- --- ----- --- ---- ---- ------- ----- ---- -------<br>--- --- -- ----- -- --- ---- -- --- ---- -- ------ really<br>--- ----- -- ----,215228.9149999997,215227.89500000363,214779.956,214792.40000000573,214796.248,215246.412,,51,really
screen,html.Screen,1_1_0_1_52,2021-04-18T18:07:33.786Z,,,,,,,,,,,,,,,,53,,,,,,,,,,,,,,355.267999999749,,response,,,,99,,,,,,,Space,keypress(Space),,,,,,,,---- -- ----- -- ------ - ------- --- ----------<br>------------- ------ ------ ---- ---- ------- ----- -- ----<br>-------- ------- -- ---------- --- - --- ----- ----- ----<br>---- --- --- ----- --- ---- ---- ------- ----- ---- -------<br>--- --- -- ----- -- --- ---- -- --- ---- -- ------ ------<br>not ----- -- ----,215602.7099999992,215601.67999999976,215229.538,215229.17000000598,215246.412,215612.596,,52,not
screen,html.Screen,1_1_0_1_53,2021-04-18T18:07:34.168Z,,,,,,,,,,,,,,,,53,,,,,,,,,,,,,,370.9240000015998,,response,,,,99,,,,,,,Space,keypress(Space),,,,,,,,---- -- ----- -- ------ - ------- --- ----------<br>------------- ------ ------ ---- ---- ------- ----- -- ----<br>-------- ------- -- ---------- --- - --- ----- ----- ----<br>---- --- --- ----- --- ---- ---- ------- ----- ---- -------<br>--- --- -- ----- -- --- ---- -- --- ---- -- ------ ------<br>--- close -- ----,215984.45000000356,215983.5200000016,215595.864,215602.9650000055,215612.596,215995.65,,53,close
screen,html.Screen,1_1_0_1_54,2021-04-18T18:07:34.542Z,,,,,,,,,,,,,,,,53,,,,,,,,,,,,,,361.8099999992701,,response,,,,99,,,,,,,Space,keypress(Space),,,,,,,,---- -- ----- -- ------ - ------- --- ----------<br>------------- ------ ------ ---- ---- ------- ----- -- ----<br>-------- ------- -- ---------- --- - --- ----- ----- ----<br>---- --- --- ----- --- ---- ---- ------- ----- ---- -------<br>--- --- -- ----- -- --- ---- -- --- ---- -- ------ ------<br>--- ----- at ----,216358.42000000412,216357.45999999926,215978.952,215984.70500000258,215995.65,216361.671,,54,at
screen,html.Screen,1_1_0_1_55,2021-04-18T18:07:35.086Z,,,,,,,,,,,,,,,,53,,,,,,,,,,,,,,539.4490000022633,,response,,,,99,,,,,,,Space,keypress(Space),,,,,,,,---- -- ----- -- ------ - ------- --- ----------<br>------------- ------ ------ ---- ---- ------- ----- -- ----<br>-------- ------- -- ---------- --- - --- ----- ----- ----<br>---- --- --- ----- --- ---- ---- ------- ----- ---- -------<br>--- --- -- ----- -- --- ---- -- --- ---- -- ------ ------<br>--- ----- -- all.,216902.22000000358,216901.12000000227,216345.348,216358.67000000144,216361.671,216911.2,,55,all.
Item 99,flow.Loop,1_1_0_1,2021-04-18T18:07:35.086Z,,,,,,,,,,,,,,,,,,,,,,,,,,,,,,26085.071000002266,,completion,,,,,D,,,,,,,,,,,silence,,,,,216902.95999999944,216901.12000000227,190782.944,190784.3850000063,190816.049,216911.2,,,
Question 1,html.Screen,1_1_0_2,2021-04-18T18:07:44.416Z,,,,,,,,,,,,,,,,,,,,,,,,,,,true,FALSE,,9318.480000003998,,response,,,,99,D,,,,,,FALSE,click #choice-2,,,,silence,,,,,226232.20000000583,226229.680000004,216894.91,216903.27000000252,216911.2,226236.859,,,
Question 2,html.Screen,1_1_0_3,2021-04-18T18:07:58.517Z,,,,,,,,,,,,,,,,,,,,,,,,,,,true,TRUE,,14094.121000006096,,response,,,,99,D,,,,,,TRUE,click #choice-1,,,,silence,,,,,240333.35500000248,240330.9800000061,226220.566,226232.560000004,226236.859,240341.893,,,
Item 99,flow.Sequence,1_1_0,2021-04-18T18:07:58.517Z,,,,,,,,,,,,,,,,,,,,,,,,,,,,,,59523.40400000609,,completion,,,,,,,,,,,,,,,,,,,,,240333.77499999915,240330.9800000061,180774.592,180798.09500000556,180807.576,240341.893,,,
Holding screen,html.Screen,1_1_1_0,2021-04-18T18:08:08.502Z,,,,,,,,,,,,,,,,,,,,,,,,,,,,,,9992.103000000003,,timeout,,,,,,,,,,,,,,,,,,,,,250318.70500000514,250317.414,240325.699,240334.05000000494,240341.893,250333.996,,,
screen,html.Screen,1_1_1_1_0,2021-04-18T18:08:09.919Z,,,,,,,,,,,,,,,,54,,,,,,,,,,,,,,1400.8590000024124,,response,,,,100,,,,,,,Space,keypress(Space),,,,,,,,At --- ---- --- ------ ----- ------- ---- -- --- ------- --<br>------- ---------- ------ -- ----- -- ----- -- ---- ------<br>--- ----- --- --- ------ -------- ----- --- ------ ----- --<br>----- ----- ---------- --- --- ------ ------ ---- -- ------<br>------- --- ------ ----- --- ---- ------- -- ---- --- --<br>------- ------,251735.83000000508,251734.85500000243,250317.414,250319.05000000552,250333.996,251749.235,,0,At
screen,html.Screen,1_1_1_1_1,2021-04-18T18:08:10.429Z,,,,,,,,,,,,,,,,54,,,,,,,,,,,,,,495.21500000561355,,response,,,,100,,,,,,,Space,keypress(Space),,,,,,,,-- the ---- --- ------ ----- ------- ---- -- --- ------- --<br>------- ---------- ------ -- ----- -- ----- -- ---- ------<br>--- ----- --- --- ------ -------- ----- --- ------ ----- --<br>----- ----- ---------- --- --- ------ ------ ---- -- ------<br>------- --- ------ ----- --- ---- ------- -- ---- --- --<br>------- ------,252245.43500000436,252244.4500000056,251732.757,251736.1000000019,251749.235,252248.73,,1,the
screen,html.Screen,1_1_1_1_2,2021-04-18T18:08:10.852Z,,,,,,,,,,,,,,,,54,,,,,,,,,,,,,,418.5350000036706,,response,,,,100,,,,,,,Space,keypress(Space),,,,,,,,-- --- time --- ------ ----- ------- ---- -- --- ------- --<br>------- ---------- ------ -- ----- -- ----- -- ---- ------<br>--- ----- --- --- ------ -------- ----- --- ------ ----- --<br>----- ----- ---------- --- --- ------ ------ ---- -- ------<br>------- --- ------ ----- --- ---- ------- -- ---- --- --<br>------- ------,252668.29500000313,252667.26500000368,252232.334,252245.69000000338,252248.73,252682.111,,2,time
screen,html.Screen,1_1_1_1_3,2021-04-18T18:08:11.236Z,,,,,,,,,,,,,,,,54,,,,,,,,,,,,,,369.799000001949,,response,,,,100,,,,,,,Space,keypress(Space),,,,,,,,-- --- ---- the ------ ----- ------- ---- -- --- ------- --<br>------- ---------- ------ -- ----- -- ----- -- ---- ------<br>--- ----- --- --- ------ -------- ----- --- ------ ----- --<br>----- ----- ---------- --- --- ------ ------ ---- -- ------<br>------- --- ------ ----- --- ---- ------- -- ---- --- --<br>------- ------,253052.9000000024,253051.91000000195,252665.496,252668.57000000164,252682.111,253065,,3,the
screen,html.Screen,1_1_1_1_4,2021-04-18T18:08:11.675Z,,,,,,,,,,,,,,,,54,,,,,,,,,,,,,,425.5150000049616,,response,,,,100,,,,,,,Space,keypress(Space),,,,,,,,-- --- ---- --- French ----- ------- ---- -- --- ------- --<br>------- ---------- ------ -- ----- -- ----- -- ---- ------<br>--- ----- --- --- ------ -------- ----- --- ------ ----- --<br>----- ----- ---------- --- --- ------ ------ ---- -- ------<br>------- --- ------ ----- --- ---- ------- -- ---- --- --<br>------- ------,253491.48500000592,253490.51500000496,253048.346,253053.15500000142,253065,253497.736,,4,French
screen,html.Screen,1_1_1_1_5,2021-04-18T18:08:12.139Z,,,,,,,,,,,,,,,,54,,,,,,,,,,,,,,457.2990000063146,,response,,,,100,,,,,,,Space,keypress(Space),,,,,,,,-- --- ---- --- ------ crown ------- ---- -- --- ------- --<br>------- ---------- ------ -- ----- -- ----- -- ---- ------<br>--- ----- --- --- ------ -------- ----- --- ------ ----- --<br>----- ----- ---------- --- --- ------ ------ ---- -- ------<br>------- --- ------ ----- --- ---- ------- -- ---- --- --<br>------- ------,253955.9950000039,253955.03500000632,253481.445,253491.74499999936,253497.736,253964.011,,5,crown
screen,html.Screen,1_1_1_1_6,2021-04-18T18:08:12.481Z,,,,,,,,,,,,,,,,54,,,,,,,,,,,,,,332.6640000050538,,response,,,,100,,,,,,,Space,keypress(Space),,,,,,,,-- --- ---- --- ------ ----- secured ---- -- --- ------- --<br>------- ---------- ------ -- ----- -- ----- -- ---- ------<br>--- ----- --- --- ------ -------- ----- --- ------ ----- --<br>----- ----- ---------- --- --- ------ ------ ---- -- ------<br>------- --- ------ ----- --- ---- ------- -- ---- --- --<br>------- ------,254297.7300000057,254296.67500000505,253947.749,253956.2500000029,253964.011,254314.028,,6,secured
screen,html.Screen,1_1_1_1_7,2021-04-18T18:08:12.891Z,,,,,,,,,,,,,,,,54,,,,,,,,,,,,,,392.79199999943376,,response,,,,100,,,,,,,Space,keypress(Space),,,,,,,,-- --- ---- --- ------ ----- ------- much -- --- ------- --<br>------- ---------- ------ -- ----- -- ----- -- ---- ------<br>--- ----- --- --- ------ -------- ----- --- ------ ----- --<br>----- ----- ---------- --- --- ------ ------ ---- -- ------<br>------- --- ------ ----- --- ---- ------- -- ---- --- --<br>------- ------,254707.7449999997,254706.81999999942,254297.415,254298.0100000059,254314.028,254713.36,,7,much
screen,html.Screen,1_1_1_1_8,2021-04-18T18:08:13.301Z,,,,,,,,,,,,,,,,54,,,,,,,,,,,,,,402.79000000166707,,response,,,,100,,,,,,,Space,keypress(Space),,,,,,,,-- --- ---- --- ------ ----- ------- ---- of --- ------- --<br>------- ---------- ------ -- ----- -- ----- -- ---- ------<br>--- ----- --- --- ------ -------- ----- --- ------ ----- --<br>----- ----- ---------- --- --- ------ ------ ---- -- ------<br>------- --- ------ ----- --- ---- ------- -- ---- --- --<br>------- ------,255117.11500000092,255116.15000000165,254696.682,254707.9950000043,254713.36,255130.094,,8,of
screen,html.Screen,1_1_1_1_9,2021-04-18T18:08:13.632Z,,,,,,,,,,,,,,,,54,,,,,,,,,,,,,,317.73600000460283,,response,,,,100,,,,,,,Space,keypress(Space),,,,,,,,-- --- ---- --- ------ ----- ------- ---- -- its ------- --<br>------- ---------- ------ -- ----- -- ----- -- ---- ------<br>--- ----- --- --- ------ -------- ----- --- ------ ----- --<br>----- ----- ---------- --- --- ------ ------ ---- -- ------<br>------- --- ------ ----- --- ---- ------- -- ---- --- --<br>------- ------,255448.7550000049,255447.83000000461,255113.438,255117.36999999994,255130.094,255463.205,,9,its
screen,html.Screen,1_1_1_1_10,2021-04-18T18:08:14.926Z,,,,,,,,,,,,,,,,54,,,,,,,,,,,,,,1277.9650000011607,,response,,,,100,,,,,,,Space,keypress(Space),,,,,,,,-- --- ---- --- ------ ----- ------- ---- -- --- revenue --<br>------- ---------- ------ -- ----- -- ----- -- ---- ------<br>--- ----- --- --- ------ -------- ----- --- ------ ----- --<br>----- ----- ---------- --- --- ------ ------ ---- -- ------<br>------- --- ------ ----- --- ---- ------- -- ---- --- --<br>------- ------,256742.10000000312,256741.17000000115,255446.479,255448.9900000044,255463.205,256745.031,,10,revenue
screen,html.Screen,1_1_1_1_11,2021-04-18T18:08:15.382Z,,,,,,,,,,,,,,,,54,,,,,,,,,,,,,,452.59900000240305,,response,,,,100,,,,,,,Space,keypress(Space),,,,,,,,-- --- ---- --- ------ ----- ------- ---- -- --- ------- by<br>------- ---------- ------ -- ----- -- ----- -- ---- ------<br>--- ----- --- --- ------ -------- ----- --- ------ ----- --<br>----- ----- ---------- --- --- ------ ------ ---- -- ------<br>------- --- ------ ----- --- ---- ------- -- ---- --- --<br>------- ------,257198.57500000217,257197.6300000024,256728.665,256742.36999999994,256745.031,257211.733,,11,by
screen,html.Screen,1_1_1_1_12,2021-04-18T18:08:15.794Z,,,,,,,,,,,,,,,,54,,,,,,,,,,,,,,398.4170000004233,,response,,,,100,,,,,,,Space,keypress(Space),,,,,,,,-- --- ---- --- ------ ----- ------- ---- -- --- ------- --<br>issuing ---------- ------ -- ----- -- ----- -- ---- ------<br>--- ----- --- --- ------ -------- ----- --- ------ ----- --<br>----- ----- ---------- --- --- ------ ------ ---- -- ------<br>------- --- ------ ----- --- ---- ------- -- ---- --- --<br>------- ------,257611.0600000029,257610.15000000043,257195.016,257198.83000000118,257211.733,257628.055,,12,issuing
screen,html.Screen,1_1_1_1_13,2021-04-18T18:08:16.166Z,,,,,,,,,,,,,,,,54,,,,,,,,,,,,,,353.3550000003306,,response,,,,100,,,,,,,Space,keypress(Space),,,,,,,,-- --- ---- --- ------ ----- ------- ---- -- --- ------- --<br>------- government ------ -- ----- -- ----- -- ---- ------<br>--- ----- --- --- ------ -------- ----- --- ------ ----- --<br>----- ----- ---------- --- --- ------ ------ ---- -- ------<br>------- --- ------ ----- --- ---- ------- -- ---- --- --<br>------- ------,257982.39000000467,257981.41000000032,257611.372,257611.31000000023,257628.055,257994.419,,13,government
screen,html.Screen,1_1_1_1_14,2021-04-18T18:08:16.565Z,,,,,,,,,,,,,,,,54,,,,,,,,,,,,,,385.8659999992815,,response,,,,100,,,,,,,Space,keypress(Space),,,,,,,,-- --- ---- --- ------ ----- ------- ---- -- --- ------- --<br>------- ---------- bonds. -- ----- -- ----- -- ---- ------<br>--- ----- --- --- ------ -------- ----- --- ------ ----- --<br>----- ----- ---------- --- --- ------ ------ ---- -- ------<br>------- --- ------ ----- --- ---- ------- -- ---- --- --<br>------- ------,258381.20000000345,258380.28499999928,257977.68,257982.65000000538,257994.419,258394.115,,14,bonds.
screen,html.Screen,1_1_1_1_15,2021-04-18T18:08:17.891Z,,,,,,,,,,,,,,,,54,,,,,,,,,,,,,,1312.2549999998882,,response,,,,100,,,,,,,Space,keypress(Space),,,,,,,,-- --- ---- --- ------ ----- ------- ---- -- --- ------- --<br>------- ---------- ------ In ----- -- ----- -- ---- ------<br>--- ----- --- --- ------ -------- ----- --- ------ ----- --<br>----- ----- ---------- --- --- ------ ------ ---- -- ------<br>------- --- ------ ----- --- ---- ------- -- ---- --- --<br>------- ------,259707.34500000253,259706.36999999988,258377.347,258381.47000000026,258394.115,259743.048,,15,In
screen,html.Screen,1_1_1_1_16,2021-04-18T18:08:18.303Z,,,,,,,,,,,,,,,,54,,,,,,,,,,,,,,375.2170000046026,,response,,,,100,,,,,,,Space,keypress(Space),,,,,,,,"-- --- ---- --- ------ ----- ------- ---- -- --- ------- --<br>------- ---------- ------ -- 1727, -- ----- -- ---- ------<br>--- ----- --- --- ------ -------- ----- --- ------ ----- --<br>----- ----- ---------- --- --- ------ ------ ---- -- ------<br>------- --- ------ ----- --- ---- ------- -- ---- --- --<br>------- ------",260119.23500000557,260118.2650000046,259692.901,259707.59000000544,259743.048,260125.593,,16,"1727,"
screen,html.Screen,1_1_1_1_17,2021-04-18T18:08:19.279Z,,,,,,,,,,,,,,,,54,,,,,,,,,,,,,,969.4570000035455,,response,,,,100,,,,,,,Space,keypress(Space),,,,,,,,-- --- ---- --- ------ ----- ------- ---- -- --- ------- --<br>------- ---------- ------ -- ----- in ----- -- ---- ------<br>--- ----- --- --- ------ -------- ----- --- ------ ----- --<br>----- ----- ---------- --- --- ------ ------ ---- -- ------<br>------- --- ------ ----- --- ---- ------- -- ---- --- --<br>------- ------,261096.000000005,261095.05000000354,260109.338,260119.4900000046,260125.593,261108.49,,17,in
screen,html.Screen,1_1_1_1_18,2021-04-18T18:08:19.773Z,,,,,,,,,,,,,,,,54,,,,,,,,,,,,,,479.64999999984866,,response,,,,100,,,,,,,Space,keypress(Space),,,,,,,,-- --- ---- --- ------ ----- ------- ---- -- --- ------- --<br>------- ---------- ------ -- ----- -- order -- ---- ------<br>--- ----- --- --- ------ -------- ----- --- ------ ----- --<br>----- ----- ---------- --- --- ------ ------ ---- -- ------<br>------- --- ------ ----- --- ---- ------- -- ---- --- --<br>------- ------,261589.1100000008,261588.13999999984,261091.774,261096.2600000057,261108.49,261614.85,,18,order
screen,html.Screen,1_1_1_1_19,2021-04-18T18:08:20.138Z,,,,,,,,,,,,,,,,54,,,,,,,,,,,,,,338.98500000024796,,response,,,,100,,,,,,,Space,keypress(Space),,,,,,,,-- --- ---- --- ------ ----- ------- ---- -- --- ------- --<br>------- ---------- ------ -- ----- -- ----- to ---- ------<br>--- ----- --- --- ------ -------- ----- --- ------ ----- --<br>----- ----- ---------- --- --- ------ ------ ---- -- ------<br>------- --- ------ ----- --- ---- ------- -- ---- --- --<br>------- ------,261954.7750000056,261953.83500000025,261574.793,261589.3700000015,261614.85,261957.392,,19,to
screen,html.Screen,1_1_1_1_20,2021-04-18T18:08:20.332Z,,,,,,,,,,,,,,,,54,,,,,,,,,,,,,,190.05300000234274,,response,,,,100,,,,,,,Space,keypress(Space),,,,,,,,-- --- ---- --- ------ ----- ------- ---- -- --- ------- --<br>------- ---------- ------ -- ----- -- ----- -- save ------<br>--- ----- --- --- ------ -------- ----- --- ------ ----- --<br>----- ----- ---------- --- --- ------ ------ ---- -- ------<br>------- --- ------ ----- --- ---- ------- -- ---- --- --<br>------- ------,262148.380000006,262147.44500000234,261940.72,261955.03500000632,261957.392,262157.501,,20,save
screen,html.Screen,1_1_1_1_21,2021-04-18T18:08:20.784Z,,,,,,,,,,,,,,,,54,,,,,,,,,,,,,,442.1290000042645,,response,,,,100,,,,,,,Space,keypress(Space),,,,,,,,"-- --- ---- --- ------ ----- ------- ---- -- --- ------- --<br>------- ---------- ------ -- ----- -- ----- -- ---- money,<br>--- ----- --- --- ------ -------- ----- --- ------ ----- --<br>----- ----- ---------- --- --- ------ ------ ---- -- ------<br>------- --- ------ ----- --- ---- ------- -- ---- --- --<br>------- ------",262600.6249999991,262599.63000000425,262141.001,262148.6550000045,262157.501,262606.843,,21,"money,"
screen,html.Screen,1_1_1_1_22,2021-04-18T18:08:21.223Z,,,,,,,,,,,,,,,,54,,,,,,,,,,,,,,431.5720000027213,,response,,,,100,,,,,,,Space,keypress(Space),,,,,,,,-- --- ---- --- ------ ----- ------- ---- -- --- ------- --<br>------- ---------- ------ -- ----- -- ----- -- ---- ------<br>the ----- --- --- ------ -------- ----- --- ------ ----- --<br>----- ----- ---------- --- --- ------ ------ ---- -- ------<br>------- --- ------ ----- --- ---- ------- -- ---- --- --<br>------- ------,263039.3700000059,263038.4150000027,262590.561,262600.8800000054,262606.843,263057.057,,22,the
screen,html.Screen,1_1_1_1_23,2021-04-18T18:08:21.592Z,,,,,,,,,,,,,,,,54,,,,,,,,,,,,,,350.47800000576535,,response,,,,100,,,,,,,Space,keypress(Space),,,,,,,,-- --- ---- --- ------ ----- ------- ---- -- --- ------- --<br>------- ---------- ------ -- ----- -- ----- -- ---- ------<br>--- state --- --- ------ -------- ----- --- ------ ----- --<br>----- ----- ---------- --- --- ------ ------ ---- -- ------<br>------- --- ------ ----- --- ---- ------- -- ---- --- --<br>------- ------,263408.500000005,263407.53500000574,263040.195,263039.6250000049,263057.057,263423.307,,23,state
screen,html.Screen,1_1_1_1_24,2021-04-18T18:08:21.920Z,,,,,,,,,,,,,,,,54,,,,,,,,,,,,,,312.71300000394695,,response,,,,100,,,,,,,Space,keypress(Space),,,,,,,,-- --- ---- --- ------ ----- ------- ---- -- --- ------- --<br>------- ---------- ------ -- ----- -- ----- -- ---- ------<br>--- ----- cut --- ------ -------- ----- --- ------ ----- --<br>----- ----- ---------- --- --- ------ ------ ---- -- ------<br>------- --- ------ ----- --- ---- ------- -- ---- --- --<br>------- ------,263736.8950000018,263736.0200000039,263406.562,263408.7849999996,263423.307,263739.292,,24,cut
screen,html.Screen,1_1_1_1_25,2021-04-18T18:08:22.310Z,,,,,,,,,,,,,,,,54,,,,,,,,,,,,,,386.66800000483636,,response,,,,100,,,,,,,Space,keypress(Space),,,,,,,,-- --- ---- --- ------ ----- ------- ---- -- --- ------- --<br>------- ---------- ------ -- ----- -- ----- -- ---- ------<br>--- ----- --- the ------ -------- ----- --- ------ ----- --<br>----- ----- ---------- --- --- ------ ------ ---- -- ------<br>------- --- ------ ----- --- ---- ------- -- ---- --- --<br>------- ------,264126.9100000063,264125.96000000485,263722.976,263737.12000000523,263739.292,264139.253,,25,the
screen,html.Screen,1_1_1_1_26,2021-04-18T18:08:22.632Z,,,,,,,,,,,,,,,,54,,,,,,,,,,,,,,308.0320000019856,,response,,,,100,,,,,,,Space,keypress(Space),,,,,,,,-- --- ---- --- ------ ----- ------- ---- -- --- ------- --<br>------- ---------- ------ -- ----- -- ----- -- ---- ------<br>--- ----- --- --- bonds' -------- ----- --- ------ ----- --<br>----- ----- ---------- --- --- ------ ------ ---- -- ------<br>------- --- ------ ----- --- ---- ------- -- ---- --- --<br>------- ------,264448.1650000016,264447.285000002,264122.684,264127.16000000364,264139.253,264455.336,,26,bonds'
screen,html.Screen,1_1_1_1_27,2021-04-18T18:08:23.072Z,,,,,,,,,,,,,,,,54,,,,,,,,,,,,,,432.3639999993029,,response,,,,100,,,,,,,Space,keypress(Space),,,,,,,,-- --- ---- --- ------ ----- ------- ---- -- --- ------- --<br>------- ---------- ------ -- ----- -- ----- -- ---- ------<br>--- ----- --- --- ------ interest ----- --- ------ ----- --<br>----- ----- ---------- --- --- ------ ------ ---- -- ------<br>------- --- ------ ----- --- ---- ------- -- ---- --- --<br>------- ------,264888.74000000214,264887.6999999993,264438.672,264448.4400000001,264455.336,264905.278,,27,interest
screen,html.Screen,1_1_1_1_28,2021-04-18T18:08:23.747Z,,,,,,,,,,,,,,,,54,,,,,,,,,,,,,,657.1670000032173,,response,,,,100,,,,,,,Space,keypress(Space),,,,,,,,-- --- ---- --- ------ ----- ------- ---- -- --- ------- --<br>------- ---------- ------ -- ----- -- ----- -- ---- ------<br>--- ----- --- --- ------ -------- rate. --- ------ ----- --<br>----- ----- ---------- --- --- ------ ------ ---- -- ------<br>------- --- ------ ----- --- ---- ------- -- ---- --- --<br>------- ------,265563.3650000018,265562.4450000032,264888.778,264888.99500000116,264905.278,265571.082,,28,rate.
screen,html.Screen,1_1_1_1_29,2021-04-18T18:08:24.215Z,,,,,,,,,,,,,,,,54,,,,,,,,,,,,,,459.7230000021518,,response,,,,100,,,,,,,Space,keypress(Space),,,,,,,,-- --- ---- --- ------ ----- ------- ---- -- --- ------- --<br>------- ---------- ------ -- ----- -- ----- -- ---- ------<br>--- ----- --- --- ------ -------- ----- The ------ ----- --<br>----- ----- ---------- --- --- ------ ------ ---- -- ------<br>------- --- ------ ----- --- ---- ------- -- ---- --- --<br>------- ------,266031.7550000036,266030.80500000215,265554.463,265563.6200000008,265571.082,266037.431,,29,The
screen,html.Screen,1_1_1_1_30,2021-04-18T18:08:24.611Z,,,,,,,,,,,,,,,,54,,,,,,,,,,,,,,389.59400000452297,,response,,,,100,,,,,,,Space,keypress(Space),,,,,,,,-- --- ---- --- ------ ----- ------- ---- -- --- ------- --<br>------- ---------- ------ -- ----- -- ----- -- ---- ------<br>--- ----- --- --- ------ -------- ----- --- market ----- --<br>----- ----- ---------- --- --- ------ ------ ---- -- ------<br>------- --- ------ ----- --- ---- ------- -- ---- --- --<br>------- ------,266428.06000000564,266427.0250000045,266021.129,266031.99999999924,266037.431,266437.312,,30,market
screen,html.Screen,1_1_1_1_31,2021-04-18T18:08:24.937Z,,,,,,,,,,,,,,,,54,,,,,,,,,,,,,,315.57800000341376,,response,,,,100,,,,,,,Space,keypress(Space),,,,,,,,-- --- ---- --- ------ ----- ------- ---- -- --- ------- --<br>------- ---------- ------ -- ----- -- ----- -- ---- ------<br>--- ----- --- --- ------ -------- ----- --- ------ value --<br>----- ----- ---------- --- --- ------ ------ ---- -- ------<br>------- --- ------ ----- --- ---- ------- -- ---- --- --<br>------- ------,266753.90000000334,266752.8900000034,266420.804,266428.31500000466,266437.312,266770.593,,31,value
screen,html.Screen,1_1_1_1_32,2021-04-18T18:08:25.345Z,,,,,,,,,,,,,,,,54,,,,,,,,,,,,,,389.8469999996596,,response,,,,100,,,,,,,Space,keypress(Space),,,,,,,,-- --- ---- --- ------ ----- ------- ---- -- --- ------- --<br>------- ---------- ------ -- ----- -- ----- -- ---- ------<br>--- ----- --- --- ------ -------- ----- --- ------ ----- of<br>----- ----- ---------- --- --- ------ ------ ---- -- ------<br>------- --- ------ ----- --- ---- ------- -- ---- --- --<br>------- ------,267161.4100000006,267160.43999999965,266753.813,266754.15500000236,266770.593,267169.84,,32,of
screen,html.Screen,1_1_1_1_33,2021-04-18T18:08:25.685Z,,,,,,,,,,,,,,,,54,,,,,,,,,,,,,,331.2000000028056,,response,,,,100,,,,,,,Space,keypress(Space),,,,,,,,-- --- ---- --- ------ ----- ------- ---- -- --- ------- --<br>------- ---------- ------ -- ----- -- ----- -- ---- ------<br>--- ----- --- --- ------ -------- ----- --- ------ ----- --<br>these ----- ---------- --- --- ------ ------ ---- -- ------<br>------- --- ------ ----- --- ---- ------- -- ---- --- --<br>------- ------,267502.0000000004,267501.04000000283,267153.52,267161.6600000052,267169.84,267519.851,,33,these
screen,html.Screen,1_1_1_1_34,2021-04-18T18:08:26.184Z,,,,,,,,,,,,,,,,54,,,,,,,,,,,,,,479.6490000053309,,response,,,,100,,,,,,,Space,keypress(Space),,,,,,,,-- --- ---- --- ------ ----- ------- ---- -- --- ------- --<br>------- ---------- ------ -- ----- -- ----- -- ---- ------<br>--- ----- --- --- ------ -------- ----- --- ------ ----- --<br>----- bonds ---------- --- --- ------ ------ ---- -- ------<br>------- --- ------ ----- --- ---- ------- -- ---- --- --<br>------- ------,268000.45500000124,267999.50000000536,267486.538,267502.2600000011,267519.851,268033.847,,34,bonds
screen,html.Screen,1_1_1_1_35,2021-04-18T18:08:26.452Z,,,,,,,,,,,,,,,,54,,,,,,,,,,,,,,234.02300000330433,,response,,,,100,,,,,,,Space,keypress(Space),,,,,,,,"-- --- ---- --- ------ ----- ------- ---- -- --- ------- --<br>------- ---------- ------ -- ----- -- ----- -- ---- ------<br>--- ----- --- --- ------ -------- ----- --- ------ ----- --<br>----- ----- plummeted, --- --- ------ ------ ---- -- ------<br>------- --- ------ ----- --- ---- ------- -- ---- --- --<br>------- ------",268268.8000000053,268267.8700000033,267986.137,268000.72000000364,268033.847,268286.018,,35,"plummeted,"
screen,html.Screen,1_1_1_1_36,2021-04-18T18:08:27.468Z,,,,,,,,,,,,,,,,54,,,,,,,,,,,,,,997.9620000001742,,response,,,,100,,,,,,,Space,keypress(Space),,,,,,,,-- --- ---- --- ------ ----- ------- ---- -- --- ------- --<br>------- ---------- ------ -- ----- -- ----- -- ---- ------<br>--- ----- --- --- ------ -------- ----- --- ------ ----- --<br>----- ----- ---------- and --- ------ ------ ---- -- ------<br>------- --- ------ ----- --- ---- ------- -- ---- --- --<br>------- ------,269284.89000000263,269283.98000000016,268269.21,268269.0700000021,268286.018,269301.764,,36,and
screen,html.Screen,1_1_1_1_37,2021-04-18T18:08:27.822Z,,,,,,,,,,,,,,,,54,,,,,,,,,,,,,,335.45100000244565,,response,,,,100,,,,,,,Space,keypress(Space),,,,,,,,-- --- ---- --- ------ ----- ------- ---- -- --- ------- --<br>------- ---------- ------ -- ----- -- ----- -- ---- ------<br>--- ----- --- --- ------ -------- ----- --- ------ ----- --<br>----- ----- ---------- --- the ------ ------ ---- -- ------<br>------- --- ------ ----- --- ---- ------- -- ---- --- --<br>------- ------,269638.14000000275,269637.21500000247,269285.054,269285.12000000046,269301.764,269651.504,,37,the
screen,html.Screen,1_1_1_1_38,2021-04-18T18:08:28.207Z,,,,,,,,,,,,,,,,54,,,,,,,,,,,,,,371.116000003356,,response,,,,100,,,,,,,Space,keypress(Space),,,,,,,,-- --- ---- --- ------ ----- ------- ---- -- --- ------- --<br>------- ---------- ------ -- ----- -- ----- -- ---- ------<br>--- ----- --- --- ------ -------- ----- --- ------ ----- --<br>----- ----- ---------- --- --- market ------ ---- -- ------<br>------- --- ------ ----- --- ---- ------- -- ---- --- --<br>------- ------,270023.52000000246,270022.6200000034,269634.805,269638.39500000176,269651.504,270034.397,,38,market
screen,html.Screen,1_1_1_1_39,2021-04-18T18:08:28.648Z,,,,,,,,,,,,,,,,54,,,,,,,,,,,,,,429.1130000014091,,response,,,,100,,,,,,,Space,keypress(Space),,,,,,,,-- --- ---- --- ------ ----- ------- ---- -- --- ------- --<br>------- ---------- ------ -- ----- -- ----- -- ---- ------<br>--- ----- --- --- ------ -------- ----- --- ------ ----- --<br>----- ----- ---------- --- --- ------ became ---- -- ------<br>------- --- ------ ----- --- ---- ------- -- ---- --- --<br>------- ------,270464.4250000056,270463.5100000014,270017.841,270023.7600000037,270034.397,270467.088,,39,became
screen,html.Screen,1_1_1_1_40,2021-04-18T18:08:29.034Z,,,,,,,,,,,,,,,,54,,,,,,,,,,,,,,382.74199999921257,,response,,,,100,,,,,,,Space,keypress(Space),,,,,,,,-- --- ---- --- ------ ----- ------- ---- -- --- ------- --<br>------- ---------- ------ -- ----- -- ----- -- ---- ------<br>--- ----- --- --- ------ -------- ----- --- ------ ----- --<br>----- ----- ---------- --- --- ------ ------ wary -- ------<br>------- --- ------ ----- --- ---- ------- -- ---- --- --<br>------- ------,270850.80500000186,270849.8299999992,270450.764,270464.6750000029,270467.088,270867.205,,40,wary
screen,html.Screen,1_1_1_1_41,2021-04-18T18:08:29.515Z,,,,,,,,,,,,,,,,54,,,,,,,,,,,,,,463.25500000466127,,response,,,,100,,,,,,,Space,keypress(Space),,,,,,,,-- --- ---- --- ------ ----- ------- ---- -- --- ------- --<br>------- ---------- ------ -- ----- -- ----- -- ---- ------<br>--- ----- --- --- ------ -------- ----- --- ------ ----- --<br>----- ----- ---------- --- --- ------ ------ ---- of ------<br>------- --- ------ ----- --- ---- ------- -- ---- --- --<br>------- ------,271331.44000000175,271330.4600000047,270850.36,270851.0549999992,270867.205,271366.138,,41,of
screen,html.Screen,1_1_1_1_42,2021-04-18T18:08:29.897Z,,,,,,,,,,,,,,,,54,,,,,,,,,,,,,,346.65200000506593,,response,,,,100,,,,,,,Space,keypress(Space),,,,,,,,-- --- ---- --- ------ ----- ------- ---- -- --- ------- --<br>------- ---------- ------ -- ----- -- ----- -- ---- ------<br>--- ----- --- --- ------ -------- ----- --- ------ ----- --<br>----- ----- ---------- --- --- ------ ------ ---- -- French<br>------- --- ------ ----- --- ---- ------- -- ---- --- --<br>------- ------,271713.7849999999,271712.79000000504,271316.753,271331.6899999991,271366.138,271716.028,,42,French
screen,html.Screen,1_1_1_1_43,2021-04-18T18:08:30.447Z,,,,,,,,,,,,,,,,54,,,,,,,,,,,,,,546.2820000055362,,response,,,,100,,,,,,,Space,keypress(Space),,,,,,,,-- --- ---- --- ------ ----- ------- ---- -- --- ------- --<br>------- ---------- ------ -- ----- -- ----- -- ---- ------<br>--- ----- --- --- ------ -------- ----- --- ------ ----- --<br>----- ----- ---------- --- --- ------ ------ ---- -- ------<br>credit. --- ------ ----- --- ---- ------- -- ---- --- --<br>------- ------,272263.2700000031,272262.3100000055,271699.838,271714.0500000023,271716.028,272265.581,,43,credit.
screen,html.Screen,1_1_1_1_44,2021-04-18T18:08:30.877Z,,,,,,,,,,,,,,,,54,,,,,,,,,,,,,,426.82400000159396,,response,,,,100,,,,,,,Space,keypress(Space),,,,,,,,-- --- ---- --- ------ ----- ------- ---- -- --- ------- --<br>------- ---------- ------ -- ----- -- ----- -- ---- ------<br>--- ----- --- --- ------ -------- ----- --- ------ ----- --<br>----- ----- ---------- --- --- ------ ------ ---- -- ------<br>------- The ------ ----- --- ---- ------- -- ---- --- --<br>------- ------,272693.3649999992,272692.4050000016,272249.282,272263.5200000004,272265.581,272698.581,,44,The
screen,html.Screen,1_1_1_1_45,2021-04-18T18:08:31.186Z,,,,,,,,,,,,,,,,54,,,,,,,,,,,,,,302.57400000537746,,response,,,,100,,,,,,,Space,keypress(Space),,,,,,,,-- --- ---- --- ------ ----- ------- ---- -- --- ------- --<br>------- ---------- ------ -- ----- -- ----- -- ---- ------<br>--- ----- --- --- ------ -------- ----- --- ------ ----- --<br>----- ----- ---------- --- --- ------ ------ ---- -- ------<br>------- --- French ----- --- ---- ------- -- ---- --- --<br>------- ------,273002.12000000465,273001.1550000054,272682.33,272693.6150000038,272698.581,273015.094,,45,French
screen,html.Screen,1_1_1_1_46,2021-04-18T18:08:31.601Z,,,,,,,,,,,,,,,,54,,,,,,,,,,,,,,401.6310000027879,,response,,,,100,,,,,,,Space,keypress(Space),,,,,,,,-- --- ---- --- ------ ----- ------- ---- -- --- ------- --<br>------- ---------- ------ -- ----- -- ----- -- ---- ------<br>--- ----- --- --- ------ -------- ----- --- ------ ----- --<br>----- ----- ---------- --- --- ------ ------ ---- -- ------<br>------- --- ------ state --- ---- ------- -- ---- --- --<br>------- ------,273417.65500000474,273416.72500000277,272998.741,273002.3849999998,273015.094,273431.725,,46,state
screen,html.Screen,1_1_1_1_47,2021-04-18T18:08:31.953Z,,,,,,,,,,,,,,,,54,,,,,,,,,,,,,,336.7500000044238,,response,,,,100,,,,,,,Space,keypress(Space),,,,,,,,-- --- ---- --- ------ ----- ------- ---- -- --- ------- --<br>------- ---------- ------ -- ----- -- ----- -- ---- ------<br>--- ----- --- --- ------ -------- ----- --- ------ ----- --<br>----- ----- ---------- --- --- ------ ------ ---- -- ------<br>------- --- ------ ----- was ---- ------- -- ---- --- --<br>------- ------,273769.42500000587,273768.4750000044,273415.087,273417.9000000004,273431.725,273781.371,,47,was
screen,html.Screen,1_1_1_1_48,2021-04-18T18:08:32.364Z,,,,,,,,,,,,,,,,54,,,,,,,,,,,,,,398.6640000048792,,response,,,,100,,,,,,,Space,keypress(Space),,,,,,,,-- --- ---- --- ------ ----- ------- ---- -- --- ------- --<br>------- ---------- ------ -- ----- -- ----- -- ---- ------<br>--- ----- --- --- ------ -------- ----- --- ------ ----- --<br>----- ----- ---------- --- --- ------ ------ ---- -- ------<br>------- --- ------ ----- --- left ------- -- ---- --- --<br>------- ------,274181.00000000413,274180.03500000486,273764.741,273769.6849999993,273781.371,274197.392,,48,left
screen,html.Screen,1_1_1_1_49,2021-04-18T18:08:32.700Z,,,,,,,,,,,,,,,,54,,,,,,,,,,,,,,318.18799999932526,,response,,,,100,,,,,,,Space,keypress(Space),,,,,,,,-- --- ---- --- ------ ----- ------- ---- -- --- ------- --<br>------- ---------- ------ -- ----- -- ----- -- ---- ------<br>--- ----- --- --- ------ -------- ----- --- ------ ----- --<br>----- ----- ---------- --- --- ------ ------ ---- -- ------<br>------- --- ------ ----- --- ---- without -- ---- --- --<br>------- ------,274516.54000000417,274515.5799999993,274180.958,274181.24000000535,274197.392,274530.828,,49,without
screen,html.Screen,1_1_1_1_50,2021-04-18T18:08:33.011Z,,,,,,,,,,,,,,,,54,,,,,,,,,,,,,,295.6619999994873,,response,,,,100,,,,,,,Space,keypress(Space),,,,,,,,-- --- ---- --- ------ ----- ------- ---- -- --- ------- --<br>------- ---------- ------ -- ----- -- ----- -- ---- ------<br>--- ----- --- --- ------ -------- ----- --- ------ ----- --<br>----- ----- ---------- --- --- ------ ------ ---- -- ------<br>------- --- ------ ----- --- ---- ------- an ---- --- --<br>------- ------,274827.4600000004,274826.48999999947,274514.146,274516.8000000049,274530.828,274830.17,,50,an
screen,html.Screen,1_1_1_1_51,2021-04-18T18:08:33.456Z,,,,,,,,,,,,,,,,54,,,,,,,,,,,,,,441.28500000189524,,response,,,,100,,,,,,,Space,keypress(Space),,,,,,,,-- --- ---- --- ------ ----- ------- ---- -- --- ------- --<br>------- ---------- ------ -- ----- -- ----- -- ---- ------<br>--- ----- --- --- ------ -------- ----- --- ------ ----- --<br>----- ----- ---------- --- --- ------ ------ ---- -- ------<br>------- --- ------ ----- --- ---- ------- -- easy --- --<br>------- ------,275272.40000000165,275271.4550000019,274813.898,274827.710000005,274830.17,275279.858,,51,easy
screen,html.Screen,1_1_1_1_52,2021-04-18T18:08:33.919Z,,,,,,,,,,,,,,,,54,,,,,,,,,,,,,,455.0570000009029,,response,,,,100,,,,,,,Space,keypress(Space),,,,,,,,-- --- ---- --- ------ ----- ------- ---- -- --- ------- --<br>------- ---------- ------ -- ----- -- ----- -- ---- ------<br>--- ----- --- --- ------ -------- ----- --- ------ ----- --<br>----- ----- ---------- --- --- ------ ------ ---- -- ------<br>------- --- ------ ----- --- ---- ------- -- ---- way --<br>------- ------,275735.8600000007,275734.9150000009,275263.489,275272.64500000456,275279.858,275746.405,,52,way
screen,html.Screen,1_1_1_1_53,2021-04-18T18:08:34.307Z,,,,,,,,,,,,,,,,54,,,,,,,,,,,,,,376.26500000426313,,response,,,,100,,,,,,,Space,keypress(Space),,,,,,,,-- --- ---- --- ------ ----- ------- ---- -- --- ------- --<br>------- ---------- ------ -- ----- -- ----- -- ---- ------<br>--- ----- --- --- ------ -------- ----- --- ------ ----- --<br>----- ----- ---------- --- --- ------ ------ ---- -- ------<br>------- --- ------ ----- --- ---- ------- -- ---- --- of<br>------- ------,276123.7450000044,276122.6700000043,275729.776,275736.1250000031,275746.405,276129.114,,53,of
screen,html.Screen,1_1_1_1_54,2021-04-18T18:08:34.978Z,,,,,,,,,,,,,,,,54,,,,,,,,,,,,,,664.3760000036564,,response,,,,100,,,,,,,Space,keypress(Space),,,,,,,,-- --- ---- --- ------ ----- ------- ---- -- --- ------- --<br>------- ---------- ------ -- ----- -- ----- -- ---- ------<br>--- ----- --- --- ------ -------- ----- --- ------ ----- --<br>----- ----- ---------- --- --- ------ ------ ---- -- ------<br>------- --- ------ ----- --- ---- ------- -- ---- --- --<br>raising ------,276794.42000000563,276793.49000000366,276112.778,276124.0250000046,276129.114,276812.238,,54,raising
screen,html.Screen,1_1_1_1_55,2021-04-18T18:08:35.571Z,,,,,,,,,,,,,,,,54,,,,,,,,,,,,,,574.3720000013709,,response,,,,100,,,,,,,Space,keypress(Space),,,,,,,,-- --- ---- --- ------ ----- ------- ---- -- --- ------- --<br>------- ---------- ------ -- ----- -- ----- -- ---- ------<br>--- ----- --- --- ------ -------- ----- --- ------ ----- --<br>----- ----- ---------- --- --- ------ ------ ---- -- ------<br>------- --- ------ ----- --- ---- ------- -- ---- --- --<br>------- money.,277387.56500000454,277386.6100000014,276778.939,276794.67000000295,276812.238,277394.715,,55,money.
Item 100,flow.Loop,1_1_1_1,2021-04-18T18:08:35.571Z,,,,,,,,,,,,,,,,,,,,,,,,,,,,,,27052.61400000137,,completion,,,,,D,,,,,,,,,,,silence,,,,,277388.0150000041,277386.6100000014,250317.414,250318.95000000077,250333.996,277394.715,,,
Question 1,html.Screen,1_1_1_2,2021-04-18T18:08:40.826Z,,,,,,,,,,,,,,,,,,,,,,,,,,,true,TRUE,,5244.9450000007055,,response,,,,100,D,,,,,,TRUE,click #choice-1,,,,silence,,,,,282642.2700000039,282639.66000000073,277378.07,277388.2250000024,277394.715,282657.036,,,
Question 2,html.Screen,1_1_1_3,2021-04-18T18:08:44.886Z,,,,,,,,,,,,,,,,,,,,,,,,,,,true,FALSE,,4042.9840000038384,,response,,,,100,D,,,,,,FALSE,click #choice-2,,,,silence,,,,,286702.33500000177,286700.02000000386,282640.727,282642.5350000063,282657.036,286720.774,,,
Item 100,flow.Sequence,1_1_1,2021-04-18T18:08:44.886Z,,,,,,,,,,,,,,,,,,,,,,,,,,,,,,46358.12700000385,,completion,,,,,,,,,,,,,,,,,,,,,286702.8449999998,286700.02000000386,240325.699,240333.96999999968,240341.893,286720.774,,,
End of Practice,html.Page,1_1_2,2021-04-18T18:08:48.058Z,,,,,,,,,,,,,,,,,,,,,,,,,,,,,,3152.541000004392,,form submission,,,,,,,,,,,,,,,,,,,,,289874.79000000167,289873.31500000437,286703.74,286703.0650000015,286720.774,289884.4,,,
Practice,flow.Sequence,1_1,2021-04-18T18:08:48.059Z,,,,,,,,,,,,,,,,,,,,,,,,,,,,,,109065.73900000437,,completion,,,,,,,,,,,,,,,,,,,,,289875.2050000039,289873.31500000437,180774.592,180797.9850000047,180807.576,289884.4,,,
Trap_instruction,html.Page,1_2_0,2021-04-18T18:08:55.410Z,,,,,,,,,,,,,,,,,,,,,,,,,,,,,,7341.595000000671,,form submission,,,,,,,,,,,,,,,,,,,,,297226.6000000018,297225.9950000007,289867.755,289875.4850000041,289884.4,297261.739,,,
trap_trial,html.Screen,1_2_1,2021-04-18T18:08:59.262Z,,,,,,,,,,,,,,,,,,,,,,,,,,,true,1,,3814.3510000022943,,response,,,,,,,,,,,1,click #choice-1,,,,,,,,,301078.6900000021,301076.0900000023,297212.125,297226.840000003,297261.739,301091.888,,,
end of trap trial,html.Page,1_2_2,2021-04-18T18:09:01.734Z,,,,,,,,,,,,,,,,,,,,,,,,,,,,,,2457.3820000031847,,form submission,,,,,,,,,,,,,,,,,,,,,303550.900000002,303549.27000000316,301075.682,301079.015000003,301091.888,303556.529,,,
Trap 1,flow.Sequence,1_2,2021-04-18T18:09:01.734Z,,,,,,,,,,,,,,,,,,,,,,,,,,,,,,13664.870000003139,,completion,,,,,,,,,,,,,,,,,,,,,303551.33500000375,303549.27000000316,289867.755,289875.39500000275,289884.4,303556.529,,,
Standby,html.Page,1_3_0,2021-04-18T18:09:09.718Z,,,,,,,,,,,,,,,,,,,,,,,,,,,,,,7993.404000000039,,timeout,,,,,,,,,,,,,,,,,,,,,311534.85500000534,311533.702,303539.804,303551.64499999955,303556.529,311549.933,,,
Holding screen,html.Screen,1_3_1_0_0,2021-04-18T18:09:16.712Z,,,,,,,,,,,,,,,,,,,,,,,,,,,,,,6994.630000000005,,timeout,,,,,,,,,,,,,,,,,,,,,318529.09999999974,318527.887,311533.702,311535.2550000025,311549.933,318544.563,,,
screen,html.Screen,1_3_1_0_1_0,2021-04-18T18:09:19.660Z,,,,,,,,,,,,,,,,15,,,,,,,,,,,,,,2931.4570000018575,,response,,,,7,D,,,,,,Space,keypress(Space),,,,silence,,,,Greg --------- ---------- - --- ------- -- --- ------------<br>----- -- -------- ------- ---- ------ - -------- ---- -----<br>--- ------- ---- -- --- -------- --- - ----- ------ ---- --<br>-------- --- -------- -------- --- -------- ---- -- ----- -<br>-------- ---- --- ---------- --------- -- ------- ------ -<br>--------- ----- -----,321477.1299999993,321476.0200000019,318527.887,318529.475000003,318544.563,321491.915,,0,Greg
screen,html.Screen,1_3_1_0_1_1,2021-04-18T18:09:20.262Z,,,,,,,,,,,,,,,,15,,,,,,,,,,,,,,586.2200000034063,,response,,,,7,D,,,,,,Space,keypress(Space),,,,silence,,,,"---- Anderson, ---------- - --- ------- -- --- ------------<br>----- -- -------- ------- ---- ------ - -------- ---- -----<br>--- ------- ---- -- --- -------- --- - ----- ------ ---- --<br>-------- --- -------- -------- --- -------- ---- -- ----- -<br>-------- ---- --- ---------- --------- -- ------- ------ -<br>--------- ----- -----",322079.2450000008,322078.1350000034,321475.334,321477.4200000029,321491.915,322091.302,,1,"Anderson,"
screen,html.Screen,1_3_1_0_1_2,2021-04-18T18:09:20.759Z,,,,,,,,,,,,,,,,15,,,,,,,,,,,,,,483.4830000043148,,response,,,,7,D,,,,,,Space,keypress(Space),,,,silence,,,,---- --------- considered - --- ------- -- --- ------------<br>----- -- -------- ------- ---- ------ - -------- ---- -----<br>--- ------- ---- -- --- -------- --- - ----- ------ ---- --<br>-------- --- -------- -------- --- -------- ---- -- ----- -<br>-------- ---- --- ---------- --------- -- ------- ------ -<br>--------- ----- -----,322575.7750000048,322574.78500000434,322074.975,322079.5400000061,322091.302,322591.279,,2,considered
screen,html.Screen,1_3_1_0_1_3,2021-04-18T18:09:21.149Z,,,,,,,,,,,,,,,,15,,,,,,,,,,,,,,373.6610000053188,,response,,,,7,D,,,,,,Space,keypress(Space),,,,silence,,,,---- --------- ---------- a --- ------- -- --- ------------<br>----- -- -------- ------- ---- ------ - -------- ---- -----<br>--- ------- ---- -- --- -------- --- - ----- ------ ---- --<br>-------- --- -------- -------- --- -------- ---- -- ----- -<br>-------- ---- --- ---------- --------- -- ------- ------ -<br>--------- ----- -----,322965.91000000626,322964.9400000053,322574.524,322576.0200000004,322591.279,322973.849,,3,a
screen,html.Screen,1_3_1_0_1_4,2021-04-18T18:09:21.520Z,,,,,,,,,,,,,,,,15,,,,,,,,,,,,,,362.0510000055074,,response,,,,7,D,,,,,,Space,keypress(Space),,,,silence,,,,---- --------- ---------- - key ------- -- --- ------------<br>----- -- -------- ------- ---- ------ - -------- ---- -----<br>--- ------- ---- -- --- -------- --- - ----- ------ ---- --<br>-------- --- -------- -------- --- -------- ---- -- ----- -<br>-------- ---- --- ---------- --------- -- ------- ------ -<br>--------- ----- -----,323336.84500000527,323335.9000000055,322957.555,322966.1800000031,322973.849,323340.196,,4,key
screen,html.Screen,1_3_1_0_1_5,2021-04-18T18:09:21.892Z,,,,,,,,,,,,,,,,15,,,,,,,,,,,,,,367.54899999970803,,response,,,,7,D,,,,,,Space,keypress(Space),,,,silence,,,,---- --------- ---------- - --- witness -- --- ------------<br>----- -- -------- ------- ---- ------ - -------- ---- -----<br>--- ------- ---- -- --- -------- --- - ----- ------ ---- --<br>-------- --- -------- -------- --- -------- ---- -- ----- -<br>-------- ---- --- ---------- --------- -- ------- ------ -<br>--------- ----- -----,323708.70000000286,323707.7449999997,323323.911,323337.1200000038,323340.196,323723.706,,5,witness
screen,html.Screen,1_3_1_0_1_6,2021-04-18T18:09:22.368Z,,,,,,,,,,,,,,,,15,,,,,,,,,,,,,,460.5039999994333,,response,,,,7,D,,,,,,Space,keypress(Space),,,,silence,,,,---- --------- ---------- - --- ------- by --- ------------<br>----- -- -------- ------- ---- ------ - -------- ---- -----<br>--- ------- ---- -- --- -------- --- - ----- ------ ---- --<br>-------- --- -------- -------- --- -------- ---- -- ----- -<br>-------- ---- --- ---------- --------- -- ------- ------ -<br>--------- ----- -----,324185.1700000043,324184.20999999944,323706.957,323708.9750000014,323723.706,324189.468,,6,by
screen,html.Screen,1_3_1_0_1_7,2021-04-18T18:09:22.688Z,,,,,,,,,,,,,,,,15,,,,,,,,,,,,,,314.78200000541983,,response,,,,7,D,,,,,,Space,keypress(Space),,,,silence,,,,---- --------- ---------- - --- ------- -- the ------------<br>----- -- -------- ------- ---- ------ - -------- ---- -----<br>--- ------- ---- -- --- -------- --- - ----- ------ ---- --<br>-------- --- -------- -------- --- -------- ---- -- ----- -<br>-------- ---- --- ---------- --------- -- ------- ------ -<br>--------- ----- -----,324505.27500000317,324504.2500000054,324173.184,324185.4200000016,324189.468,324522.909,,7,the
screen,html.Screen,1_3_1_0_1_8,2021-04-18T18:09:23.516Z,,,,,,,,,,,,,,,,15,,,,,,,,,,,,,,809.3209999999963,,response,,,,7,D,,,,,,Space,keypress(Space),,,,silence,,,,"---- --------- ---------- - --- ------- -- --- prosecution,<br>----- -- -------- ------- ---- ------ - -------- ---- -----<br>--- ------- ---- -- --- -------- --- - ----- ------ ---- --<br>-------- --- -------- -------- --- -------- ---- -- ----- -<br>-------- ---- --- ---------- --------- -- ------- ------ -<br>--------- ----- -----",325333.12500000466,325332.23,324489.696,324505.5250000005,324522.909,325338.559,,8,"prosecution,"
screen,html.Screen,1_3_1_0_1_9,2021-04-18T18:09:24.258Z,,,,,,,,,,,,,,,,15,,,,,,,,,,,,,,735.480999999505,,response,,,,7,D,,,,,,Space,keypress(Space),,,,silence,,,,---- --------- ---------- - --- ------- -- --- ------------<br>vowed -- -------- ------- ---- ------ - -------- ---- -----<br>--- ------- ---- -- --- -------- --- - ----- ------ ---- --<br>-------- --- -------- -------- --- -------- ---- -- ----- -<br>-------- ---- --- ---------- --------- -- ------- ------ -<br>--------- ----- -----,326074.9849999993,326074.0399999995,325322.253,325333.3500000008,325338.559,326088.352,,9,vowed
screen,html.Screen,1_3_1_0_1_10,2021-04-18T18:09:24.609Z,,,,,,,,,,,,,,,,15,,,,,,,,,,,,,,336.93799999920884,,response,,,,7,D,,,,,,Space,keypress(Space),,,,silence,,,,---- --------- ---------- - --- ------- -- --- ------------<br>----- he -------- ------- ---- ------ - -------- ---- -----<br>--- ------- ---- -- --- -------- --- - ----- ------ ---- --<br>-------- --- -------- -------- --- -------- ---- -- ----- -<br>-------- ---- --- ---------- --------- -- ------- ------ -<br>--------- ----- -----,326426.2100000051,326425.2899999992,326071.201,326075.2300000022,326088.352,326438.018,,10,he
screen,html.Screen,1_3_1_0_1_11,2021-04-18T18:09:24.828Z,,,,,,,,,,,,,,,,15,,,,,,,,,,,,,,205.51200000121025,,response,,,,7,D,,,,,,Space,keypress(Space),,,,silence,,,,---- --------- ---------- - --- ------- -- --- ------------<br>----- -- wouldn't ------- ---- ------ - -------- ---- -----<br>--- ------- ---- -- --- -------- --- - ----- ------ ---- --<br>-------- --- -------- -------- --- -------- ---- -- ----- -<br>-------- ---- --- ---------- --------- -- ------- ------ -<br>--------- ----- -----,326644.46000000316,326643.5300000012,326421.396,326426.4550000007,326438.018,326654.509,,11,wouldn't
screen,html.Screen,1_3_1_0_1_12,2021-04-18T18:09:25.460Z,,,,,,,,,,,,,,,,15,,,,,,,,,,,,,,621.1210000037099,,response,,,,7,D,,,,,,Space,keypress(Space),,,,silence,,,,---- --------- ---------- - --- ------- -- --- ------------<br>----- -- -------- testify ---- ------ - -------- ---- -----<br>--- ------- ---- -- --- -------- --- - ----- ------ ---- --<br>-------- --- -------- -------- --- -------- ---- -- ----- -<br>-------- ---- --- ---------- --------- -- ------- ------ -<br>--------- ----- -----,327276.6400000037,327275.63000000373,326637.837,326644.73,326654.509,327287.054,,12,testify
screen,html.Screen,1_3_1_0_1_13,2021-04-18T18:09:25.885Z,,,,,,,,,,,,,,,,15,,,,,,,,,,,,,,413.8610000012559,,response,,,,7,D,,,,,,Space,keypress(Space),,,,silence,,,,---- --------- ---------- - --- ------- -- --- ------------<br>----- -- -------- ------- when ------ - -------- ---- -----<br>--- ------- ---- -- --- -------- --- - ----- ------ ---- --<br>-------- --- -------- -------- --- -------- ---- -- ----- -<br>-------- ---- --- ---------- --------- -- ------- ------ -<br>--------- ----- -----,327701.83499999985,327700.91500000126,327270.734,327276.9100000005,327287.054,327736.043,,13,when
screen,html.Screen,1_3_1_0_1_14,2021-04-18T18:09:26.489Z,,,,,,,,,,,,,,,,15,,,,,,,,,,,,,,569.2820000011707,,response,,,,7,D,,,,,,Space,keypress(Space),,,,silence,,,,---- --------- ---------- - --- ------- -- --- ------------<br>----- -- -------- ------- ---- served - -------- ---- -----<br>--- ------- ---- -- --- -------- --- - ----- ------ ---- --<br>-------- --- -------- -------- --- -------- ---- -- ----- -<br>-------- ---- --- ---------- --------- -- ------- ------ -<br>--------- ----- -----,328306.31500000163,328305.3250000012,327686.671,327702.11000000563,327736.043,328319.869,,14,served
screen,html.Screen,1_3_1_0_1_15,2021-04-18T18:09:27.024Z,,,,,,,,,,,,,,,,15,,,,,,,,,,,,,,520.4609999990789,,response,,,,7,D,,,,,,Space,keypress(Space),,,,silence,,,,---- --------- ---------- - --- ------- -- --- ------------<br>----- -- -------- ------- ---- ------ a -------- ---- -----<br>--- ------- ---- -- --- -------- --- - ----- ------ ---- --<br>-------- --- -------- -------- --- -------- ---- -- ----- -<br>-------- ---- --- ---------- --------- -- ------- ------ -<br>--------- ----- -----,328841.27500000614,328840.3299999991,328303.161,328306.55500000285,328319.869,328852.689,,15,a
screen,html.Screen,1_3_1_0_1_16,2021-04-18T18:09:28.200Z,,,,,,,,,,,,,,,,15,,,,,,,,,,,,,,1163.416000002413,,response,,,,7,D,,,,,,Space,keypress(Space),,,,silence,,,,---- --------- ---------- - --- ------- -- --- ------------<br>----- -- -------- ------- ---- ------ - subpoena ---- -----<br>--- ------- ---- -- --- -------- --- - ----- ------ ---- --<br>-------- --- -------- -------- --- -------- ---- -- ----- -<br>-------- ---- --- ---------- --------- -- ------- ------ -<br>--------- ----- -----,330017.1000000046,330016.1050000024,328835.662,328841.52000000176,328852.689,330035.059,,16,subpoena
screen,html.Screen,1_3_1_0_1_17,2021-04-18T18:09:28.897Z,,,,,,,,,,,,,,,,15,,,,,,,,,,,,,,678.2210000035702,,response,,,,7,D,,,,,,Space,keypress(Space),,,,silence,,,,---- --------- ---------- - --- ------- -- --- ------------<br>----- -- -------- ------- ---- ------ - -------- last -----<br>--- ------- ---- -- --- -------- --- - ----- ------ ---- --<br>-------- --- -------- -------- --- -------- ---- -- ----- -<br>-------- ---- --- ---------- --------- -- ------- ------ -<br>--------- ----- -----,330714.26000000065,330713.2800000036,330001.797,330017.3450000002,330035.059,330717.509,,17,last
screen,html.Screen,1_3_1_0_1_18,2021-04-18T18:09:29.639Z,,,,,,,,,,,,,,,,15,,,,,,,,,,,,,,737.5709999997052,,response,,,,7,D,,,,,,Space,keypress(Space),,,,silence,,,,---- --------- ---------- - --- ------- -- --- ------------<br>----- -- -------- ------- ---- ------ - -------- ---- week.<br>--- ------- ---- -- --- -------- --- - ----- ------ ---- --<br>-------- --- -------- -------- --- -------- ---- -- ----- -<br>-------- ---- --- ---------- --------- -- ------- ------ -<br>--------- ----- -----,331455.9950000039,331455.0799999997,330701.201,330714.52500000305,330717.509,331467.163,,18,week.
screen,html.Screen,1_3_1_0_1_19,2021-04-18T18:09:30.248Z,,,,,,,,,,,,,,,,15,,,,,,,,,,,,,,597.0620000018971,,response,,,,7,D,,,,,,Space,keypress(Space),,,,silence,,,,---- --------- ---------- - --- ------- -- --- ------------<br>----- -- -------- ------- ---- ------ - -------- ---- -----<br>His ------- ---- -- --- -------- --- - ----- ------ ---- --<br>-------- --- -------- -------- --- -------- ---- -- ----- -<br>-------- ---- --- ---------- --------- -- ------- ------ -<br>--------- ----- -----,332065.23500000185,332064.2250000019,331450.601,331456.2500000029,331467.163,332099.369,,19,His
screen,html.Screen,1_3_1_0_1_20,2021-04-18T18:09:30.685Z,,,,,,,,,,,,,,,,15,,,,,,,,,,,,,,402.0510000005015,,response,,,,7,D,,,,,,Space,keypress(Space),,,,silence,,,,---- --------- ---------- - --- ------- -- --- ------------<br>----- -- -------- ------- ---- ------ - -------- ---- -----<br>--- lawyers ---- -- --- -------- --- - ----- ------ ---- --<br>-------- --- -------- -------- --- -------- ---- -- ----- -<br>-------- ---- --- ---------- --------- -- ------- ------ -<br>--------- ----- -----,332502.3650000003,332501.4200000005,332049.699,332065.49500000256,332099.369,332515.978,,20,lawyers
screen,html.Screen,1_3_1_0_1_21,2021-04-18T18:09:31.184Z,,,,,,,,,,,,,,,,15,,,,,,,,,,,,,,484.04700000118464,,response,,,,7,D,,,,,,Space,keypress(Space),,,,silence,,,,---- --------- ---------- - --- ------- -- --- ------------<br>----- -- -------- ------- ---- ------ - -------- ---- -----<br>--- ------- said -- --- -------- --- - ----- ------ ---- --<br>-------- --- -------- -------- --- -------- ---- -- ----- -<br>-------- ---- --- ---------- --------- -- ------- ------ -<br>--------- ----- -----,333000.7850000038,333000.0250000012,332499.738,332502.6199999993,332515.978,333015.531,,21,said
screen,html.Screen,1_3_1_0_1_22,2021-04-18T18:09:31.663Z,,,,,,,,,,,,,,,,15,,,,,,,,,,,,,,463.88400000159163,,response,,,,7,D,,,,,,Space,keypress(Space),,,,silence,,,,---- --------- ---------- - --- ------- -- --- ------------<br>----- -- -------- ------- ---- ------ - -------- ---- -----<br>--- ------- ---- he --- -------- --- - ----- ------ ---- --<br>-------- --- -------- -------- --- -------- ---- -- ----- -<br>-------- ---- --- ---------- --------- -- ------- ------ -<br>--------- ----- -----,333480.3650000031,333479.4150000016,332998.916,333001.04000000283,333015.531,333513.874,,22,he
screen,html.Screen,1_3_1_0_1_23,2021-04-18T18:09:32.125Z,,,,,,,,,,,,,,,,15,,,,,,,,,,,,,,427.1860000046436,,response,,,,7,D,,,,,,Space,keypress(Space),,,,silence,,,,---- --------- ---------- - --- ------- -- --- ------------<br>----- -- -------- ------- ---- ------ - -------- ---- -----<br>--- ------- ---- -- was -------- --- - ----- ------ ---- --<br>-------- --- -------- -------- --- -------- ---- -- ----- -<br>-------- ---- --- ---------- --------- -- ------- ------ -<br>--------- ----- -----,333942.0250000039,333941.06000000465,333465.105,333480.6150000004,333513.874,333948.081,,23,was
screen,html.Screen,1_3_1_0_1_24,2021-04-18T18:09:32.552Z,,,,,,,,,,,,,,,,15,,,,,,,,,,,,,,420.08399999985704,,response,,,,7,D,,,,,,Space,keypress(Space),,,,silence,,,,---- --------- ---------- - --- ------- -- --- ------------<br>----- -- -------- ------- ---- ------ - -------- ---- -----<br>--- ------- ---- -- --- prepared --- - ----- ------ ---- --<br>-------- --- -------- -------- --- -------- ---- -- ----- -<br>-------- ---- --- ---------- --------- -- ------- ------ -<br>--------- ----- -----,334369.1350000008,334368.16499999986,333931.9,333942.2900000063,333948.081,334381.117,,24,prepared
screen,html.Screen,1_3_1_0_1_25,2021-04-18T18:09:32.963Z,,,,,,,,,,,,,,,,15,,,,,,,,,,,,,,398.17800000024727,,response,,,,7,D,,,,,,Space,keypress(Space),,,,silence,,,,---- --------- ---------- - --- ------- -- --- ------------<br>----- -- -------- ------- ---- ------ - -------- ---- -----<br>--- ------- ---- -- --- -------- for - ----- ------ ---- --<br>-------- --- -------- -------- --- -------- ---- -- ----- -<br>-------- ---- --- ---------- --------- -- ------- ------ -<br>--------- ----- -----,334780.2900000024,334779.2950000003,334364.515,334369.39500000153,334381.117,334797.446,,25,for
screen,html.Screen,1_3_1_0_1_26,2021-04-18T18:09:33.377Z,,,,,,,,,,,,,,,,15,,,,,,,,,,,,,,395.7489999998361,,response,,,,7,D,,,,,,Space,keypress(Space),,,,silence,,,,---- --------- ---------- - --- ------- -- --- ------------<br>----- -- -------- ------- ---- ------ - -------- ---- -----<br>--- ------- ---- -- --- -------- --- a ----- ------ ---- --<br>-------- --- -------- -------- --- -------- ---- -- ----- -<br>-------- ---- --- ---------- --------- -- ------- ------ -<br>--------- ----- -----,335194.1650000008,335193.19499999983,334781.173,334780.54500000144,334797.446,335197.138,,26,a
screen,html.Screen,1_3_1_0_1_27,2021-04-18T18:09:33.984Z,,,,,,,,,,,,,,,,15,,,,,,,,,,,,,,602.6670000024023,,response,,,,7,D,,,,,,Space,keypress(Space),,,,silence,,,,---- --------- ---------- - --- ------- -- --- ------------<br>----- -- -------- ------- ---- ------ - -------- ---- -----<br>--- ------- ---- -- --- -------- --- - third ------ ---- --<br>-------- --- -------- -------- --- -------- ---- -- ----- -<br>-------- ---- --- ---------- --------- -- ------- ------ -<br>--------- ----- -----,335800.8000000045,335799.8050000024,335180.842,335194.4350000049,335197.138,335813.711,,27,third
screen,html.Screen,1_3_1_0_1_28,2021-04-18T18:09:34.436Z,,,,,,,,,,,,,,,,15,,,,,,,,,,,,,,438.30899999989197,,response,,,,7,D,,,,,,Space,keypress(Space),,,,silence,,,,---- --------- ---------- - --- ------- -- --- ------------<br>----- -- -------- ------- ---- ------ - -------- ---- -----<br>--- ------- ---- -- --- -------- --- - ----- prison ---- --<br>-------- --- -------- -------- --- -------- ---- -- ----- -<br>-------- ---- --- ---------- --------- -- ------- ------ -<br>--------- ----- -----,336253.04999999935,336252.0199999999,335797.07,335801.05000000185,335813.711,336263.222,,28,prison
screen,html.Screen,1_3_1_0_1_29,2021-04-18T18:09:34.920Z,,,,,,,,,,,,,,,,15,,,,,,,,,,,,,,472.713000004238,,response,,,,7,D,,,,,,Space,keypress(Space),,,,silence,,,,---- --------- ---------- - --- ------- -- --- ------------<br>----- -- -------- ------- ---- ------ - -------- ---- -----<br>--- ------- ---- -- --- -------- --- - ----- ------ stay --<br>-------- --- -------- -------- --- -------- ---- -- ----- -<br>-------- ---- --- ---------- --------- -- ------- ------ -<br>--------- ----- -----,336736.8600000045,336735.93500000425,336246.615,336253.32000000344,336263.222,336746.232,,29,stay
screen,html.Screen,1_3_1_0_1_30,2021-04-18T18:09:35.462Z,,,,,,,,,,,,,,,,15,,,,,,,,,,,,,,531.7830000034883,,response,,,,7,D,,,,,,Space,keypress(Space),,,,silence,,,,---- --------- ---------- - --- ------- -- --- ------------<br>----- -- -------- ------- ---- ------ - -------- ---- -----<br>--- ------- ---- -- --- -------- --- - ----- ------ ---- to<br>-------- --- -------- -------- --- -------- ---- -- ----- -<br>-------- ---- --- ---------- --------- -- ------- ------ -<br>--------- ----- -----,337279.05499999906,337278.0150000035,336729.591,336737.10000000574,336746.232,337295.863,,30,to
screen,html.Screen,1_3_1_0_1_31,2021-04-18T18:09:35.857Z,,,,,,,,,,,,,,,,15,,,,,,,,,,,,,,377.1520000002929,,response,,,,7,D,,,,,,Space,keypress(Space),,,,silence,,,,---- --------- ---------- - --- ------- -- --- ------------<br>----- -- -------- ------- ---- ------ - -------- ---- -----<br>--- ------- ---- -- --- -------- --- - ----- ------ ---- --<br>maintain --- -------- -------- --- -------- ---- -- ----- -<br>-------- ---- --- ---------- --------- -- ------- ------ -<br>--------- ----- -----,337674.00500000076,337673.0150000003,337279.12,337279.32000000146,337295.863,337678.396,,31,maintain
screen,html.Screen,1_3_1_0_1_32,2021-04-18T18:09:36.227Z,,,,,,,,,,,,,,,,15,,,,,,,,,,,,,,364.9290000059991,,response,,,,7,D,,,,,,Space,keypress(Space),,,,silence,,,,---- --------- ---------- - --- ------- -- --- ------------<br>----- -- -------- ------- ---- ------ - -------- ---- -----<br>--- ------- ---- -- --- -------- --- - ----- ------ ---- --<br>-------- his -------- -------- --- -------- ---- -- ----- -<br>-------- ---- --- ---------- --------- -- ------- ------ -<br>--------- ----- -----,338044.3400000004,338043.325000006,337662.137,337674.2599999998,337678.396,338061.904,,32,his
screen,html.Screen,1_3_1_0_1_33,2021-04-18T18:09:36.931Z,,,,,,,,,,,,,,,,15,,,,,,,,,,,,,,685.2210000017076,,response,,,,7,D,,,,,,Space,keypress(Space),,,,silence,,,,---- --------- ---------- - --- ------- -- --- ------------<br>----- -- -------- ------- ---- ------ - -------- ---- -----<br>--- ------- ---- -- --- -------- --- - ----- ------ ---- --<br>-------- --- silence. -------- --- -------- ---- -- ----- -<br>-------- ---- --- ---------- --------- -- ------- ------ -<br>--------- ----- -----,338748.11000000045,338747.1250000017,338045.147,338044.5949999994,338061.904,338761.261,,33,silence.
screen,html.Screen,1_3_1_0_1_34,2021-04-18T18:09:37.417Z,,,,,,,,,,,,,,,,15,,,,,,,,,,,,,,471.37400000030175,,response,,,,7,D,,,,,,Space,keypress(Space),,,,silence,,,,---- --------- ---------- - --- ------- -- --- ------------<br>----- -- -------- ------- ---- ------ - -------- ---- -----<br>--- ------- ---- -- --- -------- --- - ----- ------ ---- --<br>-------- --- -------- Anderson --- -------- ---- -- ----- -<br>-------- ---- --- ---------- --------- -- ------- ------ -<br>--------- ----- -----,339233.65000000194,339232.6350000003,338744.587,338748.36499999947,338761.261,339244.002,,34,Anderson
screen,html.Screen,1_3_1_0_1_35,2021-04-18T18:09:37.845Z,,,,,,,,,,,,,,,,15,,,,,,,,,,,,,,417.2280000051833,,response,,,,7,D,,,,,,Space,keypress(Space),,,,silence,,,,---- --------- ---------- - --- ------- -- --- ------------<br>----- -- -------- ------- ---- ------ - -------- ---- -----<br>--- ------- ---- -- --- -------- --- - ----- ------ ---- --<br>-------- --- -------- -------- was -------- ---- -- ----- -<br>-------- ---- --- ---------- --------- -- ------- ------ -<br>--------- ----- -----,339662.2400000051,339661.23000000516,339227.156,339233.90500000096,339244.002,339677.205,,35,was
screen,html.Screen,1_3_1_0_1_36,2021-04-18T18:09:38.267Z,,,,,,,,,,,,,,,,15,,,,,,,,,,,,,,405.34499999915715,,response,,,,7,D,,,,,,Space,keypress(Space),,,,silence,,,,---- --------- ---------- - --- ------- -- --- ------------<br>----- -- -------- ------- ---- ------ - -------- ---- -----<br>--- ------- ---- -- --- -------- --- - ----- ------ ---- --<br>-------- --- -------- -------- --- released ---- -- ----- -<br>-------- ---- --- ---------- --------- -- ------- ------ -<br>--------- ----- -----,340083.6000000054,340082.5499999992,339660.558,339662.4950000041,339677.205,340093.289,,36,released
screen,html.Screen,1_3_1_0_1_37,2021-04-18T18:09:38.681Z,,,,,,,,,,,,,,,,15,,,,,,,,,,,,,,403.65600000624545,,response,,,,7,D,,,,,,Space,keypress(Space),,,,silence,,,,---- --------- ---------- - --- ------- -- --- ------------<br>----- -- -------- ------- ---- ------ - -------- ---- -----<br>--- ------- ---- -- --- -------- --- - ----- ------ ---- --<br>-------- --- -------- -------- --- -------- July -- ----- -<br>-------- ---- --- ---------- --------- -- ------- ------ -<br>--------- ----- -----,340497.9050000038,340496.94500000624,340076.828,340083.8600000061,340093.289,340509.759,,37,July
screen,html.Screen,1_3_1_0_1_38,2021-04-18T18:09:39.227Z,,,,,,,,,,,,,,,,15,,,,,,,,,,,,,,532.7710000060615,,response,,,,7,D,,,,,,Space,keypress(Space),,,,silence,,,,---- --------- ---------- - --- ------- -- --- ------------<br>----- -- -------- ------- ---- ------ - -------- ---- -----<br>--- ------- ---- -- --- -------- --- - ----- ------ ---- --<br>-------- --- -------- -------- --- -------- ---- 20 ----- -<br>-------- ---- --- ---------- --------- -- ------- ------ -<br>--------- ----- -----,341043.580000005,341042.5300000061,340493.153,340498.1650000045,340509.759,341059.391,,38,20
screen,html.Screen,1_3_1_0_1_39,2021-04-18T18:09:40.695Z,,,,,,,,,,,,,,,,15,,,,,,,,,,,,,,1451.7790000052191,,response,,,,7,D,,,,,,Space,keypress(Space),,,,silence,,,,---- --------- ---------- - --- ------- -- --- ------------<br>----- -- -------- ------- ---- ------ - -------- ---- -----<br>--- ------- ---- -- --- -------- --- - ----- ------ ---- --<br>-------- --- -------- -------- --- -------- ---- -- after -<br>-------- ---- --- ---------- --------- -- ------- ------ -<br>--------- ----- -----,342512.1300000028,342511.1700000052,341042.671,341043.83500000404,341059.391,342524.833,,39,after
