sender,sender_type,sender_id,timestamp,meta,,Blues,Classical,Country,Dance,Electronic,Folk,Gospel,Hip-Hop,Jazz,Latin,Musical/Film,New-age,Pop,Provo_ID,R&B,Rap,Reggae,Religious,Rock,Soul,Swing,Traditional,age,artist_name,correct,correctResponse,distraction,duration,education,ended_on,familiarity,gender,headphone_check_performance,item,list,music_frequency,offensiveness,pleasantness,position_correct,preference,response,response_action,snippet_file,song_name,song_rating,sound,stimulus_1,stimulus_2,stimulus_3,text,time_commit,time_end,time_render,time_run,time_show,time_switch,url,word,word_ID
Introduction,html.Screen,0_0,2021-04-20T15:06:35.587Z,"{""labjs_version"":""20.2.2"",""labjs_build"":{""flavor"":""production"",""commit"":""a25486e0c714a0ae2ce03ff94b7bb6896854dcfa""},""location"":""https://run.pavlovia.org/mvasilev/music_e/"",""userAgent"":""Mozilla/5.0 (Windows NT 10.0; Win64; x64) AppleWebKit/537.36 (KHTML, like Gecko) Chrome/89.0.4389.128 Safari/537.36 Edg/89.0.774.77"",""platform"":""Win32"",""language"":""en-GB"",""locale"":""en-GB"",""timeZone"":""Europe/London"",""timezoneOffset"":-60,""screen_width"":1280,""screen_height"":720,""scroll_width"":1280,""scroll_height"":562,""window_innerWidth"":1280,""window_innerHeight"":610,""devicePixelRatio"":1.5}",,,,,,,,,,,,,,,,,,,,,,,,,,,,,101096.57000000332,,response,,,,,,,,,,,continue,click button,,,,,,,,,108555.83499999193,108553.44000000332,7390.211,7403.999999994994,7456.87,108568.722,{},,
Volume calibration,html.Screen,0_1,2021-04-20T15:08:11.161Z,,,,,,,,,,,,,,,,,,,,,,,,,,,,,,95556.65300000327,,response,,,,,,,,,,,continue,click button,,,,,,,,,204129.694999996,204125.37500000326,108552.554,108556.29999999655,108568.722,204130.916,,,
Task instructions,html.Screen,0_2,2021-04-20T15:08:16.376Z,,,,,,,,,,,,,,,,,,,,,,,,,,,,,,5213.0439999983355,,response,,,,,,,,,,,continue,click button,,,,,,,,,209345.26000000187,209343.95999999833,204114.776,204129.9399999989,204130.916,209347.323,,,
Sounds,html.Screen,0_3_0_0,2021-04-20T15:08:20.615Z,,,,,,,,,,,,,,,,,,,,,,,,,,,,,,4249.801999999996,,timeout,,,,,,,,,2,,,,,,,,O,S,I,,213584.35999999347,213580.558,209330.918,209345.68499999295,209347.323,213597.125,,,
Judgement,html.Screen,0_3_0_1,2021-04-20T15:08:23.452Z,,,,,,,,,,,,,,,,,,,,,,,,,,,false,2,,2822.854999991483,,response,,,,,,,,,2,,1,click #choice-1,,,,,O,S,I,,216421.13000000245,216419.97999999148,213580.558,213584.78999999352,213597.125,216430.32,,,
Trial,flow.Sequence,0_3_0,2021-04-20T15:08:23.454Z,,,,,,,,,,,,,,,,,,,,,,,,,,,,,,7072.656999991479,,completion,,,,,,,,,2,,,,,,,,O,S,I,,216423.55999999563,216419.97999999148,209330.918,209345.58500000276,209347.323,216430.32,,,
Sounds,html.Screen,0_3_1_0,2021-04-20T15:08:27.696Z,,,,,,,,,,,,,,,,,,,,,,,,,,,,,,4249.77899999998,,timeout,,,,,,,,,3,,,,,,,,I,O,S,,220665.35999999905,220663.567,216413.64,216423.80000000412,216430.32,220680.099,,,
Judgement,html.Screen,0_3_1_1,2021-04-20T15:08:28.371Z,,,,,,,,,,,,,,,,,,,,,,,,,,,true,3,,658.875999991491,,response,,,,,,,,,3,,3,click #choice-3,,,,,I,O,S,,221340.30500000517,221338.97499999148,220663.567,220665.64500000095,220680.099,221346.916,,,
Trial,flow.Sequence,0_3_1,2021-04-20T15:08:28.371Z,,,,,,,,,,,,,,,,,,,,,,,,,,,,,,4908.654999991471,,completion,,,,,,,,,3,,,,,,,,I,O,S,,221340.46999999555,221338.97499999148,216413.64,216423.73500000394,216430.32,221346.916,,,
Sounds,html.Screen,0_3_2_0,2021-04-20T15:08:32.612Z,,,,,,,,,,,,,,,,,,,,,,,,,,,,,,4249.92300000001,,timeout,,,,,,,,,3,,,,,,,,O,I,S,,225581.39500000107,225580.257,221330.421,221340.5849999981,221346.916,225596.839,,,
Judgement,html.Screen,0_3_2_1,2021-04-20T15:08:33.306Z,,,,,,,,,,,,,,,,,,,,,,,,,,,true,3,,677.1459999925282,,response,,,,,,,,,3,,3,click #choice-3,,,,,O,I,S,,226275.37499999744,226273.98499999254,225580.257,225581.72000000195,225596.839,226279.875,,,
Trial,flow.Sequence,0_3_2,2021-04-20T15:08:33.307Z,,,,,,,,,,,,,,,,,,,,,,,,,,,,,,4927.068999992538,,completion,,,,,,,,,3,,,,,,,,O,I,S,,226275.86999999767,226273.98499999254,221330.421,221340.5550000025,221346.916,226279.875,,,
Sounds,html.Screen,0_3_3_0,2021-04-20T15:08:37.545Z,,,,,,,,,,,,,,,,,,,,,,,,,,,,,,4249.776000000013,,timeout,,,,,,,,,1,,,,,,,,S,O,I,,230514.12999999593,230512.996,226263.214,226276.0350000026,226279.875,230529.651,,,
Judgement,html.Screen,0_3_3_1,2021-04-20T15:08:38.191Z,,,,,,,,,,,,,,,,,,,,,,,,,,,true,1,,629.223999993701,,response,,,,,,,,,1,,1,click #choice-1,,,,,S,O,I,,231160.13000000385,231158.8749999937,230512.996,230514.34500000323,230529.651,231163.088,,,
Trial,flow.Sequence,0_3_3,2021-04-20T15:08:38.191Z,,,,,,,,,,,,,,,,,,,,,,,,,,,,,,4878.999999993714,,completion,,,,,,,,,1,,,,,,,,S,O,I,,231160.55499999493,231158.8749999937,226263.214,226275.97999999125,226279.875,231163.088,,,
Sounds,html.Screen,0_3_4_0,2021-04-20T15:08:42.428Z,,,,,,,,,,,,,,,,,,,,,,,,,,,,,,4249.65300000002,,timeout,,,,,,,,,1,,,,,,,,S,I,O,,235397.67500000016,235396.152,231146.641,231160.81000000122,231163.088,235412.741,,,
Judgement,html.Screen,0_3_4_1,2021-04-20T15:08:43.018Z,,,,,,,,,,,,,,,,,,,,,,,,,,,true,1,,573.3039999978209,,response,,,,,,,,,1,,1,click #choice-1,,,,,S,I,O,,235987.5000000029,235986.04499999783,235396.152,235397.98500000325,235412.741,235996.081,,,
Trial,flow.Sequence,0_3_4,2021-04-20T15:08:43.019Z,,,,,,,,,,,,,,,,,,,,,,,,,,,,,,4822.956999997841,,completion,,,,,,,,,1,,,,,,,,S,I,O,,235987.8400000016,235986.04499999783,231146.641,231160.74500000104,231163.088,235996.081,,,
Sounds,html.Screen,0_3_5_0,2021-04-20T15:08:47.261Z,,,,,,,,,,,,,,,,,,,,,,,,,,,,,,4249.783999999985,,timeout,,,,,,,,,2,,,,,,,,I,S,O,,240230.25500000222,240229.444,235979.451,235988.02499999874,235996.081,240245.865,,,
Judgement,html.Screen,0_3_5_1,2021-04-20T15:08:47.831Z,,,,,,,,,,,,,,,,,,,,,,,,,,,true,2,,552.6500000022352,,response,,,,,,,,,2,,2,click #choice-2,,,,,I,S,O,,240799.84500000137,240798.51500000223,240229.444,240230.44499999378,240245.865,240812.521,,,
Trial,flow.Sequence,0_3_5,2021-04-20T15:08:47.831Z,,,,,,,,,,,,,,,,,,,,,,,,,,,,,,4802.43400000222,,completion,,,,,,,,,2,,,,,,,,I,S,O,,240800.1249999943,240798.51500000223,235979.451,235987.97499999637,235996.081,240812.521,,,
Task,flow.Loop,0_3,2021-04-20T15:08:47.835Z,,,,,,,,,,,,,,,,,,,,,,,,,,,,,,31451.192000002222,,completion,,,0.8333333333333334,,,,,,,,,,,,,,,,,,240804.56999999296,240798.51500000223,209330.918,209345.50500000478,209347.323,240812.521,,,
Trap,html.Screen,0_4,2021-04-20T15:08:47.836Z,,,,,,,,,,,,,,,,,,,,,,,,,,,,,,NaN,,skipped,,,,,,,,,,,,,,,,,,,,,240805.41000000085,240798.51500000223,,240805.2999999927,,240812.521,,,
Thanks,html.Screen,0_5,2021-04-20T15:08:53.073Z,,,,,,,,,,,,,,,,,,,,,,,,,,,,,,5228.523999990837,,response,,,,,,,,,,,continue,click button,,,,,,,,,246042.334999991,246041.04499999085,240796.052,240805.49499999324,240812.521,250578.859,,,
Headphone screening,flow.Sequence,0,2021-04-20T15:08:53.074Z,,,,,,,,,,,,,,,,,,,,,,,,,,,,,,238584.17499999085,,completion,,,,,,,,,,,,,,,,,,,,,246042.7400000044,246041.04499999085,7390.211,7403.949999992619,7456.87,250578.859,,,
Instructions,html.Page,1_0,2021-04-20T15:09:23.429Z,,,,,,,,,,,,,,,,,,,,,,,,,,,,,,25818.910999995947,,form submission,,,,,,,,,,,,,,,,,,,,,276398.0900000024,276397.76999999594,250562.194,250578.4299999941,250578.859,276427.786,,,
Holding screen,html.Screen,1_1_0_0,2021-04-20T15:09:33.443Z,,,,,,,,,,,,,,,,,,,,,,,,,,,,,,9999.23299999995,,timeout,,,,,,,,,,,,,,,,,,,,,286412.2300000017,286410.401,276411.042,276398.35999999195,276427.786,286427.019,,,
screen,html.Screen,1_1_0_1_0,2021-04-20T15:09:34.474Z,,,,,,,,,,,,,,,,53,,,,,,,,,,,,,,1012.7509999972535,,response,,,,99,,,,,,,Space,keypress(Space),,,,,,,,When -- ----- -- ------ - ------- --- ----------<br>------------- ------ ------ ---- ---- ------- ----- -- ----<br>-------- ------- -- ---------- --- - --- ----- ----- ----<br>---- --- --- ----- --- ---- ---- ------- ----- ---- -------<br>--- --- -- ----- -- --- ---- -- --- ---- -- ------ ------<br>--- ----- -- ----,287443.6549999955,287439.7699999972,286410.401,286412.49999999127,286427.019,287460.406,,0,When
screen,html.Screen,1_1_0_1_1,2021-04-20T15:09:35.050Z,,,,,,,,,,,,,,,,53,,,,,,,,,,,,,,557.7389999945299,,response,,,,99,,,,,,,Space,keypress(Space),,,,,,,,---- it ----- -- ------ - ------- --- ----------<br>------------- ------ ------ ---- ---- ------- ----- -- ----<br>-------- ------- -- ---------- --- - --- ----- ----- ----<br>---- --- --- ----- --- ---- ---- ------- ----- ---- -------<br>--- --- -- ----- -- --- ---- -- --- ---- -- ------ ------<br>--- ----- -- ----,288019.0500000026,288018.14499999455,287443.886,287443.8749999972,287460.406,288027.01,,1,it
screen,html.Screen,1_1_0_1_2,2021-04-20T15:09:35.539Z,,,,,,,,,,,,,,,,53,,,,,,,,,,,,,,481.2650000001304,,response,,,,99,,,,,,,Space,keypress(Space),,,,,,,,---- -- comes -- ------ - ------- --- ----------<br>------------- ------ ------ ---- ---- ------- ----- -- ----<br>-------- ------- -- ---------- --- - --- ----- ----- ----<br>---- --- --- ----- --- ---- ---- ------- ----- ---- -------<br>--- --- -- ----- -- --- ---- -- --- ---- -- ------ ------<br>--- ----- -- ----,288509.0150000033,288508.27500000014,288010.486,288019.22499999637,288027.01,288541.911,,2,comes
screen,html.Screen,1_1_0_1_3,2021-04-20T15:09:35.961Z,,,,,,,,,,,,,,,,53,,,,,,,,,,,,,,386.04399999190355,,response,,,,99,,,,,,,Space,keypress(Space),,,,,,,,---- -- ----- to ------ - ------- --- ----------<br>------------- ------ ------ ---- ---- ------- ----- -- ----<br>-------- ------- -- ---------- --- - --- ----- ----- ----<br>---- --- --- ----- --- ---- ---- ------- ----- ---- -------<br>--- --- -- ----- -- --- ---- -- --- ---- -- ------ ------<br>--- ----- -- ----,288930.0649999932,288927.9549999919,288493.963,288509.10999999905,288541.911,288943.643,,3,to
screen,html.Screen,1_1_0_1_4,2021-04-20T15:09:36.421Z,,,,,,,,,,,,,,,,53,,,,,,,,,,,,,,445.9919999995618,,response,,,,99,,,,,,,Space,keypress(Space),,,,,,,,---- -- ----- -- having - ------- --- ----------<br>------------- ------ ------ ---- ---- ------- ----- -- ----<br>-------- ------- -- ---------- --- - --- ----- ----- ----<br>---- --- --- ----- --- ---- ---- ------- ----- ---- -------<br>--- --- -- ----- -- --- ---- -- --- ---- -- ------ ------<br>--- ----- -- ----,289390.52499999525,289389.63499999954,288926.869,288930.2599999937,288943.643,289393.583,,4,having
screen,html.Screen,1_1_0_1_5,2021-04-20T15:09:36.932Z,,,,,,,,,,,,,,,,53,,,,,,,,,,,,,,507.381999993464,,response,,,,99,,,,,,,Space,keypress(Space),,,,,,,,---- -- ----- -- ------ a ------- --- ----------<br>------------- ------ ------ ---- ---- ------- ----- -- ----<br>-------- ------- -- ---------- --- - --- ----- ----- ----<br>---- --- --- ----- --- ---- ---- ------- ----- ---- -------<br>--- --- -- ----- -- --- ---- -- --- ---- -- ------ ------<br>--- ----- -- ----,289901.8550000037,289900.96499999345,289376.839,289390.70000000356,289393.583,289910.3,,5,a
screen,html.Screen,1_1_0_1_6,2021-04-20T15:09:37.413Z,,,,,,,,,,,,,,,,53,,,,,,,,,,,,,,471.4149999959045,,response,,,,99,,,,,,,Space,keypress(Space),,,,,,,,---- -- ----- -- ------ - lasting --- ----------<br>------------- ------ ------ ---- ---- ------- ----- -- ----<br>-------- ------- -- ---------- --- - --- ----- ----- ----<br>---- --- --- ----- --- ---- ---- ------- ----- ---- -------<br>--- --- -- ----- -- --- ---- -- --- ---- -- ------ ------<br>--- ----- -- ----,290382.64500000514,290381.7149999959,289893.766,289902.02999999747,289910.3,290393.794,,6,lasting
screen,html.Screen,1_1_0_1_7,2021-04-20T15:09:37.849Z,,,,,,,,,,,,,,,,53,,,,,,,,,,,,,,423.8760000040056,,response,,,,99,,,,,,,Space,keypress(Space),,,,,,,,---- -- ----- -- ------ - ------- and ----------<br>------------- ------ ------ ---- ---- ------- ----- -- ----<br>-------- ------- -- ---------- --- - --- ----- ----- ----<br>---- --- --- ----- --- ---- ---- ------- ----- ---- -------<br>--- --- -- ----- -- --- ---- -- --- ---- -- ------ ------<br>--- ----- -- ----,290818.5999999987,290817.670000004,290376.792,290382.8599999979,290393.794,290827.155,,7,and
screen,html.Screen,1_1_0_1_8,2021-04-20T15:09:38.305Z,,,,,,,,,,,,,,,,53,,,,,,,,,,,,,,446.46499999263324,,response,,,,99,,,,,,,Space,keypress(Space),,,,,,,,---- -- ----- -- ------ - ------- --- fulfilling<br>------------- ------ ------ ---- ---- ------- ----- -- ----<br>-------- ------- -- ---------- --- - --- ----- ----- ----<br>---- --- --- ----- --- ---- ---- ------- ----- ---- -------<br>--- --- -- ----- -- --- ---- -- --- ---- -- ------ ------<br>--- ----- -- ----,291274.48999999615,291273.61999999266,290810.496,290818.7800000014,290827.155,291276.749,,8,fulfilling
screen,html.Screen,1_1_0_1_9,2021-04-20T15:09:38.773Z,,,,,,,,,,,,,,,,53,,,,,,,,,,,,,,465.23099999158876,,response,,,,99,,,,,,,Space,keypress(Space),,,,,,,,"---- -- ----- -- ------ - ------- --- ----------<br>relationship, ------ ------ ---- ---- ------- ----- -- ----<br>-------- ------- -- ---------- --- - --- ----- ----- ----<br>---- --- --- ----- --- ---- ---- ------- ----- ---- -------<br>--- --- -- ----- -- --- ---- -- --- ---- -- ------ ------<br>--- ----- -- ----",291742.91000000085,291741.9799999916,291260.414,291274.6599999955,291276.749,291777.202,,9,"relationship,"
screen,html.Screen,1_1_0_1_10,2021-04-20T15:09:39.215Z,,,,,,,,,,,,,,,,53,,,,,,,,,,,,,,406.6379999978817,,response,,,,99,,,,,,,Space,keypress(Space),,,,,,,,---- -- ----- -- ------ - ------- --- ----------<br>------------- common ------ ---- ---- ------- ----- -- ----<br>-------- ------- -- ---------- --- - --- ----- ----- ----<br>---- --- --- ----- --- ---- ---- ------- ----- ---- -------<br>--- --- -- ----- -- --- ---- -- --- ---- -- ------ ------<br>--- ----- -- ----,292184.7149999958,292183.8399999979,291760.389,291743.11500000476,291777.202,292193.769,,10,common
screen,html.Screen,1_1_0_1_11,2021-04-20T15:09:39.753Z,,,,,,,,,,,,,,,,53,,,,,,,,,,,,,,527.5860000015236,,response,,,,99,,,,,,,Space,keypress(Space),,,,,,,,---- -- ----- -- ------ - ------- --- ----------<br>------------- ------ wisdom ---- ---- ------- ----- -- ----<br>-------- ------- -- ---------- --- - --- ----- ----- ----<br>---- --- --- ----- --- ---- ---- ------- ----- ---- -------<br>--- --- -- ----- -- --- ---- -- --- ---- -- ------ ------<br>--- ----- -- ----,292722.3249999952,292721.3550000015,292177.012,292184.8949999985,292193.769,292726.681,,11,wisdom
screen,html.Screen,1_1_0_1_12,2021-04-20T15:09:40.163Z,,,,,,,,,,,,,,,,53,,,,,,,,,,,,,,404.9640000013169,,response,,,,99,,,,,,,Space,keypress(Space),,,,,,,,---- -- ----- -- ------ - ------- --- ----------<br>------------- ------ ------ says ---- ------- ----- -- ----<br>-------- ------- -- ---------- --- - --- ----- ----- ----<br>---- --- --- ----- --- ---- ---- ------- ----- ---- -------<br>--- --- -- ----- -- --- ---- -- --- ---- -- ------ ------<br>--- ----- -- ----,293132.6299999928,293131.6450000013,292710.4,292722.5199999957,292726.681,293143.699,,12,says
screen,html.Screen,1_1_0_1_13,2021-04-20T15:09:40.630Z,,,,,,,,,,,,,,,,53,,,,,,,,,,,,,,455.1710000016028,,response,,,,99,,,,,,,Space,keypress(Space),,,,,,,,---- -- ----- -- ------ - ------- --- ----------<br>------------- ------ ------ ---- that ------- ----- -- ----<br>-------- ------- -- ---------- --- - --- ----- ----- ----<br>---- --- --- ----- --- ---- ---- ------- ----- ---- -------<br>--- --- -- ----- -- --- ---- -- --- ---- -- ------ ------<br>--- ----- -- ----,293599.96500000125,293598.8700000016,293126.918,293132.79999999213,293143.699,293610.391,,13,that
screen,html.Screen,1_1_0_1_14,2021-04-20T15:09:41.082Z,,,,,,,,,,,,,,,,53,,,,,,,,,,,,,,440.87400000187336,,response,,,,99,,,,,,,Space,keypress(Space),,,,,,,,---- -- ----- -- ------ - ------- --- ----------<br>------------- ------ ------ ---- ---- feeling ----- -- ----<br>-------- ------- -- ---------- --- - --- ----- ----- ----<br>---- --- --- ----- --- ---- ---- ------- ----- ---- -------<br>--- --- -- ----- -- --- ---- -- --- ---- -- ------ ------<br>--- ----- -- ----,294051.98499999824,294051.2650000019,293593.479,293600.25499999756,293610.391,294060.181,,14,feeling
screen,html.Screen,1_1_0_1_15,2021-04-20T15:09:41.517Z,,,,,,,,,,,,,,,,53,,,,,,,,,,,,,,425.3240000042133,,response,,,,99,,,,,,,Space,keypress(Space),,,,,,,,---- -- ----- -- ------ - ------- --- ----------<br>------------- ------ ------ ---- ---- ------- close -- ----<br>-------- ------- -- ---------- --- - --- ----- ----- ----<br>---- --- --- ----- --- ---- ---- ------- ----- ---- -------<br>--- --- -- ----- -- --- ---- -- --- ---- -- ------ ------<br>--- ----- -- ----,294486.4349999989,294485.5050000042,294043.612,294052.0899999974,294060.181,294493.548,,15,close
screen,html.Screen,1_1_0_1_16,2021-04-20T15:09:41.865Z,,,,,,,,,,,,,,,,53,,,,,,,,,,,,,,340.217000003031,,response,,,,99,,,,,,,Space,keypress(Space),,,,,,,,---- -- ----- -- ------ - ------- --- ----------<br>------------- ------ ------ ---- ---- ------- ----- to ----<br>-------- ------- -- ---------- --- - --- ----- ----- ----<br>---- --- --- ----- --- ---- ---- ------- ----- ---- -------<br>--- --- -- ----- -- --- ---- -- --- ---- -- ------ ------<br>--- ----- -- ----,294834.67499999097,294833.76500000304,294476.918,294486.6150000016,294493.548,294843.65,,16,to
screen,html.Screen,1_1_0_1_17,2021-04-20T15:09:42.241Z,,,,,,,,,,,,,,,,53,,,,,,,,,,,,,,365.990000000922,,response,,,,99,,,,,,,Space,keypress(Space),,,,,,,,---- -- ----- -- ------ - ------- --- ----------<br>------------- ------ ------ ---- ---- ------- ----- -- your<br>-------- ------- -- ---------- --- - --- ----- ----- ----<br>---- --- --- ----- --- ---- ---- ------- ----- ---- -------<br>--- --- -- ----- -- --- ---- -- --- ---- -- ------ ------<br>--- ----- -- ----,295210.50000000105,295209.64000000095,294826.615,294834.8699999915,294843.65,295226.961,,17,your
screen,html.Screen,1_1_0_1_18,2021-04-20T15:09:42.718Z,,,,,,,,,,,,,,,,53,,,,,,,,,,,,,,459.4940000027418,,response,,,,99,,,,,,,Space,keypress(Space),,,,,,,,---- -- ----- -- ------ - ------- --- ----------<br>------------- ------ ------ ---- ---- ------- ----- -- ----<br>romantic ------- -- ---------- --- - --- ----- ----- ----<br>---- --- --- ----- --- ---- ---- ------- ----- ---- -------<br>--- --- -- ----- -- --- ---- -- --- ---- -- ------ ------<br>--- ----- -- ----,295687.38999999186,295686.45500000275,295210.243,295210.6700000004,295226.961,295693.261,,18,romantic
screen,html.Screen,1_1_0_1_19,2021-04-20T15:09:43.097Z,,,,,,,,,,,,,,,,53,,,,,,,,,,,,,,372.37900000071386,,response,,,,99,,,,,,,Space,keypress(Space),,,,,,,,---- -- ----- -- ------ - ------- --- ----------<br>------------- ------ ------ ---- ---- ------- ----- -- ----<br>-------- partner -- ---------- --- - --- ----- ----- ----<br>---- --- --- ----- --- ---- ---- ------- ----- ---- -------<br>--- --- -- ----- -- --- ---- -- --- ---- -- ------ ------<br>--- ----- -- ----,296066.5449999942,296065.6400000007,295676.946,295687.5849999924,295693.261,296076.929,,19,partner
screen,html.Screen,1_1_0_1_20,2021-04-20T15:09:43.492Z,,,,,,,,,,,,,,,,53,,,,,,,,,,,,,,384.0110000044806,,response,,,,99,,,,,,,Space,keypress(Space),,,,,,,,---- -- ----- -- ------ - ------- --- ----------<br>------------- ------ ------ ---- ---- ------- ----- -- ----<br>-------- ------- is ---------- --- - --- ----- ----- ----<br>---- --- --- ----- --- ---- ---- ------- ----- ---- -------<br>--- --- -- ----- -- --- ---- -- --- ---- -- ------ ------<br>--- ----- -- ----,296461.8499999924,296460.9400000045,296059.943,296066.73500000034,296076.929,296476.713,,20,is
screen,html.Screen,1_1_0_1_21,2021-04-20T15:09:44.276Z,,,,,,,,,,,,,,,,53,,,,,,,,,,,,,,767.781999991741,,response,,,,99,,,,,,,Space,keypress(Space),,,,,,,,---- -- ----- -- ------ - ------- --- ----------<br>------------- ------ ------ ---- ---- ------- ----- -- ----<br>-------- ------- -- paramount. --- - --- ----- ----- ----<br>---- --- --- ----- --- ---- ---- ------- ----- ---- -------<br>--- --- -- ----- -- --- ---- -- --- ---- -- ------ ------<br>--- ----- -- ----,297245.3899999964,297244.49499999173,296460.232,296462.02999999514,296476.713,297260.172,,21,paramount.
screen,html.Screen,1_1_0_1_22,2021-04-20T15:09:44.787Z,,,,,,,,,,,,,,,,53,,,,,,,,,,,,,,495.0329999940004,,response,,,,99,,,,,,,Space,keypress(Space),,,,,,,,---- -- ----- -- ------ - ------- --- ----------<br>------------- ------ ------ ---- ---- ------- ----- -- ----<br>-------- ------- -- ---------- But - --- ----- ----- ----<br>---- --- --- ----- --- ---- ---- ------- ----- ---- -------<br>--- --- -- ----- -- --- ---- -- --- ---- -- ------ ------<br>--- ----- -- ----,297756.0300000041,297755.204999994,297243.097,297245.5800000025,297260.172,297759.81,,22,But
screen,html.Screen,1_1_0_1_23,2021-04-20T15:09:45.230Z,,,,,,,,,,,,,,,,53,,,,,,,,,,,,,,438.78499999438645,,response,,,,99,,,,,,,Space,keypress(Space),,,,,,,,---- -- ----- -- ------ - ------- --- ----------<br>------------- ------ ------ ---- ---- ------- ----- -- ----<br>-------- ------- -- ---------- --- a --- ----- ----- ----<br>---- --- --- ----- --- ---- ---- ------- ----- ---- -------<br>--- --- -- ----- -- --- ---- -- --- ---- -- ------ ------<br>--- ----- -- ----,298199.3450000009,298198.5949999944,297743.376,297756.2099999923,297759.81,298210.237,,23,a
screen,html.Screen,1_1_0_1_24,2021-04-20T15:09:45.632Z,,,,,,,,,,,,,,,,53,,,,,,,,,,,,,,390.13799999450566,,response,,,,99,,,,,,,Space,keypress(Space),,,,,,,,---- -- ----- -- ------ - ------- --- ----------<br>------------- ------ ------ ---- ---- ------- ----- -- ----<br>-------- ------- -- ---------- --- - new ----- ----- ----<br>---- --- --- ----- --- ---- ---- ------- ----- ---- -------<br>--- --- -- ----- -- --- ---- -- --- ---- -- ------ ------<br>--- ----- -- ----,298601.09999999986,298600.3749999945,298193.345,298199.46000000346,298210.237,298609.896,,24,new
screen,html.Screen,1_1_0_1_25,2021-04-20T15:09:46.085Z,,,,,,,,,,,,,,,,53,,,,,,,,,,,,,,443.3839999928023,,response,,,,99,,,,,,,Space,keypress(Space),,,,,,,,---- -- ----- -- ------ - ------- --- ----------<br>------------- ------ ------ ---- ---- ------- ----- -- ----<br>-------- ------- -- ---------- --- - --- study ----- ----<br>---- --- --- ----- --- ---- ---- ------- ----- ---- -------<br>--- --- -- ----- -- --- ---- -- --- ---- -- ------ ------<br>--- ----- -- ----,299054.07499999274,299053.2799999928,298593.386,298601.2000000046,298609.896,299059.741,,25,study
screen,html.Screen,1_1_0_1_26,2021-04-20T15:09:46.532Z,,,,,,,,,,,,,,,,53,,,,,,,,,,,,,,440.9389999973937,,response,,,,99,,,,,,,Space,keypress(Space),,,,,,,,---- -- ----- -- ------ - ------- --- ----------<br>------------- ------ ------ ---- ---- ------- ----- -- ----<br>-------- ------- -- ---------- --- - --- ----- finds ----<br>---- --- --- ----- --- ---- ---- ------- ----- ---- -------<br>--- --- -- ----- -- --- ---- -- --- ---- -- ------ ------<br>--- ----- -- ----,299501.58999999985,299500.6799999974,299043.387,299054.1749999975,299059.741,299510.163,,26,finds
screen,html.Screen,1_1_0_1_27,2021-04-20T15:09:46.938Z,,,,,,,,,,,,,,,,53,,,,,,,,,,,,,,396.706999991613,,response,,,,99,,,,,,,Space,keypress(Space),,,,,,,,---- -- ----- -- ------ - ------- --- ----------<br>------------- ------ ------ ---- ---- ------- ----- -- ----<br>-------- ------- -- ---------- --- - --- ----- ----- that<br>---- --- --- ----- --- ---- ---- ------- ----- ---- -------<br>--- --- -- ----- -- --- ---- -- --- ---- -- ------ ------<br>--- ----- -- ----,299907.7949999919,299906.8699999916,299493.253,299501.7599999992,299510.163,299909.689,,27,that
screen,html.Screen,1_1_0_1_28,2021-04-20T15:09:47.379Z,,,,,,,,,,,,,,,,53,,,,,,,,,,,,,,437.5309999960009,,response,,,,99,,,,,,,Space,keypress(Space),,,,,,,,---- -- ----- -- ------ - ------- --- ----------<br>------------- ------ ------ ---- ---- ------- ----- -- ----<br>-------- ------- -- ---------- --- - --- ----- ----- ----<br>it's --- --- ----- --- ---- ---- ------- ----- ---- -------<br>--- --- -- ----- -- --- ---- -- --- ---- -- ------ ------<br>--- ----- -- ----,300348.0850000051,300347.219999996,299893.313,299907.9700000002,299909.689,300359.736,,28,it's
screen,html.Screen,1_1_0_1_29,2021-04-20T15:09:47.755Z,,,,,,,,,,,,,,,,53,,,,,,,,,,,,,,363.4589999986929,,response,,,,99,,,,,,,Space,keypress(Space),,,,,,,,---- -- ----- -- ------ - ------- --- ----------<br>------------- ------ ------ ---- ---- ------- ----- -- ----<br>-------- ------- -- ---------- --- - --- ----- ----- ----<br>---- not --- ----- --- ---- ---- ------- ----- ---- -------<br>--- --- -- ----- -- --- ---- -- --- ---- -- ------ ------<br>--- ----- -- ----,300724.34000000067,300723.19499999867,300343.239,300348.28999999445,300359.736,300726.377,,29,not
screen,html.Screen,1_1_0_1_30,2021-04-20T15:09:48.153Z,,,,,,,,,,,,,,,,53,,,,,,,,,,,,,,394.8030000019353,,response,,,,99,,,,,,,Space,keypress(Space),,,,,,,,---- -- ----- -- ------ - ------- --- ----------<br>------------- ------ ------ ---- ---- ------- ----- -- ----<br>-------- ------- -- ---------- --- - --- ----- ----- ----<br>---- --- how ----- --- ---- ---- ------- ----- ---- -------<br>--- --- -- ----- -- --- ---- -- --- ---- -- ------ ------<br>--- ----- -- ----,301122.114999991,301121.1800000019,300709.981,300724.5149999944,300726.377,301126.312,,30,how
screen,html.Screen,1_1_0_1_31,2021-04-20T15:09:48.547Z,,,,,,,,,,,,,,,,53,,,,,,,,,,,,,,389.61299999972107,,response,,,,99,,,,,,,Space,keypress(Space),,,,,,,,---- -- ----- -- ------ - ------- --- ----------<br>------------- ------ ------ ---- ---- ------- ----- -- ----<br>-------- ------- -- ---------- --- - --- ----- ----- ----<br>---- --- --- close --- ---- ---- ------- ----- ---- -------<br>--- --- -- ----- -- --- ---- -- --- ---- -- ------ ------<br>--- ----- -- ----,301516.58500000485,301515.9249999997,301109.92,301122.2149999958,301126.312,301526.415,,31,close
screen,html.Screen,1_1_0_1_32,2021-04-20T15:09:48.921Z,,,,,,,,,,,,,,,,53,,,,,,,,,,,,,,363.5499999948661,,response,,,,99,,,,,,,Space,keypress(Space),,,,,,,,---- -- ----- -- ------ - ------- --- ----------<br>------------- ------ ------ ---- ---- ------- ----- -- ----<br>-------- ------- -- ---------- --- - --- ----- ----- ----<br>---- --- --- ----- you ---- ---- ------- ----- ---- -------<br>--- --- -- ----- -- --- ---- -- --- ---- -- ------ ------<br>--- ----- -- ----,301890.86499999394,301889.96499999485,301509.856,301516.69999999285,301526.415,301892.977,,32,you
screen,html.Screen,1_1_0_1_33,2021-04-20T15:09:49.361Z,,,,,,,,,,,,,,,,53,,,,,,,,,,,,,,436.9279999913997,,response,,,,99,,,,,,,Space,keypress(Space),,,,,,,,---- -- ----- -- ------ - ------- --- ----------<br>------------- ------ ------ ---- ---- ------- ----- -- ----<br>-------- ------- -- ---------- --- - --- ----- ----- ----<br>---- --- --- ----- --- feel ---- ------- ----- ---- -------<br>--- --- -- ----- -- --- ---- -- --- ---- -- ------ ------<br>--- ----- -- ----,302330.7849999983,302329.9049999914,301876.614,301891.06500000344,301892.977,302343.383,,33,feel
screen,html.Screen,1_1_0_1_34,2021-04-20T15:09:49.774Z,,,,,,,,,,,,,,,,53,,,,,,,,,,,,,,399.3670000049169,,response,,,,99,,,,,,,Space,keypress(Space),,,,,,,,---- -- ----- -- ------ - ------- --- ----------<br>------------- ------ ------ ---- ---- ------- ----- -- ----<br>-------- ------- -- ---------- --- - --- ----- ----- ----<br>---- --- --- ----- --- ---- that ------- ----- ---- -------<br>--- --- -- ----- -- --- ---- -- --- ---- -- ------ ------<br>--- ----- -- ----,302743.6400000006,302742.7500000049,302326.501,302330.965000001,302343.383,302759.927,,34,that
screen,html.Screen,1_1_0_1_35,2021-04-20T15:09:50.201Z,,,,,,,,,,,,,,,,53,,,,,,,,,,,,,,410.0529999914579,,response,,,,99,,,,,,,Space,keypress(Space),,,,,,,,---- -- ----- -- ------ - ------- --- ----------<br>------------- ------ ------ ---- ---- ------- ----- -- ----<br>-------- ------- -- ---------- --- - --- ----- ----- ----<br>---- --- --- ----- --- ---- ---- matters ----- ---- -------<br>--- --- -- ----- -- --- ---- -- --- ---- -- ------ ------<br>--- ----- -- ----,303170.91000000073,303169.9799999915,302742.901,302743.8200000033,302759.927,303176.21,,35,matters
screen,html.Screen,1_1_0_1_36,2021-04-20T15:09:50.622Z,,,,,,,,,,,,,,,,53,,,,,,,,,,,,,,414.3249999957043,,response,,,,99,,,,,,,Space,keypress(Space),,,,,,,,"---- -- ----- -- ------ - ------- --- ----------<br>------------- ------ ------ ---- ---- ------- ----- -- ----<br>-------- ------- -- ---------- --- - --- ----- ----- ----<br>---- --- --- ----- --- ---- ---- ------- most, ---- -------<br>--- --- -- ----- -- --- ---- -- --- ---- -- ------ ------<br>--- ----- -- ----",303591.4550000016,303590.5349999957,303159.551,303171.0749999911,303176.21,303619.156,,36,"most,"
screen,html.Screen,1_1_0_1_37,2021-04-20T15:09:51.039Z,,,,,,,,,,,,,,,,53,,,,,,,,,,,,,,388.61899999092566,,response,,,,99,,,,,,,Space,keypress(Space),,,,,,,,---- -- ----- -- ------ - ------- --- ----------<br>------------- ------ ------ ---- ---- ------- ----- -- ----<br>-------- ------- -- ---------- --- - --- ----- ----- ----<br>---- --- --- ----- --- ---- ---- ------- ----- it's -------<br>--- --- -- ----- -- --- ---- -- --- ---- -- ------ ------<br>--- ----- -- ----,304008.60499999544,304007.77499999094,303576.437,303591.6799999977,303619.156,304040.223,,37,it's
screen,html.Screen,1_1_0_1_38,2021-04-20T15:09:51.503Z,,,,,,,,,,,,,,,,53,,,,,,,,,,,,,,431.4019999910379,,response,,,,99,,,,,,,Space,keypress(Space),,,,,,,,---- -- ----- -- ------ - ------- --- ----------<br>------------- ------ ------ ---- ---- ------- ----- -- ----<br>-------- ------- -- ---------- --- - --- ----- ----- ----<br>---- --- --- ----- --- ---- ---- ------- ----- ---- whether<br>--- --- -- ----- -- --- ---- -- --- ---- -- ------ ------<br>--- ----- -- ----,304472.42499999993,304471.62499999104,303993.133,304008.77000000037,304040.223,304476.144,,38,whether
screen,html.Screen,1_1_0_1_39,2021-04-20T15:09:52.000Z,,,,,,,,,,,,,,,,53,,,,,,,,,,,,,,492.7959999915911,,response,,,,99,,,,,,,Space,keypress(Space),,,,,,,,---- -- ----- -- ------ - ------- --- ----------<br>------------- ------ ------ ---- ---- ------- ----- -- ----<br>-------- ------- -- ---------- --- - --- ----- ----- ----<br>---- --- --- ----- --- ---- ---- ------- ----- ---- -------<br>you --- -- ----- -- --- ---- -- --- ---- -- ------ ------<br>--- ----- -- ----,304969.79499999725,304968.93999999156,304459.774,304472.56500000367,304476.144,304976.18,,39,you
screen,html.Screen,1_1_0_1_40,2021-04-20T15:09:52.375Z,,,,,,,,,,,,,,,,53,,,,,,,,,,,,,,367.33999999490334,,response,,,,99,,,,,,,Space,keypress(Space),,,,,,,,---- -- ----- -- ------ - ------- --- ----------<br>------------- ------ ------ ---- ---- ------- ----- -- ----<br>-------- ------- -- ---------- --- - --- ----- ----- ----<br>---- --- --- ----- --- ---- ---- ------- ----- ---- -------<br>--- are -- ----- -- --- ---- -- --- ---- -- ------ ------<br>--- ----- -- ----,305344.4299999974,305343.5199999949,304959.434,304969.9649999966,304976.18,305359.808,,40,are
screen,html.Screen,1_1_0_1_41,2021-04-20T15:09:52.790Z,,,,,,,,,,,,,,,,53,,,,,,,,,,,,,,399.25699999107746,,response,,,,99,,,,,,,Space,keypress(Space),,,,,,,,---- -- ----- -- ------ - ------- --- ----------<br>------------- ------ ------ ---- ---- ------- ----- -- ----<br>-------- ------- -- ---------- --- - --- ----- ----- ----<br>---- --- --- ----- --- ---- ---- ------- ----- ---- -------<br>--- --- as ----- -- --- ---- -- --- ---- -- ------ ------<br>--- ----- -- ----,305759.98499999696,305759.0649999911,305343.011,305344.5950000023,305359.808,305776.427,,41,as
screen,html.Screen,1_1_0_1_42,2021-04-20T15:09:53.198Z,,,,,,,,,,,,,,,,53,,,,,,,,,,,,,,390.8479999997653,,response,,,,99,,,,,,,Space,keypress(Space),,,,,,,,---- -- ----- -- ------ - ------- --- ----------<br>------------- ------ ------ ---- ---- ------- ----- -- ----<br>-------- ------- -- ---------- --- - --- ----- ----- ----<br>---- --- --- ----- --- ---- ---- ------- ----- ---- -------<br>--- --- -- close -- --- ---- -- --- ---- -- ------ ------<br>--- ----- -- ----,306167.9000000004,306167.2749999998,305759.473,305760.1299999951,305776.427,306176.408,,42,close
screen,html.Screen,1_1_0_1_43,2021-04-20T15:09:53.579Z,,,,,,,,,,,,,,,,53,,,,,,,,,,,,,,371.1219999961904,,response,,,,99,,,,,,,Space,keypress(Space),,,,,,,,---- -- ----- -- ------ - ------- --- ----------<br>------------- ------ ------ ---- ---- ------- ----- -- ----<br>-------- ------- -- ---------- --- - --- ----- ----- ----<br>---- --- --- ----- --- ---- ---- ------- ----- ---- -------<br>--- --- -- ----- as --- ---- -- --- ---- -- ------ ------<br>--- ----- -- ----,306548.4049999941,306547.5299999962,306159.381,306167.96999999497,306176.408,306559.463,,43,as
screen,html.Screen,1_1_0_1_44,2021-04-20T15:09:53.964Z,,,,,,,,,,,,,,,,53,,,,,,,,,,,,,,373.206999994698,,response,,,,99,,,,,,,Space,keypress(Space),,,,,,,,---- -- ----- -- ------ - ------- --- ----------<br>------------- ------ ------ ---- ---- ------- ----- -- ----<br>-------- ------- -- ---------- --- - --- ----- ----- ----<br>---- --- --- ----- --- ---- ---- ------- ----- ---- -------<br>--- --- -- ----- -- you ---- -- --- ---- -- ------ ------<br>--- ----- -- ----,306933.554999996,306932.6699999947,306542.971,306548.569999999,306559.463,306943.168,,44,you
screen,html.Screen,1_1_0_1_45,2021-04-20T15:09:54.325Z,,,,,,,,,,,,,,,,53,,,,,,,,,,,,,,350.4870000013034,,response,,,,99,,,,,,,Space,keypress(Space),,,,,,,,---- -- ----- -- ------ - ------- --- ----------<br>------------- ------ ------ ---- ---- ------- ----- -- ----<br>-------- ------- -- ---------- --- - --- ----- ----- ----<br>---- --- --- ----- --- ---- ---- ------- ----- ---- -------<br>--- --- -- ----- -- --- want -- --- ---- -- ------ ------<br>--- ----- -- ----,307294.504999998,307293.6550000013,306926.027,306933.7749999977,306943.168,307309.746,,45,want
screen,html.Screen,1_1_0_1_46,2021-04-20T15:09:54.703Z,,,,,,,,,,,,,,,,53,,,,,,,,,,,,,,361.51899999723537,,response,,,,99,,,,,,,Space,keypress(Space),,,,,,,,---- -- ----- -- ------ - ------- --- ----------<br>------------- ------ ------ ---- ---- ------- ----- -- ----<br>-------- ------- -- ---------- --- - --- ----- ----- ----<br>---- --- --- ----- --- ---- ---- ------- ----- ---- -------<br>--- --- -- ----- -- --- ---- to --- ---- -- ------ ------<br>--- ----- -- ----,307672.1899999975,307671.2649999972,307292.704,307294.664999994,307309.746,307675.984,,46,to
screen,html.Screen,1_1_0_1_47,2021-04-20T15:09:55.076Z,,,,,,,,,,,,,,,,53,,,,,,,,,,,,,,368.550999993633,,response,,,,99,,,,,,,Space,keypress(Space),,,,,,,,"---- -- ----- -- ------ - ------- --- ----------<br>------------- ------ ------ ---- ---- ------- ----- -- ----<br>-------- ------- -- ---------- --- - --- ----- ----- ----<br>---- --- --- ----- --- ---- ---- ------- ----- ---- -------<br>--- --- -- ----- -- --- ---- -- be, ---- -- ------ ------<br>--- ----- -- ----",308045.35499999474,308044.53499999363,307659.599,307672.27999999886,307675.984,308059.674,,47,"be,"
screen,html.Screen,1_1_0_1_48,2021-04-20T15:09:55.420Z,,,,,,,,,,,,,,,,53,,,,,,,,,,,,,,328.99600000027567,,response,,,,99,,,,,,,Space,keypress(Space),,,,,,,,---- -- ----- -- ------ - ------- --- ----------<br>------------- ------ ------ ---- ---- ------- ----- -- ----<br>-------- ------- -- ---------- --- - --- ----- ----- ----<br>---- --- --- ----- --- ---- ---- ------- ----- ---- -------<br>--- --- -- ----- -- --- ---- -- --- even -- ------ ------<br>--- ----- -- ----,308389.5499999926,308388.6700000003,308042.877,308045.5499999953,308059.674,308392.748,,48,even
screen,html.Screen,1_1_0_1_49,2021-04-20T15:09:55.789Z,,,,,,,,,,,,,,,,53,,,,,,,,,,,,,,364.91200000292156,,response,,,,99,,,,,,,Space,keypress(Space),,,,,,,,---- -- ----- -- ------ - ------- --- ----------<br>------------- ------ ------ ---- ---- ------- ----- -- ----<br>-------- ------- -- ---------- --- - --- ----- ----- ----<br>---- --- --- ----- --- ---- ---- ------- ----- ---- -------<br>--- --- -- ----- -- --- ---- -- --- ---- if ------ ------<br>--- ----- -- ----,308758.4749999951,308757.66000000294,308376.265,308389.71999999194,308392.748,308790.32,,49,if
screen,html.Screen,1_1_0_1_50,2021-04-20T15:09:56.282Z,,,,,,,,,,,,,,,,53,,,,,,,,,,,,,,460.4149999941583,,response,,,,99,,,,,,,Space,keypress(Space),,,,,,,,---- -- ----- -- ------ - ------- --- ----------<br>------------- ------ ------ ---- ---- ------- ----- -- ----<br>-------- ------- -- ---------- --- - --- ----- ----- ----<br>---- --- --- ----- --- ---- ---- ------- ----- ---- -------<br>--- --- -- ----- -- --- ---- -- --- ---- -- that's ------<br>--- ----- -- ----,309251.5049999929,309250.73499999417,308742.92,308758.6549999978,308790.32,309259.625,,50,that's
screen,html.Screen,1_1_0_1_51,2021-04-20T15:09:56.730Z,,,,,,,,,,,,,,,,53,,,,,,,,,,,,,,439.0599999957485,,response,,,,99,,,,,,,Space,keypress(Space),,,,,,,,---- -- ----- -- ------ - ------- --- ----------<br>------------- ------ ------ ---- ---- ------- ----- -- ----<br>-------- ------- -- ---------- --- - --- ----- ----- ----<br>---- --- --- ----- --- ---- ---- ------- ----- ---- -------<br>--- --- -- ----- -- --- ---- -- --- ---- -- ------ really<br>--- ----- -- ----,309699.6450000006,309698.68499999575,309242.849,309251.68499999563,309259.625,309709.627,,51,really
screen,html.Screen,1_1_0_1_52,2021-04-20T15:09:57.110Z,,,,,,,,,,,,,,,,53,,,,,,,,,,,,,,368.79799999971874,,response,,,,99,,,,,,,Space,keypress(Space),,,,,,,,---- -- ----- -- ------ - ------- --- ----------<br>------------- ------ ------ ---- ---- ------- ----- -- ----<br>-------- ------- -- ---------- --- - --- ----- ----- ----<br>---- --- --- ----- --- ---- ---- ------- ----- ---- -------<br>--- --- -- ----- -- --- ---- -- --- ---- -- ------ ------<br>not ----- -- ----,310079.38999999897,310078.4249999997,309692.545,309699.81499999994,309709.627,310092.89,,52,not
screen,html.Screen,1_1_0_1_53,2021-04-20T15:09:57.470Z,,,,,,,,,,,,,,,,53,,,,,,,,,,,,,,345.959999991348,,response,,,,99,,,,,,,Space,keypress(Space),,,,,,,,---- -- ----- -- ------ - ------- --- ----------<br>------------- ------ ------ ---- ---- ------- ----- -- ----<br>-------- ------- -- ---------- --- - --- ----- ----- ----<br>---- --- --- ----- --- ---- ---- ------- ----- ---- -------<br>--- --- -- ----- -- --- ---- -- --- ---- -- ------ ------<br>--- close -- ----,310439.73499999265,310438.84999999136,310075.874,310079.5450000005,310092.89,310442.611,,53,close
screen,html.Screen,1_1_0_1_54,2021-04-20T15:09:57.812Z,,,,,,,,,,,,,,,,53,,,,,,,,,,,,,,338.48899999290006,,response,,,,99,,,,,,,Space,keypress(Space),,,,,,,,---- -- ----- -- ------ - ------- --- ----------<br>------------- ------ ------ ---- ---- ------- ----- -- ----<br>-------- ------- -- ---------- --- - --- ----- ----- ----<br>---- --- --- ----- --- ---- ---- ------- ----- ---- -------<br>--- --- -- ----- -- --- ---- -- --- ---- -- ------ ------<br>--- ----- at ----,310781.9299999974,310781.0999999929,310426.246,310439.8999999976,310442.611,310792.859,,54,at
screen,html.Screen,1_1_0_1_55,2021-04-20T15:09:58.288Z,,,,,,,,,,,,,,,,53,,,,,,,,,,,,,,463.75099999672966,,response,,,,99,,,,,,,Space,keypress(Space),,,,,,,,---- -- ----- -- ------ - ------- --- ----------<br>------------- ------ ------ ---- ---- ------- ----- -- ----<br>-------- ------- -- ---------- --- - --- ----- ----- ----<br>---- --- --- ----- --- ---- ---- ------- ----- ---- -------<br>--- --- -- ----- -- --- ---- -- --- ---- -- ------ ------<br>--- ----- -- all.,311257.45999999344,311256.6099999967,310776.117,310782.08999999333,310792.859,311288.193,,55,all.
Item 99,flow.Loop,1_1_0_1,2021-04-20T15:09:58.288Z,,,,,,,,,,,,,,,,,,,,,,,,,,,,,,24829.590999996755,,completion,,,,,E,,,,,,,,,,,silence,,,,,311257.7949999977,311256.6099999967,286410.401,286412.4299999967,286427.019,311288.193,,,
Question 1,html.Screen,1_1_0_2,2021-04-20T15:10:02.576Z,,,,,,,,,,,,,,,,,,,,,,,,,,,false,FALSE,,4255.416999993322,,response,,,,99,E,,,,,,TRUE,click #choice-1,,,,silence,,,,,315545.10999999184,315543.60999999335,311242.875,311257.93500000145,311288.193,315559.36,,,
Question 2,html.Screen,1_1_0_3,2021-04-20T15:10:05.297Z,,,,,,,,,,,,,,,,,,,,,,,,,,,true,TRUE,,2705.6799999984214,,response,,,,99,E,,,,,,TRUE,click #choice-1,,,,silence,,,,,318266.35999999417,318265.0399999984,315542.728,315545.29500000353,315559.36,318275.581,,,
Item 99,flow.Sequence,1_1_0,2021-04-20T15:10:05.297Z,,,,,,,,,,,,,,,,,,,,,,,,,,,,,,41837.253999998386,,completion,,,,,,,,,,,,,,,,,,,,,318266.68499999505,318265.0399999984,276411.042,276398.32500000193,276427.786,318275.581,,,
Holding screen,html.Screen,1_1_1_0,2021-04-20T15:10:15.290Z,,,,,,,,,,,,,,,,,,,,,,,,,,,,,,9999.580000000016,,timeout,,,,,,,,,,,,,,,,,,,,,328259.1450000036,328258.425,318259.106,318266.8549999944,318275.581,328275.161,,,
screen,html.Screen,1_1_1_1_0,2021-04-20T15:10:15.890Z,,,,,,,,,,,,,,,,54,,,,,,,,,,,,,,583.6839999951771,,response,,,,100,,,,,,,Space,keypress(Space),,,,,,,,At --- ---- --- ------ ----- ------- ---- -- --- ------- --<br>------- ---------- ------ -- ----- -- ----- -- ---- ------<br>--- ----- --- --- ------ -------- ----- --- ------ ----- --<br>----- ----- ---------- --- --- ------ ------ ---- -- ------<br>------- --- ------ ----- --- ---- ------- -- ---- --- --<br>------- ------,328859.6799999941,328858.8449999952,328258.425,328259.35500000196,328275.161,328875.173,,0,At
screen,html.Screen,1_1_1_1_1,2021-04-20T15:10:16.213Z,,,,,,,,,,,,,,,,54,,,,,,,,,,,,,,306.57199999439763,,response,,,,100,,,,,,,Space,keypress(Space),,,,,,,,-- the ---- --- ------ ----- ------- ---- -- --- ------- --<br>------- ---------- ------ -- ----- -- ----- -- ---- ------<br>--- ----- --- --- ------ -------- ----- --- ------ ----- --<br>----- ----- ---------- --- --- ------ ------ ---- -- ------<br>------- --- ------ ----- --- ---- ------- -- ---- --- --<br>------- ------,329182.65000000247,329181.7449999944,328858.544,328859.84499999904,328875.173,329191.707,,1,the
screen,html.Screen,1_1_1_1_2,2021-04-20T15:10:16.660Z,,,,,,,,,,,,,,,,54,,,,,,,,,,,,,,436.54299999430077,,response,,,,100,,,,,,,Space,keypress(Space),,,,,,,,-- --- time --- ------ ----- ------- ---- -- --- ------- --<br>------- ---------- ------ -- ----- -- ----- -- ---- ------<br>--- ----- --- --- ------ -------- ----- --- ------ ----- --<br>----- ----- ---------- --- --- ------ ------ ---- -- ------<br>------- --- ------ ----- --- ---- ------- -- ---- --- --<br>------- ------,329629.1749999946,329628.2499999943,329174.992,329182.8200000018,329191.707,329641.685,,2,time
screen,html.Screen,1_1_1_1_3,2021-04-20T15:10:17.017Z,,,,,,,,,,,,,,,,54,,,,,,,,,,,,,,344.17500000068685,,response,,,,100,,,,,,,Space,keypress(Space),,,,,,,,-- --- ---- the ------ ----- ------- ---- -- --- ------- --<br>------- ---------- ------ -- ----- -- ----- -- ---- ------<br>--- ----- --- --- ------ -------- ----- --- ------ ----- --<br>----- ----- ---------- --- --- ------ ------ ---- -- ------<br>------- --- ------ ----- --- ---- ------- -- ---- --- --<br>------- ------,329986.78500000096,329985.8600000007,329624.973,329629.3399999995,329641.685,329991.615,,3,the
screen,html.Screen,1_1_1_1_4,2021-04-20T15:10:17.402Z,,,,,,,,,,,,,,,,54,,,,,,,,,,,,,,378.43000000331085,,response,,,,100,,,,,,,Space,keypress(Space),,,,,,,,-- --- ---- --- French ----- ------- ---- -- --- ------- --<br>------- ---------- ------ -- ----- -- ----- -- ---- ------<br>--- ----- --- --- ------ -------- ----- --- ------ ----- --<br>----- ----- ---------- --- --- ------ ------ ---- -- ------<br>------- --- ------ ----- --- ---- ------- -- ---- --- --<br>------- ------,330370.9850000014,330370.0450000033,329974.948,329986.9449999969,329991.615,330375.032,,4,French
screen,html.Screen,1_1_1_1_5,2021-04-20T15:10:17.771Z,,,,,,,,,,,,,,,,54,,,,,,,,,,,,,,364.29799999669194,,response,,,,100,,,,,,,Space,keypress(Space),,,,,,,,-- --- ---- --- ------ crown ------- ---- -- --- ------- --<br>------- ---------- ------ -- ----- -- ----- -- ---- ------<br>--- ----- --- --- ------ -------- ----- --- ------ ----- --<br>----- ----- ---------- --- --- ------ ------ ---- -- ------<br>------- --- ------ ----- --- ---- ------- -- ---- --- --<br>------- ------,330740.1850000024,330739.3299999967,330358.579,330371.14499999734,330375.032,330763.027,,5,crown
screen,html.Screen,1_1_1_1_6,2021-04-20T15:10:18.222Z,,,,,,,,,,,,,,,,54,,,,,,,,,,,,,,427.4879999947734,,response,,,,100,,,,,,,Space,keypress(Space),,,,,,,,-- --- ---- --- ------ ----- secured ---- -- --- ------- --<br>------- ---------- ------ -- ----- -- ----- -- ---- ------<br>--- ----- --- --- ------ -------- ----- --- ------ ----- --<br>----- ----- ---------- --- --- ------ ------ ---- -- ------<br>------- --- ------ ----- --- ---- ------- -- ---- --- --<br>------- ------,331191.35500000266,331190.5149999948,330724.99,330740.3400000039,330763.027,331208.562,,6,secured
screen,html.Screen,1_1_1_1_7,2021-04-20T15:10:18.713Z,,,,,,,,,,,,,,,,54,,,,,,,,,,,,,,473.05299999407725,,response,,,,100,,,,,,,Space,keypress(Space),,,,,,,,-- --- ---- --- ------ ----- ------- much -- --- ------- --<br>------- ---------- ------ -- ----- -- ----- -- ---- ------<br>--- ----- --- --- ------ -------- ----- --- ------ ----- --<br>----- ----- ---------- --- --- ------ ------ ---- -- ------<br>------- --- ------ ----- --- ---- ------- -- ---- --- --<br>------- ------,331682.44000000414,331681.61499999405,331191.554,331191.5149999986,331208.562,331691.869,,7,much
screen,html.Screen,1_1_1_1_8,2021-04-20T15:10:19.081Z,,,,,,,,,,,,,,,,54,,,,,,,,,,,,,,357.6459999915096,,response,,,,100,,,,,,,Space,keypress(Space),,,,,,,,-- --- ---- --- ------ ----- ------- ---- of --- ------- --<br>------- ---------- ------ -- ----- -- ----- -- ---- ------<br>--- ----- --- --- ------ -------- ----- --- ------ ----- --<br>----- ----- ---------- --- --- ------ ------ ---- -- ------<br>------- --- ------ ----- --- ---- ------- -- ---- --- --<br>------- ------,332050.3349999926,332049.5149999915,331675.157,331682.6000000001,331691.869,332058.557,,8,of
screen,html.Screen,1_1_1_1_9,2021-04-20T15:10:19.411Z,,,,,,,,,,,,,,,,54,,,,,,,,,,,,,,320.35799999389565,,response,,,,100,,,,,,,Space,keypress(Space),,,,,,,,-- --- ---- --- ------ ----- ------- ---- -- its ------- --<br>------- ---------- ------ -- ----- -- ----- -- ---- ------<br>--- ----- --- --- ------ -------- ----- --- ------ ----- --<br>----- ----- ---------- --- --- ------ ------ ---- -- ------<br>------- --- ------ ----- --- ---- ------- -- ---- --- --<br>------- ------,332379.84999999753,332378.91499999387,332041.904,332050.52499999874,332058.557,332391.843,,9,its
screen,html.Screen,1_1_1_1_10,2021-04-20T15:10:19.804Z,,,,,,,,,,,,,,,,54,,,,,,,,,,,,,,380.93200000491925,,response,,,,100,,,,,,,Space,keypress(Space),,,,,,,,-- --- ---- --- ------ ----- ------- ---- -- --- revenue --<br>------- ---------- ------ -- ----- -- ----- -- ---- ------<br>--- ----- --- --- ------ -------- ----- --- ------ ----- --<br>----- ----- ---------- --- --- ------ ------ ---- -- ------<br>------- --- ------ ----- --- ---- ------- -- ---- --- --<br>------- ------,332773.6100000038,332772.7750000049,332375.119,332380.0099999935,332391.843,332796.694,,10,revenue
screen,html.Screen,1_1_1_1_11,2021-04-20T15:10:20.219Z,,,,,,,,,,,,,,,,54,,,,,,,,,,,,,,390.2359999961918,,response,,,,100,,,,,,,Space,keypress(Space),,,,,,,,-- --- ---- --- ------ ----- ------- ---- -- --- ------- by<br>------- ---------- ------ -- ----- -- ----- -- ---- ------<br>--- ----- --- --- ------ -------- ----- --- ------ ----- --<br>----- ----- ---------- --- --- ------ ------ ---- -- ------<br>------- --- ------ ----- --- ---- ------- -- ---- --- --<br>------- ------,333187.8649999999,333186.9299999962,332758.531,332773.7699999998,332796.694,333191.55,,11,by
screen,html.Screen,1_1_1_1_12,2021-04-20T15:10:20.636Z,,,,,,,,,,,,,,,,54,,,,,,,,,,,,,,412.4150000020745,,response,,,,100,,,,,,,Space,keypress(Space),,,,,,,,-- --- ---- --- ------ ----- ------- ---- -- --- ------- --<br>issuing ---------- ------ -- ----- -- ----- -- ---- ------<br>--- ----- --- --- ------ -------- ----- --- ------ ----- --<br>----- ----- ---------- --- --- ------ ------ ---- -- ------<br>------- --- ------ ----- --- ---- ------- -- ---- --- --<br>------- ------,333604.85000000335,333603.96500000206,333175.087,333188.03999999363,333191.55,333608.158,,12,issuing
screen,html.Screen,1_1_1_1_13,2021-04-20T15:10:20.997Z,,,,,,,,,,,,,,,,54,,,,,,,,,,,,,,357.52700000285404,,response,,,,100,,,,,,,Space,keypress(Space),,,,,,,,-- --- ---- --- ------ ----- ------- ---- -- --- ------- --<br>------- government ------ -- ----- -- ----- -- ---- ------<br>--- ----- --- --- ------ -------- ----- --- ------ ----- --<br>----- ----- ---------- --- --- ------ ------ ---- -- ------<br>------- --- ------ ----- --- ---- ------- -- ---- --- --<br>------- ------,333966.52000000176,333965.68500000285,333591.688,333605.0450000039,333608.158,333974.783,,13,government
screen,html.Screen,1_1_1_1_14,2021-04-20T15:10:21.439Z,,,,,,,,,,,,,,,,54,,,,,,,,,,,,,,433.01700000086566,,response,,,,100,,,,,,,Space,keypress(Space),,,,,,,,-- --- ---- --- ------ ----- ------- ---- -- --- ------- --<br>------- ---------- bonds. -- ----- -- ----- -- ---- ------<br>--- ----- --- --- ------ -------- ----- --- ------ ----- --<br>----- ----- ---------- --- --- ------ ------ ---- -- ------<br>------- --- ------ ----- --- ---- ------- -- ---- --- --<br>------- ------,334408.6799999932,334407.80000000086,333958.379,333967.38000000187,333974.783,334425.202,,14,bonds.
screen,html.Screen,1_1_1_1_15,2021-04-20T15:10:21.837Z,,,,,,,,,,,,,,,,54,,,,,,,,,,,,,,379.92799999337876,,response,,,,100,,,,,,,Space,keypress(Space),,,,,,,,-- --- ---- --- ------ ----- ------- ---- -- --- ------- --<br>------- ---------- ------ In ----- -- ----- -- ---- ------<br>--- ----- --- --- ------ -------- ----- --- ------ ----- --<br>----- ----- ---------- --- --- ------ ------ ---- -- ------<br>------- --- ------ ----- --- ---- ------- -- ---- --- --<br>------- ------,334805.8599999931,334805.12999999337,334408.352,334408.8400000037,334425.202,334808.035,,15,In
screen,html.Screen,1_1_1_1_16,2021-04-20T15:10:22.146Z,,,,,,,,,,,,,,,,54,,,,,,,,,,,,,,306.5900000020047,,response,,,,100,,,,,,,Space,keypress(Space),,,,,,,,"-- --- ---- --- ------ ----- ------- ---- -- --- ------- --<br>------- ---------- ------ -- 1727, -- ----- -- ---- ------<br>--- ----- --- --- ------ -------- ----- --- ------ ----- --<br>----- ----- ---------- --- --- ------ ------ ---- -- ------<br>------- --- ------ ----- --- ---- ------- -- ---- --- --<br>------- ------",335115.5549999967,335114.625000002,334791.368,334805.9649999923,334808.035,335125.121,,16,"1727,"
screen,html.Screen,1_1_1_1_17,2021-04-20T15:10:22.575Z,,,,,,,,,,,,,,,,54,,,,,,,,,,,,,,418.77399999526097,,response,,,,100,,,,,,,Space,keypress(Space),,,,,,,,-- --- ---- --- ------ ----- ------- ---- -- --- ------- --<br>------- ---------- ------ -- ----- in ----- -- ---- ------<br>--- ----- --- --- ------ -------- ----- --- ------ ----- --<br>----- ----- ---------- --- --- ------ ------ ---- -- ------<br>------- --- ------ ----- --- ---- ------- -- ---- --- --<br>------- ------,335544.7899999999,335543.89499999525,335108.037,335115.7450000028,335125.121,335558.462,,17,in
screen,html.Screen,1_1_1_1_18,2021-04-20T15:10:23.044Z,,,,,,,,,,,,,,,,54,,,,,,,,,,,,,,453.9479999957257,,response,,,,100,,,,,,,Space,keypress(Space),,,,,,,,-- --- ---- --- ------ ----- ------- ---- -- --- ------- --<br>------- ---------- ------ -- ----- -- order -- ---- ------<br>--- ----- --- --- ------ -------- ----- --- ------ ----- --<br>----- ----- ---------- --- --- ------ ------ ---- -- ------<br>------- --- ------ ----- --- ---- ------- -- ---- --- --<br>------- ------,336013.48999999755,336012.4099999957,335541.703,335544.94500000146,335558.462,336024.752,,18,order
screen,html.Screen,1_1_1_1_19,2021-04-20T15:10:23.350Z,,,,,,,,,,,,,,,,54,,,,,,,,,,,,,,293.5730000002077,,response,,,,100,,,,,,,Space,keypress(Space),,,,,,,,-- --- ---- --- ------ ----- ------- ---- -- --- ------- --<br>------- ---------- ------ -- ----- -- ----- to ---- ------<br>--- ----- --- --- ------ -------- ----- --- ------ ----- --<br>----- ----- ---------- --- --- ------ ------ ---- -- ------<br>------- --- ------ ----- --- ---- ------- -- ---- --- --<br>------- ------,336319.1999999981,336318.3250000002,336007.968,336013.6550000025,336024.752,336324.713,,19,to
screen,html.Screen,1_1_1_1_20,2021-04-20T15:10:23.692Z,,,,,,,,,,,,,,,,54,,,,,,,,,,,,,,335.377000004868,,response,,,,100,,,,,,,Space,keypress(Space),,,,,,,,-- --- ---- --- ------ ----- ------- ---- -- --- ------- --<br>------- ---------- ------ -- ----- -- ----- -- save ------<br>--- ----- --- --- ------ -------- ----- --- ------ ----- --<br>----- ----- ---------- --- --- ------ ------ ---- -- ------<br>------- --- ------ ----- --- ---- ------- -- ---- --- --<br>------- ------,336660.9599999938,336660.09000000486,336308.152,336319.35999999405,336324.713,336674.968,,20,save
screen,html.Screen,1_1_1_1_21,2021-04-20T15:10:24.036Z,,,,,,,,,,,,,,,,54,,,,,,,,,,,,,,329.33200000051875,,response,,,,100,,,,,,,Space,keypress(Space),,,,,,,,"-- --- ---- --- ------ ----- ------- ---- -- --- ------- --<br>------- ---------- ------ -- ----- -- ----- -- ---- money,<br>--- ----- --- --- ------ -------- ----- --- ------ ----- --<br>----- ----- ---------- --- --- ------ ------ ---- -- ------<br>------- --- ------ ----- --- ---- ------- -- ---- --- --<br>------- ------",337005.08499999705,337004.3000000005,336658.038,336661.12999999314,336674.968,337008.001,,21,"money,"
screen,html.Screen,1_1_1_1_22,2021-04-20T15:10:24.478Z,,,,,,,,,,,,,,,,54,,,,,,,,,,,,,,438.81899999739835,,response,,,,100,,,,,,,Space,keypress(Space),,,,,,,,-- --- ---- --- ------ ----- ------- ---- -- --- ------- --<br>------- ---------- ------ -- ----- -- ----- -- ---- ------<br>the ----- --- --- ------ -------- ----- --- ------ ----- --<br>----- ----- ---------- --- --- ------ ------ ---- -- ------<br>------- --- ------ ----- --- ---- ------- -- ---- --- --<br>------- ------,337447.7249999909,337446.8199999974,336991.73,337005.2649999998,337008.001,337457.972,,22,the
screen,html.Screen,1_1_1_1_23,2021-04-20T15:10:24.838Z,,,,,,,,,,,,,,,,54,,,,,,,,,,,,,,348.71300000319025,,response,,,,100,,,,,,,Space,keypress(Space),,,,,,,,-- --- ---- --- ------ ----- ------- ---- -- --- ------- --<br>------- ---------- ------ -- ----- -- ----- -- ---- ------<br>--- state --- --- ------ -------- ----- --- ------ ----- --<br>----- ----- ---------- --- --- ------ ------ ---- -- ------<br>------- --- ------ ----- --- ---- ------- -- ---- --- --<br>------- ------,337807.63500000467,337806.6850000032,337441.43,337447.8850000014,337457.972,337841.634,,23,state
screen,html.Screen,1_1_1_1_24,2021-04-20T15:10:25.244Z,,,,,,,,,,,,,,,,54,,,,,,,,,,,,,,370.3260000005248,,response,,,,100,,,,,,,Space,keypress(Space),,,,,,,,-- --- ---- --- ------ ----- ------- ---- -- --- ------- --<br>------- ---------- ------ -- ----- -- ----- -- ---- ------<br>--- ----- cut --- ------ -------- ----- --- ------ ----- --<br>----- ----- ---------- --- --- ------ ------ ---- -- ------<br>------- --- ------ ----- --- ---- ------- -- ---- --- --<br>------- ------,338212.8850000008,338211.96000000054,337824.896,337807.79999999504,337841.634,338224.691,,24,cut
screen,html.Screen,1_1_1_1_25,2021-04-20T15:10:25.622Z,,,,,,,,,,,,,,,,54,,,,,,,,,,,,,,365.22400000412017,,response,,,,100,,,,,,,Space,keypress(Space),,,,,,,,-- --- ---- --- ------ ----- ------- ---- -- --- ------- --<br>------- ---------- ------ -- ----- -- ----- -- ---- ------<br>--- ----- --- the ------ -------- ----- --- ------ ----- --<br>----- ----- ---------- --- --- ------ ------ ---- -- ------<br>------- --- ------ ----- --- ---- ------- -- ---- --- --<br>------- ------,338590.909999999,338589.9150000041,338208.161,338213.06999999797,338224.691,338608.345,,25,the
screen,html.Screen,1_1_1_1_26,2021-04-20T15:10:25.901Z,,,,,,,,,,,,,,,,54,,,,,,,,,,,,,,260.8199999964563,,response,,,,100,,,,,,,Space,keypress(Space),,,,,,,,-- --- ---- --- ------ ----- ------- ---- -- --- ------- --<br>------- ---------- ------ -- ----- -- ----- -- ---- ------<br>--- ----- --- --- bonds' -------- ----- --- ------ ----- --<br>----- ----- ---------- --- --- ------ ------ ---- -- ------<br>------- --- ------ ----- --- ---- ------- -- ---- --- --<br>------- ------,338869.95500000194,338869.1649999964,338591.452,338591.0799999983,338608.345,338874.533,,26,bonds'
screen,html.Screen,1_1_1_1_27,2021-04-20T15:10:26.072Z,,,,,,,,,,,,,,,,54,,,,,,,,,,,,,,165.74199999211123,,response,,,,100,,,,,,,Space,keypress(Space),,,,,,,,-- --- ---- --- ------ ----- ------- ---- -- --- ------- --<br>------- ---------- ------ -- ----- -- ----- -- ---- ------<br>--- ----- --- --- ------ interest ----- --- ------ ----- --<br>----- ----- ---------- --- --- ------ ------ ---- -- ------<br>------- --- ------ ----- --- ---- ------- -- ---- --- --<br>------- ------,339041.0949999932,339040.2749999921,338858.257,338870.1100000035,338874.533,339058.022,,27,interest
screen,html.Screen,1_1_1_1_28,2021-04-20T15:10:26.263Z,,,,,,,,,,,,,,,,54,,,,,,,,,,,,,,173.52799999678973,,response,,,,100,,,,,,,Space,keypress(Space),,,,,,,,-- --- ---- --- ------ ----- ------- ---- -- --- ------- --<br>------- ---------- ------ -- ----- -- ----- -- ---- ------<br>--- ----- --- --- ------ -------- rate. --- ------ ----- --<br>----- ----- ---------- --- --- ------ ------ ---- -- ------<br>------- --- ------ ----- --- ---- ------- -- ---- --- --<br>------- ------,339232.69000000437,339231.5499999968,339041.486,339041.2800000049,339058.022,339241.533,,28,rate.
screen,html.Screen,1_1_1_1_29,2021-04-20T15:10:26.429Z,,,,,,,,,,,,,,,,54,,,,,,,,,,,,,,156.39199999748962,,response,,,,100,,,,,,,Space,keypress(Space),,,,,,,,-- --- ---- --- ------ ----- ------- ---- -- --- ------- --<br>------- ---------- ------ -- ----- -- ----- -- ---- ------<br>--- ----- --- --- ------ -------- ----- The ------ ----- --<br>----- ----- ---------- --- --- ------ ------ ---- -- ------<br>------- --- ------ ----- --- ---- ------- -- ---- --- --<br>------- ------,339398.57499999925,339397.9249999975,339224.557,339232.8899999993,339241.533,339407.916,,29,The
screen,html.Screen,1_1_1_1_30,2021-04-20T15:10:26.615Z,,,,,,,,,,,,,,,,54,,,,,,,,,,,,,,174.7889999934123,,response,,,,100,,,,,,,Space,keypress(Space),,,,,,,,-- --- ---- --- ------ ----- ------- ---- -- --- ------- --<br>------- ---------- ------ -- ----- -- ----- -- ---- ------<br>--- ----- --- --- ------ -------- ----- --- market ----- --<br>----- ----- ---------- --- --- ------ ------ ---- -- ------<br>------- --- ------ ----- --- ---- ------- -- ---- --- --<br>------- ------,339583.83499999763,339582.70499999344,339391.432,339398.66999999504,339407.916,339591.293,,30,market
screen,html.Screen,1_1_1_1_31,2021-04-20T15:10:26.773Z,,,,,,,,,,,,,,,,54,,,,,,,,,,,,,,150.29199999611592,,response,,,,100,,,,,,,Space,keypress(Space),,,,,,,,-- --- ---- --- ------ ----- ------- ---- -- --- ------- --<br>------- ---------- ------ -- ----- -- ----- -- ---- ------<br>--- ----- --- --- ------ -------- ----- --- ------ value --<br>----- ----- ---------- --- --- ------ ------ ---- -- ------<br>------- --- ------ ----- --- ---- ------- -- ---- --- --<br>------- ------,339742.465000003,339741.5849999961,339574.654,339584.004999997,339591.293,339757.995,,31,value
screen,html.Screen,1_1_1_1_32,2021-04-20T15:10:26.953Z,,,,,,,,,,,,,,,,54,,,,,,,,,,,,,,163.94999999459833,,response,,,,100,,,,,,,Space,keypress(Space),,,,,,,,-- --- ---- --- ------ ----- ------- ---- -- --- ------- --<br>------- ---------- ------ -- ----- -- ----- -- ---- ------<br>--- ----- --- --- ------ -------- ----- --- ------ ----- of<br>----- ----- ---------- --- --- ------ ------ ---- -- ------<br>------- --- ------ ----- --- ---- ------- -- ---- --- --<br>------- ------,339922.7249999967,339921.9449999946,339741.162,339742.62999999337,339757.995,339924.521,,32,of
screen,html.Screen,1_1_1_1_33,2021-04-20T15:10:27.130Z,,,,,,,,,,,,,,,,54,,,,,,,,,,,,,,173.72400000103517,,response,,,,100,,,,,,,Space,keypress(Space),,,,,,,,-- --- ---- --- ------ ----- ------- ---- -- --- ------- --<br>------- ---------- ------ -- ----- -- ----- -- ---- ------<br>--- ----- --- --- ------ -------- ----- --- ------ ----- --<br>these ----- ---------- --- --- ------ ------ ---- -- ------<br>------- --- ------ ----- --- ---- ------- -- ---- --- --<br>------- ------,340099.13499999675,340098.24500000104,339908.298,339922.91500000283,339924.521,340107.895,,33,these
screen,html.Screen,1_1_1_1_34,2021-04-20T15:10:27.308Z,,,,,,,,,,,,,,,,54,,,,,,,,,,,,,,168.65499999502208,,response,,,,100,,,,,,,Space,keypress(Space),,,,,,,,-- --- ---- --- ------ ----- ------- ---- -- --- ------- --<br>------- ---------- ------ -- ----- -- ----- -- ---- ------<br>--- ----- --- --- ------ -------- ----- --- ------ ----- --<br>----- bonds ---------- --- --- ------ ------ ---- -- ------<br>------- --- ------ ----- --- ---- ------- -- ---- --- --<br>------- ------,340277.4199999985,340276.54999999504,340091.407,340099.31000000506,340107.895,340291.505,,34,bonds
screen,html.Screen,1_1_1_1_35,2021-04-20T15:10:27.476Z,,,,,,,,,,,,,,,,54,,,,,,,,,,,,,,153.42499999783468,,response,,,,100,,,,,,,Space,keypress(Space),,,,,,,,"-- --- ---- --- ------ ----- ------- ---- -- --- ------- --<br>------- ---------- ------ -- ----- -- ----- -- ---- ------<br>--- ----- --- --- ------ -------- ----- --- ------ ----- --<br>----- ----- plummeted, --- --- ------ ------ ---- -- ------<br>------- --- ------ ----- --- ---- ------- -- ---- --- --<br>------- ------",340445.704999991,340444.92999999784,340274.488,340277.5799999945,340291.505,340458.172,,35,"plummeted,"
screen,html.Screen,1_1_1_1_36,2021-04-20T15:10:27.644Z,,,,,,,,,,,,,,,,54,,,,,,,,,,,,,,154.78799999854527,,response,,,,100,,,,,,,Space,keypress(Space),,,,,,,,-- --- ---- --- ------ ----- ------- ---- -- --- ------- --<br>------- ---------- ------ -- ----- -- ----- -- ---- ------<br>--- ----- --- --- ------ -------- ----- --- ------ ----- --<br>----- ----- ---------- and --- ------ ------ ---- -- ------<br>------- --- ------ ----- --- ---- ------- -- ---- --- --<br>------- ------,340613.7699999963,340612.95999999857,340441.213,340445.8849999937,340458.172,340624.809,,36,and
screen,html.Screen,1_1_1_1_37,2021-04-20T15:10:27.826Z,,,,,,,,,,,,,,,,54,,,,,,,,,,,,,,169.92099999415223,,response,,,,100,,,,,,,Space,keypress(Space),,,,,,,,-- --- ---- --- ------ ----- ------- ---- -- --- ------- --<br>------- ---------- ------ -- ----- -- ----- -- ---- ------<br>--- ----- --- --- ------ -------- ----- --- ------ ----- --<br>----- ----- ---------- --- the ------ ------ ---- -- ------<br>------- --- ------ ----- --- ---- ------- -- ---- --- --<br>------- ------,340795.5249999941,340794.72999999416,340608.199,340613.989999998,340624.809,340808.192,,37,the
screen,html.Screen,1_1_1_1_38,2021-04-20T15:10:27.990Z,,,,,,,,,,,,,,,,54,,,,,,,,,,,,,,150.44799999712268,,response,,,,100,,,,,,,Space,keypress(Space),,,,,,,,-- --- ---- --- ------ ----- ------- ---- -- --- ------- --<br>------- ---------- ------ -- ----- -- ----- -- ---- ------<br>--- ----- --- --- ------ -------- ----- --- ------ ----- --<br>----- ----- ---------- --- --- market ------ ---- -- ------<br>------- --- ------ ----- --- ---- ------- -- ---- --- --<br>------- ------,340959.4599999982,340958.6399999971,340791.136,340795.689999999,340808.192,340974.795,,38,market
screen,html.Screen,1_1_1_1_39,2021-04-20T15:10:28.178Z,,,,,,,,,,,,,,,,54,,,,,,,,,,,,,,171.50499999307794,,response,,,,100,,,,,,,Space,keypress(Space),,,,,,,,-- --- ---- --- ------ ----- ------- ---- -- --- ------- --<br>------- ---------- ------ -- ----- -- ----- -- ---- ------<br>--- ----- --- --- ------ -------- ----- --- ------ ----- --<br>----- ----- ---------- --- --- ------ became ---- -- ------<br>------- --- ------ ----- --- ---- ------- -- ---- --- --<br>------- ------,341146.94999999483,341146.29999999306,340958.071,340959.65499999875,340974.795,341158.279,,39,became
screen,html.Screen,1_1_1_1_40,2021-04-20T15:10:28.376Z,,,,,,,,,,,,,,,,54,,,,,,,,,,,,,,186.39099999133032,,response,,,,100,,,,,,,Space,keypress(Space),,,,,,,,-- --- ---- --- ------ ----- ------- ---- -- --- ------- --<br>------- ---------- ------ -- ----- -- ----- -- ---- ------<br>--- ----- --- --- ------ -------- ----- --- ------ ----- --<br>----- ----- ---------- --- --- ------ ------ wary -- ------<br>------- --- ------ ----- --- ---- ------- -- ---- --- --<br>------- ------,341345.4999999958,341344.6699999913,341141.407,341147.0649999974,341158.279,341358.21,,40,wary
screen,html.Screen,1_1_1_1_41,2021-04-20T15:10:28.594Z,,,,,,,,,,,,,,,,54,,,,,,,,,,,,,,204.21000000200002,,response,,,,100,,,,,,,Space,keypress(Space),,,,,,,,-- --- ---- --- ------ ----- ------- ---- -- --- ------- --<br>------- ---------- ------ -- ----- -- ----- -- ---- ------<br>--- ----- --- --- ------ -------- ----- --- ------ ----- --<br>----- ----- ---------- --- --- ------ ------ ---- of ------<br>------- --- ------ ----- --- ---- ------- -- ---- --- --<br>------- ------,341563.21500000195,341562.420000002,341341.449,341345.67999999854,341358.21,341574.736,,41,of
screen,html.Screen,1_1_1_1_42,2021-04-20T15:10:28.766Z,,,,,,,,,,,,,,,,54,,,,,,,,,,,,,,159.35399999812944,,response,,,,100,,,,,,,Space,keypress(Space),,,,,,,,-- --- ---- --- ------ ----- ------- ---- -- --- ------- --<br>------- ---------- ------ -- ----- -- ----- -- ---- ------<br>--- ----- --- --- ------ -------- ----- --- ------ ----- --<br>----- ----- ---------- --- --- ------ ------ ---- -- French<br>------- --- ------ ----- --- ---- ------- -- ---- --- --<br>------- ------,341734.9099999992,341734.0899999981,341558.071,341563.3099999977,341574.736,341741.246,,42,French
screen,html.Screen,1_1_1_1_43,2021-04-20T15:10:28.956Z,,,,,,,,,,,,,,,,54,,,,,,,,,,,,,,183.28899999830173,,response,,,,100,,,,,,,Space,keypress(Space),,,,,,,,-- --- ---- --- ------ ----- ------- ---- -- --- ------- --<br>------- ---------- ------ -- ----- -- ----- -- ---- ------<br>--- ----- --- --- ------ -------- ----- --- ------ ----- --<br>----- ----- ---------- --- --- ------ ------ ---- -- ------<br>credit. --- ------ ----- --- ---- ------- -- ---- --- --<br>------- ------,341925.3699999972,341924.5349999983,341724.733,341735.0999999908,341741.246,341941.476,,43,credit.
screen,html.Screen,1_1_1_1_44,2021-04-20T15:10:29.156Z,,,,,,,,,,,,,,,,54,,,,,,,,,,,,,,182.62899999530055,,response,,,,100,,,,,,,Space,keypress(Space),,,,,,,,-- --- ---- --- ------ ----- ------- ---- -- --- ------- --<br>------- ---------- ------ -- ----- -- ----- -- ---- ------<br>--- ----- --- --- ------ -------- ----- --- ------ ----- --<br>----- ----- ---------- --- --- ------ ------ ---- -- ------<br>------- The ------ ----- --- ---- ------- -- ---- --- --<br>------- ------,342124.960000001,342124.1049999953,341924.495,341925.52999999316,341941.476,342141.164,,44,The
screen,html.Screen,1_1_1_1_45,2021-04-20T15:10:29.338Z,,,,,,,,,,,,,,,,54,,,,,,,,,,,,,,165.61100000457373,,response,,,,100,,,,,,,Space,keypress(Space),,,,,,,,-- --- ---- --- ------ ----- ------- ---- -- --- ------- --<br>------- ---------- ------ -- ----- -- ----- -- ---- ------<br>--- ----- --- --- ------ -------- ----- --- ------ ----- --<br>----- ----- ---------- --- --- ------ ------ ---- -- ------<br>------- --- French ----- --- ---- ------- -- ---- --- --<br>------- ------,342307.6250000013,342306.77500000456,342124.716,342125.13000000035,342141.164,342324.834,,45,French
screen,html.Screen,1_1_1_1_46,2021-04-20T15:10:29.523Z,,,,,,,,,,,,,,,,54,,,,,,,,,,,,,,166.80599999293918,,response,,,,100,,,,,,,Space,keypress(Space),,,,,,,,-- --- ---- --- ------ ----- ------- ---- -- --- ------- --<br>------- ---------- ------ -- ----- -- ----- -- ---- ------<br>--- ----- --- --- ------ -------- ----- --- ------ ----- --<br>----- ----- ---------- --- --- ------ ------ ---- -- ------<br>------- --- ------ state --- ---- ------- -- ---- --- --<br>------- ------,342492.465000003,342491.6399999929,342307.712,342307.78999999166,342324.834,342508.109,,46,state
screen,html.Screen,1_1_1_1_47,2021-04-20T15:10:29.707Z,,,,,,,,,,,,,,,,54,,,,,,,,,,,,,,167.6259999970789,,response,,,,100,,,,,,,Space,keypress(Space),,,,,,,,-- --- ---- --- ------ ----- ------- ---- -- --- ------- --<br>------- ---------- ------ -- ----- -- ----- -- ---- ------<br>--- ----- --- --- ------ -------- ----- --- ------ ----- --<br>----- ----- ---------- --- --- ------ ------ ---- -- ------<br>------- --- ------ ----- was ---- ------- -- ---- --- --<br>------- ------,342676.5549999982,342675.7349999971,342491.06,342492.62999999337,342508.109,342691.128,,47,was
screen,html.Screen,1_1_1_1_48,2021-04-20T15:10:29.915Z,,,,,,,,,,,,,,,,54,,,,,,,,,,,,,,192.71199999493547,,response,,,,100,,,,,,,Space,keypress(Space),,,,,,,,-- --- ---- --- ------ ----- ------- ---- -- --- ------- --<br>------- ---------- ------ -- ----- -- ----- -- ---- ------<br>--- ----- --- --- ------ -------- ----- --- ------ ----- --<br>----- ----- ---------- --- --- ------ ------ ---- -- ------<br>------- --- ------ ----- --- left ------- -- ---- --- --<br>------- ------,342884.72499999625,342883.83999999496,342674.735,342676.65500000294,342691.128,342891.173,,48,left
screen,html.Screen,1_1_1_1_49,2021-04-20T15:10:30.118Z,,,,,,,,,,,,,,,,54,,,,,,,,,,,,,,195.31199999252567,,response,,,,100,,,,,,,Space,keypress(Space),,,,,,,,-- --- ---- --- ------ ----- ------- ---- -- --- ------- --<br>------- ---------- ------ -- ----- -- ----- -- ---- ------<br>--- ----- --- --- ------ -------- ----- --- ------ ----- --<br>----- ----- ---------- --- --- ------ ------ ---- -- ------<br>------- --- ------ ----- --- ---- without -- ---- --- --<br>------- ------,343087.3900000006,343086.48499999254,342874.618,342884.8900000012,342891.173,343090.984,,49,without
screen,html.Screen,1_1_1_1_50,2021-04-20T15:10:30.317Z,,,,,,,,,,,,,,,,54,,,,,,,,,,,,,,194.69099999190075,,response,,,,100,,,,,,,Space,keypress(Space),,,,,,,,-- --- ---- --- ------ ----- ------- ---- -- --- ------- --<br>------- ---------- ------ -- ----- -- ----- -- ---- ------<br>--- ----- --- --- ------ -------- ----- --- ------ ----- --<br>----- ----- ---------- --- --- ------ ------ ---- -- ------<br>------- --- ------ ----- --- ---- ------- an ---- --- --<br>------- ------,343286.5149999998,343285.6749999919,343074.609,343087.54999999655,343090.984,343291.057,,50,an
screen,html.Screen,1_1_1_1_51,2021-04-20T15:10:30.512Z,,,,,,,,,,,,,,,,54,,,,,,,,,,,,,,189.47799999517156,,response,,,,100,,,,,,,Space,keypress(Space),,,,,,,,-- --- ---- --- ------ ----- ------- ---- -- --- ------- --<br>------- ---------- ------ -- ----- -- ----- -- ---- ------<br>--- ----- --- --- ------ -------- ----- --- ------ ----- --<br>----- ----- ---------- --- --- ------ ------ ---- -- ------<br>------- --- ------ ----- --- ---- ------- -- easy --- --<br>------- ------,343481.38499999186,343480.53499999514,343274.274,343286.6849999991,343291.057,343491.451,,51,easy
screen,html.Screen,1_1_1_1_52,2021-04-20T15:10:30.713Z,,,,,,,,,,,,,,,,54,,,,,,,,,,,,,,190.1489999962505,,response,,,,100,,,,,,,Space,keypress(Space),,,,,,,,-- --- ---- --- ------ ----- ------- ---- -- --- ------- --<br>------- ---------- ------ -- ----- -- ----- -- ---- ------<br>--- ----- --- --- ------ -------- ----- --- ------ ----- --<br>----- ----- ---------- --- --- ------ ------ ---- -- ------<br>------- --- ------ ----- --- ---- ------- -- ---- way --<br>------- ------,343682.3399999994,343681.59999999625,343474.6,343481.5499999968,343491.451,343691.445,,52,way
screen,html.Screen,1_1_1_1_53,2021-04-20T15:10:30.908Z,,,,,,,,,,,,,,,,54,,,,,,,,,,,,,,185.02999999729218,,response,,,,100,,,,,,,Space,keypress(Space),,,,,,,,-- --- ---- --- ------ ----- ------- ---- -- --- ------- --<br>------- ---------- ------ -- ----- -- ----- -- ---- ------<br>--- ----- --- --- ------ -------- ----- --- ------ ----- --<br>----- ----- ---------- --- --- ------ ------ ---- -- ------<br>------- --- ------ ----- --- ---- ------- -- ---- --- of<br>------- ------,343877.3899999942,343876.4749999973,343674.628,343682.46499999077,343691.445,343891.421,,53,of
screen,html.Screen,1_1_1_1_54,2021-04-20T15:10:31.212Z,,,,,,,,,,,,,,,,54,,,,,,,,,,,,,,289.3939999997383,,response,,,,100,,,,,,,Space,keypress(Space),,,,,,,,-- --- ---- --- ------ ----- ------- ---- -- --- ------- --<br>------- ---------- ------ -- ----- -- ----- -- ---- ------<br>--- ----- --- --- ------ -------- ----- --- ------ ----- --<br>----- ----- ---------- --- --- ------ ------ ---- -- ------<br>------- --- ------ ----- --- ---- ------- -- ---- --- --<br>raising ------,344181.58999999287,344180.8149999997,343874.615,343877.5699999969,343891.421,344191.307,,54,raising
screen,html.Screen,1_1_1_1_55,2021-04-20T15:10:31.598Z,,,,,,,,,,,,,,,,54,,,,,,,,,,,,,,375.38299999240553,,response,,,,100,,,,,,,Space,keypress(Space),,,,,,,,-- --- ---- --- ------ ----- ------- ---- -- --- ------- --<br>------- ---------- ------ -- ----- -- ----- -- ---- ------<br>--- ----- --- --- ------ -------- ----- --- ------ ----- --<br>----- ----- ---------- --- --- ------ ------ ---- -- ------<br>------- --- ------ ----- --- ---- ------- -- ---- --- --<br>------- money.,344567.4699999945,344566.6899999924,344174.295,344181.7699999956,344191.307,344574.237,,55,money.
Item 100,flow.Loop,1_1_1_1,2021-04-20T15:10:31.598Z,,,,,,,,,,,,,,,,,,,,,,,,,,,,,,16291.528999992355,,completion,,,,,E,,,,,,,,,,,silence,,,,,344567.7549999964,344566.6899999924,328258.425,328259.3049999996,328275.161,344574.237,,,
Question 1,html.Screen,1_1_1_2,2021-04-20T15:10:35.481Z,,,,,,,,,,,,,,,,,,,,,,,,,,,false,TRUE,,3874.558000003861,,response,,,,100,E,,,,,,FALSE,click #choice-2,,,,silence,,,,,348450.08999999845,348448.7950000039,344557.897,344567.87499999336,344574.237,348457.517,,,
Question 2,html.Screen,1_1_1_3,2021-04-20T15:10:39.013Z,,,,,,,,,,,,,,,,,,,,,,,,,,,true,FALSE,,3523.1930000034627,,response,,,,100,E,,,,,,FALSE,click #choice-2,,,,silence,,,,,351981.87000000325,351980.71000000346,348440.758,348450.3149999946,348457.517,351990.576,,,
Item 100,flow.Sequence,1_1_1,2021-04-20T15:10:39.013Z,,,,,,,,,,,,,,,,,,,,,,,,,,,,,,33705.12900000345,,completion,,,,,,,,,,,,,,,,,,,,,351982.23999999755,351980.71000000346,318259.106,318266.810000001,318275.581,351990.576,,,
End of Practice,html.Page,1_1_2,2021-04-20T15:10:43.152Z,,,,,,,,,,,,,,,,,,,,,,,,,,,,,,4130.344000001205,,form submission,,,,,,,,,,,,,,,,,,,,,356121.12999999954,356120.9200000012,351974.178,351982.3650000035,351990.576,356123.723,,,
Practice,flow.Sequence,1_1,2021-04-20T15:10:43.152Z,,,,,,,,,,,,,,,,,,,,,,,,,,,,,,79693.13400000118,,completion,,,,,,,,,,,,,,,,,,,,,356121.2599999999,356120.9200000012,276411.042,276398.2649999962,276427.786,356123.723,,,
Trap_instruction,html.Page,1_2_0,2021-04-20T15:10:46.906Z,,,,,,,,,,,,,,,,,,,,,,,,,,,,,,3751.71199999447,,form submission,,,,,,,,,,,,,,,,,,,,,359875.7650000043,359875.43499999447,356107.316,356121.3449999923,356123.723,359890.28,,,
trap_trial,html.Screen,1_2_1,2021-04-20T15:10:50.702Z,,,,,,,,,,,,,,,,,,,,,,,,,,,true,1,,3779.47499999532,,response,,,,,,,,,,,1,click #choice-1,,,,,,,,,363671.0549999989,363669.75499999535,359873.673,359875.9100000025,359890.28,363673.423,,,
end of trap trial,html.Page,1_2_2,2021-04-20T15:10:53.832Z,,,,,,,,,,,,,,,,,,,,,,,,,,,,,,3128.081999995804,,form submission,,,,,,,,,,,,,,,,,,,,,366801.8100000045,366801.5049999958,363656.833,363671.15999999805,363673.423,366806.609,,,
Trap 1,flow.Sequence,1_2,2021-04-20T15:10:53.833Z,,,,,,,,,,,,,,,,,,,,,,,,,,,,,,10677.781999995816,,completion,,,,,,,,,,,,,,,,,,,,,366802.03999999503,366801.5049999958,356107.316,356121.3149999967,356123.723,366806.609,,,
Standby,html.Page,1_3_0,2021-04-20T15:11:01.828Z,,,,,,,,,,,,,,,,,,,,,,,,,,,,,,7999.619000000006,,timeout,,,,,,,,,,,,,,,,,,,,,374797.67499999434,374789.542,366790.331,366802.21500000334,366806.609,374806.228,,,
Holding screen,html.Screen,1_3_1_0_0,2021-04-20T15:11:08.821Z,,,,,,,,,,,,,,,,,,,,,,,,,,,,,,7000.015000000014,,timeout,,,,,,,,,,,,,,,,,,,,,381790.37499999686,381789.256,374789.542,374798.0850000022,374806.228,381806.243,,,
screen,html.Screen,1_3_1_0_1_0,2021-04-20T15:11:09.756Z,,,,,,,,,,,,,,,,11,,,,,,,,,,,,,,917.9319999957224,,response,,,,4,E,,,,,,Space,keypress(Space),,,,lyrical,,,,Known -- ---- --- -- --- -------- ------------ ---------- --<br>- ------- ------ --------- -- ------------ -- --- ---- -----<br>------ ---- ---- ------ ------ ------- --- ----- ---------<br>---- --- -------- -------- --- --- -- ------- --- --- -----<br>-- --- ------ ------- --- --- -------- ---- --------- --<br>---------- -- -------- ----------------,382725.29000000213,382724.17499999574,381789.256,381790.65999999875,381806.243,382739.266,,0,Known
screen,html.Screen,1_3_1_0_1_1,2021-04-20T15:11:10.130Z,,,,,,,,,,,,,,,,11,,,,,,,,,,,,,,359.1190000047791,,response,,,,4,E,,,,,,Space,keypress(Space),,,,lyrical,,,,----- as ---- --- -- --- -------- ------------ ---------- --<br>- ------- ------ --------- -- ------------ -- --- ---- -----<br>------ ---- ---- ------ ------ ------- --- ----- ---------<br>---- --- -------- -------- --- --- -- ------- --- --- -----<br>-- --- ------ ------- --- --- -------- ---- --------- --<br>---------- -- -------- ----------------,383099.2899999983,383098.3850000048,382722.515,382725.5599999917,382739.266,383105.824,,1,as
screen,html.Screen,1_3_1_0_1_2,2021-04-20T15:11:10.453Z,,,,,,,,,,,,,,,,11,,,,,,,,,,,,,,319.3359999988461,,response,,,,4,E,,,,,,Space,keypress(Space),,,,lyrical,,,,----- -- Rapa --- -- --- -------- ------------ ---------- --<br>- ------- ------ --------- -- ------------ -- --- ---- -----<br>------ ---- ---- ------ ------ ------- --- ----- ---------<br>---- --- -------- -------- --- --- -- ------- --- --- -----<br>-- --- ------ ------- --- --- -------- ---- --------- --<br>---------- -- -------- ----------------,383426.0249999934,383425.15999999887,383089.601,383099.46499999205,383105.824,383439.104,,2,Rapa
screen,html.Screen,1_3_1_0_1_3,2021-04-20T15:11:10.788Z,,,,,,,,,,,,,,,,11,,,,,,,,,,,,,,321.3159999914351,,response,,,,4,E,,,,,,Space,keypress(Space),,,,lyrical,,,,----- -- ---- Nui -- --- -------- ------------ ---------- --<br>- ------- ------ --------- -- ------------ -- --- ---- -----<br>------ ---- ---- ------ ------ ------- --- ----- ---------<br>---- --- -------- -------- --- --- -- ------- --- --- -----<br>-- --- ------ ------- --- --- -------- ---- --------- --<br>---------- -- -------- ----------------,383761.3449999917,383760.4199999914,383422.47,383426.1899999983,383439.104,383772.74,,3,Nui
screen,html.Screen,1_3_1_0_1_4,2021-04-20T15:11:11.087Z,,,,,,,,,,,,,,,,11,,,,,,,,,,,,,,286.5549999991199,,response,,,,4,E,,,,,,Space,keypress(Space),,,,lyrical,,,,----- -- ---- --- to --- -------- ------------ ---------- --<br>- ------- ------ --------- -- ------------ -- --- ---- -----<br>------ ---- ---- ------ ------ ------- --- ----- ---------<br>---- --- -------- -------- --- --- -- ------- --- --- -----<br>-- --- ------ ------- --- --- -------- ---- --------- --<br>---------- -- -------- ----------------,384060.06499999785,384059.2949999991,383755.773,383761.5649999934,383772.74,384072.452,,4,to
screen,html.Screen,1_3_1_0_1_5,2021-04-20T15:11:11.388Z,,,,,,,,,,,,,,,,11,,,,,,,,,,,,,,287.6679999975604,,response,,,,4,E,,,,,,Space,keypress(Space),,,,lyrical,,,,----- -- ---- --- -- the -------- ------------ ---------- --<br>- ------- ------ --------- -- ------------ -- --- ---- -----<br>------ ---- ---- ------ ------ ------- --- ----- ---------<br>---- --- -------- -------- --- --- -- ------- --- --- -----<br>-- --- ------ ------- --- --- -------- ---- --------- --<br>---------- -- -------- ----------------,384360.96999999427,384360.11999999755,384055.816,384060.2199999994,384072.452,384372.728,,5,the
screen,html.Screen,1_3_1_0_1_6,2021-04-20T15:11:11.682Z,,,,,,,,,,,,,,,,11,,,,,,,,,,,,,,280.8519999983255,,response,,,,4,E,,,,,,Space,keypress(Space),,,,lyrical,,,,----- -- ---- --- -- --- island's ------------ ---------- --<br>- ------- ------ --------- -- ------------ -- --- ---- -----<br>------ ---- ---- ------ ------ ------- --- ----- ---------<br>---- --- -------- -------- --- --- -- ------- --- --- -----<br>-- --- ------ ------- --- --- -------- ---- --------- --<br>---------- -- -------- ----------------,384654.42999999505,384653.5799999983,384355.753,384361.1349999992,384372.728,384677.126,,6,island's
screen,html.Screen,1_3_1_0_1_7,2021-04-20T15:11:12.124Z,,,,,,,,,,,,,,,,11,,,,,,,,,,,,,,418.6940000022878,,response,,,,4,E,,,,,,Space,keypress(Space),,,,lyrical,,,,"----- -- ---- --- -- --- -------- inhabitants, ---------- --<br>- ------- ------ --------- -- ------------ -- --- ---- -----<br>------ ---- ---- ------ ------ ------- --- ----- ---------<br>---- --- -------- -------- --- --- -- ------- --- --- -----<br>-- --- ------ ------- --- --- -------- ---- --------- --<br>---------- -- -------- ----------------",385096.52999999525,385095.8200000023,384639.38,384654.589999991,384677.126,385105.718,,7,"inhabitants,"
screen,html.Screen,1_3_1_0_1_8,2021-04-20T15:11:12.495Z,,,,,,,,,,,,,,,,11,,,,,,,,,,,,,,361.4369999911869,,response,,,,4,E,,,,,,Space,keypress(Space),,,,lyrical,,,,----- -- ---- --- -- --- -------- ------------ Rongorongo --<br>- ------- ------ --------- -- ------------ -- --- ---- -----<br>------ ---- ---- ------ ------ ------- --- ----- ---------<br>---- --- -------- -------- --- --- -- ------- --- --- -----<br>-- --- ------ ------- --- --- -------- ---- --------- --<br>---------- -- -------- ----------------,385468.12999999383,385467.1549999912,385089.401,385096.6599999956,385105.718,385472.334,,8,Rongorongo
screen,html.Screen,1_3_1_0_1_9,2021-04-20T15:11:12.892Z,,,,,,,,,,,,,,,,11,,,,,,,,,,,,,,391.3709999961429,,response,,,,4,E,,,,,,Space,keypress(Space),,,,lyrical,,,,----- -- ---- --- -- --- -------- ------------ ---------- is<br>- ------- ------ --------- -- ------------ -- --- ---- -----<br>------ ---- ---- ------ ------ ------- --- ----- ---------<br>---- --- -------- -------- --- --- -- ------- --- --- -----<br>-- --- ------ ------- --- --- -------- ---- --------- --<br>---------- -- -------- ----------------,385864.53999999503,385863.7049999961,385455.743,385468.29000000434,385472.334,385872.378,,9,is
screen,html.Screen,1_3_1_0_1_10,2021-04-20T15:11:13.229Z,,,,,,,,,,,,,,,,11,,,,,,,,,,,,,,329.2119999969145,,response,,,,4,E,,,,,,Space,keypress(Space),,,,lyrical,,,,----- -- ---- --- -- --- -------- ------------ ---------- --<br>a ------- ------ --------- -- ------------ -- --- ---- -----<br>------ ---- ---- ------ ------ ------- --- ----- ---------<br>---- --- -------- -------- --- --- -- ------- --- --- -----<br>-- --- ------ ------- --- --- -------- ---- --------- --<br>---------- -- -------- ----------------,386202.2750000033,386201.58999999694,385855.751,385864.71999999776,385872.378,386205.648,,10,a
screen,html.Screen,1_3_1_0_1_11,2021-04-20T15:11:13.490Z,,,,,,,,,,,,,,,,11,,,,,,,,,,,,,,256.6819999948493,,response,,,,4,E,,,,,,Space,keypress(Space),,,,lyrical,,,,----- -- ---- --- -- --- -------- ------------ ---------- --<br>- writing ------ --------- -- ------------ -- --- ---- -----<br>------ ---- ---- ------ ------ ------- --- ----- ---------<br>---- --- -------- -------- --- --- -- ------- --- --- -----<br>-- --- ------ ------- --- --- -------- ---- --------- --<br>---------- -- -------- ----------------,386463.09000000474,386462.32999999484,386189.224,386202.39999999467,386205.648,386472.634,,11,writing
screen,html.Screen,1_3_1_0_1_12,2021-04-20T15:11:13.890Z,,,,,,,,,,,,,,,,11,,,,,,,,,,,,,,388.9709999982151,,response,,,,4,E,,,,,,Space,keypress(Space),,,,lyrical,,,,----- -- ---- --- -- --- -------- ------------ ---------- --<br>- ------- system --------- -- ------------ -- --- ---- -----<br>------ ---- ---- ------ ------ ------- --- ----- ---------<br>---- --- -------- -------- --- --- -- ------- --- --- -----<br>-- --- ------ ------- --- --- -------- ---- --------- --<br>---------- -- -------- ----------------,386862.5150000007,386861.60499999824,386455.675,386463.2500000007,386472.634,386872.597,,12,system
screen,html.Screen,1_3_1_0_1_13,2021-04-20T15:11:14.267Z,,,,,,,,,,,,,,,,11,,,,,,,,,,,,,,366.07299999153474,,response,,,,4,E,,,,,,Space,keypress(Space),,,,lyrical,,,,----- -- ---- --- -- --- -------- ------------ ---------- --<br>- ------- ------ comprised -- ------------ -- --- ---- -----<br>------ ---- ---- ------ ------ ------- --- ----- ---------<br>---- --- -------- -------- --- --- -- ------- --- --- -----<br>-- --- ------ ------- --- --- -------- ---- --------- --<br>---------- -- -------- ----------------,387239.4800000038,387238.66999999154,386855.843,386862.6799999911,386872.597,387255.916,,13,comprised
screen,html.Screen,1_3_1_0_1_14,2021-04-20T15:11:14.570Z,,,,,,,,,,,,,,,,11,,,,,,,,,,,,,,286.38899999536807,,response,,,,4,E,,,,,,Space,keypress(Space),,,,lyrical,,,,----- -- ---- --- -- --- -------- ------------ ---------- --<br>- ------- ------ --------- of ------------ -- --- ---- -----<br>------ ---- ---- ------ ------ ------- --- ----- ---------<br>---- --- -------- -------- --- --- -- ------- --- --- -----<br>-- --- ------ ------- --- --- -------- ---- --------- --<br>---------- -- -------- ----------------,387543.04999999295,387542.3049999954,387239.189,387239.6349999908,387255.916,387555.604,,14,of
screen,html.Screen,1_3_1_0_1_15,2021-04-20T15:11:14.913Z,,,,,,,,,,,,,,,,11,,,,,,,,,,,,,,329.4609999949462,,response,,,,4,E,,,,,,Space,keypress(Space),,,,lyrical,,,,----- -- ---- --- -- --- -------- ------------ ---------- --<br>- ------- ------ --------- -- pictographs. -- --- ---- -----<br>------ ---- ---- ------ ------ ------- --- ----- ---------<br>---- --- -------- -------- --- --- -- ------- --- --- -----<br>-- --- ------ ------- --- --- -------- ---- --------- --<br>---------- -- -------- ----------------,387885.9599999996,387885.06499999494,387538.903,387543.21000000346,387555.604,387888.945,,15,pictographs.
screen,html.Screen,1_3_1_0_1_16,2021-04-20T15:11:15.209Z,,,,,,,,,,,,,,,,11,,,,,,,,,,,,,,292.035000004631,,response,,,,4,E,,,,,,Space,keypress(Space),,,,lyrical,,,,----- -- ---- --- -- --- -------- ------------ ---------- --<br>- ------- ------ --------- -- ------------ It --- ---- -----<br>------ ---- ---- ------ ------ ------- --- ----- ---------<br>---- --- -------- -------- --- --- -- ------- --- --- -----<br>-- --- ------ ------- --- --- -------- ---- --------- --<br>---------- -- -------- ----------------,388181.8249999924,388180.98000000464,387872.34,387886.1199999956,387888.945,388188.928,,16,It
screen,html.Screen,1_3_1_0_1_17,2021-04-20T15:11:15.378Z,,,,,,,,,,,,,,,,11,,,,,,,,,,,,,,160.72699999815086,,response,,,,4,E,,,,,,Space,keypress(Space),,,,lyrical,,,,----- -- ---- --- -- --- -------- ------------ ---------- --<br>- ------- ------ --------- -- ------------ -- has ---- -----<br>------ ---- ---- ------ ------ ------- --- ----- ---------<br>---- --- -------- -------- --- --- -- ------- --- --- -----<br>-- --- ------ ------- --- --- -------- ---- --------- --<br>---------- -- -------- ----------------,388350.4899999971,388349.65499999817,388172.333,388182.0000000007,388188.928,388355.618,,17,has
screen,html.Screen,1_3_1_0_1_18,2021-04-20T15:11:15.565Z,,,,,,,,,,,,,,,,11,,,,,,,,,,,,,,181.52200000034645,,response,,,,4,E,,,,,,Space,keypress(Space),,,,lyrical,,,,----- -- ---- --- -- --- -------- ------------ ---------- --<br>- ------- ------ --------- -- ------------ -- --- been -----<br>------ ---- ---- ------ ------ ------- --- ----- ---------<br>---- --- -------- -------- --- --- -- ------- --- --- -----<br>-- --- ------ ------- --- --- -------- ---- --------- --<br>---------- -- -------- ----------------,388538.11999999743,388537.14000000036,388339.21,388350.6400000042,388355.618,388555.856,,18,been
screen,html.Screen,1_3_1_0_1_19,2021-04-20T15:11:15.770Z,,,,,,,,,,,,,,,,11,,,,,,,,,,,,,,185.81899999745656,,response,,,,4,E,,,,,,Space,keypress(Space),,,,lyrical,,,,----- -- ---- --- -- --- -------- ------------ ---------- --<br>- ------- ------ --------- -- ------------ -- --- ---- found<br>------ ---- ---- ------ ------ ------- --- ----- ---------<br>---- --- -------- -------- --- --- -- ------- --- --- -----<br>-- --- ------ ------- --- --- -------- ---- --------- --<br>---------- -- -------- ----------------,388742.4299999984,388741.6749999975,388522.278,388538.274999999,388555.856,388755.863,,19,found
screen,html.Screen,1_3_1_0_1_20,2021-04-20T15:11:15.942Z,,,,,,,,,,,,,,,,11,,,,,,,,,,,,,,158.04199999396224,,response,,,,4,E,,,,,,Space,keypress(Space),,,,lyrical,,,,----- -- ---- --- -- --- -------- ------------ ---------- --<br>- ------- ------ --------- -- ------------ -- --- ---- -----<br>carved ---- ---- ------ ------ ------- --- ----- ---------<br>---- --- -------- -------- --- --- -- ------- --- --- -----<br>-- --- ------ ------- --- --- -------- ---- --------- --<br>---------- -- -------- ----------------,388914.6749999927,388913.904999994,388738.872,388742.6049999922,388755.863,388922.514,,20,carved
screen,html.Screen,1_3_1_0_1_21,2021-04-20T15:11:16.217Z,,,,,,,,,,,,,,,,11,,,,,,,,,,,,,,266.6510000033886,,response,,,,4,E,,,,,,Space,keypress(Space),,,,lyrical,,,,----- -- ---- --- -- --- -------- ------------ ---------- --<br>- ------- ------ --------- -- ------------ -- --- ---- -----<br>------ into ---- ------ ------ ------- --- ----- ---------<br>---- --- -------- -------- --- --- -- ------- --- --- -----<br>-- --- ------ ------- --- --- -------- ---- --------- --<br>---------- -- -------- ----------------,389190.02999999793,389189.1650000034,388905.507,388914.7799999919,388922.514,389205.842,,21,into
screen,html.Screen,1_3_1_0_1_22,2021-04-20T15:11:16.382Z,,,,,,,,,,,,,,,,11,,,,,,,,,,,,,,148.2729999946314,,response,,,,4,E,,,,,,Space,keypress(Space),,,,lyrical,,,,----- -- ---- --- -- --- -------- ------------ ---------- --<br>- ------- ------ --------- -- ------------ -- --- ---- -----<br>------ ---- many ------ ------ ------- --- ----- ---------<br>---- --- -------- -------- --- --- -- ------- --- --- -----<br>-- --- ------ ------- --- --- -------- ---- --------- --<br>---------- -- -------- ----------------,389354.97499999474,389354.11499999464,389189.124,389190.18000000506,389205.842,389372.497,,22,many
screen,html.Screen,1_3_1_0_1_23,2021-04-20T15:11:16.489Z,,,,,,,,,,,,,,,,11,,,,,,,,,,,,,,87.06799999740906,,response,,,,4,E,,,,,,Space,keypress(Space),,,,lyrical,,,,----- -- ---- --- -- --- -------- ------------ ---------- --<br>- ------- ------ --------- -- ------------ -- --- ---- -----<br>------ ---- ---- oblong ------ ------- --- ----- ---------<br>---- --- -------- -------- --- --- -- ------- --- --- -----<br>-- --- ------ ------- --- --- -------- ---- --------- --<br>---------- -- -------- ----------------,389462.2399999935,389459.5649999974,389355.507,389355.1299999963,389372.497,389472.214,,23,oblong
screen,html.Screen,1_3_1_0_1_24,2021-04-20T15:11:16.712Z,,,,,,,,,,,,,,,,11,,,,,,,,,,,,,,212.19099999271566,,response,,,,4,E,,,,,,Space,keypress(Space),,,,lyrical,,,,----- -- ---- --- -- --- -------- ------------ ---------- --<br>- ------- ------ --------- -- ------------ -- --- ---- -----<br>------ ---- ---- ------ wooden ------- --- ----- ---------<br>---- --- -------- -------- --- --- -- ------- --- --- -----<br>-- --- ------ ------- --- --- -------- ---- --------- --<br>---------- -- -------- ----------------,389685.3149999952,389684.4049999927,389455.749,389462.4099999928,389472.214,389688.857,,24,wooden
screen,html.Screen,1_3_1_0_1_25,2021-04-20T15:11:16.900Z,,,,,,,,,,,,,,,,11,,,,,,,,,,,,,,182.767999999749,,response,,,,4,E,,,,,,Space,keypress(Space),,,,lyrical,,,,----- -- ---- --- -- --- -------- ------------ ---------- --<br>- ------- ------ --------- -- ------------ -- --- ---- -----<br>------ ---- ---- ------ ------ tablets --- ----- ---------<br>---- --- -------- -------- --- --- -- ------- --- --- -----<br>-- --- ------ ------- --- --- -------- ---- --------- --<br>---------- -- -------- ----------------,389872.4599999987,389871.62499999977,389672.134,389685.4699999967,389688.857,389888.878,,25,tablets
screen,html.Screen,1_3_1_0_1_26,2021-04-20T15:11:16.958Z,,,,,,,,,,,,,,,,11,,,,,,,,,,,,,,40.97699999483302,,response,,,,4,E,,,,,,Space,keypress(Space),,,,lyrical,,,,----- -- ---- --- -- --- -------- ------------ ---------- --<br>- ------- ------ --------- -- ------------ -- --- ---- -----<br>------ ---- ---- ------ ------ ------- and ----- ---------<br>---- --- -------- -------- --- --- -- ------- --- --- -----<br>-- --- ------ ------- --- --- -------- ---- --------- --<br>---------- -- -------- ----------------,389930.74999999953,389929.85499999486,389872.499,389872.6150000002,389888.878,389955.537,,26,and
screen,html.Screen,1_3_1_0_1_27,2021-04-20T15:11:17.076Z,,,,,,,,,,,,,,,,11,,,,,,,,,,,,,,92.32800000044517,,response,,,,4,E,,,,,,Space,keypress(Space),,,,lyrical,,,,----- -- ---- --- -- --- -------- ------------ ---------- --<br>- ------- ------ --------- -- ------------ -- --- ---- -----<br>------ ---- ---- ------ ------ ------- --- other ---------<br>---- --- -------- -------- --- --- -- ------- --- --- -----<br>-- --- ------ ------- --- --- -------- ---- --------- --<br>---------- -- -------- ----------------,390048.46999999427,390047.86500000046,389938.811,389930.9099999955,389955.537,390055.564,,27,other
screen,html.Screen,1_3_1_0_1_28,2021-04-20T15:11:17.148Z,,,,,,,,,,,,,,,,11,,,,,,,,,,,,,,64.54099999449681,,response,,,,4,E,,,,,,Space,keypress(Space),,,,lyrical,,,,----- -- ---- --- -- --- -------- ------------ ---------- --<br>- ------- ------ --------- -- ------------ -- --- ---- -----<br>------ ---- ---- ------ ------ ------- --- ----- artifacts<br>---- --- -------- -------- --- --- -- ------- --- --- -----<br>-- --- ------ ------- --- --- -------- ---- --------- --<br>---------- -- -------- ----------------,390120.895,390120.1049999945,390038.773,390048.5800000024,390055.564,390157.248,,28,artifacts
screen,html.Screen,1_3_1_0_1_29,2021-04-20T15:11:17.257Z,,,,,,,,,,,,,,,,11,,,,,,,,,,,,,,71.40699999895878,,response,,,,4,E,,,,,,Space,keypress(Space),,,,lyrical,,,,----- -- ---- --- -- --- -------- ------------ ---------- --<br>- ------- ------ --------- -- ------------ -- --- ---- -----<br>------ ---- ---- ------ ------ ------- --- ----- ---------<br>from --- -------- -------- --- --- -- ------- --- --- -----<br>-- --- ------ ------- --- --- -------- ---- --------- --<br>---------- -- -------- ----------------,390229.55000000366,390228.654999999,390105.676,390121.0699999938,390157.248,390238.799,,29,from
screen,html.Screen,1_3_1_0_1_30,2021-04-20T15:11:17.454Z,,,,,,,,,,,,,,,,11,,,,,,,,,,,,,,187.44599999510683,,response,,,,4,E,,,,,,Space,keypress(Space),,,,lyrical,,,,----- -- ---- --- -- --- -------- ------------ ---------- --<br>- ------- ------ --------- -- ------------ -- --- ---- -----<br>------ ---- ---- ------ ------ ------- --- ----- ---------<br>---- the -------- -------- --- --- -- ------- --- --- -----<br>-- --- ------ ------- --- --- -------- ---- --------- --<br>---------- -- -------- ----------------,390427.159999992,390426.2449999951,390222.159,390229.7099999996,390238.799,390438.779,,30,the
screen,html.Screen,1_3_1_0_1_31,2021-04-20T15:11:17.755Z,,,,,,,,,,,,,,,,11,,,,,,,,,,,,,,288.2310000023572,,response,,,,4,E,,,,,,Space,keypress(Space),,,,lyrical,,,,----- -- ---- --- -- --- -------- ------------ ---------- --<br>- ------- ------ --------- -- ------------ -- --- ---- -----<br>------ ---- ---- ------ ------ ------- --- ----- ---------<br>---- --- island's -------- --- --- -- ------- --- --- -----<br>-- --- ------ ------- --- --- -------- ---- --------- --<br>---------- -- -------- ----------------,390728.14500000095,390727.01000000234,390422.396,390427.3200000025,390438.779,390738.845,,31,island's
screen,html.Screen,1_3_1_0_1_32,2021-04-20T15:11:17.917Z,,,,,,,,,,,,,,,,11,,,,,,,,,,,,,,150.30500000272878,,response,,,,4,E,,,,,,Space,keypress(Space),,,,lyrical,,,,----- -- ---- --- -- --- -------- ------------ ---------- --<br>- ------- ------ --------- -- ------------ -- --- ---- -----<br>------ ---- ---- ------ ------ ------- --- ----- ---------<br>---- --- -------- history. --- --- -- ------- --- --- -----<br>-- --- ------ ------- --- --- -------- ---- --------- --<br>---------- -- -------- ----------------,390889.95499999146,390889.1500000027,390722.348,390728.3400000015,390738.845,390905.731,,32,history.
screen,html.Screen,1_3_1_0_1_33,2021-04-20T15:11:18.089Z,,,,,,,,,,,,,,,,11,,,,,,,,,,,,,,154.87399999145418,,response,,,,4,E,,,,,,Space,keypress(Space),,,,lyrical,,,,----- -- ---- --- -- --- -------- ------------ ---------- --<br>- ------- ------ --------- -- ------------ -- --- ---- -----<br>------ ---- ---- ------ ------ ------- --- ----- ---------<br>---- --- -------- -------- The --- -- ------- --- --- -----<br>-- --- ------ ------- --- --- -------- ---- --------- --<br>---------- -- -------- ----------------,391061.50999999954,391060.6049999915,390888.995,390890.109999993,390905.731,391072.453,,33,The
screen,html.Screen,1_3_1_0_1_34,2021-04-20T15:11:18.423Z,,,,,,,,,,,,,,,,11,,,,,,,,,,,,,,322.612000004272,,response,,,,4,E,,,,,,Space,keypress(Space),,,,lyrical,,,,----- -- ---- --- -- --- -------- ------------ ---------- --<br>- ------- ------ --------- -- ------------ -- --- ---- -----<br>------ ---- ---- ------ ------ ------- --- ----- ---------<br>---- --- -------- -------- --- art -- ------- --- --- -----<br>-- --- ------ ------- --- --- -------- ---- --------- --<br>---------- -- -------- ----------------,391395.9199999954,391395.06500000425,391055.407,391061.6650000011,391072.453,391405.718,,34,art
screen,html.Screen,1_3_1_0_1_35,2021-04-20T15:11:18.733Z,,,,,,,,,,,,,,,,11,,,,,,,,,,,,,,299.5170000012731,,response,,,,4,E,,,,,,Space,keypress(Space),,,,lyrical,,,,----- -- ---- --- -- --- -------- ------------ ---------- --<br>- ------- ------ --------- -- ------------ -- --- ---- -----<br>------ ---- ---- ------ ------ ------- --- ----- ---------<br>---- --- -------- -------- --- --- of ------- --- --- -----<br>-- --- ------ ------- --- --- -------- ---- --------- --<br>---------- -- -------- ----------------,391706.0899999924,391705.23500000127,391388.772,391396.0749999969,391405.718,391722.396,,35,of
screen,html.Screen,1_3_1_0_1_36,2021-04-20T15:11:19.063Z,,,,,,,,,,,,,,,,11,,,,,,,,,,,,,,313.01399999676505,,response,,,,4,E,,,,,,Space,keypress(Space),,,,lyrical,,,,----- -- ---- --- -- --- -------- ------------ ---------- --<br>- ------- ------ --------- -- ------------ -- --- ---- -----<br>------ ---- ---- ------ ------ ------- --- ----- ---------<br>---- --- -------- -------- --- --- -- writing --- --- -----<br>-- --- ------ ------- --- --- -------- ---- --------- --<br>---------- -- -------- ----------------,392036.2199999945,392035.4099999968,391705.367,391706.2549999973,391722.396,392038.787,,36,writing
screen,html.Screen,1_3_1_0_1_37,2021-04-20T15:11:19.367Z,,,,,,,,,,,,,,,,11,,,,,,,,,,,,,,300.1879999914672,,response,,,,4,E,,,,,,Space,keypress(Space),,,,lyrical,,,,----- -- ---- --- -- --- -------- ------------ ---------- --<br>- ------- ------ --------- -- ------------ -- --- ---- -----<br>------ ---- ---- ------ ------ ------- --- ----- ---------<br>---- --- -------- -------- --- --- -- ------- was --- -----<br>-- --- ------ ------- --- --- -------- ---- --------- --<br>---------- -- -------- ----------------,392339.8349999916,392338.9749999915,392022.313,392036.30999999586,392038.787,392355.678,,37,was
screen,html.Screen,1_3_1_0_1_38,2021-04-20T15:11:19.525Z,,,,,,,,,,,,,,,,11,,,,,,,,,,,,,,140.82199999381555,,response,,,,4,E,,,,,,Space,keypress(Space),,,,lyrical,,,,----- -- ---- --- -- --- -------- ------------ ---------- --<br>- ------- ------ --------- -- ------------ -- --- ---- -----<br>------ ---- ---- ------ ------ ------- --- ----- ---------<br>---- --- -------- -------- --- --- -- ------- --- not -----<br>-- --- ------ ------- --- --- -------- ---- --------- --<br>---------- -- -------- ----------------,392497.4099999963,392496.49999999383,392338.722,392339.9899999931,392355.678,392505.373,,38,not
