sender,sender_type,sender_id,timestamp,meta,,Blues,Classical,Country,Dance,Electronic,Folk,Gospel,Hip-Hop,Jazz,Latin,Musical/Film,New-age,Pop,Provo_ID,R&B,Rap,Reggae,Religious,Rock,Soul,Swing,Traditional,age,artist_name,correct,correctResponse,distraction,duration,education,ended_on,familiarity,gender,headphone_check_performance,item,list,music_frequency,offensiveness,pleasantness,position_correct,preference,response,response_action,snippet_file,song_name,song_rating,sound,stimulus_1,stimulus_2,stimulus_3,text,time_commit,time_end,time_render,time_run,time_show,time_switch,url,word,word_ID
Introduction,html.Screen,0_0,2021-04-18T19:36:01.910Z,"{""labjs_version"":""20.2.2"",""labjs_build"":{""flavor"":""production"",""commit"":""a25486e0c714a0ae2ce03ff94b7bb6896854dcfa""},""location"":""https://run.pavlovia.org/mvasilev/music_e/"",""userAgent"":""Mozilla/5.0 (Windows NT 10.0; Win64; x64) AppleWebKit/537.36 (KHTML, like Gecko) Chrome/89.0.4389.128 Safari/537.36"",""platform"":""Win32"",""language"":""en-US"",""locale"":""en-US"",""timeZone"":""Europe/London"",""timezoneOffset"":-60,""screen_width"":1920,""screen_height"":1080,""scroll_width"":1920,""scroll_height"":832,""window_innerWidth"":1920,""window_innerHeight"":880,""devicePixelRatio"":1}",,,,,,,,,,,,,,,,,,,,,,,,,,,,,4793.053000003772,,response,,,,,,,,,,,continue,click button,,,,,,,,,9552.600000009988,9551.550000003772,4731.755,4743.630000011763,4758.497,9560.254,{},,
Volume calibration,html.Screen,0_1,2021-04-18T19:36:40.815Z,,,,,,,,,,,,,,,,,,,,,,,,,,,,,,38895.38100000571,,response,,,,,,,,,,,continue,click button,,,,,,,,,48457.655000005616,48455.635000005714,9546.919,9552.75500001153,9560.254,48467.988,,,
Task instructions,html.Screen,0_2,2021-04-18T19:36:54.414Z,,,,,,,,,,,,,,,,,,,,,,,,,,,,,,13587.587000005777,,response,,,,,,,,,,,continue,click button,,,,,,,,,62056.21000000974,62055.575000005774,48454.66,48458.78500000981,48467.988,62059.715,,,
Sounds,html.Screen,0_3_0_0,2021-04-18T19:36:58.661Z,,,,,,,,,,,,,,,,,,,,,,,,,,,,,,4254.803,,timeout,,,,,,,,,2,,,,,,,,O,S,I,,66303.61000000266,66301.285,62046.371,62056.40500001027,62059.715,66314.518,,,
Judgement,html.Screen,0_3_0_1,2021-04-18T19:37:01.414Z,,,,,,,,,,,,,,,,,,,,,,,,,,,true,2,,2741.117000011538,,response,,,,,,,,,2,,2,click #choice-2,,,,,O,S,I,,69056.37500000012,69055.63500001153,66301.285,66303.80000000878,66314.518,69062.252,,,
Trial,flow.Sequence,0_3_0,2021-04-18T19:37:01.415Z,,,,,,,,,,,,,,,,,,,,,,,,,,,,,,6995.920000011538,,completion,,,,,,,,,2,,,,,,,,O,S,I,,69057.22000000242,69055.63500001153,62046.371,62056.3550000079,62059.715,69062.252,,,
Sounds,html.Screen,0_3_1_0,2021-04-18T19:37:05.662Z,,,,,,,,,,,,,,,,,,,,,,,,,,,,,,4255.031000000003,,timeout,,,,,,,,,1,,,,,,,,S,I,O,,73304.47500001173,73303.874,69048.98,69057.32000000717,69062.252,73317.283,,,
Judgement,html.Screen,0_3_1_1,2021-04-18T19:37:09.470Z,,,,,,,,,,,,,,,,,,,,,,,,,,,true,1,,3794.372000000614,,response,,,,,,,,,1,,1,click #choice-1,,,,,S,I,O,,77112.33499999798,77111.65500000061,73303.874,73304.62999999872,73317.283,77118.631,,,
Trial,flow.Sequence,0_3_1,2021-04-18T19:37:09.470Z,,,,,,,,,,,,,,,,,,,,,,,,,,,,,,8049.403000000617,,completion,,,,,,,,,1,,,,,,,,S,I,O,,77112.5250000041,77111.65500000061,69048.98,69057.29000001156,69062.252,77118.631,,,
Sounds,html.Screen,0_3_2_0,2021-04-18T19:37:13.718Z,,,,,,,,,,,,,,,,,,,,,,,,,,,,,,4254.975000000006,,timeout,,,,,,,,,3,,,,,,,,I,O,S,,81360.75500000152,81360.22,77105.338,77112.63499999768,77118.631,81373.606,,,
Judgement,html.Screen,0_3_2_1,2021-04-18T19:37:17.070Z,,,,,,,,,,,,,,,,,,,,,,,,,,,true,3,,3338.0590000098164,,response,,,,,,,,,3,,3,click #choice-3,,,,,I,O,S,,84712.22000000125,84711.66500000982,81360.22,81360.89500000526,81373.606,84721.46,,,
Trial,flow.Sequence,0_3_2,2021-04-18T19:37:17.070Z,,,,,,,,,,,,,,,,,,,,,,,,,,,,,,7593.034000009822,,completion,,,,,,,,,3,,,,,,,,I,O,S,,84712.34500000719,84711.66500000982,77105.338,77112.60000000766,77118.631,84721.46,,,
Sounds,html.Screen,0_3_3_0,2021-04-18T19:37:21.321Z,,,,,,,,,,,,,,,,,,,,,,,,,,,,,,4254.903999999995,,timeout,,,,,,,,,1,,,,,,,,S,O,I,,88963.99499999825,88963.021,84708.111,84712.42999999959,84721.46,88976.364,,,
Judgement,html.Screen,0_3_3_1,2021-04-18T19:37:22.270Z,,,,,,,,,,,,,,,,,,,,,,,,,,,true,1,,935.2559999989462,,response,,,,,,,,,1,,1,click #choice-1,,,,,S,O,I,,89912.2650000063,89911.61999999895,88963.021,88964.0800000052,88976.364,89923.385,,,
Trial,flow.Sequence,0_3_3,2021-04-18T19:37:22.270Z,,,,,,,,,,,,,,,,,,,,,,,,,,,,,,5190.159999998941,,completion,,,,,,,,,1,,,,,,,,S,O,I,,89912.47500000463,89911.61999999895,84708.111,84712.40000000398,84721.46,89923.385,,,
Sounds,html.Screen,0_3_4_0,2021-04-18T19:37:26.523Z,,,,,,,,,,,,,,,,,,,,,,,,,,,,,,4254.931000000011,,timeout,,,,,,,,,2,,,,,,,,I,S,O,,94165.55499999959,94164.973,89910.064,89912.60500000499,89923.385,94178.316,,,
Judgement,html.Screen,0_3_4_1,2021-04-18T19:37:27.654Z,,,,,,,,,,,,,,,,,,,,,,,,,,,true,2,,1117.639000008683,,response,,,,,,,,,2,,2,click #choice-2,,,,,I,S,O,,95296.69500001182,95295.95500000869,94164.973,94165.69500000332,94178.316,95298.708,,,
Trial,flow.Sequence,0_3_4,2021-04-18T19:37:27.654Z,,,,,,,,,,,,,,,,,,,,,,,,,,,,,,5372.5700000086945,,completion,,,,,,,,,2,,,,,,,,I,S,O,,95296.875,95295.95500000869,89910.064,89912.57500000938,89923.385,95298.708,,,
Sounds,html.Screen,0_3_5_0,2021-04-18T19:37:31.898Z,,,,,,,,,,,,,,,,,,,,,,,,,,,,,,4254.937999999995,,timeout,,,,,,,,,3,,,,,,,,O,I,S,,99540.94500000065,99540.311,95285.385,95296.97500000475,95298.708,99553.646,,,
Judgement,html.Screen,0_3_5_1,2021-04-18T19:37:32.646Z,,,,,,,,,,,,,,,,,,,,,,,,,,,true,3,,734.3939999994618,,response,,,,,,,,,3,,3,click #choice-3,,,,,O,I,S,,100288.63500000443,100288.03999999946,99540.311,99541.08000000997,99553.646,100300.572,,,
Trial,flow.Sequence,0_3_5,2021-04-18T19:37:32.646Z,,,,,,,,,,,,,,,,,,,,,,,,,,,,,,4989.3319999994565,,completion,,,,,,,,,3,,,,,,,,O,I,S,,100288.76000001037,100288.03999999946,95285.385,95296.94500000915,95298.708,100300.572,,,
Task,flow.Loop,0_3,2021-04-18T19:37:32.648Z,,,,,,,,,,,,,,,,,,,,,,,,,,,,,,38228.32499999946,,completion,,,1,,,,,,,,,,,,,,,,,,100291.07000000658,100288.03999999946,62046.371,62056.320000003325,62059.715,100300.572,,,
Trap,html.Screen,0_4,2021-04-18T19:37:32.650Z,,,,,,,,,,,,,,,,,,,,,,,,,,,,,,NaN,,skipped,,,,,,,,,,,,,,,,,,,,,100292.34500000894,100288.03999999946,,100292.28000000876,,100300.572,,,
Thanks,html.Screen,0_5,2021-04-18T19:37:48.534Z,,,,,,,,,,,,,,,,,,,,,,,,,,,,,,15875.153000008242,,response,,,,,,,,,,,continue,click button,,,,,,,,,116176.35000000882,116175.72500000824,100287.26,100292.40500000014,100300.572,120574.793,,,
Headphone screening,flow.Sequence,0,2021-04-18T19:37:48.534Z,,,,,,,,,,,,,,,,,,,,,,,,,,,,,,111417.22800000824,,completion,,,,,,,,,,,,,,,,,,,,,116176.4700000058,116175.72500000824,4731.755,4743.605000010575,4758.497,120574.793,,,
Instructions,html.Page,1_0,2021-04-18T19:38:22.582Z,,,,,,,,,,,,,,,,,,,,,,,,,,,,,,29650.822000003012,,form submission,,,,,,,,,,,,,,,,,,,,,150225.76500001014,150225.61500000302,120561.427,120578.3950000041,120574.793,150225.779,,,
Holding screen,html.Screen,1_1_0_0,2021-04-18T19:38:32.573Z,,,,,,,,,,,,,,,,,,,,,,,,,,,,,,10003.736000000004,,timeout,,,,,,,,,,,,,,,,,,,,,160216.77500000806,160216.224,150212.454,150225.92000001168,150225.779,160229.515,,,
screen,html.Screen,1_1_0_1_0,2021-04-18T19:38:33.415Z,,,,,,,,,,,,,,,,53,,,,,,,,,,,,,,826.755000000936,,response,,,,99,,,,,,,Space,keypress(Space),,,,,,,,When -- ----- -- ------ - ------- --- ----------<br>------------- ------ ------ ---- ---- ------- ----- -- ----<br>-------- ------- -- ---------- --- - --- ----- ----- ----<br>---- --- --- ----- --- ---- ---- ------- ----- ---- -------<br>--- --- -- ----- -- --- ---- -- --- ---- -- ------ ------<br>--- ----- -- ----,161058.39500000002,161056.27000000095,160216.224,160216.98000001197,160229.515,161069.839,,0,When
screen,html.Screen,1_1_0_1_1,2021-04-18T19:38:33.782Z,,,,,,,,,,,,,,,,53,,,,,,,,,,,,,,354.2210000048217,,response,,,,99,,,,,,,Space,keypress(Space),,,,,,,,---- it ----- -- ------ - ------- --- ----------<br>------------- ------ ------ ---- ---- ------- ----- -- ----<br>-------- ------- -- ---------- --- - --- ----- ----- ----<br>---- --- --- ----- --- ---- ---- ------- ----- ---- -------<br>--- --- -- ----- -- --- ---- -- --- ---- -- ------ ------<br>--- ----- -- ----,161424.96000000392,161424.06000000483,161056.376,161058.51500001154,161069.839,161429.846,,1,it
screen,html.Screen,1_1_0_1_2,2021-04-18T19:38:34.134Z,,,,,,,,,,,,,,,,53,,,,,,,,,,,,,,346.1539999980305,,response,,,,99,,,,,,,Space,keypress(Space),,,,,,,,---- -- comes -- ------ - ------- --- ----------<br>------------- ------ ------ ---- ---- ------- ----- -- ----<br>-------- ------- -- ---------- --- - --- ----- ----- ----<br>---- --- --- ----- --- ---- ---- ------- ----- ---- -------<br>--- --- -- ----- -- --- ---- -- --- ---- -- ------ ------<br>--- ----- -- ----,161776.90500000608,161775.99999999802,161416.601,161425.0949999987,161429.846,161789.993,,2,comes
screen,html.Screen,1_1_0_1_3,2021-04-18T19:38:34.470Z,,,,,,,,,,,,,,,,53,,,,,,,,,,,,,,322.05200000168406,,response,,,,99,,,,,,,Space,keypress(Space),,,,,,,,---- -- ----- to ------ - ------- --- ----------<br>------------- ------ ------ ---- ---- ------- ----- -- ----<br>-------- ------- -- ---------- --- - --- ----- ----- ----<br>---- --- --- ----- --- ---- ---- ------- ----- ---- -------<br>--- --- -- ----- -- --- ---- -- --- ---- -- ------ ------<br>--- ----- -- ----,162112.94000000635,162112.04500000167,161776.744,161777.03500000644,161789.993,162123.569,,3,to
screen,html.Screen,1_1_0_1_4,2021-04-18T19:38:34.798Z,,,,,,,,,,,,,,,,53,,,,,,,,,,,,,,316.5010000114853,,response,,,,99,,,,,,,Space,keypress(Space),,,,,,,,---- -- ----- -- having - ------- --- ----------<br>------------- ------ ------ ---- ---- ------- ----- -- ----<br>-------- ------- -- ---------- --- - --- ----- ----- ----<br>---- --- --- ----- --- ---- ---- ------- ----- ---- -------<br>--- --- -- ----- -- --- ---- -- --- ---- -- ------ ------<br>--- ----- -- ----,162440.9100000048,162440.07000001147,162110.204,162113.0800000101,162123.569,162443.683,,4,having
screen,html.Screen,1_1_0_1_5,2021-04-18T19:38:35.078Z,,,,,,,,,,,,,,,,53,,,,,,,,,,,,,,276.35200000574696,,response,,,,99,,,,,,,Space,keypress(Space),,,,,,,,---- -- ----- -- ------ a ------- --- ----------<br>------------- ------ ------ ---- ---- ------- ----- -- ----<br>-------- ------- -- ---------- --- - --- ----- ----- ----<br>---- --- --- ----- --- ---- ---- ------- ----- ---- -------<br>--- --- -- ----- -- --- ---- -- --- ---- -- ------ ------<br>--- ----- -- ----,162720.86000000127,162720.03500000574,162430.323,162441.04499999958,162443.683,162723.782,,5,a
screen,html.Screen,1_1_0_1_6,2021-04-18T19:38:35.502Z,,,,,,,,,,,,,,,,53,,,,,,,,,,,,,,420.2579999992158,,response,,,,99,,,,,,,Space,keypress(Space),,,,,,,,---- -- ----- -- ------ - lasting --- ----------<br>------------- ------ ------ ---- ---- ------- ----- -- ----<br>-------- ------- -- ---------- --- - --- ----- ----- ----<br>---- --- --- ----- --- ---- ---- ------- ----- ---- -------<br>--- --- -- ----- -- --- ---- -- --- ---- -- ------ ------<br>--- ----- -- ----,163144.91500001168,163144.03999999922,162710.42,162720.9850000072,162723.782,163150.519,,6,lasting
screen,html.Screen,1_1_0_1_7,2021-04-18T19:38:35.813Z,,,,,,,,,,,,,,,,53,,,,,,,,,,,,,,305.3710000120045,,response,,,,99,,,,,,,Space,keypress(Space),,,,,,,,---- -- ----- -- ------ - ------- and ----------<br>------------- ------ ------ ---- ---- ------- ----- -- ----<br>-------- ------- -- ---------- --- - --- ----- ----- ----<br>---- --- --- ----- --- ---- ---- ------- ----- ---- -------<br>--- --- -- ----- -- --- ---- -- --- ---- -- ------ ------<br>--- ----- -- ----,163456.4900000114,163455.890000012,163137.242,163145.05000000645,163150.519,163480.602,,7,and
screen,html.Screen,1_1_0_1_8,2021-04-18T19:38:36.230Z,,,,,,,,,,,,,,,,53,,,,,,,,,,,,,,391.418000009784,,response,,,,99,,,,,,,Space,keypress(Space),,,,,,,,---- -- ----- -- ------ - ------- --- fulfilling<br>------------- ------ ------ ---- ---- ------- ----- -- ----<br>-------- ------- -- ---------- --- - --- ----- ----- ----<br>---- --- --- ----- --- ---- ---- ------- ----- ---- -------<br>--- --- -- ----- -- --- ---- -- --- ---- -- ------ ------<br>--- ----- -- ----,163872.92999999772,163872.0200000098,163444.034,163456.5650000004,163480.602,163884.215,,8,fulfilling
screen,html.Screen,1_1_0_1_9,2021-04-18T19:38:36.622Z,,,,,,,,,,,,,,,,53,,,,,,,,,,,,,,380.5249999987136,,response,,,,99,,,,,,,Space,keypress(Space),,,,,,,,"---- -- ----- -- ------ - ------- --- ----------<br>relationship, ------ ------ ---- ---- ------- ----- -- ----<br>-------- ------- -- ---------- --- - --- ----- ----- ----<br>---- --- --- ----- --- ---- ---- ------- ----- ---- -------<br>--- --- -- ----- -- --- ---- -- --- ---- -- ------ ------<br>--- ----- -- ----",164265.72999999917,164264.7399999987,163870.858,163873.06500000705,163884.215,164270.934,,9,"relationship,"
screen,html.Screen,1_1_0_1_10,2021-04-18T19:38:37.349Z,,,,,,,,,,,,,,,,53,,,,,,,,,,,,,,721.2160000054864,,response,,,,99,,,,,,,Space,keypress(Space),,,,,,,,---- -- ----- -- ------ - ------- --- ----------<br>------------- common ------ ---- ---- ------- ----- -- ----<br>-------- ------- -- ---------- --- - --- ----- ----- ----<br>---- --- --- ----- --- ---- ---- ------- ----- ---- -------<br>--- --- -- ----- -- --- ---- -- --- ---- -- ------ ------<br>--- ----- -- ----,164992.7800000005,164992.1500000055,164257.664,164265.91500001086,164270.934,165004.672,,10,common
screen,html.Screen,1_1_0_1_11,2021-04-18T19:38:37.702Z,,,,,,,,,,,,,,,,53,,,,,,,,,,,,,,339.37799999970593,,response,,,,99,,,,,,,Space,keypress(Space),,,,,,,,---- -- ----- -- ------ - ------- --- ----------<br>------------- ------ wisdom ---- ---- ------- ----- -- ----<br>-------- ------- -- ---------- --- - --- ----- ----- ----<br>---- --- --- ----- --- ---- ---- ------- ----- ---- -------<br>--- --- -- ----- -- --- ---- -- --- ---- -- ------ ------<br>--- ----- -- ----,165344.935000001,165344.0499999997,164991.27,164992.85999999847,165004.672,165351.3,,11,wisdom
screen,html.Screen,1_1_0_1_12,2021-04-18T19:38:38.006Z,,,,,,,,,,,,,,,,53,,,,,,,,,,,,,,296.74500000901753,,response,,,,99,,,,,,,Space,keypress(Space),,,,,,,,---- -- ----- -- ------ - ------- --- ----------<br>------------- ------ ------ says ---- ------- ----- -- ----<br>-------- ------- -- ---------- --- - --- ----- ----- ----<br>---- --- --- ----- --- ---- ---- ------- ----- ---- -------<br>--- --- -- ----- -- --- ---- -- --- ---- -- ------ ------<br>--- ----- -- ----,165648.87499999895,165648.045000009,165338.054,165345.0700000103,165351.3,165658.213,,12,says
screen,html.Screen,1_1_0_1_13,2021-04-18T19:38:38.325Z,,,,,,,,,,,,,,,,53,,,,,,,,,,,,,,309.7470000090543,,response,,,,99,,,,,,,Space,keypress(Space),,,,,,,,---- -- ----- -- ------ - ------- --- ----------<br>------------- ------ ------ ---- that ------- ----- -- ----<br>-------- ------- -- ---------- --- - --- ----- ----- ----<br>---- --- --- ----- --- ---- ---- ------- ----- ---- -------<br>--- --- -- ----- -- --- ---- -- --- ---- -- ------ ------<br>--- ----- -- ----,165968.635000012,165967.96000000904,165644.842,165649.01000000827,165658.213,165978.321,,13,that
screen,html.Screen,1_1_0_1_14,2021-04-18T19:38:38.670Z,,,,,,,,,,,,,,,,53,,,,,,,,,,,,,,333.82899999793153,,response,,,,99,,,,,,,Space,keypress(Space),,,,,,,,---- -- ----- -- ------ - ------- --- ----------<br>------------- ------ ------ ---- ---- feeling ----- -- ----<br>-------- ------- -- ---------- --- - --- ----- ----- ----<br>---- --- --- ----- --- ---- ---- ------- ----- ---- -------<br>--- --- -- ----- -- --- ---- -- --- ---- -- ------ ------<br>--- ----- -- ----,166313.0700000038,166312.14999999793,165964.963,165968.710000001,165978.321,166325.128,,14,feeling
screen,html.Screen,1_1_0_1_15,2021-04-18T19:38:38.957Z,,,,,,,,,,,,,,,,53,,,,,,,,,,,,,,274.8519999990531,,response,,,,99,,,,,,,Space,keypress(Space),,,,,,,,---- -- ----- -- ------ - ------- --- ----------<br>------------- ------ ------ ---- ---- ------- close -- ----<br>-------- ------- -- ---------- --- - --- ----- ----- ----<br>---- --- --- ----- --- ---- ---- ------- ----- ---- -------<br>--- --- -- ----- -- --- ---- -- --- ---- -- ------ ------<br>--- ----- -- ----,166600.57999999844,166599.97999999905,166311.756,166313.21000000753,166325.128,166605.223,,15,close
screen,html.Screen,1_1_0_1_16,2021-04-18T19:38:39.238Z,,,,,,,,,,,,,,,,53,,,,,,,,,,,,,,274.7220000078669,,response,,,,99,,,,,,,Space,keypress(Space),,,,,,,,---- -- ----- -- ------ - ------- --- ----------<br>------------- ------ ------ ---- ---- ------- ----- to ----<br>-------- ------- -- ---------- --- - --- ----- ----- ----<br>---- --- --- ----- --- ---- ---- ------- ----- ---- -------<br>--- --- -- ----- -- --- ---- -- --- ---- -- ------ ------<br>--- ----- -- ----,166880.83500000357,166879.94500000787,166591.878,166600.6650000054,166605.223,166885.224,,16,to
screen,html.Screen,1_1_0_1_17,2021-04-18T19:38:39.638Z,,,,,,,,,,,,,,,,53,,,,,,,,,,,,,,394.83100001019193,,response,,,,99,,,,,,,Space,keypress(Space),,,,,,,,---- -- ----- -- ------ - ------- --- ----------<br>------------- ------ ------ ---- ---- ------- ----- -- your<br>-------- ------- -- ---------- --- - --- ----- ----- ----<br>---- --- --- ----- --- ---- ---- ------- ----- ---- -------<br>--- --- -- ----- -- --- ---- -- --- ---- -- ------ ------<br>--- ----- -- ----,167280.87000000232,167280.05500001018,166871.905,166880.9900000051,166885.224,167285.366,,17,your
screen,html.Screen,1_1_0_1_18,2021-04-18T19:38:39.997Z,,,,,,,,,,,,,,,,53,,,,,,,,,,,,,,354.6640000095649,,response,,,,99,,,,,,,Space,keypress(Space),,,,,,,,---- -- ----- -- ------ - ------- --- ----------<br>------------- ------ ------ ---- ---- ------- ----- -- ----<br>romantic ------- -- ---------- --- - --- ----- ----- ----<br>---- --- --- ----- --- ---- ---- ------- ----- ---- -------<br>--- --- -- ----- -- --- ---- -- --- ---- -- ------ ------<br>--- ----- -- ----,167640.664999999,167640.03000000957,167272.112,167281.00500001165,167285.366,167645.496,,18,romantic
screen,html.Screen,1_1_0_1_19,2021-04-18T19:38:40.309Z,,,,,,,,,,,,,,,,53,,,,,,,,,,,,,,306.43900000458234,,response,,,,99,,,,,,,Space,keypress(Space),,,,,,,,---- -- ----- -- ------ - ------- --- ----------<br>------------- ------ ------ ---- ---- ------- ----- -- ----<br>-------- partner -- ---------- --- - --- ----- ----- ----<br>---- --- --- ----- --- ---- ---- ------- ----- ---- -------<br>--- --- -- ----- -- --- ---- -- --- ---- -- ------ ------<br>--- ----- -- ----,167952.53000000957,167951.9350000046,167632.245,167640.76999999816,167645.496,167965.655,,19,partner
screen,html.Screen,1_1_0_1_20,2021-04-18T19:38:40.597Z,,,,,,,,,,,,,,,,53,,,,,,,,,,,,,,274.2750000106462,,response,,,,99,,,,,,,Space,keypress(Space),,,,,,,,---- -- ----- -- ------ - ------- --- ----------<br>------------- ------ ------ ---- ---- ------- ----- -- ----<br>-------- ------- is ---------- --- - --- ----- ----- ----<br>---- --- --- ----- --- ---- ---- ------- ----- ---- -------<br>--- --- -- ----- -- --- ---- -- --- ---- -- ------ ------<br>--- ----- -- ----,168240.52500000107,168239.93000001065,167952.375,167952.61500000197,167965.655,168245.717,,20,is
screen,html.Screen,1_1_0_1_21,2021-04-18T19:38:41.038Z,,,,,,,,,,,,,,,,53,,,,,,,,,,,,,,434.3429999987711,,response,,,,99,,,,,,,Space,keypress(Space),,,,,,,,---- -- ----- -- ------ - ------- --- ----------<br>------------- ------ ------ ---- ---- ------- ----- -- ----<br>-------- ------- -- paramount. --- - --- ----- ----- ----<br>---- --- --- ----- --- ---- ---- ------- ----- ---- -------<br>--- --- -- ----- -- --- ---- -- --- ---- -- ------ ------<br>--- ----- -- ----,168680.91000001004,168680.05999999878,168232.481,168240.60000000463,168245.717,168685.901,,21,paramount.
screen,html.Screen,1_1_0_1_22,2021-04-18T19:38:41.558Z,,,,,,,,,,,,,,,,53,,,,,,,,,,,,,,514.1390000106185,,response,,,,99,,,,,,,Space,keypress(Space),,,,,,,,---- -- ----- -- ------ - ------- --- ----------<br>------------- ------ ------ ---- ---- ------- ----- -- ----<br>-------- ------- -- ---------- But - --- ----- ----- ----<br>---- --- --- ----- --- ---- ---- ------- ----- ---- -------<br>--- --- -- ----- -- --- ---- -- --- ---- -- ------ ------<br>--- ----- -- ----,169200.88499999838,169200.04000001063,168672.632,168681.0400000104,168685.901,169206.077,,22,But
screen,html.Screen,1_1_0_1_23,2021-04-18T19:38:41.901Z,,,,,,,,,,,,,,,,53,,,,,,,,,,,,,,337.9329999978072,,response,,,,99,,,,,,,Space,keypress(Space),,,,,,,,---- -- ----- -- ------ - ------- --- ----------<br>------------- ------ ------ ---- ---- ------- ----- -- ----<br>-------- ------- -- ---------- --- a --- ----- ----- ----<br>---- --- --- ----- --- ---- ---- ------- ----- ---- -------<br>--- --- -- ----- -- --- ---- -- --- ---- -- ------ ------<br>--- ----- -- ----,169544.60000000836,169544.0099999978,169192.823,169201.0200000077,169206.077,169552.974,,23,a
screen,html.Screen,1_1_0_1_24,2021-04-18T19:38:42.207Z,,,,,,,,,,,,,,,,53,,,,,,,,,,,,,,295.0960000072955,,response,,,,99,,,,,,,Space,keypress(Space),,,,,,,,---- -- ----- -- ------ - ------- --- ----------<br>------------- ------ ------ ---- ---- ------- ----- -- ----<br>-------- ------- -- ---------- --- - new ----- ----- ----<br>---- --- --- ----- --- ---- ---- ------- ----- ---- -------<br>--- --- -- ----- -- --- ---- -- --- ---- -- ------ ------<br>--- ----- -- ----,169850.40000001027,169848.07000000728,169539.627,169544.68000000634,169552.974,169859.776,,24,new
screen,html.Screen,1_1_0_1_25,2021-04-18T19:38:42.542Z,,,,,,,,,,,,,,,,53,,,,,,,,,,,,,,324.2740000107442,,response,,,,99,,,,,,,Space,keypress(Space),,,,,,,,---- -- ----- -- ------ - ------- --- ----------<br>------------- ------ ------ ---- ---- ------- ----- -- ----<br>-------- ------- -- ---------- --- - --- study ----- ----<br>---- --- --- ----- --- ---- ---- ------- ----- ---- -------<br>--- --- -- ----- -- --- ---- -- --- ---- -- ------ ------<br>--- ----- -- ----,170184.84500001068,170184.05000001076,169846.403,169850.51000000385,169859.776,170193.23,,25,study
screen,html.Screen,1_1_0_1_26,2021-04-18T19:38:42.806Z,,,,,,,,,,,,,,,,53,,,,,,,,,,,,,,255.05500000584289,,response,,,,99,,,,,,,Space,keypress(Space),,,,,,,,---- -- ----- -- ------ - ------- --- ----------<br>------------- ------ ------ ---- ---- ------- ----- -- ----<br>-------- ------- -- ---------- --- - --- ----- finds ----<br>---- --- --- ----- --- ---- ---- ------- ----- ---- -------<br>--- --- -- ----- -- --- ---- -- --- ---- -- ------ ------<br>--- ----- -- ----,170449.09500000358,170448.28500000585,170179.861,170184.98000000545,170193.23,170459.998,,26,finds
screen,html.Screen,1_1_0_1_27,2021-04-18T19:38:43.101Z,,,,,,,,,,,,,,,,53,,,,,,,,,,,,,,284.1220000030298,,response,,,,99,,,,,,,Space,keypress(Space),,,,,,,,---- -- ----- -- ------ - ------- --- ----------<br>------------- ------ ------ ---- ---- ------- ----- -- ----<br>-------- ------- -- ---------- --- - --- ----- ----- that<br>---- --- --- ----- --- ---- ---- ------- ----- ---- -------<br>--- --- -- ----- -- --- ---- -- --- ---- -- ------ ------<br>--- ----- -- ----,170744.70999999903,170744.12000000302,170446.63,170449.23500000732,170459.998,170753.453,,27,that
screen,html.Screen,1_1_0_1_28,2021-04-18T19:38:43.381Z,,,,,,,,,,,,,,,,53,,,,,,,,,,,,,,270.43700001129764,,response,,,,99,,,,,,,Space,keypress(Space),,,,,,,,---- -- ----- -- ------ - ------- --- ----------<br>------------- ------ ------ ---- ---- ------- ----- -- ----<br>-------- ------- -- ---------- --- - --- ----- ----- ----<br>it's --- --- ----- --- ---- ---- ------- ----- ---- -------<br>--- --- -- ----- -- --- ---- -- --- ---- -- ------ ------<br>--- ----- -- ----,171024.43499999936,171023.8900000113,170740.074,170744.79500000598,170753.453,171033.525,,28,it's
screen,html.Screen,1_1_0_1_29,2021-04-18T19:38:43.734Z,,,,,,,,,,,,,,,,53,,,,,,,,,,,,,,342.7050000089512,,response,,,,99,,,,,,,Space,keypress(Space),,,,,,,,---- -- ----- -- ------ - ------- --- ----------<br>------------- ------ ------ ---- ---- ------- ----- -- ----<br>-------- ------- -- ---------- --- - --- ----- ----- ----<br>---- not --- ----- --- ---- ---- ------- ----- ---- -------<br>--- --- -- ----- -- --- ---- -- --- ---- -- ------ ------<br>--- ----- -- ----,171376.9900000043,171376.23000000895,171020.202,171024.5150000119,171033.525,171380.233,,29,not
screen,html.Screen,1_1_0_1_30,2021-04-18T19:38:44.030Z,,,,,,,,,,,,,,,,53,,,,,,,,,,,,,,291.7070000001695,,response,,,,99,,,,,,,Space,keypress(Space),,,,,,,,---- -- ----- -- ------ - ------- --- ----------<br>------------- ------ ------ ---- ---- ------- ----- -- ----<br>-------- ------- -- ---------- --- - --- ----- ----- ----<br>---- --- how ----- --- ---- ---- ------- ----- ---- -------<br>--- --- -- ----- -- --- ---- -- --- ---- -- ------ ------<br>--- ----- -- ----,171673.49000000104,171671.94000000018,171366.956,171377.12499999907,171380.233,171700.439,,30,how
screen,html.Screen,1_1_0_1_31,2021-04-18T19:38:44.341Z,,,,,,,,,,,,,,,,53,,,,,,,,,,,,,,283.4809999987483,,response,,,,99,,,,,,,Space,keypress(Space),,,,,,,,---- -- ----- -- ------ - ------- --- ----------<br>------------- ------ ------ ---- ---- ------- ----- -- ----<br>-------- ------- -- ---------- --- - --- ----- ----- ----<br>---- --- --- close --- ---- ---- ------- ----- ---- -------<br>--- --- -- ----- -- --- ---- -- --- ---- -- ------ ------<br>--- ----- -- ----,171984.47999999917,171983.91999999876,171687.089,171673.5950000002,171700.439,171993.881,,31,close
screen,html.Screen,1_1_0_1_32,2021-04-18T19:38:44.678Z,,,,,,,,,,,,,,,,53,,,,,,,,,,,,,,326.1789999981993,,response,,,,99,,,,,,,Space,keypress(Space),,,,,,,,---- -- ----- -- ------ - ------- --- ----------<br>------------- ------ ------ ---- ---- ------- ----- -- ----<br>-------- ------- -- ---------- --- - --- ----- ----- ----<br>---- --- --- ----- you ---- ---- ------- ----- ---- -------<br>--- --- -- ----- -- --- ---- -- --- ---- -- ------ ------<br>--- ----- -- ----,172320.9050000005,172320.0599999982,171980.522,171984.55500000273,171993.881,172327.352,,32,you
screen,html.Screen,1_1_0_1_33,2021-04-18T19:38:45.006Z,,,,,,,,,,,,,,,,53,,,,,,,,,,,,,,320.9380000118981,,response,,,,99,,,,,,,Space,keypress(Space),,,,,,,,---- -- ----- -- ------ - ------- --- ----------<br>------------- ------ ------ ---- ---- ------- ----- -- ----<br>-------- ------- -- ---------- --- - --- ----- ----- ----<br>---- --- --- ----- --- feel ---- ------- ----- ---- -------<br>--- --- -- ----- -- --- ---- -- --- ---- -- ------ ------<br>--- ----- -- ----,172649.2450000078,172648.2900000119,172314.038,172321.03000000643,172327.352,172660.83,,33,feel
screen,html.Screen,1_1_0_1_34,2021-04-18T19:38:45.278Z,,,,,,,,,,,,,,,,53,,,,,,,,,,,,,,259.2349999984435,,response,,,,99,,,,,,,Space,keypress(Space),,,,,,,,---- -- ----- -- ------ - ------- --- ----------<br>------------- ------ ------ ---- ---- ------- ----- -- ----<br>-------- ------- -- ---------- --- - --- ----- ----- ----<br>---- --- --- ----- --- ---- that ------- ----- ---- -------<br>--- --- -- ----- -- --- ---- -- --- ---- -- ------ ------<br>--- ----- -- ----,172920.83000000275,172920.06499999843,172647.448,172649.36999999918,172660.83,172927.46,,34,that
screen,html.Screen,1_1_0_1_35,2021-04-18T19:38:45.574Z,,,,,,,,,,,,,,,,53,,,,,,,,,,,,,,288.58500000831555,,response,,,,99,,,,,,,Space,keypress(Space),,,,,,,,---- -- ----- -- ------ - ------- --- ----------<br>------------- ------ ------ ---- ---- ------- ----- -- ----<br>-------- ------- -- ---------- --- - --- ----- ----- ----<br>---- --- --- ----- --- ---- ---- matters ----- ---- -------<br>--- --- -- ----- -- --- ---- -- --- ---- -- ------ ------<br>--- ----- -- ----,173216.82500001043,173216.0450000083,172914.217,172920.94999999972,172927.46,173221.019,,35,matters
screen,html.Screen,1_1_0_1_36,2021-04-18T19:38:45.894Z,,,,,,,,,,,,,,,,53,,,,,,,,,,,,,,315.00600000852137,,response,,,,99,,,,,,,Space,keypress(Space),,,,,,,,"---- -- ----- -- ------ - ------- --- ----------<br>------------- ------ ------ ---- ---- ------- ----- -- ----<br>-------- ------- -- ---------- --- - --- ----- ----- ----<br>---- --- --- ----- --- ---- ---- ------- most, ---- -------<br>--- --- -- ----- -- --- ---- -- --- ---- -- ------ ------<br>--- ----- -- ----",173536.82000000845,173536.02500000852,173207.708,173216.9600000052,173221.019,173541.039,,36,"most,"
screen,html.Screen,1_1_0_1_37,2021-04-18T19:38:46.149Z,,,,,,,,,,,,,,,,53,,,,,,,,,,,,,,251.05600001162384,,response,,,,99,,,,,,,Space,keypress(Space),,,,,,,,---- -- ----- -- ------ - ------- --- ----------<br>------------- ------ ------ ---- ---- ------- ----- -- ----<br>-------- ------- -- ---------- --- - --- ----- ----- ----<br>---- --- --- ----- --- ---- ---- ------- ----- it's -------<br>--- --- -- ----- -- --- ---- -- --- ---- -- ------ ------<br>--- ----- -- ----,173792.74499999883,173792.0950000116,173527.774,173536.94499999983,173541.039,173794.614,,37,it's
screen,html.Screen,1_1_0_1_38,2021-04-18T19:38:46.485Z,,,,,,,,,,,,,,,,53,,,,,,,,,,,,,,333.3510000069509,,response,,,,99,,,,,,,Space,keypress(Space),,,,,,,,---- -- ----- -- ------ - ------- --- ----------<br>------------- ------ ------ ---- ---- ------- ----- -- ----<br>-------- ------- -- ---------- --- - --- ----- ----- ----<br>---- --- --- ----- --- ---- ---- ------- ----- ---- whether<br>--- --- -- ----- -- --- ---- -- --- ---- -- ------ ------<br>--- ----- -- ----,174128.80000000587,174127.96500000695,173781.201,173792.84000000916,173794.614,174141.356,,38,whether
screen,html.Screen,1_1_0_1_39,2021-04-18T19:38:46.814Z,,,,,,,,,,,,,,,,53,,,,,,,,,,,,,,314.7840000093274,,response,,,,99,,,,,,,Space,keypress(Space),,,,,,,,---- -- ----- -- ------ - ------- --- ----------<br>------------- ------ ------ ---- ---- ------- ----- -- ----<br>-------- ------- -- ---------- --- - --- ----- ----- ----<br>---- --- --- ----- --- ---- ---- ------- ----- ---- -------<br>you --- -- ----- -- --- ---- -- --- ---- -- ------ ------<br>--- ----- -- ----,174456.90000000468,174456.14000000933,174127.991,174128.9800000086,174141.356,174461.376,,39,you
screen,html.Screen,1_1_0_1_40,2021-04-18T19:38:47.157Z,,,,,,,,,,,,,,,,53,,,,,,,,,,,,,,338.50900000036927,,response,,,,99,,,,,,,Space,keypress(Space),,,,,,,,---- -- ----- -- ------ - ------- --- ----------<br>------------- ------ ------ ---- ---- ------- ----- -- ----<br>-------- ------- -- ---------- --- - --- ----- ----- ----<br>---- --- --- ----- --- ---- ---- ------- ----- ---- -------<br>--- are -- ----- -- --- ---- -- --- ---- -- ------ ------<br>--- ----- -- ----,174800.43500001193,174799.88500000036,174448.112,174457.02500001062,174461.376,174808.271,,40,are
screen,html.Screen,1_1_0_1_41,2021-04-18T19:38:47.494Z,,,,,,,,,,,,,,,,53,,,,,,,,,,,,,,327.8040000021574,,response,,,,99,,,,,,,Space,keypress(Space),,,,,,,,---- -- ----- -- ------ - ------- --- ----------<br>------------- ------ ------ ---- ---- ------- ----- -- ----<br>-------- ------- -- ---------- --- - --- ----- ----- ----<br>---- --- --- ----- --- ---- ---- ------- ----- ---- -------<br>--- --- as ----- -- --- ---- -- --- ---- -- ------ ------<br>--- ----- -- ----,175136.85000000987,175136.07500000217,174794.911,174800.52000000433,174808.271,175141.613,,41,as
screen,html.Screen,1_1_0_1_42,2021-04-18T19:38:47.790Z,,,,,,,,,,,,,,,,53,,,,,,,,,,,,,,290.41700001084246,,response,,,,99,,,,,,,Space,keypress(Space),,,,,,,,---- -- ----- -- ------ - ------- --- ----------<br>------------- ------ ------ ---- ---- ------- ----- -- ----<br>-------- ------- -- ---------- --- - --- ----- ----- ----<br>---- --- --- ----- --- ---- ---- ------- ----- ---- -------<br>--- --- -- close -- --- ---- -- --- ---- -- ------ ------<br>--- ----- -- ----,175433.01000000793,175432.03000001085,175128.365,175136.97500000126,175141.613,175435.198,,42,close
screen,html.Screen,1_1_0_1_43,2021-04-18T19:38:48.086Z,,,,,,,,,,,,,,,,53,,,,,,,,,,,,,,292.8420000017795,,response,,,,99,,,,,,,Space,keypress(Space),,,,,,,,---- -- ----- -- ------ - ------- --- ----------<br>------------- ------ ------ ---- ---- ------- ----- -- ----<br>-------- ------- -- ---------- --- - --- ----- ----- ----<br>---- --- --- ----- --- ---- ---- ------- ----- ---- -------<br>--- --- -- ----- as --- ---- -- --- ---- -- ------ ------<br>--- ----- -- ----,175728.8899999985,175728.04000000178,175421.799,175433.1300000049,175435.198,175741.958,,43,as
screen,html.Screen,1_1_0_1_44,2021-04-18T19:38:48.389Z,,,,,,,,,,,,,,,,53,,,,,,,,,,,,,,290.0619999987248,,response,,,,99,,,,,,,Space,keypress(Space),,,,,,,,---- -- ----- -- ------ - ------- --- ----------<br>------------- ------ ------ ---- ---- ------- ----- -- ----<br>-------- ------- -- ---------- --- - --- ----- ----- ----<br>---- --- --- ----- --- ---- ---- ------- ----- ---- -------<br>--- --- -- ----- -- you ---- -- --- ---- -- ------ ------<br>--- ----- -- ----,176032.60500000033,176032.01999999874,175728.65,175729.08000000461,175741.958,176035.301,,44,you
screen,html.Screen,1_1_0_1_45,2021-04-18T19:38:48.654Z,,,,,,,,,,,,,,,,53,,,,,,,,,,,,,,260.97900000956724,,response,,,,99,,,,,,,Space,keypress(Space),,,,,,,,---- -- ----- -- ------ - ------- --- ----------<br>------------- ------ ------ ---- ---- ------- ----- -- ----<br>-------- ------- -- ---------- --- - --- ----- ----- ----<br>---- --- --- ----- --- ---- ---- ------- ----- ---- -------<br>--- --- -- ----- -- --- want -- --- ---- -- ------ ------<br>--- ----- -- ----,176297.01000000932,176296.28000000957,176022.042,176032.67500000948,176035.301,176302.043,,45,want
screen,html.Screen,1_1_0_1_46,2021-04-18T19:38:48.990Z,,,,,,,,,,,,,,,,53,,,,,,,,,,,,,,330.0270000069286,,response,,,,99,,,,,,,Space,keypress(Space),,,,,,,,---- -- ----- -- ------ - ------- --- ----------<br>------------- ------ ------ ---- ---- ------- ----- -- ----<br>-------- ------- -- ---------- --- - --- ----- ----- ----<br>---- --- --- ----- --- ---- ---- ------- ----- ---- -------<br>--- --- -- ----- -- --- ---- to --- ---- -- ------ ------<br>--- ----- -- ----,176632.83500001126,176632.07000000693,176288.806,176297.1300000063,176302.043,176635.627,,46,to
screen,html.Screen,1_1_0_1_47,2021-04-18T19:38:49.374Z,,,,,,,,,,,,,,,,53,,,,,,,,,,,,,,380.453000001231,,response,,,,99,,,,,,,Space,keypress(Space),,,,,,,,"---- -- ----- -- ------ - ------- --- ----------<br>------------- ------ ------ ---- ---- ------- ----- -- ----<br>-------- ------- -- ---------- --- - --- ----- ----- ----<br>---- --- --- ----- --- ---- ---- ------- ----- ---- -------<br>--- --- -- ----- -- --- ---- -- be, ---- -- ------ ------<br>--- ----- -- ----",177016.86499999778,177016.08000000124,176622.26,176632.95500000822,176635.627,177022.315,,47,"be,"
screen,html.Screen,1_1_0_1_48,2021-04-18T19:38:49.702Z,,,,,,,,,,,,,,,,53,,,,,,,,,,,,,,321.74999999749707,,response,,,,99,,,,,,,Space,keypress(Space),,,,,,,,---- -- ----- -- ------ - ------- --- ----------<br>------------- ------ ------ ---- ---- ------- ----- -- ----<br>-------- ------- -- ---------- --- - --- ----- ----- ----<br>---- --- --- ----- --- ---- ---- ------- ----- ---- -------<br>--- --- -- ----- -- --- ---- -- --- even -- ------ ------<br>--- ----- -- ----,177344.855000003,177344.0649999975,177009.074,177016.98000000033,177022.315,177355.94,,48,even
screen,html.Screen,1_1_0_1_49,2021-04-18T19:38:49.989Z,,,,,,,,,,,,,,,,53,,,,,,,,,,,,,,276.0800000045565,,response,,,,99,,,,,,,Space,keypress(Space),,,,,,,,---- -- ----- -- ------ - ------- --- ----------<br>------------- ------ ------ ---- ---- ------- ----- -- ----<br>-------- ------- -- ---------- --- - --- ----- ----- ----<br>---- --- --- ----- --- ---- ---- ------- ----- ---- -------<br>--- --- -- ----- -- --- ---- -- --- ---- if ------ ------<br>--- ----- -- ----,177632.75499999872,177632.02000000456,177342.527,177344.97000000556,177355.94,177635.983,,49,if
screen,html.Screen,1_1_0_1_50,2021-04-18T19:38:50.309Z,,,,,,,,,,,,,,,,53,,,,,,,,,,,,,,315.95699999900535,,response,,,,99,,,,,,,Space,keypress(Space),,,,,,,,---- -- ----- -- ------ - ------- --- ----------<br>------------- ------ ------ ---- ---- ------- ----- -- ----<br>-------- ------- -- ---------- --- - --- ----- ----- ----<br>---- --- --- ----- --- ---- ---- ------- ----- ---- -------<br>--- --- -- ----- -- --- ---- -- --- ---- -- that's ------<br>--- ----- -- ----,177952.57000000856,177951.939999999,177622.626,177632.87500001024,177635.983,177955.993,,50,that's
screen,html.Screen,1_1_0_1_51,2021-04-18T19:38:50.742Z,,,,,,,,,,,,,,,,53,,,,,,,,,,,,,,428.0870000034629,,response,,,,99,,,,,,,Space,keypress(Space),,,,,,,,---- -- ----- -- ------ - ------- --- ----------<br>------------- ------ ------ ---- ---- ------- ----- -- ----<br>-------- ------- -- ---------- --- - --- ----- ----- ----<br>---- --- --- ----- --- ---- ---- ------- ----- ---- -------<br>--- --- -- ----- -- --- ---- -- --- ---- -- ------ really<br>--- ----- -- ----,178384.89500001015,178384.08000000345,177942.765,177952.66500000434,177955.993,178396.261,,51,really
screen,html.Screen,1_1_0_1_52,2021-04-18T19:38:51.046Z,,,,,,,,,,,,,,,,53,,,,,,,,,,,,,,291.7890000115731,,response,,,,99,,,,,,,Space,keypress(Space),,,,,,,,---- -- ----- -- ------ - ------- --- ----------<br>------------- ------ ------ ---- ---- ------- ----- -- ----<br>-------- ------- -- ---------- --- - --- ----- ----- ----<br>---- --- --- ----- --- ---- ---- ------- ----- ---- -------<br>--- --- -- ----- -- --- ---- -- --- ---- -- ------ ------<br>not ----- -- ----,178688.8500000059,178688.05000001157,178382.896,178385.00999999815,178396.261,178704.269,,52,not
screen,html.Screen,1_1_0_1_53,2021-04-18T19:38:51.341Z,,,,,,,,,,,,,,,,53,,,,,,,,,,,,,,279.796000011469,,response,,,,99,,,,,,,Space,keypress(Space),,,,,,,,---- -- ----- -- ------ - ------- --- ----------<br>------------- ------ ------ ---- ---- ------- ----- -- ----<br>-------- ------- -- ---------- --- - --- ----- ----- ----<br>---- --- --- ----- --- ---- ---- ------- ----- ---- -------<br>--- --- -- ----- -- --- ---- -- --- ---- -- ------ ------<br>--- close -- ----,178984.73000001104,178984.06500001147,178676.348,178688.96500000847,178704.269,178996.521,,53,close
screen,html.Screen,1_1_0_1_54,2021-04-18T19:38:51.646Z,,,,,,,,,,,,,,,,53,,,,,,,,,,,,,,291.5290000028326,,response,,,,99,,,,,,,Space,keypress(Space),,,,,,,,---- -- ----- -- ------ - ------- --- ----------<br>------------- ------ ------ ---- ---- ------- ----- -- ----<br>-------- ------- -- ---------- --- - --- ----- ----- ----<br>---- --- --- ----- --- ---- ---- ------- ----- ---- -------<br>--- --- -- ----- -- --- ---- -- --- ---- -- ------ ------<br>--- ----- at ----,179288.84000000835,179288.05000000284,178983.132,178984.80500000005,178996.521,179311.113,,54,at
screen,html.Screen,1_1_0_1_55,2021-04-18T19:38:52.046Z,,,,,,,,,,,,,,,,53,,,,,,,,,,,,,,376.9219999992056,,response,,,,99,,,,,,,Space,keypress(Space),,,,,,,,---- -- ----- -- ------ - ------- --- ----------<br>------------- ------ ------ ---- ---- ------- ----- -- ----<br>-------- ------- -- ---------- --- - --- ----- ----- ----<br>---- --- --- ----- --- ---- ---- ------- ----- ---- -------<br>--- --- -- ----- -- --- ---- -- --- ---- -- ------ ------<br>--- ----- -- all.,179688.82500000473,179688.03499999922,179276.618,179288.96000000532,179311.113,179714.375,,55,all.
Item 99,flow.Loop,1_1_0_1,2021-04-18T19:38:52.046Z,,,,,,,,,,,,,,,,,,,,,,,,,,,,,,19458.519999999204,,completion,,,,,E,,,,,,,,,,,silence,,,,,179689.05500000983,179688.03499999922,160216.224,160216.9200000062,160229.515,179714.375,,,
Question 1,html.Screen,1_1_0_2,2021-04-18T19:38:57.517Z,,,,,,,,,,,,,,,,,,,,,,,,,,,true,FALSE,,5445.440000006347,,response,,,,99,E,,,,,,FALSE,click #choice-2,,,,silence,,,,,185160.49999999814,185159.81500000635,179676.729,179689.16999999783,179714.375,185172.113,,,
Question 2,html.Screen,1_1_0_3,2021-04-18T19:39:03.925Z,,,,,,,,,,,,,,,,,,,,,,,,,,,true,TRUE,,6395.716999999946,,response,,,,99,E,,,,,,TRUE,click #choice-1,,,,silence,,,,,191568.4850000107,191567.82999999996,185158.765,185160.58000001067,185172.113,191574.389,,,
Item 99,flow.Sequence,1_1_0,2021-04-18T19:39:03.925Z,,,,,,,,,,,,,,,,,,,,,,,,,,,,,,41342.05099999995,,completion,,,,,,,,,,,,,,,,,,,,,191568.60500000766,191567.82999999996,150212.454,150225.8950000105,150225.779,191574.389,,,
Holding screen,html.Screen,1_1_1_0,2021-04-18T19:39:13.922Z,,,,,,,,,,,,,,,,,,,,,,,,,,,,,,10003.713000000018,,timeout,,,,,,,,,,,,,,,,,,,,,201565.34000000102,201564.868,191561.139,191568.67500000226,191574.389,201578.102,,,
screen,html.Screen,1_1_1_1_0,2021-04-18T19:39:14.734Z,,,,,,,,,,,,,,,,54,,,,,,,,,,,,,,798.2330000080983,,response,,,,100,,,,,,,Space,keypress(Space),,,,,,,,At --- ---- --- ------ ----- ------- ---- -- --- ------- --<br>------- ---------- ------ -- ----- -- ----- -- ---- ------<br>--- ----- --- --- ------ -------- ----- --- ------ ----- --<br>----- ----- ---------- --- --- ------ ------ ---- -- ------<br>------- --- ------ ----- --- ---- ------- -- ---- --- --<br>------- ------,202377.14500000584,202376.3350000081,201564.868,201565.50500000594,201578.102,202378.514,,0,At
screen,html.Screen,1_1_1_1_1,2021-04-18T19:39:15.030Z,,,,,,,,,,,,,,,,54,,,,,,,,,,,,,,293.59100000510807,,response,,,,100,,,,,,,Space,keypress(Space),,,,,,,,-- the ---- --- ------ ----- ------- ---- -- --- ------- --<br>------- ---------- ------ -- ----- -- ----- -- ---- ------<br>--- ----- --- --- ------ -------- ----- --- ------ ----- --<br>----- ----- ---------- --- --- ------ ------ ---- -- ------<br>------- --- ------ ----- --- ---- ------- -- ---- --- --<br>------- ------,202672.95500000182,202672.1050000051,202365.135,202377.2650000028,202378.514,202685.305,,1,the
screen,html.Screen,1_1_1_1_2,2021-04-18T19:39:15.310Z,,,,,,,,,,,,,,,,54,,,,,,,,,,,,,,266.7800000117277,,response,,,,100,,,,,,,Space,keypress(Space),,,,,,,,-- --- time --- ------ ----- ------- ---- -- --- ------- --<br>------- ---------- ------ -- ----- -- ----- -- ---- ------<br>--- ----- --- --- ------ -------- ----- --- ------ ----- --<br>----- ----- ---------- --- --- ------ ------ ---- -- ------<br>------- --- ------ ----- --- ---- ------- -- ---- --- --<br>------- ------,202952.92000001064,202952.08500001172,202671.933,202673.08000000776,202685.305,202965.406,,2,time
screen,html.Screen,1_1_1_1_3,2021-04-18T19:39:15.581Z,,,,,,,,,,,,,,,,54,,,,,,,,,,,,,,258.6040000053763,,response,,,,100,,,,,,,Space,keypress(Space),,,,,,,,-- --- ---- the ------ ----- ------- ---- -- --- ------- --<br>------- ---------- ------ -- ----- -- ----- -- ---- ------<br>--- ----- --- --- ------ -------- ----- --- ------ ----- --<br>----- ----- ---------- --- --- ------ ------ ---- -- ------<br>------- --- ------ ----- --- ---- ------- -- ---- --- --<br>------- ------,203224.65000000375,203224.01000000536,202952.042,202953.04500000202,202965.406,203232.166,,3,the
screen,html.Screen,1_1_1_1_4,2021-04-18T19:39:15.830Z,,,,,,,,,,,,,,,,54,,,,,,,,,,,,,,239.90899999786052,,response,,,,100,,,,,,,Space,keypress(Space),,,,,,,,-- --- ---- --- French ----- ------- ---- -- --- ------- --<br>------- ---------- ------ -- ----- -- ----- -- ---- ------<br>--- ----- --- --- ------ -------- ----- --- ------ ----- --<br>----- ----- ---------- --- --- ------ ------ ---- -- ------<br>------- --- ------ ----- --- ---- ------- -- ---- --- --<br>------- ------,203473.0350000027,203472.07499999786,203218.849,203224.7400000051,203232.166,203485.598,,4,French
screen,html.Screen,1_1_1_1_5,2021-04-18T19:39:16.158Z,,,,,,,,,,,,,,,,54,,,,,,,,,,,,,,314.4870000098599,,response,,,,100,,,,,,,Space,keypress(Space),,,,,,,,-- --- ---- --- ------ crown ------- ---- -- --- ------- --<br>------- ---------- ------ -- ----- -- ----- -- ---- ------<br>--- ----- --- --- ------ -------- ----- --- ------ ----- --<br>----- ----- ---------- --- --- ------ ------ ---- -- ------<br>------- --- ------ ----- --- ---- ------- -- ---- --- --<br>------- ------,203800.87500000081,203800.08500000986,203472.247,203473.15499999968,203485.598,203805.637,,5,crown
screen,html.Screen,1_1_1_1_6,2021-04-18T19:39:16.693Z,,,,,,,,,,,,,,,,54,,,,,,,,,,,,,,530.4480000026524,,response,,,,100,,,,,,,Space,keypress(Space),,,,,,,,-- --- ---- --- ------ ----- secured ---- -- --- ------- --<br>------- ---------- ------ -- ----- -- ----- -- ---- ------<br>--- ----- --- --- ------ -------- ----- --- ------ ----- --<br>----- ----- ---------- --- --- ------ ------ ---- -- ------<br>------- --- ------ ----- --- ---- ------- -- ---- --- --<br>------- ------,204336.85000000696,204336.08500000264,203792.35,203800.99000000337,203805.637,204339.247,,6,secured
screen,html.Screen,1_1_1_1_7,2021-04-18T19:39:17.022Z,,,,,,,,,,,,,,,,54,,,,,,,,,,,,,,324.8730000012729,,response,,,,100,,,,,,,Space,keypress(Space),,,,,,,,-- --- ---- --- ------ ----- ------- much -- --- ------- --<br>------- ---------- ------ -- ----- -- ----- -- ---- ------<br>--- ----- --- --- ------ -------- ----- --- ------ ----- --<br>----- ----- ---------- --- --- ------ ------ ---- -- ------<br>------- --- ------ ----- --- ---- ------- -- ---- --- --<br>------- ------,204664.91000000678,204664.12000000128,204325.871,204336.97000000393,204339.247,204672.712,,7,much
screen,html.Screen,1_1_1_1_8,2021-04-18T19:39:17.270Z,,,,,,,,,,,,,,,,54,,,,,,,,,,,,,,239.38800000137417,,response,,,,100,,,,,,,Space,keypress(Space),,,,,,,,-- --- ---- --- ------ ----- ------- ---- of --- ------- --<br>------- ---------- ------ -- ----- -- ----- -- ---- ------<br>--- ----- --- --- ------ -------- ----- --- ------ ----- --<br>----- ----- ---------- --- --- ------ ------ ---- -- ------<br>------- --- ------ ----- --- ---- ------- -- ---- --- --<br>------- ------,204912.8849999979,204912.10000000137,204659.34,204665.03499999817,204672.712,204926.136,,8,of
screen,html.Screen,1_1_1_1_9,2021-04-18T19:39:17.510Z,,,,,,,,,,,,,,,,54,,,,,,,,,,,,,,225.9690000010305,,response,,,,100,,,,,,,Space,keypress(Space),,,,,,,,-- --- ---- --- ------ ----- ------- ---- -- its ------- --<br>------- ---------- ------ -- ----- -- ----- -- ---- ------<br>--- ----- --- --- ------ -------- ----- --- ------ ----- --<br>----- ----- ---------- --- --- ------ ------ ---- -- ------<br>------- --- ------ ----- --- ---- ------- -- ---- --- --<br>------- ------,205152.88999999757,205152.10500000103,204912.769,204913.00500000943,204926.136,205166.235,,9,its
screen,html.Screen,1_1_1_1_10,2021-04-18T19:39:17.854Z,,,,,,,,,,,,,,,,54,,,,,,,,,,,,,,329.85000000614673,,response,,,,100,,,,,,,Space,keypress(Space),,,,,,,,-- --- ---- --- ------ ----- ------- ---- -- --- revenue --<br>------- ---------- ------ -- ----- -- ----- -- ---- ------<br>--- ----- --- --- ------ -------- ----- --- ------ ----- --<br>----- ----- ---------- --- --- ------ ------ ---- -- ------<br>------- --- ------ ----- --- ---- ------- -- ---- --- --<br>------- ------,205496.86500000826,205496.08500000613,205152.857,205153.0250000069,205166.235,205499.679,,10,revenue
screen,html.Screen,1_1_1_1_11,2021-04-18T19:39:18.230Z,,,,,,,,,,,,,,,,54,,,,,,,,,,,,,,372.4159999988042,,response,,,,100,,,,,,,Space,keypress(Space),,,,,,,,-- --- ---- --- ------ ----- ------- ---- -- --- ------- by<br>------- ---------- ------ -- ----- -- ----- -- ---- ------<br>--- ----- --- --- ------ -------- ----- --- ------ ----- --<br>----- ----- ---------- --- --- ------ ------ ---- -- ------<br>------- --- ------ ----- --- ---- ------- -- ---- --- --<br>------- ------,205872.86499999755,205872.0949999988,205486.315,205496.9800000108,205499.679,205886.491,,11,by
screen,html.Screen,1_1_1_1_12,2021-04-18T19:39:18.685Z,,,,,,,,,,,,,,,,54,,,,,,,,,,,,,,441.6089999988035,,response,,,,100,,,,,,,Space,keypress(Space),,,,,,,,-- --- ---- --- ------ ----- ------- ---- -- --- ------- --<br>issuing ---------- ------ -- ----- -- ----- -- ---- ------<br>--- ----- --- --- ------ -------- ----- --- ------ ----- --<br>----- ----- ---------- --- --- ------ ------ ---- -- ------<br>------- --- ------ ----- --- ---- ------- -- ---- --- --<br>------- ------,206328.84000000195,206328.0999999988,205873.126,205873.265000002,205886.491,206339.998,,12,issuing
screen,html.Screen,1_1_1_1_13,2021-04-18T19:39:19.189Z,,,,,,,,,,,,,,,,54,,,,,,,,,,,,,,491.9970000004687,,response,,,,100,,,,,,,Space,keypress(Space),,,,,,,,-- --- ---- --- ------ ----- ------- ---- -- --- ------- --<br>------- government ------ -- ----- -- ----- -- ---- ------<br>--- ----- --- --- ------ -------- ----- --- ------ ----- --<br>----- ----- ---------- --- --- ------ ------ ---- -- ------<br>------- --- ------ ----- --- ---- ------- -- ---- --- --<br>------- ------,206832.75500001037,206831.99500000046,206326.628,206328.95999999892,206339.998,206860.582,,13,government
screen,html.Screen,1_1_1_1_14,2021-04-18T19:39:19.526Z,,,,,,,,,,,,,,,,54,,,,,,,,,,,,,,307.5679999977001,,response,,,,100,,,,,,,Space,keypress(Space),,,,,,,,-- --- ---- --- ------ ----- ------- ---- -- --- ------- --<br>------- ---------- bonds. -- ----- -- ----- -- ---- ------<br>--- ----- --- --- ------ -------- ----- --- ------ ----- --<br>----- ----- ---------- --- --- ------ ------ ---- -- ------<br>------- --- ------ ----- --- ---- ------- -- ---- --- --<br>------- ------,207168.9350000088,207168.1499999977,206820.163,206832.86999999837,206860.582,207180.313,,14,bonds.
screen,html.Screen,1_1_1_1_15,2021-04-18T19:39:20.230Z,,,,,,,,,,,,,,,,54,,,,,,,,,,,,,,691.8070000000007,,response,,,,100,,,,,,,Space,keypress(Space),,,,,,,,-- --- ---- --- ------ ----- ------- ---- -- --- ------- --<br>------- ---------- ------ In ----- -- ----- -- ---- ------<br>--- ----- --- --- ------ -------- ----- --- ------ ----- --<br>----- ----- ---------- --- --- ------ ------ ---- -- ------<br>------- --- ------ ----- --- ---- ------- -- ---- --- --<br>------- ------,207872.9050000111,207872.12,207166.932,207169.06500000914,207180.313,207890.574,,15,In
screen,html.Screen,1_1_1_1_16,2021-04-18T19:39:20.558Z,,,,,,,,,,,,,,,,54,,,,,,,,,,,,,,309.576000004221,,response,,,,100,,,,,,,Space,keypress(Space),,,,,,,,"-- --- ---- --- ------ ----- ------- ---- -- --- ------- --<br>------- ---------- ------ -- 1727, -- ----- -- ---- ------<br>--- ----- --- --- ------ -------- ----- --- ------ ----- --<br>----- ----- ---------- --- --- ------ ------ ---- -- ------<br>------- --- ------ ----- --- ---- ------- -- ---- --- --<br>------- ------",208200.93500000075,208200.1500000042,207860.488,207873.03000000247,207890.574,208207.231,,16,"1727,"
screen,html.Screen,1_1_1_1_17,2021-04-18T19:39:22.798Z,,,,,,,,,,,,,,,,54,,,,,,,,,,,,,,2232.9289999982866,,response,,,,100,,,,,,,Space,keypress(Space),,,,,,,,-- --- ---- --- ------ ----- ------- ---- -- --- ------- --<br>------- ---------- ------ -- ----- in ----- -- ---- ------<br>--- ----- --- --- ------ -------- ----- --- ------ ----- --<br>----- ----- ---------- --- --- ------ ------ ---- -- ------<br>------- --- ------ ----- --- ---- ------- -- ---- --- --<br>------- ------,210440.97000001057,210440.1599999983,208193.984,208201.0650000011,208207.231,210448.176,,17,in
screen,html.Screen,1_1_1_1_18,2021-04-18T19:39:23.078Z,,,,,,,,,,,,,,,,54,,,,,,,,,,,,,,272.09400000525056,,response,,,,100,,,,,,,Space,keypress(Space),,,,,,,,-- --- ---- --- ------ ----- ------- ---- -- --- ------- --<br>------- ---------- ------ -- ----- -- order -- ---- ------<br>--- ----- --- --- ------ -------- ----- --- ------ ----- --<br>----- ----- ---------- --- --- ------ ------ ---- -- ------<br>------- --- ------ ----- --- ---- ------- -- ---- --- --<br>------- ------,210721.10500000417,210720.27000000526,210434.776,210441.05000000854,210448.176,210728.197,,18,order
screen,html.Screen,1_1_1_1_19,2021-04-18T19:39:23.374Z,,,,,,,,,,,,,,,,54,,,,,,,,,,,,,,287.91300001140917,,response,,,,100,,,,,,,Space,keypress(Space),,,,,,,,-- --- ---- --- ------ ----- ------- ---- -- --- ------- --<br>------- ---------- ------ -- ----- -- ----- to ---- ------<br>--- ----- --- --- ------ -------- ----- --- ------ ----- --<br>----- ----- ---------- --- --- ------ ------ ---- -- ------<br>------- --- ------ ----- --- ---- ------- -- ---- --- --<br>------- ------,211016.88500000455,211016.1100000114,210714.925,210721.2600000057,210728.197,211021.684,,19,to
screen,html.Screen,1_1_1_1_20,2021-04-18T19:39:23.646Z,,,,,,,,,,,,,,,,54,,,,,,,,,,,,,,266.40100000740495,,response,,,,100,,,,,,,Space,keypress(Space),,,,,,,,-- --- ---- --- ------ ----- ------- ---- -- --- ------- --<br>------- ---------- ------ -- ----- -- ----- -- save ------<br>--- ----- --- --- ------ -------- ----- --- ------ ----- --<br>----- ----- ---------- --- --- ------ ------ ---- -- ------<br>------- --- ------ ----- --- ---- ------- -- ---- --- --<br>------- ------,211288.89000001072,211288.0850000074,211008.359,211017.00500000152,211021.684,211301.836,,20,save
screen,html.Screen,1_1_1_1_21,2021-04-18T19:39:24.094Z,,,,,,,,,,,,,,,,54,,,,,,,,,,,,,,434.37400000274647,,response,,,,100,,,,,,,Space,keypress(Space),,,,,,,,"-- --- ---- --- ------ ----- ------- ---- -- --- ------- --<br>------- ---------- ------ -- ----- -- ----- -- ---- money,<br>--- ----- --- --- ------ -------- ----- --- ------ ----- --<br>----- ----- ---------- --- --- ------ ------ ---- -- ------<br>------- --- ------ ----- --- ---- ------- -- ---- --- --<br>------- ------",211736.9800000015,211736.21000000276,211288.462,211289.0150000021,211301.836,211741.868,,21,"money,"
screen,html.Screen,1_1_1_1_22,2021-04-18T19:39:24.373Z,,,,,,,,,,,,,,,,54,,,,,,,,,,,,,,274.0969999986992,,response,,,,100,,,,,,,Space,keypress(Space),,,,,,,,-- --- ---- --- ------ ----- ------- ---- -- --- ------- --<br>------- ---------- ------ -- ----- -- ----- -- ---- ------<br>the ----- --- --- ------ -------- ----- --- ------ ----- --<br>----- ----- ---------- --- --- ------ ------ ---- -- ------<br>------- --- ------ ----- --- ---- ------- -- ---- --- --<br>------- ------,212016.5100000013,212015.9649999987,211728.632,211737.08500000066,211741.868,212021.967,,22,the
screen,html.Screen,1_1_1_1_23,2021-04-18T19:39:24.709Z,,,,,,,,,,,,,,,,54,,,,,,,,,,,,,,330.0729999979376,,response,,,,100,,,,,,,Space,keypress(Space),,,,,,,,-- --- ---- --- ------ ----- ------- ---- -- --- ------- --<br>------- ---------- ------ -- ----- -- ----- -- ---- ------<br>--- state --- --- ------ -------- ----- --- ------ ----- --<br>----- ----- ---------- --- --- ------ ------ ---- -- ------<br>------- --- ------ ----- --- ---- ------- -- ---- --- --<br>------- ------,212352.76000000886,212352.03999999794,212008.779,212016.58000001044,212021.967,212355.559,,23,state
screen,html.Screen,1_1_1_1_24,2021-04-18T19:39:25.022Z,,,,,,,,,,,,,,,,54,,,,,,,,,,,,,,308.8310000053607,,response,,,,100,,,,,,,Space,keypress(Space),,,,,,,,-- --- ---- --- ------ ----- ------- ---- -- --- ------- --<br>------- ---------- ------ -- ----- -- ----- -- ---- ------<br>--- ----- cut --- ------ -------- ----- --- ------ ----- --<br>----- ----- ---------- --- --- ------ ------ ---- -- ------<br>------- --- ------ ----- --- ---- ------- -- ---- --- --<br>------- ------,212665.22500000428,212664.39000000537,212342.209,212352.88000000583,212355.559,212675.677,,24,cut
screen,html.Screen,1_1_1_1_25,2021-04-18T19:39:25.318Z,,,,,,,,,,,,,,,,54,,,,,,,,,,,,,,284.46300001014606,,response,,,,100,,,,,,,Space,keypress(Space),,,,,,,,-- --- ---- --- ------ ----- ------- ---- -- --- ------- --<br>------- ---------- ------ -- ----- -- ----- -- ---- ------<br>--- ----- --- the ------ -------- ----- --- ------ ----- --<br>----- ----- ---------- --- --- ------ ------ ---- -- ------<br>------- --- ------ ----- --- ---- ------- -- ---- --- --<br>------- ------,212960.91000000888,212960.14000001014,212662.334,212665.34500000125,212675.677,212969.06,,25,the
screen,html.Screen,1_1_1_1_26,2021-04-18T19:39:25.701Z,,,,,,,,,,,,,,,,54,,,,,,,,,,,,,,374.9450000062934,,response,,,,100,,,,,,,Space,keypress(Space),,,,,,,,-- --- ---- --- ------ ----- ------- ---- -- --- ------- --<br>------- ---------- ------ -- ----- -- ----- -- ---- ------<br>--- ----- --- --- bonds' -------- ----- --- ------ ----- --<br>----- ----- ---------- --- --- ------ ------ ---- -- ------<br>------- --- ------ ----- --- ---- ------- -- ---- --- --<br>------- ------,213344.5550000033,213344.0050000063,212955.756,212961.03000000585,212969.06,213355.919,,26,bonds'
screen,html.Screen,1_1_1_1_27,2021-04-18T19:39:26.045Z,,,,,,,,,,,,,,,,54,,,,,,,,,,,,,,332.0860000036191,,response,,,,100,,,,,,,Space,keypress(Space),,,,,,,,-- --- ---- --- ------ ----- ------- ---- -- --- ------- --<br>------- ---------- ------ -- ----- -- ----- -- ---- ------<br>--- ----- --- --- ------ interest ----- --- ------ ----- --<br>----- ----- ---------- --- --- ------ ------ ---- -- ------<br>------- --- ------ ----- --- ---- ------- -- ---- --- --<br>------- ------,213688.5750000074,213688.0050000036,213342.551,213344.6350000013,213355.919,213711.285,,27,interest
screen,html.Screen,1_1_1_1_28,2021-04-18T19:39:26.454Z,,,,,,,,,,,,,,,,54,,,,,,,,,,,,,,385.0350000114704,,response,,,,100,,,,,,,Space,keypress(Space),,,,,,,,-- --- ---- --- ------ ----- ------- ---- -- --- ------- --<br>------- ---------- ------ -- ----- -- ----- -- ---- ------<br>--- ----- --- --- ------ -------- rate. --- ------ ----- --<br>----- ----- ---------- --- --- ------ ------ ---- -- ------<br>------- --- ------ ----- --- ---- ------- -- ---- --- --<br>------- ------,214097.1300000092,214096.32000001147,213676.015,213688.65000001097,213711.285,214102.847,,28,rate.
screen,html.Screen,1_1_1_1_29,2021-04-18T19:39:26.862Z,,,,,,,,,,,,,,,,54,,,,,,,,,,,,,,401.31800000573276,,response,,,,100,,,,,,,Space,keypress(Space),,,,,,,,-- --- ---- --- ------ ----- ------- ---- -- --- ------- --<br>------- ---------- ------ -- ----- -- ----- -- ---- ------<br>--- ----- --- --- ------ -------- ----- The ------ ----- --<br>----- ----- ---------- --- --- ------ ------ ---- -- ------<br>------- --- ------ ----- --- ---- ------- -- ---- --- --<br>------- ------,214504.99500001024,214504.16500000574,214089.531,214097.25000000617,214102.847,214516.362,,29,The
screen,html.Screen,1_1_1_1_30,2021-04-18T19:39:27.598Z,,,,,,,,,,,,,,,,54,,,,,,,,,,,,,,723.7930000067863,,response,,,,100,,,,,,,Space,keypress(Space),,,,,,,,-- --- ---- --- ------ ----- ------- ---- -- --- ------- --<br>------- ---------- ------ -- ----- -- ----- -- ---- ------<br>--- ----- --- --- ------ -------- ----- --- market ----- --<br>----- ----- ---------- --- --- ------ ------ ---- -- ------<br>------- --- ------ ----- --- ---- ------- -- ---- --- --<br>------- ------,215240.9800000023,215240.15500000678,214502.99,214505.12000000163,214516.362,215249.98,,30,market
screen,html.Screen,1_1_1_1_31,2021-04-18T19:39:28.134Z,,,,,,,,,,,,,,,,54,,,,,,,,,,,,,,526.1499999983644,,response,,,,100,,,,,,,Space,keypress(Space),,,,,,,,-- --- ---- --- ------ ----- ------- ---- -- --- ------- --<br>------- ---------- ------ -- ----- -- ----- -- ---- ------<br>--- ----- --- --- ------ -------- ----- --- ------ value --<br>----- ----- ---------- --- --- ------ ------ ---- -- ------<br>------- --- ------ ----- --- ---- ------- -- ---- --- --<br>------- ------,215776.92000000388,215776.12999999837,215236.624,215241.09999999928,215249.98,215783.505,,31,value
screen,html.Screen,1_1_1_1_32,2021-04-18T19:39:28.446Z,,,,,,,,,,,,,,,,54,,,,,,,,,,,,,,304.61500000033993,,response,,,,100,,,,,,,Space,keypress(Space),,,,,,,,-- --- ---- --- ------ ----- ------- ---- -- --- ------- --<br>------- ---------- ------ -- ----- -- ----- -- ---- ------<br>--- ----- --- --- ------ -------- ----- --- ------ ----- of<br>----- ----- ---------- --- --- ------ ------ ---- -- ------<br>------- --- ------ ----- --- ---- ------- -- ---- --- --<br>------- ------,216088.89500000805,216088.12000000034,215770.127,215777.04000000085,215783.505,216090.289,,32,of
screen,html.Screen,1_1_1_1_33,2021-04-18T19:39:28.734Z,,,,,,,,,,,,,,,,54,,,,,,,,,,,,,,285.8260000064038,,response,,,,100,,,,,,,Space,keypress(Space),,,,,,,,-- --- ---- --- ------ ----- ------- ---- -- --- ------- --<br>------- ---------- ------ -- ----- -- ----- -- ---- ------<br>--- ----- --- --- ------ -------- ----- --- ------ ----- --<br>these ----- ---------- --- --- ------ ------ ---- -- ------<br>------- --- ------ ----- --- ---- ------- -- ---- --- --<br>------- ------,216376.86499999836,216376.1150000064,216076.924,216089.01500000502,216090.289,216383.604,,33,these
screen,html.Screen,1_1_1_1_34,2021-04-18T19:39:29.005Z,,,,,,,,,,,,,,,,54,,,,,,,,,,,,,,264.406000004441,,response,,,,100,,,,,,,Space,keypress(Space),,,,,,,,-- --- ---- --- ------ ----- ------- ---- -- --- ------- --<br>------- ---------- ------ -- ----- -- ----- -- ---- ------<br>--- ----- --- --- ------ -------- ----- --- ------ ----- --<br>----- bonds ---------- --- --- ------ ------ ---- -- ------<br>------- --- ------ ----- --- ---- ------- -- ---- --- --<br>------- ------,216648.58000000822,216648.01000000443,216370.239,216376.98500000988,216383.604,216650.485,,34,bonds
screen,html.Screen,1_1_1_1_35,2021-04-18T19:39:29.430Z,,,,,,,,,,,,,,,,54,,,,,,,,,,,,,,421.6300000026822,,response,,,,100,,,,,,,Space,keypress(Space),,,,,,,,"-- --- ---- --- ------ ----- ------- ---- -- --- ------- --<br>------- ---------- ------ -- ----- -- ----- -- ---- ------<br>--- ----- --- --- ------ -------- ----- --- ------ ----- --<br>----- ----- plummeted, --- --- ------ ------ ---- -- ------<br>------- --- ------ ----- --- ---- ------- -- ---- --- --<br>------- ------",217072.8850000014,217072.11500000267,216637.124,216648.65000000282,216650.485,217077.175,,35,"plummeted,"
screen,html.Screen,1_1_1_1_36,2021-04-18T19:39:29.774Z,,,,,,,,,,,,,,,,54,,,,,,,,,,,,,,338.9500000033877,,response,,,,100,,,,,,,Space,keypress(Space),,,,,,,,-- --- ---- --- ------ ----- ------- ---- -- --- ------- --<br>------- ---------- ------ -- ----- -- ----- -- ---- ------<br>--- ----- --- --- ------ -------- ----- --- ------ ----- --<br>----- ----- ---------- and --- ------ ------ ---- -- ------<br>------- --- ------ ----- --- ---- ------- -- ---- --- --<br>------- ------,217416.9050000055,217416.12500000338,217063.936,217073.00499999837,217077.175,217424.115,,36,and
screen,html.Screen,1_1_1_1_37,2021-04-18T19:39:30.062Z,,,,,,,,,,,,,,,,54,,,,,,,,,,,,,,280.01499999826774,,response,,,,100,,,,,,,Space,keypress(Space),,,,,,,,-- --- ---- --- ------ ----- ------- ---- -- --- ------- --<br>------- ---------- ------ -- ----- -- ----- -- ---- ------<br>--- ----- --- --- ------ -------- ----- --- ------ ----- --<br>----- ----- ---------- --- the ------ ------ ---- -- ------<br>------- --- ------ ----- --- ---- ------- -- ---- --- --<br>------- ------,217704.95500000834,217704.12999999826,217410.805,217417.02500000247,217424.115,217717.554,,37,the
screen,html.Screen,1_1_1_1_38,2021-04-18T19:39:30.421Z,,,,,,,,,,,,,,,,54,,,,,,,,,,,,,,346.4709999996703,,response,,,,100,,,,,,,Space,keypress(Space),,,,,,,,-- --- ---- --- ------ ----- ------- ---- -- --- ------- --<br>------- ---------- ------ -- ----- -- ----- -- ---- ------<br>--- ----- --- --- ------ -------- ----- --- ------ ----- --<br>----- ----- ---------- --- --- market ------ ---- -- ------<br>------- --- ------ ----- --- ---- ------- -- ---- --- --<br>------- ------,218064.7350000072,218064.02499999967,217704.183,217705.0750000053,217717.554,218077.686,,38,market
screen,html.Screen,1_1_1_1_39,2021-04-18T19:39:30.742Z,,,,,,,,,,,,,,,,54,,,,,,,,,,,,,,306.42399999906775,,response,,,,100,,,,,,,Space,keypress(Space),,,,,,,,-- --- ---- --- ------ ----- ------- ---- -- --- ------- --<br>------- ---------- ------ -- ----- -- ----- -- ---- ------<br>--- ----- --- --- ------ -------- ----- --- ------ ----- --<br>----- ----- ---------- --- --- ------ became ---- -- ------<br>------- --- ------ ----- --- ---- ------- -- ---- --- --<br>------- ------,218384.87500000338,218384.10999999905,218064.317,218064.85500000417,218077.686,218397.806,,39,became
screen,html.Screen,1_1_1_1_40,2021-04-18T19:39:30.998Z,,,,,,,,,,,,,,,,54,,,,,,,,,,,,,,242.32900000872905,,response,,,,100,,,,,,,Space,keypress(Space),,,,,,,,-- --- ---- --- ------ ----- ------- ---- -- --- ------- --<br>------- ---------- ------ -- ----- -- ----- -- ---- ------<br>--- ----- --- --- ------ -------- ----- --- ------ ----- --<br>----- ----- ---------- --- --- ------ ------ wary -- ------<br>------- --- ------ ----- --- ---- ------- -- ---- --- --<br>------- ------,218640.98999999987,218640.13500000874,218384.329,218384.99500000034,218397.806,218651.221,,40,wary
screen,html.Screen,1_1_1_1_41,2021-04-18T19:39:31.310Z,,,,,,,,,,,,,,,,54,,,,,,,,,,,,,,300.8940000073344,,response,,,,100,,,,,,,Space,keypress(Space),,,,,,,,-- --- ---- --- ------ ----- ------- ---- -- --- ------- --<br>------- ---------- ------ -- ----- -- ----- -- ---- ------<br>--- ----- --- --- ------ -------- ----- --- ------ ----- --<br>----- ----- ---------- --- --- ------ ------ ---- of ------<br>------- --- ------ ----- --- ---- ------- -- ---- --- --<br>------- ------,218952.88000001165,218952.11500000732,218637.87,218641.1100000114,218651.221,218957.902,,41,of
screen,html.Screen,1_1_1_1_42,2021-04-18T19:39:31.614Z,,,,,,,,,,,,,,,,54,,,,,,,,,,,,,,298.1979999986943,,response,,,,100,,,,,,,Space,keypress(Space),,,,,,,,-- --- ---- --- ------ ----- ------- ---- -- --- ------- --<br>------- ---------- ------ -- ----- -- ----- -- ---- ------<br>--- ----- --- --- ------ -------- ----- --- ------ ----- --<br>----- ----- ---------- --- --- ------ ------ ---- -- French<br>------- --- ------ ----- --- ---- ------- -- ---- --- --<br>------- ------,219256.870000012,219256.0999999987,218944.657,218952.99499999965,218957.902,219264.799,,42,French
screen,html.Screen,1_1_1_1_43,2021-04-18T19:39:31.941Z,,,,,,,,,,,,,,,,54,,,,,,,,,,,,,,319.3209999995306,,response,,,,100,,,,,,,Space,keypress(Space),,,,,,,,-- --- ---- --- ------ ----- ------- ---- -- --- ------- --<br>------- ---------- ------ -- ----- -- ----- -- ---- ------<br>--- ----- --- --- ------ -------- ----- --- ------ ----- --<br>----- ----- ---------- --- --- ------ ------ ---- -- ------<br>credit. --- ------ ----- --- ---- ------- -- ---- --- --<br>------- ------,219584.66000000772,219584.11999999953,219251.446,219256.985,219264.799,219598.236,,43,credit.
screen,html.Screen,1_1_1_1_44,2021-04-18T19:39:32.390Z,,,,,,,,,,,,,,,,54,,,,,,,,,,,,,,433.8889999979001,,response,,,,100,,,,,,,Space,keypress(Space),,,,,,,,-- --- ---- --- ------ ----- ------- ---- -- --- ------- --<br>------- ---------- ------ -- ----- -- ----- -- ---- ------<br>--- ----- --- --- ------ -------- ----- --- ------ ----- --<br>----- ----- ---------- --- --- ------ ------ ---- -- ------<br>------- The ------ ----- --- ---- ------- -- ---- --- --<br>------- ------,220032.90500000003,220032.1249999979,219584.885,219584.73500001128,219598.236,220038.306,,44,The
screen,html.Screen,1_1_1_1_45,2021-04-18T19:39:32.726Z,,,,,,,,,,,,,,,,54,,,,,,,,,,,,,,329.813999999169,,response,,,,100,,,,,,,Space,keypress(Space),,,,,,,,-- --- ---- --- ------ ----- ------- ---- -- --- ------- --<br>------- ---------- ------ -- ----- -- ----- -- ---- ------<br>--- ----- --- --- ------ -------- ----- --- ------ ----- --<br>----- ----- ---------- --- --- ------ ------ ---- -- ------<br>------- --- French ----- --- ---- ------- -- ---- --- --<br>------- ------,220368.9000000013,220368.11999999918,220025.042,220033.02000000258,220038.306,220371.87,,45,French
screen,html.Screen,1_1_1_1_46,2021-04-18T19:39:33.038Z,,,,,,,,,,,,,,,,54,,,,,,,,,,,,,,308.26000000792556,,response,,,,100,,,,,,,Space,keypress(Space),,,,,,,,-- --- ---- --- ------ ----- ------- ---- -- --- ------- --<br>------- ---------- ------ -- ----- -- ----- -- ---- ------<br>--- ----- --- --- ------ -------- ----- --- ------ ----- --<br>----- ----- ---------- --- --- ------ ------ ---- -- ------<br>------- --- ------ state --- ---- ------- -- ---- --- --<br>------- ------,220680.90000000666,220680.13000000792,220358.498,220369.01500000386,220371.87,220692.002,,46,state
screen,html.Screen,1_1_1_1_47,2021-04-18T19:39:33.341Z,,,,,,,,,,,,,,,,54,,,,,,,,,,,,,,292.07800000926363,,response,,,,100,,,,,,,Space,keypress(Space),,,,,,,,-- --- ---- --- ------ ----- ------- ---- -- --- ------- --<br>------- ---------- ------ -- ----- -- ----- -- ---- ------<br>--- ----- --- --- ------ -------- ----- --- ------ ----- --<br>----- ----- ---------- --- --- ------ ------ ---- -- ------<br>------- --- ------ ----- was ---- ------- -- ---- --- --<br>------- ------,220984.68500000308,220984.08000000927,220678.624,220681.0150000092,220692.002,221014.624,,47,was
screen,html.Screen,1_1_1_1_48,2021-04-18T19:39:33.661Z,,,,,,,,,,,,,,,,54,,,,,,,,,,,,,,289.4709999994957,,response,,,,100,,,,,,,Space,keypress(Space),,,,,,,,-- --- ---- --- ------ ----- ------- ---- -- --- ------- --<br>------- ---------- ------ -- ----- -- ----- -- ---- ------<br>--- ----- --- --- ------ -------- ----- --- ------ ----- --<br>----- ----- ---------- --- --- ------ ------ ---- -- ------<br>------- --- ------ ----- --- left ------- -- ---- --- --<br>------- ------,221304.84500000603,221304.0949999995,220972.075,220984.79000000225,221014.624,221327.589,,48,left
screen,html.Screen,1_1_1_1_49,2021-04-18T19:39:33.998Z,,,,,,,,,,,,,,,,54,,,,,,,,,,,,,,312.5360000053479,,response,,,,100,,,,,,,Space,keypress(Space),,,,,,,,-- --- ---- --- ------ ----- ------- ---- -- --- ------- --<br>------- ---------- ------ -- ----- -- ----- -- ---- ------<br>--- ----- --- --- ------ -------- ----- --- ------ ----- --<br>----- ----- ---------- --- --- ------ ------ ---- -- ------<br>------- --- ------ ----- --- ---- without -- ---- --- --<br>------- ------,221640.91500001086,221640.12500000536,221292.199,221304.96000000858,221327.589,221652.341,,49,without
screen,html.Screen,1_1_1_1_50,2021-04-18T19:39:34.294Z,,,,,,,,,,,,,,,,54,,,,,,,,,,,,,,283.94899999783956,,response,,,,100,,,,,,,Space,keypress(Space),,,,,,,,-- --- ---- --- ------ ----- ------- ---- -- --- ------- --<br>------- ---------- ------ -- ----- -- ----- -- ---- ------<br>--- ----- --- --- ------ -------- ----- --- ------ ----- --<br>----- ----- ---------- --- --- ------ ------ ---- -- ------<br>------- --- ------ ----- --- ---- ------- an ---- --- --<br>------- ------,221937.06500000553,221936.28999999783,221638.983,221641.03500000783,221652.341,221945.821,,50,an
screen,html.Screen,1_1_1_1_51,2021-04-18T19:39:34.662Z,,,,,,,,,,,,,,,,54,,,,,,,,,,,,,,358.3090000040829,,response,,,,100,,,,,,,Space,keypress(Space),,,,,,,,-- --- ---- --- ------ ----- ------- ---- -- --- ------- --<br>------- ---------- ------ -- ----- -- ----- -- ---- ------<br>--- ----- --- --- ------ -------- ----- --- ------ ----- --<br>----- ----- ---------- --- --- ------ ------ ---- -- ------<br>------- --- ------ ----- --- ---- ------- -- easy --- --<br>------- ------,222304.9100000062,222304.13000000408,221932.431,221937.17499999912,221945.821,222324.606,,51,easy
screen,html.Screen,1_1_1_1_52,2021-04-18T19:39:34.958Z,,,,,,,,,,,,,,,,54,,,,,,,,,,,,,,275.4890000016021,,response,,,,100,,,,,,,Space,keypress(Space),,,,,,,,-- --- ---- --- ------ ----- ------- ---- -- --- ------- --<br>------- ---------- ------ -- ----- -- ----- -- ---- ------<br>--- ----- --- --- ------ -------- ----- --- ------ ----- --<br>----- ----- ---------- --- --- ------ ------ ---- -- ------<br>------- --- ------ ----- --- ---- ------- -- ---- way --<br>------- ------,222600.86000000592,222600.0950000016,222292.563,222305.0349999976,222324.606,222612.69,,52,way
screen,html.Screen,1_1_1_1_53,2021-04-18T19:39:35.270Z,,,,,,,,,,,,,,,,54,,,,,,,,,,,,,,299.7800000102143,,response,,,,100,,,,,,,Space,keypress(Space),,,,,,,,-- --- ---- --- ------ ----- ------- ---- -- --- ------- --<br>------- ---------- ------ -- ----- -- ----- -- ---- ------<br>--- ----- --- --- ------ -------- ----- --- ------ ----- --<br>----- ----- ---------- --- --- ------ ------ ---- -- ------<br>------- --- ------ ----- --- ---- ------- -- ---- --- of<br>------- ------,222913.235,222912.47000001022,222599.22,222600.9800000029,222612.69,222919.382,,53,of
screen,html.Screen,1_1_1_1_54,2021-04-18T19:39:35.686Z,,,,,,,,,,,,,,,,54,,,,,,,,,,,,,,408.7130000043835,,response,,,,100,,,,,,,Space,keypress(Space),,,,,,,,-- --- ---- --- ------ ----- ------- ---- -- --- ------- --<br>------- ---------- ------ -- ----- -- ----- -- ---- ------<br>--- ----- --- --- ------ -------- ----- --- ------ ----- --<br>----- ----- ---------- --- --- ------ ------ ---- -- ------<br>------- --- ------ ----- --- ---- ------- -- ---- --- --<br>raising ------,223328.86000000872,223328.0950000044,222906.124,222913.3550000115,222919.382,223332.864,,54,raising
screen,html.Screen,1_1_1_1_55,2021-04-18T19:39:36.094Z,,,,,,,,,,,,,,,,54,,,,,,,,,,,,,,403.3260000105365,,response,,,,100,,,,,,,Space,keypress(Space),,,,,,,,-- --- ---- --- ------ ----- ------- ---- -- --- ------- --<br>------- ---------- ------ -- ----- -- ----- -- ---- ------<br>--- ----- --- --- ------ -------- ----- --- ------ ----- --<br>----- ----- ---------- --- --- ------ ------ ---- -- ------<br>------- --- ------ ----- --- ---- ------- -- ---- --- --<br>------- money.,223737.01500000607,223736.19000001054,223319.497,223328.9800000057,223332.864,223746.322,,55,money.
Item 100,flow.Loop,1_1_1_1,2021-04-18T19:39:36.094Z,,,,,,,,,,,,,,,,,,,,,,,,,,,,,,22158.088000010524,,completion,,,,,E,,,,,,,,,,,silence,,,,,223737.21500000102,223736.19000001054,201564.868,201565.45999999798,201578.102,223746.322,,,
Question 1,html.Screen,1_1_1_2,2021-04-18T19:39:39.597Z,,,,,,,,,,,,,,,,,,,,,,,,,,,true,TRUE,,3493.473000001337,,response,,,,100,E,,,,,,TRUE,click #choice-1,,,,silence,,,,,227240.29500001052,227239.79500000132,223733.098,223737.31000001135,223746.322,227269.598,,,
Question 2,html.Screen,1_1_1_3,2021-04-18T19:39:44.117Z,,,,,,,,,,,,,,,,,,,,,,,,,,,true,FALSE,,4490.262000005576,,response,,,,100,E,,,,,,FALSE,click #choice-2,,,,silence,,,,,231760.39000001037,231759.86000000557,227227.732,227240.36999999953,227269.598,231762.759,,,
Item 100,flow.Sequence,1_1_1,2021-04-18T19:39:44.117Z,,,,,,,,,,,,,,,,,,,,,,,,,,,,,,40185.47100000558,,completion,,,,,,,,,,,,,,,,,,,,,231760.49500000954,231759.86000000557,191561.139,191568.65500001004,191574.389,231762.759,,,
End of Practice,html.Page,1_1_2,2021-04-18T19:39:47.461Z,,,,,,,,,,,,,,,,,,,,,,,,,,,,,,3341.8260000082373,,form submission,,,,,,,,,,,,,,,,,,,,,235104.73000000638,235104.58500000823,231749.413,231760.54500001192,231762.759,235110.669,,,
Practice,flow.Sequence,1_1,2021-04-18T19:39:47.461Z,,,,,,,,,,,,,,,,,,,,,,,,,,,,,,84878.80600000822,,completion,,,,,,,,,,,,,,,,,,,,,235104.83500000555,235104.58500000823,150212.454,150225.86500000034,150225.779,235110.669,,,
Trap_instruction,html.Page,1_2_0,2021-04-18T19:39:50.965Z,,,,,,,,,,,,,,,,,,,,,,,,,,,,,,3497.780999999726,,form submission,,,,,,,,,,,,,,,,,,,,,238608.57500000566,238608.44999999972,235097.324,235104.90000000573,235110.669,238618.645,,,
trap_trial,html.Screen,1_2_1,2021-04-18T19:39:54.437Z,,,,,,,,,,,,,,,,,,,,,,,,,,,true,1,,3461.225000001403,,response,,,,,,,,,,,1,click #choice-1,,,,,,,,,242080.50999999978,242079.8700000014,238605.3,238608.65000000922,238618.645,242086.455,,,
end of trap trial,html.Page,1_2_2,2021-04-18T19:39:56.165Z,,,,,,,,,,,,,,,,,,,,,,,,,,,,,,1722.170000005135,,form submission,,,,,,,,,,,,,,,,,,,,,243808.82500000007,243808.62500000512,242073.249,242080.59500000672,242086.455,243820.605,,,
Trap 1,flow.Sequence,1_2,2021-04-18T19:39:56.166Z,,,,,,,,,,,,,,,,,,,,,,,,,,,,,,8697.956000005128,,completion,,,,,,,,,,,,,,,,,,,,,243808.9949999994,243808.62500000512,235097.324,235104.87999999896,235110.669,243820.605,,,
Standby,html.Page,1_3_0,2021-04-18T19:40:04.168Z,,,,,,,,,,,,,,,,,,,,,,,,,,,,,,8002.943999999989,,timeout,,,,,,,,,,,,,,,,,,,,,251810.84499999997,251810.228,243807.235,243809.08000000636,243820.605,251823.549,,,
Holding screen,html.Screen,1_3_1_0_0,2021-04-18T19:40:11.173Z,,,,,,,,,,,,,,,,,,,,,,,,,,,,,,7002.6050000000105,,timeout,,,,,,,,,,,,,,,,,,,,,258815.71000000986,258812.831,251810.228,251811.10500000068,251823.549,258826.154,,,
screen,html.Screen,1_3_1_0_1_0,2021-04-18T19:40:11.911Z,,,,,,,,,,,,,,,,2,,,,,,,,,,,,,,726.2660000072501,,response,,,,1,E,,,,,,Space,keypress(Space),,,,lyrical,,,,Two ---- ------ --- ------- ---------- ------- ----------<br>--- --------- --- ----------- ------- ----- ------- ---<br>--------- ---- -- --- ---- -- --------- -- ---- -------<br>-- --------- ------ --- ----- ------ ---- --- --------- --<br>------ - ---- -- --- ----------- ------- ---- ----- -----<br>--- -------- - ------ ---- -- ----- ---- --- --- -----------<br>-- -------,259553.29999999958,259552.42000000726,258812.831,258815.88500000362,258826.154,259559.67,,0,Two
screen,html.Screen,1_3_1_0_1_1,2021-04-18T19:40:12.215Z,,,,,,,,,,,,,,,,2,,,,,,,,,,,,,,296.6000000038475,,response,,,,1,E,,,,,,Space,keypress(Space),,,,lyrical,,,,--- days ------ --- ------- ---------- ------- ----------<br>--- --------- --- ----------- ------- ----- ------- ---<br>--------- ---- -- --- ---- -- --------- -- ---- -------<br>-- --------- ------ --- ----- ------ ---- --- --------- --<br>------ - ---- -- --- ----------- ------- ---- ----- -----<br>--- -------- - ------ ---- -- ----- ---- --- --- -----------<br>-- -------,259857.11500000616,259856.27000000386,259546.429,259553.4350000089,259559.67,259866.552,,1,days
screen,html.Screen,1_3_1_0_1_2,2021-04-18T19:40:12.558Z,,,,,,,,,,,,,,,,2,,,,,,,,,,,,,,333.66799999881187,,response,,,,1,E,,,,,,Space,keypress(Space),,,,lyrical,,,,"--- ---- later, --- ------- ---------- ------- ----------<br>--- --------- --- ----------- ------- ----- ------- ---<br>--------- ---- -- --- ---- -- --------- -- ---- -------<br>-- --------- ------ --- ----- ------ ---- --- --------- --<br>------ - ---- -- --- ----------- ------- ---- ----- -----<br>--- -------- - ------ ---- -- ----- ---- --- --- -----------<br>-- -------",260200.97000000533,260200.2199999988,259853.174,259857.23500000313,259866.552,260213.33,,2,"later,"
screen,html.Screen,1_3_1_0_1_3,2021-04-18T19:40:13.134Z,,,,,,,,,,,,,,,,2,,,,,,,,,,,,,,562.8050000073563,,response,,,,1,E,,,,,,Space,keypress(Space),,,,lyrical,,,,--- ---- ------ the ------- ---------- ------- ----------<br>--- --------- --- ----------- ------- ----- ------- ---<br>--------- ---- -- --- ---- -- --------- -- ---- -------<br>-- --------- ------ --- ----- ------ ---- --- --------- --<br>------ - ---- -- --- ----------- ------- ---- ----- -----<br>--- -------- - ------ ---- -- ----- ---- --- --- -----------<br>-- -------,260776.80500000133,260776.13500000734,260199.985,260201.08500000788,260213.33,260786.893,,3,the
screen,html.Screen,1_3_1_0_1_4,2021-04-18T19:40:13.542Z,,,,,,,,,,,,,,,,2,,,,,,,,,,,,,,397.3020000089018,,response,,,,1,E,,,,,,Space,keypress(Space),,,,lyrical,,,,--- ---- ------ --- British ---------- ------- ----------<br>--- --------- --- ----------- ------- ----- ------- ---<br>--------- ---- -- --- ---- -- --------- -- ---- -------<br>-- --------- ------ --- ----- ------ ---- --- --------- --<br>------ - ---- -- --- ----------- ------- ---- ----- -----<br>--- -------- - ------ ---- -- ----- ---- --- --- -----------<br>-- -------,261184.99999999767,261184.1950000089,260773.527,260776.90500000608,260786.893,261187.038,,4,British
screen,html.Screen,1_3_1_0_1_5,2021-04-18T19:40:13.942Z,,,,,,,,,,,,,,,,2,,,,,,,,,,,,,,397.14699999970617,,response,,,,1,E,,,,,,Space,keypress(Space),,,,lyrical,,,,--- ---- ------ --- ------- astronomer ------- ----------<br>--- --------- --- ----------- ------- ----- ------- ---<br>--------- ---- -- --- ---- -- --------- -- ---- -------<br>-- --------- ------ --- ----- ------ ---- --- --------- --<br>------ - ---- -- --- ----------- ------- ---- ----- -----<br>--- -------- - ------ ---- -- ----- ---- --- --- -----------<br>-- -------,261584.9700000108,261584.1849999997,261173.665,261185.1250000036,261187.038,261587.189,,5,astronomer
screen,html.Screen,1_3_1_0_1_6,2021-04-18T19:40:14.318Z,,,,,,,,,,,,,,,,2,,,,,,,,,,,,,,372.9410000067437,,response,,,,1,E,,,,,,Space,keypress(Space),,,,lyrical,,,,--- ---- ------ --- ------- ---------- Richard ----------<br>--- --------- --- ----------- ------- ----- ------- ---<br>--------- ---- -- --- ---- -- --------- -- ---- -------<br>-- --------- ------ --- ----- ------ ---- --- --------- --<br>------ - ---- -- --- ----------- ------- ---- ----- -----<br>--- -------- - ------ ---- -- ----- ---- --- --- -----------<br>-- -------,261960.76500001072,261960.13000000676,261573.834,261585.09000000777,261587.189,261974.007,,6,Richard
screen,html.Screen,1_3_1_0_1_7,2021-04-18T19:40:14.902Z,,,,,,,,,,,,,,,,2,,,,,,,,,,,,,,570.1630000082951,,response,,,,1,E,,,,,,Space,keypress(Space),,,,lyrical,,,,--- ---- ------ --- ------- ---------- ------- Carrington<br>--- --------- --- ----------- ------- ----- ------- ---<br>--------- ---- -- --- ---- -- --------- -- ---- -------<br>-- --------- ------ --- ----- ------ ---- --- --------- --<br>------ - ---- -- --- ----------- ------- ---- ----- -----<br>--- -------- - ------ ---- -- ----- ---- --- --- -----------<br>-- -------,262544.99500000384,262544.1700000083,261960.672,261960.8600000065,261974.007,262547.535,,7,Carrington
screen,html.Screen,1_3_1_0_1_8,2021-04-18T19:40:15.254Z,,,,,,,,,,,,,,,,2,,,,,,,,,,,,,,348.65499999950407,,response,,,,1,E,,,,,,Space,keypress(Space),,,,lyrical,,,,--- ---- ------ --- ------- ---------- ------- ----------<br>was --------- --- ----------- ------- ----- ------- ---<br>--------- ---- -- --- ---- -- --------- -- ---- -------<br>-- --------- ------ --- ----- ------ ---- --- --------- --<br>------ - ---- -- --- ----------- ------- ---- ----- -----<br>--- -------- - ------ ---- -- ----- ---- --- --- -----------<br>-- -------,262896.7499999999,262896.1899999995,262534.16,262545.1650000032,262547.535,262907.663,,8,was
screen,html.Screen,1_3_1_0_1_9,2021-04-18T19:40:15.822Z,,,,,,,,,,,,,,,,2,,,,,,,,,,,,,,556.5470000055502,,response,,,,1,E,,,,,,Space,keypress(Space),,,,lyrical,,,,--- ---- ------ --- ------- ---------- ------- ----------<br>--- observing --- ----------- ------- ----- ------- ---<br>--------- ---- -- --- ---- -- --------- -- ---- -------<br>-- --------- ------ --- ----- ------ ---- --- --------- --<br>------ - ---- -- --- ----------- ------- ---- ----- -----<br>--- -------- - ------ ---- -- ----- ---- --- --- -----------<br>-- -------,263465.00000001106,263464.21000000555,262894.307,262896.82500000345,262907.663,263467.878,,9,observing
screen,html.Screen,1_3_1_0_1_10,2021-04-18T19:40:16.366Z,,,,,,,,,,,,,,,,2,,,,,,,,,,,,,,540.3020000043325,,response,,,,1,E,,,,,,Space,keypress(Space),,,,lyrical,,,,--- ---- ------ --- ------- ---------- ------- ----------<br>--- --------- the ----------- ------- ----- ------- ---<br>--------- ---- -- --- ---- -- --------- -- ---- -------<br>-- --------- ------ --- ----- ------ ---- --- --------- --<br>------ - ---- -- --- ----------- ------- ---- ----- -----<br>--- -------- - ------ ---- -- ----- ---- --- --- -----------<br>-- -------,264008.9450000087,264008.18000000436,263454.503,263465.11499999906,263467.878,264014.747,,10,the
screen,html.Screen,1_3_1_0_1_11,2021-04-18T19:40:17.135Z,,,,,,,,,,,,,,,,2,,,,,,,,,,,,,,761.6680000002962,,response,,,,1,E,,,,,,Space,keypress(Space),,,,lyrical,,,,--- ---- ------ --- ------- ---------- ------- ----------<br>--- --------- --- interesting ------- ----- ------- ---<br>--------- ---- -- --- ---- -- --------- -- ---- -------<br>-- --------- ------ --- ----- ------ ---- --- --------- --<br>------ - ---- -- --- ----------- ------- ---- ----- -----<br>--- -------- - ------ ---- -- ----- ---- --- --- -----------<br>-- -------,264777.24000001035,264776.41500000027,264001.387,264009.06500000565,264014.747,264788.379,,11,interesting
screen,html.Screen,1_3_1_0_1_12,2021-04-18T19:40:17.807Z,,,,,,,,,,,,,,,,2,,,,,,,,,,,,,,659.8510000090464,,response,,,,1,E,,,,,,Space,keypress(Space),,,,lyrical,,,,--- ---- ------ --- ------- ---------- ------- ----------<br>--- --------- --- ----------- sunspot ----- ------- ---<br>--------- ---- -- --- ---- -- --------- -- ---- -------<br>-- --------- ------ --- ----- ------ ---- --- --------- --<br>------ - ---- -- --- ----------- ------- ---- ----- -----<br>--- -------- - ------ ---- -- ----- ---- --- --- -----------<br>-- -------,265449.025000009,265448.23000000906,264775.046,264777.4000000063,264788.379,265455.17,,12,sunspot
screen,html.Screen,1_3_1_0_1_13,2021-04-18T19:40:18.342Z,,,,,,,,,,,,,,,,2,,,,,,,,,,,,,,529.0400000096415,,response,,,,1,E,,,,,,Space,keypress(Space),,,,lyrical,,,,--- ---- ------ --- ------- ---------- ------- ----------<br>--- --------- --- ----------- ------- group ------- ---<br>--------- ---- -- --- ---- -- --------- -- ---- -------<br>-- --------- ------ --- ----- ------ ---- --- --------- --<br>------ - ---- -- --- ----------- ------- ---- ----- -----<br>--- -------- - ------ ---- -- ----- ---- --- --- -----------<br>-- -------,265985.0000000006,265984.2100000096,265442.029,265449.14500000596,265455.17,265988.723,,13,group
screen,html.Screen,1_3_1_0_1_14,2021-04-18T19:40:18.855Z,,,,,,,,,,,,,,,,2,,,,,,,,,,,,,,507.66700000024866,,response,,,,1,E,,,,,,Space,keypress(Space),,,,lyrical,,,,--- ---- ------ --- ------- ---------- ------- ----------<br>--- --------- --- ----------- ------- ----- through ---<br>--------- ---- -- --- ---- -- --------- -- ---- -------<br>-- --------- ------ --- ----- ------ ---- --- --------- --<br>------ - ---- -- --- ----------- ------- ---- ----- -----<br>--- -------- - ------ ---- -- ----- ---- --- --- -----------<br>-- -------,266497.51500001,266496.39000000025,265975.444,265985.11500000313,265988.723,266509.021,,14,through
screen,html.Screen,1_3_1_0_1_15,2021-04-18T19:40:19.335Z,,,,,,,,,,,,,,,,2,,,,,,,,,,,,,,467.33400000614347,,response,,,,1,E,,,,,,Space,keypress(Space),,,,lyrical,,,,--- ---- ------ --- ------- ---------- ------- ----------<br>--- --------- --- ----------- ------- ----- ------- his<br>--------- ---- -- --- ---- -- --------- -- ---- -------<br>-- --------- ------ --- ----- ------ ---- --- --------- --<br>------ - ---- -- --- ----------- ------- ---- ----- -----<br>--- -------- - ------ ---- -- ----- ---- --- --- -----------<br>-- -------,266977.1400000027,266976.35500000615,266495.547,266497.675000006,266509.021,266989.257,,15,his
screen,html.Screen,1_3_1_0_1_16,2021-04-18T19:40:19.678Z,,,,,,,,,,,,,,,,2,,,,,,,,,,,,,,330.9530000053346,,response,,,,1,E,,,,,,Space,keypress(Space),,,,lyrical,,,,--- ---- ------ --- ------- ---------- ------- ----------<br>--- --------- --- ----------- ------- ----- ------- ---<br>telescope ---- -- --- ---- -- --------- -- ---- -------<br>-- --------- ------ --- ----- ------ ---- --- --------- --<br>------ - ---- -- --- ----------- ------- ---- ----- -----<br>--- -------- - ------ ---- -- ----- ---- --- --- -----------<br>-- -------,267321.0000000108,267320.2100000053,266975.812,266977.25500000524,266989.257,267322.636,,16,telescope
screen,html.Screen,1_3_1_0_1_17,2021-04-18T19:40:20.022Z,,,,,,,,,,,,,,,,2,,,,,,,,,,,,,,341.5890000004438,,response,,,,1,E,,,,,,Space,keypress(Space),,,,lyrical,,,,--- ---- ------ --- ------- ---------- ------- ----------<br>--- --------- --- ----------- ------- ----- ------- ---<br>--------- when -- --- ---- -- --------- -- ---- -------<br>-- --------- ------ --- ----- ------ ---- --- --------- --<br>------ - ---- -- --- ----------- ------- ---- ----- -----<br>--- -------- - ------ ---- -- ----- ---- --- --- -----------<br>-- -------,267665.02000000037,267664.22500000044,267309.315,267321.1149999988,267322.636,267669.357,,17,when
screen,html.Screen,1_3_1_0_1_18,2021-04-18T19:40:20.463Z,,,,,,,,,,,,,,,,2,,,,,,,,,,,,,,434.8630000083358,,response,,,,1,E,,,,,,Space,keypress(Space),,,,lyrical,,,,--- ---- ------ --- ------- ---------- ------- ----------<br>--- --------- --- ----------- ------- ----- ------- ---<br>--------- ---- he --- ---- -- --------- -- ---- -------<br>-- --------- ------ --- ----- ------ ---- --- --------- --<br>------ - ---- -- --- ----------- ------- ---- ----- -----<br>--- -------- - ------ ---- -- ----- ---- --- --- -----------<br>-- -------,268105.4000000004,268104.22000000835,267656.093,267665.1350000029,267669.357,268109.648,,18,he
screen,html.Screen,1_3_1_0_1_19,2021-04-18T19:40:20.878Z,,,,,,,,,,,,,,,,2,,,,,,,,,,,,,,410.48699999885866,,response,,,,1,E,,,,,,Space,keypress(Space),,,,lyrical,,,,--- ---- ------ --- ------- ---------- ------- ----------<br>--- --------- --- ----------- ------- ----- ------- ---<br>--------- ---- -- saw ---- -- --------- -- ---- -------<br>-- --------- ------ --- ----- ------ ---- --- --------- --<br>------ - ---- -- --- ----------- ------- ---- ----- -----<br>--- -------- - ------ ---- -- ----- ---- --- --- -----------<br>-- -------,268520.91000000655,268520.13499999885,268096.265,268105.5100000085,268109.648,268523.093,,19,saw
screen,html.Screen,1_3_1_0_1_20,2021-04-18T19:40:21.231Z,,,,,,,,,,,,,,,,2,,,,,,,,,,,,,,349.1620000093244,,response,,,,1,E,,,,,,Space,keypress(Space),,,,lyrical,,,,--- ---- ------ --- ------- ---------- ------- ----------<br>--- --------- --- ----------- ------- ----- ------- ---<br>--------- ---- -- --- what -- --------- -- ---- -------<br>-- --------- ------ --- ----- ------ ---- --- --------- --<br>------ - ---- -- --- ----------- ------- ---- ----- -----<br>--- -------- - ------ ---- -- ----- ---- --- --- -----------<br>-- -------,268873.08499999926,268872.2550000093,268509.733,268521.0250000091,268523.093,268883.277,,20,what
screen,html.Screen,1_3_1_0_1_21,2021-04-18T19:40:21.486Z,,,,,,,,,,,,,,,,2,,,,,,,,,,,,,,244.92800000088755,,response,,,,1,E,,,,,,Space,keypress(Space),,,,lyrical,,,,--- ---- ------ --- ------- ---------- ------- ----------<br>--- --------- --- ----------- ------- ----- ------- ---<br>--------- ---- -- --- ---- he --------- -- ---- -------<br>-- --------- ------ --- ----- ------ ---- --- --------- --<br>------ - ---- -- --- ----------- ------- ---- ----- -----<br>--- -------- - ------ ---- -- ----- ---- --- --- -----------<br>-- -------,269129.0149999986,269128.2050000009,268869.872,268873.2050000108,268883.277,269136.652,,21,he
screen,html.Screen,1_3_1_0_1_22,2021-04-18T19:40:21.814Z,,,,,,,,,,,,,,,,2,,,,,,,,,,,,,,319.5430000061169,,response,,,,1,E,,,,,,Space,keypress(Space),,,,lyrical,,,,--- ---- ------ --- ------- ---------- ------- ----------<br>--- --------- --- ----------- ------- ----- ------- ---<br>--------- ---- -- --- ---- -- described -- ---- -------<br>-- --------- ------ --- ----- ------ ---- --- --------- --<br>------ - ---- -- --- ----------- ------- ---- ----- -----<br>--- -------- - ------ ---- -- ----- ---- --- --- -----------<br>-- -------,269456.99500000046,269456.1950000061,269123.296,269129.13000000117,269136.652,269470.117,,22,described
screen,html.Screen,1_3_1_0_1_23,2021-04-18T19:40:22.535Z,,,,,,,,,,,,,,,,2,,,,,,,,,,,,,,706.4480000015465,,response,,,,1,E,,,,,,Space,keypress(Space),,,,lyrical,,,,--- ---- ------ --- ------- ---------- ------- ----------<br>--- --------- --- ----------- ------- ----- ------- ---<br>--------- ---- -- --- ---- -- --------- as ---- -------<br>-- --------- ------ --- ----- ------ ---- --- --------- --<br>------ - ---- -- --- ----------- ------- ---- ----- -----<br>--- -------- - ------ ---- -- ----- ---- --- --- -----------<br>-- -------,270177.6600000012,270176.5650000016,269456.759,269457.110000003,269470.117,270190.37,,23,as
screen,html.Screen,1_3_1_0_1_24,2021-04-18T19:40:22.846Z,,,,,,,,,,,,,,,,2,,,,,,,,,,,,,,297.8100000002887,,response,,,,1,E,,,,,,Space,keypress(Space),,,,lyrical,,,,"--- ---- ------ --- ------- ---------- ------- ----------<br>--- --------- --- ----------- ------- ----- ------- ---<br>--------- ---- -- --- ---- -- --------- -- ""two -------<br>-- --------- ------ --- ----- ------ ---- --- --------- --<br>------ - ---- -- --- ----------- ------- ---- ----- -----<br>--- -------- - ------ ---- -- ----- ---- --- --- -----------<br>-- -------",270488.9850000036,270488.1800000003,270177.011,270177.78500000713,270190.37,270497.166,,24,"""two"
screen,html.Screen,1_3_1_0_1_25,2021-04-18T19:40:23.278Z,,,,,,,,,,,,,,,,2,,,,,,,,,,,,,,422.8840000006021,,response,,,,1,E,,,,,,Space,keypress(Space),,,,lyrical,,,,--- ---- ------ --- ------- ---------- ------- ----------<br>--- --------- --- ----------- ------- ----- ------- ---<br>--------- ---- -- --- ---- -- --------- -- ---- patches<br>-- --------- ------ --- ----- ------ ---- --- --------- --<br>------ - ---- -- --- ----------- ------- ---- ----- -----<br>--- -------- - ------ ---- -- ----- ---- --- --- -----------<br>-- -------,270920.6600000034,270920.0500000006,270483.809,270489.10500000056,270497.166,270923.867,,25,patches
screen,html.Screen,1_3_1_0_1_26,2021-04-18T19:40:23.583Z,,,,,,,,,,,,,,,,2,,,,,,,,,,,,,,300.3530000036699,,response,,,,1,E,,,,,,Space,keypress(Space),,,,lyrical,,,,--- ---- ------ --- ------- ---------- ------- ----------<br>--- --------- --- ----------- ------- ----- ------- ---<br>--------- ---- -- --- ---- -- --------- -- ---- -------<br>of --------- ------ --- ----- ------ ---- --- --------- --<br>------ - ---- -- --- ----------- ------- ---- ----- -----<br>--- -------- - ------ ---- -- ----- ---- --- --- -----------<br>-- -------,271225.025000007,271224.2200000037,270910.628,270920.7500000048,270923.867,271230.655,,26,of
screen,html.Screen,1_3_1_0_1_27,2021-04-18T19:40:24.015Z,,,,,,,,,,,,,,,,2,,,,,,,,,,,,,,425.5500000065658,,response,,,,1,E,,,,,,Space,keypress(Space),,,,lyrical,,,,--- ---- ------ --- ------- ---------- ------- ----------<br>--- --------- --- ----------- ------- ----- ------- ---<br>--------- ---- -- --- ---- -- --------- -- ---- -------<br>-- intensely ------ --- ----- ------ ---- --- --------- --<br>------ - ---- -- --- ----------- ------- ---- ----- -----<br>--- -------- - ------ ---- -- ----- ---- --- --- -----------<br>-- -------,271657.0300000021,271656.2050000066,271217.396,271225.145000004,271230.655,271681.881,,27,intensely
screen,html.Screen,1_3_1_0_1_28,2021-04-18T19:40:24.414Z,,,,,,,,,,,,,,,,2,,,,,,,,,,,,,,374.2390000083833,,response,,,,1,E,,,,,,Space,keypress(Space),,,,lyrical,,,,--- ---- ------ --- ------- ---------- ------- ----------<br>--- --------- --- ----------- ------- ----- ------- ---<br>--------- ---- -- --- ---- -- --------- -- ---- -------<br>-- --------- bright --- ----- ------ ---- --- --------- --<br>------ - ---- -- --- ----------- ------- ---- ----- -----<br>--- -------- - ------ ---- -- ----- ---- --- --- -----------<br>-- -------,272056.6950000066,272056.1200000084,271644.234,271657.15500000806,271681.881,272083.854,,28,bright
screen,html.Screen,1_3_1_0_1_29,2021-04-18T19:40:24.742Z,,,,,,,,,,,,,,,,2,,,,,,,,,,,,,,300.33100000262493,,response,,,,1,E,,,,,,Space,keypress(Space),,,,lyrical,,,,--- ---- ------ --- ------- ---------- ------- ----------<br>--- --------- --- ----------- ------- ----- ------- ---<br>--------- ---- -- --- ---- -- --------- -- ---- -------<br>-- --------- ------ and ----- ------ ---- --- --------- --<br>------ - ---- -- --- ----------- ------- ---- ----- -----<br>--- -------- - ------ ---- -- ----- ---- --- --- -----------<br>-- -------,272385.0000000093,272384.1850000026,272044.371,272056.77000001015,272083.854,272391.193,,29,and
screen,html.Screen,1_3_1_0_1_30,2021-04-18T19:40:25.062Z,,,,,,,,,,,,,,,,2,,,,,,,,,,,,,,313.03200000856305,,response,,,,1,E,,,,,,Space,keypress(Space),,,,lyrical,,,,--- ---- ------ --- ------- ---------- ------- ----------<br>--- --------- --- ----------- ------- ----- ------- ---<br>--------- ---- -- --- ---- -- --------- -- ---- -------<br>-- --------- ------ --- white ------ ---- --- --------- --<br>------ - ---- -- --- ----------- ------- ---- ----- -----<br>--- -------- - ------ ---- -- ----- ---- --- --- -----------<br>-- -------,272705.00000000175,272704.2250000086,272377.837,272385.1200000063,272391.193,272711.258,,30,white
screen,html.Screen,1_3_1_0_1_31,2021-04-18T19:40:25.471Z,,,,,,,,,,,,,,,,2,,,,,,,,,,,,,,401.07699999801116,,response,,,,1,E,,,,,,Space,keypress(Space),,,,lyrical,,,,"--- ---- ------ --- ------- ---------- ------- ----------<br>--- --------- --- ----------- ------- ----- ------- ---<br>--------- ---- -- --- ---- -- --------- -- ---- -------<br>-- --------- ------ --- ----- light"" ---- --- --------- --<br>------ - ---- -- --- ----------- ------- ---- ----- -----<br>--- -------- - ------ ---- -- ----- ---- --- --- -----------<br>-- -------",273113.1299999979,273112.334999998,272697.956,272705.1250000077,272711.258,273124.82,,31,"light"""
screen,html.Screen,1_3_1_0_1_32,2021-04-18T19:40:25.814Z,,,,,,,,,,,,,,,,2,,,,,,,,,,,,,,331.3949999983306,,response,,,,1,E,,,,,,Space,keypress(Space),,,,lyrical,,,,--- ---- ------ --- ------- ---------- ------- ----------<br>--- --------- --- ----------- ------- ----- ------- ---<br>--------- ---- -- --- ---- -- --------- -- ---- -------<br>-- --------- ------ --- ----- ------ over --- --------- --<br>------ - ---- -- --- ----------- ------- ---- ----- -----<br>--- -------- - ------ ---- -- ----- ---- --- --- -----------<br>-- -------,273457.00999999826,273456.21499999834,273111.447,273113.25000000943,273124.82,273478.686,,32,over
screen,html.Screen,1_3_1_0_1_33,2021-04-18T19:40:26.167Z,,,,,,,,,,,,,,,,2,,,,,,,,,,,,,,329.7489999990212,,response,,,,1,E,,,,,,Space,keypress(Space),,,,lyrical,,,,--- ---- ------ --- ------- ---------- ------- ----------<br>--- --------- --- ----------- ------- ----- ------- ---<br>--------- ---- -- --- ---- -- --------- -- ---- -------<br>-- --------- ------ --- ----- ------ ---- the --------- --<br>------ - ---- -- --- ----------- ------- ---- ----- -----<br>--- -------- - ------ ---- -- ----- ---- --- --- -----------<br>-- -------,273809.3150000059,273808.434999999,273444.892,273457.1250000008,273478.686,273818.27,,33,the
screen,html.Screen,1_3_1_0_1_34,2021-04-18T19:40:28.135Z,,,,,,,,,,,,,,,,2,,,,,,,,,,,,,,1958.0200000088662,,response,,,,1,E,,,,,,Space,keypress(Space),,,,lyrical,,,,--- ---- ------ --- ------- ---------- ------- ----------<br>--- --------- --- ----------- ------- ----- ------- ---<br>--------- ---- -- --- ---- -- --------- -- ---- -------<br>-- --------- ------ --- ----- ------ ---- --- sunspots. --<br>------ - ---- -- --- ----------- ------- ---- ----- -----<br>--- -------- - ------ ---- -- ----- ---- --- --- -----------<br>-- -------,275777.0750000054,275776.2900000089,273805.088,273809.43500000285,273818.27,275779.124,,34,sunspots.
screen,html.Screen,1_3_1_0_1_35,2021-04-18T19:40:28.487Z,,,,,,,,,,,,,,,,2,,,,,,,,,,,,,,349.12600000883685,,response,,,,1,E,,,,,,Space,keypress(Space),,,,lyrical,,,,--- ---- ------ --- ------- ---------- ------- ----------<br>--- --------- --- ----------- ------- ----- ------- ---<br>--------- ---- -- --- ---- -- --------- -- ---- -------<br>-- --------- ------ --- ----- ------ ---- --- --------- He<br>------ - ---- -- --- ----------- ------- ---- ----- -----<br>--- -------- - ------ ---- -- ----- ---- --- --- -----------<br>-- -------,276129.07000000996,276128.25000000885,275765.712,275777.1950000024,275779.124,276139.342,,35,He
screen,html.Screen,1_3_1_0_1_36,2021-04-18T19:40:28.998Z,,,,,,,,,,,,,,,,2,,,,,,,,,,,,,,500.8730000067153,,response,,,,1,E,,,,,,Space,keypress(Space),,,,lyrical,,,,--- ---- ------ --- ------- ---------- ------- ----------<br>--- --------- --- ----------- ------- ----- ------- ---<br>--------- ---- -- --- ---- -- --------- -- ---- -------<br>-- --------- ------ --- ----- ------ ---- --- --------- --<br>jotted - ---- -- --- ----------- ------- ---- ----- -----<br>--- -------- - ------ ---- -- ----- ---- --- --- -----------<br>-- -------,276640.9500000009,276640.2150000067,276125.91,276129.2000000103,276139.342,276646.021,,36,jotted
