sender,sender_type,sender_id,timestamp,meta,,Blues,Classical,Country,Dance,Electronic,Folk,Gospel,Hip-Hop,Jazz,Latin,Musical/Film,New-age,Pop,Provo_ID,R&B,Rap,Reggae,Religious,Rock,Soul,Swing,Traditional,age,artist_name,correct,correctResponse,distraction,duration,education,ended_on,familiarity,gender,headphone_check_performance,item,list,music_frequency,offensiveness,pleasantness,position_correct,preference,response,response_action,snippet_file,song_name,song_rating,sound,stimulus_1,stimulus_2,stimulus_3,text,time_commit,time_end,time_render,time_run,time_show,time_switch,url,word,word_ID
Introduction,html.Screen,0_0,2021-04-11T17:59:39.379Z,"{""labjs_version"":""20.2.2"",""labjs_build"":{""flavor"":""production"",""commit"":""a25486e0c714a0ae2ce03ff94b7bb6896854dcfa""},""location"":""https://run.pavlovia.org/mvasilev/music_b/"",""userAgent"":""Mozilla/5.0 (Macintosh; Intel Mac OS X 10_15_7) AppleWebKit/537.36 (KHTML, like Gecko) Chrome/89.0.4389.82 Safari/537.36"",""platform"":""MacIntel"",""language"":""en-GB"",""locale"":""en-GB"",""timeZone"":""Europe/London"",""timezoneOffset"":-60,""screen_width"":1440,""screen_height"":900,""scroll_width"":1440,""scroll_height"":741,""window_innerWidth"":1440,""window_innerHeight"":789,""devicePixelRatio"":2}",,,,,,,,,,,,,,,,,,,,,,,,,,,,,9410.918000026413,,response,,,,,,,,,,,continue,click button,,,,,,,,,13544.289999990724,13538.485000026412,4094.235,4105.435000034049,4127.567,13549.179,{},,
Volume calibration,html.Screen,0_1,2021-04-11T17:59:43.389Z,,,,,,,,,,,,,,,,,,,,,,,,,,,,,,4001.016000017993,,response,,,,,,,,,,,continue,click button,,,,,,,,,17554.609999991953,17550.195000017993,13532.513,13545.049999956973,13549.179,17565.685,,,
Task instructions,html.Screen,0_2,2021-04-11T17:59:44.702Z,,,,,,,,,,,,,,,,,,,,,,,,,,,,,,1296.8550000018986,,response,,,,,,,,,,,continue,click button,,,,,,,,,18866.965000052005,18862.5400000019,17549.019,17554.965000017546,17565.685,18882.299,,,
Sounds,html.Screen,0_3_0_0,2021-04-11T17:59:48.956Z,,,,,,,,,,,,,,,,,,,,,,,,,,,,,,4249.830000000002,,timeout,,,,,,,,,2,,,,,,,,O,S,I,,23121.69499997981,23115.463,18865.633,18867.540000006557,18882.299,23132.129,,,
Judgement,html.Screen,0_3_0_1,2021-04-11T17:59:50.136Z,,,,,,,,,,,,,,,,,,,,,,,,,,,true,2,,1165.1559999787278,,response,,,,,,,,,2,,2,click #choice-2,,,,,O,S,I,,24301.73000006471,24297.28499997873,23115.463,23121.96500005666,23132.129,24312.296,,,
Trial,flow.Sequence,0_3_0,2021-04-11T17:59:50.137Z,,,,,,,,,,,,,,,,,,,,,,,,,,,,,,5414.9859999787295,,completion,,,,,,,,,2,,,,,,,,O,S,I,,24302.59500001557,24297.28499997873,18865.633,18867.394999950193,18882.299,24312.296,,,
Sounds,html.Screen,0_3_1_0,2021-04-11T17:59:54.383Z,,,,,,,,,,,,,,,,,,,,,,,,,,,,,,4249.830000000002,,timeout,,,,,,,,,1,,,,,,,,S,I,O,,28548.219999996945,28545.46,24295.63,24302.885000011884,24312.296,28562.126,,,
Judgement,html.Screen,0_3_1_1,2021-04-11T17:59:56.447Z,,,,,,,,,,,,,,,,,,,,,,,,,,,true,1,,2039.0839999934433,,response,,,,,,,,,1,,1,click #choice-1,,,,,S,I,O,,30613.01500000991,30601.209999993443,28545.46,28548.659999971278,28562.126,30628.71,,,
Trial,flow.Sequence,0_3_1,2021-04-11T17:59:56.448Z,,,,,,,,,,,,,,,,,,,,,,,,,,,,,,6288.913999993445,,completion,,,,,,,,,1,,,,,,,,S,I,O,,30613.170000026003,30601.209999993443,24295.63,24302.815000060946,24312.296,30628.71,,,
Sounds,html.Screen,0_3_2_0,2021-04-11T18:00:00.700Z,,,,,,,,,,,,,,,,,,,,,,,,,,,,,,4249.830000000002,,timeout,,,,,,,,,2,,,,,,,,I,S,O,,34865.100000053644,34861.874,30612.044,30613.265000050887,30628.71,34878.54,,,
Judgement,html.Screen,0_3_2_1,2021-04-11T18:00:01.205Z,,,,,,,,,,,,,,,,,,,,,,,,,,,true,2,,487.3050000220901,,response,,,,,,,,,2,,2,click #choice-2,,,,,I,S,O,,35370.11999997776,35365.84500002209,34861.874,34865.37000001408,34878.54,35372.31,,,
Trial,flow.Sequence,0_3_2,2021-04-11T18:00:01.205Z,,,,,,,,,,,,,,,,,,,,,,,,,,,,,,4737.135000022092,,completion,,,,,,,,,2,,,,,,,,I,S,O,,35370.555000030436,35365.84500002209,30612.044,30613.235000055283,30628.71,35372.31,,,
Sounds,html.Screen,0_3_3_0,2021-04-11T18:00:05.442Z,,,,,,,,,,,,,,,,,,,,,,,,,,,,,,4249.830000000002,,timeout,,,,,,,,,3,,,,,,,,I,O,S,,39607.56000003312,39605.474,35355.644,35370.86000002455,35372.31,39622.14,,,
Judgement,html.Screen,0_3_3_1,2021-04-11T18:00:05.823Z,,,,,,,,,,,,,,,,,,,,,,,,,,,true,3,,362.50000003878085,,response,,,,,,,,,3,,3,click #choice-3,,,,,I,O,S,,39988.84999996517,39984.64000003878,39605.474,39607.820000033826,39622.14,39988.792,,,
Trial,flow.Sequence,0_3_3,2021-04-11T18:00:05.824Z,,,,,,,,,,,,,,,,,,,,,,,,,,,,,,4612.330000038783,,completion,,,,,,,,,3,,,,,,,,I,O,S,,39989.13999996148,39984.64000003878,35355.644,35370.74000004213,35372.31,39988.792,,,
Sounds,html.Screen,0_3_4_0,2021-04-11T18:00:10.059Z,,,,,,,,,,,,,,,,,,,,,,,,,,,,,,4249.830000000002,,timeout,,,,,,,,,3,,,,,,,,O,I,S,,44224.10500003025,44221.956,39972.126,39989.30500005372,39988.792,44238.622,,,
Judgement,html.Screen,0_3_4_1,2021-04-11T18:00:10.440Z,,,,,,,,,,,,,,,,,,,,,,,,,,,true,3,,362.60299999124254,,response,,,,,,,,,3,,3,click #choice-3,,,,,O,I,S,,44605.69500003476,44601.224999991246,44221.956,44224.369999952614,44238.622,44621.94,,,
Trial,flow.Sequence,0_3_4,2021-04-11T18:00:10.441Z,,,,,,,,,,,,,,,,,,,,,,,,,,,,,,4612.432999991244,,completion,,,,,,,,,3,,,,,,,,O,I,S,,44606.12999997102,44601.224999991246,39972.126,39989.26000006031,39988.792,44621.94,,,
Sounds,html.Screen,0_3_5_0,2021-04-11T18:00:14.693Z,,,,,,,,,,,,,,,,,,,,,,,,,,,,,,4249.8299999999945,,timeout,,,,,,,,,1,,,,,,,,S,O,I,,48858.12500002794,48855.104,44605.274,44606.6250000149,44621.94,48871.77,,,
Judgement,html.Screen,0_3_5_1,2021-04-11T18:00:15.487Z,,,,,,,,,,,,,,,,,,,,,,,,,,,true,1,,776.4250000161337,,response,,,,,,,,,1,,1,click #choice-1,,,,,S,O,I,,49652.69000001717,49648.19500001613,48855.104,48858.305000001565,48871.77,49659.18,,,
Trial,flow.Sequence,0_3_5,2021-04-11T18:00:15.487Z,,,,,,,,,,,,,,,,,,,,,,,,,,,,,,5026.255000016128,,completion,,,,,,,,,1,,,,,,,,S,O,I,,49653.0999999959,49648.19500001613,44605.274,44606.539999949746,44621.94,49659.18,,,
Task,flow.Loop,0_3,2021-04-11T18:00:15.497Z,,,,,,,,,,,,,,,,,,,,,,,,,,,,,,30765.89600001613,,completion,,,1,,,,,,,,,,,,,,,,,,49662.3799999943,49648.19500001613,18865.633,18867.265000008047,18882.299,49659.18,,,
Trap,html.Screen,0_4,2021-04-11T18:00:15.499Z,,,,,,,,,,,,,,,,,,,,,,,,,,,,,,NaN,,skipped,,,,,,,,,,,,,,,,,,,,,49664.23999995459,49648.19500001613,,49664.050000021234,,49659.18,,,
Thanks,html.Screen,0_5,2021-04-11T18:00:18.829Z,,,,,,,,,,,,,,,,,,,,,,,,,,,,,,3331.04999999579,,response,,,,,,,,,,,continue,click button,,,,,,,,,52994.42000000272,52990.22999999579,49642.514,49664.38500001095,49659.18,56042.258,,,
Headphone screening,flow.Sequence,0,2021-04-11T18:00:18.829Z,,,,,,,,,,,,,,,,,,,,,,,,,,,,,,48862.66299999579,,completion,,,,,,,,,,,,,,,,,,,,,52994.68999996316,52990.22999999579,4094.235,4105.414999998175,4127.567,56042.258,,,
Instructions,html.Page,1_0,2021-04-11T18:00:34.346Z,,,,,,,,,,,,,,,,,,,,,,,,,,,,,,12469.362000004767,,form submission,,,,,,,,,,,,,,,,,,,,,68511.9999999879,68511.62000000477,56025.592,56039.41500000656,56042.258,68524.121,,,
Holding screen,html.Screen,1_1_0_0,2021-04-11T18:00:44.341Z,,,,,,,,,,,,,,,,,,,,,,,,,,,,,,9997.191000000006,,timeout,,,,,,,,,,,,,,,,,,,,,78506.59000000451,78504.646,68507.455,68512.15500000399,68524.121,78521.312,,,
screen,html.Screen,1_1_0_1_0,2021-04-11T18:00:45.310Z,,,,,,,,,,,,,,,,53,,,,,,,,,,,,,,942.6380000048375,,response,,,,99,,,,,,,Space,keypress(Space),,,,,,,,When -- ----- -- ------ - ------- --- ----------<br>------------- ------ ------ ---- ---- ------- ----- -- ----<br>-------- ------- -- ---------- --- - --- ----- ----- ----<br>---- --- --- ----- --- ---- ---- ------- ----- ---- -------<br>--- --- -- ----- -- --- ---- -- --- ---- -- ------ ------<br>--- ----- -- ----,79475.89000000153,79463.95000000484,78504.646,78506.98000006378,78521.312,79487.94,,0,When
screen,html.Screen,1_1_0_1_1,2021-04-11T18:00:45.794Z,,,,,,,,,,,,,,,,53,,,,,,,,,,,,,,463.20000001922017,,response,,,,99,,,,,,,Space,keypress(Space),,,,,,,,---- it ----- -- ------ - ------- --- ----------<br>------------- ------ ------ ---- ---- ------- ----- -- ----<br>-------- ------- -- ---------- --- - --- ----- ----- ----<br>---- --- --- ----- --- ---- ---- ------- ----- ---- -------<br>--- --- -- ----- -- --- ---- -- --- ---- -- ------ ------<br>--- ----- -- ----,79959.49499995913,79951.14000001922,79471.274,79476.20999999344,79487.94,79971.254,,1,it
screen,html.Screen,1_1_0_1_2,2021-04-11T18:00:46.273Z,,,,,,,,,,,,,,,,53,,,,,,,,,,,,,,460.4959999888233,,response,,,,99,,,,,,,Space,keypress(Space),,,,,,,,---- -- comes -- ------ - ------- --- ----------<br>------------- ------ ------ ---- ---- ------- ----- -- ----<br>-------- ------- -- ---------- --- - --- ----- ----- ----<br>---- --- --- ----- --- ---- ---- ------- ----- ---- -------<br>--- --- -- ----- -- --- ---- -- --- ---- -- ------ ------<br>--- ----- -- ----,80439.15999995079,80431.74999998882,79954.588,79959.6700000111,79971.254,80454.568,,2,comes
screen,html.Screen,1_1_0_1_3,2021-04-11T18:00:46.736Z,,,,,,,,,,,,,,,,53,,,,,,,,,,,,,,439.50200003848295,,response,,,,99,,,,,,,Space,keypress(Space),,,,,,,,---- -- ----- to ------ - ------- --- ----------<br>------------- ------ ------ ---- ---- ------- ----- -- ----<br>-------- ------- -- ---------- --- - --- ----- ----- ----<br>---- --- --- ----- --- ---- ---- ------- ----- ---- -------<br>--- --- -- ----- -- --- ---- -- --- ---- -- ------ ------<br>--- ----- -- ----,80902.2249999689,80894.07000003848,80437.902,80440.40500000119,80454.568,80904.55,,3,to
screen,html.Screen,1_1_0_1_4,2021-04-11T18:00:47.341Z,,,,,,,,,,,,,,,,53,,,,,,,,,,,,,,595.3350000556529,,response,,,,99,,,,,,,Space,keypress(Space),,,,,,,,---- -- ----- -- having - ------- --- ----------<br>------------- ------ ------ ---- ---- ------- ----- -- ----<br>-------- ------- -- ---------- --- - --- ----- ----- ----<br>---- --- --- ----- --- ---- ---- ------- ----- ---- -------<br>--- --- -- ----- -- --- ---- -- --- ---- -- ------ ------<br>--- ----- -- ----,81506.72000006307,81499.88500005566,80887.884,80902.40500005893,80904.55,81521.192,,4,having
screen,html.Screen,1_1_0_1_5,2021-04-11T18:00:47.789Z,,,,,,,,,,,,,,,,53,,,,,,,,,,,,,,424.9380000548408,,response,,,,99,,,,,,,Space,keypress(Space),,,,,,,,---- -- ----- -- ------ a ------- --- ----------<br>------------- ------ ------ ---- ---- ------- ----- -- ----<br>-------- ------- -- ---------- --- - --- ----- ----- ----<br>---- --- --- ----- --- ---- ---- ------- ----- ---- -------<br>--- --- -- ----- -- --- ---- -- --- ---- -- ------ ------<br>--- ----- -- ----,81954.29000002332,81946.13000005484,81504.526,81506.89499999862,81521.192,81971.174,,5,a
screen,html.Screen,1_1_0_1_6,2021-04-11T18:00:48.256Z,,,,,,,,,,,,,,,,53,,,,,,,,,,,,,,442.7009999692673,,response,,,,99,,,,,,,Space,keypress(Space),,,,,,,,---- -- ----- -- ------ - lasting --- ----------<br>------------- ------ ------ ---- ---- ------- ----- -- ----<br>-------- ------- -- ---------- --- - --- ----- ----- ----<br>---- --- --- ----- --- ---- ---- ------- ----- ---- -------<br>--- --- -- ----- -- --- ---- -- --- ---- -- ------ ------<br>--- ----- -- ----,82421.62000003736,82413.87499996927,81954.508,81954.46999999695,81971.174,82437.822,,6,lasting
screen,html.Screen,1_1_0_1_7,2021-04-11T18:00:48.714Z,,,,,,,,,,,,,,,,53,,,,,,,,,,,,,,433.92800004936,,response,,,,99,,,,,,,Space,keypress(Space),,,,,,,,---- -- ----- -- ------ - ------- and ----------<br>------------- ------ ------ ---- ---- ------- ----- -- ----<br>-------- ------- -- ---------- --- - --- ----- ----- ----<br>---- --- --- ----- --- ---- ---- ------- ----- ---- -------<br>--- --- -- ----- -- --- ---- -- --- ---- -- ------ ------<br>--- ----- -- ----,82880.20000001416,82871.75000004936,82421.156,82421.79499997292,82437.822,82887.804,,7,and
screen,html.Screen,1_1_0_1_8,2021-04-11T18:00:49.183Z,,,,,,,,,,,,,,,,53,,,,,,,,,,,,,,453.2010000529699,,response,,,,99,,,,,,,Space,keypress(Space),,,,,,,,---- -- ----- -- ------ - ------- --- fulfilling<br>------------- ------ ------ ---- ---- ------- ----- -- ----<br>-------- ------- -- ---------- --- - --- ----- ----- ----<br>---- --- --- ----- --- ---- ---- ------- ----- ---- -------<br>--- --- -- ----- -- --- ---- -- --- ---- -- ------ ------<br>--- ----- -- ----,83349.03000004124,83341.00500005297,82871.138,82880.37999998778,82887.804,83354.452,,8,fulfilling
screen,html.Screen,1_1_0_1_9,2021-04-11T18:00:49.840Z,,,,,,,,,,,,,,,,53,,,,,,,,,,,,,,642.7280000639585,,response,,,,99,,,,,,,Space,keypress(Space),,,,,,,,"---- -- ----- -- ------ - ------- --- ----------<br>relationship, ------ ------ ---- ---- ------- ----- -- ----<br>-------- ------- -- ---------- --- - --- ----- ----- ----<br>---- --- --- ----- --- ---- ---- ------- ----- ---- -------<br>--- --- -- ----- -- --- ---- -- --- ---- -- ------ ------<br>--- ----- -- ----",84005.52500004414,83997.18000006396,83337.786,83349.21500005294,83354.452,84021.092,,9,"relationship,"
screen,html.Screen,1_1_0_1_10,2021-04-11T18:00:50.327Z,,,,,,,,,,,,,,,,53,,,,,,,,,,,,,,462.9030000168714,,response,,,,99,,,,,,,Space,keypress(Space),,,,,,,,---- -- ----- -- ------ - ------- --- ----------<br>------------- common ------ ---- ---- ------- ----- -- ----<br>-------- ------- -- ---------- --- - --- ----- ----- ----<br>---- --- --- ----- --- ---- ---- ------- ----- ---- -------<br>--- --- -- ----- -- --- ---- -- --- ---- -- ------ ------<br>--- ----- -- ----,84492.52500000875,84483.99500001688,84004.426,84005.78500004485,84021.092,84504.406,,10,common
screen,html.Screen,1_1_0_1_11,2021-04-11T18:00:50.794Z,,,,,,,,,,,,,,,,53,,,,,,,,,,,,,,447.62400004403025,,response,,,,99,,,,,,,Space,keypress(Space),,,,,,,,---- -- ----- -- ------ - ------- --- ----------<br>------------- ------ wisdom ---- ---- ------- ----- -- ----<br>-------- ------- -- ---------- --- - --- ----- ----- ----<br>---- --- --- ----- --- ---- ---- ------- ----- ---- -------<br>--- --- -- ----- -- --- ---- -- --- ---- -- ------ ------<br>--- ----- -- ----,84959.7000000067,84952.03000004403,84487.74,84492.91999998968,84504.406,84970.788,,11,wisdom
screen,html.Screen,1_1_0_1_12,2021-04-11T18:00:51.251Z,,,,,,,,,,,,,,,,53,,,,,,,,,,,,,,439.76699995127274,,response,,,,99,,,,,,,Space,keypress(Space),,,,,,,,---- -- ----- -- ------ - ------- --- ----------<br>------------- ------ ------ says ---- ------- ----- -- ----<br>-------- ------- -- ---------- --- - --- ----- ----- ----<br>---- --- --- ----- --- ---- ---- ------- ----- ---- -------<br>--- --- -- ----- -- --- ---- -- --- ---- -- ------ ------<br>--- ----- -- ----,85417.10500000045,85410.55499995127,84954.122,84959.87999998033,84970.788,85420.77,,12,says
screen,html.Screen,1_1_0_1_13,2021-04-11T18:00:51.688Z,,,,,,,,,,,,,,,,53,,,,,,,,,,,,,,425.94499999239633,,response,,,,99,,,,,,,Space,keypress(Space),,,,,,,,---- -- ----- -- ------ - ------- --- ----------<br>------------- ------ ------ ---- that ------- ----- -- ----<br>-------- ------- -- ---------- --- - --- ----- ----- ----<br>---- --- --- ----- --- ---- ---- ------- ----- ---- -------<br>--- --- -- ----- -- --- ---- -- --- ---- -- ------ ------<br>--- ----- -- ----,85853.4900000086,85846.7149999924,85404.104,85417.28000005241,85420.77,85870.752,,13,that
screen,html.Screen,1_1_0_1_14,2021-04-11T18:00:52.161Z,,,,,,,,,,,,,,,,53,,,,,,,,,,,,,,447.4179999840999,,response,,,,99,,,,,,,Space,keypress(Space),,,,,,,,---- -- ----- -- ------ - ------- --- ----------<br>------------- ------ ------ ---- ---- feeling ----- -- ----<br>-------- ------- -- ---------- --- - --- ----- ----- ----<br>---- --- --- ----- --- ---- ---- ------- ----- ---- -------<br>--- --- -- ----- -- --- ---- -- --- ---- -- ------ ------<br>--- ----- -- ----,86326.6350000631,86318.1699999841,85854.086,85853.6750000203,85870.752,86337.4,,14,feeling
screen,html.Screen,1_1_0_1_15,2021-04-11T18:00:52.567Z,,,,,,,,,,,,,,,,53,,,,,,,,,,,,,,388.6500000556989,,response,,,,99,,,,,,,Space,keypress(Space),,,,,,,,---- -- ----- -- ------ - ------- --- ----------<br>------------- ------ ------ ---- ---- ------- close -- ----<br>-------- ------- -- ---------- --- - --- ----- ----- ----<br>---- --- --- ----- --- ---- ---- ------- ----- ---- -------<br>--- --- -- ----- -- --- ---- -- --- ---- -- ------ ------<br>--- ----- -- ----,86732.57999995258,86726.0500000557,86320.734,86326.89999998547,86337.4,86737.384,,15,close
screen,html.Screen,1_1_0_1_16,2021-04-11T18:00:52.994Z,,,,,,,,,,,,,,,,53,,,,,,,,,,,,,,414.3760000370239,,response,,,,99,,,,,,,Space,keypress(Space),,,,,,,,---- -- ----- -- ------ - ------- --- ----------<br>------------- ------ ------ ---- ---- ------- ----- to ----<br>-------- ------- -- ---------- --- - --- ----- ----- ----<br>---- --- --- ----- --- ---- ---- ------- ----- ---- -------<br>--- --- -- ----- -- --- ---- -- --- ---- -- ------ ------<br>--- ----- -- ----,87159.90500000771,87151.76000003703,86720.718,86732.75500000454,86737.384,87170.7,,16,to
screen,html.Screen,1_1_0_1_17,2021-04-11T18:00:53.437Z,,,,,,,,,,,,,,,,53,,,,,,,,,,,,,,424.46000002622895,,response,,,,99,,,,,,,Space,keypress(Space),,,,,,,,---- -- ----- -- ------ - ------- --- ----------<br>------------- ------ ------ ---- ---- ------- ----- -- your<br>-------- ------- -- ---------- --- - --- ----- ----- ----<br>---- --- --- ----- --- ---- ---- ------- ----- ---- -------<br>--- --- -- ----- -- --- ---- -- --- ---- -- ------ ------<br>--- ----- -- ----,87602.97500004526,87595.16000002623,87154.034,87160.09999997914,87170.7,87604.016,,17,your
screen,html.Screen,1_1_0_1_18,2021-04-11T18:00:53.868Z,,,,,,,,,,,,,,,,53,,,,,,,,,,,,,,421.14899999910267,,response,,,,99,,,,,,,Space,keypress(Space),,,,,,,,---- -- ----- -- ------ - ------- --- ----------<br>------------- ------ ------ ---- ---- ------- ----- -- ----<br>romantic ------- -- ---------- --- - --- ----- ----- ----<br>---- --- --- ----- --- ---- ---- ------- ----- ---- -------<br>--- --- -- ----- -- --- ---- -- --- ---- -- ------ ------<br>--- ----- -- ----,88033.47000002395,88025.1649999991,87587.35,87603.15500001889,87604.016,88037.332,,18,romantic
screen,html.Screen,1_1_0_1_19,2021-04-11T18:00:54.243Z,,,,,,,,,,,,,,,,53,,,,,,,,,,,,,,366.63300006318605,,response,,,,99,,,,,,,Space,keypress(Space),,,,,,,,---- -- ----- -- ------ - ------- --- ----------<br>------------- ------ ------ ---- ---- ------- ----- -- ----<br>-------- partner -- ---------- --- - --- ----- ----- ----<br>---- --- --- ----- --- ---- ---- ------- ----- ---- -------<br>--- --- -- ----- -- --- ---- -- --- ---- -- ------ ------<br>--- ----- -- ----,88408.53500005323,88403.96500006318,88020.666,88033.65500003565,88037.332,88420.65,,19,partner
screen,html.Screen,1_1_0_1_20,2021-04-11T18:00:54.617Z,,,,,,,,,,,,,,,,53,,,,,,,,,,,,,,354.12999997791485,,response,,,,99,,,,,,,Space,keypress(Space),,,,,,,,---- -- ----- -- ------ - ------- --- ----------<br>------------- ------ ------ ---- ---- ------- ----- -- ----<br>-------- ------- is ---------- --- - --- ----- ----- ----<br>---- --- --- ----- --- ---- ---- ------- ----- ---- -------<br>--- --- -- ----- -- --- ---- -- --- ---- -- ------ ------<br>--- ----- -- ----,88783.05500000715,88774.77999997791,88403.984,88408.67999999318,88420.65,88787.302,,20,is
screen,html.Screen,1_1_0_1_21,2021-04-11T18:00:55.034Z,,,,,,,,,,,,,,,,53,,,,,,,,,,,,,,405.80799999288865,,response,,,,99,,,,,,,Space,keypress(Space),,,,,,,,---- -- ----- -- ------ - ------- --- ----------<br>------------- ------ ------ ---- ---- ------- ----- -- ----<br>-------- ------- -- paramount. --- - --- ----- ----- ----<br>---- --- --- ----- --- ---- ---- ------- ----- ---- -------<br>--- --- -- ----- -- --- ---- -- --- ---- -- ------ ------<br>--- ----- -- ----,89200.29499998782,89193.10999999288,88770.636,88783.23000005912,88787.302,89203.952,,21,paramount.
screen,html.Screen,1_1_0_1_22,2021-04-11T18:00:55.517Z,,,,,,,,,,,,,,,,53,,,,,,,,,,,,,,470.21299997488677,,response,,,,99,,,,,,,Space,keypress(Space),,,,,,,,---- -- ----- -- ------ - ------- --- ----------<br>------------- ------ ------ ---- ---- ------- ----- -- ----<br>-------- ------- -- ---------- But - --- ----- ----- ----<br>---- --- --- ----- --- ---- ---- ------- ----- ---- -------<br>--- --- -- ----- -- --- ---- -- --- ---- -- ------ ------<br>--- ----- -- ----,89682.74499999825,89674.16499997489,89187.286,89200.47499996144,89203.952,89687.266,,22,But
screen,html.Screen,1_1_0_1_23,2021-04-11T18:00:55.831Z,,,,,,,,,,,,,,,,53,,,,,,,,,,,,,,301.4690000208211,,response,,,,99,,,,,,,Space,keypress(Space),,,,,,,,---- -- ----- -- ------ - ------- --- ----------<br>------------- ------ ------ ---- ---- ------- ----- -- ----<br>-------- ------- -- ---------- --- a --- ----- ----- ----<br>---- --- --- ----- --- ---- ---- ------- ----- ---- -------<br>--- --- -- ----- -- --- ---- -- --- ---- -- ------ ------<br>--- ----- -- ----,89996.4649999747,89988.73500002082,89670.6,89682.92499997187,89687.266,90003.92,,23,a
screen,html.Screen,1_1_0_1_24,2021-04-11T18:00:56.167Z,,,,,,,,,,,,,,,,53,,,,,,,,,,,,,,320.49500003915455,,response,,,,99,,,,,,,Space,keypress(Space),,,,,,,,---- -- ----- -- ------ - ------- --- ----------<br>------------- ------ ------ ---- ---- ------- ----- -- ----<br>-------- ------- -- ---------- --- - new ----- ----- ----<br>---- --- --- ----- --- ---- ---- ------- ----- ---- -------<br>--- --- -- ----- -- --- ---- -- --- ---- -- ------ ------<br>--- ----- -- ----,90332.62999996077,90324.41500003915,89987.254,89996.64500006475,90003.92,90337.24,,24,new
screen,html.Screen,1_1_0_1_25,2021-04-11T18:00:56.623Z,,,,,,,,,,,,,,,,53,,,,,,,,,,,,,,443.82499998829735,,response,,,,99,,,,,,,Space,keypress(Space),,,,,,,,---- -- ----- -- ------ - ------- --- ----------<br>------------- ------ ------ ---- ---- ------- ----- -- ----<br>-------- ------- -- ---------- --- - --- study ----- ----<br>---- --- --- ----- --- ---- ---- ------- ----- ---- -------<br>--- --- -- ----- -- --- ---- -- --- ---- -- ------ ------<br>--- ----- -- ----,90789.24499999266,90781.0649999883,90320.574,90332.81000005081,90337.24,90803.888,,25,study
screen,html.Screen,1_1_0_1_26,2021-04-11T18:00:56.997Z,,,,,,,,,,,,,,,,53,,,,,,,,,,,,,,350.4769999657583,,response,,,,99,,,,,,,Space,keypress(Space),,,,,,,,---- -- ----- -- ------ - ------- --- ----------<br>------------- ------ ------ ---- ---- ------- ----- -- ----<br>-------- ------- -- ---------- --- - --- ----- finds ----<br>---- --- --- ----- --- ---- ---- ------- ----- ---- -------<br>--- --- -- ----- -- --- ---- -- --- ---- -- ------ ------<br>--- ----- -- ----,91162.51000005286,91154.36499996576,90787.222,90789.43999996409,90803.888,91170.54,,26,finds
screen,html.Screen,1_1_0_1_27,2021-04-11T18:00:57.377Z,,,,,,,,,,,,,,,,53,,,,,,,,,,,,,,363.97999998652085,,response,,,,99,,,,,,,Space,keypress(Space),,,,,,,,---- -- ----- -- ------ - ------- --- ----------<br>------------- ------ ------ ---- ---- ------- ----- -- ----<br>-------- ------- -- ---------- --- - --- ----- ----- that<br>---- --- --- ----- --- ---- ---- ------- ----- ---- -------<br>--- --- -- ----- -- --- ---- -- --- ---- -- ------ ------<br>--- ----- -- ----,91543.01500006113,91534.51999998651,91153.874,91162.69500006456,91170.54,91553.858,,27,that
screen,html.Screen,1_1_0_1_28,2021-04-11T18:00:57.742Z,,,,,,,,,,,,,,,,53,,,,,,,,,,,,,,346.30699999911303,,response,,,,99,,,,,,,Space,keypress(Space),,,,,,,,---- -- ----- -- ------ - ------- --- ----------<br>------------- ------ ------ ---- ---- ------- ----- -- ----<br>-------- ------- -- ---------- --- - --- ----- ----- ----<br>it's --- --- ----- --- ---- ---- ------- ----- ---- -------<br>--- --- -- ----- -- --- ---- -- --- ---- -- ------ ------<br>--- ----- -- ----,91908.12000003643,91900.1649999991,91537.192,91543.27500006184,91553.858,91920.51,,28,it's
screen,html.Screen,1_1_0_1_29,2021-04-11T18:00:58.064Z,,,,,,,,,,,,,,,,53,,,,,,,,,,,,,,301.3450000106968,,response,,,,99,,,,,,,Space,keypress(Space),,,,,,,,---- -- ----- -- ------ - ------- --- ----------<br>------------- ------ ------ ---- ---- ------- ----- -- ----<br>-------- ------- -- ---------- --- - --- ----- ----- ----<br>---- not --- ----- --- ---- ---- ------- ----- ---- -------<br>--- --- -- ----- -- --- ---- -- --- ---- -- ------ ------<br>--- ----- -- ----,92229.38999999315,92221.85500001069,91903.844,91908.30000001006,91920.51,92237.164,,29,not
screen,html.Screen,1_1_0_1_30,2021-04-11T18:00:58.394Z,,,,,,,,,,,,,,,,53,,,,,,,,,,,,,,314.056000023018,,response,,,,99,,,,,,,Space,keypress(Space),,,,,,,,---- -- ----- -- ------ - ------- --- ----------<br>------------- ------ ------ ---- ---- ------- ----- -- ----<br>-------- ------- -- ---------- --- - --- ----- ----- ----<br>---- --- how ----- --- ---- ---- ------- ----- ---- -------<br>--- --- -- ----- -- --- ---- -- --- ---- -- ------ ------<br>--- ----- -- ----,92559.83000004198,92551.22000002302,92220.498,92229.57500000484,92237.164,92570.484,,30,how
screen,html.Screen,1_1_0_1_31,2021-04-11T18:00:58.789Z,,,,,,,,,,,,,,,,53,,,,,,,,,,,,,,376.64599998592166,,response,,,,99,,,,,,,Space,keypress(Space),,,,,,,,---- -- ----- -- ------ - ------- --- ----------<br>------------- ------ ------ ---- ---- ------- ----- -- ----<br>-------- ------- -- ---------- --- - --- ----- ----- ----<br>---- --- --- close --- ---- ---- ------- ----- ---- -------<br>--- --- -- ----- -- --- ---- -- --- ---- -- ------ ------<br>--- ----- -- ----,92955.18000004813,92947.12999998592,92553.818,92560.01500005368,92570.484,92970.468,,31,close
screen,html.Screen,1_1_0_1_32,2021-04-11T18:00:59.138Z,,,,,,,,,,,,,,,,53,,,,,,,,,,,,,,325.19699998327997,,response,,,,99,,,,,,,Space,keypress(Space),,,,,,,,---- -- ----- -- ------ - ------- --- ----------<br>------------- ------ ------ ---- ---- ------- ----- -- ----<br>-------- ------- -- ---------- --- - --- ----- ----- ----<br>---- --- --- ----- you ---- ---- ------- ----- ---- -------<br>--- --- -- ----- -- --- ---- -- --- ---- -- ------ ------<br>--- ----- -- ----,93303.55499999132,93295.66499998327,92953.802,92955.35000006203,92970.468,93320.454,,32,you
screen,html.Screen,1_1_0_1_33,2021-04-11T18:00:59.461Z,,,,,,,,,,,,,,,,53,,,,,,,,,,,,,,298.58099998152466,,response,,,,99,,,,,,,Space,keypress(Space),,,,,,,,---- -- ----- -- ------ - ------- --- ----------<br>------------- ------ ------ ---- ---- ------- ----- -- ----<br>-------- ------- -- ---------- --- - --- ----- ----- ----<br>---- --- --- ----- --- feel ---- ------- ----- ---- -------<br>--- --- -- ----- -- --- ---- -- --- ---- -- ------ ------<br>--- ----- -- ----,93626.36999995448,93619.03499998152,93303.788,93303.72500000522,93320.454,93637.108,,33,feel
screen,html.Screen,1_1_0_1_34,2021-04-11T18:00:59.782Z,,,,,,,,,,,,,,,,53,,,,,,,,,,,,,,302.91700001807476,,response,,,,99,,,,,,,Space,keypress(Space),,,,,,,,---- -- ----- -- ------ - ------- --- ----------<br>------------- ------ ------ ---- ---- ------- ----- -- ----<br>-------- ------- -- ---------- --- - --- ----- ----- ----<br>---- --- --- ----- --- ---- that ------- ----- ---- -------<br>--- --- -- ----- -- --- ---- -- --- ---- -- ------ ------<br>--- ----- -- ----,93948.30000004731,93940.02500001807,93620.442,93626.53500004672,93637.108,93953.762,,34,that
screen,html.Screen,1_1_0_1_35,2021-04-11T18:01:00.123Z,,,,,,,,,,,,,,,,53,,,,,,,,,,,,,,327.9530000482773,,response,,,,99,,,,,,,Space,keypress(Space),,,,,,,,---- -- ----- -- ------ - ------- --- ----------<br>------------- ------ ------ ---- ---- ------- ----- -- ----<br>-------- ------- -- ---------- --- - --- ----- ----- ----<br>---- --- --- ----- --- ---- ---- matters ----- ---- -------<br>--- --- -- ----- -- --- ---- -- --- ---- -- ------ ------<br>--- ----- -- ----,94288.62999996636,94281.71500004828,93937.096,93948.54500005022,93953.762,94303.748,,35,matters
screen,html.Screen,1_1_0_1_36,2021-04-11T18:01:00.573Z,,,,,,,,,,,,,,,,53,,,,,,,,,,,,,,427.50699999149947,,response,,,,99,,,,,,,Space,keypress(Space),,,,,,,,"---- -- ----- -- ------ - ------- --- ----------<br>------------- ------ ------ ---- ---- ------- ----- -- ----<br>-------- ------- -- ---------- --- - --- ----- ----- ----<br>---- --- --- ----- --- ---- ---- ------- most, ---- -------<br>--- --- -- ----- -- --- ---- -- --- ---- -- ------ ------<br>--- ----- -- ----",94738.70500002522,94731.2549999915,94287.082,94288.7950000586,94303.748,94753.73,,36,"most,"
screen,html.Screen,1_1_0_1_37,2021-04-11T18:01:00.980Z,,,,,,,,,,,,,,,,53,,,,,,,,,,,,,,383.46000003766676,,response,,,,99,,,,,,,Space,keypress(Space),,,,,,,,---- -- ----- -- ------ - ------- --- ----------<br>------------- ------ ------ ---- ---- ------- ----- -- ----<br>-------- ------- -- ---------- --- - --- ----- ----- ----<br>---- --- --- ----- --- ---- ---- ------- ----- it's -------<br>--- --- -- ----- -- --- ---- -- --- ---- -- ------ ------<br>--- ----- -- ----,95145.66999999806,95137.19000003766,94737.064,94738.87500003912,94753.73,95156.312,,37,it's
screen,html.Screen,1_1_0_1_38,2021-04-11T18:01:01.610Z,,,,,,,,,,,,,,,,53,,,,,,,,,,,,,,611.7830000649265,,response,,,,99,,,,,,,Space,keypress(Space),,,,,,,,---- -- ----- -- ------ - ------- --- ----------<br>------------- ------ ------ ---- ---- ------- ----- -- ----<br>-------- ------- -- ---------- --- - --- ----- ----- ----<br>---- --- --- ----- --- ---- ---- ------- ----- ---- whether<br>--- --- -- ----- -- --- ---- -- --- ---- -- ------ ------<br>--- ----- -- ----,95776.3350000605,95768.09500006493,95139.646,95145.84500005003,95156.312,95789.62,,38,whether
screen,html.Screen,1_1_0_1_39,2021-04-11T18:01:01.973Z,,,,,,,,,,,,,,,,53,,,,,,,,,,,,,,341.4799999987008,,response,,,,99,,,,,,,Space,keypress(Space),,,,,,,,---- -- ----- -- ------ - ------- --- ----------<br>------------- ------ ------ ---- ---- ------- ----- -- ----<br>-------- ------- -- ---------- --- - --- ----- ----- ----<br>---- --- --- ----- --- ---- ---- ------- ----- ---- -------<br>you --- -- ----- -- --- ---- -- --- ---- -- ------ ------<br>--- ----- -- ----,96138.85500002652,96131.0999999987,95772.954,95776.50000003632,95789.62,96156.272,,39,you
screen,html.Screen,1_1_0_1_40,2021-04-11T18:01:02.313Z,,,,,,,,,,,,,,,,53,,,,,,,,,,,,,,318.3579999533249,,response,,,,99,,,,,,,Space,keypress(Space),,,,,,,,---- -- ----- -- ------ - ------- --- ----------<br>------------- ------ ------ ---- ---- ------- ----- -- ----<br>-------- ------- -- ---------- --- - --- ----- ----- ----<br>---- --- --- ----- --- ---- ---- ------- ----- ---- -------<br>--- are -- ----- -- --- ---- -- --- ---- -- ------ ------<br>--- ----- -- ----,96479.07999996096,96474.62999995332,96139.606,96139.02000000235,96156.272,96489.592,,40,are
screen,html.Screen,1_1_0_1_41,2021-04-11T18:01:02.607Z,,,,,,,,,,,,,,,,53,,,,,,,,,,,,,,276.6279999904218,,response,,,,99,,,,,,,Space,keypress(Space),,,,,,,,---- -- ----- -- ------ - ------- --- ----------<br>------------- ------ ------ ---- ---- ------- ----- -- ----<br>-------- ------- -- ---------- --- - --- ----- ----- ----<br>---- --- --- ----- --- ---- ---- ------- ----- ---- -------<br>--- --- as ----- -- --- ---- -- --- ---- -- ------ ------<br>--- ----- -- ----,96773.33999995608,96766.21999999043,96472.926,96479.19500002172,96489.592,96789.58,,41,as
screen,html.Screen,1_1_0_1_42,2021-04-11T18:01:02.942Z,,,,,,,,,,,,,,,,53,,,,,,,,,,,,,,310.29000003456895,,response,,,,99,,,,,,,Space,keypress(Space),,,,,,,,---- -- ----- -- ------ - ------- --- ----------<br>------------- ------ ------ ---- ---- ------- ----- -- ----<br>-------- ------- -- ---------- --- - --- ----- ----- ----<br>---- --- --- ----- --- ---- ---- ------- ----- ---- -------<br>--- --- -- close -- --- ---- -- --- ---- -- ------ ------<br>--- ----- -- ----,97108.24500001036,97099.87000003457,96772.914,96773.51500000805,96789.58,97122.9,,42,close
screen,html.Screen,1_1_0_1_43,2021-04-11T18:01:03.326Z,,,,,,,,,,,,,,,,53,,,,,,,,,,,,,,360.1150000052585,,response,,,,99,,,,,,,Space,keypress(Space),,,,,,,,---- -- ----- -- ------ - ------- --- ----------<br>------------- ------ ------ ---- ---- ------- ----- -- ----<br>-------- ------- -- ---------- --- - --- ----- ----- ----<br>---- --- --- ----- --- ---- ---- ------- ----- ---- -------<br>--- --- -- ----- as --- ---- -- --- ---- -- ------ ------<br>--- ----- -- ----,97491.52499996126,97483.01500000525,97106.234,97108.48499997519,97122.9,97506.218,,43,as
screen,html.Screen,1_1_0_1_44,2021-04-11T18:01:03.747Z,,,,,,,,,,,,,,,,53,,,,,,,,,,,,,,398.8519999788841,,response,,,,99,,,,,,,Space,keypress(Space),,,,,,,,---- -- ----- -- ------ - ------- --- ----------<br>------------- ------ ------ ---- ---- ------- ----- -- ----<br>-------- ------- -- ---------- --- - --- ----- ----- ----<br>---- --- --- ----- --- ---- ---- ------- ----- ---- -------<br>--- --- -- ----- -- you ---- -- --- ---- -- ------ ------<br>--- ----- -- ----,97913.30000001471,97905.06999997888,97489.552,97491.76999996416,97506.218,97922.868,,44,you
screen,html.Screen,1_1_0_1_45,2021-04-11T18:01:04.060Z,,,,,,,,,,,,,,,,53,,,,,,,,,,,,,,295.1970000227593,,response,,,,99,,,,,,,Space,keypress(Space),,,,,,,,---- -- ----- -- ------ - ------- --- ----------<br>------------- ------ ------ ---- ---- ------- ----- -- ----<br>-------- ------- -- ---------- --- - --- ----- ----- ----<br>---- --- --- ----- --- ---- ---- ------- ----- ---- -------<br>--- --- -- ----- -- --- want -- --- ---- -- ------ ------<br>--- ----- -- ----,98226.10500000883,98218.06500002276,97906.202,97913.53999997955,97922.868,98239.522,,45,want
screen,html.Screen,1_1_0_1_46,2021-04-11T18:01:04.389Z,,,,,,,,,,,,,,,,53,,,,,,,,,,,,,,307.4879999802215,,response,,,,99,,,,,,,Space,keypress(Space),,,,,,,,---- -- ----- -- ------ - ------- --- ----------<br>------------- ------ ------ ---- ---- ------- ----- -- ----<br>-------- ------- -- ---------- --- - --- ----- ----- ----<br>---- --- --- ----- --- ---- ---- ------- ----- ---- -------<br>--- --- -- ----- -- --- ---- to --- ---- -- ------ ------<br>--- ----- -- ----,98555.29000004753,98547.00999998022,98222.856,98226.26000002492,98239.522,98556.176,,46,to
screen,html.Screen,1_1_0_1_47,2021-04-11T18:01:04.747Z,,,,,,,,,,,,,,,,53,,,,,,,,,,,,,,348.74900003892253,,response,,,,99,,,,,,,Space,keypress(Space),,,,,,,,"---- -- ----- -- ------ - ------- --- ----------<br>------------- ------ ------ ---- ---- ------- ----- -- ----<br>-------- ------- -- ---------- --- - --- ----- ----- ----<br>---- --- --- ----- --- ---- ---- ------- ----- ---- -------<br>--- --- -- ----- -- --- ---- -- be, ---- -- ------ ------<br>--- ----- -- ----",98912.81999996863,98904.92500003893,98539.51,98555.44999998529,98556.176,98922.828,,47,"be,"
screen,html.Screen,1_1_0_1_48,2021-04-11T18:01:05.094Z,,,,,,,,,,,,,,,,53,,,,,,,,,,,,,,331.55200005670486,,response,,,,99,,,,,,,Space,keypress(Space),,,,,,,,---- -- ----- -- ------ - ------- --- ----------<br>------------- ------ ------ ---- ---- ------- ----- -- ----<br>-------- ------- -- ---------- --- - --- ----- ----- ----<br>---- --- --- ----- --- ---- ---- ------- ----- ---- -------<br>--- --- -- ----- -- --- ---- -- --- even -- ------ ------<br>--- ----- -- ----,99260.14500006568,99254.3800000567,98906.162,98912.9800000228,98922.828,99272.814,,48,even
screen,html.Screen,1_1_0_1_49,2021-04-11T18:01:05.408Z,,,,,,,,,,,,,,,,53,,,,,,,,,,,,,,292.4410000231728,,response,,,,99,,,,,,,Space,keypress(Space),,,,,,,,---- -- ----- -- ------ - ------- --- ----------<br>------------- ------ ------ ---- ---- ------- ----- -- ----<br>-------- ------- -- ---------- --- - --- ----- ----- ----<br>---- --- --- ----- --- ---- ---- ------- ----- ---- -------<br>--- --- -- ----- -- --- ---- -- --- ---- if ------ ------<br>--- ----- -- ----,99573.63500003703,99565.25500002317,99256.148,99260.27500000782,99272.814,99589.468,,49,if
screen,html.Screen,1_1_0_1_50,2021-04-11T18:01:05.864Z,,,,,,,,,,,,,,,,53,,,,,,,,,,,,,,432.64200001989957,,response,,,,99,,,,,,,Space,keypress(Space),,,,,,,,---- -- ----- -- ------ - ------- --- ----------<br>------------- ------ ------ ---- ---- ------- ----- -- ----<br>-------- ------- -- ---------- --- - --- ----- ----- ----<br>---- --- --- ----- --- ---- ---- ------- ----- ---- -------<br>--- --- -- ----- -- --- ---- -- --- ---- -- that's ------<br>--- ----- -- ----,100030.11000005063,100022.1100000199,99572.802,99573.88000003994,99589.468,100039.45,,50,that's
screen,html.Screen,1_1_0_1_51,2021-04-11T18:01:06.247Z,,,,,,,,,,,,,,,,53,,,,,,,,,,,,,,365.3749999759748,,response,,,,99,,,,,,,Space,keypress(Space),,,,,,,,---- -- ----- -- ------ - ------- --- ----------<br>------------- ------ ------ ---- ---- ------- ----- -- ----<br>-------- ------- -- ---------- --- - --- ----- ----- ----<br>---- --- --- ----- --- ---- ---- ------- ----- ---- -------<br>--- --- -- ----- -- --- ---- -- --- ---- -- ------ really<br>--- ----- -- ----,100413.09499996714,100404.82499997597,100022.784,100030.26999998838,100039.45,100422.768,,51,really
screen,html.Screen,1_1_0_1_52,2021-04-11T18:01:06.957Z,,,,,,,,,,,,,,,,53,,,,,,,,,,,,,,692.7169999584294,,response,,,,99,,,,,,,Space,keypress(Space),,,,,,,,---- -- ----- -- ------ - ------- --- ----------<br>------------- ------ ------ ---- ---- ------- ----- -- ----<br>-------- ------- -- ---------- --- - --- ----- ----- ----<br>---- --- --- ----- --- ---- ---- ------- ----- ---- -------<br>--- --- -- ----- -- --- ---- -- --- ---- -- ------ ------<br>not ----- -- ----,101123.32000001334,101115.48499995843,100406.102,100413.25500002131,100422.768,101139.406,,52,not
screen,html.Screen,1_1_0_1_53,2021-04-11T18:01:07.345Z,,,,,,,,,,,,,,,,53,,,,,,,,,,,,,,362.6940000415343,,response,,,,99,,,,,,,Space,keypress(Space),,,,,,,,---- -- ----- -- ------ - ------- --- ----------<br>------------- ------ ------ ---- ---- ------- ----- -- ----<br>-------- ------- -- ---------- --- - --- ----- ----- ----<br>---- --- --- ----- --- ---- ---- ------- ----- ---- -------<br>--- --- -- ----- -- --- ---- -- --- ---- -- ------ ------<br>--- close -- ----,101510.84999996237,101502.10000004154,101122.74,101123.48499998916,101139.406,101522.724,,53,close
screen,html.Screen,1_1_0_1_54,2021-04-11T18:01:07.685Z,,,,,,,,,,,,,,,,53,,,,,,,,,,,,,,320.4810000410507,,response,,,,99,,,,,,,Space,keypress(Space),,,,,,,,---- -- ----- -- ------ - ------- --- ----------<br>------------- ------ ------ ---- ---- ------- ----- -- ----<br>-------- ------- -- ---------- --- - --- ----- ----- ----<br>---- --- --- ----- --- ---- ---- ------- ----- ---- -------<br>--- --- -- ----- -- --- ---- -- --- ---- -- ------ ------<br>--- ----- at ----,101851.21500003152,101843.20500004105,101506.058,101511.09000004362,101522.724,101856.044,,54,at
screen,html.Screen,1_1_0_1_55,2021-04-11T18:01:08.225Z,,,,,,,,,,,,,,,,53,,,,,,,,,,,,,,526.7460000615101,,response,,,,99,,,,,,,Space,keypress(Space),,,,,,,,---- -- ----- -- ------ - ------- --- ----------<br>------------- ------ ------ ---- ---- ------- ----- -- ----<br>-------- ------- -- ---------- --- - --- ----- ----- ----<br>---- --- --- ----- --- ---- ---- ------- ----- ---- -------<br>--- --- -- ----- -- --- ---- -- --- ---- -- ------ ------<br>--- ----- -- all.,102391.00499998312,102382.7900000615,101839.378,101851.37499996927,101856.044,102406.022,,55,all.
Item 99,flow.Loop,1_1_0_1,2021-04-11T18:01:08.225Z,,,,,,,,,,,,,,,,,,,,,,,,,,,,,,23861.4780000615,,completion,,,,,B,,,,,,,,,,,silence,,,,,102391.36500004679,102382.7900000615,78504.646,78506.87000004109,78521.312,102406.022,,,
Question 1,html.Screen,1_1_0_2,2021-04-11T18:01:13.334Z,,,,,,,,,,,,,,,,,,,,,,,,,,,true,FALSE,,5089.488000037032,,response,,,,99,B,,,,,,FALSE,click #choice-2,,,,silence,,,,,107499.49499999639,107495.51000003703,102389.356,102391.50999998674,102406.022,107515.825,,,
Question 2,html.Screen,1_1_0_3,2021-04-11T18:01:16.106Z,,,,,,,,,,,,,,,,,,,,,,,,,,,true,TRUE,,2752.1199999704986,,response,,,,99,B,,,,,,TRUE,click #choice-1,,,,silence,,,,,110272.29500003159,110267.9449999705,107499.159,107499.67499997001,107515.825,110282.381,,,
Item 99,flow.Sequence,1_1_0,2021-04-11T18:01:16.107Z,,,,,,,,,,,,,,,,,,,,,,,,,,,,,,41743.8239999705,,completion,,,,,,,,,,,,,,,,,,,,,110272.66999997664,110267.9449999705,68507.455,68512.13000004645,68524.121,110282.381,,,
Holding screen,html.Screen,1_1_1_0,2021-04-11T18:01:26.098Z,,,,,,,,,,,,,,,,,,,,,,,,,,,,,,9995.022000000012,,timeout,,,,,,,,,,,,,,,,,,,,,120263.76500003971,120260.737,110265.715,110272.91499997955,110282.381,120277.403,,,
screen,html.Screen,1_1_1_1_0,2021-04-11T18:01:26.793Z,,,,,,,,,,,,,,,,54,,,,,,,,,,,,,,672.8020000010001,,response,,,,100,,,,,,,Space,keypress(Space),,,,,,,,At --- ---- --- ------ ----- ------- ---- -- --- ------- --<br>------- ---------- ------ -- ----- -- ----- -- ---- ------<br>--- ----- --- --- ------ -------- ----- --- ------ ----- --<br>----- ----- ---------- --- --- ------ ------ ---- -- ------<br>------- --- ------ ----- --- ---- ------- -- ---- --- --<br>------- ------,120959.4250000082,120950.205000001,120260.737,120264.08999995328,120277.403,120960.709,,0,At
screen,html.Screen,1_1_1_1_1,2021-04-11T18:01:27.721Z,,,,,,,,,,,,,,,,54,,,,,,,,,,,,,,919.9459999862884,,response,,,,100,,,,,,,Space,keypress(Space),,,,,,,,-- the ---- --- ------ ----- ------- ---- -- --- ------- --<br>------- ---------- ------ -- ----- -- ----- -- ---- ------<br>--- ----- --- --- ------ -------- ----- --- ------ ----- --<br>----- ----- ---------- --- --- ------ ------ ---- -- ------<br>------- --- ------ ----- --- ---- ------- -- ---- --- --<br>------- ------,121887.36000005156,121880.65499998629,120944.043,120959.61500005797,120960.709,121894.005,,1,the
screen,html.Screen,1_1_1_1_2,2021-04-11T18:01:29.150Z,,,,,,,,,,,,,,,,54,,,,,,,,,,,,,,1413.3399999792455,,response,,,,100,,,,,,,Space,keypress(Space),,,,,,,,-- --- time --- ------ ----- ------- ---- -- --- ------- --<br>------- ---------- ------ -- ----- -- ----- -- ---- ------<br>--- ----- --- --- ------ -------- ----- --- ------ ----- --<br>----- ----- ---------- --- --- ------ ------ ---- -- ------<br>------- --- ------ ----- --- ---- ------- -- ---- --- --<br>------- ------,123315.6799999997,123307.34499997925,121877.339,121887.52500002738,121894.005,123327.281,,2,time
screen,html.Screen,1_1_1_1_3,2021-04-11T18:01:29.591Z,,,,,,,,,,,,,,,,54,,,,,,,,,,,,,,421.31400001184375,,response,,,,100,,,,,,,Space,keypress(Space),,,,,,,,-- --- ---- the ------ ----- ------- ---- -- --- ------- --<br>------- ---------- ------ -- ----- -- ----- -- ---- ------<br>--- ----- --- --- ------ -------- ----- --- ------ ----- --<br>----- ----- ---------- --- --- ------ ------ ---- -- ------<br>------- --- ------ ----- --- ---- ------- -- ---- --- --<br>------- ------,123756.85500004329,123748.59500001185,123310.615,123315.9100000048,123327.281,123760.597,,3,the
screen,html.Screen,1_1_1_1_4,2021-04-11T18:01:30.009Z,,,,,,,,,,,,,,,,54,,,,,,,,,,,,,,405.9330000459013,,response,,,,100,,,,,,,Space,keypress(Space),,,,,,,,-- --- ---- --- French ----- ------- ---- -- --- ------- --<br>------- ---------- ------ -- ----- -- ----- -- ---- ------<br>--- ----- --- --- ------ -------- ----- --- ------ ----- --<br>----- ----- ---------- --- --- ------ ------ ---- -- ------<br>------- --- ------ ----- --- ---- ------- -- ---- --- --<br>------- ------,124174.54499995802,124166.5300000459,123743.931,123757.01499998104,123760.597,124177.247,,4,French
screen,html.Screen,1_1_1_1_5,2021-04-11T18:01:30.355Z,,,,,,,,,,,,,,,,54,,,,,,,,,,,,,,339.9629999617755,,response,,,,100,,,,,,,Space,keypress(Space),,,,,,,,-- --- ---- --- ------ crown ------- ---- -- --- ------- --<br>------- ---------- ------ -- ----- -- ----- -- ---- ------<br>--- ----- --- --- ------ -------- ----- --- ------ ----- --<br>----- ----- ---------- --- --- ------ ------ ---- -- ------<br>------- --- ------ ----- --- ---- ------- -- ---- --- --<br>------- ------,124521.3549999753,124517.20999996178,124160.581,124174.70500001218,124177.247,124527.233,,5,crown
screen,html.Screen,1_1_1_1_6,2021-04-11T18:01:30.743Z,,,,,,,,,,,,,,,,54,,,,,,,,,,,,,,373.4220000049245,,response,,,,100,,,,,,,Space,keypress(Space),,,,,,,,-- --- ---- --- ------ ----- secured ---- -- --- ------- --<br>------- ---------- ------ -- ----- -- ----- -- ---- ------<br>--- ----- --- --- ------ -------- ----- --- ------ ----- --<br>----- ----- ---------- --- --- ------ ------ ---- -- ------<br>------- --- ------ ----- --- ---- ------- -- ---- --- --<br>------- ------,124908.90000003856,124900.65500000492,124510.567,124521.47000003606,124527.233,124910.551,,6,secured
screen,html.Screen,1_1_1_1_7,2021-04-11T18:01:31.144Z,,,,,,,,,,,,,,,,54,,,,,,,,,,,,,,391.1940000625036,,response,,,,100,,,,,,,Space,keypress(Space),,,,,,,,-- --- ---- --- ------ ----- ------- much -- --- ------- --<br>------- ---------- ------ -- ----- -- ----- -- ---- ------<br>--- ----- --- --- ------ -------- ----- --- ------ ----- --<br>----- ----- ---------- --- --- ------ ------ ---- -- ------<br>------- --- ------ ----- --- ---- ------- -- ---- --- --<br>------- ------,125309.98999997973,125301.74500006251,124893.885,124909.06500001438,124910.551,125327.201,,7,much
screen,html.Screen,1_1_1_1_8,2021-04-11T18:01:31.848Z,,,,,,,,,,,,,,,,54,,,,,,,,,,,,,,678.45399998629,,response,,,,100,,,,,,,Space,keypress(Space),,,,,,,,-- --- ---- --- ------ ----- ------- ---- of --- ------- --<br>------- ---------- ------ -- ----- -- ----- -- ---- ------<br>--- ----- --- --- ------ -------- ----- --- ------ ----- --<br>----- ----- ---------- --- --- ------ ------ ---- -- ------<br>------- --- ------ ----- --- ---- ------- -- ---- --- --<br>------- ------,126013.54499999434,126005.65499998629,125310.535,125310.27000001632,125327.201,126027.173,,8,of
screen,html.Screen,1_1_1_1_9,2021-04-11T18:01:32.223Z,,,,,,,,,,,,,,,,54,,,,,,,,,,,,,,353.5470000155765,,response,,,,100,,,,,,,Space,keypress(Space),,,,,,,,-- --- ---- --- ------ ----- ------- ---- -- its ------- --<br>------- ---------- ------ -- ----- -- ----- -- ---- ------<br>--- ----- --- --- ------ -------- ----- --- ------ ----- --<br>----- ----- ---------- --- --- ------ ------ ---- -- ------<br>------- --- ------ ----- --- ---- ------- -- ---- --- --<br>------- ------,126389.13999998476,126380.72000001557,126010.507,126014.82000004034,126027.173,126392.075,,9,its
screen,html.Screen,1_1_1_1_10,2021-04-11T18:01:32.629Z,,,,,,,,,,,,,,,,54,,,,,,,,,,,,,,398.1449999662145,,response,,,,100,,,,,,,Space,keypress(Space),,,,,,,,-- --- ---- --- ------ ----- ------- ---- -- --- revenue --<br>------- ---------- ------ -- ----- -- ----- -- ---- ------<br>--- ----- --- --- ------ -------- ----- --- ------ ----- --<br>----- ----- ---------- --- --- ------ ------ ---- -- ------<br>------- --- ------ ----- --- ---- ------- -- ---- --- --<br>------- ------,126795.26499996427,126790.21999996621,126375.409,126389.32499999646,126392.075,126808.725,,10,revenue
screen,html.Screen,1_1_1_1_11,2021-04-11T18:01:33.050Z,,,,,,,,,,,,,,,,54,,,,,,,,,,,,,,399.224999952683,,response,,,,100,,,,,,,Space,keypress(Space),,,,,,,,-- --- ---- --- ------ ----- ------- ---- -- --- ------- by<br>------- ---------- ------ -- ----- -- ----- -- ---- ------<br>--- ----- --- --- ------ -------- ----- --- ------ ----- --<br>----- ----- ---------- --- --- ------ ------ ---- -- ------<br>------- --- ------ ----- --- ---- ------- -- ---- --- --<br>------- ------,127215.5700000003,127207.94999995269,126792.059,126795.39500002284,126808.725,127225.375,,11,by
screen,html.Screen,1_1_1_1_12,2021-04-11T18:01:33.402Z,,,,,,,,,,,,,,,,54,,,,,,,,,,,,,,334.3549999790266,,response,,,,100,,,,,,,Space,keypress(Space),,,,,,,,-- --- ---- --- ------ ----- ------- ---- -- --- ------- --<br>issuing ---------- ------ -- ----- -- ----- -- ---- ------<br>--- ----- --- --- ------ -------- ----- --- ------ ----- --<br>----- ----- ---------- --- --- ------ ------ ---- -- ------<br>------- --- ------ ----- --- ---- ------- -- ---- --- --<br>------- ------,127567.70500005223,127559.72999997903,127208.709,127215.73000005446,127225.375,127575.361,,12,issuing
screen,html.Screen,1_1_1_1_13,2021-04-11T18:01:33.718Z,,,,,,,,,,,,,,,,54,,,,,,,,,,,,,,300.1839999589429,,response,,,,100,,,,,,,Space,keypress(Space),,,,,,,,-- --- ---- --- ------ ----- ------- ---- -- --- ------- --<br>------- government ------ -- ----- -- ----- -- ---- ------<br>--- ----- --- --- ------ -------- ----- --- ------ ----- --<br>----- ----- ---------- --- --- ------ ------ ---- -- ------<br>------- --- ------ ----- --- ---- ------- -- ---- --- --<br>------- ------,127884.01000003796,127875.54499995895,127558.695,127567.86499998998,127575.361,127892.015,,13,government
screen,html.Screen,1_1_1_1_14,2021-04-11T18:01:34.051Z,,,,,,,,,,,,,,,,54,,,,,,,,,,,,,,316.25500006102084,,response,,,,100,,,,,,,Space,keypress(Space),,,,,,,,-- --- ---- --- ------ ----- ------- ---- -- --- ------- --<br>------- ---------- bonds. -- ----- -- ----- -- ---- ------<br>--- ----- --- --- ------ -------- ----- --- ------ ----- --<br>----- ----- ---------- --- --- ------ ------ ---- -- ------<br>------- --- ------ ----- --- ---- ------- -- ---- --- --<br>------- ------,128216.52500005439,128208.27000006102,127875.349,127884.2500000028,127892.015,128225.335,,14,bonds.
screen,html.Screen,1_1_1_1_15,2021-04-11T18:01:34.467Z,,,,,,,,,,,,,,,,54,,,,,,,,,,,,,,400.4000000087108,,response,,,,100,,,,,,,Space,keypress(Space),,,,,,,,-- --- ---- --- ------ ----- ------- ---- -- --- ------- --<br>------- ---------- ------ In ----- -- ----- -- ---- ------<br>--- ----- --- --- ------ -------- ----- --- ------ ----- --<br>----- ----- ---------- --- --- ------ ------ ---- -- ------<br>------- --- ------ ----- --- ---- ------- -- ---- --- --<br>------- ------,128633.29500006512,128625.73500000872,128208.669,128216.76500001922,128225.335,128641.985,,15,In
screen,html.Screen,1_1_1_1_16,2021-04-11T18:01:34.724Z,,,,,,,,,,,,,,,,54,,,,,,,,,,,,,,240.57000001832785,,response,,,,100,,,,,,,Space,keypress(Space),,,,,,,,"-- --- ---- --- ------ ----- ------- ---- -- --- ------- --<br>------- ---------- ------ -- 1727, -- ----- -- ---- ------<br>--- ----- --- --- ------ -------- ----- --- ------ ----- --<br>----- ----- ---------- --- --- ------ ------ ---- -- ------<br>------- --- ------ ----- --- ---- ------- -- ---- --- --<br>------- ------",128890.09000000078,128882.55500001833,128625.319,128633.45500000287,128641.985,128891.975,,16,"1727,"
screen,html.Screen,1_1_1_1_17,2021-04-11T18:01:35.310Z,,,,,,,,,,,,,,,,54,,,,,,,,,,,,,,576.3200000278594,,response,,,,100,,,,,,,Space,keypress(Space),,,,,,,,-- --- ---- --- ------ ----- ------- ---- -- --- ------- --<br>------- ---------- ------ -- ----- in ----- -- ---- ------<br>--- ----- --- --- ------ -------- ----- --- ------ ----- --<br>----- ----- ---------- --- --- ------ ------ ---- -- ------<br>------- --- ------ ----- --- ---- ------- -- ---- --- --<br>------- ------,129475.865000044,129468.29500002787,128875.309,128890.26000001468,128891.975,129491.951,,17,in
screen,html.Screen,1_1_1_1_18,2021-04-11T18:01:35.882Z,,,,,,,,,,,,,,,,54,,,,,,,,,,,,,,547.7039999713888,,response,,,,100,,,,,,,Space,keypress(Space),,,,,,,,-- --- ---- --- ------ ----- ------- ---- -- --- ------- --<br>------- ---------- ------ -- ----- -- order -- ---- ------<br>--- ----- --- --- ------ -------- ----- --- ------ ----- --<br>----- ----- ---------- --- --- ------ ------ ---- -- ------<br>------- --- ------ ----- --- ---- ------- -- ---- --- --<br>------- ------,130047.98000003211,130039.65499997139,129475.285,129476.02499998175,129491.951,130058.595,,18,order
screen,html.Screen,1_1_1_1_19,2021-04-11T18:01:36.486Z,,,,,,,,,,,,,,,,54,,,,,,,,,,,,,,584.8900000077847,,response,,,,100,,,,,,,Space,keypress(Space),,,,,,,,-- --- ---- --- ------ ----- ------- ---- -- --- ------- --<br>------- ---------- ------ -- ----- -- ----- to ---- ------<br>--- ----- --- --- ------ -------- ----- --- ------ ----- --<br>----- ----- ---------- --- --- ------ ------ ---- -- ------<br>------- --- ------ ----- --- ---- ------- -- ---- --- --<br>------- ------,130651.71999996528,130643.48500000779,130041.929,130048.21499995887,130058.595,130658.571,,19,to
screen,html.Screen,1_1_1_1_20,2021-04-11T18:01:36.841Z,,,,,,,,,,,,,,,,54,,,,,,,,,,,,,,340.1289999964647,,response,,,,100,,,,,,,Space,keypress(Space),,,,,,,,-- --- ---- --- ------ ----- ------- ---- -- --- ------- --<br>------- ---------- ------ -- ----- -- ----- -- save ------<br>--- ----- --- --- ------ -------- ----- --- ------ ----- --<br>----- ----- ---------- --- --- ------ ------ ---- -- ------<br>------- --- ------ ----- --- ---- ------- -- ---- --- --<br>------- ------,131007.40999996196,130998.69999999646,130641.905,130651.88500005752,130658.571,131008.557,,20,save
screen,html.Screen,1_1_1_1_21,2021-04-11T18:01:37.246Z,,,,,,,,,,,,,,,,54,,,,,,,,,,,,,,395.06800003538956,,response,,,,100,,,,,,,Space,keypress(Space),,,,,,,,"-- --- ---- --- ------ ----- ------- ---- -- --- ------- --<br>------- ---------- ------ -- ----- -- ----- -- ---- money,<br>--- ----- --- --- ------ -------- ----- --- ------ ----- --<br>----- ----- ---------- --- --- ------ ------ ---- -- ------<br>------- --- ------ ----- --- ---- ------- -- ---- --- --<br>------- ------",131411.7949999636,131403.6250000354,130991.891,131007.5750000542,131008.557,131425.207,,21,"money,"
screen,html.Screen,1_1_1_1_22,2021-04-11T18:01:37.602Z,,,,,,,,,,,,,,,,54,,,,,,,,,,,,,,334.2630000481731,,response,,,,100,,,,,,,Space,keypress(Space),,,,,,,,-- --- ---- --- ------ ----- ------- ---- -- --- ------- --<br>------- ---------- ------ -- ----- -- ----- -- ---- ------<br>the ----- --- --- ------ -------- ----- --- ------ ----- --<br>----- ----- ---------- --- --- ------ ------ ---- -- ------<br>------- --- ------ ----- --- ---- ------- -- ---- --- --<br>------- ------,131767.8049999522,131759.47000004817,131408.541,131411.95500001777,131425.207,131775.193,,22,the
screen,html.Screen,1_1_1_1_23,2021-04-11T18:01:37.912Z,,,,,,,,,,,,,,,,54,,,,,,,,,,,,,,294.8020000271208,,response,,,,100,,,,,,,Space,keypress(Space),,,,,,,,-- --- ---- --- ------ ----- ------- ---- -- --- ------- --<br>------- ---------- ------ -- ----- -- ----- -- ---- ------<br>--- state --- --- ------ -------- ----- --- ------ ----- --<br>----- ----- ---------- --- --- ------ ------ ---- -- ------<br>------- --- ------ ----- --- ---- ------- -- ---- --- --<br>------- ------,132078.28500005417,132069.99500002712,131758.527,131767.96500000637,131775.193,132091.847,,23,state
screen,html.Screen,1_1_1_1_24,2021-04-11T18:01:38.204Z,,,,,,,,,,,,,,,,54,,,,,,,,,,,,,,270.59300005534897,,response,,,,100,,,,,,,Space,keypress(Space),,,,,,,,-- --- ---- --- ------ ----- ------- ---- -- --- ------- --<br>------- ---------- ------ -- ----- -- ----- -- ---- ------<br>--- ----- cut --- ------ -------- ----- --- ------ ----- --<br>----- ----- ---------- --- --- ------ ------ ---- -- ------<br>------- --- ------ ----- --- ---- ------- -- ---- --- --<br>------- ------,132370.33499998506,132362.44000005536,132075.181,132078.51999998093,132091.847,132375.169,,24,cut
screen,html.Screen,1_1_1_1_25,2021-04-11T18:01:38.657Z,,,,,,,,,,,,,,,,54,,,,,,,,,,,,,,439.58600005763583,,response,,,,100,,,,,,,Space,keypress(Space),,,,,,,,-- --- ---- --- ------ ----- ------- ---- -- --- ------- --<br>------- ---------- ------ -- ----- -- ----- -- ---- ------<br>--- ----- --- the ------ -------- ----- --- ------ ----- --<br>----- ----- ---------- --- --- ------ ------ ---- -- ------<br>------- --- ------ ----- --- ---- ------- -- ---- --- --<br>------- ------,132822.73000001442,132814.75500005763,132358.503,132370.49500003923,132375.169,132825.151,,25,the
screen,html.Screen,1_1_1_1_26,2021-04-11T18:01:39.054Z,,,,,,,,,,,,,,,,54,,,,,,,,,,,,,,386.57400005921954,,response,,,,100,,,,,,,Space,keypress(Space),,,,,,,,-- --- ---- --- ------ ----- ------- ---- -- --- ------- --<br>------- ---------- ------ -- ----- -- ----- -- ---- ------<br>--- ----- --- --- bonds' -------- ----- --- ------ ----- --<br>----- ----- ---------- --- --- ------ ------ ---- -- ------<br>------- --- ------ ----- --- ---- ------- -- ---- --- --<br>------- ------,133219.7950000409,133211.72500005923,132808.485,132822.89499999024,132825.151,133225.135,,26,bonds'
screen,html.Screen,1_1_1_1_27,2021-04-11T18:01:39.409Z,,,,,,,,,,,,,,,,54,,,,,,,,,,,,,,341.420000026701,,response,,,,100,,,,,,,Space,keypress(Space),,,,,,,,-- --- ---- --- ------ ----- ------- ---- -- --- ------- --<br>------- ---------- ------ -- ----- -- ----- -- ---- ------<br>--- ----- --- --- ------ interest ----- --- ------ ----- --<br>----- ----- ---------- --- --- ------ ------ ---- -- ------<br>------- --- ------ ----- --- ---- ------- -- ---- --- --<br>------- ------,133574.59500001278,133566.5550000267,133208.469,133219.95499997865,133225.135,133591.787,,27,interest
screen,html.Screen,1_1_1_1_28,2021-04-11T18:01:39.824Z,,,,,,,,,,,,,,,,54,,,,,,,,,,,,,,389.91800004197285,,response,,,,100,,,,,,,Space,keypress(Space),,,,,,,,-- --- ---- --- ------ ----- ------- ---- -- --- ------- --<br>------- ---------- ------ -- ----- -- ----- -- ---- ------<br>--- ----- --- --- ------ -------- rate. --- ------ ----- --<br>----- ----- ---------- --- --- ------ ------ ---- -- ------<br>------- --- ------ ----- --- ---- ------- -- ---- --- --<br>------- ------,133989.57500001416,133981.70500004198,133575.121,133574.7599999886,133591.787,133991.771,,28,rate.
screen,html.Screen,1_1_1_1_29,2021-04-11T18:01:40.176Z,,,,,,,,,,,,,,,,54,,,,,,,,,,,,,,342.6440000484581,,response,,,,100,,,,,,,Space,keypress(Space),,,,,,,,-- --- ---- --- ------ ----- ------- ---- -- --- ------- --<br>------- ---------- ------ -- ----- -- ----- -- ---- ------<br>--- ----- --- --- ------ -------- ----- The ------ ----- --<br>----- ----- ---------- --- --- ------ ------ ---- -- ------<br>------- --- ------ ----- --- ---- ------- -- ---- --- --<br>------- ------,134342.37500000745,134334.41500004847,133975.105,133989.73999998998,133991.771,134358.423,,29,The
screen,html.Screen,1_1_1_1_30,2021-04-11T18:01:40.528Z,,,,,,,,,,,,,,,,54,,,,,,,,,,,,,,327.2069999635569,,response,,,,100,,,,,,,Space,keypress(Space),,,,,,,,-- --- ---- --- ------ ----- ------- ---- -- --- ------- --<br>------- ---------- ------ -- ----- -- ----- -- ---- ------<br>--- ----- --- --- ------ -------- ----- --- market ----- --<br>----- ----- ---------- --- --- ------ ------ ---- -- ------<br>------- --- ------ ----- --- ---- ------- -- ---- --- --<br>------- ------,134693.7550000148,134685.62999996357,134341.757,134342.53999998327,134358.423,134708.409,,30,market
screen,html.Screen,1_1_1_1_31,2021-04-11T18:01:40.908Z,,,,,,,,,,,,,,,,54,,,,,,,,,,,,,,358.02100000620703,,response,,,,100,,,,,,,Space,keypress(Space),,,,,,,,-- --- ---- --- ------ ----- ------- ---- -- --- ------- --<br>------- ---------- ------ -- ----- -- ----- -- ---- ------<br>--- ----- --- --- ------ -------- ----- --- ------ value --<br>----- ----- ---------- --- --- ------ ------ ---- -- ------<br>------- --- ------ ----- --- ---- ------- -- ---- --- --<br>------- ------,135073.93499999307,135066.43000000622,134691.743,134693.9199999906,134708.409,135075.061,,31,value
screen,html.Screen,1_1_1_1_32,2021-04-11T18:01:41.254Z,,,,,,,,,,,,,,,,54,,,,,,,,,,,,,,336.6139999812003,,response,,,,100,,,,,,,Space,keypress(Space),,,,,,,,-- --- ---- --- ------ ----- ------- ---- -- --- ------- --<br>------- ---------- ------ -- ----- -- ----- -- ---- ------<br>--- ----- --- --- ------ -------- ----- --- ------ ----- of<br>----- ----- ---------- --- --- ------ ------ ---- -- ------<br>------- --- ------ ----- --- ---- ------- -- ---- --- --<br>------- ------,135420.30999995768,135411.6749999812,135058.395,135074.09500004724,135075.061,135425.047,,32,of
screen,html.Screen,1_1_1_1_33,2021-04-11T18:01:41.643Z,,,,,,,,,,,,,,,,54,,,,,,,,,,,,,,376.272999969573,,response,,,,100,,,,,,,Space,keypress(Space),,,,,,,,-- --- ---- --- ------ ----- ------- ---- -- --- ------- --<br>------- ---------- ------ -- ----- -- ----- -- ---- ------<br>--- ----- --- --- ------ -------- ----- --- ------ ----- --<br>these ----- ---------- --- --- ------ ------ ---- -- ------<br>------- --- ------ ----- --- ---- ------- -- ---- --- --<br>------- ------,135808.97500005085,135801.31999996956,135408.381,135420.55000003893,135425.047,135825.031,,33,these
screen,html.Screen,1_1_1_1_34,2021-04-11T18:01:42.039Z,,,,,,,,,,,,,,,,54,,,,,,,,,,,,,,371.4739999999001,,response,,,,100,,,,,,,Space,keypress(Space),,,,,,,,-- --- ---- --- ------ ----- ------- ---- -- --- ------- --<br>------- ---------- ------ -- ----- -- ----- -- ---- ------<br>--- ----- --- --- ------ -------- ----- --- ------ ----- --<br>----- bonds ---------- --- --- ------ ------ ---- -- ------<br>------- --- ------ ----- --- ---- ------- -- ---- --- --<br>------- ------,136204.57499998156,136196.5049999999,135808.365,135809.1349999886,135825.031,136211.357,,34,bonds
screen,html.Screen,1_1_1_1_35,2021-04-11T18:01:42.363Z,,,,,,,,,,,,,,,,54,,,,,,,,,,,,,,309.3480000317504,,response,,,,100,,,,,,,Space,keypress(Space),,,,,,,,"-- --- ---- --- ------ ----- ------- ---- -- --- ------- --<br>------- ---------- ------ -- ----- -- ----- -- ---- ------<br>--- ----- --- --- ------ -------- ----- --- ------ ----- --<br>----- ----- plummeted, --- --- ------ ------ ---- -- ------<br>------- --- ------ ----- --- ---- ------- -- ---- --- --<br>------- ------",136528.6700000288,136520.70500003174,136194.691,136204.74499999546,136211.357,136544.677,,35,"plummeted,"
screen,html.Screen,1_1_1_1_36,2021-04-11T18:01:42.766Z,,,,,,,,,,,,,,,,54,,,,,,,,,,,,,,378.96300005182275,,response,,,,100,,,,,,,Space,keypress(Space),,,,,,,,-- --- ---- --- ------ ----- ------- ---- -- --- ------- --<br>------- ---------- ------ -- ----- -- ----- -- ---- ------<br>--- ----- --- --- ------ -------- ----- --- ------ ----- --<br>----- ----- ---------- and --- ------ ------ ---- -- ------<br>------- --- ------ ----- --- ---- ------- -- ---- --- --<br>------- ------,136931.90500000492,136923.64000005182,136528.011,136528.8400000427,136544.677,136944.661,,36,and
screen,html.Screen,1_1_1_1_37,2021-04-11T18:01:43.141Z,,,,,,,,,,,,,,,,54,,,,,,,,,,,,,,355.11399996312684,,response,,,,100,,,,,,,Space,keypress(Space),,,,,,,,-- --- ---- --- ------ ----- ------- ---- -- --- ------- --<br>------- ---------- ------ -- ----- -- ----- -- ---- ------<br>--- ----- --- --- ------ -------- ----- --- ------ ----- --<br>----- ----- ---------- --- the ------ ------ ---- -- ------<br>------- --- ------ ----- --- ---- ------- -- ---- --- --<br>------- ------,137307.3250000598,137299.77499996312,136927.995,136932.1100000525,136944.661,137311.313,,37,the
screen,html.Screen,1_1_1_1_38,2021-04-11T18:01:43.474Z,,,,,,,,,,,,,,,,54,,,,,,,,,,,,,,320.2370000491792,,response,,,,100,,,,,,,Space,keypress(Space),,,,,,,,-- --- ---- --- ------ ----- ------- ---- -- --- ------- --<br>------- ---------- ------ -- ----- -- ----- -- ---- ------<br>--- ----- --- --- ------ -------- ----- --- ------ ----- --<br>----- ----- ---------- --- --- market ------ ---- -- ------<br>------- --- ------ ----- --- ---- ------- -- ---- --- --<br>------- ------,137639.58499999717,137631.55000004917,137294.647,137307.4900000356,137311.313,137644.633,,38,market
screen,html.Screen,1_1_1_1_39,2021-04-11T18:01:43.906Z,,,,,,,,,,,,,,,,54,,,,,,,,,,,,,,418.8970000431,,response,,,,100,,,,,,,Space,keypress(Space),,,,,,,,-- --- ---- --- ------ ----- ------- ---- -- --- ------- --<br>------- ---------- ------ -- ----- -- ----- -- ---- ------<br>--- ----- --- --- ------ -------- ----- --- ------ ----- --<br>----- ----- ---------- --- --- ------ became ---- -- ------<br>------- --- ------ ----- --- ---- ------- -- ---- --- --<br>------- ------,138071.8249999918,138063.5300000431,137627.967,137639.824999962,137644.633,138077.949,,39,became
screen,html.Screen,1_1_1_1_40,2021-04-11T18:01:44.297Z,,,,,,,,,,,,,,,,54,,,,,,,,,,,,,,377.54600000198116,,response,,,,100,,,,,,,Space,keypress(Space),,,,,,,,-- --- ---- --- ------ ----- ------- ---- -- --- ------- --<br>------- ---------- ------ -- ----- -- ----- -- ---- ------<br>--- ----- --- --- ------ -------- ----- --- ------ ----- --<br>----- ----- ---------- --- --- ------ ------ wary -- ------<br>------- --- ------ ----- --- ---- ------- -- ---- --- --<br>------- ------,138463.1900000386,138455.49500000197,138061.283,138071.98500004597,138077.949,138477.933,,40,wary
screen,html.Screen,1_1_1_1_41,2021-04-11T18:01:44.802Z,,,,,,,,,,,,,,,,54,,,,,,,,,,,,,,481.4869999701332,,response,,,,100,,,,,,,Space,keypress(Space),,,,,,,,-- --- ---- --- ------ ----- ------- ---- -- --- ------- --<br>------- ---------- ------ -- ----- -- ----- -- ---- ------<br>--- ----- --- --- ------ -------- ----- --- ------ ----- --<br>----- ----- ---------- --- --- ------ ------ ---- of ------<br>------- --- ------ ----- --- ---- ------- -- ---- --- --<br>------- ------,138967.99000003375,138959.41999997012,138461.267,138463.39499996975,138477.933,138977.913,,41,of
screen,html.Screen,1_1_1_1_42,2021-04-11T18:01:45.176Z,,,,,,,,,,,,,,,,54,,,,,,,,,,,,,,356.7920000447775,,response,,,,100,,,,,,,Space,keypress(Space),,,,,,,,-- --- ---- --- ------ ----- ------- ---- -- --- ------- --<br>------- ---------- ------ -- ----- -- ----- -- ---- ------<br>--- ----- --- --- ------ -------- ----- --- ------ ----- --<br>----- ----- ---------- --- --- ------ ------ ---- -- French<br>------- --- ------ ----- --- ---- ------- -- ---- --- --<br>------- ------,139341.87999996357,139334.70500004478,138961.247,138968.2249999605,138977.913,139344.565,,42,French
screen,html.Screen,1_1_1_1_43,2021-04-11T18:01:45.476Z,,,,,,,,,,,,,,,,54,,,,,,,,,,,,,,293.6849999599508,,response,,,,100,,,,,,,Space,keypress(Space),,,,,,,,-- --- ---- --- ------ ----- ------- ---- -- --- ------- --<br>------- ---------- ------ -- ----- -- ----- -- ---- ------<br>--- ----- --- --- ------ -------- ----- --- ------ ----- --<br>----- ----- ---------- --- --- ------ ------ ---- -- ------<br>credit. --- ------ ----- --- ---- ------- -- ---- --- --<br>------- ------,139642.20999996178,139638.24999995995,139327.899,139342.0450000558,139344.565,139644.553,,43,credit.
screen,html.Screen,1_1_1_1_44,2021-04-11T18:01:45.880Z,,,,,,,,,,,,,,,,54,,,,,,,,,,,,,,397.7769999674638,,response,,,,100,,,,,,,Space,keypress(Space),,,,,,,,-- --- ---- --- ------ ----- ------- ---- -- --- ------- --<br>------- ---------- ------ -- ----- -- ----- -- ---- ------<br>--- ----- --- --- ------ -------- ----- --- ------ ----- --<br>----- ----- ---------- --- --- ------ ------ ---- -- ------<br>------- The ------ ----- --- ---- ------- -- ---- --- --<br>------- ------,140046.01000004914,140042.32999996748,139627.887,139642.32500002254,139644.553,140061.203,,44,The
screen,html.Screen,1_1_1_1_45,2021-04-11T18:01:46.228Z,,,,,,,,,,,,,,,,54,,,,,,,,,,,,,,325.14700004432234,,response,,,,100,,,,,,,Space,keypress(Space),,,,,,,,-- --- ---- --- ------ ----- ------- ---- -- --- ------- --<br>------- ---------- ------ -- ----- -- ----- -- ---- ------<br>--- ----- --- --- ------ -------- ----- --- ------ ----- --<br>----- ----- ---------- --- --- ------ ------ ---- -- ------<br>------- --- French ----- --- ---- ------- -- ---- --- --<br>------- ------,140394.55500000622,140386.35000004433,140044.537,140046.08000000007,140061.203,140411.189,,45,French
screen,html.Screen,1_1_1_1_46,2021-04-11T18:01:46.541Z,,,,,,,,,,,,,,,,54,,,,,,,,,,,,,,287.2259999916423,,response,,,,100,,,,,,,Space,keypress(Space),,,,,,,,-- --- ---- --- ------ ----- ------- ---- -- --- ------- --<br>------- ---------- ------ -- ----- -- ----- -- ---- ------<br>--- ----- --- --- ------ -------- ----- --- ------ ----- --<br>----- ----- ---------- --- --- ------ ------ ---- -- ------<br>------- --- ------ state --- ---- ------- -- ---- --- --<br>------- ------,140706.6450000275,140698.41499999166,140394.523,140394.71999998204,140411.189,140711.177,,46,state
screen,html.Screen,1_1_1_1_47,2021-04-11T18:01:47.028Z,,,,,,,,,,,,,,,,54,,,,,,,,,,,,,,475.35799998618313,,response,,,,100,,,,,,,Space,keypress(Space),,,,,,,,-- --- ---- --- ------ ----- ------- ---- -- --- ------- --<br>------- ---------- ------ -- ----- -- ----- -- ---- ------<br>--- ----- --- --- ------ -------- ----- --- ------ ----- --<br>----- ----- ---------- --- --- ------ ------ ---- -- ------<br>------- --- ------ ----- was ---- ------- -- ---- --- --<br>------- ------,141194.5550000528,141186.53499998618,140694.511,140706.81999996305,140711.177,141211.157,,47,was
screen,html.Screen,1_1_1_1_48,2021-04-11T18:01:47.470Z,,,,,,,,,,,,,,,,54,,,,,,,,,,,,,,417.22300000919495,,response,,,,100,,,,,,,Space,keypress(Space),,,,,,,,-- --- ---- --- ------ ----- ------- ---- -- --- ------- --<br>------- ---------- ------ -- ----- -- ----- -- ---- ------<br>--- ----- --- --- ------ -------- ----- --- ------ ----- --<br>----- ----- ---------- --- --- ------ ------ ---- -- ------<br>------- --- ------ ----- --- left ------- -- ---- --- --<br>------- ------,141635.79500000924,141628.3800000092,141194.491,141194.7200000286,141211.157,141644.473,,48,left
screen,html.Screen,1_1_1_1_49,2021-04-11T18:01:47.885Z,,,,,,,,,,,,,,,,54,,,,,,,,,,,,,,399.17700000689365,,response,,,,100,,,,,,,Space,keypress(Space),,,,,,,,-- --- ---- --- ------ ----- ------- ---- -- --- ------- --<br>------- ---------- ------ -- ----- -- ----- -- ---- ------<br>--- ----- --- --- ------ -------- ----- --- ------ ----- --<br>----- ----- ---------- --- --- ------ ------ ---- -- ------<br>------- --- ------ ----- --- ---- without -- ---- --- --<br>------- ------,142051.23500002082,142043.6500000069,141627.807,141635.9700000612,141644.473,142061.123,,49,without
screen,html.Screen,1_1_1_1_50,2021-04-11T18:01:48.244Z,,,,,,,,,,,,,,,,54,,,,,,,,,,,,,,341.327000052348,,response,,,,100,,,,,,,Space,keypress(Space),,,,,,,,-- --- ---- --- ------ ----- ------- ---- -- --- ------- --<br>------- ---------- ------ -- ----- -- ----- -- ---- ------<br>--- ----- --- --- ------ -------- ----- --- ------ ----- --<br>----- ----- ---------- --- --- ------ ------ ---- -- ------<br>------- --- ------ ----- --- ---- ------- an ---- --- --<br>------- ------,142410.52999999374,142402.45000005234,142044.457,142051.39999999665,142061.123,142427.775,,50,an
screen,html.Screen,1_1_1_1_51,2021-04-11T18:01:48.609Z,,,,,,,,,,,,,,,,54,,,,,,,,,,,,,,338.9799999896495,,response,,,,100,,,,,,,Space,keypress(Space),,,,,,,,-- --- ---- --- ------ ----- ------- ---- -- --- ------- --<br>------- ---------- ------ -- ----- -- ----- -- ---- ------<br>--- ----- --- --- ------ -------- ----- --- ------ ----- --<br>----- ----- ---------- --- --- ------ ------ ---- -- ------<br>------- --- ------ ----- --- ---- ------- -- easy --- --<br>------- ------,142774.94000003207,142766.75499998964,142411.109,142410.70000000764,142427.775,142777.761,,51,easy
screen,html.Screen,1_1_1_1_52,2021-04-11T18:01:49.028Z,,,,,,,,,,,,,,,,54,,,,,,,,,,,,,,407.6140000009327,,response,,,,100,,,,,,,Space,keypress(Space),,,,,,,,-- --- ---- --- ------ ----- ------- ---- -- --- ------- --<br>------- ---------- ------ -- ----- -- ----- -- ---- ------<br>--- ----- --- --- ------ -------- ----- --- ------ ----- --<br>----- ----- ---------- --- --- ------ ------ ---- -- ------<br>------- --- ------ ----- --- ---- ------- -- ---- way --<br>------- ------,143193.65499995183,143185.37500000093,142761.095,142775.1050000079,142777.761,143211.077,,52,way
screen,html.Screen,1_1_1_1_53,2021-04-11T18:01:49.422Z,,,,,,,,,,,,,,,,54,,,,,,,,,,,,,,368.46799998596543,,response,,,,100,,,,,,,Space,keypress(Space),,,,,,,,-- --- ---- --- ------ ----- ------- ---- -- --- ------- --<br>------- ---------- ------ -- ----- -- ----- -- ---- ------<br>--- ----- --- --- ------ -------- ----- --- ------ ----- --<br>----- ----- ---------- --- --- ------ ------ ---- -- ------<br>------- --- ------ ----- --- ---- ------- -- ---- --- of<br>------- ------,143588.0350000225,143579.54499998596,143194.411,143193.91499995254,143211.077,143594.395,,53,of
screen,html.Screen,1_1_1_1_54,2021-04-11T18:01:49.782Z,,,,,,,,,,,,,,,,54,,,,,,,,,,,,,,345.3250000239641,,response,,,,100,,,,,,,Space,keypress(Space),,,,,,,,-- --- ---- --- ------ ----- ------- ---- -- --- ------- --<br>------- ---------- ------ -- ----- -- ----- -- ---- ------<br>--- ----- --- --- ------ -------- ----- --- ------ ----- --<br>----- ----- ---------- --- --- ------ ------ ---- -- ------<br>------- --- ------ ----- --- ---- ------- -- ---- --- --<br>raising ------,143947.7200000547,143939.72000002395,143577.729,143588.28999998514,143594.395,143961.047,,54,raising
screen,html.Screen,1_1_1_1_55,2021-04-11T18:01:50.406Z,,,,,,,,,,,,,,,,54,,,,,,,,,,,,,,602.7380000057456,,response,,,,100,,,,,,,Space,keypress(Space),,,,,,,,-- --- ---- --- ------ ----- ------- ---- -- --- ------- --<br>------- ---------- ------ -- ----- -- ----- -- ---- ------<br>--- ----- --- --- ------ -------- ----- --- ------ ----- --<br>----- ----- ---------- --- --- ------ ------ ---- -- ------<br>------- --- ------ ----- --- ---- ------- -- ---- --- --<br>------- money.,144572.1200000262,144563.78500000574,143944.381,143947.8850000305,143961.047,144577.689,,55,money.
Item 100,flow.Loop,1_1_1_1,2021-04-11T18:01:50.406Z,,,,,,,,,,,,,,,,,,,,,,,,,,,,,,24286.38200000573,,completion,,,,,B,,,,,,,,,,,silence,,,,,144572.55499996245,144563.78500000574,120260.737,120264.01000004262,120277.403,144577.689,,,
Question 1,html.Screen,1_1_1_2,2021-04-11T18:01:52.542Z,,,,,,,,,,,,,,,,,,,,,,,,,,,true,TRUE,,2127.676000059815,,response,,,,100,B,,,,,,TRUE,click #choice-1,,,,silence,,,,,146708.25000002515,146705.36500005983,144561.023,144572.67500006128,144577.689,146712.823,,,
Question 2,html.Screen,1_1_1_3,2021-04-11T18:01:54.822Z,,,,,,,,,,,,,,,,,,,,,,,,,,,true,FALSE,,2271.396999983903,,response,,,,100,B,,,,,,FALSE,click #choice-2,,,,silence,,,,,148988.36499999743,148984.2199999839,146696.157,146708.42000003904,146712.823,148996.065,,,
Item 100,flow.Sequence,1_1_1,2021-04-11T18:01:54.823Z,,,,,,,,,,,,,,,,,,,,,,,,,,,,,,38701.83899998391,,completion,,,,,,,,,,,,,,,,,,,,,148988.7550000567,148984.2199999839,110265.715,110272.84500002861,110282.381,148996.065,,,
End of Practice,html.Page,1_1_2,2021-04-11T18:01:57.214Z,,,,,,,,,,,,,,,,,,,,,,,,,,,,,,2383.8300000200397,,form submission,,,,,,,,,,,,,,,,,,,,,151380.37999998778,151379.89500002004,148979.399,148988.92499995418,148996.065,151395.969,,,
Practice,flow.Sequence,1_1,2021-04-11T18:01:57.215Z,,,,,,,,,,,,,,,,,,,,,,,,,,,,,,82855.77400002004,,completion,,,,,,,,,,,,,,,,,,,,,151380.81000000238,151379.89500002004,68507.455,68512.10499997251,68524.121,151395.969,,,
Trap_instruction,html.Page,1_2_0,2021-04-11T18:02:04.154Z,,,,,,,,,,,,,,,,,,,,,,,,,,,,,,6924.005999991234,,form submission,,,,,,,,,,,,,,,,,,,,,158320.41499996558,158319.97499999125,151379.303,151381.0400000075,151395.969,158333.711,,,
trap_trial,html.Screen,1_2_1,2021-04-11T18:02:07.764Z,,,,,,,,,,,,,,,,,,,,,,,,,,,true,1,,3591.8490000033053,,response,,,,,,,,,,,1,click #choice-1,,,,,,,,,161929.90500002634,161925.56000000332,158317.045,158320.65000000875,158333.711,161933.567,,,
end of trap trial,html.Page,1_2_2,2021-04-11T18:02:09.242Z,,,,,,,,,,,,,,,,,,,,,,,,,,,,,,1474.2780000379134,,form submission,,,,,,,,,,,,,,,,,,,,,163408.20499998517,163407.84500003792,161916.901,161930.17499998678,161933.567,163416.841,,,
Trap 1,flow.Sequence,1_2,2021-04-11T18:02:09.242Z,,,,,,,,,,,,,,,,,,,,,,,,,,,,,,12011.876000037912,,completion,,,,,,,,,,,,,,,,,,,,,163408.45500002615,163407.84500003792,151379.303,151380.97000005655,151395.969,163416.841,,,
Standby,html.Page,1_3_0,2021-04-11T18:02:17.236Z,,,,,,,,,,,,,,,,,,,,,,,,,,,,,,7999.680000000022,,timeout,,,,,,,,,,,,,,,,,,,,,171402.2099999711,171399.855,163400.175,163408.60500000417,163416.841,171416.521,,,
Holding screen,html.Screen,1_3_1_0_0,2021-04-11T18:02:24.229Z,,,,,,,,,,,,,,,,,,,,,,,,,,,,,,6993.391000000003,,timeout,,,,,,,,,,,,,,,,,,,,,178395.31499997247,178393.246,171399.855,171402.31000003405,171416.521,178409.912,,,
screen,html.Screen,1_3_1_0_1_0,2021-04-11T18:02:31.229Z,,,,,,,,,,,,,,,,2,,,,,,,,,,,,,,6999.720000000001,,timeout,,,,1,B,,,,,,,,,,,lyrical,,,,Two ---- ------ --- ------- ---------- ------- ----------<br>--- --------- --- ----------- ------- ----- ------- ---<br>--------- ---- -- --- ---- -- --------- -- ---- -------<br>-- --------- ------ --- ----- ------ ---- --- --------- --<br>------ - ---- -- --- ----------- ------- ---- ----- -----<br>--- -------- - ------ ---- -- ----- ---- --- --- -----------<br>-- -------,185395.12000000104,185392.966,178393.246,178395.52999997977,178409.912,185409.632,,0,Two
screen,html.Screen,1_3_1_0_1_1,2021-04-11T18:02:38.228Z,,,,,,,,,,,,,,,,2,,,,,,,,,,,,,,6999.720000000001,,timeout,,,,1,B,,,,,,,,,,,lyrical,,,,--- days ------ --- ------- ---------- ------- ----------<br>--- --------- --- ----------- ------- ----- ------- ---<br>--------- ---- -- --- ---- -- --------- -- ---- -------<br>-- --------- ------ --- ----- ------ ---- --- --------- --<br>------ - ---- -- --- ----------- ------- ---- ----- -----<br>--- -------- - ------ ---- -- ----- ---- --- --- -----------<br>-- -------,192394.48500005528,192392.686,185392.966,185395.19499999005,185409.632,192409.352,,1,days
screen,html.Screen,1_3_1_0_1_2,2021-04-11T18:02:42.908Z,,,,,,,,,,,,,,,,2,,,,,,,,,,,,,,4657.36800000252,,response,,,,1,B,,,,,,Space,keypress(Space),,,,lyrical,,,,"--- ---- later, --- ------- ---------- ------- ----------<br>--- --------- --- ----------- ------- ----- ------- ---<br>--------- ---- -- --- ---- -- --------- -- ---- -------<br>-- --------- ------ --- ----- ------ ---- --- --------- --<br>------ - ---- -- --- ----------- ------- ---- ----- -----<br>--- -------- - ------ ---- -- ----- ---- --- --- -----------<br>-- -------",197074.78000002448,197066.72000000253,192392.686,192394.5600000443,192409.352,197082.917,,2,"later,"
screen,html.Screen,1_3_1_0_1_3,2021-04-11T18:02:43.639Z,,,,,,,,,,,,,,,,2,,,,,,,,,,,,,,718.5930000193475,,response,,,,1,B,,,,,,Space,keypress(Space),,,,lyrical,,,,--- ---- ------ the ------- ---------- ------- ----------<br>--- --------- --- ----------- ------- ----- ------- ---<br>--------- ---- -- --- ---- -- --------- -- ---- -------<br>-- --------- ------ --- ----- ------ ---- --- --------- --<br>------ - ---- -- --- ----------- ------- ---- ----- -----<br>--- -------- - ------ ---- -- ----- ---- --- --- -----------<br>-- -------,197805.76500005554,197801.51000001933,197066.251,197074.9599999981,197082.917,197816.221,,3,the
screen,html.Screen,1_3_1_0_1_4,2021-04-11T18:02:50.636Z,,,,,,,,,,,,,,,,2,,,,,,,,,,,,,,6999.96100000001,,timeout,,,,1,B,,,,,,,,,,,lyrical,,,,--- ---- ------ --- British ---------- ------- ----------<br>--- --------- --- ----------- ------- ----- ------- ---<br>--------- ---- -- --- ---- -- --------- -- ---- -------<br>-- --------- ------ --- ----- ------ ---- --- --------- --<br>------ - ---- -- --- ----------- ------- ---- ----- -----<br>--- -------- - ------ ---- -- ----- ---- --- --- -----------<br>-- -------,204802.52000002656,204799.516,197799.555,197805.87499996182,197816.221,204816.182,,4,British
screen,html.Screen,1_3_1_0_1_5,2021-04-11T18:02:55.133Z,,,,,,,,,,,,,,,,2,,,,,,,,,,,,,,4477.9430000149005,,response,,,,1,B,,,,,,Space,keypress(Space),,,,lyrical,,,,--- ---- ------ --- ------- astronomer ------- ----------<br>--- --------- --- ----------- ------- ----- ------- ---<br>--------- ---- -- --- ---- -- --------- -- ---- -------<br>-- --------- ------ --- ----- ------ ---- --- --------- --<br>------ - ---- -- --- ----------- ------- ---- ----- -----<br>--- -------- - ------ ---- -- ----- ---- --- --- -----------<br>-- -------,209299.11000002176,209294.1250000149,204799.516,204802.76500002947,204816.182,209316.002,,5,astronomer
screen,html.Screen,1_3_1_0_1_6,2021-04-11T18:02:59.409Z,,,,,,,,,,,,,,,,2,,,,,,,,,,,,,,4251.36300002443,,response,,,,1,B,,,,,,Space,keypress(Space),,,,lyrical,,,,--- ---- ------ --- ------- ---------- Richard ----------<br>--- --------- --- ----------- ------- ----- ------- ---<br>--------- ---- -- --- ---- -- --------- -- ---- -------<br>-- --------- ------ --- ----- ------ ---- --- --------- --<br>------ - ---- -- --- ----------- ------- ---- ----- -----<br>--- -------- - ------ ---- -- ----- ---- --- --- -----------<br>-- -------,213575.8350000251,213567.36500002444,209299.336,209299.31000003126,209316.002,213582.498,,6,Richard
screen,html.Screen,1_3_1_0_1_7,2021-04-11T18:03:00.758Z,,,,,,,,,,,,,,,,2,,,,,,,,,,,,,,1333.561999959551,,response,,,,1,B,,,,,,Space,keypress(Space),,,,lyrical,,,,--- ---- ------ --- ------- ---------- ------- Carrington<br>--- --------- --- ----------- ------- ----- ------- ---<br>--------- ---- -- --- ---- -- --------- -- ---- -------<br>-- --------- ------ --- ----- ------ ---- --- --------- --<br>------ - ---- -- --- ----------- ------- ---- ----- -----<br>--- -------- - ------ ---- -- ----- ---- --- --- -----------<br>-- -------,214924.19000004884,214916.05999995954,213565.832,213576.00000000093,213582.498,214940.792,,7,Carrington
screen,html.Screen,1_3_1_0_1_8,2021-04-11T18:03:07.759Z,,,,,,,,,,,,,,,,2,,,,,,,,,,,,,,6999.720000000001,,timeout,,,,1,B,,,,,,,,,,,lyrical,,,,--- ---- ------ --- ------- ---------- ------- ----------<br>was --------- --- ----------- ------- ----- ------- ---<br>--------- ---- -- --- ---- -- --------- -- ---- -------<br>-- --------- ------ --- ----- ------ ---- --- --------- --<br>------ - ---- -- --- ----------- ------- ---- ----- -----<br>--- -------- - ------ ---- -- ----- ---- --- --- -----------<br>-- -------,221925.3000000026,221923.846,214924.126,214924.35500002466,214940.792,221940.512,,8,was
screen,html.Screen,1_3_1_0_1_9,2021-04-11T18:03:09.233Z,,,,,,,,,,,,,,,,2,,,,,,,,,,,,,,1449.518000009586,,response,,,,1,B,,,,,,Space,keypress(Space),,,,lyrical,,,,--- ---- ------ --- ------- ---------- ------- ----------<br>--- observing --- ----------- ------- ----- ------- ---<br>--------- ---- -- --- ---- -- --------- -- ---- -------<br>-- --------- ------ --- ----- ------ ---- --- --------- --<br>------ - ---- -- --- ----------- ------- ---- ----- -----<br>--- -------- - ------ ---- -- ----- ---- --- --- -----------<br>-- -------,223399.52500001527,223390.03000000957,221923.846,221925.4700000165,221940.512,223407.12,,9,observing
screen,html.Screen,1_3_1_0_1_10,2021-04-11T18:03:09.971Z,,,,,,,,,,,,,,,,2,,,,,,,,,,,,,,722.5900000083493,,response,,,,1,B,,,,,,Space,keypress(Space),,,,lyrical,,,,--- ---- ------ --- ------- ---------- ------- ----------<br>--- --------- the ----------- ------- ----- ------- ---<br>--------- ---- -- --- ---- -- --------- -- ---- -------<br>-- --------- ------ --- ----- ------ ---- --- --------- --<br>------ - ---- -- --- ----------- ------- ---- ----- -----<br>--- -------- - ------ ---- -- ----- ---- --- --- -----------<br>-- -------,224137.66500004567,224129.71000000834,223390.454,223399.69500002917,223407.12,224141.997,,10,the
screen,html.Screen,1_3_1_0_1_11,2021-04-11T18:03:10.621Z,,,,,,,,,,,,,,,,2,,,,,,,,,,,,,,637.7379999891564,,response,,,,1,B,,,,,,Space,keypress(Space),,,,lyrical,,,,--- ---- ------ --- ------- ---------- ------- ----------<br>--- --------- --- interesting ------- ----- ------- ---<br>--------- ---- -- --- ---- -- --------- -- ---- -------<br>-- --------- ------ --- ----- ------ ---- --- --------- --<br>------ - ---- -- --- ----------- ------- ---- ----- -----<br>--- -------- - ------ ---- -- ----- ---- --- --- -----------<br>-- -------,224787.51000005286,224779.73499998916,224125.331,224137.8300000215,224141.997,224791.971,,11,interesting
screen,html.Screen,1_3_1_0_1_12,2021-04-11T18:03:11.140Z,,,,,,,,,,,,,,,,2,,,,,,,,,,,,,,506.82399995150627,,response,,,,1,B,,,,,,Space,keypress(Space),,,,lyrical,,,,--- ---- ------ --- ------- ---------- ------- ----------<br>--- --------- --- ----------- sunspot ----- ------- ---<br>--------- ---- -- --- ---- -- --------- -- ---- -------<br>-- --------- ------ --- ----- ------ ---- --- --------- --<br>------ - ---- -- --- ----------- ------- ---- ----- -----<br>--- -------- - ------ ---- -- ----- ---- --- --- -----------<br>-- -------,225306.93500000052,225298.7949999515,224775.305,224787.67500002868,224791.971,225308.617,,12,sunspot
screen,html.Screen,1_3_1_0_1_13,2021-04-11T18:03:11.532Z,,,,,,,,,,,,,,,,2,,,,,,,,,,,,,,382.3379999982135,,response,,,,1,B,,,,,,Space,keypress(Space),,,,lyrical,,,,--- ---- ------ --- ------- ---------- ------- ----------<br>--- --------- --- ----------- ------- group ------- ---<br>--------- ---- -- --- ---- -- --------- -- ---- -------<br>-- --------- ------ --- ----- ------ ---- --- --------- --<br>------ - ---- -- --- ----------- ------- ---- ----- -----<br>--- -------- - ------ ---- -- ----- ---- --- --- -----------<br>-- -------,225698.60500004143,225690.9549999982,225291.951,225307.09999997634,225308.617,225708.601,,13,group
screen,html.Screen,1_3_1_0_1_14,2021-04-11T18:03:11.925Z,,,,,,,,,,,,,,,,2,,,,,,,,,,,,,,375.1090000353579,,response,,,,1,B,,,,,,Space,keypress(Space),,,,lyrical,,,,--- ---- ------ --- ------- ---------- ------- ----------<br>--- --------- --- ----------- ------- ----- through ---<br>--------- ---- -- --- ---- -- --------- -- ---- -------<br>-- --------- ------ --- ----- ------ ---- --- --------- --<br>------ - ---- -- --- ----------- ------- ---- ----- -----<br>--- -------- - ------ ---- -- ----- ---- --- --- -----------<br>-- -------,226091.43499995116,226083.71000003535,225691.935,225698.79499997478,225708.601,226108.585,,14,through
screen,html.Screen,1_3_1_0_1_15,2021-04-11T18:03:12.346Z,,,,,,,,,,,,,,,,2,,,,,,,,,,,,,,396.0749999768741,,response,,,,1,B,,,,,,Space,keypress(Space),,,,lyrical,,,,--- ---- ------ --- ------- ---------- ------- ----------<br>--- --------- --- ----------- ------- ----- ------- his<br>--------- ---- -- --- ---- -- --------- -- ---- -------<br>-- --------- ------ --- ----- ------ ---- --- --------- --<br>------ - ---- -- --- ----------- ------- ---- ----- -----<br>--- -------- - ------ ---- -- ----- ---- --- --- -----------<br>-- -------,226512.98999995925,226504.65999997687,226091.919,226091.60499996506,226108.585,226525.235,,15,his
screen,html.Screen,1_3_1_0_1_16,2021-04-11T18:03:12.846Z,,,,,,,,,,,,,,,,2,,,,,,,,,,,,,,479.2800000369316,,response,,,,1,B,,,,,,Space,keypress(Space),,,,lyrical,,,,--- ---- ------ --- ------- ---------- ------- ----------<br>--- --------- --- ----------- ------- ----- ------- ---<br>telescope ---- -- --- ---- -- --------- -- ---- -------<br>-- --------- ------ --- ----- ------ ---- --- --------- --<br>------ - ---- -- --- ----------- ------- ---- ----- -----<br>--- -------- - ------ ---- -- ----- ---- --- --- -----------<br>-- -------,227012.36499997322,227004.51500003692,226508.569,226513.1500000134,226525.235,227025.215,,16,telescope
screen,html.Screen,1_3_1_0_1_17,2021-04-11T18:03:13.192Z,,,,,,,,,,,,,,,,2,,,,,,,,,,,,,,324.7999999745225,,response,,,,1,B,,,,,,Space,keypress(Space),,,,lyrical,,,,--- ---- ------ --- ------- ---------- ------- ----------<br>--- --------- --- ----------- ------- ----- ------- ---<br>--------- when -- --- ---- -- --------- -- ---- -------<br>-- --------- ------ --- ----- ------ ---- --- --------- --<br>------ - ---- -- --- ----------- ------- ---- ----- -----<br>--- -------- - ------ ---- -- ----- ---- --- --- -----------<br>-- -------,227358.6349999532,227350.01499997452,227008.549,227012.52500002738,227025.215,227375.201,,17,when
screen,html.Screen,1_3_1_0_1_18,2021-04-11T18:03:13.512Z,,,,,,,,,,,,,,,,2,,,,,,,,,,,,,,299.3639999938896,,response,,,,1,B,,,,,,Space,keypress(Space),,,,lyrical,,,,--- ---- ------ --- ------- ---------- ------- ----------<br>--- --------- --- ----------- ------- ----- ------- ---<br>--------- ---- he --- ---- -- --------- -- ---- -------<br>-- --------- ------ --- ----- ------ ---- --- --------- --<br>------ - ---- -- --- ----------- ------- ---- ----- -----<br>--- -------- - ------ ---- -- ----- ---- --- --- -----------<br>-- -------,227678.30000002868,227674.5649999939,227358.535,227358.80000004545,227375.201,227691.855,,18,he
screen,html.Screen,1_3_1_0_1_19,2021-04-11T18:03:13.869Z,,,,,,,,,,,,,,,,2,,,,,,,,,,,,,,334.8450000458106,,response,,,,1,B,,,,,,Space,keypress(Space),,,,lyrical,,,,--- ---- ------ --- ------- ---------- ------- ----------<br>--- --------- --- ----------- ------- ----- ------- ---<br>--------- ---- -- saw ---- -- --------- -- ---- -------<br>-- --------- ------ --- ----- ------ ---- --- --------- --<br>------ - ---- -- --- ----------- ------- ---- ----- -----<br>--- -------- - ------ ---- -- ----- ---- --- --- -----------<br>-- -------,228035.1700000465,228026.70000004582,227675.189,227678.39500005357,227691.855,228041.841,,19,saw
screen,html.Screen,1_3_1_0_1_20,2021-04-11T18:03:14.590Z,,,,,,,,,,,,,,,,2,,,,,,,,,,,,,,709.6239999793761,,response,,,,1,B,,,,,,Space,keypress(Space),,,,lyrical,,,,--- ---- ------ --- ------- ---------- ------- ----------<br>--- --------- --- ----------- ------- ----- ------- ---<br>--------- ---- -- --- what -- --------- -- ---- -------<br>-- --------- ------ --- ----- ------ ---- --- --------- --<br>------ - ---- -- --- ----------- ------- ---- ----- -----<br>--- -------- - ------ ---- -- ----- ---- --- --- -----------<br>-- -------,228756.6700000316,228751.46499997936,228025.175,228035.32500006258,228041.841,228758.479,,20,what
screen,html.Screen,1_3_1_0_1_21,2021-04-11T18:03:15.069Z,,,,,,,,,,,,,,,,2,,,,,,,,,,,,,,469.50099996692734,,response,,,,1,B,,,,,,Space,keypress(Space),,,,lyrical,,,,--- ---- ------ --- ------- ---------- ------- ----------<br>--- --------- --- ----------- ------- ----- ------- ---<br>--------- ---- -- --- ---- he --------- -- ---- -------<br>-- --------- ------ --- ----- ------ ---- --- --------- --<br>------ - ---- -- --- ----------- ------- ---- ----- -----<br>--- -------- - ------ ---- -- ----- ---- --- --- -----------<br>-- -------,229235.39499996696,229227.97999996692,228741.813,228756.8700000411,228758.479,229241.793,,21,he
screen,html.Screen,1_3_1_0_1_22,2021-04-11T18:03:15.576Z,,,,,,,,,,,,,,,,2,,,,,,,,,,,,,,494.9120000466355,,response,,,,1,B,,,,,,Space,keypress(Space),,,,lyrical,,,,--- ---- ------ --- ------- ---------- ------- ----------<br>--- --------- --- ----------- ------- ----- ------- ---<br>--------- ---- -- --- ---- -- described -- ---- -------<br>-- --------- ------ --- ----- ------ ---- --- --------- --<br>------ - ---- -- --- ----------- ------- ---- ----- -----<br>--- -------- - ------ ---- -- ----- ---- --- --- -----------<br>-- -------,229742.07000003662,229736.70500004664,229225.127,229237.9700000165,229241.793,229758.439,,22,described
screen,html.Screen,1_3_1_0_1_23,2021-04-11T18:03:15.935Z,,,,,,,,,,,,,,,,2,,,,,,,,,,,,,,335.2309999729041,,response,,,,1,B,,,,,,Space,keypress(Space),,,,lyrical,,,,--- ---- ------ --- ------- ---------- ------- ----------<br>--- --------- --- ----------- ------- ----- ------- ---<br>--------- ---- -- --- ---- -- --------- as ---- -------<br>-- --------- ------ --- ----- ------ ---- --- --------- --<br>------ - ---- -- --- ----------- ------- ---- ----- -----<br>--- -------- - ------ ---- -- ----- ---- --- --- -----------<br>-- -------,230101.55000002123,230093.66999997292,229741.773,229742.19999997877,229758.439,230108.425,,23,as
screen,html.Screen,1_3_1_0_1_24,2021-04-11T18:03:16.297Z,,,,,,,,,,,,,,,,2,,,,,,,,,,,,,,348.2050000297022,,response,,,,1,B,,,,,,Space,keypress(Space),,,,lyrical,,,,"--- ---- ------ --- ------- ---------- ------- ----------<br>--- --------- --- ----------- ------- ----- ------- ---<br>--------- ---- -- --- ---- -- --------- -- ""two -------<br>-- --------- ------ --- ----- ------ ---- --- --------- --<br>------ - ---- -- --- ----------- ------- ---- ----- -----<br>--- -------- - ------ ---- -- ----- ---- --- --- -----------<br>-- -------",230463.5750000598,230456.6300000297,230091.759,230101.69499996118,230108.425,230475.077,,24,"""two"
screen,html.Screen,1_3_1_0_1_25,2021-04-11T18:03:16.685Z,,,,,,,,,,,,,,,,2,,,,,,,,,,,,,,368.5329999817186,,response,,,,1,B,,,,,,Space,keypress(Space),,,,lyrical,,,,--- ---- ------ --- ------- ---------- ------- ----------<br>--- --------- --- ----------- ------- ----- ------- ---<br>--------- ---- -- --- ---- -- --------- -- ---- patches<br>-- --------- ------ --- ----- ------ ---- --- --------- --<br>------ - ---- -- --- ----------- ------- ---- ----- -----<br>--- -------- - ------ ---- -- ----- ---- --- --- -----------<br>-- -------,230851.83499997947,230843.6099999817,230458.411,230463.71499996167,230475.077,230858.395,,25,patches
screen,html.Screen,1_3_1_0_1_26,2021-04-11T18:03:17.002Z,,,,,,,,,,,,,,,,2,,,,,,,,,,,,,,303.1999999541149,,response,,,,1,B,,,,,,Space,keypress(Space),,,,lyrical,,,,--- ---- ------ --- ------- ---------- ------- ----------<br>--- --------- --- ----------- ------- ----- ------- ---<br>--------- ---- -- --- ---- -- --------- -- ---- -------<br>of --------- ------ --- ----- ------ ---- --- --------- --<br>------ - ---- -- --- ----------- ------- ---- ----- -----<br>--- -------- - ------ ---- -- ----- ---- --- --- -----------<br>-- -------,231168.479999993,231161.5949999541,230841.729,230851.98000003584,230858.395,231175.049,,26,of
screen,html.Screen,1_3_1_0_1_27,2021-04-11T18:03:17.341Z,,,,,,,,,,,,,,,,2,,,,,,,,,,,,,,325.5259999545524,,response,,,,1,B,,,,,,Space,keypress(Space),,,,lyrical,,,,--- ---- ------ --- ------- ---------- ------- ----------<br>--- --------- --- ----------- ------- ----- ------- ---<br>--------- ---- -- --- ---- -- --------- -- ---- -------<br>-- intensely ------ --- ----- ------ ---- --- --------- --<br>------ - ---- -- --- ----------- ------- ---- ----- -----<br>--- -------- - ------ ---- -- ----- ---- --- --- -----------<br>-- -------,231507.80000002123,231500.57499995455,231158.383,231168.65500004496,231175.049,231525.035,,27,intensely
screen,html.Screen,1_3_1_0_1_28,2021-04-11T18:03:17.653Z,,,,,,,,,,,,,,,,2,,,,,,,,,,,,,,285.86999996207305,,response,,,,1,B,,,,,,Space,keypress(Space),,,,lyrical,,,,--- ---- ------ --- ------- ---------- ------- ----------<br>--- --------- --- ----------- ------- ----- ------- ---<br>--------- ---- -- --- ---- -- --------- -- ---- -------<br>-- --------- bright --- ----- ------ ---- --- --------- --<br>------ - ---- -- --- ----------- ------- ---- ----- -----<br>--- -------- - ------ ---- -- ----- ---- --- --- -----------<br>-- -------,231819.1700000316,231810.90499996208,231508.369,231507.94999999925,231525.035,231825.023,,28,bright
screen,html.Screen,1_3_1_0_1_29,2021-04-11T18:03:17.966Z,,,,,,,,,,,,,,,,2,,,,,,,,,,,,,,299.5420000637532,,response,,,,1,B,,,,,,Space,keypress(Space),,,,lyrical,,,,--- ---- ------ --- ------- ---------- ------- ----------<br>--- --------- --- ----------- ------- ----- ------- ---<br>--------- ---- -- --- ---- -- --------- -- ---- -------<br>-- --------- ------ and ----- ------ ---- --- --------- --<br>------ - ---- -- --- ----------- ------- ---- ----- -----<br>--- -------- - ------ ---- -- ----- ---- --- --- -----------<br>-- -------,232132.05000001471,232124.56500006374,231808.357,231819.31499997154,231825.023,232141.677,,29,and
screen,html.Screen,1_3_1_0_1_30,2021-04-11T18:03:18.318Z,,,,,,,,,,,,,,,,2,,,,,,,,,,,,,,334.19800000372925,,response,,,,1,B,,,,,,Space,keypress(Space),,,,lyrical,,,,--- ---- ------ --- ------- ---------- ------- ----------<br>--- --------- --- ----------- ------- ----- ------- ---<br>--------- ---- -- --- ---- -- --------- -- ---- -------<br>-- --------- ------ --- white ------ ---- --- --------- --<br>------ - ---- -- --- ----------- ------- ---- ----- -----<br>--- -------- - ------ ---- -- ----- ---- --- --- -----------<br>-- -------,232484.13999995682,232475.87500000373,232125.011,232132.19499995466,232141.677,232491.663,,30,white
screen,html.Screen,1_3_1_0_1_31,2021-04-11T18:03:18.651Z,,,,,,,,,,,,,,,,2,,,,,,,,,,,,,,321.86700004310114,,response,,,,1,B,,,,,,Space,keypress(Space),,,,lyrical,,,,"--- ---- ------ --- ------- ---------- ------- ----------<br>--- --------- --- ----------- ------- ----- ------- ---<br>--------- ---- -- --- ---- -- --------- -- ---- -------<br>-- --------- ------ --- ----- light"" ---- --- --------- --<br>------ - ---- -- --- ----------- ------- ---- ----- -----<br>--- -------- - ------ ---- -- ----- ---- --- --- -----------<br>-- -------",232817.46000004932,232813.5300000431,232474.997,232484.2850000132,232491.663,232833.813,,31,"light"""
screen,html.Screen,1_3_1_0_1_32,2021-04-11T18:03:19.049Z,,,,,,,,,,,,,,,,2,,,,,,,,,,,,,,378.6270000320801,,response,,,,1,B,,,,,,Space,keypress(Space),,,,lyrical,,,,--- ---- ------ --- ------- ---------- ------- ----------<br>--- --------- --- ----------- ------- ----- ------- ---<br>--------- ---- -- --- ---- -- --------- -- ---- -------<br>-- --------- ------ --- ----- ------ over --- --------- --<br>------ - ---- -- --- ----------- ------- ---- ----- -----<br>--- -------- - ------ ---- -- ----- ---- --- --- -----------<br>-- -------,233215.06499999668,233212.44000003207,232817.147,232817.55000003614,232833.813,233217.131,,32,over
screen,html.Screen,1_3_1_0_1_33,2021-04-11T18:03:19.572Z,,,,,,,,,,,,,,,,2,,,,,,,,,,,,,,517.2839999553398,,response,,,,1,B,,,,,,Space,keypress(Space),,,,lyrical,,,,--- ---- ------ --- ------- ---------- ------- ----------<br>--- --------- --- ----------- ------- ----- ------- ---<br>--------- ---- -- --- ---- -- --------- -- ---- -------<br>-- --------- ------ --- ----- ------ ---- the --------- --<br>------ - ---- -- --- ----------- ------- ---- ----- -----<br>--- -------- - ------ ---- -- ----- ---- --- --- -----------<br>-- -------,233738.43500006478,233734.41499995533,233200.465,233215.1699999813,233217.131,233750.443,,33,the
screen,html.Screen,1_3_1_0_1_34,2021-04-11T18:03:20.153Z,,,,,,,,,,,,,,,,2,,,,,,,,,,,,,,565.4120000516705,,response,,,,1,B,,,,,,Space,keypress(Space),,,,lyrical,,,,--- ---- ------ --- ------- ---------- ------- ----------<br>--- --------- --- ----------- ------- ----- ------- ---<br>--------- ---- -- --- ---- -- --------- -- ---- -------<br>-- --------- ------ --- ----- ------ ---- --- sunspots. --<br>------ - ---- -- --- ----------- ------- ---- ----- -----<br>--- -------- - ------ ---- -- ----- ---- --- --- -----------<br>-- -------,234319.11000004038,234315.85500005167,233733.777,233738.495000056,233750.443,234333.753,,34,sunspots.
screen,html.Screen,1_3_1_0_1_35,2021-04-11T18:03:20.576Z,,,,,,,,,,,,,,,,2,,,,,,,,,,,,,,404.83699996446376,,response,,,,1,B,,,,,,Space,keypress(Space),,,,lyrical,,,,--- ---- ------ --- ------- ---------- ------- ----------<br>--- --------- --- ----------- ------- ----- ------- ---<br>--------- ---- -- --- ---- -- --------- -- ---- -------<br>-- --------- ------ --- ----- ------ ---- --- --------- He<br>------ - ---- -- --- ----------- ------- ---- ----- -----<br>--- -------- - ------ ---- -- ----- ---- --- --- -----------<br>-- -------,234743.03000001237,234738.58999996446,234317.087,234319.17499995325,234333.753,234750.403,,35,He
screen,html.Screen,1_3_1_0_1_36,2021-04-11T18:03:21.078Z,,,,,,,,,,,,,,,,2,,,,,,,,,,,,,,489.1369999804883,,response,,,,1,B,,,,,,Space,keypress(Space),,,,lyrical,,,,--- ---- ------ --- ------- ---------- ------- ----------<br>--- --------- --- ----------- ------- ----- ------- ---<br>--------- ---- -- --- ---- -- --------- -- ---- -------<br>-- --------- ------ --- ----- ------ ---- --- --------- --<br>jotted - ---- -- --- ----------- ------- ---- ----- -----<br>--- -------- - ------ ---- -- ----- ---- --- --- -----------<br>-- -------,235244.0700000152,235239.53999998048,234733.737,234743.09500004165,234750.403,235250.383,,36,jotted
screen,html.Screen,1_3_1_0_1_37,2021-04-11T18:03:21.539Z,,,,,,,,,,,,,,,,2,,,,,,,,,,,,,,446.5169999808131,,response,,,,1,B,,,,,,Space,keypress(Space),,,,lyrical,,,,--- ---- ------ --- ------- ---------- ------- ----------<br>--- --------- --- ----------- ------- ----- ------- ---<br>--------- ---- -- --- ---- -- --------- -- ---- -------<br>-- --------- ------ --- ----- ------ ---- --- --------- --<br>------ a ---- -- --- ----------- ------- ---- ----- -----<br>--- -------- - ------ ---- -- ----- ---- --- --- -----------<br>-- -------,235705.49500000197,235696.89999998081,235233.717,235244.1950000357,235250.383,235717.031,,37,a
