sender,sender_type,sender_id,timestamp,meta,,Blues,Classical,Country,Dance,Electronic,Folk,Gospel,Hip-Hop,Jazz,Latin,Musical/Film,New-age,Pop,Provo_ID,R&B,Rap,Reggae,Religious,Rock,Soul,Swing,Traditional,age,artist_name,correct,correctResponse,distraction,duration,education,ended_on,familiarity,gender,headphone_check_performance,item,list,music_frequency,offensiveness,pleasantness,position_correct,preference,response,response_action,snippet_file,song_name,song_rating,sound,stimulus_1,stimulus_2,stimulus_3,text,time_commit,time_end,time_render,time_run,time_show,time_switch,url,word,word_ID
Introduction,html.Screen,0_0,2021-04-20T14:08:02.816Z,"{""labjs_version"":""20.2.2"",""labjs_build"":{""flavor"":""production"",""commit"":""a25486e0c714a0ae2ce03ff94b7bb6896854dcfa""},""location"":""https://run.pavlovia.org/mvasilev/music_d/"",""userAgent"":""Mozilla/5.0 (Windows NT 10.0; Win64; x64) AppleWebKit/537.36 (KHTML, like Gecko) Chrome/90.0.4430.72 Safari/537.36 Edg/90.0.818.39"",""platform"":""Win32"",""language"":""en-GB"",""locale"":""en-GB"",""timeZone"":""Europe/London"",""timezoneOffset"":-60,""screen_width"":1536,""screen_height"":864,""scroll_width"":1488,""scroll_height"":706,""window_innerWidth"":1488,""window_innerHeight"":754,""devicePixelRatio"":1.25}",,,,,,,,,,,,,,,,,,,,,,,,,,,,,17693.192999919833,,response,,,,,,,,,,,continue,click button,,,,,,,,,27154.699999839067,27152.29499991983,9393.188,9395.794999785721,9459.102,27172.928,{},,
Volume calibration,html.Screen,0_1,2021-04-20T14:08:35.915Z,,,,,,,,,,,,,,,,,,,,,,,,,,,,,,33074.97199984205,,response,,,,,,,,,,,continue,click button,,,,,,,,,60252.975000068545,60247.89999984205,27140.023,27155.629999935627,27172.928,60250.994,,,
Task instructions,html.Screen,0_2,2021-04-20T14:08:42.801Z,,,,,,,,,,,,,,,,,,,,,,,,,,,,,,6885.915999884666,,response,,,,,,,,,,,continue,click button,,,,,,,,,67138.39499978349,67136.90999988467,60234.531,60253.27999982983,60250.994,67150.21,,,
Sounds,html.Screen,0_3_0_0,2021-04-20T14:08:47.049Z,,,,,,,,,,,,,,,,,,,,,,,,,,,,,,4248.9679999999935,,timeout,,,,,,,,,1,,,,,,,,S,I,O,,71386.57999970019,71382.838,67133.555,67138.81999999285,67150.21,71399.178,,,
Judgement,html.Screen,0_3_0_1,2021-04-20T14:10:34.240Z,,,,,,,,,,,,,,,,,,,,,,,,,,,false,1,,107171.08699975473,,response,,,,,,,,,1,,2,click #choice-2,,,,,S,I,O,,178571.84999994934,178570.26499975473,71382.838,71386.82999974117,71399.178,178582.135,,,
Trial,flow.Sequence,0_3_0,2021-04-20T14:10:34.243Z,,,,,,,,,,,,,,,,,,,,,,,,,,,,,,111420.05499975472,,completion,,,,,,,,,1,,,,,,,,S,I,O,,178574.4349998422,178570.26499975473,67133.555,67138.73500004411,67150.21,178582.135,,,
Sounds,html.Screen,0_3_1_0,2021-04-20T14:10:38.484Z,,,,,,,,,,,,,,,,,,,,,,,,,,,,,,4249.391999999993,,timeout,,,,,,,,,1,,,,,,,,S,O,I,,182816.02500006557,182814.941,178565.742,178574.65499965474,178582.135,182831.527,,,
Judgement,html.Screen,0_3_1_1,2021-04-20T14:10:40.898Z,,,,,,,,,,,,,,,,,,,,,,,,,,,true,1,,2396.0829999435227,,response,,,,,,,,,1,,1,click #choice-1,,,,,S,O,I,,185229.40499987453,185227.60999994352,182814.941,182816.3999998942,182831.527,185230.995,,,
Trial,flow.Sequence,0_3_1,2021-04-20T14:10:40.898Z,,,,,,,,,,,,,,,,,,,,,,,,,,,,,,6645.474999943515,,completion,,,,,,,,,1,,,,,,,,S,O,I,,185229.7499999404,185227.60999994352,178565.742,178574.59999993443,178582.135,185230.995,,,
Sounds,html.Screen,0_3_2_0,2021-04-20T14:10:45.135Z,,,,,,,,,,,,,,,,,,,,,,,,,,,,,,4249.371000000014,,timeout,,,,,,,,,2,,,,,,,,I,S,O,,189466.25000005588,189463.714,185214.55,185229.98499963433,185230.995,189480.366,,,
Judgement,html.Screen,0_3_2_1,2021-04-20T14:10:45.868Z,,,,,,,,,,,,,,,,,,,,,,,,,,,true,2,,717.3339999023883,,response,,,,,,,,,2,,2,click #choice-2,,,,,I,S,O,,190199.30499978364,190197.6999999024,189463.714,189466.49499982595,189480.366,190213.845,,,
Trial,flow.Sequence,0_3_2,2021-04-20T14:10:45.868Z,,,,,,,,,,,,,,,,,,,,,,,,,,,,,,4966.704999902402,,completion,,,,,,,,,2,,,,,,,,I,S,O,,190199.65499965474,190197.6999999024,185214.55,185229.92499964312,185230.995,190213.845,,,
Sounds,html.Screen,0_3_3_0,2021-04-20T14:10:50.116Z,,,,,,,,,,,,,,,,,,,,,,,,,,,,,,4249.334000000003,,timeout,,,,,,,,,3,,,,,,,,O,I,S,,194447.43499998003,194446.155,190197.11,190199.88999981433,190213.845,194463.179,,,
Judgement,html.Screen,0_3_3_1,2021-04-20T14:10:51.008Z,,,,,,,,,,,,,,,,,,,,,,,,,,,true,3,,874.4859999991022,,response,,,,,,,,,3,,3,click #choice-3,,,,,O,I,S,,195339.24999972805,195337.6649999991,194446.155,194447.75500008836,194463.179,195346.174,,,
Trial,flow.Sequence,0_3_3,2021-04-20T14:10:51.008Z,,,,,,,,,,,,,,,,,,,,,,,,,,,,,,5123.819999999105,,completion,,,,,,,,,3,,,,,,,,O,I,S,,195339.58499971777,195337.6649999991,190197.11,190199.81499994174,190213.845,195346.174,,,
Sounds,html.Screen,0_3_4_0,2021-04-20T14:10:55.257Z,,,,,,,,,,,,,,,,,,,,,,,,,,,,,,4249.372999999992,,timeout,,,,,,,,,3,,,,,,,,I,O,S,,199588.88499997556,199578.94,195329.733,195339.81999987736,195346.174,199595.547,,,
Judgement,html.Screen,0_3_4_1,2021-04-20T14:10:55.987Z,,,,,,,,,,,,,,,,,,,,,,,,,,,true,3,,721.7930000669148,,response,,,,,,,,,3,,3,click #choice-3,,,,,I,O,S,,200318.93999967724,200317.3400000669,199578.94,199589.1199996695,199595.547,200328.663,,,
Trial,flow.Sequence,0_3_4,2021-04-20T14:10:55.988Z,,,,,,,,,,,,,,,,,,,,,,,,,,,,,,4971.166000066907,,completion,,,,,,,,,3,,,,,,,,I,O,S,,200319.27499966696,200317.3400000669,195329.733,195339.73999973387,195346.174,200328.663,,,
Sounds,html.Screen,0_3_5_0,2021-04-20T14:11:00.231Z,,,,,,,,,,,,,,,,,,,,,,,,,,,,,,4249.429999999993,,timeout,,,,,,,,,2,,,,,,,,O,S,I,,204562.99499981105,204561.288,200312.13,200319.46499971673,200328.663,204578.093,,,
Judgement,html.Screen,0_3_5_1,2021-04-20T14:11:00.997Z,,,,,,,,,,,,,,,,,,,,,,,,,,,true,2,,749.3020000293618,,response,,,,,,,,,2,,2,click #choice-2,,,,,O,S,I,,205328.86999985203,205327.39500002936,204561.288,204563.3699996397,204578.093,205344.398,,,
Trial,flow.Sequence,0_3_5,2021-04-20T14:11:00.998Z,,,,,,,,,,,,,,,,,,,,,,,,,,,,,,4998.732000029355,,completion,,,,,,,,,2,,,,,,,,O,S,I,,205329.209999647,205327.39500002936,200312.13,200319.41499980167,200328.663,205344.398,,,
Task,flow.Loop,0_3,2021-04-20T14:11:01.002Z,,,,,,,,,,,,,,,,,,,,,,,,,,,,,,138177.18500002933,,completion,,,0.8333333333333334,,,,,,,,,,,,,,,,,,205333.90499977395,205327.39500002936,67133.555,67138.65000009537,67150.21,205344.398,,,
Trap,html.Screen,0_4,2021-04-20T14:11:01.011Z,,,,,,,,,,,,,,,,,,,,,,,,,,,,,,NaN,,skipped,,,,,,,,,,,,,,,,,,,,,205342.80500002205,205327.39500002936,,205342.4999997951,,205344.398,,,
Thanks,html.Screen,0_5,2021-04-20T14:11:06.988Z,,,,,,,,,,,,,,,,,,,,,,,,,,,,,,5973.166999684705,,response,,,,,,,,,,,continue,click button,,,,,,,,,211319.0750000067,211317.5649996847,205327.828,205343.0099999532,205344.398,216775.999,,,
Headphone screening,flow.Sequence,0,2021-04-20T14:11:06.988Z,,,,,,,,,,,,,,,,,,,,,,,,,,,,,,201858.46299968468,,completion,,,,,,,,,,,,,,,,,,,,,211319.3850000389,211317.5649996847,9393.188,9395.719999913126,9459.102,216775.999,,,
Instructions,html.Page,1_0,2021-04-20T14:11:20.839Z,,,,,,,,,,,,,,,,,,,,,,,,,,,,,,8394.340999720444,,form submission,,,,,,,,,,,,,,,,,,,,,225170.82999972627,225170.33999972045,216709.41,216737.88499971852,216775.999,225174.603,,,
Holding screen,html.Screen,1_1_0_0,2021-04-20T14:11:30.825Z,,,,,,,,,,,,,,,,,,,,,,,,,,,,,,9998.366999999998,,timeout,,,,,,,,,,,,,,,,,,,,,235156.9699998945,235156.337,225157.925,225171.19999974966,225174.603,235172.97,,,
screen,html.Screen,1_1_0_1_0,2021-04-20T14:11:31.989Z,,,,,,,,,,,,,,,,53,,,,,,,,,,,,,,1144.7900000053633,,response,,,,99,,,,,,,Space,keypress(Space),,,,,,,,When -- ----- -- ------ - ------- --- ----------<br>------------- ------ ------ ---- ---- ------- ----- -- ----<br>-------- ------- -- ---------- --- - --- ----- ----- ----<br>---- --- --- ----- --- ---- ---- ------- ----- ---- -------<br>--- --- -- ----- -- --- ---- -- --- ---- -- ------ ------<br>--- ----- -- ----,236320.6150000915,236317.76000000536,235156.337,235157.14999986812,235172.97,236322.721,,0,When
screen,html.Screen,1_1_0_1_1,2021-04-20T14:11:32.579Z,,,,,,,,,,,,,,,,53,,,,,,,,,,,,,,587.3189999879396,,response,,,,99,,,,,,,Space,keypress(Space),,,,,,,,---- it ----- -- ------ - ------- --- ----------<br>------------- ------ ------ ---- ---- ------- ----- -- ----<br>-------- ------- -- ---------- --- - --- ----- ----- ----<br>---- --- --- ----- --- ---- ---- ------- ----- ---- -------<br>--- --- -- ----- -- --- ---- -- --- ---- -- ------ ------<br>--- ----- -- ----,236910.53499979898,236910.03999998793,236306.176,236320.73999987915,236322.721,236922.713,,1,it
screen,html.Screen,1_1_0_1_2,2021-04-20T14:11:32.985Z,,,,,,,,,,,,,,,,53,,,,,,,,,,,,,,393.0069998386316,,response,,,,99,,,,,,,Space,keypress(Space),,,,,,,,---- -- comes -- ------ - ------- --- ----------<br>------------- ------ ------ ---- ---- ------- ----- -- ----<br>-------- ------- -- ---------- --- - --- ----- ----- ----<br>---- --- --- ----- --- ---- ---- ------- ----- ---- -------<br>--- --- -- ----- -- --- ---- -- --- ---- -- ------ ------<br>--- ----- -- ----,237316.2650000304,237315.71999983862,236906.037,236910.6600000523,236922.713,237322.615,,2,comes
screen,html.Screen,1_1_0_1_3,2021-04-20T14:11:33.465Z,,,,,,,,,,,,,,,,53,,,,,,,,,,,,,,473.5900000205729,,response,,,,99,,,,,,,Space,keypress(Space),,,,,,,,---- -- ----- to ------ - ------- --- ----------<br>------------- ------ ------ ---- ---- ------- ----- -- ----<br>-------- ------- -- ---------- --- - --- ----- ----- ----<br>---- --- --- ----- --- ---- ---- ------- ----- ---- -------<br>--- --- -- ----- -- --- ---- -- --- ---- -- ------ ------<br>--- ----- -- ----,237796.70999990776,237796.20500002056,237306.012,237316.40499969944,237322.615,237805.918,,3,to
screen,html.Screen,1_1_0_1_4,2021-04-20T14:11:35.089Z,,,,,,,,,,,,,,,,53,,,,,,,,,,,,,,1614.1519999928423,,response,,,,99,,,,,,,Space,keypress(Space),,,,,,,,---- -- ----- -- having - ------- --- ----------<br>------------- ------ ------ ---- ---- ------- ----- -- ----<br>-------- ------- -- ---------- --- - --- ----- ----- ----<br>---- --- --- ----- --- ---- ---- ------- ----- ---- -------<br>--- --- -- ----- -- --- ---- -- --- ---- -- ------ ------<br>--- ----- -- ----,239420.89999979362,239420.06999999285,237789.263,237796.8099997379,237805.918,239442.435,,4,having
screen,html.Screen,1_1_0_1_5,2021-04-20T14:11:35.487Z,,,,,,,,,,,,,,,,53,,,,,,,,,,,,,,375.99499998480314,,response,,,,99,,,,,,,Space,keypress(Space),,,,,,,,---- -- ----- -- ------ a ------- --- ----------<br>------------- ------ ------ ---- ---- ------- ----- -- ----<br>-------- ------- -- ---------- --- - --- ----- ----- ----<br>---- --- --- ----- --- ---- ---- ------- ----- ---- -------<br>--- --- -- ----- -- --- ---- -- --- ---- -- ------ ------<br>--- ----- -- ----,239819.26500005648,239818.4299999848,239405.809,239421.09999991953,239442.435,239822.18,,5,a
screen,html.Screen,1_1_0_1_6,2021-04-20T14:11:35.931Z,,,,,,,,,,,,,,,,53,,,,,,,,,,,,,,439.45999969140394,,response,,,,99,,,,,,,Space,keypress(Space),,,,,,,,---- -- ----- -- ------ - lasting --- ----------<br>------------- ------ ------ ---- ---- ------- ----- -- ----<br>-------- ------- -- ---------- --- - --- ----- ----- ----<br>---- --- --- ----- --- ---- ---- ------- ----- ---- -------<br>--- --- -- ----- -- --- ---- -- --- ---- -- ------ ------<br>--- ----- -- ----,240262.48999964446,240261.6399996914,239805.862,239819.48499986902,239822.18,240272.572,,6,lasting
screen,html.Screen,1_1_0_1_7,2021-04-20T14:11:36.327Z,,,,,,,,,,,,,,,,53,,,,,,,,,,,,,,385.2279996952857,,response,,,,99,,,,,,,Space,keypress(Space),,,,,,,,---- -- ----- -- ------ - ------- and ----------<br>------------- ------ ------ ---- ---- ------- ----- -- ----<br>-------- ------- -- ---------- --- - --- ----- ----- ----<br>---- --- --- ----- --- ---- ---- ------- ----- ---- -------<br>--- --- -- ----- -- --- ---- -- --- ---- -- ------ ------<br>--- ----- -- ----,240658.58999965712,240657.79999969527,240255.758,240262.68999977037,240272.572,240672.944,,7,and
screen,html.Screen,1_1_0_1_8,2021-04-20T14:11:36.757Z,,,,,,,,,,,,,,,,53,,,,,,,,,,,,,,414.7910000664706,,response,,,,99,,,,,,,Space,keypress(Space),,,,,,,,---- -- ----- -- ------ - ------- --- fulfilling<br>------------- ------ ------ ---- ---- ------- ----- -- ----<br>-------- ------- -- ---------- --- - --- ----- ----- ----<br>---- --- --- ----- --- ---- ---- ------- ----- ---- -------<br>--- --- -- ----- -- --- ---- -- --- ---- -- ------ ------<br>--- ----- -- ----,241088.57999974862,241087.73500006646,240655.824,240658.78999978304,240672.944,241105.764,,8,fulfilling
screen,html.Screen,1_1_0_1_9,2021-04-20T14:11:37.239Z,,,,,,,,,,,,,,,,53,,,,,,,,,,,,,,464.6059998557612,,response,,,,99,,,,,,,Space,keypress(Space),,,,,,,,"---- -- ----- -- ------ - ------- --- ----------<br>relationship, ------ ------ ---- ---- ------- ----- -- ----<br>-------- ------- -- ---------- --- - --- ----- ----- ----<br>---- --- --- ----- --- ---- ---- ------- ----- ---- -------<br>--- --- -- ----- -- --- ---- -- --- ---- -- ------ ------<br>--- ----- -- ----",241571.1799999699,241570.36999985576,241088.992,241088.77999987453,241105.764,241588.949,,9,"relationship,"
screen,html.Screen,1_1_0_1_10,2021-04-20T14:11:37.722Z,,,,,,,,,,,,,,,,53,,,,,,,,,,,,,,463.8660000609525,,response,,,,99,,,,,,,Space,keypress(Space),,,,,,,,---- -- ----- -- ------ - ------- --- ----------<br>------------- common ------ ---- ---- ------- ----- -- ----<br>-------- ------- -- ---------- --- - --- ----- ----- ----<br>---- --- --- ----- --- ---- ---- ------- ----- ---- -------<br>--- --- -- ----- -- --- ---- -- --- ---- -- ------ ------<br>--- ----- -- ----,242053.64000005648,242052.81500006095,241555.593,241571.3949999772,241588.949,242076.495,,10,common
screen,html.Screen,1_1_0_1_11,2021-04-20T14:11:38.199Z,,,,,,,,,,,,,,,,53,,,,,,,,,,,,,,453.5950000147568,,response,,,,99,,,,,,,Space,keypress(Space),,,,,,,,---- -- ----- -- ------ - ------- --- ----------<br>------------- ------ wisdom ---- ---- ------- ----- -- ----<br>-------- ------- -- ---------- --- - --- ----- ----- ----<br>---- --- --- ----- --- ---- ---- ------- ----- ---- -------<br>--- --- -- ----- -- --- ---- -- --- ---- -- ------ ------<br>--- ----- -- ----,242530.9399999678,242530.09000001475,242038.801,242053.84499998763,242076.495,242538.626,,11,wisdom
screen,html.Screen,1_1_0_1_12,2021-04-20T14:11:38.652Z,,,,,,,,,,,,,,,,53,,,,,,,,,,,,,,444.8489996662247,,response,,,,99,,,,,,,Space,keypress(Space),,,,,,,,---- -- ----- -- ------ - ------- --- ----------<br>------------- ------ ------ says ---- ------- ----- -- ----<br>-------- ------- -- ---------- --- - --- ----- ----- ----<br>---- --- --- ----- --- ---- ---- ------- ----- ---- -------<br>--- --- -- ----- -- --- ---- -- --- ---- -- ------ ------<br>--- ----- -- ----,242984.34499977157,242983.4749996662,242522.067,242531.15499997512,242538.626,242988.334,,12,says
screen,html.Screen,1_1_0_1_13,2021-04-20T14:11:39.061Z,,,,,,,,,,,,,,,,53,,,,,,,,,,,,,,404.05099989732844,,response,,,,99,,,,,,,Space,keypress(Space),,,,,,,,---- -- ----- -- ------ - ------- --- ----------<br>------------- ------ ------ ---- that ------- ----- -- ----<br>-------- ------- -- ---------- --- - --- ----- ----- ----<br>---- --- --- ----- --- ---- ---- ------- ----- ---- -------<br>--- --- -- ----- -- --- ---- -- --- ---- -- ------ ------<br>--- ----- -- ----,243393.2749996893,243392.38499989733,242971.994,242984.55499997362,242988.334,243405.415,,13,that
screen,html.Screen,1_1_0_1_14,2021-04-20T14:11:39.517Z,,,,,,,,,,,,,,,,53,,,,,,,,,,,,,,442.9099996788718,,response,,,,99,,,,,,,Space,keypress(Space),,,,,,,,---- -- ----- -- ------ - ------- --- ----------<br>------------- ------ ------ ---- ---- feeling ----- -- ----<br>-------- ------- -- ---------- --- - --- ----- ----- ----<br>---- --- --- ----- --- ---- ---- ------- ----- ---- -------<br>--- --- -- ----- -- --- ---- -- --- ---- -- ------ ------<br>--- ----- -- ----,243849.21999974176,243848.32499967888,243388.59,243393.49999977276,243405.415,243854.862,,14,feeling
screen,html.Screen,1_1_0_1_15,2021-04-20T14:11:39.922Z,,,,,,,,,,,,,,,,53,,,,,,,,,,,,,,398.2930000421766,,response,,,,99,,,,,,,Space,keypress(Space),,,,,,,,---- -- ----- -- ------ - ------- --- ----------<br>------------- ------ ------ ---- ---- ------- close -- ----<br>-------- ------- -- ---------- --- - --- ----- ----- ----<br>---- --- --- ----- --- ---- ---- ------- ----- ---- -------<br>--- --- -- ----- -- --- ---- -- --- ---- -- ------ ------<br>--- ----- -- ----,244254.0400000289,244253.15500004217,243838.49,243849.42999994382,243854.862,244288.606,,15,close
screen,html.Screen,1_1_0_1_16,2021-04-20T14:11:40.331Z,,,,,,,,,,,,,,,,53,,,,,,,,,,,,,,373.52400006973767,,response,,,,99,,,,,,,Space,keypress(Space),,,,,,,,---- -- ----- -- ------ - ------- --- ----------<br>------------- ------ ------ ---- ---- ------- ----- to ----<br>-------- ------- -- ---------- --- - --- ----- ----- ----<br>---- --- --- ----- --- ---- ---- ------- ----- ---- -------<br>--- --- -- ----- -- --- ---- -- --- ---- -- ------ ------<br>--- ----- -- ----,244662.9800000228,244662.13000006974,244271.857,244254.2550000362,244288.606,244671.793,,16,to
screen,html.Screen,1_1_0_1_17,2021-04-20T14:11:40.767Z,,,,,,,,,,,,,,,,53,,,,,,,,,,,,,,426.95200008299435,,response,,,,99,,,,,,,Space,keypress(Space),,,,,,,,---- -- ----- -- ------ - ------- --- ----------<br>------------- ------ ------ ---- ---- ------- ----- -- your<br>-------- ------- -- ---------- --- - --- ----- ----- ----<br>---- --- --- ----- --- ---- ---- ------- ----- ---- -------<br>--- --- -- ----- -- --- ---- -- --- ---- -- ------ ------<br>--- ----- -- ----,245099.20000005513,245098.745000083,244655.173,244663.1950000301,244671.793,245104.818,,17,your
screen,html.Screen,1_1_0_1_18,2021-04-20T14:11:41.205Z,,,,,,,,,,,,,,,,53,,,,,,,,,,,,,,430.9020000435121,,response,,,,99,,,,,,,Space,keypress(Space),,,,,,,,---- -- ----- -- ------ - ------- --- ----------<br>------------- ------ ------ ---- ---- ------- ----- -- ----<br>romantic ------- -- ---------- --- - --- ----- ----- ----<br>---- --- --- ----- --- ---- ---- ------- ----- ---- -------<br>--- --- -- ----- -- --- ---- -- --- ---- -- ------ ------<br>--- ----- -- ----,245536.58499987796,245535.7200000435,245088.438,245099.29500008002,245104.818,245568.415,,18,romantic
screen,html.Screen,1_1_0_1_19,2021-04-20T14:11:41.971Z,,,,,,,,,,,,,,,,53,,,,,,,,,,,,,,733.5449998369731,,response,,,,99,,,,,,,Space,keypress(Space),,,,,,,,---- -- ----- -- ------ - ------- --- ----------<br>------------- ------ ------ ---- ---- ------- ----- -- ----<br>-------- partner -- ---------- --- - --- ----- ----- ----<br>---- --- --- ----- --- ---- ---- ------- ----- ---- -------<br>--- --- -- ----- -- --- ---- -- --- ---- -- ------ ------<br>--- ----- -- ----,246302.8199998662,246301.95999983698,245521.338,245536.8049996905,245568.415,246334.132,,19,partner
screen,html.Screen,1_1_0_1_20,2021-04-20T14:11:42.453Z,,,,,,,,,,,,,,,,53,,,,,,,,,,,,,,449.98799996750313,,response,,,,99,,,,,,,Space,keypress(Space),,,,,,,,---- -- ----- -- ------ - ------- --- ----------<br>------------- ------ ------ ---- ---- ------- ----- -- ----<br>-------- ------- is ---------- --- - --- ----- ----- ----<br>---- --- --- ----- --- ---- ---- ------- ----- ---- -------<br>--- --- -- ----- -- --- ---- -- --- ---- -- ------ ------<br>--- ----- -- ----,246785.03999998793,246784.11999996752,246288.231,246303.0349998735,246334.132,246787.748,,20,is
screen,html.Screen,1_1_0_1_21,2021-04-20T14:11:42.981Z,,,,,,,,,,,,,,,,53,,,,,,,,,,,,,,524.2819996808248,,response,,,,99,,,,,,,Space,keypress(Space),,,,,,,,---- -- ----- -- ------ - ------- --- ----------<br>------------- ------ ------ ---- ---- ------- ----- -- ----<br>-------- ------- -- paramount. --- - --- ----- ----- ----<br>---- --- --- ----- --- ---- ---- ------- ----- ---- -------<br>--- --- -- ----- -- --- ---- -- --- ---- -- ------ ------<br>--- ----- -- ----,247312.89999978617,247312.02999968082,246771.416,246785.25999980047,246787.748,247321.255,,21,paramount.
screen,html.Screen,1_1_0_1_22,2021-04-20T14:11:43.420Z,,,,,,,,,,,,,,,,53,,,,,,,,,,,,,,429.5499998432351,,response,,,,99,,,,,,,Space,keypress(Space),,,,,,,,---- -- ----- -- ------ - ------- --- ----------<br>------------- ------ ------ ---- ---- ------- ----- -- ----<br>-------- ------- -- ---------- But - --- ----- ----- ----<br>---- --- --- ----- --- ---- ---- ------- ----- ---- -------<br>--- --- -- ----- -- --- ---- -- --- ---- -- ------ ------<br>--- ----- -- ----,247751.67999975383,247750.80499984324,247304.639,247313.10499971732,247321.255,247754.235,,22,But
screen,html.Screen,1_1_0_1_23,2021-04-20T14:11:43.750Z,,,,,,,,,,,,,,,,53,,,,,,,,,,,,,,327.04500004218426,,response,,,,99,,,,,,,Space,keypress(Space),,,,,,,,---- -- ----- -- ------ - ------- --- ----------<br>------------- ------ ------ ---- ---- ------- ----- -- ----<br>-------- ------- -- ---------- --- a --- ----- ----- ----<br>---- --- --- ----- --- ---- ---- ------- ----- ---- -------<br>--- --- -- ----- -- --- ---- -- --- ---- -- ------ ------<br>--- ----- -- ----,248082.0999997668,248081.28000004217,247737.883,247751.8899999559,247754.235,248087.592,,23,a
screen,html.Screen,1_1_0_1_24,2021-04-20T14:11:44.080Z,,,,,,,,,,,,,,,,53,,,,,,,,,,,,,,323.1829997638124,,response,,,,99,,,,,,,Space,keypress(Space),,,,,,,,---- -- ----- -- ------ - ------- --- ----------<br>------------- ------ ------ ---- ---- ------- ----- -- ----<br>-------- ------- -- ---------- --- - new ----- ----- ----<br>---- --- --- ----- --- ---- ---- ------- ----- ---- -------<br>--- --- -- ----- -- --- ---- -- --- ---- -- ------ ------<br>--- ----- -- ----,248411.66500002146,248410.77499976382,248071.199,248082.29500008747,248087.592,248421.304,,24,new
screen,html.Screen,1_1_0_1_25,2021-04-20T14:11:44.494Z,,,,,,,,,,,,,,,,53,,,,,,,,,,,,,,403.3609997308813,,response,,,,99,,,,,,,Space,keypress(Space),,,,,,,,---- -- ----- -- ------ - ------- --- ----------<br>------------- ------ ------ ---- ---- ------- ----- -- ----<br>-------- ------- -- ---------- --- - --- study ----- ----<br>---- --- --- ----- --- ---- ---- ------- ----- ---- -------<br>--- --- -- ----- -- --- ---- -- --- ---- -- ------ ------<br>--- ----- -- ----,248825.530000031,248824.66499973089,248404.174,248411.88000002876,248421.304,248837.847,,25,study
screen,html.Screen,1_1_0_1_26,2021-04-20T14:11:44.869Z,,,,,,,,,,,,,,,,53,,,,,,,,,,,,,,362.4430000661523,,response,,,,99,,,,,,,Space,keypress(Space),,,,,,,,---- -- ----- -- ------ - ------- --- ----------<br>------------- ------ ------ ---- ---- ------- ----- -- ----<br>-------- ------- -- ---------- --- - --- ----- finds ----<br>---- --- --- ----- --- ---- ---- ------- ----- ---- -------<br>--- --- -- ----- -- --- ---- -- --- ---- -- ------ ------<br>--- ----- -- ----,249201.15000009537,249200.29000006616,248821.188,248825.7450000383,248837.847,249204.076,,26,finds
screen,html.Screen,1_1_0_1_27,2021-04-20T14:11:45.238Z,,,,,,,,,,,,,,,,53,,,,,,,,,,,,,,365.38399991148617,,response,,,,99,,,,,,,Space,keypress(Space),,,,,,,,---- -- ----- -- ------ - ------- --- ----------<br>------------- ------ ------ ---- ---- ------- ----- -- ----<br>-------- ------- -- ---------- --- - --- ----- ----- that<br>---- --- --- ----- --- ---- ---- ------- ----- ---- -------<br>--- --- -- ----- -- --- ---- -- --- ---- -- ------ ------<br>--- ----- -- ----,249570.33499982208,249569.4599999115,249187.775,249201.35999983177,249204.076,249587.609,,27,that
screen,html.Screen,1_1_0_1_28,2021-04-20T14:11:45.690Z,,,,,,,,,,,,,,,,53,,,,,,,,,,,,,,432.93099993950455,,response,,,,99,,,,,,,Space,keypress(Space),,,,,,,,---- -- ----- -- ------ - ------- --- ----------<br>------------- ------ ------ ---- ---- ------- ----- -- ----<br>-------- ------- -- ---------- --- - --- ----- ----- ----<br>it's --- --- ----- --- ---- ---- ------- ----- ---- -------<br>--- --- -- ----- -- --- ---- -- --- ---- -- ------ ------<br>--- ----- -- ----,250021.6099997051,250020.5399999395,249570.952,249570.54500002414,249587.609,250037.592,,28,it's
screen,html.Screen,1_1_0_1_29,2021-04-20T14:11:46.066Z,,,,,,,,,,,,,,,,53,,,,,,,,,,,,,,359.532999668445,,response,,,,99,,,,,,,Space,keypress(Space),,,,,,,,---- -- ----- -- ------ - ------- --- ----------<br>------------- ------ ------ ---- ---- ------- ----- -- ----<br>-------- ------- -- ---------- --- - --- ----- ----- ----<br>---- not --- ----- --- ---- ---- ------- ----- ---- -------<br>--- --- -- ----- -- --- ---- -- --- ---- -- ------ ------<br>--- ----- -- ----,250398.02500000224,250397.12499966845,250020.849,250021.81999990717,250037.592,250403.924,,29,not
screen,html.Screen,1_1_0_1_30,2021-04-20T14:11:46.442Z,,,,,,,,,,,,,,,,53,,,,,,,,,,,,,,369.0760000447044,,response,,,,99,,,,,,,Space,keypress(Space),,,,,,,,---- -- ----- -- ------ - ------- --- ----------<br>------------- ------ ------ ---- ---- ------- ----- -- ----<br>-------- ------- -- ---------- --- - --- ----- ----- ----<br>---- --- how ----- --- ---- ---- ------- ----- ---- -------<br>--- --- -- ----- -- --- ---- -- --- ---- -- ------ ------<br>--- ----- -- ----,250773.87999976054,250773.0000000447,250387.588,250398.24000000954,250403.924,250787.57,,30,how
screen,html.Screen,1_1_0_1_31,2021-04-20T14:11:46.772Z,,,,,,,,,,,,,,,,53,,,,,,,,,,,,,,315.1499998497893,,response,,,,99,,,,,,,Space,keypress(Space),,,,,,,,---- -- ----- -- ------ - ------- --- ----------<br>------------- ------ ------ ---- ---- ------- ----- -- ----<br>-------- ------- -- ---------- --- - --- ----- ----- ----<br>---- --- --- close --- ---- ---- ------- ----- ---- -------<br>--- --- -- ----- -- --- ---- -- --- ---- -- ------ ------<br>--- ----- -- ----,251103.54999965057,251102.7199998498,250770.535,250774.09499976784,250787.57,251120.822,,31,close
screen,html.Screen,1_1_0_1_32,2021-04-20T14:11:47.085Z,,,,,,,,,,,,,,,,53,,,,,,,,,,,,,,295.70800004591,,response,,,,99,,,,,,,Space,keypress(Space),,,,,,,,---- -- ----- -- ------ - ------- --- ----------<br>------------- ------ ------ ---- ---- ------- ----- -- ----<br>-------- ------- -- ---------- --- - --- ----- ----- ----<br>---- --- --- ----- you ---- ---- ------- ----- ---- -------<br>--- --- -- ----- -- --- ---- -- --- ---- -- ------ ------<br>--- ----- -- ----,251417.37499972805,251416.5300000459,251103.906,251103.74499997124,251120.822,251420.319,,32,you
screen,html.Screen,1_1_0_1_33,2021-04-20T14:11:47.418Z,,,,,,,,,,,,,,,,53,,,,,,,,,,,,,,329.011000020575,,response,,,,99,,,,,,,Space,keypress(Space),,,,,,,,---- -- ----- -- ------ - ------- --- ----------<br>------------- ------ ------ ---- ---- ------- ----- -- ----<br>-------- ------- -- ---------- --- - --- ----- ----- ----<br>---- --- --- ----- --- feel ---- ------- ----- ---- -------<br>--- --- -- ----- -- --- ---- -- --- ---- -- ------ ------<br>--- ----- -- ----,251750.21999981254,251749.33000002056,251404.075,251417.60999988765,251420.319,251770.445,,33,feel
screen,html.Screen,1_1_0_1_34,2021-04-20T14:11:47.816Z,,,,,,,,,,,,,,,,53,,,,,,,,,,,,,,377.00999985291855,,response,,,,99,,,,,,,Space,keypress(Space),,,,,,,,---- -- ----- -- ------ - ------- --- ----------<br>------------- ------ ------ ---- ---- ------- ----- -- ----<br>-------- ------- -- ---------- --- - --- ----- ----- ----<br>---- --- --- ----- --- ---- that ------- ----- ---- -------<br>--- --- -- ----- -- --- ---- -- --- ---- -- ------ ------<br>--- ----- -- ----,252148.304999806,252147.45499985293,251753.958,251760.07999991998,251770.445,252153.584,,34,that
screen,html.Screen,1_1_0_1_35,2021-04-20T14:11:48.200Z,,,,,,,,,,,,,,,,53,,,,,,,,,,,,,,377.6609997290943,,response,,,,99,,,,,,,Space,keypress(Space),,,,,,,,---- -- ----- -- ------ - ------- --- ----------<br>------------- ------ ------ ---- ---- ------- ----- -- ----<br>-------- ------- -- ---------- --- - --- ----- ----- ----<br>---- --- --- ----- --- ---- ---- matters ----- ---- -------<br>--- --- -- ----- -- --- ---- -- --- ---- -- ------ ------<br>--- ----- -- ----,252532.050000038,252531.2449997291,252137.194,252148.50999973714,252153.584,252536.823,,35,matters
screen,html.Screen,1_1_0_1_36,2021-04-20T14:11:48.685Z,,,,,,,,,,,,,,,,53,,,,,,,,,,,,,,479.49699993696413,,response,,,,99,,,,,,,Space,keypress(Space),,,,,,,,"---- -- ----- -- ------ - ------- --- ----------<br>------------- ------ ------ ---- ---- ------- ----- -- ----<br>-------- ------- -- ---------- --- - --- ----- ----- ----<br>---- --- --- ----- --- ---- ---- ------- most, ---- -------<br>--- --- -- ----- -- --- ---- -- --- ---- -- ------ ------<br>--- ----- -- ----",253017.16999989003,253016.31999993697,252520.486,252532.24000008777,252536.823,253020.07,,36,"most,"
screen,html.Screen,1_1_0_1_37,2021-04-20T14:11:49.118Z,,,,,,,,,,,,,,,,53,,,,,,,,,,,,,,429.2199999022414,,response,,,,99,,,,,,,Space,keypress(Space),,,,,,,,---- -- ----- -- ------ - ------- --- ----------<br>------------- ------ ------ ---- ---- ------- ----- -- ----<br>-------- ------- -- ---------- --- - --- ----- ----- ----<br>---- --- --- ----- --- ---- ---- ------- ----- it's -------<br>--- --- -- ----- -- --- ---- -- --- ---- -- ------ ------<br>--- ----- -- ----,253450.33999998122,253449.28999990225,253003.623,253017.3800000921,253020.07,253453.294,,37,it's
screen,html.Screen,1_1_0_1_38,2021-04-20T14:11:49.501Z,,,,,,,,,,,,,,,,53,,,,,,,,,,,,,,378.6009998356458,,response,,,,99,,,,,,,Space,keypress(Space),,,,,,,,---- -- ----- -- ------ - ------- --- ----------<br>------------- ------ ------ ---- ---- ------- ----- -- ----<br>-------- ------- -- ---------- --- - --- ----- ----- ----<br>---- --- --- ----- --- ---- ---- ------- ----- ---- whether<br>--- --- -- ----- -- --- ---- -- --- ---- -- ------ ------<br>--- ----- -- ----,253832.73999998346,253831.89499983564,253436.984,253450.55499998853,253453.294,253836.669,,38,whether
screen,html.Screen,1_1_0_1_39,2021-04-20T14:11:49.883Z,,,,,,,,,,,,,,,,53,,,,,,,,,,,,,,377.445999864256,,response,,,,99,,,,,,,Space,keypress(Space),,,,,,,,---- -- ----- -- ------ - ------- --- ----------<br>------------- ------ ------ ---- ---- ------- ----- -- ----<br>-------- ------- -- ---------- --- - --- ----- ----- ----<br>---- --- --- ----- --- ---- ---- ------- ----- ---- -------<br>you --- -- ----- -- --- ---- -- --- ---- -- ------ ------<br>--- ----- -- ----,254214.9649998173,254214.11499986425,253820.26,253832.9399996437,253836.669,254220.02,,39,you
screen,html.Screen,1_1_0_1_40,2021-04-20T14:11:50.275Z,,,,,,,,,,,,,,,,53,,,,,,,,,,,,,,386.1799998055503,,response,,,,99,,,,,,,Space,keypress(Space),,,,,,,,---- -- ----- -- ------ - ------- --- ----------<br>------------- ------ ------ ---- ---- ------- ----- -- ----<br>-------- ------- -- ---------- --- - --- ----- ----- ----<br>---- --- --- ----- --- ---- ---- ------- ----- ---- -------<br>--- are -- ----- -- --- ---- -- --- ---- -- ------ ------<br>--- ----- -- ----,254607.0550000295,254606.19999980554,254203.539,254215.16499994323,254220.02,254620.308,,40,are
screen,html.Screen,1_1_0_1_41,2021-04-20T14:11:50.669Z,,,,,,,,,,,,,,,,53,,,,,,,,,,,,,,379.33699985800195,,response,,,,99,,,,,,,Space,keypress(Space),,,,,,,,---- -- ----- -- ------ - ------- --- ----------<br>------------- ------ ------ ---- ---- ------- ----- -- ----<br>-------- ------- -- ---------- --- - --- ----- ----- ----<br>---- --- --- ----- --- ---- ---- ------- ----- ---- -------<br>--- --- as ----- -- --- ---- -- --- ---- -- ------ ------<br>--- ----- -- ----,255000.47999992967,254999.644999858,254603.478,254607.25999996066,254620.308,255003.146,,41,as
screen,html.Screen,1_1_0_1_42,2021-04-20T14:11:51.072Z,,,,,,,,,,,,,,,,53,,,,,,,,,,,,,,399.87899989046855,,response,,,,99,,,,,,,Space,keypress(Space),,,,,,,,---- -- ----- -- ------ - ------- --- ----------<br>------------- ------ ------ ---- ---- ------- ----- -- ----<br>-------- ------- -- ---------- --- - --- ----- ----- ----<br>---- --- --- ----- --- ---- ---- ------- ----- ---- -------<br>--- --- -- close -- --- ---- -- --- ---- -- ------ ------<br>--- ----- -- ----,255403.849999886,255403.02499989048,254986.825,255000.68499986082,255003.146,255420.16,,42,close
screen,html.Screen,1_1_0_1_43,2021-04-20T14:11:51.489Z,,,,,,,,,,,,,,,,53,,,,,,,,,,,,,,399.8899997474218,,response,,,,99,,,,,,,Space,keypress(Space),,,,,,,,---- -- ----- -- ------ - ------- --- ----------<br>------------- ------ ------ ---- ---- ------- ----- -- ----<br>-------- ------- -- ---------- --- - --- ----- ----- ----<br>---- --- --- ----- --- ---- ---- ------- ----- ---- -------<br>--- --- -- ----- as --- ---- -- --- ---- -- ------ ------<br>--- ----- -- ----,255820.94000000507,255820.04999974743,255403.366,255404.03499966487,255420.16,255836.75,,43,as
screen,html.Screen,1_1_0_1_44,2021-04-20T14:11:51.830Z,,,,,,,,,,,,,,,,53,,,,,,,,,,,,,,324.26999999955297,,response,,,,99,,,,,,,Space,keypress(Space),,,,,,,,---- -- ----- -- ------ - ------- --- ----------<br>------------- ------ ------ ---- ---- ------- ----- -- ----<br>-------- ------- -- ---------- --- - --- ----- ----- ----<br>---- --- --- ----- --- ---- ---- ------- ----- ---- -------<br>--- --- -- ----- -- you ---- -- --- ---- -- ------ ------<br>--- ----- -- ----,256161.88999963924,256161.01999999955,255820.058,255821.14999974146,255836.75,256169.628,,44,you
screen,html.Screen,1_1_0_1_45,2021-04-20T14:11:52.236Z,,,,,,,,,,,,,,,,53,,,,,,,,,,,,,,397.811999897036,,response,,,,99,,,,,,,Space,keypress(Space),,,,,,,,---- -- ----- -- ------ - ------- --- ----------<br>------------- ------ ------ ---- ---- ------- ----- -- ----<br>-------- ------- -- ---------- --- - --- ----- ----- ----<br>---- --- --- ----- --- ---- ---- ------- ----- ---- -------<br>--- --- -- ----- -- --- want -- --- ---- -- ------ ------<br>--- ----- -- ----,256568.29499965534,256567.43999989703,256153.325,256162.10499964654,256169.628,256591.811,,45,want
screen,html.Screen,1_1_0_1_46,2021-04-20T14:11:52.624Z,,,,,,,,,,,,,,,,53,,,,,,,,,,,,,,363.18399980361573,,response,,,,99,,,,,,,Space,keypress(Space),,,,,,,,---- -- ----- -- ------ - ------- --- ----------<br>------------- ------ ------ ---- ---- ------- ----- -- ----<br>-------- ------- -- ---------- --- - --- ----- ----- ----<br>---- --- --- ----- --- ---- ---- ------- ----- ---- -------<br>--- --- -- ----- -- --- ---- to --- ---- -- ------ ------<br>--- ----- -- ----,256955.89499967173,256954.9949998036,256553.157,256568.5049998574,256591.811,256969.584,,46,to
screen,html.Screen,1_1_0_1_47,2021-04-20T14:11:53.006Z,,,,,,,,,,,,,,,,53,,,,,,,,,,,,,,367.3359996814106,,response,,,,99,,,,,,,Space,keypress(Space),,,,,,,,"---- -- ----- -- ------ - ------- --- ----------<br>------------- ------ ------ ---- ---- ------- ----- -- ----<br>-------- ------- -- ---------- --- - --- ----- ----- ----<br>---- --- --- ----- --- ---- ---- ------- ----- ---- -------<br>--- --- -- ----- -- --- ---- -- be, ---- -- ------ ------<br>--- ----- -- ----",257337.760000024,257336.9199996814,256953.102,256956.11499994993,256969.584,257352.807,,47,"be,"
screen,html.Screen,1_1_0_1_48,2021-04-20T14:11:53.371Z,,,,,,,,,,,,,,,,53,,,,,,,,,,,,,,349.09299975264,,response,,,,99,,,,,,,Space,keypress(Space),,,,,,,,---- -- ----- -- ------ - ------- --- ----------<br>------------- ------ ------ ---- ---- ------- ----- -- ----<br>-------- ------- -- ---------- --- - --- ----- ----- ----<br>---- --- --- ----- --- ---- ---- ------- ----- ---- -------<br>--- --- -- ----- -- --- ---- -- --- even -- ------ ------<br>--- ----- -- ----,257702.76500005275,257701.89999975264,257336.474,257337.96499995515,257352.807,257719.789,,48,even
screen,html.Screen,1_1_0_1_49,2021-04-20T14:11:53.722Z,,,,,,,,,,,,,,,,53,,,,,,,,,,,,,,332.95099972269963,,response,,,,99,,,,,,,Space,keypress(Space),,,,,,,,---- -- ----- -- ------ - ------- --- ----------<br>------------- ------ ------ ---- ---- ------- ----- -- ----<br>-------- ------- -- ---------- --- - --- ----- ----- ----<br>---- --- --- ----- --- ---- ---- ------- ----- ---- -------<br>--- --- -- ----- -- --- ---- -- --- ---- if ------ ------<br>--- ----- -- ----,258053.66999981925,258052.7399997227,257702.772,257702.95999990776,257719.789,258069.739,,49,if
screen,html.Screen,1_1_0_1_50,2021-04-20T14:11:54.038Z,,,,,,,,,,,,,,,,53,,,,,,,,,,,,,,299.6909999624477,,response,,,,99,,,,,,,Space,keypress(Space),,,,,,,,---- -- ----- -- ------ - ------- --- ----------<br>------------- ------ ------ ---- ---- ------- ----- -- ----<br>-------- ------- -- ---------- --- - --- ----- ----- ----<br>---- --- --- ----- --- ---- ---- ------- ----- ---- -------<br>--- --- -- ----- -- --- ---- -- --- ---- -- that's ------<br>--- ----- -- ----,258370.26500003412,258369.42999996245,258053.01,258053.86999994516,258069.739,258386.354,,50,that's
screen,html.Screen,1_1_0_1_51,2021-04-20T14:11:54.475Z,,,,,,,,,,,,,,,,53,,,,,,,,,,,,,,419.8159997633775,,response,,,,99,,,,,,,Space,keypress(Space),,,,,,,,---- -- ----- -- ------ - ------- --- ----------<br>------------- ------ ------ ---- ---- ------- ----- -- ----<br>-------- ------- -- ---------- --- - --- ----- ----- ----<br>---- --- --- ----- --- ---- ---- ------- ----- ---- -------<br>--- --- -- ----- -- --- ---- -- --- ---- -- ------ really<br>--- ----- -- ----,258807.02499998733,258806.16999976337,258369.631,258370.46499969438,258386.354,258819.601,,51,really
screen,html.Screen,1_1_0_1_52,2021-04-20T14:11:54.827Z,,,,,,,,,,,,,,,,53,,,,,,,,,,,,,,338.11900001743925,,response,,,,99,,,,,,,Space,keypress(Space),,,,,,,,---- -- ----- -- ------ - ------- --- ----------<br>------------- ------ ------ ---- ---- ------- ----- -- ----<br>-------- ------- -- ---------- --- - --- ----- ----- ----<br>---- --- --- ----- --- ---- ---- ------- ----- ---- -------<br>--- --- -- ----- -- --- ---- -- --- ---- -- ------ ------<br>not ----- -- ----,259158.5649996996,259157.72000001743,258802.908,258807.2249996476,258819.601,259169.573,,52,not
screen,html.Screen,1_1_0_1_53,2021-04-20T14:11:55.204Z,,,,,,,,,,,,,,,,53,,,,,,,,,,,,,,365.42699968334637,,response,,,,99,,,,,,,Space,keypress(Space),,,,,,,,---- -- ----- -- ------ - ------- --- ----------<br>------------- ------ ------ ---- ---- ------- ----- -- ----<br>-------- ------- -- ---------- --- - --- ----- ----- ----<br>---- --- --- ----- --- ---- ---- ------- ----- ---- -------<br>--- --- -- ----- -- --- ---- -- --- ---- -- ------ ------<br>--- close -- ----,259535.82499967888,259534.99999968335,259152.851,259158.75499974936,259169.573,259552.842,,53,close
screen,html.Screen,1_1_0_1_54,2021-04-20T14:11:55.560Z,,,,,,,,,,,,,,,,53,,,,,,,,,,,,,,338.3129998447257,,response,,,,99,,,,,,,Space,keypress(Space),,,,,,,,---- -- ----- -- ------ - ------- --- ----------<br>------------- ------ ------ ---- ---- ------- ----- -- ----<br>-------- ------- -- ---------- --- - --- ----- ----- ----<br>---- --- --- ----- --- ---- ---- ------- ----- ---- -------<br>--- --- -- ----- -- --- ---- -- --- ---- -- ------ ------<br>--- ----- at ----,259891.95999968797,259891.15499984473,259536.131,259536.0249998048,259552.842,259902.776,,54,at
screen,html.Screen,1_1_0_1_55,2021-04-20T14:11:56.051Z,,,,,,,,,,,,,,,,53,,,,,,,,,,,,,,479.27399966545636,,response,,,,99,,,,,,,Space,keypress(Space),,,,,,,,---- -- ----- -- ------ - ------- --- ----------<br>------------- ------ ------ ---- ---- ------- ----- -- ----<br>-------- ------- -- ---------- --- - --- ----- ----- ----<br>---- --- --- ----- --- ---- ---- ------- ----- ---- -------<br>--- --- -- ----- -- --- ---- -- --- ---- -- ------ ------<br>--- ----- -- all.,260382.9000000842,260382.04999966547,259886.079,259892.13499985635,259902.776,260385.574,,55,all.
Item 99,flow.Loop,1_1_0_1,2021-04-20T14:11:56.051Z,,,,,,,,,,,,,,,,,,,,,,,,,,,,,,25209.079999665468,,completion,,,,,D,,,,,,,,,,,silence,,,,,260383.3049996756,260382.04999966547,235156.337,235157.1100000292,235172.97,260385.574,,,
Question 1,html.Screen,1_1_0_2,2021-04-20T14:12:01.683Z,,,,,,,,,,,,,,,,,,,,,,,,,,,true,FALSE,,5628.270999950386,,response,,,,99,D,,,,,,FALSE,click #choice-2,,,,silence,,,,,266015.37999976426,266013.8449999504,260369.345,260383.4599996917,260385.574,266018.047,,,
Question 2,html.Screen,1_1_0_3,2021-04-20T14:12:07.338Z,,,,,,,,,,,,,,,,,,,,,,,,,,,true,TRUE,,5650.437999798218,,response,,,,99,D,,,,,,TRUE,click #choice-1,,,,silence,,,,,271669.90999970585,271668.48499979824,266001.733,266015.59499977157,266018.047,271684.173,,,
Item 99,flow.Sequence,1_1_0,2021-04-20T14:12:07.338Z,,,,,,,,,,,,,,,,,,,,,,,,,,,,,,46493.881999798235,,completion,,,,,,,,,,,,,,,,,,,,,271670.1949997805,271668.48499979824,225157.925,225171.1499998346,225174.603,271684.173,,,
Holding screen,html.Screen,1_1_1_0,2021-04-20T14:12:17.335Z,,,,,,,,,,,,,,,,,,,,,,,,,,,,,,9998.417000000016,,timeout,,,,,,,,,,,,,,,,,,,,,281666.7700000107,281665.869,271667.507,271670.364999678,271684.173,281682.59,,,
screen,html.Screen,1_1_1_1_0,2021-04-20T14:12:21.262Z,,,,,,,,,,,,,,,,54,,,,,,,,,,,,,,3910.929999645625,,response,,,,100,,,,,,,Space,keypress(Space),,,,,,,,At --- ---- --- ------ ----- ------- ---- -- --- ------- --<br>------- ---------- ------ -- ----- -- ----- -- ---- ------<br>--- ----- --- --- ------ -------- ----- --- ------ ----- --<br>----- ----- ---------- --- --- ------ ------ ---- -- ------<br>------- --- ------ ----- --- ---- ------- -- ---- --- --<br>------- ------,285594.2199998535,285593.51999964565,281665.869,281667.0499998145,281682.59,285598.232,,0,At
screen,html.Screen,1_1_1_1_1,2021-04-20T14:12:21.581Z,,,,,,,,,,,,,,,,54,,,,,,,,,,,,,,313.6579996392247,,response,,,,100,,,,,,,Space,keypress(Space),,,,,,,,-- the ---- --- ------ ----- ------- ---- -- --- ------- --<br>------- ---------- ------ -- ----- -- ----- -- ---- ------<br>--- ----- --- --- ------ -------- ----- --- ------ ----- --<br>----- ----- ---------- --- --- ------ ------ ---- -- ------<br>------- --- ------ ----- --- ---- ------- -- ---- --- --<br>------- ------,285912.7149996348,285911.88999963924,285582.389,285594.2949997261,285598.232,285914.84,,1,the
screen,html.Screen,1_1_1_1_2,2021-04-20T14:12:21.883Z,,,,,,,,,,,,,,,,54,,,,,,,,,,,,,,299.06499966216506,,response,,,,100,,,,,,,Space,keypress(Space),,,,,,,,-- --- time --- ------ ----- ------- ---- -- --- ------- --<br>------- ---------- ------ -- ----- -- ----- -- ---- ------<br>--- ----- --- --- ------ -------- ----- --- ------ ----- --<br>----- ----- ---------- --- --- ------ ------ ---- -- ------<br>------- --- ------ ----- --- ---- ------- -- ---- --- --<br>------- ------,286214.74999981,286213.9049996622,285898.164,285912.90999995545,285914.84,286231.873,,2,time
screen,html.Screen,1_1_1_1_3,2021-04-20T14:12:22.200Z,,,,,,,,,,,,,,,,54,,,,,,,,,,,,,,299.0420000102604,,response,,,,100,,,,,,,Space,keypress(Space),,,,,,,,-- --- ---- the ------ ----- ------- ---- -- --- ------- --<br>------- ---------- ------ -- ----- -- ----- -- ---- ------<br>--- ----- --- --- ------ -------- ----- --- ------ ----- --<br>----- ----- ---------- --- --- ------ ------ ---- -- ------<br>------- --- ------ ----- --- ---- ------- -- ---- --- --<br>------- ------,286531.76499996334,286530.9150000103,286215.041,286214.944999665,286231.873,286548.494,,3,the
screen,html.Screen,1_1_1_1_4,2021-04-20T14:12:22.582Z,,,,,,,,,,,,,,,,54,,,,,,,,,,,,,,364.94099999492755,,response,,,,100,,,,,,,Space,keypress(Space),,,,,,,,-- --- ---- --- French ----- ------- ---- -- --- ------- --<br>------- ---------- ------ -- ----- -- ----- -- ---- ------<br>--- ----- --- --- ------ -------- ----- --- ------ ----- --<br>----- ----- ---------- --- --- ------ ------ ---- -- ------<br>------- --- ------ ----- --- ---- ------- -- ---- --- --<br>------- ------,286914.2700000666,286913.43499999493,286531.8,286531.9699998945,286548.494,286948.124,,4,French
screen,html.Screen,1_1_1_1_5,2021-04-20T14:12:22.893Z,,,,,,,,,,,,,,,,54,,,,,,,,,,,,,,276.22599980031373,,response,,,,100,,,,,,,Space,keypress(Space),,,,,,,,-- --- ---- --- ------ crown ------- ---- -- --- ------- --<br>------- ---------- ------ -- ----- -- ----- -- ---- ------<br>--- ----- --- --- ------ -------- ----- --- ------ ----- --<br>----- ----- ---------- --- --- ------ ------ ---- -- ------<br>------- --- ------ ----- --- ---- ------- -- ---- --- --<br>------- ------,287225.18000006676,287224.3499998003,286931.685,286914.46999972686,286948.124,287231.669,,5,crown
screen,html.Screen,1_1_1_1_6,2021-04-20T14:12:23.432Z,,,,,,,,,,,,,,,,54,,,,,,,,,,,,,,531.8609996472951,,response,,,,100,,,,,,,Space,keypress(Space),,,,,,,,-- --- ---- --- ------ ----- secured ---- -- --- ------- --<br>------- ---------- ------ -- ----- -- ----- -- ---- ------<br>--- ----- --- --- ------ -------- ----- --- ------ ----- --<br>----- ----- ---------- --- --- ------ ------ ---- -- ------<br>------- --- ------ ----- --- ---- ------- -- ---- --- --<br>------- ------,287764.32499988005,287763.5299996473,287215.008,287225.37499992177,287231.669,287781.628,,6,secured
screen,html.Screen,1_1_1_1_7,2021-04-20T14:12:24.028Z,,,,,,,,,,,,,,,,54,,,,,,,,,,,,,,577.5369997979142,,response,,,,100,,,,,,,Space,keypress(Space),,,,,,,,-- --- ---- --- ------ ----- ------- much -- --- ------- --<br>------- ---------- ------ -- ----- -- ----- -- ---- ------<br>--- ----- --- --- ------ -------- ----- --- ------ ----- --<br>----- ----- ---------- --- --- ------ ------ ---- -- ------<br>------- --- ------ ----- --- ---- ------- -- ---- --- --<br>------- ------,288359.9849999882,288359.16499979794,287764.838,287764.5149999298,287781.628,288364.451,,7,much
screen,html.Screen,1_1_1_1_8,2021-04-20T14:12:24.352Z,,,,,,,,,,,,,,,,54,,,,,,,,,,,,,,318.8339998027077,,response,,,,100,,,,,,,Space,keypress(Space),,,,,,,,-- --- ---- --- ------ ----- ------- ---- of --- ------- --<br>------- ---------- ------ -- ----- -- ----- -- ---- ------<br>--- ----- --- --- ------ -------- ----- --- ------ ----- --<br>----- ----- ---------- --- --- ------ ------ ---- -- ------<br>------- --- ------ ----- --- ---- ------- -- ---- --- --<br>------- ------,288683.9499999769,288683.2849998027,288348.199,288360.16499996185,288364.451,288698.675,,8,of
screen,html.Screen,1_1_1_1_9,2021-04-20T14:12:24.644Z,,,,,,,,,,,,,,,,54,,,,,,,,,,,,,,276.83499978558393,,response,,,,100,,,,,,,Space,keypress(Space),,,,,,,,-- --- ---- --- ------ ----- ------- ---- -- its ------- --<br>------- ---------- ------ -- ----- -- ----- -- ---- ------<br>--- ----- --- --- ------ -------- ----- --- ------ ----- --<br>----- ----- ---------- --- --- ------ ------ ---- -- ------<br>------- --- ------ ----- --- ---- ------- -- ---- --- --<br>------- ------,288976.32499970496,288975.5099997856,288681.342,288684.1299999505,288698.675,288981.041,,9,its
screen,html.Screen,1_1_1_1_10,2021-04-20T14:12:24.969Z,,,,,,,,,,,,,,,,54,,,,,,,,,,,,,,318.8139998737606,,response,,,,100,,,,,,,Space,keypress(Space),,,,,,,,-- --- ---- --- ------ ----- ------- ---- -- --- revenue --<br>------- ---------- ------ -- ----- -- ----- -- ---- ------<br>--- ----- --- --- ------ -------- ----- --- ------ ----- --<br>----- ----- ---------- --- --- ------ ------ ---- -- ------<br>------- --- ------ ----- --- ---- ------- -- ---- --- --<br>------- ------,289300.6499996409,289299.8549998738,288964.733,288976.5249998309,288981.041,289314.714,,10,revenue
screen,html.Screen,1_1_1_1_11,2021-04-20T14:12:25.411Z,,,,,,,,,,,,,,,,54,,,,,,,,,,,,,,427.0209996976773,,response,,,,100,,,,,,,Space,keypress(Space),,,,,,,,-- --- ---- --- ------ ----- ------- ---- -- --- ------- by<br>------- ---------- ------ -- ----- -- ----- -- ---- ------<br>--- ----- --- --- ------ -------- ----- --- ------ ----- --<br>----- ----- ---------- --- --- ------ ------ ---- -- ------<br>------- --- ------ ----- --- ---- ------- -- ---- --- --<br>------- ------,289742.6849999465,289741.73499969766,289297.893,289300.83000008017,289314.714,289747.473,,11,by
screen,html.Screen,1_1_1_1_12,2021-04-20T14:12:25.793Z,,,,,,,,,,,,,,,,54,,,,,,,,,,,,,,376.6170000557322,,response,,,,100,,,,,,,Space,keypress(Space),,,,,,,,-- --- ---- --- ------ ----- ------- ---- -- --- ------- --<br>issuing ---------- ------ -- ----- -- ----- -- ---- ------<br>--- ----- --- --- ------ -------- ----- --- ------ ----- --<br>----- ----- ---------- --- --- ------ ------ ---- -- ------<br>------- --- ------ ----- --- ---- ------- -- ---- --- --<br>------- ------,290124.8999997042,290124.09000005573,289731.285,289742.8799998015,289747.473,290130.929,,12,issuing
screen,html.Screen,1_1_1_1_13,2021-04-20T14:12:26.126Z,,,,,,,,,,,,,,,,54,,,,,,,,,,,,,,326.2609999864362,,response,,,,100,,,,,,,Space,keypress(Space),,,,,,,,-- --- ---- --- ------ ----- ------- ---- -- --- ------- --<br>------- government ------ -- ----- -- ----- -- ---- ------<br>--- ----- --- --- ------ -------- ----- --- ------ ----- --<br>----- ----- ---------- --- --- ------ ------ ---- -- ------<br>------- --- ------ ----- --- ---- ------- -- ---- --- --<br>------- ------,290458.00999971107,290457.18999998644,290114.49,290125.08499994874,290130.929,290464.368,,13,government
screen,html.Screen,1_1_1_1_14,2021-04-20T14:12:26.482Z,,,,,,,,,,,,,,,,54,,,,,,,,,,,,,,348.4519996426534,,response,,,,100,,,,,,,Space,keypress(Space),,,,,,,,-- --- ---- --- ------ ----- ------- ---- -- --- ------- --<br>------- ---------- bonds. -- ----- -- ----- -- ---- ------<br>--- ----- --- --- ------ -------- ----- --- ------ ----- --<br>----- ----- ---------- --- --- ------ ------ ---- -- ------<br>------- --- ------ ----- --- ---- ------- -- ---- --- --<br>------- ------,290813.6649997905,290812.81999964267,290447.438,290458.209999837,290464.368,290830.878,,14,bonds.
screen,html.Screen,1_1_1_1_15,2021-04-20T14:12:26.871Z,,,,,,,,,,,,,,,,54,,,,,,,,,,,,,,371.55699986824766,,response,,,,100,,,,,,,Space,keypress(Space),,,,,,,,-- --- ---- --- ------ ----- ------- ---- -- --- ------- --<br>------- ---------- ------ In ----- -- ----- -- ---- ------<br>--- ----- --- --- ------ -------- ----- --- ------ ----- --<br>----- ----- ---------- --- --- ------ ------ ---- -- ------<br>------- --- ------ ----- --- ---- ------- -- ---- --- --<br>------- ------,291203.26999993995,291202.4349998683,290814.331,290813.87499999255,290830.878,291214.396,,15,In
screen,html.Screen,1_1_1_1_16,2021-04-20T14:12:27.167Z,,,,,,,,,,,,,,,,54,,,,,,,,,,,,,,284.11399983026786,,response,,,,100,,,,,,,Space,keypress(Space),,,,,,,,"-- --- ---- --- ------ ----- ------- ---- -- --- ------- --<br>------- ---------- ------ -- 1727, -- ----- -- ---- ------<br>--- ----- --- --- ------ -------- ----- --- ------ ----- --<br>----- ----- ---------- --- --- ------ ------ ---- -- ------<br>------- --- ------ ----- --- ---- ------- -- ---- --- --<br>------- ------",291499.35999978334,291498.5099998303,291197.732,291203.47000006586,291214.396,291514.283,,16,"1727,"
screen,html.Screen,1_1_1_1_17,2021-04-20T14:12:28.360Z,,,,,,,,,,,,,,,,54,,,,,,,,,,,,,,1177.0770000552875,,response,,,,100,,,,,,,Space,keypress(Space),,,,,,,,-- --- ---- --- ------ ----- ------- ---- -- --- ------- --<br>------- ---------- ------ -- ----- in ----- -- ---- ------<br>--- ----- --- --- ------ -------- ----- --- ------ ----- --<br>----- ----- ---------- --- --- ------ ------ ---- -- ------<br>------- --- ------ ----- --- ---- ------- -- ---- --- --<br>------- ------,292692.245000042,292691.3600000553,291497.669,291499.55999990925,291514.283,292697.034,,17,in
screen,html.Screen,1_1_1_1_18,2021-04-20T14:12:28.946Z,,,,,,,,,,,,,,,,54,,,,,,,,,,,,,,580.1909998524934,,response,,,,100,,,,,,,Space,keypress(Space),,,,,,,,-- --- ---- --- ------ ----- ------- ---- -- --- ------- --<br>------- ---------- ------ -- ----- -- order -- ---- ------<br>--- ----- --- --- ------ -------- ----- --- ------ ----- --<br>----- ----- ---------- --- --- ------ ------ ---- -- ------<br>------- --- ------ ----- --- ---- ------- -- ---- --- --<br>------- ------,293278.04500004277,293277.2249998525,292680.922,292692.42500001565,292697.034,293280.271,,18,order
screen,html.Screen,1_1_1_1_19,2021-04-20T14:12:29.281Z,,,,,,,,,,,,,,,,54,,,,,,,,,,,,,,331.409000089101,,response,,,,100,,,,,,,Space,keypress(Space),,,,,,,,-- --- ---- --- ------ ----- ------- ---- -- --- ------- --<br>------- ---------- ------ -- ----- -- ----- to ---- ------<br>--- ----- --- --- ------ -------- ----- --- ------ ----- --<br>----- ----- ---------- --- --- ------ ------ ---- -- ------<br>------- --- ------ ----- --- ---- ------- -- ---- --- --<br>------- ------,293612.8650000319,293611.6800000891,293263.986,293278.244999703,293280.271,293630.621,,19,to
screen,html.Screen,1_1_1_1_20,2021-04-20T14:12:29.591Z,,,,,,,,,,,,,,,,54,,,,,,,,,,,,,,291.58899998973357,,response,,,,100,,,,,,,Space,keypress(Space),,,,,,,,-- --- ---- --- ------ ----- ------- ---- -- --- ------- --<br>------- ---------- ------ -- ----- -- ----- -- save ------<br>--- ----- --- --- ------ -------- ----- --- ------ ----- --<br>----- ----- ---------- --- --- ------ ------ ---- -- ------<br>------- --- ------ ----- --- ---- ------- -- ---- --- --<br>------- ------,293923.04999986663,293922.2099999897,293597.192,293613.04999981076,293630.621,293930.505,,20,save
screen,html.Screen,1_1_1_1_21,2021-04-20T14:12:29.928Z,,,,,,,,,,,,,,,,54,,,,,,,,,,,,,,328.49500007822644,,response,,,,100,,,,,,,Space,keypress(Space),,,,,,,,"-- --- ---- --- ------ ----- ------- ---- -- --- ------- --<br>------- ---------- ------ -- ----- -- ----- -- ---- money,<br>--- ----- --- --- ------ -------- ----- --- ------ ----- --<br>----- ----- ---------- --- --- ------ ------ ---- -- ------<br>------- --- ------ ----- --- ---- ------- -- ---- --- --<br>------- ------",294259.6499999054,294259.00000007823,293913.596,293923.24499972165,293930.505,294263.47,,21,"money,"
screen,html.Screen,1_1_1_1_22,2021-04-20T14:12:30.323Z,,,,,,,,,,,,,,,,54,,,,,,,,,,,,,,390.3349997762125,,response,,,,100,,,,,,,Space,keypress(Space),,,,,,,,-- --- ---- --- ------ ----- ------- ---- -- --- ------- --<br>------- ---------- ------ -- ----- -- ----- -- ---- ------<br>the ----- --- --- ------ -------- ----- --- ------ ----- --<br>----- ----- ---------- --- --- ------ ------ ---- -- ------<br>------- --- ------ ----- --- ---- ------- -- ---- --- --<br>------- ------,294654.6649998054,294653.8049997762,294246.875,294259.8649999127,294263.47,294663.864,,22,the
screen,html.Screen,1_1_1_1_23,2021-04-20T14:12:30.674Z,,,,,,,,,,,,,,,,54,,,,,,,,,,,,,,340.9609997198568,,response,,,,100,,,,,,,Space,keypress(Space),,,,,,,,-- --- ---- --- ------ ----- ------- ---- -- --- ------- --<br>------- ---------- ------ -- ----- -- ----- -- ---- ------<br>--- state --- --- ------ -------- ----- --- ------ ----- --<br>----- ----- ---------- --- --- ------ ------ ---- -- ------<br>------- --- ------ ----- --- ---- ------- -- ---- --- --<br>------- ------,295005.57000003755,295004.82499971986,294646.739,294654.8500000499,294663.864,295013.432,,23,state
screen,html.Screen,1_1_1_1_24,2021-04-20T14:12:31.076Z,,,,,,,,,,,,,,,,54,,,,,,,,,,,,,,393.6780000292347,,response,,,,100,,,,,,,Space,keypress(Space),,,,,,,,-- --- ---- --- ------ ----- ------- ---- -- --- ------- --<br>------- ---------- ------ -- ----- -- ----- -- ---- ------<br>--- ----- cut --- ------ -------- ----- --- ------ ----- --<br>----- ----- ---------- --- --- ------ ------ ---- -- ------<br>------- --- ------ ----- --- ---- ------- -- ---- --- --<br>------- ------,295407.95499971136,295407.1100000292,294997.113,295005.77999977395,295013.432,295413.695,,24,cut
screen,html.Screen,1_1_1_1_25,2021-04-20T14:12:31.390Z,,,,,,,,,,,,,,,,54,,,,,,,,,,,,,,306.8649998123874,,response,,,,100,,,,,,,Space,keypress(Space),,,,,,,,-- --- ---- --- ------ ----- ------- ---- -- --- ------- --<br>------- ---------- ------ -- ----- -- ----- -- ---- ------<br>--- ----- --- the ------ -------- ----- --- ------ ----- --<br>----- ----- ---------- --- --- ------ ------ ---- -- ------<br>------- --- ------ ----- --- ---- ------- -- ---- --- --<br>------- ------,295721.4549998753,295720.5599998124,295397.055,295408.1549998373,295413.695,295730.4,,25,the
screen,html.Screen,1_1_1_1_26,2021-04-20T14:12:31.878Z,,,,,,,,,,,,,,,,54,,,,,,,,,,,,,,479.05499977094587,,response,,,,100,,,,,,,Space,keypress(Space),,,,,,,,-- --- ---- --- ------ ----- ------- ---- -- --- ------- --<br>------- ---------- ------ -- ----- -- ----- -- ---- ------<br>--- ----- --- --- bonds' -------- ----- --- ------ ----- --<br>----- ----- ---------- --- --- ------ ------ ---- -- ------<br>------- --- ------ ----- --- ---- ------- -- ---- --- --<br>------- ------,296210.2349996567,296209.45499977097,295713.554,295721.6550000012,295730.4,296213.14,,26,bonds'
screen,html.Screen,1_1_1_1_27,2021-04-20T14:12:32.292Z,,,,,,,,,,,,,,,,54,,,,,,,,,,,,,,410.44999997376,,response,,,,100,,,,,,,Space,keypress(Space),,,,,,,,-- --- ---- --- ------ ----- ------- ---- -- --- ------- --<br>------- ---------- ------ -- ----- -- ----- -- ---- ------<br>--- ----- --- --- ------ interest ----- --- ------ ----- --<br>----- ----- ---------- --- --- ------ ------ ---- -- ------<br>------- --- ------ ----- --- ---- ------- -- ---- --- --<br>------- ------,296624.38499974087,296623.5899999738,296196.942,296210.41500009596,296213.14,296629.794,,27,interest
screen,html.Screen,1_1_1_1_28,2021-04-20T14:12:32.684Z,,,,,,,,,,,,,,,,54,,,,,,,,,,,,,,385.21099993563257,,response,,,,100,,,,,,,Space,keypress(Space),,,,,,,,-- --- ---- --- ------ ----- ------- ---- -- --- ------- --<br>------- ---------- ------ -- ----- -- ----- -- ---- ------<br>--- ----- --- --- ------ -------- rate. --- ------ ----- --<br>----- ----- ---------- --- --- ------ ------ ---- -- ------<br>------- --- ------ ----- --- ---- ------- -- ---- --- --<br>------- ------,297015.8549998887,297015.0049999356,296613.428,296624.57499979064,296629.794,297030.145,,28,rate.
screen,html.Screen,1_1_1_1_29,2021-04-20T14:12:33.123Z,,,,,,,,,,,,,,,,54,,,,,,,,,,,,,,423.52499972609803,,response,,,,100,,,,,,,Space,keypress(Space),,,,,,,,-- --- ---- --- ------ ----- ------- ---- -- --- ------- --<br>------- ---------- ------ -- ----- -- ----- -- ---- ------<br>--- ----- --- --- ------ -------- ----- The ------ ----- --<br>----- ----- ---------- --- --- ------ ------ ---- -- ------<br>------- --- ------ ----- --- ---- ------- -- ---- --- --<br>------- ------,297454.5049997978,297453.6699997261,297013.377,297016.06500009075,297030.145,297463.309,,29,The
screen,html.Screen,1_1_1_1_30,2021-04-20T14:12:33.507Z,,,,,,,,,,,,,,,,54,,,,,,,,,,,,,,375.5109997134423,,response,,,,100,,,,,,,Space,keypress(Space),,,,,,,,-- --- ---- --- ------ ----- ------- ---- -- --- ------- --<br>------- ---------- ------ -- ----- -- ----- -- ---- ------<br>--- ----- --- --- ------ -------- ----- --- market ----- --<br>----- ----- ---------- --- --- ------ ------ ---- -- ------<br>------- --- ------ ----- --- ---- ------- -- ---- --- --<br>------- ------,297839.6549997851,297838.81999971345,297446.721,297454.70999972895,297463.309,297846.41,,30,market
screen,html.Screen,1_1_1_1_31,2021-04-20T14:12:33.887Z,,,,,,,,,,,,,,,,54,,,,,,,,,,,,,,372.79999977740226,,response,,,,100,,,,,,,Space,keypress(Space),,,,,,,,-- --- ---- --- ------ ----- ------- ---- -- --- ------- --<br>------- ---------- ------ -- ----- -- ----- -- ---- ------<br>--- ----- --- --- ------ -------- ----- --- ------ value --<br>----- ----- ---------- --- --- ------ ------ ---- -- ------<br>------- --- ------ ----- --- ---- ------- -- ---- --- --<br>------- ------,298220.0199998915,298219.2099997774,297829.997,297839.84999964014,297846.41,298229.954,,31,value
screen,html.Screen,1_1_1_1_32,2021-04-20T14:12:34.229Z,,,,,,,,,,,,,,,,54,,,,,,,,,,,,,,331.16599973652046,,response,,,,100,,,,,,,Space,keypress(Space),,,,,,,,-- --- ---- --- ------ ----- ------- ---- -- --- ------- --<br>------- ---------- ------ -- ----- -- ----- -- ---- ------<br>--- ----- --- --- ------ -------- ----- --- ------ ----- of<br>----- ----- ---------- --- --- ------ ------ ---- -- ------<br>------- --- ------ ----- --- ---- ------- -- ---- --- --<br>------- ------,298561.86500005424,298561.11999973655,298213.124,298220.19999986514,298229.954,298587.337,,32,of
screen,html.Screen,1_1_1_1_33,2021-04-20T14:12:34.570Z,,,,,,,,,,,,,,,,54,,,,,,,,,,,,,,314.82300005602883,,response,,,,100,,,,,,,Space,keypress(Space),,,,,,,,-- --- ---- --- ------ ----- ------- ---- -- --- ------- --<br>------- ---------- ------ -- ----- -- ----- -- ---- ------<br>--- ----- --- --- ------ -------- ----- --- ------ ----- --<br>these ----- ---------- --- --- ------ ------ ---- -- ------<br>------- --- ------ ----- --- ---- ------- -- ---- --- --<br>------- ------,298903.0049997382,298902.160000056,298546.558,298562.0349999517,298587.337,298913.177,,33,these
screen,html.Screen,1_1_1_1_34,2021-04-20T14:12:34.861Z,,,,,,,,,,,,,,,,54,,,,,,,,,,,,,,280.44300003454555,,response,,,,100,,,,,,,Space,keypress(Space),,,,,,,,-- --- ---- --- ------ ----- ------- ---- -- --- ------- --<br>------- ---------- ------ -- ----- -- ----- -- ---- ------<br>--- ----- --- --- ------ -------- ----- --- ------ ----- --<br>----- bonds ---------- --- --- ------ ------ ---- -- ------<br>------- --- ------ ----- --- ---- ------- -- ---- --- --<br>------- ------,299194.3299998529,299193.62000003457,298896.345,298903.20000005886,298913.177,299196.005,,34,bonds
screen,html.Screen,1_1_1_1_35,2021-04-20T14:12:35.197Z,,,,,,,,,,,,,,,,54,,,,,,,,,,,,,,332.8650000382913,,response,,,,100,,,,,,,Space,keypress(Space),,,,,,,,"-- --- ---- --- ------ ----- ------- ---- -- --- ------- --<br>------- ---------- ------ -- ----- -- ----- -- ---- ------<br>--- ----- --- --- ------ -------- ----- --- ------ ----- --<br>----- ----- plummeted, --- --- ------ ------ ---- -- ------<br>------- --- ------ ----- --- ---- ------- -- ---- --- --<br>------- ------",299529.69999983907,299528.8700000383,299179.422,299194.51500009745,299196.005,299546.415,,35,"plummeted,"
screen,html.Screen,1_1_1_1_36,2021-04-20T14:12:35.531Z,,,,,,,,,,,,,,,,54,,,,,,,,,,,,,,316.7999999030144,,response,,,,100,,,,,,,Space,keypress(Space),,,,,,,,-- --- ---- --- ------ ----- ------- ---- -- --- ------- --<br>------- ---------- ------ -- ----- -- ----- -- ---- ------<br>--- ----- --- --- ------ -------- ----- --- ------ ----- --<br>----- ----- ---------- and --- ------ ------ ---- -- ------<br>------- --- ------ ----- --- ---- ------- -- ---- --- --<br>------- ------,299864.07999973744,299863.214999903,299529.605,299529.899999965,299546.415,299879.377,,36,and
screen,html.Screen,1_1_1_1_37,2021-04-20T14:12:35.896Z,,,,,,,,,,,,,,,,54,,,,,,,,,,,,,,348.1679996814346,,response,,,,100,,,,,,,Space,keypress(Space),,,,,,,,-- --- ---- --- ------ ----- ------- ---- -- --- ------- --<br>------- ---------- ------ -- ----- -- ----- -- ---- ------<br>--- ----- --- --- ------ -------- ----- --- ------ ----- --<br>----- ----- ---------- --- the ------ ------ ---- -- ------<br>------- --- ------ ----- --- ---- ------- -- ---- --- --<br>------- ------,300228.3799997531,300227.5449996814,299862.993,299864.2750000581,299879.377,300246.199,,37,the
screen,html.Screen,1_1_1_1_38,2021-04-20T14:12:36.226Z,,,,,,,,,,,,,,,,54,,,,,,,,,,,,,,311.43599997553974,,response,,,,100,,,,,,,Space,keypress(Space),,,,,,,,-- --- ---- --- ------ ----- ------- ---- -- --- ------- --<br>------- ---------- ------ -- ----- -- ----- -- ---- ------<br>--- ----- --- --- ------ -------- ----- --- ------ ----- --<br>----- ----- ---------- --- --- market ------ ---- -- ------<br>------- --- ------ ----- --- ---- ------- -- ---- --- --<br>------- ------,300558.4799996577,300557.63499997556,300212.934,300228.57500007376,300246.199,300562.438,,38,market
screen,html.Screen,1_1_1_1_39,2021-04-20T14:12:36.534Z,,,,,,,,,,,,,,,,54,,,,,,,,,,,,,,303.8220000388683,,response,,,,100,,,,,,,Space,keypress(Space),,,,,,,,-- --- ---- --- ------ ----- ------- ---- -- --- ------- --<br>------- ---------- ------ -- ----- -- ----- -- ---- ------<br>--- ----- --- --- ------ -------- ----- --- ------ ----- --<br>----- ----- ---------- --- --- ------ became ---- -- ------<br>------- --- ------ ----- --- ---- ------- -- ---- --- --<br>------- ------,300867.1299996786,300866.2600000389,300546.127,300558.67999978364,300562.438,300879.414,,39,became
screen,html.Screen,1_1_1_1_40,2021-04-20T14:12:36.878Z,,,,,,,,,,,,,,,,54,,,,,,,,,,,,,,330.36099987931084,,response,,,,100,,,,,,,Space,keypress(Space),,,,,,,,-- --- ---- --- ------ ----- ------- ---- -- --- ------- --<br>------- ---------- ------ -- ----- -- ----- -- ---- ------<br>--- ----- --- --- ------ -------- ----- --- ------ ----- --<br>----- ----- ---------- --- --- ------ ------ wary -- ------<br>------- --- ------ ----- --- ---- ------- -- ---- --- --<br>------- ------,301210.609999951,301209.7749998793,300862.747,300867.31999972835,300879.414,301233.724,,40,wary
screen,html.Screen,1_1_1_1_41,2021-04-20T14:12:37.259Z,,,,,,,,,,,,,,,,54,,,,,,,,,,,,,,356.83099965326255,,response,,,,100,,,,,,,Space,keypress(Space),,,,,,,,-- --- ---- --- ------ ----- ------- ---- -- --- ------- --<br>------- ---------- ------ -- ----- -- ----- -- ---- ------<br>--- ----- --- --- ------ -------- ----- --- ------ ----- --<br>----- ----- ---------- --- --- ------ ------ ---- of ------<br>------- --- ------ ----- --- ---- ------- -- ---- --- --<br>------- ------,301591.405000072,301590.55499965325,301195.969,301210.8100000769,301233.724,301595.752,,41,of
screen,html.Screen,1_1_1_1_42,2021-04-20T14:12:37.657Z,,,,,,,,,,,,,,,,54,,,,,,,,,,,,,,393.18299979751464,,response,,,,100,,,,,,,Space,keypress(Space),,,,,,,,-- --- ---- --- ------ ----- ------- ---- -- --- ------- --<br>------- ---------- ------ -- ----- -- ----- -- ---- ------<br>--- ----- --- --- ------ -------- ----- --- ------ ----- --<br>----- ----- ---------- --- --- ------ ------ ---- -- French<br>------- --- ------ ----- --- ---- ------- -- ---- --- --<br>------- ------,301989.78499975055,301988.9349997975,301579.245,301591.61000000313,301595.752,301995.789,,42,French
screen,html.Screen,1_1_1_1_43,2021-04-20T14:12:38.047Z,,,,,,,,,,,,,,,,54,,,,,,,,,,,,,,383.646000009845,,response,,,,100,,,,,,,Space,keypress(Space),,,,,,,,-- --- ---- --- ------ ----- ------- ---- -- --- ------- --<br>------- ---------- ------ -- ----- -- ----- -- ---- ------<br>--- ----- --- --- ------ -------- ----- --- ------ ----- --<br>----- ----- ---------- --- --- ------ ------ ---- -- ------<br>credit. --- ------ ----- --- ---- ------- -- ---- --- --<br>------- ------,302380.3099999204,302379.43500000983,301979.204,301989.98499987647,301995.789,302395.65,,43,credit.
screen,html.Screen,1_1_1_1_44,2021-04-20T14:12:38.463Z,,,,,,,,,,,,,,,,54,,,,,,,,,,,,,,399.3700000777608,,response,,,,100,,,,,,,Space,keypress(Space),,,,,,,,-- --- ---- --- ------ ----- ------- ---- -- --- ------- --<br>------- ---------- ------ -- ----- -- ----- -- ---- ------<br>--- ----- --- --- ------ -------- ----- --- ------ ----- --<br>----- ----- ---------- --- --- ------ ------ ---- -- ------<br>------- The ------ ----- --- ---- ------- -- ---- --- --<br>------- ------,302795.8749998361,302795.0200000778,302379.447,302380.48999989405,302395.65,302812.585,,44,The
screen,html.Screen,1_1_1_1_45,2021-04-20T14:12:38.829Z,,,,,,,,,,,,,,,,54,,,,,,,,,,,,,,348.8299999804585,,response,,,,100,,,,,,,Space,keypress(Space),,,,,,,,-- --- ---- --- ------ ----- ------- ---- -- --- ------- --<br>------- ---------- ------ -- ----- -- ----- -- ---- ------<br>--- ----- --- --- ------ -------- ----- --- ------ ----- --<br>----- ----- ---------- --- --- ------ ------ ---- -- ------<br>------- --- French ----- --- ---- ------- -- ---- --- --<br>------- ------,303162.28500008583,303161.4149999805,302795.851,302796.074999962,302812.585,303179.169,,45,French
screen,html.Screen,1_1_1_1_46,2021-04-20T14:12:39.223Z,,,,,,,,,,,,,,,,54,,,,,,,,,,,,,,376.3259999786969,,response,,,,100,,,,,,,Space,keypress(Space),,,,,,,,-- --- ---- --- ------ ----- ------- ---- -- --- ------- --<br>------- ---------- ------ -- ----- -- ----- -- ---- ------<br>--- ----- --- --- ------ -------- ----- --- ------ ----- --<br>----- ----- ---------- --- --- ------ ------ ---- -- ------<br>------- --- ------ state --- ---- ------- -- ---- --- --<br>------- ------,303556.33000005037,303555.4949999787,303162.456,303162.45999978855,303179.169,303562.202,,46,state
screen,html.Screen,1_1_1_1_47,2021-04-20T14:12:39.554Z,,,,,,,,,,,,,,,,54,,,,,,,,,,,,,,324.30799963284517,,response,,,,100,,,,,,,Space,keypress(Space),,,,,,,,-- --- ---- --- ------ ----- ------- ---- -- --- ------- --<br>------- ---------- ------ -- ----- -- ----- -- ---- ------<br>--- ----- --- --- ------ -------- ----- --- ------ ----- --<br>----- ----- ---------- --- --- ------ ------ ---- -- ------<br>------- --- ------ ----- was ---- ------- -- ---- --- --<br>------- ------,303887.3250000179,303886.50999963284,303545.737,303556.5349999815,303562.202,303895.679,,47,was
screen,html.Screen,1_1_1_1_48,2021-04-20T14:12:39.899Z,,,,,,,,,,,,,,,,54,,,,,,,,,,,,,,335.0459996811114,,response,,,,100,,,,,,,Space,keypress(Space),,,,,,,,-- --- ---- --- ------ ----- ------- ---- -- --- ------- --<br>------- ---------- ------ -- ----- -- ----- -- ---- ------<br>--- ----- --- --- ------ -------- ----- --- ------ ----- --<br>----- ----- ---------- --- --- ------ ------ ---- -- ------<br>------- --- ------ ----- --- left ------- -- ---- --- --<br>------- ------,304231.56999982893,304230.7249996811,303878.934,303887.5049999915,303895.679,304245.682,,48,left
screen,html.Screen,1_1_1_1_49,2021-04-20T14:12:40.211Z,,,,,,,,,,,,,,,,54,,,,,,,,,,,,,,297.64799978217343,,response,,,,100,,,,,,,Space,keypress(Space),,,,,,,,-- --- ---- --- ------ ----- ------- ---- -- --- ------- --<br>------- ---------- ------ -- ----- -- ----- -- ---- ------<br>--- ----- --- --- ------ -------- ----- --- ------ ----- --<br>----- ----- ---------- --- --- ------ ------ ---- -- ------<br>------- --- ------ ----- --- ---- without -- ---- --- --<br>------- ------,304544.1399998963,304543.32999978215,304228.876,304231.76499968395,304245.682,304562.989,,49,without
screen,html.Screen,1_1_1_1_50,2021-04-20T14:12:40.646Z,,,,,,,,,,,,,,,,54,,,,,,,,,,,,,,415.2659999654279,,response,,,,100,,,,,,,Space,keypress(Space),,,,,,,,-- --- ---- --- ------ ----- ------- ---- -- --- ------- --<br>------- ---------- ------ -- ----- -- ----- -- ---- ------<br>--- ----- --- --- ------ -------- ----- --- ------ ----- --<br>----- ----- ---------- --- --- ------ ------ ---- -- ------<br>------- --- ------ ----- --- ---- ------- an ---- --- --<br>------- ------,304979.09499984235,304978.25499996543,304528.546,304544.32499967515,304562.989,304995.534,,50,an
screen,html.Screen,1_1_1_1_51,2021-04-20T14:12:41.040Z,,,,,,,,,,,,,,,,54,,,,,,,,,,,,,,376.3909996356815,,response,,,,100,,,,,,,Space,keypress(Space),,,,,,,,-- --- ---- --- ------ ----- ------- ---- -- --- ------- --<br>------- ---------- ------ -- ----- -- ----- -- ---- ------<br>--- ----- --- --- ------ -------- ----- --- ------ ----- --<br>----- ----- ---------- --- --- ------ ------ ---- -- ------<br>------- --- ------ ----- --- ---- ------- -- easy --- --<br>------- ------,305372.76499997824,305371.92499963567,304978.737,304979.29499996826,304995.534,305378.446,,51,easy
screen,html.Screen,1_1_1_1_52,2021-04-20T14:12:41.363Z,,,,,,,,,,,,,,,,54,,,,,,,,,,,,,,316.35899997735396,,response,,,,100,,,,,,,Space,keypress(Space),,,,,,,,-- --- ---- --- ------ ----- ------- ---- -- --- ------- --<br>------- ---------- ------ -- ----- -- ----- -- ---- ------<br>--- ----- --- --- ------ -------- ----- --- ------ ----- --<br>----- ----- ---------- --- --- ------ ------ ---- -- ------<br>------- --- ------ ----- --- ---- ------- -- ---- way --<br>------- ------,305695.6549999304,305694.80499997735,305362.104,305372.95999983326,305378.446,305712.109,,52,way
screen,html.Screen,1_1_1_1_53,2021-04-20T14:12:41.736Z,,,,,,,,,,,,,,,,54,,,,,,,,,,,,,,355.4110000405344,,response,,,,100,,,,,,,Space,keypress(Space),,,,,,,,-- --- ---- --- ------ ----- ------- ---- -- --- ------- --<br>------- ---------- ------ -- ----- -- ----- -- ---- ------<br>--- ----- --- --- ------ -------- ----- --- ------ ----- --<br>----- ----- ---------- --- --- ------ ------ ---- -- ------<br>------- --- ------ ----- --- ---- ------- -- ---- --- of<br>------- ------,306068.4099998325,306067.52000004053,305694.994,305695.8550000563,305712.109,306078.7,,53,of
screen,html.Screen,1_1_1_1_54,2021-04-20T14:12:42.036Z,,,,,,,,,,,,,,,,54,,,,,,,,,,,,,,289.0499997429433,,response,,,,100,,,,,,,Space,keypress(Space),,,,,,,,-- --- ---- --- ------ ----- ------- ---- -- --- ------- --<br>------- ---------- ------ -- ----- -- ----- -- ---- ------<br>--- ----- --- --- ------ -------- ----- --- ------ ----- --<br>----- ----- ---------- --- --- ------ ------ ---- -- ------<br>------- --- ------ ----- --- ---- ------- -- ---- --- --<br>raising ------,306368.599999696,306367.74999974295,306061.999,306068.6049996875,306078.7,306378.641,,54,raising
screen,html.Screen,1_1_1_1_55,2021-04-20T14:12:42.375Z,,,,,,,,,,,,,,,,54,,,,,,,,,,,,,,328.8889997813967,,response,,,,100,,,,,,,Space,keypress(Space),,,,,,,,-- --- ---- --- ------ ----- ------- ---- -- --- ------- --<br>------- ---------- ------ -- ----- -- ----- -- ---- ------<br>--- ----- --- --- ------ -------- ----- --- ------ ----- --<br>----- ----- ---------- --- --- ------ ------ ---- -- ------<br>------- --- ------ ----- --- ---- ------- -- ---- --- --<br>------- money.,306708.3499999717,306707.5299997814,306361.937,306368.80500009283,306378.641,306711.482,,55,money.
Item 100,flow.Loop,1_1_1_1,2021-04-20T14:12:42.376Z,,,,,,,,,,,,,,,,,,,,,,,,,,,,,,25024.939999781374,,completion,,,,,D,,,,,,,,,,,silence,,,,,306708.6799996905,306707.5299997814,281665.869,281666.98500001803,281682.59,306711.482,,,
Question 1,html.Screen,1_1_1_2,2021-04-20T14:12:45.554Z,,,,,,,,,,,,,,,,,,,,,,,,,,,true,TRUE,,3174.102999807161,,response,,,,100,D,,,,,,TRUE,click #choice-1,,,,silence,,,,,309887.0349996723,309885.5849998072,306695.216,306708.8199998252,306711.482,309894.284,,,
Question 2,html.Screen,1_1_1_3,2021-04-20T14:12:47.656Z,,,,,,,,,,,,,,,,,,,,,,,,,,,true,FALSE,,2093.6459998283535,,response,,,,100,D,,,,,,FALSE,click #choice-2,,,,silence,,,,,311989.3299997784,311987.92999982834,309877.911,309887.21999991685,309894.284,311993.957,,,
Item 100,flow.Sequence,1_1_1,2021-04-20T14:12:47.657Z,,,,,,,,,,,,,,,,,,,,,,,,,,,,,,40303.75699982833,,completion,,,,,,,,,,,,,,,,,,,,,311989.6399998106,311987.92999982834,271667.507,271670.3149997629,271684.173,311993.957,,,
End of Practice,html.Page,1_1_2,2021-04-20T14:12:51.493Z,,,,,,,,,,,,,,,,,,,,,,,,,,,,,,3831.968000011926,,form submission,,,,,,,,,,,,,,,,,,,,,315826.22499996796,315825.9250000119,311977.562,311989.76999986917,311993.957,315826.718,,,
Practice,flow.Sequence,1_1,2021-04-20T14:12:51.494Z,,,,,,,,,,,,,,,,,,,,,,,,,,,,,,90651.32200001192,,completion,,,,,,,,,,,,,,,,,,,,,315826.4799998142,315825.9250000119,225157.925,225171.0699996911,225174.603,315826.718,,,
Trap_instruction,html.Page,1_2_0,2021-04-20T14:12:56.409Z,,,,,,,,,,,,,,,,,,,,,,,,,,,,,,4914.447000014014,,form submission,,,,,,,,,,,,,,,,,,,,,320741.4949997328,320741.165000014,315810.444,315826.6349998303,315826.718,320775.866,,,
trap_trial,html.Screen,1_2_1,2021-04-20T14:13:01.338Z,,,,,,,,,,,,,,,,,,,,,,,,,,,true,1,,4893.478999827465,,response,,,,,,,,,,,1,click #choice-1,,,,,,,,,325670.8149998449,325669.34499982744,320726.288,320741.67999997735,320775.866,325675.933,,,
end of trap trial,html.Page,1_2_2,2021-04-20T14:13:04.397Z,,,,,,,,,,,,,,,,,,,,,,,,,,,,,,3053.1119999272632,,form submission,,,,,,,,,,,,,,,,,,,,,328729.3599997647,328729.0449999273,325658.531,325671.0149999708,325675.933,328741.48,,,
Trap 1,flow.Sequence,1_2,2021-04-20T14:13:04.397Z,,,,,,,,,,,,,,,,,,,,,,,,,,,,,,12902.326999927289,,completion,,,,,,,,,,,,,,,,,,,,,328729.61999988183,328729.0449999273,315810.444,315826.58999972045,315826.718,328741.48,,,
Standby,html.Page,1_3_0,2021-04-20T14:13:12.392Z,,,,,,,,,,,,,,,,,,,,,,,,,,,,,,7998.738000000012,,timeout,,,,,,,,,,,,,,,,,,,,,336724.4599997066,336723.403,328725.039,328729.8049996607,328741.48,336740.218,,,
Holding screen,html.Screen,1_3_1_0_0,2021-04-20T14:13:19.391Z,,,,,,,,,,,,,,,,,,,,,,,,,,,,,,6998.771999999997,,timeout,,,,,,,,,,,,,,,,,,,,,343723.4899997711,343722.462,336723.403,336724.76499993354,336740.218,343738.99,,,
screen,html.Screen,1_3_1_0_1_0,2021-04-20T14:13:21.484Z,,,,,,,,,,,,,,,,51,,,,,,,,,,,,,,2076.5899997039232,,response,,,,13,D,,,,,,Space,keypress(Space),,,,silence,,,,American -------- --- --- ---- --- --- ------ -- --------<br>---- --------- --- ------- ------------ ---------- ---------<br>--- ---------- ------- ---------- ------- -- -------- ----<br>---- --- ------ ----- ------ -- ---- --- ----- -- - -------<br>-------- -- --- --- -- ----- ----------- ----- -----------<br>---- --- ---------- --- ---- --- -- ----------,345816.66499981657,345815.5799997039,343722.462,343723.79499999806,343738.99,345821.859,,0,American
screen,html.Screen,1_3_1_0_1_1,2021-04-20T14:13:22.361Z,,,,,,,,,,,,,,,,51,,,,,,,,,,,,,,870.8859996583196,,response,,,,13,D,,,,,,Space,keypress(Space),,,,silence,,,,-------- industry --- --- ---- --- --- ------ -- --------<br>---- --------- --- ------- ------------ ---------- ---------<br>--- ---------- ------- ---------- ------- -- -------- ----<br>---- --- ------ ----- ------ -- ---- --- ----- -- - -------<br>-------- -- --- --- -- ----- ----------- ----- -----------<br>---- --- ---------- --- ---- --- -- ----------,346693.6249998398,346692.7449996583,345805.836,345816.8699997477,345821.859,346705.543,,1,industry
screen,html.Screen,1_3_1_0_1_2,2021-04-20T14:13:23.099Z,,,,,,,,,,,,,,,,51,,,,,,,,,,,,,,725.2020000196644,,response,,,,13,D,,,,,,Space,keypress(Space),,,,silence,,,,-------- -------- may --- ---- --- --- ------ -- --------<br>---- --------- --- ------- ------------ ---------- ---------<br>--- ---------- ------- ---------- ------- -- -------- ----<br>---- --- ------ ----- ------ -- ---- --- ----- -- - -------<br>-------- -- --- --- -- ----- ----------- ----- -----------<br>---- --- ---------- --- ---- --- -- ----------,347431.6099998541,347430.74500001967,346688.767,346693.8399998471,346705.543,347438.473,,2,may
screen,html.Screen,1_3_1_0_1_3,2021-04-20T14:13:23.817Z,,,,,,,,,,,,,,,,51,,,,,,,,,,,,,,710.0469998132903,,response,,,,13,D,,,,,,Space,keypress(Space),,,,silence,,,,-------- -------- --- not ---- --- --- ------ -- --------<br>---- --------- --- ------- ------------ ---------- ---------<br>--- ---------- ------- ---------- ------- -- -------- ----<br>---- --- ------ ----- ------ -- ---- --- ----- -- - -------<br>-------- -- --- --- -- ----- ----------- ----- -----------<br>---- --- ---------- --- ---- --- -- ----------,348149.3799998425,348148.5199998133,347422.077,347431.80499970913,347438.473,348154.884,,3,not
screen,html.Screen,1_3_1_0_1_4,2021-04-20T14:13:24.431Z,,,,,,,,,,,,,,,,51,,,,,,,,,,,,,,607.8710000324645,,response,,,,13,D,,,,,,Space,keypress(Space),,,,silence,,,,-------- -------- --- --- know --- --- ------ -- --------<br>---- --------- --- ------- ------------ ---------- ---------<br>--- ---------- ------- ---------- ------- -- -------- ----<br>---- --- ------ ----- ------ -- ---- --- ----- -- - -------<br>-------- -- --- --- -- ----- ----------- ----- -----------<br>---- --- ---------- --- ---- --- -- ----------,348763.60499998555,348762.7550000325,348138.541,348149.58499977365,348154.884,348771.49,,4,know
screen,html.Screen,1_3_1_0_1_5,2021-04-20T14:13:24.887Z,,,,,,,,,,,,,,,,51,,,,,,,,,,,,,,447.06999995023943,,response,,,,13,D,,,,,,Space,keypress(Space),,,,silence,,,,"-------- -------- --- --- ---- it, --- ------ -- --------<br>---- --------- --- ------- ------------ ---------- ---------<br>--- ---------- ------- ---------- ------- -- -------- ----<br>---- --- ------ ----- ------ -- ---- --- ----- -- - -------<br>-------- -- --- --- -- ----- ----------- ----- -----------<br>---- --- ---------- --- ---- --- -- ----------",349219.4999996573,349218.55999995023,348755.093,348763.79999984056,348771.49,349221.32,,5,"it,"
screen,html.Screen,1_3_1_0_1_6,2021-04-20T14:13:25.353Z,,,,,,,,,,,,,,,,51,,,,,,,,,,,,,,464.11499987571733,,response,,,,13,D,,,,,,Space,keypress(Space),,,,silence,,,,-------- -------- --- --- ---- --- but ------ -- --------<br>---- --------- --- ------- ------------ ---------- ---------<br>--- ---------- ------- ---------- ------- -- -------- ----<br>---- --- ------ ----- ------ -- ---- --- ----- -- - -------<br>-------- -- --- --- -- ----- ----------- ----- -----------<br>---- --- ---------- --- ---- --- -- ----------,349686.27499975264,349685.4349998757,349204.96,349219.68000009656,349221.32,349709.592,,6,but
screen,html.Screen,1_3_1_0_1_7,2021-04-20T14:13:25.771Z,,,,,,,,,,,,,,,,51,,,,,,,,,,,,,,393.24799983220873,,response,,,,13,D,,,,,,Space,keypress(Space),,,,silence,,,,-------- -------- --- --- ---- --- --- debate -- --------<br>---- --------- --- ------- ------------ ---------- ---------<br>--- ---------- ------- ---------- ------- -- -------- ----<br>---- --- ------ ----- ------ -- ---- --- ----- -- - -------<br>-------- -- --- --- -- ----- ----------- ----- -----------<br>---- --- ---------- --- ---- --- -- ----------,350103.82999992,350102.8399998322,349671.587,349686.47499987856,349709.592,350121.549,,7,debate
screen,html.Screen,1_3_1_0_1_8,2021-04-20T14:13:26.206Z,,,,,,,,,,,,,,,,51,,,,,,,,,,,,,,416.9109999524662,,response,,,,13,D,,,,,,Space,keypress(Space),,,,silence,,,,-------- -------- --- --- ---- --- --- ------ in --------<br>---- --------- --- ------- ------------ ---------- ---------<br>--- ---------- ------- ---------- ------- -- -------- ----<br>---- --- ------ ----- ------ -- ---- --- ----- -- - -------<br>-------- -- --- --- -- ----- ----------- ----- -----------<br>---- --- ---------- --- ---- --- -- ----------,350539.3199999817,350538.45999995247,350088.132,350104.0999996476,350121.549,350554.826,,8,in
screen,html.Screen,1_3_1_0_1_9,2021-04-20T14:13:26.800Z,,,,,,,,,,,,,,,,51,,,,,,,,,,,,,,576.9839997006347,,response,,,,13,D,,,,,,Space,keypress(Space),,,,silence,,,,-------- -------- --- --- ---- --- --- ------ -- Congress<br>---- --------- --- ------- ------------ ---------- ---------<br>--- ---------- ------- ---------- ------- -- -------- ----<br>---- --- ------ ----- ------ -- ---- --- ----- -- - -------<br>-------- -- --- --- -- ----- ----------- ----- -----------<br>---- --- ---------- --- ---- --- -- ----------,351132.6599996537,351131.80999970064,350538.093,350539.5149998367,350554.826,351137.669,,9,Congress
screen,html.Screen,1_3_1_0_1_10,2021-04-20T14:13:27.228Z,,,,,,,,,,,,,,,,51,,,,,,,,,,,,,,422.58599990210496,,response,,,,13,D,,,,,,Space,keypress(Space),,,,silence,,,,-------- -------- --- --- ---- --- --- ------ -- --------<br>over --------- --- ------- ------------ ---------- ---------<br>--- ---------- ------- ---------- ------- -- -------- ----<br>---- --- ------ ----- ------ -- ---- --- ----- -- - -------<br>-------- -- --- --- -- ----- ----------- ----- -----------<br>---- --- ---------- --- ---- --- -- ----------,351560.81499997526,351560.2549999021,351121.472,351132.8599997796,351137.669,351571.105,,10,over
screen,html.Screen,1_3_1_0_1_11,2021-04-20T14:13:27.664Z,,,,,,,,,,,,,,,,51,,,,,,,,,,,,,,425.0349999447353,,response,,,,13,D,,,,,,Space,keypress(Space),,,,silence,,,,-------- -------- --- --- ---- --- --- ------ -- --------<br>---- reforming --- ------- ------------ ---------- ---------<br>--- ---------- ------- ---------- ------- -- -------- ----<br>---- --- ------ ----- ------ -- ---- --- ----- -- - -------<br>-------- -- --- --- -- ----- ----------- ----- -----------<br>---- --- ---------- --- ---- --- -- ----------,351996.68499967083,351996.1399999447,351554.621,351560.8949996531,351571.105,352004.324,,11,reforming
screen,html.Screen,1_3_1_0_1_12,2021-04-20T14:13:28.127Z,,,,,,,,,,,,,,,,51,,,,,,,,,,,,,,454.6259998837486,,response,,,,13,D,,,,,,Space,keypress(Space),,,,silence,,,,-------- -------- --- --- ---- --- --- ------ -- --------<br>---- --------- the ------- ------------ ---------- ---------<br>--- ---------- ------- ---------- ------- -- -------- ----<br>---- --- ------ ----- ------ -- ---- --- ----- -- - -------<br>-------- -- --- --- -- ----- ----------- ----- -----------<br>---- --- ---------- --- ---- --- -- ----------,352459.8199999891,352458.9499998838,351987.628,351996.8349998817,352004.324,352471.276,,12,the
screen,html.Screen,1_3_1_0_1_13,2021-04-20T14:13:28.587Z,,,,,,,,,,,,,,,,51,,,,,,,,,,,,,,448.1889998098486,,response,,,,13,D,,,,,,Space,keypress(Space),,,,silence,,,,-------- -------- --- --- ---- --- --- ------ -- --------<br>---- --------- --- federal ------------ ---------- ---------<br>--- ---------- ------- ---------- ------- -- -------- ----<br>---- --- ------ ----- ------ -- ---- --- ----- -- - -------<br>-------- -- --- --- -- ----- ----------- ----- -----------<br>---- --- ---------- --- ---- --- -- ----------,352920.3200000338,352919.46499980986,352454.189,352460.01499984413,352471.276,352954.562,,13,federal
screen,html.Screen,1_3_1_0_1_14,2021-04-20T14:13:29.380Z,,,,,,,,,,,,,,,,51,,,,,,,,,,,,,,757.7279997048317,,response,,,,13,D,,,,,,Space,keypress(Space),,,,silence,,,,-------- -------- --- --- ---- --- --- ------ -- --------<br>---- --------- --- ------- government's ---------- ---------<br>--- ---------- ------- ---------- ------- -- -------- ----<br>---- --- ------ ----- ------ -- ---- --- ----- -- - -------<br>-------- -- --- --- -- ----- ----------- ----- -----------<br>---- --- ---------- --- ---- --- -- ----------,353713.149999734,353712.2899997048,352937.775,352920.51499988884,352954.562,353720.772,,14,government's
screen,html.Screen,1_3_1_0_1_15,2021-04-20T14:13:29.968Z,,,,,,,,,,,,,,,,51,,,,,,,,,,,,,,579.2330000846414,,response,,,,13,D,,,,,,Space,keypress(Space),,,,silence,,,,-------- -------- --- --- ---- --- --- ------ -- --------<br>---- --------- --- ------- ------------ regulatory ---------<br>--- ---------- ------- ---------- ------- -- -------- ----<br>---- --- ------ ----- ------ -- ---- --- ----- -- - -------<br>-------- -- --- --- -- ----- ----------- ----- -----------<br>---- --- ---------- --- ---- --- -- ----------,354300.8699999191,354300.00500008464,353704.057,353713.3450000547,353720.772,354303.838,,15,regulatory
screen,html.Screen,1_3_1_0_1_16,2021-04-20T14:13:30.467Z,,,,,,,,,,,,,,,,51,,,,,,,,,,,,,,495.26199994562194,,response,,,,13,D,,,,,,Space,keypress(Space),,,,silence,,,,-------- -------- --- --- ---- --- --- ------ -- --------<br>---- --------- --- ------- ------------ ---------- apparatus<br>--- ---------- ------- ---------- ------- -- -------- ----<br>---- --- ------ ----- ------ -- ---- --- ----- -- - -------<br>-------- -- --- --- -- ----- ----------- ----- -----------<br>---- --- ---------- --- ---- --- -- ----------,354799.9399998225,354799.0999999456,354287.54,354301.05999996886,354303.838,354803.781,,16,apparatus
screen,html.Screen,1_3_1_0_1_17,2021-04-20T14:13:30.896Z,,,,,,,,,,,,,,,,51,,,,,,,,,,,,,,423.90399981610244,,response,,,,13,D,,,,,,Space,keypress(Space),,,,silence,,,,-------- -------- --- --- ---- --- --- ------ -- --------<br>---- --------- --- ------- ------------ ---------- ---------<br>may ---------- ------- ---------- ------- -- -------- ----<br>---- --- ------ ----- ------ -- ---- --- ----- -- - -------<br>-------- -- --- --- -- ----- ----------- ----- -----------<br>---- --- ---------- --- ---- --- -- ----------,355228.5400000401,355227.6849998161,354787.467,354800.12500006706,354803.781,355237.495,,17,may
screen,html.Screen,1_3_1_0_1_18,2021-04-20T14:13:31.340Z,,,,,,,,,,,,,,,,51,,,,,,,,,,,,,,434.6749996851431,,response,,,,13,D,,,,,,Space,keypress(Space),,,,silence,,,,-------- -------- --- --- ---- --- --- ------ -- --------<br>---- --------- --- ------- ------------ ---------- ---------<br>--- profoundly ------- ---------- ------- -- -------- ----<br>---- --- ------ ----- ------ -- ---- --- ----- -- - -------<br>-------- -- --- --- -- ----- ----------- ----- -----------<br>---- --- ---------- --- ---- --- -- ----------,355673.03499998525,355672.16999968514,355220.679,355228.72499981895,355237.495,355687.446,,18,profoundly
screen,html.Screen,1_3_1_0_1_19,2021-04-20T14:13:31.807Z,,,,,,,,,,,,,,,,51,,,,,,,,,,,,,,451.744000016246,,response,,,,13,D,,,,,,Space,keypress(Space),,,,silence,,,,-------- -------- --- --- ---- --- --- ------ -- --------<br>---- --------- --- ------- ------------ ---------- ---------<br>--- ---------- improve ---------- ------- -- -------- ----<br>---- --- ------ ----- ------ -- ---- --- ----- -- - -------<br>-------- -- --- --- -- ----- ----------- ----- -----------<br>---- --- ---------- --- ---- --- -- ----------,356140.0549998507,356139.19000001624,355670.733,355673.2349996455,355687.446,356153.712,,19,improve
screen,html.Screen,1_3_1_0_1_20,2021-04-20T14:13:32.217Z,,,,,,,,,,,,,,,,51,,,,,,,,,,,,,,395.0779999134247,,response,,,,13,D,,,,,,Space,keypress(Space),,,,silence,,,,-------- -------- --- --- ---- --- --- ------ -- --------<br>---- --------- --- ------- ------------ ---------- ---------<br>--- ---------- ------- companies' ------- -- -------- ----<br>---- --- ------ ----- ------ -- ---- --- ----- -- - -------<br>-------- -- --- --- -- ----- ----------- ----- -----------<br>---- --- ---------- --- ---- --- -- ----------,356549.6799997054,356548.7899999134,356137.023,356140.2400000952,356153.712,356553.48,,20,companies'
screen,html.Screen,1_3_1_0_1_21,2021-04-20T14:13:32.695Z,,,,,,,,,,,,,,,,51,,,,,,,,,,,,,,473.40999986277893,,response,,,,13,D,,,,,,Space,keypress(Space),,,,silence,,,,-------- -------- --- --- ---- --- --- ------ -- --------<br>---- --------- --- ------- ------------ ---------- ---------<br>--- ---------- ------- ---------- ability -- -------- ----<br>---- --- ------ ----- ------ -- ---- --- ----- -- - -------<br>-------- -- --- --- -- ----- ----------- ----- -----------<br>---- --- ---------- --- ---- --- -- ----------,357027.7299997397,357026.88999986276,356537.24,356549.8799998313,356553.48,357037.209,,21,ability
screen,html.Screen,1_3_1_0_1_22,2021-04-20T14:13:33.180Z,,,,,,,,,,,,,,,,51,,,,,,,,,,,,,,474.5959997836617,,response,,,,13,D,,,,,,Space,keypress(Space),,,,silence,,,,-------- -------- --- --- ---- --- --- ------ -- --------<br>---- --------- --- ------- ------------ ---------- ---------<br>--- ---------- ------- ---------- ------- to -------- ----<br>---- --- ------ ----- ------ -- ---- --- ----- -- - -------<br>-------- -- --- --- -- ----- ----------- ----- -----------<br>---- --- ---------- --- ---- --- -- ----------,357512.62999977916,357511.80499978364,357020.416,357027.92500006035,357037.209,357520.127,,22,to
screen,html.Screen,1_3_1_0_1_23,2021-04-20T14:13:33.660Z,,,,,,,,,,,,,,,,51,,,,,,,,,,,,,,472.0029996786034,,response,,,,13,D,,,,,,Space,keypress(Space),,,,silence,,,,-------- -------- --- --- ---- --- --- ------ -- --------<br>---- --------- --- ------- ------------ ---------- ---------<br>--- ---------- ------- ---------- ------- -- survive. ----<br>---- --- ------ ----- ------ -- ---- --- ----- -- - -------<br>-------- -- --- --- -- ----- ----------- ----- -----------<br>---- --- ---------- --- ---- --- -- ----------,357992.9800000973,357992.1299996786,357503.758,357512.8249996342,357520.127,358003.567,,23,survive.
screen,html.Screen,1_3_1_0_1_24,2021-04-20T14:13:34.136Z,,,,,,,,,,,,,,,,51,,,,,,,,,,,,,,464.3979998434079,,response,,,,13,D,,,,,,Space,keypress(Space),,,,silence,,,,-------- -------- --- --- ---- --- --- ------ -- --------<br>---- --------- --- ------- ------------ ---------- ---------<br>--- ---------- ------- ---------- ------- -- -------- This<br>---- --- ------ ----- ------ -- ---- --- ----- -- - -------<br>-------- -- --- --- -- ----- ----------- ----- -----------<br>---- --- ---------- --- ---- --- -- ----------,358468.7899998389,358467.9649998434,357986.638,357993.17999975756,358003.567,358491.711,,24,This
screen,html.Screen,1_3_1_0_1_25,2021-04-20T14:13:34.536Z,,,,,,,,,,,,,,,,51,,,,,,,,,,,,,,376.728999874671,,response,,,,13,D,,,,,,Space,keypress(Space),,,,silence,,,,-------- -------- --- --- ---- --- --- ------ -- --------<br>---- --------- --- ------- ------------ ---------- ---------<br>--- ---------- ------- ---------- ------- -- -------- ----<br>week --- ------ ----- ------ -- ---- --- ----- -- - -------<br>-------- -- --- --- -- ----- ----------- ----- -----------<br>---- --- ---------- --- ---- --- -- ----------,358869.2850000225,358868.4399998747,358453.614,358468.96999981254,358491.711,358903.575,,25,week
screen,html.Screen,1_3_1_0_1_26,2021-04-20T14:13:34.914Z,,,,,,,,,,,,,,,,51,,,,,,,,,,,,,,342.76500007061986,,response,,,,13,D,,,,,,Space,keypress(Space),,,,silence,,,,-------- -------- --- --- ---- --- --- ------ -- --------<br>---- --------- --- ------- ------------ ---------- ---------<br>--- ---------- ------- ---------- ------- -- -------- ----<br>---- the ------ ----- ------ -- ---- --- ----- -- - -------<br>-------- -- --- --- -- ----- ----------- ----- -----------<br>---- --- ---------- --- ---- --- -- ----------,359247.17499967664,359246.34000007063,358886.811,358869.48499968275,358903.575,359253.043,,26,the
screen,html.Screen,1_3_1_0_1_27,2021-04-20T14:13:35.306Z,,,,,,,,,,,,,,,,51,,,,,,,,,,,,,,385.266999834741,,response,,,,13,D,,,,,,Space,keypress(Space),,,,silence,,,,-------- -------- --- --- ---- --- --- ------ -- --------<br>---- --------- --- ------- ------------ ---------- ---------<br>--- ---------- ------- ---------- ------- -- -------- ----<br>---- --- Senate ----- ------ -- ---- --- ----- -- - -------<br>-------- -- --- --- -- ----- ----------- ----- -----------<br>---- --- ---------- --- ---- --- -- ----------,359639.1599997878,359638.30999983475,359236.73,359247.3699999973,359253.043,359653.524,,27,Senate
screen,html.Screen,1_3_1_0_1_28,2021-04-20T14:13:35.702Z,,,,,,,,,,,,,,,,51,,,,,,,,,,,,,,380.66600003489293,,response,,,,13,D,,,,,,Space,keypress(Space),,,,silence,,,,-------- -------- --- --- ---- --- --- ------ -- --------<br>---- --------- --- ------- ------------ ---------- ---------<br>--- ---------- ------- ---------- ------- -- -------- ----<br>---- --- ------ seems ------ -- ---- --- ----- -- - -------<br>-------- -- --- --- -- ----- ----------- ----- -----------<br>---- --- ---------- --- ---- --- -- ----------,360035.0449997932,360034.19000003487,359636.481,359639.3549996428,359653.524,360058.626,,28,seems
screen,html.Screen,1_3_1_0_1_29,2021-04-20T14:13:36.086Z,,,,,,,,,,,,,,,,51,,,,,,,,,,,,,,359.8640000691521,,response,,,,13,D,,,,,,Space,keypress(Space),,,,silence,,,,-------- -------- --- --- ---- --- --- ------ -- --------<br>---- --------- --- ------- ------------ ---------- ---------<br>--- ---------- ------- ---------- ------- -- -------- ----<br>---- --- ------ ----- poised -- ---- --- ----- -- - -------<br>-------- -- --- --- -- ----- ----------- ----- -----------<br>---- --- ---------- --- ---- --- -- ----------,360419.38999993727,360418.49000006914,360020.036,360035.2399996482,360058.626,360436.512,,29,poised
screen,html.Screen,1_3_1_0_1_30,2021-04-20T14:13:36.514Z,,,,,,,,,,,,,,,,51,,,,,,,,,,,,,,409.60300008032937,,response,,,,13,D,,,,,,Space,keypress(Space),,,,silence,,,,-------- -------- --- --- ---- --- --- ------ -- --------<br>---- --------- --- ------- ------------ ---------- ---------<br>--- ---------- ------- ---------- ------- -- -------- ----<br>---- --- ------ ----- ------ to ---- --- ----- -- - -------<br>-------- -- --- --- -- ----- ----------- ----- -----------<br>---- --- ---------- --- ---- --- -- ----------,360846.97999991477,360846.1150000803,360419.837,360419.5849997923,360436.512,360852.811,,30,to
screen,html.Screen,1_3_1_0_1_31,2021-04-20T14:13:36.861Z,,,,,,,,,,,,,,,,51,,,,,,,,,,,,,,340.8239999159705,,response,,,,13,D,,,,,,Space,keypress(Space),,,,silence,,,,-------- -------- --- --- ---- --- --- ------ -- --------<br>---- --------- --- ------- ------------ ---------- ---------<br>--- ---------- ------- ---------- ------- -- -------- ----<br>---- --- ------ ----- ------ -- join --- ----- -- - -------<br>-------- -- --- --- -- ----- ----------- ----- -----------<br>---- --- ---------- --- ---- --- -- ----------,361194.5050000213,361193.63499991596,360836.559,360847.1800000407,360852.811,361203.194,,31,join
screen,html.Screen,1_3_1_0_1_32,2021-04-20T14:13:37.238Z,,,,,,,,,,,,,,,,51,,,,,,,,,,,,,,366.8559997474076,,response,,,,13,D,,,,,,Space,keypress(Space),,,,silence,,,,-------- -------- --- --- ---- --- --- ------ -- --------<br>---- --------- --- ------- ------------ ---------- ---------<br>--- ---------- ------- ---------- ------- -- -------- ----<br>---- --- ------ ----- ------ -- ---- the ----- -- - -------<br>-------- -- --- --- -- ----- ----------- ----- -----------<br>---- --- ---------- --- ---- --- -- ----------,361570.94000000507,361570.0499997474,361186.38,361194.6999998763,361203.194,361586.489,,32,the
screen,html.Screen,1_3_1_0_1_33,2021-04-20T14:13:37.581Z,,,,,,,,,,,,,,,,51,,,,,,,,,,,,,,327.31600001832703,,response,,,,13,D,,,,,,Space,keypress(Space),,,,silence,,,,-------- -------- --- --- ---- --- --- ------ -- --------<br>---- --------- --- ------- ------------ ---------- ---------<br>--- ---------- ------- ---------- ------- -- -------- ----<br>---- --- ------ ----- ------ -- ---- --- House -- - -------<br>-------- -- --- --- -- ----- ----------- ----- -----------<br>---- --- ---------- --- ---- --- -- ----------,361914.64499989524,361913.8050000183,361569.763,361572.1299997531,361586.489,361919.288,,33,House
screen,html.Screen,1_3_1_0_1_34,2021-04-20T14:13:37.976Z,,,,,,,,,,,,,,,,51,,,,,,,,,,,,,,389.21199981000973,,response,,,,13,D,,,,,,Space,keypress(Space),,,,silence,,,,-------- -------- --- --- ---- --- --- ------ -- --------<br>---- --------- --- ------- ------------ ---------- ---------<br>--- ---------- ------- ---------- ------- -- -------- ----<br>---- --- ------ ----- ------ -- ---- --- ----- in - -------<br>-------- -- --- --- -- ----- ----------- ----- -----------<br>---- --- ---------- --- ---- --- -- ----------,362309.3200000003,362308.49999981,361903.038,361914.8200000636,361919.288,362319.702,,34,in
screen,html.Screen,1_3_1_0_1_35,2021-04-20T14:13:38.338Z,,,,,,,,,,,,,,,,51,,,,,,,,,,,,,,350.73800001625204,,response,,,,13,D,,,,,,Space,keypress(Space),,,,silence,,,,-------- -------- --- --- ---- --- --- ------ -- --------<br>---- --------- --- ------- ------------ ---------- ---------<br>--- ---------- ------- ---------- ------- -- -------- ----<br>---- --- ------ ----- ------ -- ---- --- ----- -- a -------<br>-------- -- --- --- -- ----- ----------- ----- -----------<br>---- --- ---------- --- ---- --- -- ----------,362671.30999965593,362670.44000001624,362302.9,362309.4899998978,362319.702,362686.142,,35,a
screen,html.Screen,1_3_1_0_1_36,2021-04-20T14:13:38.710Z,,,,,,,,,,,,,,,,51,,,,,,,,,,,,,,355.89799973834306,,response,,,,13,D,,,,,,Space,keypress(Space),,,,silence,,,,-------- -------- --- --- ---- --- --- ------ -- --------<br>---- --------- --- ------- ------------ ---------- ---------<br>--- ---------- ------- ---------- ------- -- -------- ----<br>---- --- ------ ----- ------ -- ---- --- ----- -- - massive<br>-------- -- --- --- -- ----- ----------- ----- -----------<br>---- --- ---------- --- ---- --- -- ----------,363042.87499981,363042.03999973834,362669.587,362671.4900000952,362686.142,363052.777,,36,massive
screen,html.Screen,1_3_1_0_1_37,2021-04-20T14:13:39.111Z,,,,,,,,,,,,,,,,51,,,,,,,,,,,,,,390.01299976813607,,response,,,,13,D,,,,,,Space,keypress(Space),,,,silence,,,,-------- -------- --- --- ---- --- --- ------ -- --------<br>---- --------- --- ------- ------------ ---------- ---------<br>--- ---------- ------- ---------- ------- -- -------- ----<br>---- --- ------ ----- ------ -- ---- --- ----- -- - -------<br>overhaul -- --- --- -- ----- ----------- ----- -----------<br>---- --- ---------- --- ---- --- -- ----------,363443.6449999921,363442.78999976814,363036.066,363043.0899998173,363052.777,363452.871,,37,overhaul
