sender,sender_type,sender_id,timestamp,meta,,Blues,Classical,Country,Dance,Electronic,Folk,Gospel,Hip-Hop,Jazz,Latin,Musical/Film,New-age,Pop,Provo_ID,R&B,Rap,Reggae,Religious,Rock,Soul,Swing,Traditional,age,artist_name,correct,correctResponse,distraction,duration,education,ended_on,familiarity,gender,headphone_check_performance,item,list,music_frequency,offensiveness,pleasantness,position_correct,preference,response,response_action,snippet_file,song_name,song_rating,sound,stimulus_1,stimulus_2,stimulus_3,text,time_commit,time_end,time_render,time_run,time_show,time_switch,url,word,word_ID
Introduction,html.Screen,0_0,2021-04-14T20:28:13.079Z,"{""labjs_version"":""20.2.2"",""labjs_build"":{""flavor"":""production"",""commit"":""a25486e0c714a0ae2ce03ff94b7bb6896854dcfa""},""location"":""https://run.pavlovia.org/mvasilev/music_a/"",""userAgent"":""Mozilla/5.0 (Windows NT 10.0; Win64; x64) AppleWebKit/537.36 (KHTML, like Gecko) Chrome/89.0.4389.114 Safari/537.36"",""platform"":""Win32"",""language"":""en-GB"",""locale"":""en-GB"",""timeZone"":""Europe/London"",""timezoneOffset"":-60,""screen_width"":1536,""screen_height"":864,""scroll_width"":1536,""scroll_height"":687,""window_innerWidth"":1536,""window_innerHeight"":735,""devicePixelRatio"":1.25}",,,,,,,,,,,,,,,,,,,,,,,,,,,,,5709.240999999149,,response,,,,,,,,,,,continue,click button,,,,,,,,,10568.524999998772,10567.429999999149,4837.24,4839.350000002014,4858.189,10572.33,{},,
Volume calibration,html.Screen,0_1,2021-04-14T20:28:44.677Z,,,,,,,,,,,,,,,,,,,,,,,,,,,,,,31591.774999999834,,response,,,,,,,,,,,continue,click button,,,,,,,,,42166.284999999334,42164.104999999836,10565.459,10568.69000000006,10572.33,42170.479,,,
Task instructions,html.Screen,0_2,2021-04-14T20:29:41.968Z,,,,,,,,,,,,,,,,,,,,,,,,,,,,,,57285.886000001825,,response,,,,,,,,,,,continue,click button,,,,,,,,,99457.04000000114,99456.36500000182,42163.539,42166.41000000163,42170.479,99457.918,,,
Sounds,html.Screen,0_3_0_0,2021-04-14T20:29:46.213Z,,,,,,,,,,,,,,,,,,,,,,,,,,,,,,4249.284,,timeout,,,,,,,,,1,,,,,,,,S,O,I,,103701.86000000103,103700.274,99451.069,99457.20000000074,99457.918,103707.202,,,
Judgement,html.Screen,0_3_0_1,2021-04-14T20:29:53.694Z,,,,,,,,,,,,,,,,,,,,,,,,,,,false,1,,7475.388000000341,,response,,,,,,,,,1,,2,click #choice-2,,,,,S,O,I,,111183.38500000027,111182.59000000035,103700.274,103701.9650000002,103707.202,111184.802,,,
Trial,flow.Sequence,0_3_0,2021-04-14T20:29:53.695Z,,,,,,,,,,,,,,,,,,,,,,,,,,,,,,11724.67200000034,,completion,,,,,,,,,1,,,,,,,,S,O,I,,111184.51999999888,111182.59000000035,99451.069,99457.1649999998,99457.918,111184.802,,,
Sounds,html.Screen,0_3_1_0,2021-04-14T20:29:57.938Z,,,,,,,,,,,,,,,,,,,,,,,,,,,,,,4249.1889999999985,,timeout,,,,,,,,,1,,,,,,,,S,I,O,,115427.6949999985,115427.035,111177.937,111184.62999999974,111184.802,115433.991,,,
Judgement,html.Screen,0_3_1_1,2021-04-14T20:29:59.240Z,,,,,,,,,,,,,,,,,,,,,,,,,,,true,1,,1294.3490000014863,,response,,,,,,,,,1,,1,click #choice-1,,,,,S,I,O,,116729.01999999885,116728.34000000148,115427.035,115427.7949999996,115433.991,116732.312,,,
Trial,flow.Sequence,0_3_1,2021-04-14T20:29:59.240Z,,,,,,,,,,,,,,,,,,,,,,,,,,,,,,5543.538000001485,,completion,,,,,,,,,1,,,,,,,,S,I,O,,116729.1550000009,116728.34000000148,111177.937,111184.6000000005,111184.802,116732.312,,,
Sounds,html.Screen,0_3_2_0,2021-04-14T20:30:03.486Z,,,,,,,,,,,,,,,,,,,,,,,,,,,,,,4249.216,,timeout,,,,,,,,,3,,,,,,,,I,O,S,,120975.17499999958,120974.674,116725.369,116729.25000000032,116732.312,120981.528,,,
Judgement,html.Screen,0_3_2_1,2021-04-14T20:30:04.431Z,,,,,,,,,,,,,,,,,,,,,,,,,,,true,3,,938.0270000003948,,response,,,,,,,,,3,,3,click #choice-3,,,,,I,O,S,,121920.18499999904,121919.5550000004,120974.674,120975.2550000012,120981.528,121925.732,,,
Trial,flow.Sequence,0_3_2,2021-04-14T20:30:04.431Z,,,,,,,,,,,,,,,,,,,,,,,,,,,,,,5187.243000000395,,completion,,,,,,,,,3,,,,,,,,I,O,S,,121920.31499999939,121919.5550000004,116725.369,116729.22000000108,116732.312,121925.732,,,
Sounds,html.Screen,0_3_3_0,2021-04-14T20:30:08.679Z,,,,,,,,,,,,,,,,,,,,,,,,,,,,,,4249.277000000002,,timeout,,,,,,,,,2,,,,,,,,I,S,O,,126168.45000000103,126167.978,121918.958,121920.39999999906,121925.732,126175.009,,,
Judgement,html.Screen,0_3_3_1,2021-04-14T20:30:09.119Z,,,,,,,,,,,,,,,,,,,,,,,,,,,true,2,,432.46099999900616,,response,,,,,,,,,2,,2,click #choice-2,,,,,I,S,O,,126608.17999999927,126607.46999999901,126167.978,126168.52999999901,126175.009,126612.381,,,
Trial,flow.Sequence,0_3_3,2021-04-14T20:30:09.119Z,,,,,,,,,,,,,,,,,,,,,,,,,,,,,,4681.737999999008,,completion,,,,,,,,,2,,,,,,,,I,S,O,,126608.30500000156,126607.46999999901,121918.958,121920.36999999982,121925.732,126612.381,,,
Sounds,html.Screen,0_3_4_0,2021-04-14T20:30:13.366Z,,,,,,,,,,,,,,,,,,,,,,,,,,,,,,4249.27900000001,,timeout,,,,,,,,,3,,,,,,,,O,I,S,,130855.23499999908,130854.67,126605.537,126608.38499999954,126612.381,130861.66,,,
Judgement,html.Screen,0_3_4_1,2021-04-14T20:30:13.765Z,,,,,,,,,,,,,,,,,,,,,,,,,,,true,3,,392.0449999991688,,response,,,,,,,,,3,,3,click #choice-3,,,,,O,I,S,,131254.39000000188,131253.70499999917,130854.67,130855.30999999901,130861.66,131257.29,,,
Trial,flow.Sequence,0_3_4,2021-04-14T20:30:13.765Z,,,,,,,,,,,,,,,,,,,,,,,,,,,,,,4641.323999999178,,completion,,,,,,,,,3,,,,,,,,O,I,S,,131254.50999999885,131253.70499999917,126605.537,126608.360000002,126612.381,131257.29,,,
Sounds,html.Screen,0_3_5_0,2021-04-14T20:30:18.011Z,,,,,,,,,,,,,,,,,,,,,,,,,,,,,,4249.321999999986,,timeout,,,,,,,,,2,,,,,,,,O,S,I,,135500.1999999986,135499.676,131250.504,131254.58499999877,131257.29,135506.612,,,
Judgement,html.Screen,0_3_5_1,2021-04-14T20:30:18.431Z,,,,,,,,,,,,,,,,,,,,,,,,,,,true,2,,412.84800000098767,,response,,,,,,,,,2,,2,click #choice-2,,,,,O,S,I,,135920.18000000098,135919.46000000098,135499.676,135500.28999999995,135506.612,135923.079,,,
Trial,flow.Sequence,0_3_5,2021-04-14T20:30:18.431Z,,,,,,,,,,,,,,,,,,,,,,,,,,,,,,4662.170000000973,,completion,,,,,,,,,2,,,,,,,,O,S,I,,135920.2949999999,135919.46000000098,131250.504,131254.57000000097,131257.29,135923.079,,,
Task,flow.Loop,0_3,2021-04-14T20:30:18.434Z,,,,,,,,,,,,,,,,,,,,,,,,,,,,,,36461.542000000976,,completion,,,0.8333333333333334,,,,,,,,,,,,,,,,,,135922.96500000157,135919.46000000098,99451.069,99457.12999999887,99457.918,135923.079,,,
Trap,html.Screen,0_4,2021-04-14T20:30:18.435Z,,,,,,,,,,,,,,,,,,,,,,,,,,,,,,NaN,,skipped,,,,,,,,,,,,,,,,,,,,,135924.56999999922,135919.46000000098,,135924.500000001,,135923.079,,,
Thanks,html.Screen,0_5,2021-04-14T20:30:23.657Z,,,,,,,,,,,,,,,,,,,,,,,,,,,,,,5222.540999999328,,response,,,,,,,,,,,continue,click button,,,,,,,,,141146.16000000024,141145.61999999933,135916.235,135924.6400000011,135923.079,144553.331,,,
Headphone screening,flow.Sequence,0,2021-04-14T20:30:23.657Z,,,,,,,,,,,,,,,,,,,,,,,,,,,,,,136287.4309999993,,completion,,,,,,,,,,,,,,,,,,,,,141146.28000000084,141145.61999999933,4837.24,4839.319999999134,4858.189,144553.331,,,
Instructions,html.Page,1_0,2021-04-14T20:30:28.760Z,,,,,,,,,,,,,,,,,,,,,,,,,,,,,,1695.9390000002459,,form submission,,,,,,,,,,,,,,,,,,,,,146249.5850000014,146249.27000000025,144539.406,144550.25000000023,144553.331,146254.405,,,
Holding screen,html.Screen,1_1_0_0,2021-04-14T20:30:38.757Z,,,,,,,,,,,,,,,,,,,,,,,,,,,,,,10011.97099999999,,timeout,,,,,,,,,,,,,,,,,,,,,156245.99999999919,156245.616,146247.531,146249.7399999993,146254.405,156266.376,,,
screen,html.Screen,1_1_0_1_0,2021-04-14T20:30:39.877Z,,,,,,,,,,,,,,,,53,,,,,,,,,,,,,,1098.2639999997918,,response,,,,99,,,,,,,Space,keypress(Space),,,,,,,,When -- ----- -- ------ - ------- --- ----------<br>------------- ------ ------ ---- ---- ------- ----- -- ----<br>-------- ------- -- ---------- --- - --- ----- ----- ----<br>---- --- --- ----- --- ---- ---- ------- ----- ---- -------<br>--- --- -- ----- -- --- ---- -- --- ---- -- ------ ------<br>--- ----- -- ----,157366.33000000074,157364.63999999978,156245.616,156246.1199999998,156266.376,157370.238,,0,When
screen,html.Screen,1_1_0_1_1,2021-04-14T20:30:40.660Z,,,,,,,,,,,,,,,,53,,,,,,,,,,,,,,778.4669999995967,,response,,,,99,,,,,,,Space,keypress(Space),,,,,,,,---- it ----- -- ------ - ------- --- ----------<br>------------- ------ ------ ---- ---- ------- ----- -- ----<br>-------- ------- -- ---------- --- - --- ----- ----- ----<br>---- --- --- ----- --- ---- ---- ------- ----- ---- -------<br>--- --- -- ----- -- --- ---- -- --- ---- -- ------ ------<br>--- ----- -- ----,158149.20500000153,158148.7049999996,157363.437,157366.42500000016,157370.238,158154.917,,1,it
screen,html.Screen,1_1_0_1_2,2021-04-14T20:30:41.316Z,,,,,,,,,,,,,,,,53,,,,,,,,,,,,,,649.8529999988386,,response,,,,99,,,,,,,Space,keypress(Space),,,,,,,,---- -- comes -- ------ - ------- --- ----------<br>------------- ------ ------ ---- ---- ------- ----- -- ----<br>-------- ------- -- ---------- --- - --- ----- ----- ----<br>---- --- --- ----- --- ---- ---- ------- ----- ---- -------<br>--- --- -- ----- -- --- ---- -- --- ---- -- ------ ------<br>--- ----- -- ----,158805.25000000125,158804.76999999883,158148.005,158149.2849999995,158154.917,158807.524,,2,comes
screen,html.Screen,1_1_0_1_3,2021-04-14T20:30:41.836Z,,,,,,,,,,,,,,,,53,,,,,,,,,,,,,,517.1760000010254,,response,,,,99,,,,,,,Space,keypress(Space),,,,,,,,---- -- ----- to ------ - ------- --- ----------<br>------------- ------ ------ ---- ---- ------- ----- -- ----<br>-------- ------- -- ---------- --- - --- ----- ----- ----<br>---- --- --- ----- --- ---- ---- ------- ----- ---- -------<br>--- --- -- ----- -- --- ---- -- --- ---- -- ------ ------<br>--- ----- -- ----,159325.14000000083,159324.70000000103,158800.664,158805.32500000118,158807.524,159328.244,,3,to
screen,html.Screen,1_1_0_1_4,2021-04-14T20:30:42.590Z,,,,,,,,,,,,,,,,53,,,,,,,,,,,,,,750.4010000014096,,response,,,,99,,,,,,,Space,keypress(Space),,,,,,,,---- -- ----- -- having - ------- --- ----------<br>------------- ------ ------ ---- ---- ------- ----- -- ----<br>-------- ------- -- ---------- --- - --- ----- ----- ----<br>---- --- --- ----- --- ---- ---- ------- ----- ---- -------<br>--- --- -- ----- -- --- ---- -- --- ---- -- ------ ------<br>--- ----- -- ----,160079.07500000147,160078.64500000142,159321.389,159325.21500000075,159328.244,160085.123,,4,having
screen,html.Screen,1_1_0_1_5,2021-04-14T20:30:43.036Z,,,,,,,,,,,,,,,,53,,,,,,,,,,,,,,439.8770000014629,,response,,,,99,,,,,,,Space,keypress(Space),,,,,,,,---- -- ----- -- ------ a ------- --- ----------<br>------------- ------ ------ ---- ---- ------- ----- -- ----<br>-------- ------- -- ---------- --- - --- ----- ----- ----<br>---- --- --- ----- --- ---- ---- ------- ----- ---- -------<br>--- --- -- ----- -- --- ---- -- --- ---- -- ------ ------<br>--- ----- -- ----,160525.63500000178,160525.00000000146,160078.187,160079.15499999945,160085.123,160529.449,,5,a
screen,html.Screen,1_1_0_1_6,2021-04-14T20:30:43.748Z,,,,,,,,,,,,,,,,53,,,,,,,,,,,,,,707.6009999997332,,response,,,,99,,,,,,,Space,keypress(Space),,,,,,,,---- -- ----- -- ------ - lasting --- ----------<br>------------- ------ ------ ---- ---- ------- ----- -- ----<br>-------- ------- -- ---------- --- - --- ----- ----- ----<br>---- --- --- ----- --- ---- ---- ------- ----- ---- -------<br>--- --- -- ----- -- --- ---- -- --- ---- -- ------ ------<br>--- ----- -- ----,161237.5549999997,161237.04999999973,160522.557,160525.7249999995,160529.449,161244.696,,6,lasting
screen,html.Screen,1_1_0_1_7,2021-04-14T20:30:44.292Z,,,,,,,,,,,,,,,,53,,,,,,,,,,,,,,536.1739999986894,,response,,,,99,,,,,,,Space,keypress(Space),,,,,,,,---- -- ----- -- ------ - ------- and ----------<br>------------- ------ ------ ---- ---- ------- ----- -- ----<br>-------- ------- -- ---------- --- - --- ----- ----- ----<br>---- --- --- ----- --- ---- ---- ------- ----- ---- -------<br>--- --- -- ----- -- --- ---- -- --- ---- -- ------ ------<br>--- ----- -- ----,161781.29500000068,161780.8699999987,161237.626,161237.7149999993,161244.696,161786.08,,7,and
screen,html.Screen,1_1_0_1_8,2021-04-14T20:30:45.044Z,,,,,,,,,,,,,,,,53,,,,,,,,,,,,,,746.5700000010256,,response,,,,99,,,,,,,Space,keypress(Space),,,,,,,,---- -- ----- -- ------ - ------- --- fulfilling<br>------------- ------ ------ ---- ---- ------- ----- -- ----<br>-------- ------- -- ---------- --- - --- ----- ----- ----<br>---- --- --- ----- --- ---- ---- ------- ----- ---- -------<br>--- --- -- ----- -- --- ---- -- --- ---- -- ------ ------<br>--- ----- -- ----,162533.22499999922,162532.650000001,161779.184,161781.37499999866,161786.08,162535.935,,8,fulfilling
screen,html.Screen,1_1_0_1_9,2021-04-14T20:30:45.771Z,,,,,,,,,,,,,,,,53,,,,,,,,,,,,,,724.8099999995902,,response,,,,99,,,,,,,Space,keypress(Space),,,,,,,,"---- -- ----- -- ------ - ------- --- ----------<br>relationship, ------ ------ ---- ---- ------- ----- -- ----<br>-------- ------- -- ---------- --- - --- ----- ----- ----<br>---- --- --- ----- --- ---- ---- ------- ----- ---- -------<br>--- --- -- ----- -- --- ---- -- --- ---- -- ------ ------<br>--- ----- -- ----",163261.2450000015,163260.7449999996,162529.099,162533.30500000084,162535.935,163265.002,,9,"relationship,"
screen,html.Screen,1_1_0_1_10,2021-04-14T20:30:46.355Z,,,,,,,,,,,,,,,,53,,,,,,,,,,,,,,579.6279999995895,,response,,,,99,,,,,,,Space,keypress(Space),,,,,,,,---- -- ----- -- ------ - ------- --- ----------<br>------------- common ------ ---- ---- ------- ----- -- ----<br>-------- ------- -- ---------- --- - --- ----- ----- ----<br>---- --- --- ----- --- ---- ---- ------- ----- ---- -------<br>--- --- -- ----- -- --- ---- -- --- ---- -- ------ ------<br>--- ----- -- ----,163845.18500000195,163844.6299999996,163258.126,163261.31499999974,163265.002,163848.286,,10,common
screen,html.Screen,1_1_0_1_11,2021-04-14T20:30:47.045Z,,,,,,,,,,,,,,,,53,,,,,,,,,,,,,,686.1690000008966,,response,,,,99,,,,,,,Space,keypress(Space),,,,,,,,---- -- ----- -- ------ - ------- --- ----------<br>------------- ------ wisdom ---- ---- ------- ----- -- ----<br>-------- ------- -- ---------- --- - --- ----- ----- ----<br>---- --- --- ----- --- ---- ---- ------- ----- ---- -------<br>--- --- -- ----- -- --- ---- -- --- ---- -- ------ ------<br>--- ----- -- ----,164535.1550000014,164534.4550000009,163841.295,163845.26499999993,163848.286,164542.628,,11,wisdom
screen,html.Screen,1_1_0_1_12,2021-04-14T20:30:47.643Z,,,,,,,,,,,,,,,,53,,,,,,,,,,,,,,590.017000001506,,response,,,,99,,,,,,,Space,keypress(Space),,,,,,,,---- -- ----- -- ------ - ------- --- ----------<br>------------- ------ ------ says ---- ------- ----- -- ----<br>-------- ------- -- ---------- --- - --- ----- ----- ----<br>---- --- --- ----- --- ---- ---- ------- ----- ---- -------<br>--- --- -- ----- -- --- ---- -- --- ---- -- ------ ------<br>--- ----- -- ----,165133.02499999918,165132.6450000015,164535.602,164535.23000000132,164542.628,165139.672,,12,says
screen,html.Screen,1_1_0_1_13,2021-04-14T20:30:48.148Z,,,,,,,,,,,,,,,,53,,,,,,,,,,,,,,497.14799999972456,,response,,,,99,,,,,,,Space,keypress(Space),,,,,,,,---- -- ----- -- ------ - ------- --- ----------<br>------------- ------ ------ ---- that ------- ----- -- ----<br>-------- ------- -- ---------- --- - --- ----- ----- ----<br>---- --- --- ----- --- ---- ---- ------- ----- ---- -------<br>--- --- -- ----- -- --- ---- -- --- ---- -- ------ ------<br>--- ----- -- ----,165637.35499999893,165636.81999999972,165132.769,165133.0999999991,165139.672,165639.542,,13,that
screen,html.Screen,1_1_0_1_14,2021-04-14T20:30:48.771Z,,,,,,,,,,,,,,,,53,,,,,,,,,,,,,,621.2679999997781,,response,,,,99,,,,,,,Space,keypress(Space),,,,,,,,---- -- ----- -- ------ - ------- --- ----------<br>------------- ------ ------ ---- ---- feeling ----- -- ----<br>-------- ------- -- ---------- --- - --- ----- ----- ----<br>---- --- --- ----- --- ---- ---- ------- ----- ---- -------<br>--- --- -- ----- -- --- ---- -- --- ---- -- ------ ------<br>--- ----- -- ----,166261.2599999993,166260.80999999976,165632.666,165637.43500000055,165639.542,166264.393,,14,feeling
screen,html.Screen,1_1_0_1_15,2021-04-14T20:30:49.326Z,,,,,,,,,,,,,,,,53,,,,,,,,,,,,,,551.2619999985036,,response,,,,99,,,,,,,Space,keypress(Space),,,,,,,,---- -- ----- -- ------ - ------- --- ----------<br>------------- ------ ------ ---- ---- ------- close -- ----<br>-------- ------- -- ---------- --- - --- ----- ----- ----<br>---- --- --- ----- --- ---- ---- ------- ----- ---- -------<br>--- --- -- ----- -- --- ---- -- --- ---- -- ------ ------<br>--- ----- -- ----,166816.10999999975,166815.6549999985,166257.553,166261.33499999924,166264.393,166819.96,,15,close
screen,html.Screen,1_1_0_1_16,2021-04-14T20:30:49.829Z,,,,,,,,,,,,,,,,53,,,,,,,,,,,,,,498.804999999993,,response,,,,99,,,,,,,Space,keypress(Space),,,,,,,,---- -- ----- -- ------ - ------- --- ----------<br>------------- ------ ------ ---- ---- ------- ----- to ----<br>-------- ------- -- ---------- --- - --- ----- ----- ----<br>---- --- --- ----- --- ---- ---- ------- ----- ---- -------<br>--- --- -- ----- -- --- ---- -- --- ---- -- ------ ------<br>--- ----- -- ----,167319.20000000173,167318.76499999998,166813.028,166816.18499999968,166819.96,167319.735,,16,to
screen,html.Screen,1_1_0_1_17,2021-04-14T20:30:50.334Z,,,,,,,,,,,,,,,,53,,,,,,,,,,,,,,504.1050000009418,,response,,,,99,,,,,,,Space,keypress(Space),,,,,,,,---- -- ----- -- ------ - ------- --- ----------<br>------------- ------ ------ ---- ---- ------- ----- -- your<br>-------- ------- -- ---------- --- - --- ----- ----- ----<br>---- --- --- ----- --- ---- ---- ------- ----- ---- -------<br>--- --- -- ----- -- --- ---- -- --- ---- -- ------ ------<br>--- ----- -- ----,167824.31999999972,167823.84000000093,167312.962,167319.28999999946,167319.735,167826.593,,17,your
screen,html.Screen,1_1_0_1_18,2021-04-14T20:30:50.859Z,,,,,,,,,,,,,,,,53,,,,,,,,,,,,,,522.1319999998377,,response,,,,99,,,,,,,Space,keypress(Space),,,,,,,,---- -- ----- -- ------ - ------- --- ----------<br>------------- ------ ------ ---- ---- ------- ----- -- ----<br>romantic ------- -- ---------- --- - --- ----- ----- ----<br>---- --- --- ----- --- ---- ---- ------- ----- ---- -------<br>--- --- -- ----- -- --- ---- -- --- ---- -- ------ ------<br>--- ----- -- ----,168349.17499999938,168348.72499999983,167819.827,167824.39499999964,167826.593,168354.407,,18,romantic
screen,html.Screen,1_1_0_1_19,2021-04-14T20:30:51.363Z,,,,,,,,,,,,,,,,53,,,,,,,,,,,,,,498.2680000019027,,response,,,,99,,,,,,,Space,keypress(Space),,,,,,,,---- -- ----- -- ------ - ------- --- ----------<br>------------- ------ ------ ---- ---- ------- ----- -- ----<br>-------- partner -- ---------- --- - --- ----- ----- ----<br>---- --- --- ----- --- ---- ---- ------- ----- ---- -------<br>--- --- -- ----- -- --- ---- -- --- ---- -- ------ ------<br>--- ----- -- ----,168853.14500000095,168852.6750000019,168347.485,168349.255000001,168354.407,168854.187,,19,partner
screen,html.Screen,1_1_0_1_20,2021-04-14T20:30:51.844Z,,,,,,,,,,,,,,,,53,,,,,,,,,,,,,,479.5429999984626,,response,,,,99,,,,,,,Space,keypress(Space),,,,,,,,---- -- ----- -- ------ - ------- --- ----------<br>------------- ------ ------ ---- ---- ------- ----- -- ----<br>-------- ------- is ---------- --- - --- ----- ----- ----<br>---- --- --- ----- --- ---- ---- ------- ----- ---- -------<br>--- --- -- ----- -- --- ---- -- --- ---- -- ------ ------<br>--- ----- -- ----,169334.21499999895,169333.72999999847,168847.307,168853.22499999893,168854.187,169340.305,,20,is
screen,html.Screen,1_1_0_1_21,2021-04-14T20:30:52.371Z,,,,,,,,,,,,,,,,53,,,,,,,,,,,,,,520.2499999993015,,response,,,,99,,,,,,,Space,keypress(Space),,,,,,,,---- -- ----- -- ------ - ------- --- ----------<br>------------- ------ ------ ---- ---- ------- ----- -- ----<br>-------- ------- -- paramount. --- - --- ----- ----- ----<br>---- --- --- ----- --- ---- ---- ------- ----- ---- -------<br>--- --- -- ----- -- --- ---- -- --- ---- -- ------ ------<br>--- ----- -- ----,169861.02000000028,169860.5549999993,169333.329,169334.28500000082,169340.305,169867.93,,21,paramount.
screen,html.Screen,1_1_0_1_22,2021-04-14T20:30:52.950Z,,,,,,,,,,,,,,,,53,,,,,,,,,,,,,,571.7300000000105,,response,,,,99,,,,,,,Space,keypress(Space),,,,,,,,---- -- ----- -- ------ - ------- --- ----------<br>------------- ------ ------ ---- ---- ------- ----- -- ----<br>-------- ------- -- ---------- But - --- ----- ----- ----<br>---- --- --- ----- --- ---- ---- ------- ----- ---- -------<br>--- --- -- ----- -- --- ---- -- --- ---- -- ------ ------<br>--- ----- -- ----,170440.1199999993,170439.66,169861.061,169861.1000000019,169867.93,170444.169,,22,But
screen,html.Screen,1_1_0_1_23,2021-04-14T20:30:53.396Z,,,,,,,,,,,,,,,,53,,,,,,,,,,,,,,441.4459999992396,,response,,,,99,,,,,,,Space,keypress(Space),,,,,,,,---- -- ----- -- ------ - ------- --- ----------<br>------------- ------ ------ ---- ---- ------- ----- -- ----<br>-------- ------- -- ---------- --- a --- ----- ----- ----<br>---- --- --- ----- --- ---- ---- ------- ----- ---- -------<br>--- --- -- ----- -- --- ---- -- --- ---- -- ------ ------<br>--- ----- -- ----,170886.06000000073,170885.61499999923,170437.348,170440.2000000009,170444.169,170888.52,,23,a
screen,html.Screen,1_1_0_1_24,2021-04-14T20:30:53.918Z,,,,,,,,,,,,,,,,53,,,,,,,,,,,,,,518.4049999993294,,response,,,,99,,,,,,,Space,keypress(Space),,,,,,,,---- -- ----- -- ------ - ------- --- ----------<br>------------- ------ ------ ---- ---- ------- ----- -- ----<br>-------- ------- -- ---------- --- - new ----- ----- ----<br>---- --- --- ----- --- ---- ---- ------- ----- ---- -------<br>--- --- -- ----- -- --- ---- -- --- ---- -- ------ ------<br>--- ----- -- ----,171407.42500000124,171406.92499999932,170881.695,170886.13500000065,170888.52,171409.237,,24,new
screen,html.Screen,1_1_0_1_25,2021-04-14T20:30:54.379Z,,,,,,,,,,,,,,,,53,,,,,,,,,,,,,,459.5179999995162,,response,,,,99,,,,,,,Space,keypress(Space),,,,,,,,---- -- ----- -- ------ - ------- --- ----------<br>------------- ------ ------ ---- ---- ------- ----- -- ----<br>-------- ------- -- ---------- --- - --- study ----- ----<br>---- --- --- ----- --- ---- ---- ------- ----- ---- -------<br>--- --- -- ----- -- --- ---- -- --- ---- -- ------ ------<br>--- ----- -- ----,171869.20499999906,171868.7549999995,171402.442,171407.50499999922,171409.237,171874.546,,25,study
screen,html.Screen,1_1_0_1_26,2021-04-14T20:30:54.845Z,,,,,,,,,,,,,,,,53,,,,,,,,,,,,,,459.3989999984915,,response,,,,99,,,,,,,Space,keypress(Space),,,,,,,,---- -- ----- -- ------ - ------- --- ----------<br>------------- ------ ------ ---- ---- ------- ----- -- ----<br>-------- ------- -- ---------- --- - --- ----- finds ----<br>---- --- --- ----- --- ---- ---- ------- ----- ---- -------<br>--- --- -- ----- -- --- ---- -- --- ---- -- ------ ------<br>--- ----- -- ----,172334.39999999973,172333.9449999985,171867.628,171869.28500000067,171874.546,172339.72,,26,finds
screen,html.Screen,1_1_0_1_27,2021-04-14T20:30:55.310Z,,,,,,,,,,,,,,,,53,,,,,,,,,,,,,,459.17000000184635,,response,,,,99,,,,,,,Space,keypress(Space),,,,,,,,---- -- ----- -- ------ - ------- --- ----------<br>------------- ------ ------ ---- ---- ------- ----- -- ----<br>-------- ------- -- ---------- --- - --- ----- ----- that<br>---- --- --- ----- --- ---- ---- ------- ----- ---- -------<br>--- --- -- ----- -- --- ---- -- --- ---- -- ------ ------<br>--- ----- -- ----,172799.46500000005,172798.89000000185,172332.798,172334.47499999966,172339.72,172804.906,,27,that
screen,html.Screen,1_1_0_1_28,2021-04-14T20:30:55.835Z,,,,,,,,,,,,,,,,53,,,,,,,,,,,,,,519.9389999991981,,response,,,,99,,,,,,,Space,keypress(Space),,,,,,,,---- -- ----- -- ------ - ------- --- ----------<br>------------- ------ ------ ---- ---- ------- ----- -- ----<br>-------- ------- -- ---------- --- - --- ----- ----- ----<br>it's --- --- ----- --- ---- ---- ------- ----- ---- -------<br>--- --- -- ----- -- --- ---- -- --- ---- -- ------ ------<br>--- ----- -- ----,173325.29499999873,173324.8449999992,172798.003,172799.54500000167,172804.906,173339.57,,28,it's
screen,html.Screen,1_1_0_1_29,2021-04-14T20:30:56.283Z,,,,,,,,,,,,,,,,53,,,,,,,,,,,,,,433.2399999985646,,response,,,,99,,,,,,,Space,keypress(Space),,,,,,,,---- -- ----- -- ------ - ------- --- ----------<br>------------- ------ ------ ---- ---- ------- ----- -- ----<br>-------- ------- -- ---------- --- - --- ----- ----- ----<br>---- not --- ----- --- ---- ---- ------- ----- ---- -------<br>--- --- -- ----- -- --- ---- -- --- ---- -- ------ ------<br>--- ----- -- ----,173773.28000000125,173772.80999999857,173332.634,173325.37500000035,173339.57,173776.869,,29,not
screen,html.Screen,1_1_0_1_30,2021-04-14T20:30:56.747Z,,,,,,,,,,,,,,,,53,,,,,,,,,,,,,,459.70599999898695,,response,,,,99,,,,,,,Space,keypress(Space),,,,,,,,---- -- ----- -- ------ - ------- --- ----------<br>------------- ------ ------ ---- ---- ------- ----- -- ----<br>-------- ------- -- ---------- --- - --- ----- ----- ----<br>---- --- how ----- --- ---- ---- ------- ----- ---- -------<br>--- --- -- ----- -- --- ---- -- --- ---- -- ------ ------<br>--- ----- -- ----,174237.03500000192,174236.574999999,173770.035,173773.35500000117,173776.869,174242.028,,30,how
screen,html.Screen,1_1_0_1_31,2021-04-14T20:30:57.171Z,,,,,,,,,,,,,,,,53,,,,,,,,,,,,,,418.6070000001928,,response,,,,99,,,,,,,Space,keypress(Space),,,,,,,,---- -- ----- -- ------ - ------- --- ----------<br>------------- ------ ------ ---- ---- ------- ----- -- ----<br>-------- ------- -- ---------- --- - --- ----- ----- ----<br>---- --- --- close --- ---- ---- ------- ----- ---- -------<br>--- --- -- ----- -- --- ---- -- --- ---- -- ------ ------<br>--- ----- -- ----,174661.19999999864,174660.63500000018,174235.228,174237.75000000023,174242.028,174665.563,,31,close
screen,html.Screen,1_1_0_1_32,2021-04-14T20:30:57.579Z,,,,,,,,,,,,,,,,53,,,,,,,,,,,,,,403.05700000183424,,response,,,,99,,,,,,,Space,keypress(Space),,,,,,,,---- -- ----- -- ------ - ------- --- ----------<br>------------- ------ ------ ---- ---- ------- ----- -- ----<br>-------- ------- -- ---------- --- - --- ----- ----- ----<br>---- --- --- ----- you ---- ---- ------- ----- ---- -------<br>--- --- -- ----- -- --- ---- -- --- ---- -- ------ ------<br>--- ----- -- ----,175069.06000000163,175068.62000000183,174658.774,174661.2700000005,174665.563,175075.303,,32,you
screen,html.Screen,1_1_0_1_33,2021-04-14T20:30:58.051Z,,,,,,,,,,,,,,,,53,,,,,,,,,,,,,,465.5670000007085,,response,,,,99,,,,,,,Space,keypress(Space),,,,,,,,---- -- ----- -- ------ - ------- --- ----------<br>------------- ------ ------ ---- ---- ------- ----- -- ----<br>-------- ------- -- ---------- --- - --- ----- ----- ----<br>---- --- --- ----- --- feel ---- ------- ----- ---- -------<br>--- --- -- ----- -- --- ---- -- --- ---- -- ------ ------<br>--- ----- -- ----,175541.30499999883,175540.87000000072,175068.396,175069.13500000155,175075.303,175547.436,,33,feel
screen,html.Screen,1_1_0_1_34,2021-04-14T20:30:59.459Z,,,,,,,,,,,,,,,,53,,,,,,,,,,,,,,1401.3239999993239,,response,,,,99,,,,,,,Space,keypress(Space),,,,,,,,---- -- ----- -- ------ - ------- --- ----------<br>------------- ------ ------ ---- ---- ------- ----- -- ----<br>-------- ------- -- ---------- --- - --- ----- ----- ----<br>---- --- --- ----- --- ---- that ------- ----- ---- -------<br>--- --- -- ----- -- --- ---- -- --- ---- -- ------ ------<br>--- ----- -- ----,176949.19500000105,176948.7599999993,175540.507,175541.37999999875,175547.436,176949.836,,34,that
screen,html.Screen,1_1_0_1_35,2021-04-14T20:31:00.187Z,,,,,,,,,,,,,,,,53,,,,,,,,,,,,,,726.9940000003262,,response,,,,99,,,,,,,Space,keypress(Space),,,,,,,,---- -- ----- -- ------ - ------- --- ----------<br>------------- ------ ------ ---- ---- ------- ----- -- ----<br>-------- ------- -- ---------- --- - --- ----- ----- ----<br>---- --- --- ----- --- ---- ---- matters ----- ---- -------<br>--- --- -- ----- -- --- ---- -- --- ---- -- ------ ------<br>--- ----- -- ----,177677.27999999988,177676.83000000034,176943.039,176949.27000000098,176949.836,177678.883,,35,matters
screen,html.Screen,1_1_0_1_36,2021-04-14T20:31:01.228Z,,,,,,,,,,,,,,,,53,,,,,,,,,,,,,,1038.1820000007283,,response,,,,99,,,,,,,Space,keypress(Space),,,,,,,,"---- -- ----- -- ------ - ------- --- ----------<br>------------- ------ ------ ---- ---- ------- ----- -- ----<br>-------- ------- -- ---------- --- - --- ----- ----- ----<br>---- --- --- ----- --- ---- ---- ------- most, ---- -------<br>--- --- -- ----- -- --- ---- -- --- ---- -- ------ ------<br>--- ----- -- ----",178717.49500000078,178717.06500000073,177671.941,177677.3549999998,177678.883,178720.308,,36,"most,"
screen,html.Screen,1_1_0_1_37,2021-04-14T20:31:01.708Z,,,,,,,,,,,,,,,,53,,,,,,,,,,,,,,477.33700000020326,,response,,,,99,,,,,,,Space,keypress(Space),,,,,,,,---- -- ----- -- ------ - ------- --- ----------<br>------------- ------ ------ ---- ---- ------- ----- -- ----<br>-------- ------- -- ---------- --- - --- ----- ----- ----<br>---- --- --- ----- --- ---- ---- ------- ----- it's -------<br>--- --- -- ----- -- --- ---- -- --- ---- -- ------ ------<br>--- ----- -- ----,179198.11000000118,179197.6450000002,178713.524,178717.5700000007,178720.308,179199.413,,37,it's
screen,html.Screen,1_1_0_1_38,2021-04-14T20:31:02.291Z,,,,,,,,,,,,,,,,53,,,,,,,,,,,,,,581.251999998407,,response,,,,99,,,,,,,Space,keypress(Space),,,,,,,,---- -- ----- -- ------ - ------- --- ----------<br>------------- ------ ------ ---- ---- ------- ----- -- ----<br>-------- ------- -- ---------- --- - --- ----- ----- ----<br>---- --- --- ----- --- ---- ---- ------- ----- ---- whether<br>--- --- -- ----- -- --- ---- -- --- ---- -- ------ ------<br>--- ----- -- ----,179781.18000000177,179780.6649999984,179192.481,179198.1799999994,179199.413,179782.605,,38,whether
screen,html.Screen,1_1_0_1_39,2021-04-14T20:31:02.795Z,,,,,,,,,,,,,,,,53,,,,,,,,,,,,,,502.0950000001467,,response,,,,99,,,,,,,Space,keypress(Space),,,,,,,,---- -- ----- -- ------ - ------- --- ----------<br>------------- ------ ------ ---- ---- ------- ----- -- ----<br>-------- ------- -- ---------- --- - --- ----- ----- ----<br>---- --- --- ----- --- ---- ---- ------- ----- ---- -------<br>you --- -- ----- -- --- ---- -- --- ---- -- ------ ------<br>--- ----- -- ----,180285.19500000039,180284.70000000016,179775.799,179781.25,179782.605,180289.424,,39,you
screen,html.Screen,1_1_0_1_40,2021-04-14T20:31:03.315Z,,,,,,,,,,,,,,,,53,,,,,,,,,,,,,,515.1910000009229,,response,,,,99,,,,,,,Space,keypress(Space),,,,,,,,---- -- ----- -- ------ - ------- --- ----------<br>------------- ------ ------ ---- ---- ------- ----- -- ----<br>-------- ------- -- ---------- --- - --- ----- ----- ----<br>---- --- --- ----- --- ---- ---- ------- ----- ---- -------<br>--- are -- ----- -- --- ---- -- --- ---- -- ------ ------<br>--- ----- -- ----,180805.1149999992,180804.61500000092,180282.706,180285.2700000003,180289.424,180810.284,,40,are
screen,html.Screen,1_1_0_1_41,2021-04-14T20:31:04.163Z,,,,,,,,,,,,,,,,53,,,,,,,,,,,,,,842.4059999989695,,response,,,,99,,,,,,,Space,keypress(Space),,,,,,,,---- -- ----- -- ------ - ------- --- ----------<br>------------- ------ ------ ---- ---- ------- ----- -- ----<br>-------- ------- -- ---------- --- - --- ----- ----- ----<br>---- --- --- ----- --- ---- ---- ------- ----- ---- -------<br>--- --- as ----- -- --- ---- -- --- ---- -- ------ ------<br>--- ----- -- ----,181653.16000000166,181652.68999999898,180803.284,180805.21500000032,180810.284,181657.358,,41,as
screen,html.Screen,1_1_0_1_42,2021-04-14T20:31:04.659Z,,,,,,,,,,,,,,,,53,,,,,,,,,,,,,,491.3320000017993,,response,,,,99,,,,,,,Space,keypress(Space),,,,,,,,---- -- ----- -- ------ - ------- --- ----------<br>------------- ------ ------ ---- ---- ------- ----- -- ----<br>-------- ------- -- ---------- --- - --- ----- ----- ----<br>---- --- --- ----- --- ---- ---- ------- ----- ---- -------<br>--- --- -- close -- --- ---- -- --- ---- -- ------ ------<br>--- ----- -- ----,182149.24500000052,182148.6900000018,181650.454,181653.2299999999,181657.358,182150.229,,42,close
screen,html.Screen,1_1_0_1_43,2021-04-14T20:31:05.205Z,,,,,,,,,,,,,,,,53,,,,,,,,,,,,,,544.561000001384,,response,,,,99,,,,,,,Space,keypress(Space),,,,,,,,---- -- ----- -- ------ - ------- --- ----------<br>------------- ------ ------ ---- ---- ------- ----- -- ----<br>-------- ------- -- ---------- --- - --- ----- ----- ----<br>---- --- --- ----- --- ---- ---- ------- ----- ---- -------<br>--- --- -- ----- as --- ---- -- --- ---- -- ------ ------<br>--- ----- -- ----,182695.23000000117,182694.79000000138,182143.437,182149.32000000044,182150.229,182698.815,,43,as
screen,html.Screen,1_1_0_1_44,2021-04-14T20:31:05.675Z,,,,,,,,,,,,,,,,53,,,,,,,,,,,,,,465.9549999994051,,response,,,,99,,,,,,,Space,keypress(Space),,,,,,,,---- -- ----- -- ------ - ------- --- ----------<br>------------- ------ ------ ---- ---- ------- ----- -- ----<br>-------- ------- -- ---------- --- - --- ----- ----- ----<br>---- --- --- ----- --- ---- ---- ------- ----- ---- -------<br>--- --- -- ----- -- you ---- -- --- ---- -- ------ ------<br>--- ----- -- ----,183165.29000000082,183164.7699999994,182691.797,182695.3050000011,182698.815,183170.919,,44,you
screen,html.Screen,1_1_0_1_45,2021-04-14T20:31:06.195Z,,,,,,,,,,,,,,,,53,,,,,,,,,,,,,,513.4760000002279,,response,,,,99,,,,,,,Space,keypress(Space),,,,,,,,---- -- ----- -- ------ - ------- --- ----------<br>------------- ------ ------ ---- ---- ------- ----- -- ----<br>-------- ------- -- ---------- --- - --- ----- ----- ----<br>---- --- --- ----- --- ---- ---- ------- ----- ---- -------<br>--- --- -- ----- -- --- want -- --- ---- -- ------ ------<br>--- ----- -- ----,183684.85000000146,183684.39500000022,183164.04,183165.36500000075,183170.919,183691.64,,45,want
screen,html.Screen,1_1_0_1_46,2021-04-14T20:31:06.683Z,,,,,,,,,,,,,,,,53,,,,,,,,,,,,,,481.14000000077067,,response,,,,99,,,,,,,Space,keypress(Space),,,,,,,,---- -- ----- -- ------ - ------- --- ----------<br>------------- ------ ------ ---- ---- ------- ----- -- ----<br>-------- ------- -- ---------- --- - --- ----- ----- ----<br>---- --- --- ----- --- ---- ---- ------- ----- ---- -------<br>--- --- -- ----- -- --- ---- to --- ---- -- ------ ------<br>--- ----- -- ----,184173.23000000033,184172.78000000078,183684.632,183684.92500000139,183691.64,184177.637,,46,to
screen,html.Screen,1_1_0_1_47,2021-04-14T20:31:07.637Z,,,,,,,,,,,,,,,,53,,,,,,,,,,,,,,949.1080000014044,,response,,,,99,,,,,,,Space,keypress(Space),,,,,,,,"---- -- ----- -- ------ - ------- --- ----------<br>------------- ------ ------ ---- ---- ------- ----- -- ----<br>-------- ------- -- ---------- --- - --- ----- ----- ----<br>---- --- --- ----- --- ---- ---- ------- ----- ---- -------<br>--- --- -- ----- -- --- ---- -- be, ---- -- ------ ------<br>--- ----- -- ----",185127.2050000007,185126.7450000014,184170.821,184173.30500000025,184177.637,185128.85,,47,"be,"
screen,html.Screen,1_1_0_1_48,2021-04-14T20:31:08.125Z,,,,,,,,,,,,,,,,53,,,,,,,,,,,,,,485.0049999995972,,response,,,,99,,,,,,,Space,keypress(Space),,,,,,,,---- -- ----- -- ------ - ------- --- ----------<br>------------- ------ ------ ---- ---- ------- ----- -- ----<br>-------- ------- -- ---------- --- - --- ----- ----- ----<br>---- --- --- ----- --- ---- ---- ------- ----- ---- -------<br>--- --- -- ----- -- --- ---- -- --- even -- ------ ------<br>--- ----- -- ----,185614.40500000026,185613.8549999996,185121.998,185127.27499999892,185128.85,185614.816,,48,even
screen,html.Screen,1_1_0_1_49,2021-04-14T20:31:08.572Z,,,,,,,,,,,,,,,,53,,,,,,,,,,,,,,446.99900000094203,,response,,,,99,,,,,,,Space,keypress(Space),,,,,,,,---- -- ----- -- ------ - ------- --- ----------<br>------------- ------ ------ ---- ---- ------- ----- -- ----<br>-------- ------- -- ---------- --- - --- ----- ----- ----<br>---- --- --- ----- --- ---- ---- ------- ----- ---- -------<br>--- --- -- ----- -- --- ---- -- --- ---- if ------ ------<br>--- ----- -- ----,186062.26999999853,186061.81500000093,185608.028,185614.4749999985,185614.816,186066.115,,49,if
screen,html.Screen,1_1_0_1_50,2021-04-14T20:31:09.078Z,,,,,,,,,,,,,,,,53,,,,,,,,,,,,,,501.5949999993609,,response,,,,99,,,,,,,Space,keypress(Space),,,,,,,,---- -- ----- -- ------ - ------- --- ----------<br>------------- ------ ------ ---- ---- ------- ----- -- ----<br>-------- ------- -- ---------- --- - --- ----- ----- ----<br>---- --- --- ----- --- ---- ---- ------- ----- ---- -------<br>--- --- -- ----- -- --- ---- -- --- ---- -- that's ------<br>--- ----- -- ----,186568.12999999966,186567.70999999935,186059.371,186062.34499999846,186066.115,186573.072,,50,that's
screen,html.Screen,1_1_0_1_51,2021-04-14T20:31:09.603Z,,,,,,,,,,,,,,,,53,,,,,,,,,,,,,,519.6380000008212,,response,,,,99,,,,,,,Space,keypress(Space),,,,,,,,---- -- ----- -- ------ - ------- --- ----------<br>------------- ------ ------ ---- ---- ------- ----- -- ----<br>-------- ------- -- ---------- --- - --- ----- ----- ----<br>---- --- --- ----- --- ---- ---- ------- ----- ---- -------<br>--- --- -- ----- -- --- ---- -- --- ---- -- ------ really<br>--- ----- -- ----,187093.15499999866,187092.7100000008,186566.076,186568.20499999958,186573.072,187093.692,,51,really
screen,html.Screen,1_1_0_1_52,2021-04-14T20:31:10.139Z,,,,,,,,,,,,,,,,53,,,,,,,,,,,,,,535.0630000015371,,response,,,,99,,,,,,,Space,keypress(Space),,,,,,,,---- -- ----- -- ------ - ------- --- ----------<br>------------- ------ ------ ---- ---- ------- ----- -- ----<br>-------- ------- -- ---------- --- - --- ----- ----- ----<br>---- --- --- ----- --- ---- ---- ------- ----- ---- -------<br>--- --- -- ----- -- --- ---- -- --- ---- -- ------ ------<br>not ----- -- ----,187629.25000000178,187628.75500000155,187086.882,187093.22999999858,187093.692,187635.376,,52,not
screen,html.Screen,1_1_0_1_53,2021-04-14T20:31:10.660Z,,,,,,,,,,,,,,,,53,,,,,,,,,,,,,,513.4789999994682,,response,,,,99,,,,,,,Space,keypress(Space),,,,,,,,---- -- ----- -- ------ - ------- --- ----------<br>------------- ------ ------ ---- ---- ------- ----- -- ----<br>-------- ------- -- ---------- --- - --- ----- ----- ----<br>---- --- --- ----- --- ---- ---- ------- ----- ---- -------<br>--- --- -- ----- -- --- ---- -- --- ---- -- ------ ------<br>--- close -- ----,188149.35500000138,188148.85499999946,187628.576,187629.32,187635.376,188155.996,,53,close
screen,html.Screen,1_1_0_1_54,2021-04-14T20:31:11.163Z,,,,,,,,,,,,,,,,53,,,,,,,,,,,,,,496.5439999991213,,response,,,,99,,,,,,,Space,keypress(Space),,,,,,,,---- -- ----- -- ------ - ------- --- ----------<br>------------- ------ ------ ---- ---- ------- ----- -- ----<br>-------- ------- -- ---------- --- - --- ----- ----- ----<br>---- --- --- ----- --- ---- ---- ------- ----- ---- -------<br>--- --- -- ----- -- --- ---- -- --- ---- -- ------ ------<br>--- ----- at ----,188652.99999999843,188652.53999999914,188149.167,188149.4249999996,188155.996,188655.894,,54,at
screen,html.Screen,1_1_0_1_55,2021-04-14T20:31:11.300Z,,,,,,,,,,,,,,,,53,,,,,,,,,,,,,,133.09600000092178,,response,,,,99,,,,,,,Space,keypress(Space),,,,,,,,---- -- ----- -- ------ - ------- --- ----------<br>------------- ------ ------ ---- ---- ------- ----- -- ----<br>-------- ------- -- ---------- --- - --- ----- ----- ----<br>---- --- --- ----- --- ---- ---- ------- ----- ---- -------<br>--- --- -- ----- -- --- ---- -- --- ---- -- ------ ------<br>--- ----- -- all.,188789.4550000019,188788.99000000092,188649.103,188653.0700000003,188655.894,188794.842,,55,all.
Item 99,flow.Loop,1_1_0_1,2021-04-14T20:31:11.300Z,,,,,,,,,,,,,,,,,,,,,,,,,,,,,,32522.614000000933,,completion,,,,,A,,,,,,,,,,,silence,,,,,188789.60000000006,188788.99000000092,156245.616,156246.08499999886,156266.376,188794.842,,,
Question 1,html.Screen,1_1_0_2,2021-04-14T20:31:23.501Z,,,,,,,,,,,,,,,,,,,,,,,,,,,true,FALSE,,12194.993000000308,,response,,,,99,A,,,,,,FALSE,click #choice-2,,,,silence,,,,,200990.4800000004,200989.8350000003,188787.898,188789.66500000024,188794.842,200993.829,,,
Question 2,html.Screen,1_1_0_3,2021-04-14T20:31:28.220Z,,,,,,,,,,,,,,,,,,,,,,,,,,,true,TRUE,,4715.446000001073,,response,,,,99,A,,,,,,TRUE,click #choice-1,,,,silence,,,,,205709.97999999963,205709.27500000107,200986.905,200990.560000002,200993.829,205715.083,,,
Item 99,flow.Sequence,1_1_0,2021-04-14T20:31:28.220Z,,,,,,,,,,,,,,,,,,,,,,,,,,,,,,59454.87000000107,,completion,,,,,,,,,,,,,,,,,,,,,205710.10000000024,205709.27500000107,146247.531,146249.71500000174,146254.405,205715.083,,,
Holding screen,html.Screen,1_1_1_0,2021-04-14T20:31:38.217Z,,,,,,,,,,,,,,,,,,,,,,,,,,,,,,9998.108999999997,,timeout,,,,,,,,,,,,,,,,,,,,,215706.8599999984,215706.395,205708.264,205710.17500000016,205715.083,215713.192,,,
screen,html.Screen,1_1_1_1_0,2021-04-14T20:31:39.924Z,,,,,,,,,,,,,,,,54,,,,,,,,,,,,,,1699.7279999988386,,response,,,,100,,,,,,,Space,keypress(Space),,,,,,,,At --- ---- --- ------ ----- ------- ---- -- --- ------- --<br>------- ---------- ------ -- ----- -- ----- -- ---- ------<br>--- ----- --- --- ------ -------- ----- --- ------ ----- --<br>----- ----- ---------- --- --- ------ ------ ---- -- ------<br>------- --- ------ ----- --- ---- ------- -- ---- --- --<br>------- ------,217413.46500000145,217412.91999999885,215706.395,215706.95999999953,215713.192,217414.217,,0,At
screen,html.Screen,1_1_1_1_1,2021-04-14T20:31:40.501Z,,,,,,,,,,,,,,,,54,,,,,,,,,,,,,,576.4280000016734,,response,,,,100,,,,,,,Space,keypress(Space),,,,,,,,-- the ---- --- ------ ----- ------- ---- -- --- ------- --<br>------- ---------- ------ -- ----- -- ----- -- ---- ------<br>--- ----- --- --- ------ -------- ----- --- ------ ----- --<br>----- ----- ---------- --- --- ------ ------ ---- -- ------<br>------- --- ------ ----- --- ---- ------- -- ---- --- --<br>------- ------,217991.11999999877,217990.64500000168,217407.312,217413.6150000013,217414.217,217997.518,,1,the
screen,html.Screen,1_1_1_1_2,2021-04-14T20:31:41.028Z,,,,,,,,,,,,,,,,54,,,,,,,,,,,,,,519.3169999985257,,response,,,,100,,,,,,,Space,keypress(Space),,,,,,,,-- --- time --- ------ ----- ------- ---- -- --- ------- --<br>------- ---------- ------ -- ----- -- ----- -- ---- ------<br>--- ----- --- --- ------ -------- ----- --- ------ ----- --<br>----- ----- ---------- --- --- ------ ------ ---- -- ------<br>------- --- ------ ----- --- ---- ------- -- ---- --- --<br>------- ------,218517.39499999894,218516.83499999854,217990.649,217991.19000000064,217997.518,218518.171,,2,time
screen,html.Screen,1_1_1_1_3,2021-04-14T20:31:41.491Z,,,,,,,,,,,,,,,,54,,,,,,,,,,,,,,462.3239999997895,,response,,,,100,,,,,,,Space,keypress(Space),,,,,,,,-- --- ---- the ------ ----- ------- ---- -- --- ------- --<br>------- ---------- ------ -- ----- -- ----- -- ---- ------<br>--- ----- --- --- ------ -------- ----- --- ------ ----- --<br>----- ----- ---------- --- --- ------ ------ ---- -- ------<br>------- --- ------ ----- --- ---- ------- -- ---- --- --<br>------- ------,218980.98000000027,218980.4949999998,218511.391,218517.46999999887,218518.171,218983.377,,3,the
screen,html.Screen,1_1_1_1_4,2021-04-14T20:31:41.939Z,,,,,,,,,,,,,,,,54,,,,,,,,,,,,,,445.09299999891664,,response,,,,100,,,,,,,Space,keypress(Space),,,,,,,,-- --- ---- --- French ----- ------- ---- -- --- ------- --<br>------- ---------- ------ -- ----- -- ----- -- ---- ------<br>--- ----- --- --- ------ -------- ----- --- ------ ----- --<br>----- ----- ---------- --- --- ------ ------ ---- -- ------<br>------- --- ------ ----- --- ---- ------- -- ---- --- --<br>------- ------,219429.01999999958,219428.46999999892,218976.501,218981.0550000002,218983.377,219434.663,,4,French
screen,html.Screen,1_1_1_1_5,2021-04-14T20:31:42.427Z,,,,,,,,,,,,,,,,54,,,,,,,,,,,,,,482.01200000039535,,response,,,,100,,,,,,,Space,keypress(Space),,,,,,,,-- --- ---- --- ------ crown ------- ---- -- --- ------- --<br>------- ---------- ------ -- ----- -- ----- -- ---- ------<br>--- ----- --- --- ------ -------- ----- --- ------ ----- --<br>----- ----- ---------- --- --- ------ ------ ---- -- ------<br>------- --- ------ ----- --- ---- ------- -- ---- --- --<br>------- ------,219917.16000000088,219916.6750000004,219427.754,219429.0949999995,219434.663,219920.707,,5,crown
screen,html.Screen,1_1_1_1_6,2021-04-14T20:31:42.955Z,,,,,,,,,,,,,,,,54,,,,,,,,,,,,,,523.9330000015325,,response,,,,100,,,,,,,Space,keypress(Space),,,,,,,,-- --- ---- --- ------ ----- secured ---- -- --- ------- --<br>------- ---------- ------ -- ----- -- ----- -- ---- ------<br>--- ----- --- --- ------ -------- ----- --- ------ ----- --<br>----- ----- ---------- --- --- ------ ------ ---- -- ------<br>------- --- ------ ----- --- ---- ------- -- ---- --- --<br>------- ------,220445.25499999872,220444.64000000153,219913.719,219917.2299999991,219920.707,220448.35,,6,secured
screen,html.Screen,1_1_1_1_7,2021-04-14T20:31:43.852Z,,,,,,,,,,,,,,,,54,,,,,,,,,,,,,,893.4299999988289,,response,,,,100,,,,,,,Space,keypress(Space),,,,,,,,-- --- ---- --- ------ ----- ------- much -- --- ------- --<br>------- ---------- ------ -- ----- -- ----- -- ---- ------<br>--- ----- --- --- ------ -------- ----- --- ------ ----- --<br>----- ----- ---------- --- --- ------ ------ ---- -- ------<br>------- --- ------ ----- --- ---- ------- -- ---- --- --<br>------- ------,221342.20500000083,221341.77999999883,220441.542,220445.32999999865,220448.35,221344.081,,7,much
screen,html.Screen,1_1_1_1_8,2021-04-14T20:31:44.354Z,,,,,,,,,,,,,,,,54,,,,,,,,,,,,,,499.68899999948917,,response,,,,100,,,,,,,Space,keypress(Space),,,,,,,,-- --- ---- --- ------ ----- ------- ---- of --- ------- --<br>------- ---------- ------ -- ----- -- ----- -- ---- ------<br>--- ----- --- --- ------ -------- ----- --- ------ ----- --<br>----- ----- ---------- --- --- ------ ------ ---- -- ------<br>------- --- ------ ----- --- ---- ------- -- ---- --- --<br>------- ------,221844.12000000157,221843.7699999995,221337.236,221342.30500000194,221344.081,221850.873,,8,of
screen,html.Screen,1_1_1_1_9,2021-04-14T20:31:44.803Z,,,,,,,,,,,,,,,,54,,,,,,,,,,,,,,441.26700000138953,,response,,,,100,,,,,,,Space,keypress(Space),,,,,,,,-- --- ---- --- ------ ----- ------- ---- -- its ------- --<br>------- ---------- ------ -- ----- -- ----- -- ---- ------<br>--- ----- --- --- ------ -------- ----- --- ------ ----- --<br>----- ----- ---------- --- --- ------ ------ ---- -- ------<br>------- --- ------ ----- --- ---- ------- -- ---- --- --<br>------- ------,222292.50500000126,222292.14000000138,221843.905,221844.19999999955,221850.873,222295.223,,9,its
screen,html.Screen,1_1_1_1_10,2021-04-14T20:31:45.427Z,,,,,,,,,,,,,,,,54,,,,,,,,,,,,,,621.4369999989576,,response,,,,100,,,,,,,Space,keypress(Space),,,,,,,,-- --- ---- --- ------ ----- ------- ---- -- --- revenue --<br>------- ---------- ------ -- ----- -- ----- -- ---- ------<br>--- ----- --- --- ------ -------- ----- --- ------ ----- --<br>----- ----- ---------- --- --- ------ ------ ---- -- ------<br>------- --- ------ ----- --- ---- ------- -- ---- --- --<br>------- ------,222917.16000000088,222916.65999999896,222288.282,222292.58000000118,222295.223,222920.098,,10,revenue
screen,html.Screen,1_1_1_1_11,2021-04-14T20:31:45.979Z,,,,,,,,,,,,,,,,54,,,,,,,,,,,,,,548.6870000009367,,response,,,,100,,,,,,,Space,keypress(Space),,,,,,,,-- --- ---- --- ------ ----- ------- ---- -- --- ------- by<br>------- ---------- ------ -- ----- -- ----- -- ---- ------<br>--- ----- --- --- ------ -------- ----- --- ------ ----- --<br>----- ----- ---------- --- --- ------ ------ ---- -- ------<br>------- --- ------ ----- --- ---- ------- -- ---- --- --<br>------- ------,223469.18500000174,223468.78500000093,222913.121,222917.2299999991,222920.098,223475.697,,11,by
screen,html.Screen,1_1_1_1_12,2021-04-14T20:31:46.883Z,,,,,,,,,,,,,,,,54,,,,,,,,,,,,,,896.8680000015011,,response,,,,100,,,,,,,Space,keypress(Space),,,,,,,,-- --- ---- --- ------ ----- ------- ---- -- --- ------- --<br>issuing ---------- ------ -- ----- -- ----- -- ---- ------<br>--- ----- --- --- ------ -------- ----- --- ------ ----- --<br>----- ----- ---------- --- --- ------ ------ ---- -- ------<br>------- --- ------ ----- --- ---- ------- -- ---- --- --<br>------- ------,224372.9999999996,224372.5650000015,223468.766,223469.26000000167,223475.697,224378.271,,12,issuing
screen,html.Screen,1_1_1_1_13,2021-04-14T20:31:47.795Z,,,,,,,,,,,,,,,,54,,,,,,,,,,,,,,906.369000001665,,response,,,,100,,,,,,,Space,keypress(Space),,,,,,,,-- --- ---- --- ------ ----- ------- ---- -- --- ------- --<br>------- government ------ -- ----- -- ----- -- ---- ------<br>--- ----- --- --- ------ -------- ----- --- ------ ----- --<br>----- ----- ---------- --- --- ------ ------ ---- -- ------<br>------- --- ------ ----- --- ---- ------- -- ---- --- --<br>------- ------,225285.10000000097,225284.64000000167,224371.359,224373.07499999952,224378.271,225287.7,,13,government
screen,html.Screen,1_1_1_1_14,2021-04-14T20:31:48.835Z,,,,,,,,,,,,,,,,54,,,,,,,,,,,,,,1036.9700000017765,,response,,,,100,,,,,,,Space,keypress(Space),,,,,,,,-- --- ---- --- ------ ----- ------- ---- -- --- ------- --<br>------- ---------- bonds. -- ----- -- ----- -- ---- ------<br>--- ----- --- --- ------ -------- ----- --- ------ ----- --<br>----- ----- ---------- --- --- ------ ------ ---- -- ------<br>------- --- ------ ----- --- ---- ------- -- ---- --- --<br>------- ------,226325.15499999863,226324.6700000018,225280.911,225285.17999999895,225287.7,226329.335,,14,bonds.
screen,html.Screen,1_1_1_1_15,2021-04-14T20:31:49.333Z,,,,,,,,,,,,,,,,54,,,,,,,,,,,,,,493.32999999969616,,response,,,,100,,,,,,,Space,keypress(Space),,,,,,,,-- --- ---- --- ------ ----- ------- ---- -- --- ------- --<br>------- ---------- ------ In ----- -- ----- -- ---- ------<br>--- ----- --- --- ------ -------- ----- --- ------ ----- --<br>----- ----- ---------- --- --- ------ ------ ---- -- ------<br>------- --- ------ ----- --- ---- ------- -- ---- --- --<br>------- ------,226823.11000000118,226822.6649999997,226322.347,226325.2250000005,226329.335,226829.187,,15,In
screen,html.Screen,1_1_1_1_16,2021-04-14T20:31:50.195Z,,,,,,,,,,,,,,,,54,,,,,,,,,,,,,,855.4680000009248,,response,,,,100,,,,,,,Space,keypress(Space),,,,,,,,"-- --- ---- --- ------ ----- ------- ---- -- --- ------- --<br>------- ---------- ------ -- 1727, -- ----- -- ---- ------<br>--- ----- --- --- ------ -------- ----- --- ------ ----- --<br>----- ----- ---------- --- --- ------ ------ ---- -- ------<br>------- --- ------ ----- --- ---- ------- -- ---- --- --<br>------- ------",227685.1749999987,227684.65500000093,226822.286,226823.1850000011,226829.187,227690.086,,16,"1727,"
screen,html.Screen,1_1_1_1_17,2021-04-14T20:31:50.715Z,,,,,,,,,,,,,,,,54,,,,,,,,,,,,,,514.6139999984007,,response,,,,100,,,,,,,Space,keypress(Space),,,,,,,,-- --- ---- --- ------ ----- ------- ---- -- --- ------- --<br>------- ---------- ------ -- ----- in ----- -- ---- ------<br>--- ----- --- --- ------ -------- ----- --- ------ ----- --<br>----- ----- ---------- --- --- ------ ------ ---- -- ------<br>------- --- ------ ----- --- ---- ------- -- ---- --- --<br>------- ------,228205.1700000011,228204.6999999984,227683.276,227685.24999999863,227690.086,228210.777,,17,in
screen,html.Screen,1_1_1_1_18,2021-04-14T20:31:51.235Z,,,,,,,,,,,,,,,,54,,,,,,,,,,,,,,513.9280000005383,,response,,,,100,,,,,,,Space,keypress(Space),,,,,,,,-- --- ---- --- ------ ----- ------- ---- -- --- ------- --<br>------- ---------- ------ -- ----- -- order -- ---- ------<br>--- ----- --- --- ------ -------- ----- --- ------ ----- --<br>----- ----- ---------- --- --- ------ ------ ---- -- ------<br>------- --- ------ ----- --- ---- ------- -- ---- --- --<br>------- ------,228725.1350000006,228724.70500000054,228203.948,228205.23500000127,228210.777,228731.577,,18,order
screen,html.Screen,1_1_1_1_19,2021-04-14T20:31:51.607Z,,,,,,,,,,,,,,,,54,,,,,,,,,,,,,,364.29300000102376,,response,,,,100,,,,,,,Space,keypress(Space),,,,,,,,-- --- ---- --- ------ ----- ------- ---- -- --- ------- --<br>------- ---------- ------ -- ----- -- ----- to ---- ------<br>--- ----- --- --- ------ -------- ----- --- ------ ----- --<br>----- ----- ---------- --- --- ------ ------ ---- -- ------<br>------- --- ------ ----- --- ---- ------- -- ---- --- --<br>------- ------,229096.3550000015,229095.870000001,228724.686,228725.21000000052,228731.577,229099.535,,19,to
screen,html.Screen,1_1_1_1_20,2021-04-14T20:31:52.187Z,,,,,,,,,,,,,,,,54,,,,,,,,,,,,,,577.2000000009139,,response,,,,100,,,,,,,Space,keypress(Space),,,,,,,,-- --- ---- --- ------ ----- ------- ---- -- --- ------- --<br>------- ---------- ------ -- ----- -- ----- -- save ------<br>--- ----- --- --- ------ -------- ----- --- ------ ----- --<br>----- ----- ---------- --- --- ------ ------ ---- -- ------<br>------- --- ------ ----- --- ---- ------- -- ---- --- --<br>------- ------,229677.2000000019,229676.73500000092,229092.666,229096.43000000142,229099.535,229682.817,,20,save
screen,html.Screen,1_1_1_1_21,2021-04-14T20:31:52.971Z,,,,,,,,,,,,,,,,54,,,,,,,,,,,,,,777.9579999995476,,response,,,,100,,,,,,,Space,keypress(Space),,,,,,,,"-- --- ---- --- ------ ----- ------- ---- -- --- ------- --<br>------- ---------- ------ -- ----- -- ----- -- ---- money,<br>--- ----- --- --- ------ -------- ----- --- ------ ----- --<br>----- ----- ---------- --- --- ------ ------ ---- -- ------<br>------- --- ------ ----- --- ---- ------- -- ---- --- --<br>------- ------",230461.22000000105,230460.77499999956,229675.895,229677.27000000014,229682.817,230467.327,,21,"money,"
screen,html.Screen,1_1_1_1_22,2021-04-14T20:31:53.459Z,,,,,,,,,,,,,,,,54,,,,,,,,,,,,,,481.23300000073505,,response,,,,100,,,,,,,Space,keypress(Space),,,,,,,,-- --- ---- --- ------ ----- ------- ---- -- --- ------- --<br>------- ---------- ------ -- ----- -- ----- -- ---- ------<br>the ----- --- --- ------ -------- ----- --- ------ ----- --<br>----- ----- ---------- --- --- ------ ------ ---- -- ------<br>------- --- ------ ----- --- ---- ------- -- ---- --- --<br>------- ------,230949.02999999977,230948.56000000073,230460.426,230461.29500000097,230467.327,230953.395,,22,the
screen,html.Screen,1_1_1_1_23,2021-04-14T20:31:53.924Z,,,,,,,,,,,,,,,,54,,,,,,,,,,,,,,460.30999999903725,,response,,,,100,,,,,,,Space,keypress(Space),,,,,,,,-- --- ---- --- ------ ----- ------- ---- -- --- ------- --<br>------- ---------- ------ -- ----- -- ----- -- ---- ------<br>--- state --- --- ------ -------- ----- --- ------ ----- --<br>----- ----- ---------- --- --- ------ ------ ---- -- ------<br>------- --- ------ ----- --- ---- ------- -- ---- --- --<br>------- ------,231414.16000000027,231413.70499999903,230946.482,230949.10000000164,230953.395,231418.476,,23,state
screen,html.Screen,1_1_1_1_24,2021-04-14T20:31:54.411Z,,,,,,,,,,,,,,,,54,,,,,,,,,,,,,,482.15900000178954,,response,,,,100,,,,,,,Space,keypress(Space),,,,,,,,-- --- ---- --- ------ ----- ------- ---- -- --- ------- --<br>------- ---------- ------ -- ----- -- ----- -- ---- ------<br>--- ----- cut --- ------ -------- ----- --- ------ ----- --<br>----- ----- ---------- --- --- ------ ------ ---- -- ------<br>------- --- ------ ----- --- ---- ------- -- ---- --- --<br>------- ------,231901.08999999939,231900.63500000178,231411.622,231414.2350000002,231418.476,231904.559,,24,cut
screen,html.Screen,1_1_1_1_25,2021-04-14T20:31:54.859Z,,,,,,,,,,,,,,,,54,,,,,,,,,,,,,,443.8109999996959,,response,,,,100,,,,,,,Space,keypress(Space),,,,,,,,-- --- ---- --- ------ ----- ------- ---- -- --- ------- --<br>------- ---------- ------ -- ----- -- ----- -- ---- ------<br>--- ----- --- the ------ -------- ----- --- ------ ----- --<br>----- ----- ---------- --- --- ------ ------ ---- -- ------<br>------- --- ------ ----- --- ---- ------- -- ---- --- --<br>------- ------,232348.829999999,232348.3699999997,231897.663,231901.1649999993,231904.559,232355.92,,25,the
screen,html.Screen,1_1_1_1_26,2021-04-14T20:31:55.628Z,,,,,,,,,,,,,,,,54,,,,,,,,,,,,,,760.9400000018941,,response,,,,100,,,,,,,Space,keypress(Space),,,,,,,,-- --- ---- --- ------ ----- ------- ---- -- --- ------- --<br>------- ---------- ------ -- ----- -- ----- -- ---- ------<br>--- ----- --- --- bonds' -------- ----- --- ------ ----- --<br>----- ----- ---------- --- --- ------ ------ ---- -- ------<br>------- --- ------ ----- --- ---- ------- -- ---- --- --<br>------- ------,233117.3600000002,233116.8600000019,232348.983,232348.90000000087,232355.92,233119.533,,26,bonds'
screen,html.Screen,1_1_1_1_27,2021-04-14T20:31:56.075Z,,,,,,,,,,,,,,,,54,,,,,,,,,,,,,,445.1070000005129,,response,,,,100,,,,,,,Space,keypress(Space),,,,,,,,-- --- ---- --- ------ ----- ------- ---- -- --- ------- --<br>------- ---------- ------ -- ----- -- ----- -- ---- ------<br>--- ----- --- --- ------ interest ----- --- ------ ----- --<br>----- ----- ---------- --- --- ------ ------ ---- -- ------<br>------- --- ------ ----- --- ---- ------- -- ---- --- --<br>------- ------,233565.0999999998,233564.6400000005,233112.648,233117.4350000001,233119.533,233570.831,,27,interest
screen,html.Screen,1_1_1_1_28,2021-04-14T20:31:56.838Z,,,,,,,,,,,,,,,,54,,,,,,,,,,,,,,756.9090000006254,,response,,,,100,,,,,,,Space,keypress(Space),,,,,,,,-- --- ---- --- ------ ----- ------- ---- -- --- ------- --<br>------- ---------- ------ -- ----- -- ----- -- ---- ------<br>--- ----- --- --- ------ -------- rate. --- ------ ----- --<br>----- ----- ---------- --- --- ------ ------ ---- -- ------<br>------- --- ------ ----- --- ---- ------- -- ---- --- --<br>------- ------,234328.16000000093,234327.74000000063,233564.035,233565.17499999973,233570.831,234334.544,,28,rate.
screen,html.Screen,1_1_1_1_29,2021-04-14T20:31:57.267Z,,,,,,,,,,,,,,,,54,,,,,,,,,,,,,,422.20600000047125,,response,,,,100,,,,,,,Space,keypress(Space),,,,,,,,-- --- ---- --- ------ ----- ------- ---- -- --- ------- --<br>------- ---------- ------ -- ----- -- ----- -- ---- ------<br>--- ----- --- --- ------ -------- ----- The ------ ----- --<br>----- ----- ---------- --- --- ------ ------ ---- -- ------<br>------- --- ------ ----- --- ---- ------- -- ---- --- --<br>------- ------,234757.19000000026,234756.75000000047,234327.819,234328.23500000086,234334.544,234758.111,,29,The
screen,html.Screen,1_1_1_1_30,2021-04-14T20:31:57.731Z,,,,,,,,,,,,,,,,54,,,,,,,,,,,,,,462.5140000017418,,response,,,,100,,,,,,,Space,keypress(Space),,,,,,,,-- --- ---- --- ------ ----- ------- ---- -- --- ------- --<br>------- ---------- ------ -- ----- -- ----- -- ---- ------<br>--- ----- --- --- ------ -------- ----- --- market ----- --<br>----- ----- ---------- --- --- ------ ------ ---- -- ------<br>------- --- ------ ----- --- ---- ------- -- ---- --- --<br>------- ------,235221.08500000104,235220.62500000175,234751.293,234757.2599999985,234758.111,235223.298,,30,market
screen,html.Screen,1_1_1_1_31,2021-04-14T20:31:58.235Z,,,,,,,,,,,,,,,,54,,,,,,,,,,,,,,501.1420000017679,,response,,,,100,,,,,,,Space,keypress(Space),,,,,,,,-- --- ---- --- ------ ----- ------- ---- -- --- ------- --<br>------- ---------- ------ -- ----- -- ----- -- ---- ------<br>--- ----- --- --- ------ -------- ----- --- ------ value --<br>----- ----- ---------- --- --- ------ ------ ---- -- ------<br>------- --- ------ ----- --- ---- ------- -- ---- --- --<br>------- ------,235724.94500000175,235724.44000000178,235216.53,235221.15499999927,235223.298,235730.201,,31,value
screen,html.Screen,1_1_1_1_32,2021-04-14T20:31:58.683Z,,,,,,,,,,,,,,,,54,,,,,,,,,,,,,,442.5439999998489,,response,,,,100,,,,,,,Space,keypress(Space),,,,,,,,-- --- ---- --- ------ ----- ------- ---- -- --- ------- --<br>------- ---------- ------ -- ----- -- ----- -- ---- ------<br>--- ----- --- --- ------ -------- ----- --- ------ ----- of<br>----- ----- ---------- --- --- ------ ------ ---- -- ------<br>------- --- ------ ----- --- ---- ------- -- ---- --- --<br>------- ------,236173.1800000016,236172.74499999985,235723.339,235725.01499999998,235730.201,236174.504,,32,of
screen,html.Screen,1_1_1_1_33,2021-04-14T20:31:59.149Z,,,,,,,,,,,,,,,,54,,,,,,,,,,,,,,463.2760000009439,,response,,,,100,,,,,,,Space,keypress(Space),,,,,,,,-- --- ---- --- ------ ----- ------- ---- -- --- ------- --<br>------- ---------- ------ -- ----- -- ----- -- ---- ------<br>--- ----- --- --- ------ -------- ----- --- ------ ----- --<br>these ----- ---------- --- --- ------ ------ ---- -- ------<br>------- --- ------ ----- --- ---- ------- -- ---- --- --<br>------- ------,236638.25500000166,236637.78000000093,236167.688,236173.25500000152,236174.504,236639.697,,33,these
screen,html.Screen,1_1_1_1_34,2021-04-14T20:31:59.596Z,,,,,,,,,,,,,,,,54,,,,,,,,,,,,,,445.227999999217,,response,,,,100,,,,,,,Space,keypress(Space),,,,,,,,-- --- ---- --- ------ ----- ------- ---- -- --- ------- --<br>------- ---------- ------ -- ----- -- ----- -- ---- ------<br>--- ----- --- --- ------ -------- ----- --- ------ ----- --<br>----- bonds ---------- --- --- ------ ------ ---- -- ------<br>------- --- ------ ----- --- ---- ------- -- ---- --- --<br>------- ------,237085.364999999,237084.9249999992,236632.893,236638.3300000016,236639.697,237091.082,,34,bonds
screen,html.Screen,1_1_1_1_35,2021-04-14T20:32:00.075Z,,,,,,,,,,,,,,,,54,,,,,,,,,,,,,,473.50800000177696,,response,,,,100,,,,,,,Space,keypress(Space),,,,,,,,"-- --- ---- --- ------ ----- ------- ---- -- --- ------- --<br>------- ---------- ------ -- ----- -- ----- -- ---- ------<br>--- ----- --- --- ------ -------- ----- --- ------ ----- --<br>----- ----- plummeted, --- --- ------ ------ ---- -- ------<br>------- --- ------ ----- --- ---- ------- -- ---- --- --<br>------- ------",237565.10999999955,237564.59000000177,237084.279,237085.43500000087,237091.082,237570.067,,35,"plummeted,"
screen,html.Screen,1_1_1_1_36,2021-04-14T20:32:00.622Z,,,,,,,,,,,,,,,,54,,,,,,,,,,,,,,540.8930000017863,,response,,,,100,,,,,,,Space,keypress(Space),,,,,,,,-- --- ---- --- ------ ----- ------- ---- -- --- ------- --<br>------- ---------- ------ -- ----- -- ----- -- ---- ------<br>--- ----- --- --- ------ -------- ----- --- ------ ----- --<br>----- ----- ---------- and --- ------ ------ ---- -- ------<br>------- --- ------ ----- --- ---- ------- -- ---- --- --<br>------- ------,238111.50500000076,238110.9600000018,237563.251,237565.18499999947,237570.067,238118.688,,36,and
screen,html.Screen,1_1_1_1_37,2021-04-14T20:32:01.147Z,,,,,,,,,,,,,,,,54,,,,,,,,,,,,,,517.9469999989378,,response,,,,100,,,,,,,Space,keypress(Space),,,,,,,,-- --- ---- --- ------ ----- ------- ---- -- --- ------- --<br>------- ---------- ------ -- ----- -- ----- -- ---- ------<br>--- ----- --- --- ------ -------- ----- --- ------ ----- --<br>----- ----- ---------- --- the ------ ------ ---- -- ------<br>------- --- ------ ----- --- ---- ------- -- ---- --- --<br>------- ------,238637.09500000186,238636.63499999893,238111.745,238111.5800000007,238118.688,238639.27,,37,the
screen,html.Screen,1_1_1_1_38,2021-04-14T20:32:01.668Z,,,,,,,,,,,,,,,,54,,,,,,,,,,,,,,517.5300000006682,,response,,,,100,,,,,,,Space,keypress(Space),,,,,,,,-- --- ---- --- ------ ----- ------- ---- -- --- ------- --<br>------- ---------- ------ -- ----- -- ----- -- ---- ------<br>--- ----- --- --- ------ -------- ----- --- ------ ----- --<br>----- ----- ---------- --- --- market ------ ---- -- ------<br>------- --- ------ ----- --- ---- ------- -- ---- --- --<br>------- ------,239157.2550000019,239156.80000000066,238632.496,238637.1700000018,238639.27,239160.01,,38,market
screen,html.Screen,1_1_1_1_39,2021-04-14T20:32:02.148Z,,,,,,,,,,,,,,,,54,,,,,,,,,,,,,,477.6600000000617,,response,,,,100,,,,,,,Space,keypress(Space),,,,,,,,-- --- ---- --- ------ ----- ------- ---- -- --- ------- --<br>------- ---------- ------ -- ----- -- ----- -- ---- ------<br>--- ----- --- --- ------ -------- ----- --- ------ ----- --<br>----- ----- ---------- --- --- ------ became ---- -- ------<br>------- --- ------ ----- --- ---- ------- -- ---- --- --<br>------- ------,239638.10999999987,239637.67000000007,239153.213,239157.33000000182,239160.01,239639.112,,39,became
screen,html.Screen,1_1_1_1_40,2021-04-14T20:32:02.595Z,,,,,,,,,,,,,,,,54,,,,,,,,,,,,,,445.5679999999411,,response,,,,100,,,,,,,Space,keypress(Space),,,,,,,,-- --- ---- --- ------ ----- ------- ---- -- --- ------- --<br>------- ---------- ------ -- ----- -- ----- -- ---- ------<br>--- ----- --- --- ------ -------- ----- --- ------ ----- --<br>----- ----- ---------- --- --- ------ ------ wary -- ------<br>------- --- ------ ----- --- ---- ------- -- ---- --- --<br>------- ------,240085.12999999948,240084.67999999993,239632.247,239638.1849999998,239639.112,240090.524,,40,wary
screen,html.Screen,1_1_1_1_41,2021-04-14T20:32:03.078Z,,,,,,,,,,,,,,,,54,,,,,,,,,,,,,,476.3010000016948,,response,,,,100,,,,,,,Space,keypress(Space),,,,,,,,-- --- ---- --- ------ ----- ------- ---- -- --- ------- --<br>------- ---------- ------ -- ----- -- ----- -- ---- ------<br>--- ----- --- --- ------ -------- ----- --- ------ ----- --<br>----- ----- ---------- --- --- ------ ------ ---- of ------<br>------- --- ------ ----- --- ---- ------- -- ---- --- --<br>------- ------,240567.2799999993,240566.8250000017,240083.675,240085.20000000135,240090.524,240569.462,,41,of
screen,html.Screen,1_1_1_1_42,2021-04-14T20:32:03.619Z,,,,,,,,,,,,,,,,54,,,,,,,,,,,,,,539.1830000002519,,response,,,,100,,,,,,,Space,keypress(Space),,,,,,,,-- --- ---- --- ------ ----- ------- ---- -- --- ------- --<br>------- ---------- ------ -- ----- -- ----- -- ---- ------<br>--- ----- --- --- ------ -------- ----- --- ------ ----- --<br>----- ----- ---------- --- --- ------ ------ ---- -- French<br>------- --- ------ ----- --- ---- ------- -- ---- --- --<br>------- ------,241109.08500000005,241108.64500000025,240562.684,240567.34499999948,240569.462,241111.09,,42,French
screen,html.Screen,1_1_1_1_43,2021-04-14T20:32:04.443Z,,,,,,,,,,,,,,,,54,,,,,,,,,,,,,,821.4649999994144,,response,,,,100,,,,,,,Space,keypress(Space),,,,,,,,-- --- ---- --- ------ ----- ------- ---- -- --- ------- --<br>------- ---------- ------ -- ----- -- ----- -- ---- ------<br>--- ----- --- --- ------ -------- ----- --- ------ ----- --<br>----- ----- ---------- --- --- ------ ------ ---- -- ------<br>credit. --- ------ ----- --- ---- ------- -- ---- --- --<br>------- ------,241933.07999999888,241932.5549999994,241104.233,241109.15999999997,241111.09,241937.283,,43,credit.
screen,html.Screen,1_1_1_1_44,2021-04-14T20:32:04.910Z,,,,,,,,,,,,,,,,54,,,,,,,,,,,,,,462.38200000082725,,response,,,,100,,,,,,,Space,keypress(Space),,,,,,,,-- --- ---- --- ------ ----- ------- ---- -- --- ------- --<br>------- ---------- ------ -- ----- -- ----- -- ---- ------<br>--- ----- --- --- ------ -------- ----- --- ------ ----- --<br>----- ----- ---------- --- --- ------ ------ ---- -- ------<br>------- The ------ ----- --- ---- ------- -- ---- --- --<br>------- ------,242400.12500000012,242399.66500000082,241930.315,241933.1549999988,241937.283,242402.491,,44,The
screen,html.Screen,1_1_1_1_45,2021-04-14T20:32:05.395Z,,,,,,,,,,,,,,,,54,,,,,,,,,,,,,,482.1239999990212,,response,,,,100,,,,,,,Space,keypress(Space),,,,,,,,-- --- ---- --- ------ ----- ------- ---- -- --- ------- --<br>------- ---------- ------ -- ----- -- ----- -- ---- ------<br>--- ----- --- --- ------ -------- ----- --- ------ ----- --<br>----- ----- ---------- --- --- ------ ------ ---- -- ------<br>------- --- French ----- --- ---- ------- -- ---- --- --<br>------- ------,242885.05000000077,242884.61499999903,242395.704,242400.195000002,242402.491,242888.586,,45,French
screen,html.Screen,1_1_1_1_46,2021-04-14T20:32:05.859Z,,,,,,,,,,,,,,,,54,,,,,,,,,,,,,,460.09900000083144,,response,,,,100,,,,,,,Space,keypress(Space),,,,,,,,-- --- ---- --- ------ ----- ------- ---- -- --- ------- --<br>------- ---------- ------ -- ----- -- ----- -- ---- ------<br>--- ----- --- --- ------ -------- ----- --- ------ ----- --<br>----- ----- ---------- --- --- ------ ------ ---- -- ------<br>------- --- ------ state --- ---- ------- -- ---- --- --<br>------- ------,243349.13999999844,243348.68500000084,242881.708,242885.12999999875,242888.586,243353.782,,46,state
screen,html.Screen,1_1_1_1_47,2021-04-14T20:32:06.323Z,,,,,,,,,,,,,,,,54,,,,,,,,,,,,,,458.9280000019644,,response,,,,100,,,,,,,Space,keypress(Space),,,,,,,,-- --- ---- --- ------ ----- ------- ---- -- --- ------- --<br>------- ---------- ------ -- ----- -- ----- -- ---- ------<br>--- ----- --- --- ------ -------- ----- --- ------ ----- --<br>----- ----- ---------- --- --- ------ ------ ---- -- ------<br>------- --- ------ ----- was ---- ------- -- ---- --- --<br>------- ------,243813.21000000025,243812.71000000197,243346.864,243349.2100000003,243353.782,243818.887,,47,was
screen,html.Screen,1_1_1_1_48,2021-04-14T20:32:07.020Z,,,,,,,,,,,,,,,,54,,,,,,,,,,,,,,690.0380000019213,,response,,,,100,,,,,,,Space,keypress(Space),,,,,,,,-- --- ---- --- ------ ----- ------- ---- -- --- ------- --<br>------- ---------- ------ -- ----- -- ----- -- ---- ------<br>--- ----- --- --- ------ -------- ----- --- ------ ----- --<br>----- ----- ---------- --- --- ------ ------ ---- -- ------<br>------- --- ------ ----- --- left ------- -- ---- --- --<br>------- ------,244509.35500000196,244508.9250000019,243812.055,243813.27999999849,243818.887,244513.319,,48,left
screen,html.Screen,1_1_1_1_49,2021-04-14T20:32:07.595Z,,,,,,,,,,,,,,,,54,,,,,,,,,,,,,,571.301000001462,,response,,,,100,,,,,,,Space,keypress(Space),,,,,,,,-- --- ---- --- ------ ----- ------- ---- -- --- ------- --<br>------- ---------- ------ -- ----- -- ----- -- ---- ------<br>--- ----- --- --- ------ -------- ----- --- ------ ----- --<br>----- ----- ---------- --- --- ------ ------ ---- -- ------<br>------- --- ------ ----- --- ---- without -- ---- --- --<br>------- ------,245085.12500000143,245084.62000000145,244506.361,244509.4250000002,244513.319,245089.444,,49,without
screen,html.Screen,1_1_1_1_50,2021-04-14T20:32:08.099Z,,,,,,,,,,,,,,,,54,,,,,,,,,,,,,,499.1960000017716,,response,,,,100,,,,,,,Space,keypress(Space),,,,,,,,-- --- ---- --- ------ ----- ------- ---- -- --- ------- --<br>------- ---------- ------ -- ----- -- ----- -- ---- ------<br>--- ----- --- --- ------ -------- ----- --- ------ ----- --<br>----- ----- ---------- --- --- ------ ------ ---- -- ------<br>------- --- ------ ----- --- ---- ------- an ---- --- --<br>------- ------,245589.1249999986,245588.64000000176,245082.659,245085.19499999966,245089.444,245596.417,,50,an
screen,html.Screen,1_1_1_1_51,2021-04-14T20:32:08.547Z,,,,,,,,,,,,,,,,54,,,,,,,,,,,,,,440.30300000007264,,response,,,,100,,,,,,,Space,keypress(Space),,,,,,,,-- --- ---- --- ------ ----- ------- ---- -- --- ------- --<br>------- ---------- ------ -- ----- -- ----- -- ---- ------<br>--- ----- --- --- ------ -------- ----- --- ------ ----- --<br>----- ----- ---------- --- --- ------ ------ ---- -- ------<br>------- --- ------ ----- --- ---- ------- -- easy --- --<br>------- ------,246037.16500000155,246036.72000000006,245589.486,245589.19500000047,245596.417,246040.82,,51,easy
screen,html.Screen,1_1_1_1_52,2021-04-14T20:32:09.091Z,,,,,,,,,,,,,,,,54,,,,,,,,,,,,,,539.1050000018149,,response,,,,100,,,,,,,Space,keypress(Space),,,,,,,,-- --- ---- --- ------ ----- ------- ---- -- --- ------- --<br>------- ---------- ------ -- ----- -- ----- -- ---- ------<br>--- ----- --- --- ------ -------- ----- --- ------ ----- --<br>----- ----- ---------- --- --- ------ ------ ---- -- ------<br>------- --- ------ ----- --- ---- ------- -- ---- way --<br>------- ------,246580.40999999866,246579.92500000182,246033.848,246037.24000000147,246040.82,246582.205,,52,way
screen,html.Screen,1_1_1_1_53,2021-04-14T20:32:09.668Z,,,,,,,,,,,,,,,,54,,,,,,,,,,,,,,575.4599999988277,,response,,,,100,,,,,,,Space,keypress(Space),,,,,,,,-- --- ---- --- ------ ----- ------- ---- -- --- ------- --<br>------- ---------- ------ -- ----- -- ----- -- ---- ------<br>--- ----- --- --- ------ -------- ----- --- ------ ----- --<br>----- ----- ---------- --- --- ------ ------ ---- -- ------<br>------- --- ------ ----- --- ---- ------- -- ---- --- of<br>------- ------,247158.115000002,247157.66499999881,246575.401,246580.4849999986,246582.205,247172.55,,53,of
screen,html.Screen,1_1_1_1_54,2021-04-14T20:32:10.307Z,,,,,,,,,,,,,,,,54,,,,,,,,,,,,,,624.1050000019313,,response,,,,100,,,,,,,Space,keypress(Space),,,,,,,,-- --- ---- --- ------ ----- ------- ---- -- --- ------- --<br>------- ---------- ------ -- ----- -- ----- -- ---- ------<br>--- ----- --- --- ------ -------- ----- --- ------ ----- --<br>----- ----- ---------- --- --- ------ ------ ---- -- ------<br>------- --- ------ ----- --- ---- ------- -- ---- --- --<br>raising ------,247797.11999999927,247796.65500000192,247165.602,247158.19000000192,247172.55,247804.228,,54,raising
screen,html.Screen,1_1_1_1_55,2021-04-14T20:32:11.341Z,,,,,,,,,,,,,,,,54,,,,,,,,,,,,,,1026.5069999995467,,response,,,,100,,,,,,,Space,keypress(Space),,,,,,,,-- --- ---- --- ------ ----- ------- ---- -- --- ------- --<br>------- ---------- ------ -- ----- -- ----- -- ---- ------<br>--- ----- --- --- ------ -------- ----- --- ------ ----- --<br>----- ----- ---------- --- --- ------ ------ ---- -- ------<br>------- --- ------ ----- --- ---- ------- -- ---- --- --<br>------- money.,248831.21000000028,248830.73499999955,247797.395,247797.1949999992,247804.228,248838.722,,55,money.
Item 100,flow.Loop,1_1_1_1,2021-04-14T20:32:11.342Z,,,,,,,,,,,,,,,,,,,,,,,,,,,,,,33117.54299999954,,completion,,,,,A,,,,,,,,,,,silence,,,,,248831.33499999894,248830.73499999955,215706.395,215706.93500000198,215713.192,248838.722,,,
Question 1,html.Screen,1_1_1_2,2021-04-14T20:32:14.259Z,,,,,,,,,,,,,,,,,,,,,,,,,,,true,TRUE,,2909.3629999992554,,response,,,,100,A,,,,,,TRUE,click #choice-1,,,,silence,,,,,251748.8599999997,251748.08499999926,248824.951,248831.38999999937,248838.722,251761.885,,,
Question 2,html.Screen,1_1_1_3,2021-04-14T20:32:17.455Z,,,,,,,,,,,,,,,,,,,,,,,,,,,true,FALSE,,3182.469999999623,,response,,,,100,A,,,,,,FALSE,click #choice-2,,,,silence,,,,,254944.9850000019,254944.35499999963,251754.97,251748.95000000106,251761.885,254948.861,,,
Item 100,flow.Sequence,1_1_1,2021-04-14T20:32:17.455Z,,,,,,,,,,,,,,,,,,,,,,,,,,,,,,49229.27199999962,,completion,,,,,,,,,,,,,,,,,,,,,254945.13500000176,254944.35499999963,205708.264,205710.14999999898,205715.083,254948.861,,,
End of Practice,html.Page,1_1_2,2021-04-14T20:32:19.761Z,,,,,,,,,,,,,,,,,,,,,,,,,,,,,,2301.5239999993646,,form submission,,,,,,,,,,,,,,,,,,,,,257250.57000000015,257250.38499999937,254941.802,254945.18999999855,254948.861,257253.868,,,
Practice,flow.Sequence,1_1,2021-04-14T20:32:19.761Z,,,,,,,,,,,,,,,,,,,,,,,,,,,,,,110995.97999999937,,completion,,,,,,,,,,,,,,,,,,,,,257250.67499999932,257250.38499999937,146247.531,146249.6949999986,146254.405,257253.868,,,
Trap_instruction,html.Page,1_2_0,2021-04-14T20:32:23.936Z,,,,,,,,,,,,,,,,,,,,,,,,,,,,,,4171.571999999083,,form submission,,,,,,,,,,,,,,,,,,,,,261425.5950000006,261425.43999999907,257246.943,257250.7399999995,257253.868,261433.478,,,
trap_trial,html.Screen,1_2_1,2021-04-14T20:32:26.612Z,,,,,,,,,,,,,,,,,,,,,,,,,,,true,1,,2668.0269999987213,,response,,,,,,,,,,,1,click #choice-1,,,,,,,,,264102.1949999995,264101.5049999987,261419.727,261425.6549999991,261433.478,264106.584,,,
end of trap trial,html.Page,1_2_2,2021-04-14T20:32:28.268Z,,,,,,,,,,,,,,,,,,,,,,,,,,,,,,1650.7109999994864,,form submission,,,,,,,,,,,,,,,,,,,,,265757.4800000002,265757.29499999946,264099.819,264102.26500000135,264106.584,265759.056,,,
Trap 1,flow.Sequence,1_2,2021-04-14T20:32:28.268Z,,,,,,,,,,,,,,,,,,,,,,,,,,,,,,8503.426999999472,,completion,,,,,,,,,,,,,,,,,,,,,265757.6149999986,265757.29499999946,257246.943,257250.72,257253.868,265759.056,,,
Standby,html.Page,1_3_0,2021-04-14T20:32:36.262Z,,,,,,,,,,,,,,,,,,,,,,,,,,,,,,7998.530000000028,,timeout,,,,,,,,,,,,,,,,,,,,,273751.26000000094,273750.714,265752.281,265757.69500000024,265759.056,273757.586,,,
Holding screen,html.Screen,1_3_1_0_0,2021-04-14T20:32:43.260Z,,,,,,,,,,,,,,,,,,,,,,,,,,,,,,6998.605999999971,,timeout,,,,,,,,,,,,,,,,,,,,,280749.85000000015,280749.36,273750.714,273751.37000000174,273757.586,280756.192,,,
screen,html.Screen,1_3_1_0_1_0,2021-04-14T20:32:45.348Z,,,,,,,,,,,,,,,,15,,,,,,,,,,,,,,2080.6979999986943,,response,,,,7,A,,,,,,Space,keypress(Space),,,,silence,,,,Greg --------- ---------- - --- ------- -- --- ------------<br>----- -- -------- ------- ---- ------ - -------- ---- -----<br>--- ------- ---- -- --- -------- --- - ----- ------ ---- --<br>-------- --- -------- -------- --- -------- ---- -- ----- -<br>-------- ---- --- ---------- --------- -- ------- ------ -<br>--------- ----- -----,282837.50499999954,282836.8899999987,280749.36,280749.96499999904,280756.192,282839.047,,0,Greg
screen,html.Screen,1_3_1_0_1_1,2021-04-14T20:32:45.979Z,,,,,,,,,,,,,,,,15,,,,,,,,,,,,,,629.4879999999539,,response,,,,7,A,,,,,,Space,keypress(Space),,,,silence,,,,"---- Anderson, ---------- - --- ------- -- --- ------------<br>----- -- -------- ------- ---- ------ - -------- ---- -----<br>--- ------- ---- -- --- -------- --- - ----- ------ ---- --<br>-------- --- -------- -------- --- -------- ---- -- ----- -<br>-------- ---- --- ---------- --------- -- ------- ------ -<br>--------- ----- -----",283468.9900000012,283468.535,282832.288,282837.58999999915,282839.047,283470.892,,1,"Anderson,"
screen,html.Screen,1_3_1_0_1_2,2021-04-14T20:32:46.692Z,,,,,,,,,,,,,,,,15,,,,,,,,,,,,,,709.6629999990109,,response,,,,7,A,,,,,,Space,keypress(Space),,,,silence,,,,---- --------- considered - --- ------- -- --- ------------<br>----- -- -------- ------- ---- ------ - -------- ---- -----<br>--- ------- ---- -- --- -------- --- - ----- ------ ---- --<br>-------- --- -------- -------- --- -------- ---- -- ----- -<br>-------- ---- --- ---------- --------- -- ------- ------ -<br>--------- ----- -----,284181.1300000008,284180.554999999,283464.135,283469.0650000011,283470.892,284186.154,,2,considered
screen,html.Screen,1_3_1_0_1_3,2021-04-14T20:32:47.172Z,,,,,,,,,,,,,,,,15,,,,,,,,,,,,,,474.4710000004852,,response,,,,7,A,,,,,,Space,keypress(Space),,,,silence,,,,---- --------- ---------- a --- ------- -- --- ------------<br>----- -- -------- ------- ---- ------ - -------- ---- -----<br>--- ------- ---- -- --- -------- --- - ----- ------ ---- --<br>-------- --- -------- -------- --- -------- ---- -- ----- -<br>-------- ---- --- ---------- --------- -- ------- ------ -<br>--------- ----- -----,284661.14000000013,284660.62500000047,284179.258,284181.1999999991,284186.154,284665.112,,3,a
screen,html.Screen,1_3_1_0_1_4,2021-04-14T20:32:47.676Z,,,,,,,,,,,,,,,,15,,,,,,,,,,,,,,499.667999999132,,response,,,,7,A,,,,,,Space,keypress(Space),,,,silence,,,,---- --------- ---------- - key ------- -- --- ------------<br>----- -- -------- ------- ---- ------ - -------- ---- -----<br>--- ------- ---- -- --- -------- --- - ----- ------ ---- --<br>-------- --- -------- -------- --- -------- ---- -- ----- -<br>-------- ---- --- ---------- --------- -- ------- ------ -<br>--------- ----- -----,285165.35999999905,285164.77999999915,284658.167,284661.2150000001,284665.112,285172.078,,4,key
screen,html.Screen,1_3_1_0_1_5,2021-04-14T20:32:48.220Z,,,,,,,,,,,,,,,,15,,,,,,,,,,,,,,536.3020000000251,,response,,,,7,A,,,,,,Space,keypress(Space),,,,silence,,,,---- --------- ---------- - --- witness -- --- ------------<br>----- -- -------- ------- ---- ------ - -------- ---- -----<br>--- ------- ---- -- --- -------- --- - ----- ------ ---- --<br>-------- --- -------- -------- --- -------- ---- -- ----- -<br>-------- ---- --- ---------- --------- -- ------- ------ -<br>--------- ----- -----,285708.9049999995,285708.38,285165.187,285165.434999999,285172.078,285713.637,,5,witness
screen,html.Screen,1_3_1_0_1_6,2021-04-14T20:32:48.764Z,,,,,,,,,,,,,,,,15,,,,,,,,,,,,,,538.9729999995325,,response,,,,7,A,,,,,,Space,keypress(Space),,,,silence,,,,---- --------- ---------- - --- ------- by --- ------------<br>----- -- -------- ------- ---- ------ - -------- ---- -----<br>--- ------- ---- -- --- -------- --- - ----- ------ ---- --<br>-------- --- -------- -------- --- -------- ---- -- ----- -<br>-------- ---- --- ---------- --------- -- ------- ------ -<br>--------- ----- -----,286253.09000000195,286252.6099999995,285706.733,285708.9750000014,285713.637,286255.096,,6,by
screen,html.Screen,1_3_1_0_1_7,2021-04-14T20:32:49.244Z,,,,,,,,,,,,,,,,15,,,,,,,,,,,,,,477.6239999999525,,response,,,,7,A,,,,,,Space,keypress(Space),,,,silence,,,,---- --------- ---------- - --- ------- -- the ------------<br>----- -- -------- ------- ---- ------ - -------- ---- -----<br>--- ------- ---- -- --- -------- --- - ----- ------ ---- --<br>-------- --- -------- -------- --- -------- ---- -- ----- -<br>-------- ---- --- ---------- --------- -- ------- ------ -<br>--------- ----- -----,286733.1999999988,286732.72,286248.266,286253.1600000002,286255.096,286734.149,,7,the
screen,html.Screen,1_3_1_0_1_8,2021-04-14T20:32:50.180Z,,,,,,,,,,,,,,,,15,,,,,,,,,,,,,,934.5810000012862,,response,,,,7,A,,,,,,Space,keypress(Space),,,,silence,,,,"---- --------- ---------- - --- ------- -- --- prosecution,<br>----- -- -------- ------- ---- ------ - -------- ---- -----<br>--- ------- ---- -- --- -------- --- - ----- ------ ---- --<br>-------- --- -------- -------- --- -------- ---- -- ----- -<br>-------- ---- --- ---------- --------- -- ------- ------ -<br>--------- ----- -----",287669.1600000013,287668.73000000126,286727.339,286733.2749999987,286734.149,287671.47,,8,"prosecution,"
screen,html.Screen,1_3_1_0_1_9,2021-04-14T20:32:50.835Z,,,,,,,,,,,,,,,,15,,,,,,,,,,,,,,652.9899999998743,,response,,,,7,A,,,,,,Space,keypress(Space),,,,silence,,,,---- --------- ---------- - --- ------- -- --- ------------<br>vowed -- -------- ------- ---- ------ - -------- ---- -----<br>--- ------- ---- -- --- -------- --- - ----- ------ ---- --<br>-------- --- -------- -------- --- -------- ---- -- ----- -<br>-------- ---- --- ---------- --------- -- ------- ------ -<br>--------- ----- -----,288324.8800000001,288324.45999999985,287664.706,287669.2350000012,287671.47,288331.141,,9,vowed
screen,html.Screen,1_3_1_0_1_10,2021-04-14T20:32:51.486Z,,,,,,,,,,,,,,,,15,,,,,,,,,,,,,,643.483999998949,,response,,,,7,A,,,,,,Space,keypress(Space),,,,silence,,,,---- --------- ---------- - --- ------- -- --- ------------<br>----- he -------- ------- ---- ------ - -------- ---- -----<br>--- ------- ---- -- --- -------- --- - ----- ------ ---- --<br>-------- --- -------- -------- --- -------- ---- -- ----- -<br>-------- ---- --- ---------- --------- -- ------- ------ -<br>--------- ----- -----,288975.1350000006,288974.62499999895,288324.273,288324.950000002,288331.141,288976.789,,10,he
screen,html.Screen,1_3_1_0_1_11,2021-04-14T20:32:52.188Z,,,,,,,,,,,,,,,,15,,,,,,,,,,,,,,699.6609999990324,,response,,,,7,A,,,,,,Space,keypress(Space),,,,silence,,,,---- --------- ---------- - --- ------- -- --- ------------<br>----- -- wouldn't ------- ---- ------ - -------- ---- -----<br>--- ------- ---- -- --- -------- --- - ----- ------ ---- --<br>-------- --- -------- -------- --- -------- ---- -- ----- -<br>-------- ---- --- ---------- --------- -- ------- ------ -<br>--------- ----- -----,289676.9349999995,289676.449999999,288969.853,288975.2049999988,288976.789,289678.018,,11,wouldn't
screen,html.Screen,1_3_1_0_1_12,2021-04-14T20:32:52.916Z,,,,,,,,,,,,,,,,15,,,,,,,,,,,,,,726.8920000010985,,response,,,,7,A,,,,,,Space,keypress(Space),,,,silence,,,,---- --------- ---------- - --- ------- -- --- ------------<br>----- -- -------- testify ---- ------ - -------- ---- -----<br>--- ------- ---- -- --- -------- --- - ----- ------ ---- --<br>-------- --- -------- -------- --- -------- ---- -- ----- -<br>-------- ---- --- ---------- --------- -- ------- ------ -<br>--------- ----- -----,290405.3500000009,290404.9100000011,289671.13,289677.0050000014,289678.018,290407.083,,12,testify
screen,html.Screen,1_3_1_0_1_13,2021-04-14T20:32:53.532Z,,,,,,,,,,,,,,,,15,,,,,,,,,,,,,,613.8120000014897,,response,,,,7,A,,,,,,Space,keypress(Space),,,,silence,,,,---- --------- ---------- - --- ------- -- --- ------------<br>----- -- -------- ------- when ------ - -------- ---- -----<br>--- ------- ---- -- --- -------- --- - ----- ------ ---- --<br>-------- --- -------- -------- --- -------- ---- -- ----- -<br>-------- ---- --- ---------- --------- -- ------- ------ -<br>--------- ----- -----,291021.31999999983,291020.8950000015,290400.275,290405.4199999991,290407.083,291024.982,,13,when
screen,html.Screen,1_3_1_0_1_14,2021-04-14T20:32:54.244Z,,,,,,,,,,,,,,,,15,,,,,,,,,,,,,,707.6479999985895,,response,,,,7,A,,,,,,Space,keypress(Space),,,,silence,,,,---- --------- ---------- - --- ------- -- --- ------------<br>----- -- -------- ------- ---- served - -------- ---- -----<br>--- ------- ---- -- --- -------- --- - ----- ------ ---- --<br>-------- --- -------- -------- --- -------- ---- -- ----- -<br>-------- ---- --- ---------- --------- -- ------- ------ -<br>--------- ----- -----,291733.1300000005,291732.6299999986,291018.076,291021.3900000017,291024.982,291740.246,,14,served
screen,html.Screen,1_3_1_0_1_15,2021-04-14T20:32:54.743Z,,,,,,,,,,,,,,,,15,,,,,,,,,,,,,,491.6490000008489,,response,,,,7,A,,,,,,Space,keypress(Space),,,,silence,,,,---- --------- ---------- - --- ------- -- --- ------------<br>----- -- -------- ------- ---- ------ a -------- ---- -----<br>--- ------- ---- -- --- -------- --- - ----- ------ ---- --<br>-------- --- -------- -------- --- -------- ---- -- ----- -<br>-------- ---- --- ---------- --------- -- ------- ------ -<br>--------- ----- -----,292232.3150000011,292231.89500000083,291733.362,291733.2050000004,291740.246,292233.085,,15,a
screen,html.Screen,1_3_1_0_1_16,2021-04-14T20:32:55.516Z,,,,,,,,,,,,,,,,15,,,,,,,,,,,,,,771.9350000004633,,response,,,,7,A,,,,,,Space,keypress(Space),,,,silence,,,,---- --------- ---------- - --- ------- -- --- ------------<br>----- -- -------- ------- ---- ------ - subpoena ---- -----<br>--- ------- ---- -- --- -------- --- - ----- ------ ---- --<br>-------- --- -------- -------- --- -------- ---- -- ----- -<br>-------- ---- --- ---------- --------- -- ------- ------ -<br>--------- ----- -----,293005.4799999998,293005.0200000005,292226.306,292232.3849999993,292233.085,293010.79,,16,subpoena
screen,html.Screen,1_3_1_0_1_17,2021-04-14T20:32:56.037Z,,,,,,,,,,,,,,,,15,,,,,,,,,,,,,,514.8999999985681,,response,,,,7,A,,,,,,Space,keypress(Space),,,,silence,,,,---- --------- ---------- - --- ------- -- --- ------------<br>----- -- -------- ------- ---- ------ - -------- last -----<br>--- ------- ---- -- --- -------- --- - ----- ------ ---- --<br>-------- --- -------- -------- --- -------- ---- -- ----- -<br>-------- ---- --- ---------- --------- -- ------- ------ -<br>--------- ----- -----,293526.170000001,293525.68999999855,293003.883,293005.5500000017,293010.79,293531.561,,17,last
screen,html.Screen,1_3_1_0_1_18,2021-04-14T20:32:56.732Z,,,,,,,,,,,,,,,,15,,,,,,,,,,,,,,689.0789999995613,,response,,,,7,A,,,,,,Space,keypress(Space),,,,silence,,,,---- --------- ---------- - --- ------- -- --- ------------<br>----- -- -------- ------- ---- ------ - -------- ---- week.<br>--- ------- ---- -- --- -------- --- - ----- ------ ---- --<br>-------- --- -------- -------- --- -------- ---- -- ----- -<br>-------- ---- --- ---------- --------- -- ------- ------ -<br>--------- ----- -----,294221.1099999986,294220.63999999955,293524.679,293526.23500000115,293531.561,294225.885,,18,week.
screen,html.Screen,1_3_1_0_1_19,2021-04-14T20:32:57.213Z,,,,,,,,,,,,,,,,15,,,,,,,,,,,,,,476.0549999990035,,response,,,,7,A,,,,,,Space,keypress(Space),,,,silence,,,,---- --------- ---------- - --- ------- -- --- ------------<br>----- -- -------- ------- ---- ------ - -------- ---- -----<br>His ------- ---- -- --- -------- --- - ----- ------ ---- --<br>-------- --- -------- -------- --- -------- ---- -- ----- -<br>-------- ---- --- ---------- --------- -- ------- ------ -<br>--------- ----- -----,294702.45000000065,294701.939999999,294218.971,294221.18499999854,294225.885,294704.968,,19,His
screen,html.Screen,1_3_1_0_1_20,2021-04-14T20:32:57.852Z,,,,,,,,,,,,,,,,15,,,,,,,,,,,,,,635.7770000013406,,response,,,,7,A,,,,,,Space,keypress(Space),,,,silence,,,,---- --------- ---------- - --- ------- -- --- ------------<br>----- -- -------- ------- ---- ------ - -------- ---- -----<br>--- lawyers ---- -- --- -------- --- - ----- ------ ---- --<br>-------- --- -------- -------- --- -------- ---- -- ----- -<br>-------- ---- --- ---------- --------- -- ------- ------ -<br>--------- ----- -----,295341.23000000184,295340.74500000133,294698.105,294702.5250000006,294704.968,295343.588,,20,lawyers
screen,html.Screen,1_3_1_0_1_21,2021-04-14T20:32:58.396Z,,,,,,,,,,,,,,,,15,,,,,,,,,,,,,,541.1620000010589,,response,,,,7,A,,,,,,Space,keypress(Space),,,,silence,,,,---- --------- ---------- - --- ------- -- --- ------------<br>----- -- -------- ------- ---- ------ - -------- ---- -----<br>--- ------- said -- --- -------- --- - ----- ------ ---- --<br>-------- --- -------- -------- --- -------- ---- -- ----- -<br>-------- ---- --- ---------- --------- -- ------- ------ -<br>--------- ----- -----,295885.2650000008,295884.75000000105,295336.801,295341.30500000174,295343.588,295892.247,,21,said
screen,html.Screen,1_3_1_0_1_22,2021-04-14T20:32:58.860Z,,,,,,,,,,,,,,,,15,,,,,,,,,,,,,,456.5880000006873,,response,,,,7,A,,,,,,Space,keypress(Space),,,,silence,,,,---- --------- ---------- - --- ------- -- --- ------------<br>----- -- -------- ------- ---- ------ - -------- ---- -----<br>--- ------- ---- he --- -------- --- - ----- ------ ---- --<br>-------- --- -------- -------- --- -------- ---- -- ----- -<br>-------- ---- --- ---------- --------- -- ------- ------ -<br>--------- ----- -----,296349.2699999988,296348.83500000066,295885.321,295885.3400000007,295892.247,296350.374,,22,he
screen,html.Screen,1_3_1_0_1_23,2021-04-14T20:32:59.340Z,,,,,,,,,,,,,,,,15,,,,,,,,,,,,,,478.22099999903,,response,,,,7,A,,,,,,Space,keypress(Space),,,,silence,,,,---- --------- ---------- - --- ------- -- --- ------------<br>----- -- -------- ------- ---- ------ - -------- ---- -----<br>--- ------- ---- -- was -------- --- - ----- ------ ---- --<br>-------- --- -------- -------- --- -------- ---- -- ----- -<br>-------- ---- --- ---------- --------- -- ------- ------ -<br>--------- ----- -----,296829.08999999927,296828.59499999904,296343.564,296349.34000000067,296350.374,296836.531,,23,was
screen,html.Screen,1_3_1_0_1_24,2021-04-14T20:32:59.956Z,,,,,,,,,,,,,,,,15,,,,,,,,,,,,,,608.2240000004531,,response,,,,7,A,,,,,,Space,keypress(Space),,,,silence,,,,---- --------- ---------- - --- ------- -- --- ------------<br>----- -- -------- ------- ---- ------ - -------- ---- -----<br>--- ------- ---- -- --- prepared --- - ----- ------ ---- --<br>-------- --- -------- -------- --- -------- ---- -- ----- -<br>-------- ---- --- ---------- --------- -- ------- ------ -<br>--------- ----- -----,297445.2200000014,297444.75500000047,296822.601,296829.18000000063,296836.531,297447.387,,24,prepared
screen,html.Screen,1_3_1_0_1_25,2021-04-14T20:33:00.477Z,,,,,,,,,,,,,,,,15,,,,,,,,,,,,,,518.2329999990761,,response,,,,7,A,,,,,,Space,keypress(Space),,,,silence,,,,---- --------- ---------- - --- ------- -- --- ------------<br>----- -- -------- ------- ---- ------ - -------- ---- -----<br>--- ------- ---- -- --- -------- for - ----- ------ ---- --<br>-------- --- -------- -------- --- -------- ---- -- ----- -<br>-------- ---- --- ---------- --------- -- ------- ------ -<br>--------- ----- -----,297966.06999999855,297965.61999999906,297440.598,297445.2950000013,297447.387,297968.143,,25,for
screen,html.Screen,1_3_1_0_1_26,2021-04-14T20:33:00.980Z,,,,,,,,,,,,,,,,15,,,,,,,,,,,,,,500.5519999996177,,response,,,,7,A,,,,,,Space,keypress(Space),,,,silence,,,,---- --------- ---------- - --- ------- -- --- ------------<br>----- -- -------- ------- ---- ------ - -------- ---- -----<br>--- ------- ---- -- --- -------- --- a ----- ------ ---- --<br>-------- --- -------- -------- --- -------- ---- -- ----- -<br>-------- ---- --- ---------- --------- -- ------- ------ -<br>--------- ----- -----,298469.18000000005,298468.6949999996,297961.308,297966.1449999985,297968.143,298475.059,,26,a
screen,html.Screen,1_3_1_0_1_27,2021-04-14T20:33:01.580Z,,,,,,,,,,,,,,,,15,,,,,,,,,,,,,,593.6609999992652,,response,,,,7,A,,,,,,Space,keypress(Space),,,,silence,,,,---- --------- ---------- - --- ------- -- --- ------------<br>----- -- -------- ------- ---- ------ - -------- ---- -----<br>--- ------- ---- -- --- -------- --- - third ------ ---- --<br>-------- --- -------- -------- --- -------- ---- -- ----- -<br>-------- ---- --- ---------- --------- -- ------- ------ -<br>--------- ----- -----,299069.1750000005,299068.7199999993,298468.124,298469.2500000019,298475.059,299072.03,,27,third
screen,html.Screen,1_3_1_0_1_28,2021-04-14T20:33:02.196Z,,,,,,,,,,,,,,,,15,,,,,,,,,,,,,,612.449999999837,,response,,,,7,A,,,,,,Space,keypress(Space),,,,silence,,,,---- --------- ---------- - --- ------- -- --- ------------<br>----- -- -------- ------- ---- ------ - -------- ---- -----<br>--- ------- ---- -- --- -------- --- - ----- prison ---- --<br>-------- --- -------- -------- --- -------- ---- -- ----- -<br>-------- ---- --- ---------- --------- -- ------- ------ -<br>--------- ----- -----,299684.9350000011,299684.47999999986,299065.257,299069.25000000047,299072.03,299690.058,,28,prison
screen,html.Screen,1_3_1_0_1_29,2021-04-14T20:33:02.750Z,,,,,,,,,,,,,,,,15,,,,,,,,,,,,,,548.4719999987283,,response,,,,7,A,,,,,,Space,keypress(Space),,,,silence,,,,---- --------- ---------- - --- ------- -- --- ------------<br>----- -- -------- ------- ---- ------ - -------- ---- -----<br>--- ------- ---- -- --- -------- --- - ----- ------ stay --<br>-------- --- -------- -------- --- -------- ---- -- ----- -<br>-------- ---- --- ---------- --------- -- ------- ------ -<br>--------- ----- -----,300239.0000000014,300238.52999999875,299683.123,299685.01000000106,299690.058,300245.635,,29,stay
screen,html.Screen,1_3_1_0_1_30,2021-04-14T20:33:03.276Z,,,,,,,,,,,,,,,,15,,,,,,,,,,,,,,519.1799999986542,,response,,,,7,A,,,,,,Space,keypress(Space),,,,silence,,,,---- --------- ---------- - --- ------- -- --- ------------<br>----- -- -------- ------- ---- ------ - -------- ---- -----<br>--- ------- ---- -- --- -------- --- - ----- ------ ---- to<br>-------- --- -------- -------- --- -------- ---- -- ----- -<br>-------- ---- --- ---------- --------- -- ------- ------ -<br>--------- ----- -----,300765.370000001,300764.81499999866,300238.646,300239.0699999996,300245.635,300766.158,,30,to
screen,html.Screen,1_3_1_0_1_31,2021-04-14T20:33:03.948Z,,,,,,,,,,,,,,,,15,,,,,,,,,,,,,,670.6319999997504,,response,,,,7,A,,,,,,Space,keypress(Space),,,,silence,,,,---- --------- ---------- - --- ------- -- --- ------------<br>----- -- -------- ------- ---- ------ - -------- ---- -----<br>--- ------- ---- -- --- -------- --- - ----- ------ ---- --<br>maintain --- -------- -------- --- -------- ---- -- ----- -<br>-------- ---- --- ---------- --------- -- ------- ------ -<br>--------- ----- -----,301437.2299999995,301436.78999999975,300759.372,300765.43500000116,300766.158,301439.661,,31,maintain
screen,html.Screen,1_3_1_0_1_32,2021-04-14T20:33:04.732Z,,,,,,,,,,,,,,,,15,,,,,,,,,,,,,,781.0939999984694,,response,,,,7,A,,,,,,Space,keypress(Space),,,,silence,,,,---- --------- ---------- - --- ------- -- --- ------------<br>----- -- -------- ------- ---- ------ - -------- ---- -----<br>--- ------- ---- -- --- -------- --- - ----- ------ ---- --<br>-------- his -------- -------- --- -------- ---- -- ----- -<br>-------- ---- --- ---------- --------- -- ------- ------ -<br>--------- ----- -----,302221.1950000019,302220.7549999985,301432.86,301437.30000000144,301439.661,302224.237,,32,his
screen,html.Screen,1_3_1_0_1_33,2021-04-14T20:33:05.388Z,,,,,,,,,,,,,,,,15,,,,,,,,,,,,,,652.3780000010156,,response,,,,7,A,,,,,,Space,keypress(Space),,,,silence,,,,---- --------- ---------- - --- ------- -- --- ------------<br>----- -- -------- ------- ---- ------ - -------- ---- -----<br>--- ------- ---- -- --- -------- --- - ----- ------ ---- --<br>-------- --- silence. -------- --- -------- ---- -- ----- -<br>-------- ---- --- ---------- --------- -- ------- ------ -<br>--------- ----- -----,302877.1000000015,302876.61500000104,302217.298,302221.26500000013,302224.237,302883.947,,33,silence.
screen,html.Screen,1_3_1_0_1_34,2021-04-14T20:33:05.933Z,,,,,,,,,,,,,,,,15,,,,,,,,,,,,,,537.9379999997909,,response,,,,7,A,,,,,,Space,keypress(Space),,,,silence,,,,---- --------- ---------- - --- ------- -- --- ------------<br>----- -- -------- ------- ---- ------ - -------- ---- -----<br>--- ------- ---- -- --- -------- --- - ----- ------ ---- --<br>-------- --- -------- Anderson --- -------- ---- -- ----- -<br>-------- ---- --- ---------- --------- -- ------- ------ -<br>--------- ----- -----,303422.4299999987,303421.8849999998,302876.941,302877.17500000144,302883.947,303425.354,,34,Anderson
screen,html.Screen,1_3_1_0_1_35,2021-04-14T20:33:06.420Z,,,,,,,,,,,,,,,,15,,,,,,,,,,,,,,483.3309999985504,,response,,,,7,A,,,,,,Space,keypress(Space),,,,silence,,,,---- --------- ---------- - --- ------- -- --- ------------<br>----- -- -------- ------- ---- ------ - -------- ---- -----<br>--- ------- ---- -- --- -------- --- - ----- ------ ---- --<br>-------- --- -------- -------- was -------- ---- -- ----- -<br>-------- ---- --- ---------- --------- -- ------- ------ -<br>--------- ----- -----,303909.1599999992,303908.68499999854,303418.563,303422.5049999986,303425.354,303911.359,,35,was
screen,html.Screen,1_3_1_0_1_36,2021-04-14T20:33:07.116Z,,,,,,,,,,,,,,,,15,,,,,,,,,,,,,,693.2260000009555,,response,,,,7,A,,,,,,Space,keypress(Space),,,,silence,,,,---- --------- ---------- - --- ------- -- --- ------------<br>----- -- -------- ------- ---- ------ - -------- ---- -----<br>--- ------- ---- -- --- -------- --- - ----- ------ ---- --<br>-------- --- -------- -------- --- released ---- -- ----- -<br>-------- ---- --- ---------- --------- -- ------- ------ -<br>--------- ----- -----,304605.0600000017,304604.58500000095,303904.602,303909.23000000115,303911.359,304605.738,,36,released
screen,html.Screen,1_3_1_0_1_37,2021-04-14T20:33:07.717Z,,,,,,,,,,,,,,,,15,,,,,,,,,,,,,,600.0269999987795,,response,,,,7,A,,,,,,Space,keypress(Space),,,,silence,,,,---- --------- ---------- - --- ------- -- --- ------------<br>----- -- -------- ------- ---- ------ - -------- ---- -----<br>--- ------- ---- -- --- -------- --- - ----- ------ ---- --<br>-------- --- -------- -------- --- -------- July -- ----- -<br>-------- ---- --- ---------- --------- -- ------- ------ -<br>--------- ----- -----,305206.22000000003,305205.7649999988,304598.916,304605.1299999999,304605.738,305209.838,,37,July
screen,html.Screen,1_3_1_0_1_38,2021-04-14T20:33:08.395Z,,,,,,,,,,,,,,,,15,,,,,,,,,,,,,,674.2470000014873,,response,,,,7,A,,,,,,Space,keypress(Space),,,,silence,,,,---- --------- ---------- - --- ------- -- --- ------------<br>----- -- -------- ------- ---- ------ - -------- ---- -----<br>--- ------- ---- -- --- -------- --- - ----- ------ ---- --<br>-------- --- -------- -------- --- -------- ---- 20 ----- -<br>-------- ---- --- ---------- --------- -- ------- ------ -<br>--------- ----- -----,305884.5849999998,305884.0850000015,305202.956,305206.2949999999,305209.838,305890.189,,38,20
screen,html.Screen,1_3_1_0_1_39,2021-04-14T20:33:08.990Z,,,,,,,,,,,,,,,,15,,,,,,,,,,,,,,588.5959999993211,,response,,,,7,A,,,,,,Space,keypress(Space),,,,silence,,,,---- --------- ---------- - --- ------- -- --- ------------<br>----- -- -------- ------- ---- ------ - -------- ---- -----<br>--- ------- ---- -- --- -------- --- - ----- ------ ---- --<br>-------- --- -------- -------- --- -------- ---- -- after -<br>-------- ---- --- ---------- --------- -- ------- ------ -<br>--------- ----- -----,306479.2349999989,306478.78499999933,305883.384,305884.66500000143,305890.189,306480.334,,39,after
