sender,sender_type,sender_id,timestamp,meta,,Blues,Classical,Country,Dance,Electronic,Folk,Gospel,Hip-Hop,Jazz,Latin,Musical/Film,New-age,Pop,Provo_ID,R&B,Rap,Reggae,Religious,Rock,Soul,Swing,Traditional,age,artist_name,correct,correctResponse,distraction,duration,education,ended_on,familiarity,gender,headphone_check_performance,item,list,music_frequency,offensiveness,pleasantness,position_correct,preference,response,response_action,snippet_file,song_name,song_rating,sound,stimulus_1,stimulus_2,stimulus_3,text,time_commit,time_end,time_render,time_run,time_show,time_switch,url,word,word_ID
Introduction,html.Screen,0_0,2021-04-25T21:39:48.007Z,"{""labjs_version"":""20.2.2"",""labjs_build"":{""flavor"":""production"",""commit"":""a25486e0c714a0ae2ce03ff94b7bb6896854dcfa""},""location"":""https://run.pavlovia.org/mvasilev/music_c/"",""userAgent"":""Mozilla/5.0 (Windows NT 10.0; Win64; x64) AppleWebKit/537.36 (KHTML, like Gecko) Chrome/89.0.4389.128 Safari/537.36"",""platform"":""Win32"",""language"":""en-GB"",""locale"":""en-GB"",""timeZone"":""Europe/London"",""timezoneOffset"":-60,""screen_width"":1536,""screen_height"":864,""scroll_width"":1536,""scroll_height"":674,""window_innerWidth"":1536,""window_innerHeight"":722,""devicePixelRatio"":1.25}",,,,,,,,,,,,,,,,,,,,,,,,,,,,,11775.351000009685,,response,,,,,,,,,,,continue,click button,,,,,,,,,21617.679999908432,21615.400000009686,9807.73,9813.079999992624,9840.049,21621.467,{},,
Volume calibration,html.Screen,0_1,2021-04-25T21:41:03.847Z,,,,,,,,,,,,,,,,,,,,,,,,,,,,,,75823.72299988213,,response,,,,,,,,,,,continue,click button,,,,,,,,,97449.84999997541,97445.18999988213,21605.086,21618.13999991864,21621.467,97459.344,,,
Task instructions,html.Screen,0_2,2021-04-25T21:41:31.558Z,,,,,,,,,,,,,,,,,,,,,,,,,,,,,,27706.40599992736,,response,,,,,,,,,,,continue,click button,,,,,,,,,125167.33999992721,125165.74999992736,97443.012,97450.14999993145,97459.344,125171.555,,,
Sounds,html.Screen,0_3_0_0,2021-04-25T21:41:35.799Z,,,,,,,,,,,,,,,,,,,,,,,,,,,,,,4249.314000000013,,timeout,,,,,,,,,2,,,,,,,,O,S,I,,129408.23499998078,129404.6,125155.376,125167.72999987006,125171.555,129420.869,,,
Judgement,html.Screen,0_3_0_1,2021-04-25T21:41:38.881Z,,,,,,,,,,,,,,,,,,,,,,,,,,,true,2,,3067.5109999952256,,response,,,,,,,,,2,,2,click #choice-2,,,,,O,S,I,,132489.91000000387,132488.37999999523,129404.6,129408.489999827,129420.869,132503.729,,,
Trial,flow.Sequence,0_3_0,2021-04-25T21:41:38.881Z,,,,,,,,,,,,,,,,,,,,,,,,,,,,,,7316.824999995239,,completion,,,,,,,,,2,,,,,,,,O,S,I,,132490.615000017,132488.37999999523,125155.376,125167.65499999747,125171.555,132503.729,,,
Sounds,html.Screen,0_3_1_0,2021-04-25T21:41:43.128Z,,,,,,,,,,,,,,,,,,,,,,,,,,,,,,4249.38400000002,,timeout,,,,,,,,,1,,,,,,,,S,O,I,,136737.65499982983,136736.643,132487.468,132490.8699998632,132503.729,136753.113,,,
Judgement,html.Screen,0_3_1_1,2021-04-25T21:41:44.061Z,,,,,,,,,,,,,,,,,,,,,,,,,,,true,1,,915.9969999006717,,response,,,,,,,,,1,,1,click #choice-1,,,,,S,O,I,,137670.55999999866,137669.10999990068,136736.643,136738.03499992937,136753.113,137687.238,,,
Trial,flow.Sequence,0_3_1,2021-04-25T21:41:44.062Z,,,,,,,,,,,,,,,,,,,,,,,,,,,,,,5165.380999900692,,completion,,,,,,,,,1,,,,,,,,S,O,I,,137670.9349998273,137669.10999990068,132487.468,132490.80499983393,132503.729,137687.238,,,
Sounds,html.Screen,0_3_2_0,2021-04-25T21:41:48.311Z,,,,,,,,,,,,,,,,,,,,,,,,,,,,,,4248.695999999996,,timeout,,,,,,,,,1,,,,,,,,S,I,O,,141920.53999984637,141919.321,137669.968,137671.15999991074,137687.238,141935.934,,,
Judgement,html.Screen,0_3_2_1,2021-04-25T21:41:49.282Z,,,,,,,,,,,,,,,,,,,,,,,,,,,true,1,,954.1859998799628,,response,,,,,,,,,1,,1,click #choice-1,,,,,S,I,O,,142891.5899998974,142890.11999987997,141919.321,141920.7349999342,141935.934,142902.334,,,
Trial,flow.Sequence,0_3_2,2021-04-25T21:41:49.283Z,,,,,,,,,,,,,,,,,,,,,,,,,,,,,,5202.881999879959,,completion,,,,,,,,,1,,,,,,,,S,I,O,,142891.88499981537,142890.11999987997,137669.968,137671.09499988146,137687.238,142902.334,,,
Sounds,html.Screen,0_3_3_0,2021-04-25T21:41:53.528Z,,,,,,,,,,,,,,,,,,,,,,,,,,,,,,4249.122000000003,,timeout,,,,,,,,,3,,,,,,,,I,O,S,,147136.87999988906,147135.206,142885.759,142892.07499986514,142902.334,147151.456,,,
Judgement,html.Screen,0_3_3_1,2021-04-25T21:41:54.571Z,,,,,,,,,,,,,,,,,,,,,,,,,,,true,3,,1027.7539999729488,,response,,,,,,,,,3,,3,click #choice-3,,,,,I,O,S,,148180.7499998249,148179.20999997295,147135.206,147137.14000000618,147151.456,148184.554,,,
Trial,flow.Sequence,0_3_3,2021-04-25T21:41:54.572Z,,,,,,,,,,,,,,,,,,,,,,,,,,,,,,5276.875999972952,,completion,,,,,,,,,3,,,,,,,,I,O,S,,148181.06999993324,148179.20999997295,142885.759,142892.00999983586,142902.334,148184.554,,,
Sounds,html.Screen,0_3_4_0,2021-04-25T21:41:58.809Z,,,,,,,,,,,,,,,,,,,,,,,,,,,,,,4249.630000000005,,timeout,,,,,,,,,3,,,,,,,,O,I,S,,152418.46999991685,152417.548,148168.292,148181.25499994494,148184.554,152434.184,,,
Judgement,html.Screen,0_3_4_1,2021-04-25T21:41:59.622Z,,,,,,,,,,,,,,,,,,,,,,,,,,,true,3,,795.4609998393571,,response,,,,,,,,,3,,3,click #choice-3,,,,,O,I,S,,153231.2999998685,153229.64499983937,152417.548,152418.6950000003,152434.184,153233.785,,,
Trial,flow.Sequence,0_3_4,2021-04-25T21:41:59.622Z,,,,,,,,,,,,,,,,,,,,,,,,,,,,,,5045.090999839362,,completion,,,,,,,,,3,,,,,,,,O,I,S,,153231.7599998787,153229.64499983937,148168.292,148181.20500002988,148184.554,153233.785,,,
Sounds,html.Screen,0_3_5_0,2021-04-25T21:42:03.858Z,,,,,,,,,,,,,,,,,,,,,,,,,,,,,,4249.313999999984,,timeout,,,,,,,,,2,,,,,,,,I,S,O,,157467.69499988295,157466.81,153217.488,153231.93499981426,153233.785,157483.099,,,
Judgement,html.Screen,0_3_5_1,2021-04-25T21:42:04.572Z,,,,,,,,,,,,,,,,,,,,,,,,,,,true,2,,696.4659998821444,,response,,,,,,,,,2,,2,click #choice-2,,,,,I,S,O,,158181.11500004306,158179.56499988213,157466.81,157467.96999988146,157483.099,158182.943,,,
Trial,flow.Sequence,0_3_5,2021-04-25T21:42:04.572Z,,,,,,,,,,,,,,,,,,,,,,,,,,,,,,4945.779999882128,,completion,,,,,,,,,2,,,,,,,,I,S,O,,158181.40999996103,158179.56499988213,153217.488,153231.8849998992,153233.785,158182.943,,,
Task,flow.Loop,0_3,2021-04-25T21:42:04.579Z,,,,,,,,,,,,,,,,,,,,,,,,,,,,,,33008.00999988214,,completion,,,1,,,,,,,,,,,,,,,,,,158187.93499981984,158179.56499988213,125155.376,125167.58499993011,125171.555,158182.943,,,
Trap,html.Screen,0_4,2021-04-25T21:42:04.582Z,,,,,,,,,,,,,,,,,,,,,,,,,,,,,,NaN,,skipped,,,,,,,,,,,,,,,,,,,,,158191.7099999264,158179.56499988213,,158191.4500000421,,158182.943,,,
Thanks,html.Screen,0_5,2021-04-25T21:42:14.292Z,,,,,,,,,,,,,,,,,,,,,,,,,,,,,,9716.89199981463,,response,,,,,,,,,,,continue,click button,,,,,,,,,167901.24999987893,167899.83499981463,158166.759,158191.92999997176,158182.943,173263.865,,,
Headphone screening,flow.Sequence,0,2021-04-25T21:42:14.292Z,,,,,,,,,,,,,,,,,,,,,,,,,,,,,,158059.78599981463,,completion,,,,,,,,,,,,,,,,,,,,,167901.54999983497,167899.83499981463,9807.73,9813.059999840334,9840.049,173263.865,,,
Instructions,html.Page,1_0,2021-04-25T21:43:03.934Z,,,,,,,,,,,,,,,,,,,,,,,,,,,,,,44273.264999836916,,form submission,,,,,,,,,,,,,,,,,,,,,217537.5299998559,217537.1299998369,173247.202,173261.99000002816,173263.865,217540.195,,,
Holding screen,html.Screen,1_1_0_0,2021-04-25T21:43:13.919Z,,,,,,,,,,,,,,,,,,,,,,,,,,,,,,10014.951000000001,,timeout,,,,,,,,,,,,,,,,,,,,,227523.01999996416,227522.133,217523.93,217537.83499985002,217540.195,227555.146,,,
screen,html.Screen,1_1_0_1_0,2021-04-25T21:43:14.743Z,,,,,,,,,,,,,,,,53,,,,,,,,,,,,,,787.543999844871,,response,,,,99,,,,,,,Space,keypress(Space),,,,,,,,When -- ----- -- ------ - ------- --- ----------<br>------------- ------ ------ ---- ---- ------- ----- -- ----<br>-------- ------- -- ---------- --- - --- ----- ----- ----<br>---- --- --- ----- --- ---- ---- ------- ----- ---- -------<br>--- --- -- ----- -- --- ---- -- --- ---- -- ------ ------<br>--- ----- -- ----,228346.9449998811,228342.68999984488,227522.133,227523.32999999635,227555.146,228355.18,,0,When
screen,html.Screen,1_1_0_1_1,2021-04-25T21:43:15.287Z,,,,,,,,,,,,,,,,53,,,,,,,,,,,,,,533.804999852262,,response,,,,99,,,,,,,Space,keypress(Space),,,,,,,,---- it ----- -- ------ - ------- --- ----------<br>------------- ------ ------ ---- ---- ------- ----- -- ----<br>-------- ------- -- ---------- --- - --- ----- ----- ----<br>---- --- --- ----- --- ---- ---- ------- ----- ---- -------<br>--- --- -- ----- -- --- ---- -- --- ---- -- ------ ------<br>--- ----- -- ----,228890.2849999722,228888.98499985225,228338.798,228347.1750000026,228355.18,228905.047,,1,it
screen,html.Screen,1_1_0_1_2,2021-04-25T21:43:15.834Z,,,,,,,,,,,,,,,,53,,,,,,,,,,,,,,530.9379998727527,,response,,,,99,,,,,,,Space,keypress(Space),,,,,,,,---- -- comes -- ------ - ------- --- ----------<br>------------- ------ ------ ---- ---- ------- ----- -- ----<br>-------- ------- -- ---------- --- - --- ----- ----- ----<br>---- --- --- ----- --- ---- ---- ------- ----- ---- -------<br>--- --- -- ----- -- --- ---- -- --- ---- -- ------ ------<br>--- ----- -- ----,229437.13500001468,229435.98499987274,228888.749,228890.57999989018,228905.047,229455.798,,2,comes
screen,html.Screen,1_1_0_1_3,2021-04-25T21:43:16.335Z,,,,,,,,,,,,,,,,53,,,,,,,,,,,,,,481.94700000289595,,response,,,,99,,,,,,,Space,keypress(Space),,,,,,,,---- -- ----- to ------ - ------- --- ----------<br>------------- ------ ------ ---- ---- ------- ----- -- ----<br>-------- ------- -- ---------- --- - --- ----- ----- ----<br>---- --- --- ----- --- ---- ---- ------- ----- ---- -------<br>--- --- -- ----- -- --- ---- -- --- ---- -- ------ ------<br>--- ----- -- ----,229938.94499982707,229937.7450000029,229421.896,229437.45499989018,229455.798,229955.203,,3,to
screen,html.Screen,1_1_0_1_4,2021-04-25T21:43:16.902Z,,,,,,,,,,,,,,,,53,,,,,,,,,,,,,,549.0419999600563,,response,,,,99,,,,,,,Space,keypress(Space),,,,,,,,---- -- ----- -- having - ------- --- ----------<br>------------- ------ ------ ---- ---- ------- ----- -- ----<br>-------- ------- -- ---------- --- - --- ----- ----- ----<br>---- --- --- ----- --- ---- ---- ------- ----- ---- -------<br>--- --- -- ----- -- --- ---- -- --- ---- -- ------ ------<br>--- ----- -- ----,230505.38500002585,230504.24499996006,229938.559,229939.31000004523,229955.203,230521.679,,4,having
screen,html.Screen,1_1_0_1_5,2021-04-25T21:43:17.339Z,,,,,,,,,,,,,,,,53,,,,,,,,,,,,,,419.99099985463545,,response,,,,99,,,,,,,Space,keypress(Space),,,,,,,,---- -- ----- -- ------ a ------- --- ----------<br>------------- ------ ------ ---- ---- ------- ----- -- ----<br>-------- ------- -- ---------- --- - --- ----- ----- ----<br>---- --- --- ----- --- ---- ---- ------- ----- ---- -------<br>--- --- -- ----- -- --- ---- -- --- ---- -- ------ ------<br>--- ----- -- ----,230942.61999987066,230941.66999985464,230505.045,230505.70999993943,230521.679,230955.556,,5,a
screen,html.Screen,1_1_0_1_6,2021-04-25T21:43:17.937Z,,,,,,,,,,,,,,,,53,,,,,,,,,,,,,,583.8839999640768,,response,,,,99,,,,,,,Space,keypress(Space),,,,,,,,---- -- ----- -- ------ - lasting --- ----------<br>------------- ------ ------ ---- ---- ------- ----- -- ----<br>-------- ------- -- ---------- --- - --- ----- ----- ----<br>---- --- --- ----- --- ---- ---- ------- ----- ---- -------<br>--- --- -- ----- -- --- ---- -- --- ---- -- ------ ------<br>--- ----- -- ----,231540.47999996692,231539.4399999641,230938.274,230942.88500002585,230955.556,231554.863,,6,lasting
screen,html.Screen,1_1_0_1_7,2021-04-25T21:43:18.448Z,,,,,,,,,,,,,,,,53,,,,,,,,,,,,,,495.26699987228494,,response,,,,99,,,,,,,Space,keypress(Space),,,,,,,,---- -- ----- -- ------ - ------- and ----------<br>------------- ------ ------ ---- ---- ------- ----- -- ----<br>-------- ------- -- ---------- --- - --- ----- ----- ----<br>---- --- --- ----- --- ---- ---- ------- ----- ---- -------<br>--- --- -- ----- -- --- ---- -- --- ---- -- ------ ------<br>--- ----- -- ----,232051.3599999249,232050.1299998723,231538.225,231540.8049998805,231554.863,232054.441,,7,and
screen,html.Screen,1_1_0_1_8,2021-04-25T21:43:19.116Z,,,,,,,,,,,,,,,,53,,,,,,,,,,,,,,664.3639999531442,,response,,,,99,,,,,,,Space,keypress(Space),,,,,,,,---- -- ----- -- ------ - ------- --- fulfilling<br>------------- ------ ------ ---- ---- ------- ----- -- ----<br>-------- ------- -- ---------- --- - --- ----- ----- ----<br>---- --- --- ----- --- ---- ---- ------- ----- ---- -------<br>--- --- -- ----- -- --- ---- -- --- ---- -- ------ ------<br>--- ----- -- ----,232720.0549999252,232718.80499995314,232038.066,232051.63999996148,232054.441,232737.979,,8,fulfilling
screen,html.Screen,1_1_0_1_9,2021-04-25T21:43:19.675Z,,,,,,,,,,,,,,,,53,,,,,,,,,,,,,,539.5159998129238,,response,,,,99,,,,,,,Space,keypress(Space),,,,,,,,"---- -- ----- -- ------ - ------- --- ----------<br>relationship, ------ ------ ---- ---- ------- ----- -- ----<br>-------- ------- -- ---------- --- - --- ----- ----- ----<br>---- --- --- ----- --- ---- ---- ------- ----- ---- -------<br>--- --- -- ----- -- --- ---- -- --- ---- -- ------ ------<br>--- ----- -- ----",233278.72499986552,233277.49499981292,232704.811,232720.37500003353,232737.979,233287.921,,9,"relationship,"
screen,html.Screen,1_1_0_1_10,2021-04-25T21:43:20.241Z,,,,,,,,,,,,,,,,53,,,,,,,,,,,,,,555.7639999707171,,response,,,,99,,,,,,,Space,keypress(Space),,,,,,,,---- -- ----- -- ------ - ------- --- ----------<br>------------- common ------ ---- ---- ------- ----- -- ----<br>-------- ------- -- ---------- --- - --- ----- ----- ----<br>---- --- --- ----- --- ---- ---- ------- ----- ---- -------<br>--- --- -- ----- -- --- ---- -- --- ---- -- ------ ------<br>--- ----- -- ----,233844.8550000321,233843.68499997072,233271.979,233279.05000001192,233287.921,233854.473,,10,common
screen,html.Screen,1_1_0_1_11,2021-04-25T21:43:20.772Z,,,,,,,,,,,,,,,,53,,,,,,,,,,,,,,520.201999853598,,response,,,,99,,,,,,,Space,keypress(Space),,,,,,,,---- -- ----- -- ------ - ------- --- ----------<br>------------- ------ wisdom ---- ---- ------- ----- -- ----<br>-------- ------- -- ---------- --- - --- ----- ----- ----<br>---- --- --- ----- --- ---- ---- ------- ----- ---- -------<br>--- --- -- ----- -- --- ---- -- --- ---- -- ------ ------<br>--- ----- -- ----,234375.91499998234,234374.6749998536,233837.883,233845.18499998376,233854.473,234387.795,,11,wisdom
screen,html.Screen,1_1_0_1_12,2021-04-25T21:43:21.293Z,,,,,,,,,,,,,,,,53,,,,,,,,,,,,,,507.01499996884377,,response,,,,99,,,,,,,Space,keypress(Space),,,,,,,,---- -- ----- -- ------ - ------- --- ----------<br>------------- ------ ------ says ---- ------- ----- -- ----<br>-------- ------- -- ---------- --- - --- ----- ----- ----<br>---- --- --- ----- --- ---- ---- ------- ----- ---- -------<br>--- --- -- ----- -- --- ---- -- --- ---- -- ------ ------<br>--- ----- -- ----,234896.14499988966,234894.80999996886,234371.099,234376.21999997646,234387.795,234904.058,,12,says
screen,html.Screen,1_1_0_1_13,2021-04-25T21:43:21.952Z,,,,,,,,,,,,,,,,53,,,,,,,,,,,,,,650.4620000051509,,response,,,,99,,,,,,,Space,keypress(Space),,,,,,,,---- -- ----- -- ------ - ------- --- ----------<br>------------- ------ ------ ---- that ------- ----- -- ----<br>-------- ------- -- ---------- --- - --- ----- ----- ----<br>---- --- --- ----- --- ---- ---- ------- ----- ---- -------<br>--- --- -- ----- -- --- ---- -- --- ---- -- ------ ------<br>--- ----- -- ----,235555.68500002846,235554.52000000514,234887.703,234896.48999995552,234904.058,235570.579,,13,that
screen,html.Screen,1_1_0_1_14,2021-04-25T21:43:22.480Z,,,,,,,,,,,,,,,,53,,,,,,,,,,,,,,511.9359999000153,,response,,,,99,,,,,,,Space,keypress(Space),,,,,,,,---- -- ----- -- ------ - ------- --- ----------<br>------------- ------ ------ ---- ---- feeling ----- -- ----<br>-------- ------- -- ---------- --- - --- ----- ----- ----<br>---- --- --- ----- --- ---- ---- ------- ----- ---- -------<br>--- --- -- ----- -- --- ---- -- --- ---- -- ------ ------<br>--- ----- -- ----,236083.86499993503,236082.5149999,235554.279,235556.00999994203,235570.579,236087.759,,14,feeling
screen,html.Screen,1_1_0_1_15,2021-04-25T21:43:23.027Z,,,,,,,,,,,,,,,,53,,,,,,,,,,,,,,541.3609999395849,,response,,,,99,,,,,,,Space,keypress(Space),,,,,,,,---- -- ----- -- ------ - ------- --- ----------<br>------------- ------ ------ ---- ---- ------- close -- ----<br>-------- ------- -- ---------- --- - --- ----- ----- ----<br>---- --- --- ----- --- ---- ---- ------- ----- ---- -------<br>--- --- -- ----- -- --- ---- -- --- ---- -- ------ ------<br>--- ----- -- ----,236630.26500004344,236629.11999993958,236070.839,236084.16999992914,236087.759,236637.162,,15,close
screen,html.Screen,1_1_0_1_16,2021-04-25T21:43:23.466Z,,,,,,,,,,,,,,,,53,,,,,,,,,,,,,,430.80799997458234,,response,,,,99,,,,,,,Space,keypress(Space),,,,,,,,---- -- ----- -- ------ - ------- --- ----------<br>------------- ------ ------ ---- ---- ------- ----- to ----<br>-------- ------- -- ---------- --- - --- ----- ----- ----<br>---- --- --- ----- --- ---- ---- ------- ----- ---- -------<br>--- --- -- ----- -- --- ---- -- --- ---- -- ------ ------<br>--- ----- -- ----,237069.1700000316,237067.9699999746,236620.794,236630.5749998428,236637.162,237092.502,,16,to
screen,html.Screen,1_1_0_1_17,2021-04-25T21:43:23.964Z,,,,,,,,,,,,,,,,53,,,,,,,,,,,,,,473.9329999278707,,response,,,,99,,,,,,,Space,keypress(Space),,,,,,,,---- -- ----- -- ------ - ------- --- ----------<br>------------- ------ ------ ---- ---- ------- ----- -- your<br>-------- ------- -- ---------- --- - --- ----- ----- ----<br>---- --- --- ----- --- ---- ---- ------- ----- ---- -------<br>--- --- -- ----- -- --- ---- -- --- ---- -- ------ ------<br>--- ----- -- ----,237567.62499990873,237566.43499992788,237054.055,237069.49999998324,237092.502,237570.243,,17,your
screen,html.Screen,1_1_0_1_18,2021-04-25T21:43:24.592Z,,,,,,,,,,,,,,,,53,,,,,,,,,,,,,,623.641999956948,,response,,,,99,,,,,,,Space,keypress(Space),,,,,,,,---- -- ----- -- ------ - ------- --- ----------<br>------------- ------ ------ ---- ---- ------- ----- -- ----<br>romantic ------- -- ---------- --- - --- ----- ----- ----<br>---- --- --- ----- --- ---- ---- ------- ----- ---- -------<br>--- --- -- ----- -- --- ---- -- --- ---- -- ------ ------<br>--- ----- -- ----,238195.1049999334,238193.88499995694,237554.61,237567.9199998267,237570.243,238203.744,,18,romantic
screen,html.Screen,1_1_0_1_19,2021-04-25T21:43:25.186Z,,,,,,,,,,,,,,,,53,,,,,,,,,,,,,,585.130999852845,,response,,,,99,,,,,,,Space,keypress(Space),,,,,,,,---- -- ----- -- ------ - ------- --- ----------<br>------------- ------ ------ ---- ---- ------- ----- -- ----<br>-------- partner -- ---------- --- - --- ----- ----- ----<br>---- --- --- ----- --- ---- ---- ------- ----- ---- -------<br>--- --- -- ----- -- --- ---- -- --- ---- -- ------ ------<br>--- ----- -- ----,238790.06000002846,238788.87499985285,238187.32,238195.44999999925,238203.744,238803.75,,19,partner
screen,html.Screen,1_1_0_1_20,2021-04-25T21:43:25.620Z,,,,,,,,,,,,,,,,53,,,,,,,,,,,,,,419.0599999483675,,response,,,,99,,,,,,,Space,keypress(Space),,,,,,,,---- -- ----- -- ------ - ------- --- ----------<br>------------- ------ ------ ---- ---- ------- ----- -- ----<br>-------- ------- is ---------- --- - --- ----- ----- ----<br>---- --- --- ----- --- ---- ---- ------- ----- ---- -------<br>--- --- -- ----- -- --- ---- -- --- ---- -- ------ ------<br>--- ----- -- ----,239223.86000002734,239222.80999994837,238787.068,238790.39500001818,238803.75,239237.041,,20,is
screen,html.Screen,1_1_0_1_21,2021-04-25T21:43:26.485Z,,,,,,,,,,,,,,,,53,,,,,,,,,,,,,,850.629000037181,,response,,,,99,,,,,,,Space,keypress(Space),,,,,,,,---- -- ----- -- ------ - ------- --- ----------<br>------------- ------ ------ ---- ---- ------- ----- -- ----<br>-------- ------- -- paramount. --- - --- ----- ----- ----<br>---- --- --- ----- --- ---- ---- ------- ----- ---- -------<br>--- --- -- ----- -- --- ---- -- --- ---- -- ------ ------<br>--- ----- -- ----,240088.91499997117,240087.67000003718,239220.048,239224.05499988236,239237.041,240103.158,,21,paramount.
screen,html.Screen,1_1_0_1_22,2021-04-25T21:43:27.004Z,,,,,,,,,,,,,,,,53,,,,,,,,,,,,,,502.8969998655957,,response,,,,99,,,,,,,Space,keypress(Space),,,,,,,,---- -- ----- -- ------ - ------- --- ----------<br>------------- ------ ------ ---- ---- ------- ----- -- ----<br>-------- ------- -- ---------- But - --- ----- ----- ----<br>---- --- --- ----- --- ---- ---- ------- ----- ---- -------<br>--- --- -- ----- -- --- ---- -- --- ---- -- ------ ------<br>--- ----- -- ----,240607.2199998889,240606.0549998656,240086.868,240089.25499999896,240103.158,240620.013,,22,But
screen,html.Screen,1_1_0_1_23,2021-04-25T21:43:27.668Z,,,,,,,,,,,,,,,,53,,,,,,,,,,,,,,650.5370000156399,,response,,,,99,,,,,,,Space,keypress(Space),,,,,,,,---- -- ----- -- ------ - ------- --- ----------<br>------------- ------ ------ ---- ---- ------- ----- -- ----<br>-------- ------- -- ---------- --- a --- ----- ----- ----<br>---- --- --- ----- --- ---- ---- ------- ----- ---- -------<br>--- --- -- ----- -- --- ---- -- --- ---- -- ------ ------<br>--- ----- -- ----,241271.69499988668,241270.55000001565,240603.137,240607.51999984495,240620.013,241286.295,,23,a
screen,html.Screen,1_1_0_1_24,2021-04-25T21:43:28.091Z,,,,,,,,,,,,,,,,53,,,,,,,,,,,,,,406.87999990573735,,response,,,,99,,,,,,,Space,keypress(Space),,,,,,,,---- -- ----- -- ------ - ------- --- ----------<br>------------- ------ ------ ---- ---- ------- ----- -- ----<br>-------- ------- -- ---------- --- - new ----- ----- ----<br>---- --- --- ----- --- ---- ---- ------- ----- ---- -------<br>--- --- -- ----- -- --- ---- -- --- ---- -- ------ ------<br>--- ----- -- ----,241694.32499981485,241693.17499990575,241269.981,241271.91499993205,241286.295,241703.303,,24,new
screen,html.Screen,1_1_0_1_25,2021-04-25T21:43:28.863Z,,,,,,,,,,,,,,,,53,,,,,,,,,,,,,,761.7669999183272,,response,,,,99,,,,,,,Space,keypress(Space),,,,,,,,---- -- ----- -- ------ - ------- --- ----------<br>------------- ------ ------ ---- ---- ------- ----- -- ----<br>-------- ------- -- ---------- --- - --- study ----- ----<br>---- --- --- ----- --- ---- ---- ------- ----- ---- -------<br>--- --- -- ----- -- --- ---- -- --- ---- -- ------ ------<br>--- ----- -- ----,242466.26499993727,242465.06999991834,241686.561,241694.64499992318,241703.303,242469.49,,25,study
screen,html.Screen,1_1_0_1_26,2021-04-25T21:43:29.317Z,,,,,,,,,,,,,,,,53,,,,,,,,,,,,,,449.4449999651406,,response,,,,99,,,,,,,Space,keypress(Space),,,,,,,,---- -- ----- -- ------ - ------- --- ----------<br>------------- ------ ------ ---- ---- ------- ----- -- ----<br>-------- ------- -- ---------- --- - --- ----- finds ----<br>---- --- --- ----- --- ---- ---- ------- ----- ---- -------<br>--- --- -- ----- -- --- ---- -- --- ---- -- ------ ------<br>--- ----- -- ----,242920.17999989912,242918.93499996513,242453.112,242466.59999992698,242469.49,242936.433,,26,finds
screen,html.Screen,1_1_0_1_27,2021-04-25T21:43:29.750Z,,,,,,,,,,,,,,,,53,,,,,,,,,,,,,,415.5669999553065,,response,,,,99,,,,,,,Space,keypress(Space),,,,,,,,---- -- ----- -- ------ - ------- --- ----------<br>------------- ------ ------ ---- ---- ------- ----- -- ----<br>-------- ------- -- ---------- --- - --- ----- ----- that<br>---- --- --- ----- --- ---- ---- ------- ----- ---- -------<br>--- --- -- ----- -- --- ---- -- --- ---- -- ------ ------<br>--- ----- -- ----,243353.20499981754,243351.9999999553,242919.892,242920.50500004552,242936.433,243369.625,,27,that
screen,html.Screen,1_1_0_1_28,2021-04-25T21:43:30.343Z,,,,,,,,,,,,,,,,53,,,,,,,,,,,,,,576.1699998322874,,response,,,,99,,,,,,,Space,keypress(Space),,,,,,,,---- -- ----- -- ------ - ------- --- ----------<br>------------- ------ ------ ---- ---- ------- ----- -- ----<br>-------- ------- -- ---------- --- - --- ----- ----- ----<br>it's --- --- ----- --- ---- ---- ------- ----- ---- -------<br>--- --- -- ----- -- --- ---- -- --- ---- -- ------ ------<br>--- ----- -- ----,243946.93999993615,243945.7949998323,243352.956,243353.5199998878,243369.625,243952.555,,28,it's
screen,html.Screen,1_1_0_1_29,2021-04-25T21:43:30.881Z,,,,,,,,,,,,,,,,53,,,,,,,,,,,,,,531.0449999195407,,response,,,,99,,,,,,,Space,keypress(Space),,,,,,,,---- -- ----- -- ------ - ------- --- ----------<br>------------- ------ ------ ---- ---- ------- ----- -- ----<br>-------- ------- -- ---------- --- - --- ----- ----- ----<br>---- not --- ----- --- ---- ---- ------- ----- ---- -------<br>--- --- -- ----- -- --- ---- -- --- ---- -- ------ ------<br>--- ----- -- ----,244484.75999990478,244483.59999991953,243936.059,243947.23499985412,243952.555,244502.849,,29,not
screen,html.Screen,1_1_0_1_30,2021-04-25T21:43:31.287Z,,,,,,,,,,,,,,,,53,,,,,,,,,,,,,,386.67600000597304,,response,,,,99,,,,,,,Space,keypress(Space),,,,,,,,---- -- ----- -- ------ - ------- --- ----------<br>------------- ------ ------ ---- ---- ------- ----- -- ----<br>-------- ------- -- ---------- --- - --- ----- ----- ----<br>---- --- how ----- --- ---- ---- ------- ----- ---- -------<br>--- --- -- ----- -- --- ---- -- --- ---- -- ------ ------<br>--- ----- -- ----,244890.7500000205,244889.52500000596,244469.571,244485.0200000219,244502.849,244902.37,,30,how
screen,html.Screen,1_1_0_1_31,2021-04-25T21:43:31.831Z,,,,,,,,,,,,,,,,53,,,,,,,,,,,,,,531.304999978398,,response,,,,99,,,,,,,Space,keypress(Space),,,,,,,,---- -- ----- -- ------ - ------- --- ----------<br>------------- ------ ------ ---- ---- ------- ----- -- ----<br>-------- ------- -- ---------- --- - --- ----- ----- ----<br>---- --- --- close --- ---- ---- ------- ----- ---- -------<br>--- --- -- ----- -- --- ---- -- --- ---- -- ------ ------<br>--- ----- -- ----,245435.02999981865,245433.6749999784,244886.219,244893.24499992654,244902.37,245453.155,,31,close
screen,html.Screen,1_1_0_1_32,2021-04-25T21:43:32.317Z,,,,,,,,,,,,,,,,53,,,,,,,,,,,,,,466.3149998479348,,response,,,,99,,,,,,,Space,keypress(Space),,,,,,,,---- -- ----- -- ------ - ------- --- ----------<br>------------- ------ ------ ---- ---- ------- ----- -- ----<br>-------- ------- -- ---------- --- - --- ----- ----- ----<br>---- --- --- ----- you ---- ---- ------- ----- ---- -------<br>--- --- -- ----- -- --- ---- -- --- ---- -- ------ ------<br>--- ----- -- ----,245920.66999990493,245919.46999984793,245435.995,245435.30499981716,245453.155,245935.632,,32,you
screen,html.Screen,1_1_0_1_33,2021-04-25T21:43:32.770Z,,,,,,,,,,,,,,,,53,,,,,,,,,,,,,,437.22299996504444,,response,,,,99,,,,,,,Space,keypress(Space),,,,,,,,---- -- ----- -- ------ - ------- --- ----------<br>------------- ------ ------ ---- ---- ------- ----- -- ----<br>-------- ------- -- ---------- --- - --- ----- ----- ----<br>---- --- --- ----- --- feel ---- ------- ----- ---- -------<br>--- --- -- ----- -- --- ---- -- --- ---- -- ------ ------<br>--- ----- -- ----,246373.93999984488,246372.85499996506,245919.235,245920.9499999415,245935.632,246385.56,,33,feel
screen,html.Screen,1_1_0_1_34,2021-04-25T21:43:33.317Z,,,,,,,,,,,,,,,,53,,,,,,,,,,,,,,533.95999999583,,response,,,,99,,,,,,,Space,keypress(Space),,,,,,,,---- -- ----- -- ------ - ------- --- ----------<br>------------- ------ ------ ---- ---- ------- ----- -- ----<br>-------- ------- -- ---------- --- - --- ----- ----- ----<br>---- --- --- ----- --- ---- that ------- ----- ---- -------<br>--- --- -- ----- -- --- ---- -- --- ---- -- ------ ------<br>--- ----- -- ----,246920.78999988735,246919.51999999583,246369.157,246374.21999988146,246385.56,246935.474,,34,that
screen,html.Screen,1_1_0_1_35,2021-04-25T21:43:33.781Z,,,,,,,,,,,,,,,,53,,,,,,,,,,,,,,446.76099991000956,,response,,,,99,,,,,,,Space,keypress(Space),,,,,,,,---- -- ----- -- ------ - ------- --- ----------<br>------------- ------ ------ ---- ---- ------- ----- -- ----<br>-------- ------- -- ---------- --- - --- ----- ----- ----<br>---- --- --- ----- --- ---- ---- matters ----- ---- -------<br>--- --- -- ----- -- --- ---- -- --- ---- -- ------ ------<br>--- ----- -- ----,247385.04999992438,247382.23499991,246919.028,246921.12999991514,246935.474,247402.282,,35,matters
screen,html.Screen,1_1_0_1_36,2021-04-25T21:43:34.275Z,,,,,,,,,,,,,,,,53,,,,,,,,,,,,,,474.6229998372728,,response,,,,99,,,,,,,Space,keypress(Space),,,,,,,,"---- -- ----- -- ------ - ------- --- ----------<br>------------- ------ ------ ---- ---- ------- ----- -- ----<br>-------- ------- -- ---------- --- - --- ----- ----- ----<br>---- --- --- ----- --- ---- ---- ------- most, ---- -------<br>--- --- -- ----- -- --- ---- -- --- ---- -- ------ ------<br>--- ----- -- ----",247878.1200000085,247876.90499983728,247385.653,247385.3849999141,247402.282,247885.391,,36,"most,"
screen,html.Screen,1_1_0_1_37,2021-04-25T21:43:34.790Z,,,,,,,,,,,,,,,,53,,,,,,,,,,,,,,506.7089998226729,,response,,,,99,,,,,,,Space,keypress(Space),,,,,,,,---- -- ----- -- ------ - ------- --- ----------<br>------------- ------ ------ ---- ---- ------- ----- -- ----<br>-------- ------- -- ---------- --- - --- ----- ----- ----<br>---- --- --- ----- --- ---- ---- ------- ----- it's -------<br>--- --- -- ----- -- --- ---- -- --- ---- -- ------ ------<br>--- ----- -- ----,248393.4349999763,248392.09999982268,247868.911,247878.3650000114,247885.391,248402.152,,37,it's
screen,html.Screen,1_1_0_1_38,2021-04-25T21:43:35.329Z,,,,,,,,,,,,,,,,53,,,,,,,,,,,,,,529.622999946354,,response,,,,99,,,,,,,Space,keypress(Space),,,,,,,,---- -- ----- -- ------ - ------- --- ----------<br>------------- ------ ------ ---- ---- ------- ----- -- ----<br>-------- ------- -- ---------- --- - --- ----- ----- ----<br>---- --- --- ----- --- ---- ---- ------- ----- ---- whether<br>--- --- -- ----- -- --- ---- -- --- ---- -- ------ ------<br>--- ----- -- ----,248933.01499984227,248931.77499994636,248385.675,248393.70999997482,248402.152,248935.12,,38,whether
screen,html.Screen,1_1_0_1_39,2021-04-25T21:43:35.838Z,,,,,,,,,,,,,,,,53,,,,,,,,,,,,,,505.09499995142687,,response,,,,99,,,,,,,Space,keypress(Space),,,,,,,,---- -- ----- -- ------ - ------- --- ----------<br>------------- ------ ------ ---- ---- ------- ----- -- ----<br>-------- ------- -- ---------- --- - --- ----- ----- ----<br>---- --- --- ----- --- ---- ---- ------- ----- ---- -------<br>you --- -- ----- -- --- ---- -- --- ---- -- ------ ------<br>--- ----- -- ----,249441.34499994107,249440.21499995142,248918.762,248933.31999983639,248935.12,249452.055,,39,you
screen,html.Screen,1_1_0_1_40,2021-04-25T21:43:36.276Z,,,,,,,,,,,,,,,,53,,,,,,,,,,,,,,425.7949998152326,,response,,,,99,,,,,,,Space,keypress(Space),,,,,,,,---- -- ----- -- ------ - ------- --- ----------<br>------------- ------ ------ ---- ---- ------- ----- -- ----<br>-------- ------- -- ---------- --- - --- ----- ----- ----<br>---- --- --- ----- --- ---- ---- ------- ----- ---- -------<br>--- are -- ----- -- --- ---- -- --- ---- -- ------ ------<br>--- ----- -- ----,249879.10499982536,249877.84999981523,249435.45,249441.59499998204,249452.055,249884.91,,40,are
screen,html.Screen,1_1_0_1_41,2021-04-25T21:43:36.736Z,,,,,,,,,,,,,,,,53,,,,,,,,,,,,,,453.87999995067366,,response,,,,99,,,,,,,Space,keypress(Space),,,,,,,,---- -- ----- -- ------ - ------- --- ----------<br>------------- ------ ------ ---- ---- ------- ----- -- ----<br>-------- ------- -- ---------- --- - --- ----- ----- ----<br>---- --- --- ----- --- ---- ---- ------- ----- ---- -------<br>--- --- as ----- -- --- ---- -- --- ---- -- ------ ------<br>--- ----- -- ----,250339.999999851,250338.78999995068,249868.612,249879.40999981947,249884.91,250351.497,,41,as
screen,html.Screen,1_1_0_1_42,2021-04-25T21:43:37.219Z,,,,,,,,,,,,,,,,53,,,,,,,,,,,,,,469.44300000506337,,response,,,,99,,,,,,,Space,keypress(Space),,,,,,,,---- -- ----- -- ------ - ------- --- ----------<br>------------- ------ ------ ---- ---- ------- ----- -- ----<br>-------- ------- -- ---------- --- - --- ----- ----- ----<br>---- --- --- ----- --- ---- ---- ------- ----- ---- -------<br>--- --- -- close -- --- ---- -- --- ---- -- ------ ------<br>--- ----- -- ----,250822.13999982923,250820.94000000507,250335.368,250342.81499986537,250351.497,250835.126,,42,close
screen,html.Screen,1_1_0_1_43,2021-04-25T21:43:37.574Z,,,,,,,,,,,,,,,,53,,,,,,,,,,,,,,341.2440000010538,,response,,,,99,,,,,,,Space,keypress(Space),,,,,,,,---- -- ----- -- ------ - ------- --- ----------<br>------------- ------ ------ ---- ---- ------- ----- -- ----<br>-------- ------- -- ---------- --- - --- ----- ----- ----<br>---- --- --- ----- --- ---- ---- ------- ----- ---- -------<br>--- --- -- ----- as --- ---- -- --- ---- -- ------ ------<br>--- ----- -- ----,251177.4349999614,251176.37000000104,250818.444,250822.39999994636,250835.126,251184.702,,43,as
screen,html.Screen,1_1_0_1_44,2021-04-25T21:43:37.959Z,,,,,,,,,,,,,,,,53,,,,,,,,,,,,,,376.3179999064305,,response,,,,99,,,,,,,Space,keypress(Space),,,,,,,,---- -- ----- -- ------ - ------- --- ----------<br>------------- ------ ------ ---- ---- ------- ----- -- ----<br>-------- ------- -- ---------- --- - --- ----- ----- ----<br>---- --- --- ----- --- ---- ---- ------- ----- ---- -------<br>--- --- -- ----- -- you ---- -- --- ---- -- ------ ------<br>--- ----- -- ----,251562.15499993414,251561.01999990642,251168.378,251177.67499992624,251184.702,251568.132,,44,you
screen,html.Screen,1_1_0_1_45,2021-04-25T21:43:38.374Z,,,,,,,,,,,,,,,,53,,,,,,,,,,,,,,408.5430000417109,,response,,,,99,,,,,,,Space,keypress(Space),,,,,,,,---- -- ----- -- ------ - ------- --- ----------<br>------------- ------ ------ ---- ---- ------- ----- -- ----<br>-------- ------- -- ---------- --- - --- ----- ----- ----<br>---- --- --- ----- --- ---- ---- ------- ----- ---- -------<br>--- --- -- ----- -- --- want -- --- ---- -- ------ ------<br>--- ----- -- ----,251977.87999990396,251976.67500004172,251551.618,251562.4100000132,251568.132,251984.71,,45,want
screen,html.Screen,1_1_0_1_46,2021-04-25T21:43:38.744Z,,,,,,,,,,,,,,,,53,,,,,,,,,,,,,,361.2049999544106,,response,,,,99,,,,,,,Space,keypress(Space),,,,,,,,---- -- ----- -- ------ - ------- --- ----------<br>------------- ------ ------ ---- ---- ------- ----- -- ----<br>-------- ------- -- ---------- --- - --- ----- ----- ----<br>---- --- --- ----- --- ---- ---- ------- ----- ---- -------<br>--- --- -- ----- -- --- ---- to --- ---- -- ------ ------<br>--- ----- -- ----,252347.10499993525,252345.9149999544,251968.353,251978.15999994054,251984.71,252351.248,,46,to
screen,html.Screen,1_1_0_1_47,2021-04-25T21:43:39.150Z,,,,,,,,,,,,,,,,53,,,,,,,,,,,,,,401.19199995292,,response,,,,99,,,,,,,Space,keypress(Space),,,,,,,,"---- -- ----- -- ------ - ------- --- ----------<br>------------- ------ ------ ---- ---- ------- ----- -- ----<br>-------- ------- -- ---------- --- - --- ----- ----- ----<br>---- --- --- ----- --- ---- ---- ------- ----- ---- -------<br>--- --- -- ----- -- --- ---- -- be, ---- -- ------ ------<br>--- ----- -- ----",252753.66499996744,252752.4399999529,252334.925,252347.37999993376,252351.248,252768.244,,47,"be,"
screen,html.Screen,1_1_0_1_48,2021-04-25T21:43:39.592Z,,,,,,,,,,,,,,,,53,,,,,,,,,,,,,,425.96599987050286,,response,,,,99,,,,,,,Space,keypress(Space),,,,,,,,---- -- ----- -- ------ - ------- --- ----------<br>------------- ------ ------ ---- ---- ------- ----- -- ----<br>-------- ------- -- ---------- --- - --- ----- ----- ----<br>---- --- --- ----- --- ---- ---- ------- ----- ---- -------<br>--- --- -- ----- -- --- ---- -- --- even -- ------ ------<br>--- ----- -- ----,253195.46499988064,253194.2099998705,252751.632,252753.91999981366,252768.244,253201.113,,48,even
screen,html.Screen,1_1_0_1_49,2021-04-25T21:43:40.011Z,,,,,,,,,,,,,,,,53,,,,,,,,,,,,,,412.2769998385338,,response,,,,99,,,,,,,Space,keypress(Space),,,,,,,,---- -- ----- -- ------ - ------- --- ----------<br>------------- ------ ------ ---- ---- ------- ----- -- ----<br>-------- ------- -- ---------- --- - --- ----- ----- ----<br>---- --- --- ----- --- ---- ---- ------- ----- ---- -------<br>--- --- -- ----- -- --- ---- -- --- ---- if ------ ------<br>--- ----- -- ----,253614.58499985747,253613.38999983855,253184.742,253195.81499998458,253201.113,253617.656,,49,if
screen,html.Screen,1_1_0_1_50,2021-04-25T21:43:40.411Z,,,,,,,,,,,,,,,,53,,,,,,,,,,,,,,395.92400002802606,,response,,,,99,,,,,,,Space,keypress(Space),,,,,,,,---- -- ----- -- ------ - ------- --- ----------<br>------------- ------ ------ ---- ---- ------- ----- -- ----<br>-------- ------- -- ---------- --- - --- ----- ----- ----<br>---- --- --- ----- --- ---- ---- ------- ----- ---- -------<br>--- --- -- ----- -- --- ---- -- --- ---- -- that's ------<br>--- ----- -- ----,254014.77999985218,254013.580000028,253601.115,253614.89999992773,253617.656,254017.623,,50,that's
screen,html.Screen,1_1_0_1_51,2021-04-25T21:43:40.894Z,,,,,,,,,,,,,,,,53,,,,,,,,,,,,,,479.21199988169246,,response,,,,99,,,,,,,Space,keypress(Space),,,,,,,,---- -- ----- -- ------ - ------- --- ----------<br>------------- ------ ------ ---- ---- ------- ----- -- ----<br>-------- ------- -- ---------- --- - --- ----- ----- ----<br>---- --- --- ----- --- ---- ---- ------- ----- ---- -------<br>--- --- -- ----- -- --- ---- -- --- ---- -- ------ really<br>--- ----- -- ----,254498.01500001922,254496.83499988168,254001.369,254015.07500000298,254017.623,254500.861,,51,really
screen,html.Screen,1_1_0_1_52,2021-04-25T21:43:41.313Z,,,,,,,,,,,,,,,,53,,,,,,,,,,,,,,414.8090000166849,,response,,,,99,,,,,,,Space,keypress(Space),,,,,,,,---- -- ----- -- ------ - ------- --- ----------<br>------------- ------ ------ ---- ---- ------- ----- -- ----<br>-------- ------- -- ---------- --- - --- ----- ----- ----<br>---- --- --- ----- --- ---- ---- ------- ----- ---- -------<br>--- --- -- ----- -- --- ---- -- --- ---- -- ------ ------<br>not ----- -- ----,254916.87499987893,254915.6700000167,254484.626,254498.27499990351,254500.861,254934.129,,52,not
screen,html.Screen,1_1_0_1_53,2021-04-25T21:43:41.688Z,,,,,,,,,,,,,,,,53,,,,,,,,,,,,,,356.64599988490227,,response,,,,99,,,,,,,Space,keypress(Space),,,,,,,,---- -- ----- -- ------ - ------- --- ----------<br>------------- ------ ------ ---- ---- ------- ----- -- ----<br>-------- ------- -- ---------- --- - --- ----- ----- ----<br>---- --- --- ----- --- ---- ---- ------- ----- ---- -------<br>--- --- -- ----- -- --- ---- -- --- ---- -- ------ ------<br>--- close -- ----,255291.8650000356,255290.7749998849,254901.315,254917.12999995798,254934.129,255301.063,,53,close
screen,html.Screen,1_1_0_1_54,2021-04-25T21:43:42.090Z,,,,,,,,,,,,,,,,53,,,,,,,,,,,,,,391.68699992922484,,response,,,,99,,,,,,,Space,keypress(Space),,,,,,,,---- -- ----- -- ------ - ------- --- ----------<br>------------- ------ ------ ---- ---- ------- ----- -- ----<br>-------- ------- -- ---------- --- - --- ----- ----- ----<br>---- --- --- ----- --- ---- ---- ------- ----- ---- -------<br>--- --- -- ----- -- --- ---- -- --- ---- -- ------ ------<br>--- ----- at ----,255693.96999990568,255692.74999992922,255285.093,255292.08499984816,255301.063,255700.784,,54,at
screen,html.Screen,1_1_0_1_55,2021-04-25T21:43:42.447Z,,,,,,,,,,,,,,,,53,,,,,,,,,,,,,,348.24099984017084,,response,,,,99,,,,,,,Space,keypress(Space),,,,,,,,---- -- ----- -- ------ - ------- --- ----------<br>------------- ------ ------ ---- ---- ------- ----- -- ----<br>-------- ------- -- ---------- --- - --- ----- ----- ----<br>---- --- --- ----- --- ---- ---- ------- ----- ---- -------<br>--- --- -- ----- -- --- ---- -- --- ---- -- ------ ------<br>--- ----- -- all.,256050.1899998635,256049.02499984019,255684.276,255694.26999986172,255700.784,256067.359,,55,all.
Item 99,flow.Loop,1_1_0_1,2021-04-25T21:43:42.447Z,,,,,,,,,,,,,,,,,,,,,,,,,,,,,,28493.878999840177,,completion,,,,,C,,,,,,,,,,,silence,,,,,256050.79499981366,256049.02499984019,227522.133,227523.24999985285,227555.146,256067.359,,,
Question 1,html.Screen,1_1_0_2,2021-04-25T21:43:48.881Z,,,,,,,,,,,,,,,,,,,,,,,,,,,false,FALSE,,6415.730999994266,,response,,,,99,C,,,,,,TRUE,click #choice-1,,,,silence,,,,,262484.5399998594,262483.08999999426,256050.992,256051.06500000693,256067.359,262499.615,,,
Question 2,html.Screen,1_1_0_3,2021-04-25T21:43:56.037Z,,,,,,,,,,,,,,,,,,,,,,,,,,,true,TRUE,,7142.779999973485,,response,,,,99,C,,,,,,TRUE,click #choice-1,,,,silence,,,,,269643.82999995723,269642.3949999735,262483.393,262484.79999997653,262499.615,269648.428,,,
Item 99,flow.Sequence,1_1_0,2021-04-25T21:43:56.037Z,,,,,,,,,,,,,,,,,,,,,,,,,,,,,,52102.19999997347,,completion,,,,,,,,,,,,,,,,,,,,,269644.0850000363,269642.3949999735,217523.93,217537.79999981634,217540.195,269648.428,,,
Holding screen,html.Screen,1_1_1_0,2021-04-25T21:44:06.025Z,,,,,,,,,,,,,,,,,,,,,,,,,,,,,,9998.537000000011,,timeout,,,,,,,,,,,,,,,,,,,,,279631.38499995694,279630.559,269631.826,269644.25999997184,269648.428,279646.965,,,
screen,html.Screen,1_1_1_1_0,2021-04-25T21:44:06.651Z,,,,,,,,,,,,,,,,54,,,,,,,,,,,,,,609.3149998558802,,response,,,,100,,,,,,,Space,keypress(Space),,,,,,,,At --- ---- --- ------ ----- ------- ---- -- --- ------- --<br>------- ---------- ------ -- ----- -- ----- -- ---- ------<br>--- ----- --- --- ------ -------- ----- --- ------ ----- --<br>----- ----- ---------- --- --- ------ ------ ---- -- ------<br>------- --- ------ ----- --- ---- ------- -- ---- --- --<br>------- ------,280257.5899998192,280256.2799998559,279630.559,279631.6199998837,279646.965,280263.407,,0,At
screen,html.Screen,1_1_1_1_1,2021-04-25T21:44:06.988Z,,,,,,,,,,,,,,,,54,,,,,,,,,,,,,,330.1779999077553,,response,,,,100,,,,,,,Space,keypress(Space),,,,,,,,-- the ---- --- ------ ----- ------- ---- -- --- ------- --<br>------- ---------- ------ -- ----- -- ----- -- ---- ------<br>--- ----- --- --- ------ -------- ----- --- ------ ----- --<br>----- ----- ---------- --- --- ------ ------ ---- -- ------<br>------- --- ------ ----- --- ---- ------- -- ---- --- --<br>------- ------,280594.7650000453,280593.58499990776,280247.16,280257.92999984697,280263.407,280596.702,,1,the
screen,html.Screen,1_1_1_1_2,2021-04-25T21:44:07.420Z,,,,,,,,,,,,,,,,54,,,,,,,,,,,,,,428.8579999800422,,response,,,,100,,,,,,,Space,keypress(Space),,,,,,,,-- --- time --- ------ ----- ------- ---- -- --- ------- --<br>------- ---------- ------ -- ----- -- ----- -- ---- ------<br>--- ----- --- --- ------ -------- ----- --- ------ ----- --<br>----- ----- ---------- --- --- ------ ------ ---- -- ------<br>------- --- ------ ----- --- ---- ------- -- ---- --- --<br>------- ------,281026.59999998286,281025.55999998003,280580.534,280595.0099998154,280596.702,281029.923,,2,time
screen,html.Screen,1_1_1_1_3,2021-04-25T21:44:07.847Z,,,,,,,,,,,,,,,,54,,,,,,,,,,,,,,422.76199990924215,,response,,,,100,,,,,,,Space,keypress(Space),,,,,,,,-- --- ---- the ------ ----- ------- ---- -- --- ------- --<br>------- ---------- ------ -- ----- -- ----- -- ---- ------<br>--- ----- --- --- ------ -------- ----- --- ------ ----- --<br>----- ----- ---------- --- --- ------ ------ ---- -- ------<br>------- --- ------ ----- --- ---- ------- -- ---- --- --<br>------- ------,281453.8600000087,281452.68499990925,281013.708,281026.9149998203,281029.923,281463.623,,3,the
screen,html.Screen,1_1_1_1_4,2021-04-25T21:44:08.357Z,,,,,,,,,,,,,,,,54,,,,,,,,,,,,,,499.32200003566686,,response,,,,100,,,,,,,Space,keypress(Space),,,,,,,,-- --- ---- --- French ----- ------- ---- -- --- ------- --<br>------- ---------- ------ -- ----- -- ----- -- ---- ------<br>--- ----- --- --- ------ -------- ----- --- ------ ----- --<br>----- ----- ---------- --- --- ------ ------ ---- -- ------<br>------- --- ------ ----- --- ---- ------- -- ---- --- --<br>------- ------,281964.17999989353,281962.9450000357,281447.057,281454.10999981686,281463.623,281980.134,,4,French
screen,html.Screen,1_1_1_1_5,2021-04-25T21:44:08.736Z,,,,,,,,,,,,,,,,54,,,,,,,,,,,,,,362.1459999825456,,response,,,,100,,,,,,,Space,keypress(Space),,,,,,,,-- --- ---- --- ------ crown ------- ---- -- --- ------- --<br>------- ---------- ------ -- ----- -- ----- -- ---- ------<br>--- ----- --- --- ------ -------- ----- --- ------ ----- --<br>----- ----- ---------- --- --- ------ ------ ---- -- ------<br>------- --- ------ ----- --- ---- ------- -- ---- --- --<br>------- ------,282343.3149999473,282342.27999998257,281963.431,281964.4649999682,281980.134,282346.395,,5,crown
screen,html.Screen,1_1_1_1_6,2021-04-25T21:44:09.455Z,,,,,,,,,,,,,,,,54,,,,,,,,,,,,,,714.7849999605678,,response,,,,100,,,,,,,Space,keypress(Space),,,,,,,,-- --- ---- --- ------ ----- secured ---- -- --- ------- --<br>------- ---------- ------ -- ----- -- ----- -- ---- ------<br>--- ----- --- --- ------ -------- ----- --- ------ ----- --<br>----- ----- ---------- --- --- ------ ------ ---- -- ------<br>------- --- ------ ----- --- ---- ------- -- ---- --- --<br>------- ------,283062.144999858,283061.1799999606,282330.069,282343.5949999839,282346.395,283079.913,,6,secured
screen,html.Screen,1_1_1_1_7,2021-04-25T21:44:09.854Z,,,,,,,,,,,,,,,,54,,,,,,,,,,,,,,380.0169998953934,,response,,,,100,,,,,,,Space,keypress(Space),,,,,,,,-- --- ---- --- ------ ----- ------- much -- --- ------- --<br>------- ---------- ------ -- ----- -- ----- -- ---- ------<br>--- ----- --- --- ------ -------- ----- --- ------ ----- --<br>----- ----- ---------- --- --- ------ ------ ---- -- ------<br>------- --- ------ ----- --- ---- ------- -- ---- --- --<br>------- ------,283460.9449999407,283459.9299998954,283047.37,283062.41499981843,283079.913,283462.9,,7,much
screen,html.Screen,1_1_1_1_8,2021-04-25T21:44:10.229Z,,,,,,,,,,,,,,,,54,,,,,,,,,,,,,,372.1449998397147,,response,,,,100,,,,,,,Space,keypress(Space),,,,,,,,-- --- ---- --- ------ ----- ------- ---- of --- ------- --<br>------- ---------- ------ -- ----- -- ----- -- ---- ------<br>--- ----- --- --- ------ -------- ----- --- ------ ----- --<br>----- ----- ---------- --- --- ------ ------ ---- -- ------<br>------- --- ------ ----- --- ---- ------- -- ---- --- --<br>------- ------,283836.0999999568,283835.04499983974,283446.723,283461.2349998206,283462.9,283846.571,,8,of
screen,html.Screen,1_1_1_1_9,2021-04-25T21:44:10.595Z,,,,,,,,,,,,,,,,54,,,,,,,,,,,,,,354.1339999665506,,response,,,,100,,,,,,,Space,keypress(Space),,,,,,,,-- --- ---- --- ------ ----- ------- ---- -- its ------- --<br>------- ---------- ------ -- ----- -- ----- -- ---- ------<br>--- ----- --- --- ------ -------- ----- --- ------ ----- --<br>----- ----- ---------- --- --- ------ ------ ---- -- ------<br>------- --- ------ ----- --- ---- ------- -- ---- --- --<br>------- ------,284201.9099998288,284200.70499996655,283830.001,283836.37999999337,283846.571,284213.169,,9,its
screen,html.Screen,1_1_1_1_10,2021-04-25T21:44:10.994Z,,,,,,,,,,,,,,,,54,,,,,,,,,,,,,,386.7059998398181,,response,,,,100,,,,,,,Space,keypress(Space),,,,,,,,-- --- ---- --- ------ ----- ------- ---- -- --- revenue --<br>------- ---------- ------ -- ----- -- ----- -- ---- ------<br>--- ----- --- --- ------ -------- ----- --- ------ ----- --<br>----- ----- ---------- --- --- ------ ------ ---- -- ------<br>------- --- ------ ----- --- ---- ------- -- ---- --- --<br>------- ------,284601.06499982066,284599.8749998398,284196.42,284202.1549998317,284213.169,284613.033,,10,revenue
screen,html.Screen,1_1_1_1_11,2021-04-25T21:44:11.411Z,,,,,,,,,,,,,,,,54,,,,,,,,,,,,,,403.7319998329622,,response,,,,100,,,,,,,Space,keypress(Space),,,,,,,,-- --- ---- --- ------ ----- ------- ---- -- --- ------- by<br>------- ---------- ------ -- ----- -- ----- -- ---- ------<br>--- ----- --- --- ------ -------- ----- --- ------ ----- --<br>----- ----- ---------- --- --- ------ ------ ---- -- ------<br>------- --- ------ ----- --- ---- ------- -- ---- --- --<br>------- ------,285017.9800000042,285016.76499983296,284596.39,284601.32999997586,284613.033,285029.706,,11,by
screen,html.Screen,1_1_1_1_12,2021-04-25T21:44:12.124Z,,,,,,,,,,,,,,,,54,,,,,,,,,,,,,,699.5239999389742,,response,,,,100,,,,,,,Space,keypress(Space),,,,,,,,-- --- ---- --- ------ ----- ------- ---- -- --- ------- --<br>issuing ---------- ------ -- ----- -- ----- -- ---- ------<br>--- ----- --- --- ------ -------- ----- --- ------ ----- --<br>----- ----- ---------- --- --- ------ ------ ---- -- ------<br>------- --- ------ ----- --- ---- ------- -- ---- --- --<br>------- ------,285730.3649999667,285729.229999939,285012.993,285018.2250000071,285029.706,285746.126,,12,issuing
screen,html.Screen,1_1_1_1_13,2021-04-25T21:44:12.723Z,,,,,,,,,,,,,,,,54,,,,,,,,,,,,,,582.7539999281871,,response,,,,100,,,,,,,Space,keypress(Space),,,,,,,,-- --- ---- --- ------ ----- ------- ---- -- --- ------- --<br>------- government ------ -- ----- -- ----- -- ---- ------<br>--- ----- --- --- ------ -------- ----- --- ------ ----- --<br>----- ----- ---------- --- --- ------ ------ ---- -- ------<br>------- --- ------ ----- --- ---- ------- -- ---- --- --<br>------- ------,286329.97499988414,286328.8799999282,285729.559,285730.71000003256,285746.126,286346.083,,13,government
screen,html.Screen,1_1_1_1_14,2021-04-25T21:44:13.320Z,,,,,,,,,,,,,,,,54,,,,,,,,,,,,,,579.3169998327503,,response,,,,100,,,,,,,Space,keypress(Space),,,,,,,,-- --- ---- --- ------ ----- ------- ---- -- --- ------- --<br>------- ---------- bonds. -- ----- -- ----- -- ---- ------<br>--- ----- --- --- ------ -------- ----- --- ------ ----- --<br>----- ----- ---------- --- --- ------ ------ ---- -- ------<br>------- --- ------ ----- --- ---- ------- -- ---- --- --<br>------- ------,286926.36499996297,286925.39999983273,286329.16,286330.23500000127,286346.083,286929.035,,14,bonds.
screen,html.Screen,1_1_1_1_15,2021-04-25T21:44:13.821Z,,,,,,,,,,,,,,,,54,,,,,,,,,,,,,,497.5850000420469,,response,,,,100,,,,,,,Space,keypress(Space),,,,,,,,-- --- ---- --- ------ ----- ------- ---- -- --- ------- --<br>------- ---------- ------ In ----- -- ----- -- ---- ------<br>--- ----- --- --- ------ -------- ----- --- ------ ----- --<br>----- ----- ---------- --- --- ------ ------ ---- -- ------<br>------- --- ------ ----- --- ---- ------- -- ---- --- --<br>------- ------,287427.5849999394,287426.620000042,286912.671,286926.51999997906,286929.035,287451.39,,15,In
screen,html.Screen,1_1_1_1_16,2021-04-25T21:44:14.629Z,,,,,,,,,,,,,,,,54,,,,,,,,,,,,,,782.9049998564878,,response,,,,100,,,,,,,Space,keypress(Space),,,,,,,,"-- --- ---- --- ------ ----- ------- ---- -- --- ------- --<br>------- ---------- ------ -- 1727, -- ----- -- ---- ------<br>--- ----- --- --- ------ -------- ----- --- ------ ----- --<br>----- ----- ---------- --- --- ------ ------ ---- -- ------<br>------- --- ------ ----- --- ---- ------- -- ---- --- --<br>------- ------",288235.51499983296,288234.2949998565,287412.711,287427.7549998369,287451.39,288245.858,,16,"1727,"
screen,html.Screen,1_1_1_1_17,2021-04-25T21:44:15.199Z,,,,,,,,,,,,,,,,54,,,,,,,,,,,,,,558.8369999406859,,response,,,,100,,,,,,,Space,keypress(Space),,,,,,,,-- --- ---- --- ------ ----- ------- ---- -- --- ------- --<br>------- ---------- ------ -- ----- in ----- -- ---- ------<br>--- ----- --- --- ------ -------- ----- --- ------ ----- --<br>----- ----- ---------- --- --- ------ ------ ---- -- ------<br>------- --- ------ ----- --- ---- ------- -- ---- --- --<br>------- ------,288805.709999986,288804.6949999407,288229.277,288235.8349999413,288245.858,288812.188,,17,in
screen,html.Screen,1_1_1_1_18,2021-04-25T21:44:15.646Z,,,,,,,,,,,,,,,,54,,,,,,,,,,,,,,439.30199993686983,,response,,,,100,,,,,,,Space,keypress(Space),,,,,,,,-- --- ---- --- ------ ----- ------- ---- -- --- ------- --<br>------- ---------- ------ -- ----- -- order -- ---- ------<br>--- ----- --- --- ------ -------- ----- --- ------ ----- --<br>----- ----- ---------- --- --- ------ ------ ---- -- ------<br>------- --- ------ ----- --- ---- ------- -- ---- --- --<br>------- ------,289252.6300000027,289251.4899999369,288795.721,288805.9699998703,288812.188,289262.307,,18,order
screen,html.Screen,1_1_1_1_19,2021-04-25T21:44:16.062Z,,,,,,,,,,,,,,,,54,,,,,,,,,,,,,,405.57299984811107,,response,,,,100,,,,,,,Space,keypress(Space),,,,,,,,-- --- ---- --- ------ ----- ------- ---- -- --- ------- --<br>------- ---------- ------ -- ----- -- ----- to ---- ------<br>--- ----- --- --- ------ -------- ----- --- ------ ----- --<br>----- ----- ---------- --- --- ------ ------ ---- -- ------<br>------- --- ------ ----- --- ---- ------- -- ---- --- --<br>------- ------,289668.96499996074,289667.8799998481,289245.332,289252.89499992505,289262.307,289678.956,,19,to
screen,html.Screen,1_1_1_1_20,2021-04-25T21:44:16.452Z,,,,,,,,,,,,,,,,54,,,,,,,,,,,,,,378.4789998496417,,response,,,,100,,,,,,,Space,keypress(Space),,,,,,,,-- --- ---- --- ------ ----- ------- ---- -- --- ------- --<br>------- ---------- ------ -- ----- -- ----- -- save ------<br>--- ----- --- --- ------ -------- ----- --- ------ ----- --<br>----- ----- ---------- --- --- ------ ------ ---- -- ------<br>------- --- ------ ----- --- ---- ------- -- ---- --- --<br>------- ------,290058.6449999828,290057.43499984965,289662.186,289669.26999995485,289678.956,290061.881,,20,save
screen,html.Screen,1_1_1_1_21,2021-04-25T21:44:16.889Z,,,,,,,,,,,,,,,,54,,,,,,,,,,,,,,432.31899984093616,,response,,,,100,,,,,,,Space,keypress(Space),,,,,,,,"-- --- ---- --- ------ ----- ------- ---- -- --- ------- --<br>------- ---------- ------ -- ----- -- ----- -- ---- money,<br>--- ----- --- --- ------ -------- ----- --- ------ ----- --<br>----- ----- ---------- --- --- ------ ------ ---- -- ------<br>------- --- ------ ----- --- ---- ------- -- ---- --- --<br>------- ------",290495.404999936,290494.19999984093,290045.506,290058.8849999476,290061.881,290512.094,,21,"money,"
screen,html.Screen,1_1_1_1_22,2021-04-25T21:44:17.349Z,,,,,,,,,,,,,,,,54,,,,,,,,,,,,,,442.91099987976486,,response,,,,100,,,,,,,Space,keypress(Space),,,,,,,,-- --- ---- --- ------ ----- ------- ---- -- --- ------- --<br>------- ---------- ------ -- ----- -- ----- -- ---- ------<br>the ----- --- --- ------ -------- ----- --- ------ ----- --<br>----- ----- ---------- --- --- ------ ------ ---- -- ------<br>------- --- ------ ----- --- ---- ------- -- ---- --- --<br>------- ------,290956.164999865,290955.00499987975,290495.528,290495.66000001505,290512.094,290961.694,,22,the
screen,html.Screen,1_1_1_1_23,2021-04-25T21:44:17.849Z,,,,,,,,,,,,,,,,54,,,,,,,,,,,,,,493.49599989142735,,response,,,,100,,,,,,,Space,keypress(Space),,,,,,,,-- --- ---- --- ------ ----- ------- ---- -- --- ------- --<br>------- ---------- ------ -- ----- -- ----- -- ---- ------<br>--- state --- --- ------ -------- ----- --- ------ ----- --<br>----- ----- ---------- --- --- ------ ------ ---- -- ------<br>------- --- ------ ----- --- ---- ------- -- ---- --- --<br>------- ------,291456.2450000085,291455.18999989145,290945.407,290956.4399998635,290961.694,291461.655,,23,state
screen,html.Screen,1_1_1_1_24,2021-04-25T21:44:18.693Z,,,,,,,,,,,,,,,,54,,,,,,,,,,,,,,837.2700000100303,,response,,,,100,,,,,,,Space,keypress(Space),,,,,,,,-- --- ---- --- ------ ----- ------- ---- -- --- ------- --<br>------- ---------- ------ -- ----- -- ----- -- ---- ------<br>--- ----- cut --- ------ -------- ----- --- ------ ----- --<br>----- ----- ---------- --- --- ------ ------ ---- -- ------<br>------- --- ------ ----- --- ---- ------- -- ---- --- --<br>------- ------,292300.0399998855,292298.92500001006,291445.041,291456.5599998459,291461.655,292311.889,,24,cut
screen,html.Screen,1_1_1_1_25,2021-04-25T21:44:19.122Z,,,,,,,,,,,,,,,,54,,,,,,,,,,,,,,415.5959999230108,,response,,,,100,,,,,,,Space,keypress(Space),,,,,,,,-- --- ---- --- ------ ----- ------- ---- -- --- ------- --<br>------- ---------- ------ -- ----- -- ----- -- ---- ------<br>--- ----- --- the ------ -------- ----- --- ------ ----- --<br>----- ----- ---------- --- --- ------ ------ ---- -- ------<br>------- --- ------ ----- --- ---- ------- -- ---- --- --<br>------- ------,292728.6999998614,292727.48499992304,292295.379,292300.29499996454,292311.889,292745.126,,25,the
screen,html.Screen,1_1_1_1_26,2021-04-25T21:44:19.630Z,,,,,,,,,,,,,,,,54,,,,,,,,,,,,,,490.1139998344588,,response,,,,100,,,,,,,Space,keypress(Space),,,,,,,,-- --- ---- --- ------ ----- ------- ---- -- --- ------- --<br>------- ---------- ------ -- ----- -- ----- -- ---- ------<br>--- ----- --- --- bonds' -------- ----- --- ------ ----- --<br>----- ----- ---------- --- --- ------ ------ ---- -- ------<br>------- --- ------ ----- --- ---- ------- -- ---- --- --<br>------- ------,293236.49000003934,293235.23999983445,292728.403,292728.96999982186,292745.126,293245.055,,26,bonds'
screen,html.Screen,1_1_1_1_27,2021-04-25T21:44:20.149Z,,,,,,,,,,,,,,,,54,,,,,,,,,,,,,,509.63999989413423,,response,,,,100,,,,,,,Space,keypress(Space),,,,,,,,-- --- ---- --- ------ ----- ------- ---- -- --- ------- --<br>------- ---------- ------ -- ----- -- ----- -- ---- ------<br>--- ----- --- --- ------ interest ----- --- ------ ----- --<br>----- ----- ---------- --- --- ------ ------ ---- -- ------<br>------- --- ------ ----- --- ---- ------- -- ---- --- --<br>------- ------,293755.8199998457,293754.6949998941,293228.331,293236.7549999617,293245.055,293761.234,,27,interest
screen,html.Screen,1_1_1_1_28,2021-04-25T21:44:20.580Z,,,,,,,,,,,,,,,,54,,,,,,,,,,,,,,424.0660000119242,,response,,,,100,,,,,,,Space,keypress(Space),,,,,,,,-- --- ---- --- ------ ----- ------- ---- -- --- ------- --<br>------- ---------- ------ -- ----- -- ----- -- ---- ------<br>--- ----- --- --- ------ -------- rate. --- ------ ----- --<br>----- ----- ---------- --- --- ------ ------ ---- -- ------<br>------- --- ------ ----- --- ---- ------- -- ---- --- --<br>------- ------,294186.4899999928,294185.3000000119,293744.864,293756.0499999672,293761.234,294194.758,,28,rate.
screen,html.Screen,1_1_1_1_29,2021-04-25T21:44:21.025Z,,,,,,,,,,,,,,,,54,,,,,,,,,,,,,,436.1470000272966,,response,,,,100,,,,,,,Space,keypress(Space),,,,,,,,-- --- ---- --- ------ ----- ------- ---- -- --- ------- --<br>------- ---------- ------ -- ----- -- ----- -- ---- ------<br>--- ----- --- --- ------ -------- ----- The ------ ----- --<br>----- ----- ---------- --- --- ------ ------ ---- -- ------<br>------- --- ------ ----- --- ---- ------- -- ---- --- --<br>------- ------,294632.0449998602,294630.90500002727,294178.348,294186.77000002936,294194.758,294644.837,,29,The
screen,html.Screen,1_1_1_1_30,2021-04-25T21:44:21.658Z,,,,,,,,,,,,,,,,54,,,,,,,,,,,,,,619.4379999649827,,response,,,,100,,,,,,,Space,keypress(Space),,,,,,,,-- --- ---- --- ------ ----- ------- ---- -- --- ------- --<br>------- ---------- ------ -- ----- -- ----- -- ---- ------<br>--- ----- --- --- ------ -------- ----- --- market ----- --<br>----- ----- ---------- --- --- ------ ------ ---- -- ------<br>------- --- ------ ----- --- ---- ------- -- ---- --- --<br>------- ------,295265.269999858,295264.274999965,294628.109,294632.31499982066,294644.837,295277.986,,30,market
screen,html.Screen,1_1_1_1_31,2021-04-25T21:44:22.138Z,,,,,,,,,,,,,,,,54,,,,,,,,,,,,,,465.6590000386932,,response,,,,100,,,,,,,Space,keypress(Space),,,,,,,,-- --- ---- --- ------ ----- ------- ---- -- --- ------- --<br>------- ---------- ------ -- ----- -- ----- -- ---- ------<br>--- ----- --- --- ------ -------- ----- --- ------ value --<br>----- ----- ---------- --- --- ------ ------ ---- -- ------<br>------- --- ------ ----- --- ---- ------- -- ---- --- --<br>------- ------,295744.71999984235,295743.64500003867,295261.381,295265.4450000264,295277.986,295761.314,,31,value
screen,html.Screen,1_1_1_1_32,2021-04-25T21:44:22.589Z,,,,,,,,,,,,,,,,54,,,,,,,,,,,,,,433.25599981774576,,response,,,,100,,,,,,,Space,keypress(Space),,,,,,,,-- --- ---- --- ------ ----- ------- ---- -- --- ------- --<br>------- ---------- ------ -- ----- -- ----- -- ---- ------<br>--- ----- --- --- ------ -------- ----- --- ------ ----- of<br>----- ----- ---------- --- --- ------ ------ ---- -- ------<br>------- --- ------ ----- --- ---- ------- -- ---- --- --<br>------- ------,296195.82000002265,296194.56999981776,295744.552,295744.95500000194,295761.314,296211.775,,32,of
screen,html.Screen,1_1_1_1_33,2021-04-25T21:44:23.052Z,,,,,,,,,,,,,,,,54,,,,,,,,,,,,,,446.1300000291085,,response,,,,100,,,,,,,Space,keypress(Space),,,,,,,,-- --- ---- --- ------ ----- ------- ---- -- --- ------- --<br>------- ---------- ------ -- ----- -- ----- -- ---- ------<br>--- ----- --- --- ------ -------- ----- --- ------ ----- --<br>these ----- ---------- --- --- ------ ------ ---- -- ------<br>------- --- ------ ----- --- ---- ------- -- ---- --- --<br>------- ------,296659.0099998284,296657.90500002913,296194.473,296196.15500001237,296211.775,296679.367,,33,these
screen,html.Screen,1_1_1_1_34,2021-04-25T21:44:23.525Z,,,,,,,,,,,,,,,,54,,,,,,,,,,,,,,451.29799982957775,,response,,,,100,,,,,,,Space,keypress(Space),,,,,,,,-- --- ---- --- ------ ----- ------- ---- -- --- ------- --<br>------- ---------- ------ -- ----- -- ----- -- ---- ------<br>--- ----- --- --- ------ -------- ----- --- ------ ----- --<br>----- bonds ---------- --- --- ------ ------ ---- -- ------<br>------- --- ------ ----- --- ---- ------- -- ---- --- --<br>------- ------,297131.8649998866,297130.6649998296,296644.412,296659.289999865,296679.367,297144.449,,34,bonds
screen,html.Screen,1_1_1_1_35,2021-04-25T21:44:23.979Z,,,,,,,,,,,,,,,,54,,,,,,,,,,,,,,440.2109999349341,,response,,,,100,,,,,,,Space,keypress(Space),,,,,,,,"-- --- ---- --- ------ ----- ------- ---- -- --- ------- --<br>------- ---------- ------ -- ----- -- ----- -- ---- ------<br>--- ----- --- --- ------ -------- ----- --- ------ ----- --<br>----- ----- plummeted, --- --- ------ ------ ---- -- ------<br>------- --- ------ ----- --- ---- ------- -- ---- --- --<br>------- ------",297585.8799999114,297584.65999993496,297127.89,297132.13499984704,297144.449,297594.098,,35,"plummeted,"
screen,html.Screen,1_1_1_1_36,2021-04-25T21:44:24.437Z,,,,,,,,,,,,,,,,54,,,,,,,,,,,,,,449.1369999900926,,response,,,,100,,,,,,,Space,keypress(Space),,,,,,,,-- --- ---- --- ------ ----- ------- ---- -- --- ------- --<br>------- ---------- ------ -- ----- -- ----- -- ---- ------<br>--- ----- --- --- ------ -------- ----- --- ------ ----- --<br>----- ----- ---------- and --- ------ ------ ---- -- ------<br>------- --- ------ ----- --- ---- ------- -- ---- --- --<br>------- ------,298044.3400000222,298043.2349999901,297577.637,297586.1249999143,297594.098,298060.812,,36,and
screen,html.Screen,1_1_1_1_37,2021-04-25T21:44:24.873Z,,,,,,,,,,,,,,,,54,,,,,,,,,,,,,,418.2480000415235,,response,,,,100,,,,,,,Space,keypress(Space),,,,,,,,-- --- ---- --- ------ ----- ------- ---- -- --- ------- --<br>------- ---------- ------ -- ----- -- ----- -- ---- ------<br>--- ----- --- --- ------ -------- ----- --- ------ ----- --<br>----- ----- ---------- --- the ------ ------ ---- -- ------<br>------- --- ------ ----- --- ---- ------- -- ---- --- --<br>------- ------,298480.2099999506,298479.0600000415,298044.193,298044.6150000207,298060.812,298494.077,,37,the
screen,html.Screen,1_1_1_1_38,2021-04-25T21:44:25.363Z,,,,,,,,,,,,,,,,54,,,,,,,,,,,,,,474.8029998257407,,response,,,,100,,,,,,,Space,keypress(Space),,,,,,,,-- --- ---- --- ------ ----- ------- ---- -- --- ------- --<br>------- ---------- ------ -- ----- -- ----- -- ---- ------<br>--- ----- --- --- ------ -------- ----- --- ------ ----- --<br>----- ----- ---------- --- --- market ------ ---- -- ------<br>------- --- ------ ----- --- ---- ------- -- ---- --- --<br>------- ------,298970.0700000394,298968.87999982573,298477.534,298480.49500002526,298494.077,298977.244,,38,market
screen,html.Screen,1_1_1_1_39,2021-04-25T21:44:25.878Z,,,,,,,,,,,,,,,,54,,,,,,,,,,,,,,506.3060000044643,,response,,,,100,,,,,,,Space,keypress(Space),,,,,,,,-- --- ---- --- ------ ----- ------- ---- -- --- ------- --<br>------- ---------- ------ -- ----- -- ----- -- ---- ------<br>--- ----- --- --- ------ -------- ----- --- ------ ----- --<br>----- ----- ---------- --- --- ------ became ---- -- ------<br>------- --- ------ ----- --- ---- ------- -- ---- --- --<br>------- ------,299484.5399998594,299483.55000000447,298960.513,298970.3049999662,298977.244,299493.677,,39,became
screen,html.Screen,1_1_1_1_40,2021-04-25T21:44:26.527Z,,,,,,,,,,,,,,,,54,,,,,,,,,,,,,,639.2130000080215,,response,,,,100,,,,,,,Space,keypress(Space),,,,,,,,-- --- ---- --- ------ ----- ------- ---- -- --- ------- --<br>------- ---------- ------ -- ----- -- ----- -- ---- ------<br>--- ----- --- --- ------ -------- ----- --- ------ ----- --<br>----- ----- ---------- --- --- ------ ------ wary -- ------<br>------- --- ------ ----- --- ---- ------- -- ---- --- --<br>------- ------,300134.05500003137,300132.89000000805,299477.493,299484.7849998623,299493.677,300143.605,,40,wary
screen,html.Screen,1_1_1_1_41,2021-04-25T21:44:26.934Z,,,,,,,,,,,,,,,,54,,,,,,,,,,,,,,395.6799999480136,,response,,,,100,,,,,,,Space,keypress(Space),,,,,,,,-- --- ---- --- ------ ----- ------- ---- -- --- ------- --<br>------- ---------- ------ -- ----- -- ----- -- ---- ------<br>--- ----- --- --- ------ -------- ----- --- ------ ----- --<br>----- ----- ---------- --- --- ------ ------ ---- of ------<br>------- --- ------ ----- --- ---- ------- -- ---- --- --<br>------- ------,300540.5399999581,300539.284999948,300127.007,300134.34999994934,300143.605,300543.538,,41,of
screen,html.Screen,1_1_1_1_42,2021-04-25T21:44:27.486Z,,,,,,,,,,,,,,,,54,,,,,,,,,,,,,,548.0770000412012,,response,,,,100,,,,,,,Space,keypress(Space),,,,,,,,-- --- ---- --- ------ ----- ------- ---- -- --- ------- --<br>------- ---------- ------ -- ----- -- ----- -- ---- ------<br>--- ----- --- --- ------ -------- ----- --- ------ ----- --<br>----- ----- ---------- --- --- ------ ------ ---- -- French<br>------- --- ------ ----- --- ---- ------- -- ---- --- --<br>------- ------,301092.7949999459,301091.6150000412,300527.111,300540.8799999859,300543.538,301110.314,,42,French
screen,html.Screen,1_1_1_1_43,2021-04-25T21:44:28.174Z,,,,,,,,,,,,,,,,54,,,,,,,,,,,,,,669.7559998624492,,response,,,,100,,,,,,,Space,keypress(Space),,,,,,,,-- --- ---- --- ------ ----- ------- ---- -- --- ------- --<br>------- ---------- ------ -- ----- -- ----- -- ---- ------<br>--- ----- --- --- ------ -------- ----- --- ------ ----- --<br>----- ----- ---------- --- --- ------ ------ ---- -- ------<br>credit. --- ------ ----- --- ---- ------- -- ---- --- --<br>------- ------,301781.29999991506,301780.06999986246,301077.203,301093.0449999869,301110.314,301793.611,,43,credit.
screen,html.Screen,1_1_1_1_44,2021-04-25T21:44:28.694Z,,,,,,,,,,,,,,,,54,,,,,,,,,,,,,,505.703999952937,,response,,,,100,,,,,,,Space,keypress(Space),,,,,,,,-- --- ---- --- ------ ----- ------- ---- -- --- ------- --<br>------- ---------- ------ -- ----- -- ----- -- ---- ------<br>--- ----- --- --- ------ -------- ----- --- ------ ----- --<br>----- ----- ---------- --- --- ------ ------ ---- -- ------<br>------- The ------ ----- --- ---- ------- -- ---- --- --<br>------- ------,302300.5750000011,302299.3149999529,301777.063,301781.5699998755,301793.611,302310.193,,44,The
screen,html.Screen,1_1_1_1_45,2021-04-25T21:44:29.146Z,,,,,,,,,,,,,,,,54,,,,,,,,,,,,,,441.42699999542674,,response,,,,100,,,,,,,Space,keypress(Space),,,,,,,,-- --- ---- --- ------ ----- ------- ---- -- --- ------- --<br>------- ---------- ------ -- ----- -- ----- -- ---- ------<br>--- ----- --- --- ------ -------- ----- --- ------ ----- --<br>----- ----- ---------- --- --- ------ ------ ---- -- ------<br>------- --- French ----- --- ---- ------- -- ---- --- --<br>------- ------,302752.7649998665,302751.61999999546,302293.535,302300.90499995276,302310.193,302759.916,,45,French
screen,html.Screen,1_1_1_1_46,2021-04-25T21:44:29.925Z,,,,,,,,,,,,,,,,54,,,,,,,,,,,,,,770.5889999151113,,response,,,,100,,,,,,,Space,keypress(Space),,,,,,,,-- --- ---- --- ------ ----- ------- ---- -- --- ------- --<br>------- ---------- ------ -- ----- -- ----- -- ---- ------<br>--- ----- --- --- ------ -------- ----- --- ------ ----- --<br>----- ----- ---------- --- --- ------ ------ ---- -- ------<br>------- --- ------ state --- ---- ------- -- ---- --- --<br>------- ------,303531.7199998535,303530.50499991514,302743.506,302753.0300000217,302759.916,303543.397,,46,state
screen,html.Screen,1_1_1_1_47,2021-04-25T21:44:30.395Z,,,,,,,,,,,,,,,,54,,,,,,,,,,,,,,457.1829999926267,,response,,,,100,,,,,,,Space,keypress(Space),,,,,,,,-- --- ---- --- ------ ----- ------- ---- -- --- ------- --<br>------- ---------- ------ -- ----- -- ----- -- ---- ------<br>--- ----- --- --- ------ -------- ----- --- ------ ----- --<br>----- ----- ---------- --- --- ------ ------ ---- -- ------<br>------- --- ------ ----- was ---- ------- -- ---- --- --<br>------- ------,304001.8749998417,304000.5799999926,303526.898,303531.9699998945,303543.397,304009.625,,47,was
screen,html.Screen,1_1_1_1_48,2021-04-25T21:44:31.107Z,,,,,,,,,,,,,,,,54,,,,,,,,,,,,,,703.3999999463558,,response,,,,100,,,,,,,Space,keypress(Space),,,,,,,,-- --- ---- --- ------ ----- ------- ---- -- --- ------- --<br>------- ---------- ------ -- ----- -- ----- -- ---- ------<br>--- ----- --- --- ------ -------- ----- --- ------ ----- --<br>----- ----- ---------- --- --- ------ ------ ---- -- ------<br>------- --- ------ ----- --- left ------- -- ---- --- --<br>------- ------,304714.1849999316,304713.02499994636,303993.225,304002.21499986947,304009.625,304726.547,,48,left
screen,html.Screen,1_1_1_1_49,2021-04-25T21:44:31.691Z,,,,,,,,,,,,,,,,54,,,,,,,,,,,,,,569.8779998330865,,response,,,,100,,,,,,,Space,keypress(Space),,,,,,,,-- --- ---- --- ------ ----- ------- ---- -- --- ------- --<br>------- ---------- ------ -- ----- -- ----- -- ---- ------<br>--- ----- --- --- ------ -------- ----- --- ------ ----- --<br>----- ----- ---------- --- --- ------ ------ ---- -- ------<br>------- --- ------ ----- --- ---- without -- ---- --- --<br>------- ------,305297.64999984764,305296.4249998331,304709.875,304714.4349999726,304726.547,305309.526,,49,without
screen,html.Screen,1_1_1_1_50,2021-04-25T21:44:32.108Z,,,,,,,,,,,,,,,,54,,,,,,,,,,,,,,404.50399991549784,,response,,,,100,,,,,,,Space,keypress(Space),,,,,,,,-- --- ---- --- ------ ----- ------- ---- -- --- ------- --<br>------- ---------- ------ -- ----- -- ----- -- ---- ------<br>--- ----- --- --- ------ -------- ----- --- ------ ----- --<br>----- ----- ---------- --- --- ------ ------ ---- -- ------<br>------- --- ------ ----- --- ---- ------- an ---- --- --<br>------- ------,305715.149999829,305714.0299999155,305293.071,305297.89499985054,305309.526,305726.25,,50,an
screen,html.Screen,1_1_1_1_51,2021-04-25T21:44:32.762Z,,,,,,,,,,,,,,,,54,,,,,,,,,,,,,,641.7349999025464,,response,,,,100,,,,,,,Space,keypress(Space),,,,,,,,-- --- ---- --- ------ ----- ------- ---- -- --- ------- --<br>------- ---------- ------ -- ----- -- ----- -- ---- ------<br>--- ----- --- --- ------ -------- ----- --- ------ ----- --<br>----- ----- ---------- --- --- ------ ------ ---- -- ------<br>------- --- ------ ----- --- ---- ------- -- easy --- --<br>------- ------,306369.31999982335,306367.98499990255,305709.648,305715.40499990806,305726.25,306376.024,,51,easy
screen,html.Screen,1_1_1_1_52,2021-04-25T21:44:33.351Z,,,,,,,,,,,,,,,,54,,,,,,,,,,,,,,580.6959999001119,,response,,,,100,,,,,,,Space,keypress(Space),,,,,,,,-- --- ---- --- ------ ----- ------- ---- -- --- ------- --<br>------- ---------- ------ -- ----- -- ----- -- ---- ------<br>--- ----- --- --- ------ -------- ----- --- ------ ----- --<br>----- ----- ---------- --- --- ------ ------ ---- -- ------<br>------- --- ------ ----- --- ---- ------- -- ---- way --<br>------- ------,306957.9000000376,306956.7199999001,306359.569,306369.5449999068,306376.024,306980.376,,52,way
screen,html.Screen,1_1_1_1_53,2021-04-25T21:44:33.780Z,,,,,,,,,,,,,,,,54,,,,,,,,,,,,,,405.0089999141055,,response,,,,100,,,,,,,Space,keypress(Space),,,,,,,,-- --- ---- --- ------ ----- ------- ---- -- --- ------- --<br>------- ---------- ------ -- ----- -- ----- -- ---- ------<br>--- ----- --- --- ------ -------- ----- --- ------ ----- --<br>----- ----- ---------- --- --- ------ ------ ---- -- ------<br>------- --- ------ ----- --- ---- ------- -- ---- --- of<br>------- ------,307386.50999986567,307385.3849999141,306942.858,306958.1899999175,306980.376,307392.426,,53,of
screen,html.Screen,1_1_1_1_54,2021-04-25T21:44:34.346Z,,,,,,,,,,,,,,,,54,,,,,,,,,,,,,,559.3590000411496,,response,,,,100,,,,,,,Space,keypress(Space),,,,,,,,-- --- ---- --- ------ ----- ------- ---- -- --- ------- --<br>------- ---------- ------ -- ----- -- ----- -- ---- ------<br>--- ----- --- --- ------ -------- ----- --- ------ ----- --<br>----- ----- ---------- --- --- ------ ------ ---- -- ------<br>------- --- ------ ----- --- ---- ------- -- ---- --- --<br>raising ------,307952.83999992535,307951.7850000411,307376.225,307386.7949999403,307392.426,307959.158,,54,raising
screen,html.Screen,1_1_1_1_55,2021-04-25T21:44:34.931Z,,,,,,,,,,,,,,,,54,,,,,,,,,,,,,,576.9719999058289,,response,,,,100,,,,,,,Space,keypress(Space),,,,,,,,-- --- ---- --- ------ ----- ------- ---- -- --- ------- --<br>------- ---------- ------ -- ----- -- ----- -- ---- ------<br>--- ----- --- --- ------ -------- ----- --- ------ ----- --<br>----- ----- ---------- --- --- ------ ------ ---- -- ------<br>------- --- ------ ----- --- ---- ------- -- ---- --- --<br>------- money.,308537.37000003457,308536.1299999058,307942.737,307953.0650000088,307959.158,308542.252,,55,money.
Item 100,flow.Loop,1_1_1_1,2021-04-25T21:44:34.931Z,,,,,,,,,,,,,,,,,,,,,,,,,,,,,,28889.1649999058,,completion,,,,,C,,,,,,,,,,,silence,,,,,308537.87499992177,308536.1299999058,279630.559,279631.5599998925,279646.965,308542.252,,,
Question 1,html.Screen,1_1_1_2,2021-04-25T21:44:38.780Z,,,,,,,,,,,,,,,,,,,,,,,,,,,true,TRUE,,3843.1229998379713,,response,,,,100,C,,,,,,TRUE,click #choice-1,,,,silence,,,,,312386.8099998217,312385.37499983795,308526.06,308538.0700000096,308542.252,312391.575,,,
Question 2,html.Screen,1_1_1_3,2021-04-25T21:44:43.054Z,,,,,,,,,,,,,,,,,,,,,,,,,,,true,FALSE,,4267.779999894265,,response,,,,100,C,,,,,,FALSE,click #choice-2,,,,silence,,,,,316660.8749998268,316659.3549998943,312375.426,312386.9849999901,312391.575,316674.219,,,
Item 100,flow.Sequence,1_1_1,2021-04-25T21:44:43.054Z,,,,,,,,,,,,,,,,,,,,,,,,,,,,,,47010.92699989426,,completion,,,,,,,,,,,,,,,,,,,,,316661.1349999439,316659.3549998943,269631.826,269644.20999982394,269648.428,316674.219,,,
End of Practice,html.Page,1_1_2,2021-04-25T21:44:48.664Z,,,,,,,,,,,,,,,,,,,,,,,,,,,,,,5595.975999873655,,form submission,,,,,,,,,,,,,,,,,,,,,322270.5449999776,322270.19499987364,316658.055,316661.2549999263,316674.219,322273.325,,,
Practice,flow.Sequence,1_1,2021-04-25T21:44:48.664Z,,,,,,,,,,,,,,,,,,,,,,,,,,,,,,104729.99999987363,,completion,,,,,,,,,,,,,,,,,,,,,322270.80499986187,322270.19499987364,217523.93,217537.72999998182,217540.195,322273.325,,,
Trap_instruction,html.Page,1_2_0,2021-04-25T21:44:50.367Z,,,,,,,,,,,,,,,,,,,,,,,,,,,,,,1700.5650000229361,,form submission,,,,,,,,,,,,,,,,,,,,,323974.19500001706,323973.89000002295,322257.062,322270.9549998399,322273.325,324006.399,,,
trap_trial,html.Screen,1_2_1,2021-04-25T21:44:55.668Z,,,,,,,,,,,,,,,,,,,,,,,,,,,true,1,,5266.555999934906,,response,,,,,,,,,,,1,click #choice-1,,,,,,,,,329274.4849999435,329272.9549999349,323957.384,323974.339999957,324006.399,329288.979,,,
end of trap trial,html.Page,1_2_2,2021-04-25T21:44:58.718Z,,,,,,,,,,,,,,,,,,,,,,,,,,,,,,3035.335999859788,,form submission,,,,,,,,,,,,,,,,,,,,,332324.6799998451,332324.3149998598,329272.636,329274.6999999508,329288.979,332338.711,,,
Trap 1,flow.Sequence,1_2,2021-04-25T21:44:58.718Z,,,,,,,,,,,,,,,,,,,,,,,,,,,,,,10050.989999859768,,completion,,,,,,,,,,,,,,,,,,,,,332324.90499992855,332324.3149998598,322257.062,322270.9099999629,322273.325,332338.711,,,
Standby,html.Page,1_3_0,2021-04-25T21:45:06.715Z,,,,,,,,,,,,,,,,,,,,,,,,,,,,,,7998.425999999978,,timeout,,,,,,,,,,,,,,,,,,,,,340321.65999989957,340320.752,332322.217,332325.05499990657,332338.711,340337.137,,,
Holding screen,html.Screen,1_3_1_0_0,2021-04-25T21:45:13.714Z,,,,,,,,,,,,,,,,,,,,,,,,,,,,,,6998.823000000033,,timeout,,,,,,,,,,,,,,,,,,,,,347320.579999825,347319.71,340320.752,340321.9449999742,340337.137,347335.96,,,
screen,html.Screen,1_3_1_0_1_0,2021-04-25T21:45:14.502Z,,,,,,,,,,,,,,,,2,,,,,,,,,,,,,,770.9700000089942,,response,,,,1,C,,,,,,Space,keypress(Space),,,,instrumental,,,,Two ---- ------ --- ------- ---------- ------- ----------<br>--- --------- --- ----------- ------- ----- ------- ---<br>--------- ---- -- --- ---- -- --------- -- ---- -------<br>-- --------- ------ --- ----- ------ ---- --- --------- --<br>------ - ---- -- --- ----------- ------- ---- ----- -----<br>--- -------- - ------ ---- -- ----- ---- --- --- -----------<br>-- -------,348108.40000002645,348106.930000009,347319.71,347320.8749999758,347335.96,348120.134,,0,Two
screen,html.Screen,1_3_1_0_1_1,2021-04-25T21:45:15.136Z,,,,,,,,,,,,,,,,2,,,,,,,,,,,,,,621.2209998309263,,response,,,,1,C,,,,,,Space,keypress(Space),,,,instrumental,,,,--- days ------ --- ------- ---------- ------- ----------<br>--- --------- --- ----------- ------- ----- ------- ---<br>--------- ---- -- --- ---- -- --------- -- ---- -------<br>-- --------- ------ --- ----- ------ ---- --- --------- --<br>------ - ---- -- --- ----------- ------- ---- ----- -----<br>--- -------- - ------ ---- -- ----- ---- --- --- -----------<br>-- -------,348742.454999825,348741.35499983095,348103.088,348108.6799998302,348120.134,348752.479,,1,days
screen,html.Screen,1_3_1_0_1_2,2021-04-25T21:45:15.571Z,,,,,,,,,,,,,,,,2,,,,,,,,,,,,,,424.0859998560627,,response,,,,1,C,,,,,,Space,keypress(Space),,,,instrumental,,,,"--- ---- later, --- ------- ---------- ------- ----------<br>--- --------- --- ----------- ------- ----- ------- ---<br>--------- ---- -- --- ---- -- --------- -- ---- -------<br>-- --------- ------ --- ----- ------ ---- --- --------- --<br>------ - ---- -- --- ----------- ------- ---- ----- -----<br>--- -------- - ------ ---- -- ----- ---- --- --- -----------<br>-- -------",349177.7849998325,349176.56499985605,348736.205,348742.86499992013,348752.479,349185.694,,2,"later,"
screen,html.Screen,1_3_1_0_1_3,2021-04-25T21:45:16.019Z,,,,,,,,,,,,,,,,2,,,,,,,,,,,,,,439.40599983010907,,response,,,,1,C,,,,,,Space,keypress(Space),,,,instrumental,,,,--- ---- ------ the ------- ---------- ------- ----------<br>--- --------- --- ----------- ------- ----- ------- ---<br>--------- ---- -- --- ---- -- --------- -- ---- -------<br>-- --------- ------ --- ----- ------ ---- --- --------- --<br>------ - ---- -- --- ----------- ------- ---- ----- -----<br>--- -------- - ------ ---- -- ----- ---- --- --- -----------<br>-- -------,349626.17499986663,349625.0999998301,349169.318,349178.06999990717,349185.694,349635.979,,3,the
screen,html.Screen,1_3_1_0_1_4,2021-04-25T21:45:16.466Z,,,,,,,,,,,,,,,,2,,,,,,,,,,,,,,435.8059999200632,,response,,,,1,C,,,,,,Space,keypress(Space),,,,instrumental,,,,--- ---- ------ --- British ---------- ------- ----------<br>--- --------- --- ----------- ------- ----- ------- ---<br>--------- ---- -- --- ---- -- --------- -- ---- -------<br>-- --------- ------ --- ----- ------ ---- --- --------- --<br>------ - ---- -- --- ----------- ------- ---- ----- -----<br>--- -------- - ------ ---- -- ----- ---- --- --- -----------<br>-- -------,350072.99999985844,350071.78499992006,349619.473,349626.4899999369,349635.979,350085.882,,4,British
screen,html.Screen,1_3_1_0_1_5,2021-04-25T21:45:17.058Z,,,,,,,,,,,,,,,,2,,,,,,,,,,,,,,577.672999977367,,response,,,,1,C,,,,,,Space,keypress(Space),,,,instrumental,,,,--- ---- ------ --- ------- astronomer ------- ----------<br>--- --------- --- ----------- ------- ----- ------- ---<br>--------- ---- -- --- ---- -- --------- -- ---- -------<br>-- --------- ------ --- ----- ------ ---- --- --------- --<br>------ - ---- -- --- ----------- ------- ---- ----- -----<br>--- -------- - ------ ---- -- ----- ---- --- --- -----------<br>-- -------,350664.6199999377,350663.55499997735,350069.235,350073.3300000429,350085.882,350668.845,,5,astronomer
screen,html.Screen,1_3_1_0_1_6,2021-04-25T21:45:17.662Z,,,,,,,,,,,,,,,,2,,,,,,,,,,,,,,598.4749998680782,,response,,,,1,C,,,,,,Space,keypress(Space),,,,instrumental,,,,--- ---- ------ --- ------- ---------- Richard ----------<br>--- --------- --- ----------- ------- ----- ------- ---<br>--------- ---- -- --- ---- -- --------- -- ---- -------<br>-- --------- ------ --- ----- ------ ---- --- --------- --<br>------ - ---- -- --- ----------- ------- ---- ----- -----<br>--- -------- - ------ ---- -- ----- ---- --- --- -----------<br>-- -------,351268.2799999602,351267.31999986805,350652.503,350664.935000008,350668.845,351302.194,,6,Richard
screen,html.Screen,1_3_1_0_1_7,2021-04-25T21:45:18.286Z,,,,,,,,,,,,,,,,2,,,,,,,,,,,,,,589.7959999163868,,response,,,,1,C,,,,,,Space,keypress(Space),,,,instrumental,,,,--- ---- ------ --- ------- ---------- ------- Carrington<br>--- --------- --- ----------- ------- ----- ------- ---<br>--------- ---- -- --- ---- -- --------- -- ---- -------<br>-- --------- ------ --- ----- ------ ---- --- --------- --<br>------ - ---- -- --- ----------- ------- ---- ----- -----<br>--- -------- - ------ ---- -- ----- ---- --- --- -----------<br>-- -------,351893.1999998167,351891.9899999164,351285.71,351268.61499994993,351302.194,351902.306,,7,Carrington
screen,html.Screen,1_3_1_0_1_8,2021-04-25T21:45:18.679Z,,,,,,,,,,,,,,,,2,,,,,,,,,,,,,,382.42399995576125,,response,,,,1,C,,,,,,Space,keypress(Space),,,,instrumental,,,,--- ---- ------ --- ------- ---------- ------- ----------<br>was --------- --- ----------- ------- ----- ------- ---<br>--------- ---- -- --- ---- -- --------- -- ---- -------<br>-- --------- ------ --- ----- ------ ---- --- --------- --<br>------ - ---- -- --- ----------- ------- ---- ----- -----<br>--- -------- - ------ ---- -- ----- ---- --- --- -----------<br>-- -------,352285.74500000104,352284.72999995574,351885.615,351893.5000000056,351902.306,352301.964,,8,was
screen,html.Screen,1_3_1_0_1_9,2021-04-25T21:45:19.259Z,,,,,,,,,,,,,,,,2,,,,,,,,,,,,,,562.7609999921988,,response,,,,1,C,,,,,,Space,keypress(Space),,,,instrumental,,,,--- ---- ------ --- ------- ---------- ------- ----------<br>--- observing --- ----------- ------- ----- ------- ---<br>--------- ---- -- --- ---- -- --------- -- ---- -------<br>-- --------- ------ --- ----- ------ ---- --- --------- --<br>------ - ---- -- --- ----------- ------- ---- ----- -----<br>--- -------- - ------ ---- -- ----- ---- --- --- -----------<br>-- -------,352865.9299998544,352864.7249999922,352285.542,352285.9199999366,352301.964,352868.488,,9,observing
screen,html.Screen,1_3_1_0_1_10,2021-04-25T21:45:19.657Z,,,,,,,,,,,,,,,,2,,,,,,,,,,,,,,393.53200002375524,,response,,,,1,C,,,,,,Space,keypress(Space),,,,instrumental,,,,--- ---- ------ --- ------- ---------- ------- ----------<br>--- --------- the ----------- ------- ----- ------- ---<br>--------- ---- -- --- ---- -- --------- -- ---- -------<br>-- --------- ------ --- ----- ------ ---- --- --------- --<br>------ - ---- -- --- ----------- ------- ---- ----- -----<br>--- -------- - ------ ---- -- ----- ---- --- --- -----------<br>-- -------,353263.2750000339,353262.02000002377,352852.127,352866.209999891,352868.488,353268.37,,10,the
screen,html.Screen,1_3_1_0_1_11,2021-04-25T21:45:20.226Z,,,,,,,,,,,,,,,,2,,,,,,,,,,,,,,562.9749998386251,,response,,,,1,C,,,,,,Space,keypress(Space),,,,instrumental,,,,--- ---- ------ --- ------- ---------- ------- ----------<br>--- --------- --- interesting ------- ----- ------- ---<br>--------- ---- -- --- ---- -- --------- -- ---- -------<br>-- --------- ------ --- ----- ------ ---- --- --------- --<br>------ - ---- -- --- ----------- ------- ---- ----- -----<br>--- -------- - ------ ---- -- ----- ---- --- --- -----------<br>-- -------,353832.3599998839,353831.3449998386,353252.081,353263.53999995627,353268.37,353834.992,,11,interesting
screen,html.Screen,1_3_1_0_1_12,2021-04-25T21:45:20.849Z,,,,,,,,,,,,,,,,2,,,,,,,,,,,,,,619.2429998373264,,response,,,,1,C,,,,,,Space,keypress(Space),,,,instrumental,,,,--- ---- ------ --- ------- ---------- ------- ----------<br>--- --------- --- ----------- sunspot ----- ------- ---<br>--------- ---- -- --- ---- -- --------- -- ---- -------<br>-- --------- ------ --- ----- ------ ---- --- --------- --<br>------ - ---- -- --- ----------- ------- ---- ----- -----<br>--- -------- - ------ ---- -- ----- ---- --- --- -----------<br>-- -------,354455.2599999588,354454.23499983735,353818.769,353832.5449998956,353834.992,354468.356,,12,sunspot
screen,html.Screen,1_3_1_0_1_13,2021-04-25T21:45:21.421Z,,,,,,,,,,,,,,,,2,,,,,,,,,,,,,,558.4189999183873,,response,,,,1,C,,,,,,Space,keypress(Space),,,,instrumental,,,,--- ---- ------ --- ------- ---------- ------- ----------<br>--- --------- --- ----------- ------- group ------- ---<br>--------- ---- -- --- ---- -- --------- -- ---- -------<br>-- --------- ------ --- ----- ------ ---- --- --------- --<br>------ - ---- -- --- ----------- ------- ---- ----- -----<br>--- -------- - ------ ---- -- ----- ---- --- --- -----------<br>-- -------,355027.8849999886,355026.7749999184,354452.073,354455.43499989435,354468.356,355034.837,,13,group
screen,html.Screen,1_3_1_0_1_14,2021-04-25T21:45:22.007Z,,,,,,,,,,,,,,,,2,,,,,,,,,,,,,,578.1279998620157,,response,,,,1,C,,,,,,Space,keypress(Space),,,,instrumental,,,,--- ---- ------ --- ------- ---------- ------- ----------<br>--- --------- --- ----------- ------- ----- through ---<br>--------- ---- -- --- ---- -- --------- -- ---- -------<br>-- --------- ------ --- ----- ------ ---- --- --------- --<br>------ - ---- -- --- ----------- ------- ---- ----- -----<br>--- -------- - ------ ---- -- ----- ---- --- --- -----------<br>-- -------,355614.18000003323,355612.964999862,355018.409,355028.1950000208,355034.837,355618.058,,14,through
screen,html.Screen,1_3_1_0_1_15,2021-04-25T21:45:22.528Z,,,,,,,,,,,,,,,,2,,,,,,,,,,,,,,515.6769999230164,,response,,,,1,C,,,,,,Space,keypress(Space),,,,instrumental,,,,--- ---- ------ --- ------- ---------- ------- ----------<br>--- --------- --- ----------- ------- ----- ------- his<br>--------- ---- -- --- ---- -- --------- -- ---- -------<br>-- --------- ------ --- ----- ------ ---- --- --------- --<br>------ - ---- -- --- ----------- ------- ---- ----- -----<br>--- -------- - ------ ---- -- ----- ---- --- --- -----------<br>-- -------,356134.8899998702,356133.73499992304,355601.763,355614.459999837,355618.058,356151.359,,15,his
screen,html.Screen,1_3_1_0_1_16,2021-04-25T21:45:23.206Z,,,,,,,,,,,,,,,,2,,,,,,,,,,,,,,660.1809999078396,,response,,,,1,C,,,,,,Space,keypress(Space),,,,instrumental,,,,--- ---- ------ --- ------- ---------- ------- ----------<br>--- --------- --- ----------- ------- ----- ------- ---<br>telescope ---- -- --- ---- -- --------- -- ---- -------<br>-- --------- ------ --- ----- ------ ---- --- --------- --<br>------ - ---- -- --- ----------- ------- ---- ----- -----<br>--- -------- - ------ ---- -- ----- ---- --- --- -----------<br>-- -------,356812.7899998799,356811.53999990784,356135.047,356135.17499994487,356151.359,356817.791,,16,telescope
screen,html.Screen,1_3_1_0_1_17,2021-04-25T21:45:23.674Z,,,,,,,,,,,,,,,,2,,,,,,,,,,,,,,462.0589998170617,,response,,,,1,C,,,,,,Space,keypress(Space),,,,instrumental,,,,--- ---- ------ --- ------- ---------- ------- ----------<br>--- --------- --- ----------- ------- ----- ------- ---<br>--------- when -- --- ---- -- --------- -- ---- -------<br>-- --------- ------ --- ----- ------ ---- --- --------- --<br>------ - ---- -- --- ----------- ------- ---- ----- -----<br>--- -------- - ------ ---- -- ----- ---- --- --- -----------<br>-- -------,357281.0749998316,357279.8499998171,356801.484,356813.1549998652,356817.791,357284.417,,17,when
screen,html.Screen,1_3_1_0_1_18,2021-04-25T21:45:24.202Z,,,,,,,,,,,,,,,,2,,,,,,,,,,,,,,522.978000010713,,response,,,,1,C,,,,,,Space,keypress(Space),,,,instrumental,,,,--- ---- ------ --- ------- ---------- ------- ----------<br>--- --------- --- ----------- ------- ----- ------- ---<br>--------- ---- he --- ---- -- --------- -- ---- -------<br>-- --------- ------ --- ----- ------ ---- --- --------- --<br>------ - ---- -- --- ----------- ------- ---- ----- -----<br>--- -------- - ------ ---- -- ----- ---- --- --- -----------<br>-- -------,357808.6899998598,357807.3950000107,357268.14,357281.3450000249,357284.417,357817.917,,18,he
screen,html.Screen,1_3_1_0_1_19,2021-04-25T21:45:24.645Z,,,,,,,,,,,,,,,,2,,,,,,,,,,,,,,433.0579999735346,,response,,,,1,C,,,,,,Space,keypress(Space),,,,instrumental,,,,--- ---- ------ --- ------- ---------- ------- ----------<br>--- --------- --- ----------- ------- ----- ------- ---<br>--------- ---- -- saw ---- -- --------- -- ---- -------<br>-- --------- ------ --- ----- ------ ---- --- --------- --<br>------ - ---- -- --- ----------- ------- ---- ----- -----<br>--- -------- - ------ ---- -- ----- ---- --- --- -----------<br>-- -------,358252.1999999881,358250.97499997355,357801.996,357808.9299998246,357817.917,358267.832,,19,saw
screen,html.Screen,1_3_1_0_1_20,2021-04-25T21:45:25.052Z,,,,,,,,,,,,,,,,2,,,,,,,,,,,,,,390.02799991931533,,response,,,,1,C,,,,,,Space,keypress(Space),,,,instrumental,,,,--- ---- ------ --- ------- ---------- ------- ----------<br>--- --------- --- ----------- ------- ----- ------- ---<br>--------- ---- -- --- what -- --------- -- ---- -------<br>-- --------- ------ --- ----- ------ ---- --- --------- --<br>------ - ---- -- --- ----------- ------- ---- ----- -----<br>--- -------- - ------ ---- -- ----- ---- --- --- -----------<br>-- -------,358658.9249998797,358657.8599999193,358251.203,358252.5349999778,358267.832,358667.909,,20,what
screen,html.Screen,1_3_1_0_1_21,2021-04-25T21:45:25.534Z,,,,,,,,,,,,,,,,2,,,,,,,,,,,,,,471.651000039652,,response,,,,1,C,,,,,,Space,keypress(Space),,,,instrumental,,,,--- ---- ------ --- ------- ---------- ------- ----------<br>--- --------- --- ----------- ------- ----- ------- ---<br>--------- ---- -- --- ---- he --------- -- ---- -------<br>-- --------- ------ --- ----- ------ ---- --- --------- --<br>------ - ---- -- --- ----------- ------- ---- ----- -----<br>--- -------- - ------ ---- -- ----- ---- --- --- -----------<br>-- -------,359140.67999995314,359139.56000003964,358651.156,358659.2299998738,358667.909,359151.178,,21,he
screen,html.Screen,1_3_1_0_1_22,2021-04-25T21:45:26.030Z,,,,,,,,,,,,,,,,2,,,,,,,,,,,,,,484.86699981737183,,response,,,,1,C,,,,,,Space,keypress(Space),,,,instrumental,,,,--- ---- ------ --- ------- ---------- ------- ----------<br>--- --------- --- ----------- ------- ----- ------- ---<br>--------- ---- -- --- ---- -- described -- ---- -------<br>-- --------- ------ --- ----- ------ ---- --- --------- --<br>------ - ---- -- --- ----------- ------- ---- ----- -----<br>--- -------- - ------ ---- -- ----- ---- --- --- -----------<br>-- -------,359636.99000002816,359636.0449998174,359134.417,359140.95499995165,359151.178,359651.097,,22,described
screen,html.Screen,1_3_1_0_1_23,2021-04-25T21:45:26.452Z,,,,,,,,,,,,,,,,2,,,,,,,,,,,,,,406.49799990380416,,response,,,,1,C,,,,,,Space,keypress(Space),,,,instrumental,,,,--- ---- ------ --- ------- ---------- ------- ----------<br>--- --------- --- ----------- ------- ----- ------- ---<br>--------- ---- -- --- ---- -- --------- as ---- -------<br>-- --------- ------ --- ----- ------ ---- --- --------- --<br>------ - ---- -- --- ----------- ------- ---- ----- -----<br>--- -------- - ------ ---- -- ----- ---- --- --- -----------<br>-- -------,360058.59999987297,360057.5949999038,359634.335,359637.1499998495,359651.097,360067.348,,23,as
screen,html.Screen,1_3_1_0_1_24,2021-04-25T21:45:27.059Z,,,,,,,,,,,,,,,,2,,,,,,,,,,,,,,597.2619998615701,,response,,,,1,C,,,,,,Space,keypress(Space),,,,instrumental,,,,"--- ---- ------ --- ------- ---------- ------- ----------<br>--- --------- --- ----------- ------- ----- ------- ---<br>--------- ---- -- --- ---- -- --------- -- ""two -------<br>-- --------- ------ --- ----- ------ ---- --- --------- --<br>------ - ---- -- --- ----------- ------- ---- ----- -----<br>--- -------- - ------ ---- -- ----- ---- --- --- -----------<br>-- -------",360665.67499982193,360664.60999986157,360050.742,360058.7649999652,360067.348,360702.175,,24,"""two"
screen,html.Screen,1_3_1_0_1_25,2021-04-25T21:45:27.622Z,,,,,,,,,,,,,,,,2,,,,,,,,,,,,,,525.1549999069539,,response,,,,1,C,,,,,,Space,keypress(Space),,,,instrumental,,,,--- ---- ------ --- ------- ---------- ------- ----------<br>--- --------- --- ----------- ------- ----- ------- ---<br>--------- ---- -- --- ---- -- --------- -- ---- patches<br>-- --------- ------ --- ----- ------ ---- --- --------- --<br>------ - ---- -- --- ----------- ------- ---- ----- -----<br>--- -------- - ------ ---- -- ----- ---- --- --- -----------<br>-- -------,361228.49999996834,361227.32999990694,360650.612,360665.8599998336,360702.175,361233.792,,25,patches
screen,html.Screen,1_3_1_0_1_26,2021-04-25T21:45:28.059Z,,,,,,,,,,,,,,,,2,,,,,,,,,,,,,,431.11300001235213,,response,,,,1,C,,,,,,Space,keypress(Space),,,,instrumental,,,,--- ---- ------ --- ------- ---------- ------- ----------<br>--- --------- --- ----------- ------- ----- ------- ---<br>--------- ---- -- --- ---- -- --------- -- ---- -------<br>of --------- ------ --- ----- ------ ---- --- --------- --<br>------ - ---- -- --- ----------- ------- ---- ----- -----<br>--- -------- - ------ ---- -- ----- ---- --- --- -----------<br>-- -------,361665.8999999054,361664.90500001237,361217.325,361228.7649998907,361233.792,361702.478,,26,of
screen,html.Screen,1_3_1_0_1_27,2021-04-25T21:45:28.610Z,,,,,,,,,,,,,,,,2,,,,,,,,,,,,,,512.9319999461295,,response,,,,1,C,,,,,,Space,keypress(Space),,,,instrumental,,,,--- ---- ------ --- ------- ---------- ------- ----------<br>--- --------- --- ----------- ------- ----- ------- ---<br>--------- ---- -- --- ---- -- --------- -- ---- -------<br>-- intensely ------ --- ----- ------ ---- --- --------- --<br>------ - ---- -- --- ----------- ------- ---- ----- -----<br>--- -------- - ------ ---- -- ----- ---- --- --- -----------<br>-- -------,362216.5949998889,362215.40999994613,361650.821,361666.079999879,361702.478,362233.638,,27,intensely
screen,html.Screen,1_3_1_0_1_28,2021-04-25T21:45:29.234Z,,,,,,,,,,,,,,,,2,,,,,,,,,,,,,,606.1669999959995,,response,,,,1,C,,,,,,Space,keypress(Space),,,,instrumental,,,,--- ---- ------ --- ------- ---------- ------- ----------<br>--- --------- --- ----------- ------- ----- ------- ---<br>--------- ---- -- --- ---- -- --------- -- ---- -------<br>-- --------- bright --- ----- ------ ---- --- --------- --<br>------ - ---- -- --- ----------- ------- ---- ----- -----<br>--- -------- - ------ ---- -- ----- ---- --- --- -----------<br>-- -------,362840.8200000413,362839.804999996,362217.365,362216.899999883,362233.638,362850.581,,28,bright
screen,html.Screen,1_3_1_0_1_29,2021-04-25T21:45:29.728Z,,,,,,,,,,,,,,,,2,,,,,,,,,,,,,,483.13399995700456,,response,,,,1,C,,,,,,Space,keypress(Space),,,,instrumental,,,,--- ---- ------ --- ------- ---------- ------- ----------<br>--- --------- --- ----------- ------- ----- ------- ---<br>--------- ---- -- --- ---- -- --------- -- ---- -------<br>-- --------- ------ and ----- ------ ---- --- --------- --<br>------ - ---- -- --- ----------- ------- ---- ----- -----<br>--- -------- - ------ ---- -- ----- ---- --- --- -----------<br>-- -------,363334.7899999935,363333.714999957,362833.855,362841.00499982014,362850.581,363350.432,,29,and
screen,html.Screen,1_3_1_0_1_30,2021-04-25T21:45:30.235Z,,,,,,,,,,,,,,,,2,,,,,,,,,,,,,,490.8829998523579,,response,,,,1,C,,,,,,Space,keypress(Space),,,,instrumental,,,,--- ---- ------ --- ------- ---------- ------- ----------<br>--- --------- --- ----------- ------- ----- ------- ---<br>--------- ---- -- --- ---- -- --------- -- ---- -------<br>-- --------- ------ --- white ------ ---- --- --------- --<br>------ - ---- -- --- ----------- ------- ---- ----- -----<br>--- -------- - ------ ---- -- ----- ---- --- --- -----------<br>-- -------,363842.2399999108,363841.31499985233,363333.541,363335.05999995396,363350.432,363850.052,,30,white
screen,html.Screen,1_3_1_0_1_31,2021-04-25T21:45:30.678Z,,,,,,,,,,,,,,,,2,,,,,,,,,,,,,,433.523000008543,,response,,,,1,C,,,,,,Space,keypress(Space),,,,instrumental,,,,"--- ---- ------ --- ------- ---------- ------- ----------<br>--- --------- --- ----------- ------- ----- ------- ---<br>--------- ---- -- --- ---- -- --------- -- ---- -------<br>-- --------- ------ --- ----- light"" ---- --- --------- --<br>------ - ---- -- --- ----------- ------- ---- ----- -----<br>--- -------- - ------ ---- -- ----- ---- --- --- -----------<br>-- -------",364284.4699998386,364283.57500000857,363833.473,363842.4100000411,363850.052,364300.212,,31,"light"""
screen,html.Screen,1_3_1_0_1_32,2021-04-25T21:45:31.130Z,,,,,,,,,,,,,,,,2,,,,,,,,,,,,,,435.14300001162337,,response,,,,1,C,,,,,,Space,keypress(Space),,,,instrumental,,,,--- ---- ------ --- ------- ---------- ------- ----------<br>--- --------- --- ----------- ------- ----- ------- ---<br>--------- ---- -- --- ---- -- --------- -- ---- -------<br>-- --------- ------ --- ----- ------ over --- --------- --<br>------ - ---- -- --- ----------- ------- ---- ----- -----<br>--- -------- - ------ ---- -- ----- ---- --- --- -----------<br>-- -------,364736.614999827,364735.3550000116,364283.435,364284.63499993086,364300.212,364750.154,,32,over
screen,html.Screen,1_3_1_0_1_33,2021-04-25T21:45:31.532Z,,,,,,,,,,,,,,,,2,,,,,,,,,,,,,,387.1459998275386,,response,,,,1,C,,,,,,Space,keypress(Space),,,,instrumental,,,,--- ---- ------ --- ------- ---------- ------- ----------<br>--- --------- --- ----------- ------- ----- ------- ---<br>--------- ---- -- --- ---- -- --------- -- ---- -------<br>-- --------- ------ --- ----- ------ ---- the --------- --<br>------ - ---- -- --- ----------- ------- ---- ----- -----<br>--- -------- - ------ ---- -- ----- ---- --- --- -----------<br>-- -------,365138.5599998757,365137.2999998275,364733.42,364736.88500002027,364750.154,365150.148,,33,the
screen,html.Screen,1_3_1_0_1_34,2021-04-25T21:45:32.075Z,,,,,,,,,,,,,,,,2,,,,,,,,,,,,,,530.2719998732791,,response,,,,1,C,,,,,,Space,keypress(Space),,,,instrumental,,,,--- ---- ------ --- ------- ---------- ------- ----------<br>--- --------- --- ----------- ------- ----- ------- ---<br>--------- ---- -- --- ---- -- --------- -- ---- -------<br>-- --------- ------ --- ----- ------ ---- --- sunspots. --<br>------ - ---- -- --- ----------- ------- ---- ----- -----<br>--- -------- - ------ ---- -- ----- ---- --- --- -----------<br>-- -------,365681.4749999903,365680.41999987327,365133.184,365138.85999983177,365150.148,365712.466,,34,sunspots.
screen,html.Screen,1_3_1_0_1_35,2021-04-25T21:45:32.553Z,,,,,,,,,,,,,,,,2,,,,,,,,,,,,,,445.75899990461767,,response,,,,1,C,,,,,,Space,keypress(Space),,,,instrumental,,,,--- ---- ------ --- ------- ---------- ------- ----------<br>--- --------- --- ----------- ------- ----- ------- ---<br>--------- ---- -- --- ---- -- --------- -- ---- -------<br>-- --------- ------ --- ----- ------ ---- --- --------- He<br>------ - ---- -- --- ----------- ------- ---- ----- -----<br>--- -------- - ------ ---- -- ----- ---- --- --- -----------<br>-- -------,366159.47999991477,366158.22499990463,365666.453,365681.7949998658,365712.466,366166.357,,35,He
screen,html.Screen,1_3_1_0_1_36,2021-04-25T21:45:33.048Z,,,,,,,,,,,,,,,,2,,,,,,,,,,,,,,487.55799991526874,,response,,,,1,C,,,,,,Space,keypress(Space),,,,instrumental,,,,--- ---- ------ --- ------- ---------- ------- ----------<br>--- --------- --- ----------- ------- ----- ------- ---<br>--------- ---- -- --- ---- -- --------- -- ---- -------<br>-- --------- ------ --- ----- ------ ---- --- --------- --<br>jotted - ---- -- --- ----------- ------- ---- ----- -----<br>--- -------- - ------ ---- -- ----- ---- --- --- -----------<br>-- -------,366655.13499989174,366653.9149999153,366150.086,366159.77499983273,366166.357,366666.623,,36,jotted
