sender,sender_type,sender_id,timestamp,meta,,Blues,Classical,Country,Dance,Electronic,Folk,Gospel,Hip-Hop,Jazz,Latin,Musical/Film,New-age,Pop,Provo_ID,R&B,Rap,Reggae,Religious,Rock,Soul,Swing,Traditional,age,artist_name,correct,correctResponse,distraction,duration,education,ended_on,familiarity,gender,headphone_check_performance,item,list,music_frequency,offensiveness,pleasantness,position_correct,preference,response,response_action,snippet_file,song_name,song_rating,sound,stimulus_1,stimulus_2,stimulus_3,text,time_commit,time_end,time_render,time_run,time_show,time_switch,url,word,word_ID
Introduction,html.Screen,0_0,2021-04-20T10:56:22.678Z,"{""labjs_version"":""20.2.2"",""labjs_build"":{""flavor"":""production"",""commit"":""a25486e0c714a0ae2ce03ff94b7bb6896854dcfa""},""location"":""https://run.pavlovia.org/mvasilev/music_e/"",""userAgent"":""Mozilla/5.0 (Macintosh; Intel Mac OS X 10_15_6) AppleWebKit/605.1.15 (KHTML, like Gecko) Version/13.1.2 Safari/605.1.15"",""platform"":""MacIntel"",""language"":""en-gb"",""locale"":""en-GB"",""timeZone"":""Europe/London"",""timezoneOffset"":-60,""screen_width"":1440,""screen_height"":900,""scroll_width"":1440,""scroll_height"":852,""window_innerWidth"":1440,""window_innerHeight"":900,""devicePixelRatio"":2}",,,,,,,,,,,,,,,,,,,,,,,,,,,,,8563,,response,,,,,,,,,,,continue,click button,,,,,,,,,27343,27434,18871,18855,18893,27369,{},,
Volume calibration,html.Screen,0_1,2021-04-20T10:56:47.765Z,,,,,,,,,,,,,,,,,,,,,,,,,,,,,,25184,,response,,,,,,,,,,,continue,click button,,,,,,,,,52431.00000000001,52537,27353,27344,27369,52453,,,
Task instructions,html.Screen,0_2,2021-04-20T10:56:55.911Z,,,,,,,,,,,,,,,,,,,,,,,,,,,,,,8247,,response,,,,,,,,,,,continue,click button,,,,,,,,,60577,60683,52436,52431.00000000001,52453,60597,,,
Sounds,html.Screen,0_3_0_0,2021-04-20T10:57:00.163Z,,,,,,,,,,,,,,,,,,,,,,,,,,,,,,4249,,timeout,,,,,,,,,3,,,,,,,,I,O,S,,64829.00000000001,64829,60581,60577,60597,64846,,,
Judgement,html.Screen,0_3_0_1,2021-04-20T10:57:03.404Z,,,,,,,,,,,,,,,,,,,,,,,,,,,true,3,,3348,,response,,,,,,,,,3,,3,click #choice-3,,,,,I,O,S,,68070.00000000001,68177,64829,64829.00000000001,64846,68097,,,
Trial,flow.Sequence,0_3_0,2021-04-20T10:57:03.404Z,,,,,,,,,,,,,,,,,,,,,,,,,,,,,,7580,,completion,,,,,,,,,3,,,,,,,,I,O,S,,68070.00000000001,68177,60581,60577,60597,68097,,,
Sounds,html.Screen,0_3_1_0,2021-04-20T10:57:07.664Z,,,,,,,,,,,,,,,,,,,,,,,,,,,,,,4250,,timeout,,,,,,,,,3,,,,,,,,O,I,S,,72330,72330,68081,68070.00000000001,68097,72347,,,
Judgement,html.Screen,0_3_1_1,2021-04-20T10:57:08.848Z,,,,,,,,,,,,,,,,,,,,,,,,,,,true,3,,1291,,response,,,,,,,,,3,,3,click #choice-3,,,,,O,I,S,,73514,73621,72330,72330,72347,73535,,,
Trial,flow.Sequence,0_3_1,2021-04-20T10:57:08.848Z,,,,,,,,,,,,,,,,,,,,,,,,,,,,,,5524,,completion,,,,,,,,,3,,,,,,,,O,I,S,,73514,73621,68081,68070.00000000001,68097,73535,,,
Sounds,html.Screen,0_3_2_0,2021-04-20T10:57:13.102Z,,,,,,,,,,,,,,,,,,,,,,,,,,,,,,4250,,timeout,,,,,,,,,1,,,,,,,,S,O,I,,77768,77768,73518,73514,73535,77785,,,
Judgement,html.Screen,0_3_2_1,2021-04-20T10:57:13.884Z,,,,,,,,,,,,,,,,,,,,,,,,,,,false,1,,889,,response,,,,,,,,,1,,3,click #choice-3,,,,,S,O,I,,78550,78657,77768,77768,77785,78573,,,
Trial,flow.Sequence,0_3_2,2021-04-20T10:57:13.884Z,,,,,,,,,,,,,,,,,,,,,,,,,,,,,,5122,,completion,,,,,,,,,1,,,,,,,,S,O,I,,78550,78657,73518,73514,73535,78573,,,
Sounds,html.Screen,0_3_3_0,2021-04-20T10:57:18.140Z,,,,,,,,,,,,,,,,,,,,,,,,,,,,,,4249,,timeout,,,,,,,,,1,,,,,,,,S,I,O,,82807,82806,78556,78550,78573,82822,,,
Judgement,html.Screen,0_3_3_1,2021-04-20T10:57:18.763Z,,,,,,,,,,,,,,,,,,,,,,,,,,,true,1,,731,,response,,,,,,,,,1,,1,click #choice-1,,,,,S,I,O,,83430,83537,82806,82807,82822,83450,,,
Trial,flow.Sequence,0_3_3,2021-04-20T10:57:18.764Z,,,,,,,,,,,,,,,,,,,,,,,,,,,,,,4964,,completion,,,,,,,,,1,,,,,,,,S,I,O,,83430,83537,78556,78550,78573,83450,,,
Sounds,html.Screen,0_3_4_0,2021-04-20T10:57:23.016Z,,,,,,,,,,,,,,,,,,,,,,,,,,,,,,4250,,timeout,,,,,,,,,2,,,,,,,,I,S,O,,87682,87682,83433,83430,83450,87700,,,
Judgement,html.Screen,0_3_4_1,2021-04-20T10:57:23.472Z,,,,,,,,,,,,,,,,,,,,,,,,,,,true,2,,564,,response,,,,,,,,,2,,2,click #choice-2,,,,,I,S,O,,88139,88246,87682,87682,87700,88169,,,
Trial,flow.Sequence,0_3_4,2021-04-20T10:57:23.472Z,,,,,,,,,,,,,,,,,,,,,,,,,,,,,,4796,,completion,,,,,,,,,2,,,,,,,,I,S,O,,88139,88246,83433,83430,83450,88169,,,
Sounds,html.Screen,0_3_5_0,2021-04-20T10:57:27.735Z,,,,,,,,,,,,,,,,,,,,,,,,,,,,,,4250,,timeout,,,,,,,,,2,,,,,,,,O,S,I,,92402,92402,88153,88139,88169,92419,,,
Judgement,html.Screen,0_3_5_1,2021-04-20T10:57:28.377Z,,,,,,,,,,,,,,,,,,,,,,,,,,,true,2,,749,,response,,,,,,,,,2,,2,click #choice-2,,,,,O,S,I,,93043,93151,92402,92402,92419,93068,,,
Trial,flow.Sequence,0_3_5,2021-04-20T10:57:28.377Z,,,,,,,,,,,,,,,,,,,,,,,,,,,,,,4982,,completion,,,,,,,,,2,,,,,,,,O,S,I,,93043,93151,88153,88139,88169,93068,,,
Task,flow.Loop,0_3,2021-04-20T10:57:28.378Z,,,,,,,,,,,,,,,,,,,,,,,,,,,,,,32554,,completion,,,0.8333333333333334,,,,,,,,,,,,,,,,,,93045,93151,60581,60577,60597,93068,,,
Trap,html.Screen,0_4,2021-04-20T10:57:28.379Z,,,,,,,,,,,,,,,,,,,,,,,,,,,,,,NaN,,skipped,,,,,,,,,,,,,,,,,,,,,93046,93151,,93046,,93068,,,
Thanks,html.Screen,0_5,2021-04-20T10:57:33.371Z,,,,,,,,,,,,,,,,,,,,,,,,,,,,,,5093,,response,,,,,,,,,,,continue,click button,,,,,,,,,98038,98145,93052,93046,93068,101887,,,
Headphone screening,flow.Sequence,0,2021-04-20T10:57:33.371Z,,,,,,,,,,,,,,,,,,,,,,,,,,,,,,79252,,completion,,,,,,,,,,,,,,,,,,,,,98038,98145,18871,18855,18893,101887,,,
Instructions,html.Page,1_0,2021-04-20T10:58:06.188Z,,,,,,,,,,,,,,,,,,,,,,,,,,,,,,28965,,form submission,,,,,,,,,,,,,,,,,,,,,130856,130852,101870,101855,101887,130867,,,
Holding screen,html.Screen,1_1_0_0,2021-04-20T10:58:16.186Z,,,,,,,,,,,,,,,,,,,,,,,,,,,,,,10017,,timeout,,,,,,,,,,,,,,,,,,,,,140854,140853,130862,130856,130867,140884,,,
screen,html.Screen,1_1_0_1_0,2021-04-20T10:58:17.579Z,,,,,,,,,,,,,,,,53,,,,,,,,,,,,,,1501,,response,,,,99,,,,,,,Space,keypress(Space),,,,,,,,When -- ----- -- ------ - ------- --- ----------<br>------------- ------ ------ ---- ---- ------- ----- -- ----<br>-------- ------- -- ---------- --- - --- ----- ----- ----<br>---- --- --- ----- --- ---- ---- ------- ----- ---- -------<br>--- --- -- ----- -- --- ---- -- --- ---- -- ------ ------<br>--- ----- -- ----,142247,142354,140853,140854,140884,142273,,0,When
screen,html.Screen,1_1_0_1_1,2021-04-20T10:58:18.161Z,,,,,,,,,,,,,,,,53,,,,,,,,,,,,,,680,,response,,,,99,,,,,,,Space,keypress(Space),,,,,,,,---- it ----- -- ------ - ------- --- ----------<br>------------- ------ ------ ---- ---- ------- ----- -- ----<br>-------- ------- -- ---------- --- - --- ----- ----- ----<br>---- --- --- ----- --- ---- ---- ------- ----- ---- -------<br>--- --- -- ----- -- --- ---- -- --- ---- -- ------ ------<br>--- ----- -- ----,142829,142937,142257,142247,142273,142858,,1,it
screen,html.Screen,1_1_0_1_2,2021-04-20T10:58:18.721Z,,,,,,,,,,,,,,,,53,,,,,,,,,,,,,,656,,response,,,,99,,,,,,,Space,keypress(Space),,,,,,,,---- -- comes -- ------ - ------- --- ----------<br>------------- ------ ------ ---- ---- ------- ----- -- ----<br>-------- ------- -- ---------- --- - --- ----- ----- ----<br>---- --- --- ----- --- ---- ---- ------- ----- ---- -------<br>--- --- -- ----- -- --- ---- -- --- ---- -- ------ ------<br>--- ----- -- ----,143389,143497,142841,142830,142858,143425,,2,comes
screen,html.Screen,1_1_0_1_3,2021-04-20T10:58:19.053Z,,,,,,,,,,,,,,,,53,,,,,,,,,,,,,,420,,response,,,,99,,,,,,,Space,keypress(Space),,,,,,,,---- -- ----- to ------ - ------- --- ----------<br>------------- ------ ------ ---- ---- ------- ----- -- ----<br>-------- ------- -- ---------- --- - --- ----- ----- ----<br>---- --- --- ----- --- ---- ---- ------- ----- ---- -------<br>--- --- -- ----- -- --- ---- -- --- ---- -- ------ ------<br>--- ----- -- ----,143722,143828,143408,143390.00000000003,143425,143741,,3,to
screen,html.Screen,1_1_0_1_4,2021-04-20T10:58:19.466Z,,,,,,,,,,,,,,,,53,,,,,,,,,,,,,,518,,response,,,,99,,,,,,,Space,keypress(Space),,,,,,,,---- -- ----- -- having - ------- --- ----------<br>------------- ------ ------ ---- ---- ------- ----- -- ----<br>-------- ------- -- ---------- --- - --- ----- ----- ----<br>---- --- --- ----- --- ---- ---- ------- ----- ---- -------<br>--- --- -- ----- -- --- ---- -- --- ---- -- ------ ------<br>--- ----- -- ----,144134,144242,143724,143722,143741,144174,,4,having
screen,html.Screen,1_1_0_1_5,2021-04-20T10:58:19.898Z,,,,,,,,,,,,,,,,53,,,,,,,,,,,,,,516,,response,,,,99,,,,,,,Space,keypress(Space),,,,,,,,---- -- ----- -- ------ a ------- --- ----------<br>------------- ------ ------ ---- ---- ------- ----- -- ----<br>-------- ------- -- ---------- --- - --- ----- ----- ----<br>---- --- --- ----- --- ---- ---- ------- ----- ---- -------<br>--- --- -- ----- -- --- ---- -- --- ---- -- ------ ------<br>--- ----- -- ----,144566,144674,144158,144134,144174,144608,,5,a
screen,html.Screen,1_1_0_1_6,2021-04-20T10:58:20.157Z,,,,,,,,,,,,,,,,53,,,,,,,,,,,,,,342,,response,,,,99,,,,,,,Space,keypress(Space),,,,,,,,---- -- ----- -- ------ - lasting --- ----------<br>------------- ------ ------ ---- ---- ------- ----- -- ----<br>-------- ------- -- ---------- --- - --- ----- ----- ----<br>---- --- --- ----- --- ---- ---- ------- ----- ---- -------<br>--- --- -- ----- -- --- ---- -- --- ---- -- ------ ------<br>--- ----- -- ----,144825.00000000003,144933,144591,144566,144608,144858,,6,lasting
screen,html.Screen,1_1_0_1_7,2021-04-20T10:58:20.626Z,,,,,,,,,,,,,,,,53,,,,,,,,,,,,,,561.0000000000291,,response,,,,99,,,,,,,Space,keypress(Space),,,,,,,,---- -- ----- -- ------ - ------- and ----------<br>------------- ------ ------ ---- ---- ------- ----- -- ----<br>-------- ------- -- ---------- --- - --- ----- ----- ----<br>---- --- --- ----- --- ---- ---- ------- ----- ---- -------<br>--- --- -- ----- -- --- ---- -- --- ---- -- ------ ------<br>--- ----- -- ----,145294,145402.00000000003,144841,144825.00000000003,144858,145324,,7,and
screen,html.Screen,1_1_0_1_8,2021-04-20T10:58:20.960Z,,,,,,,,,,,,,,,,53,,,,,,,,,,,,,,428,,response,,,,99,,,,,,,Space,keypress(Space),,,,,,,,---- -- ----- -- ------ - ------- --- fulfilling<br>------------- ------ ------ ---- ---- ------- ----- -- ----<br>-------- ------- -- ---------- --- - --- ----- ----- ----<br>---- --- --- ----- --- ---- ---- ------- ----- ---- -------<br>--- --- -- ----- -- --- ---- -- --- ---- -- ------ ------<br>--- ----- -- ----,145628,145736,145308,145294,145324,145658,,8,fulfilling
screen,html.Screen,1_1_0_1_9,2021-04-20T10:58:21.322Z,,,,,,,,,,,,,,,,53,,,,,,,,,,,,,,457,,response,,,,99,,,,,,,Space,keypress(Space),,,,,,,,"---- -- ----- -- ------ - ------- --- ----------<br>relationship, ------ ------ ---- ---- ------- ----- -- ----<br>-------- ------- -- ---------- --- - --- ----- ----- ----<br>---- --- --- ----- --- ---- ---- ------- ----- ---- -------<br>--- --- -- ----- -- --- ---- -- --- ---- -- ------ ------<br>--- ----- -- ----",145990,146098,145641,145628,145658,146007,,9,"relationship,"
screen,html.Screen,1_1_0_1_10,2021-04-20T10:58:21.739Z,,,,,,,,,,,,,,,,53,,,,,,,,,,,,,,524.0000000000291,,response,,,,99,,,,,,,Space,keypress(Space),,,,,,,,---- -- ----- -- ------ - ------- --- ----------<br>------------- common ------ ---- ---- ------- ----- -- ----<br>-------- ------- -- ---------- --- - --- ----- ----- ----<br>---- --- --- ----- --- ---- ---- ------- ----- ---- -------<br>--- --- -- ----- -- --- ---- -- --- ---- -- ------ ------<br>--- ----- -- ----,146407,146515.00000000003,145991,145990,146007,146445,,10,common
screen,html.Screen,1_1_0_1_11,2021-04-20T10:58:22.123Z,,,,,,,,,,,,,,,,53,,,,,,,,,,,,,,470,,response,,,,99,,,,,,,Space,keypress(Space),,,,,,,,---- -- ----- -- ------ - ------- --- ----------<br>------------- ------ wisdom ---- ---- ------- ----- -- ----<br>-------- ------- -- ---------- --- - --- ----- ----- ----<br>---- --- --- ----- --- ---- ---- ------- ----- ---- -------<br>--- --- -- ----- -- --- ---- -- --- ---- -- ------ ------<br>--- ----- -- ----,146791,146899,146429,146407,146445,146811,,11,wisdom
screen,html.Screen,1_1_0_1_12,2021-04-20T10:58:22.576Z,,,,,,,,,,,,,,,,53,,,,,,,,,,,,,,557,,response,,,,99,,,,,,,Space,keypress(Space),,,,,,,,---- -- ----- -- ------ - ------- --- ----------<br>------------- ------ ------ says ---- ------- ----- -- ----<br>-------- ------- -- ---------- --- - --- ----- ----- ----<br>---- --- --- ----- --- ---- ---- ------- ----- ---- -------<br>--- --- -- ----- -- --- ---- -- --- ---- -- ------ ------<br>--- ----- -- ----,147244,147352,146795,146791,146811,147278,,12,says
screen,html.Screen,1_1_0_1_13,2021-04-20T10:58:23.076Z,,,,,,,,,,,,,,,,53,,,,,,,,,,,,,,589,,response,,,,99,,,,,,,Space,keypress(Space),,,,,,,,---- -- ----- -- ------ - ------- --- ----------<br>------------- ------ ------ ---- that ------- ----- -- ----<br>-------- ------- -- ---------- --- - --- ----- ----- ----<br>---- --- --- ----- --- ---- ---- ------- ----- ---- -------<br>--- --- -- ----- -- --- ---- -- --- ---- -- ------ ------<br>--- ----- -- ----,147744,147851,147262,147244,147278,147778,,13,that
screen,html.Screen,1_1_0_1_14,2021-04-20T10:58:23.498Z,,,,,,,,,,,,,,,,53,,,,,,,,,,,,,,512,,response,,,,99,,,,,,,Space,keypress(Space),,,,,,,,---- -- ----- -- ------ - ------- --- ----------<br>------------- ------ ------ ---- ---- feeling ----- -- ----<br>-------- ------- -- ---------- --- - --- ----- ----- ----<br>---- --- --- ----- --- ---- ---- ------- ----- ---- -------<br>--- --- -- ----- -- --- ---- -- --- ---- -- ------ ------<br>--- ----- -- ----,148166,148274,147762,147744,147778,148195,,14,feeling
screen,html.Screen,1_1_0_1_15,2021-04-20T10:58:23.905Z,,,,,,,,,,,,,,,,53,,,,,,,,,,,,,,503,,response,,,,99,,,,,,,Space,keypress(Space),,,,,,,,---- -- ----- -- ------ - ------- --- ----------<br>------------- ------ ------ ---- ---- ------- close -- ----<br>-------- ------- -- ---------- --- - --- ----- ----- ----<br>---- --- --- ----- --- ---- ---- ------- ----- ---- -------<br>--- --- -- ----- -- --- ---- -- --- ---- -- ------ ------<br>--- ----- -- ----,148573,148681,148178,148166,148195,148611,,15,close
screen,html.Screen,1_1_0_1_16,2021-04-20T10:58:24.301Z,,,,,,,,,,,,,,,,53,,,,,,,,,,,,,,482,,response,,,,99,,,,,,,Space,keypress(Space),,,,,,,,---- -- ----- -- ------ - ------- --- ----------<br>------------- ------ ------ ---- ---- ------- ----- to ----<br>-------- ------- -- ---------- --- - --- ----- ----- ----<br>---- --- --- ----- --- ---- ---- ------- ----- ---- -------<br>--- --- -- ----- -- --- ---- -- --- ---- -- ------ ------<br>--- ----- -- ----,148969,149077,148595,148573,148611,149012,,16,to
screen,html.Screen,1_1_0_1_17,2021-04-20T10:58:24.592Z,,,,,,,,,,,,,,,,53,,,,,,,,,,,,,,373,,response,,,,99,,,,,,,Space,keypress(Space),,,,,,,,---- -- ----- -- ------ - ------- --- ----------<br>------------- ------ ------ ---- ---- ------- ----- -- your<br>-------- ------- -- ---------- --- - --- ----- ----- ----<br>---- --- --- ----- --- ---- ---- ------- ----- ---- -------<br>--- --- -- ----- -- --- ---- -- --- ---- -- ------ ------<br>--- ----- -- ----,149260,149368,148995,148969,149012,149278,,17,your
screen,html.Screen,1_1_0_1_18,2021-04-20T10:58:24.994Z,,,,,,,,,,,,,,,,53,,,,,,,,,,,,,,509,,response,,,,99,,,,,,,Space,keypress(Space),,,,,,,,---- -- ----- -- ------ - ------- --- ----------<br>------------- ------ ------ ---- ---- ------- ----- -- ----<br>romantic ------- -- ---------- --- - --- ----- ----- ----<br>---- --- --- ----- --- ---- ---- ------- ----- ---- -------<br>--- --- -- ----- -- --- ---- -- --- ---- -- ------ ------<br>--- ----- -- ----,149662,149770,149261,149260,149278,149695,,18,romantic
screen,html.Screen,1_1_0_1_19,2021-04-20T10:58:25.365Z,,,,,,,,,,,,,,,,53,,,,,,,,,,,,,,463,,response,,,,99,,,,,,,Space,keypress(Space),,,,,,,,---- -- ----- -- ------ - ------- --- ----------<br>------------- ------ ------ ---- ---- ------- ----- -- ----<br>-------- partner -- ---------- --- - --- ----- ----- ----<br>---- --- --- ----- --- ---- ---- ------- ----- ---- -------<br>--- --- -- ----- -- --- ---- -- --- ---- -- ------ ------<br>--- ----- -- ----,150033.00000000003,150141,149678,149662,149695,150062,,19,partner
screen,html.Screen,1_1_0_1_20,2021-04-20T10:58:25.786Z,,,,,,,,,,,,,,,,53,,,,,,,,,,,,,,517,,response,,,,99,,,,,,,Space,keypress(Space),,,,,,,,---- -- ----- -- ------ - ------- --- ----------<br>------------- ------ ------ ---- ---- ------- ----- -- ----<br>-------- ------- is ---------- --- - --- ----- ----- ----<br>---- --- --- ----- --- ---- ---- ------- ----- ---- -------<br>--- --- -- ----- -- --- ---- -- --- ---- -- ------ ------<br>--- ----- -- ----,150454,150562,150045,150033.00000000003,150062,150495,,20,is
screen,html.Screen,1_1_0_1_21,2021-04-20T10:58:26.109Z,,,,,,,,,,,,,,,,53,,,,,,,,,,,,,,407,,response,,,,99,,,,,,,Space,keypress(Space),,,,,,,,---- -- ----- -- ------ - ------- --- ----------<br>------------- ------ ------ ---- ---- ------- ----- -- ----<br>-------- ------- -- paramount. --- - --- ----- ----- ----<br>---- --- --- ----- --- ---- ---- ------- ----- ---- -------<br>--- --- -- ----- -- --- ---- -- --- ---- -- ------ ------<br>--- ----- -- ----,150777.00000000003,150885,150478,150454,150495,150795,,21,paramount.
screen,html.Screen,1_1_0_1_22,2021-04-20T10:58:26.507Z,,,,,,,,,,,,,,,,53,,,,,,,,,,,,,,505.0000000000291,,response,,,,99,,,,,,,Space,keypress(Space),,,,,,,,---- -- ----- -- ------ - ------- --- ----------<br>------------- ------ ------ ---- ---- ------- ----- -- ----<br>-------- ------- -- ---------- But - --- ----- ----- ----<br>---- --- --- ----- --- ---- ---- ------- ----- ---- -------<br>--- --- -- ----- -- --- ---- -- --- ---- -- ------ ------<br>--- ----- -- ----,151175,151283.00000000003,150778,150777.00000000003,150795,151212,,22,But
screen,html.Screen,1_1_0_1_23,2021-04-20T10:58:26.876Z,,,,,,,,,,,,,,,,53,,,,,,,,,,,,,,458.0000000000291,,response,,,,99,,,,,,,Space,keypress(Space),,,,,,,,---- -- ----- -- ------ - ------- --- ----------<br>------------- ------ ------ ---- ---- ------- ----- -- ----<br>-------- ------- -- ---------- --- a --- ----- ----- ----<br>---- --- --- ----- --- ---- ---- ------- ----- ---- -------<br>--- --- -- ----- -- --- ---- -- --- ---- -- ------ ------<br>--- ----- -- ----,151544,151652.00000000003,151194,151175,151212,151566,,23,a
screen,html.Screen,1_1_0_1_24,2021-04-20T10:58:27.148Z,,,,,,,,,,,,,,,,53,,,,,,,,,,,,,,375,,response,,,,99,,,,,,,Space,keypress(Space),,,,,,,,---- -- ----- -- ------ - ------- --- ----------<br>------------- ------ ------ ---- ---- ------- ----- -- ----<br>-------- ------- -- ---------- --- - new ----- ----- ----<br>---- --- --- ----- --- ---- ---- ------- ----- ---- -------<br>--- --- -- ----- -- --- ---- -- --- ---- -- ------ ------<br>--- ----- -- ----,151816,151924,151549,151544,151566,151849,,24,new
screen,html.Screen,1_1_0_1_25,2021-04-20T10:58:27.681Z,,,,,,,,,,,,,,,,53,,,,,,,,,,,,,,625,,response,,,,99,,,,,,,Space,keypress(Space),,,,,,,,---- -- ----- -- ------ - ------- --- ----------<br>------------- ------ ------ ---- ---- ------- ----- -- ----<br>-------- ------- -- ---------- --- - --- study ----- ----<br>---- --- --- ----- --- ---- ---- ------- ----- ---- -------<br>--- --- -- ----- -- --- ---- -- --- ---- -- ------ ------<br>--- ----- -- ----,152349,152457,151832,151816,151849,152382,,25,study
screen,html.Screen,1_1_0_1_26,2021-04-20T10:58:28.137Z,,,,,,,,,,,,,,,,53,,,,,,,,,,,,,,548,,response,,,,99,,,,,,,Space,keypress(Space),,,,,,,,---- -- ----- -- ------ - ------- --- ----------<br>------------- ------ ------ ---- ---- ------- ----- -- ----<br>-------- ------- -- ---------- --- - --- ----- finds ----<br>---- --- --- ----- --- ---- ---- ------- ----- ---- -------<br>--- --- -- ----- -- --- ---- -- --- ---- -- ------ ------<br>--- ----- -- ----,152805,152913,152365,152349,152382,152832,,26,finds
screen,html.Screen,1_1_0_1_27,2021-04-20T10:58:28.456Z,,,,,,,,,,,,,,,,53,,,,,,,,,,,,,,416,,response,,,,99,,,,,,,Space,keypress(Space),,,,,,,,---- -- ----- -- ------ - ------- --- ----------<br>------------- ------ ------ ---- ---- ------- ----- -- ----<br>-------- ------- -- ---------- --- - --- ----- ----- that<br>---- --- --- ----- --- ---- ---- ------- ----- ---- -------<br>--- --- -- ----- -- --- ---- -- --- ---- -- ------ ------<br>--- ----- -- ----,153125,153232,152816,152805,152832,153149,,27,that
screen,html.Screen,1_1_0_1_28,2021-04-20T10:58:28.707Z,,,,,,,,,,,,,,,,53,,,,,,,,,,,,,,351,,response,,,,99,,,,,,,Space,keypress(Space),,,,,,,,---- -- ----- -- ------ - ------- --- ----------<br>------------- ------ ------ ---- ---- ------- ----- -- ----<br>-------- ------- -- ---------- --- - --- ----- ----- ----<br>it's --- --- ----- --- ---- ---- ------- ----- ---- -------<br>--- --- -- ----- -- --- ---- -- --- ---- -- ------ ------<br>--- ----- -- ----,153375,153483,153132,153125,153149,153399,,28,it's
screen,html.Screen,1_1_0_1_29,2021-04-20T10:58:29.106Z,,,,,,,,,,,,,,,,53,,,,,,,,,,,,,,500,,response,,,,99,,,,,,,Space,keypress(Space),,,,,,,,---- -- ----- -- ------ - ------- --- ----------<br>------------- ------ ------ ---- ---- ------- ----- -- ----<br>-------- ------- -- ---------- --- - --- ----- ----- ----<br>---- not --- ----- --- ---- ---- ------- ----- ---- -------<br>--- --- -- ----- -- --- ---- -- --- ---- -- ------ ------<br>--- ----- -- ----,153774,153882,153382,153375,153399,153815,,29,not
screen,html.Screen,1_1_0_1_30,2021-04-20T10:58:29.358Z,,,,,,,,,,,,,,,,53,,,,,,,,,,,,,,335,,response,,,,99,,,,,,,Space,keypress(Space),,,,,,,,---- -- ----- -- ------ - ------- --- ----------<br>------------- ------ ------ ---- ---- ------- ----- -- ----<br>-------- ------- -- ---------- --- - --- ----- ----- ----<br>---- --- how ----- --- ---- ---- ------- ----- ---- -------<br>--- --- -- ----- -- --- ---- -- --- ---- -- ------ ------<br>--- ----- -- ----,154027.00000000003,154134,153799,153774,153815,154049,,30,how
screen,html.Screen,1_1_0_1_31,2021-04-20T10:58:29.799Z,,,,,,,,,,,,,,,,53,,,,,,,,,,,,,,543.0000000000291,,response,,,,99,,,,,,,Space,keypress(Space),,,,,,,,---- -- ----- -- ------ - ------- --- ----------<br>------------- ------ ------ ---- ---- ------- ----- -- ----<br>-------- ------- -- ---------- --- - --- ----- ----- ----<br>---- --- --- close --- ---- ---- ------- ----- ---- -------<br>--- --- -- ----- -- --- ---- -- --- ---- -- ------ ------<br>--- ----- -- ----,154467,154575.00000000003,154032,154027.00000000003,154049,154498,,31,close
screen,html.Screen,1_1_0_1_32,2021-04-20T10:58:30.086Z,,,,,,,,,,,,,,,,53,,,,,,,,,,,,,,380,,response,,,,99,,,,,,,Space,keypress(Space),,,,,,,,---- -- ----- -- ------ - ------- --- ----------<br>------------- ------ ------ ---- ---- ------- ----- -- ----<br>-------- ------- -- ---------- --- - --- ----- ----- ----<br>---- --- --- ----- you ---- ---- ------- ----- ---- -------<br>--- --- -- ----- -- --- ---- -- --- ---- -- ------ ------<br>--- ----- -- ----,154754,154862,154482,154467,154498,154782,,32,you
screen,html.Screen,1_1_0_1_33,2021-04-20T10:58:30.337Z,,,,,,,,,,,,,,,,53,,,,,,,,,,,,,,348,,response,,,,99,,,,,,,Space,keypress(Space),,,,,,,,---- -- ----- -- ------ - ------- --- ----------<br>------------- ------ ------ ---- ---- ------- ----- -- ----<br>-------- ------- -- ---------- --- - --- ----- ----- ----<br>---- --- --- ----- --- feel ---- ------- ----- ---- -------<br>--- --- -- ----- -- --- ---- -- --- ---- -- ------ ------<br>--- ----- -- ----,155006,155113,154765,154754,154782,155031,,33,feel
screen,html.Screen,1_1_0_1_34,2021-04-20T10:58:30.795Z,,,,,,,,,,,,,,,,53,,,,,,,,,,,,,,555,,response,,,,99,,,,,,,Space,keypress(Space),,,,,,,,---- -- ----- -- ------ - ------- --- ----------<br>------------- ------ ------ ---- ---- ------- ----- -- ----<br>-------- ------- -- ---------- --- - --- ----- ----- ----<br>---- --- --- ----- --- ---- that ------- ----- ---- -------<br>--- --- -- ----- -- --- ---- -- --- ---- -- ------ ------<br>--- ----- -- ----,155463,155571,155016,155006,155031,155499,,34,that
screen,html.Screen,1_1_0_1_35,2021-04-20T10:58:31.005Z,,,,,,,,,,,,,,,,53,,,,,,,,,,,,,,299,,response,,,,99,,,,,,,Space,keypress(Space),,,,,,,,---- -- ----- -- ------ - ------- --- ----------<br>------------- ------ ------ ---- ---- ------- ----- -- ----<br>-------- ------- -- ---------- --- - --- ----- ----- ----<br>---- --- --- ----- --- ---- ---- matters ----- ---- -------<br>--- --- -- ----- -- --- ---- -- --- ---- -- ------ ------<br>--- ----- -- ----,155673,155781,155482,155463,155499,155699,,35,matters
screen,html.Screen,1_1_0_1_36,2021-04-20T10:58:31.412Z,,,,,,,,,,,,,,,,53,,,,,,,,,,,,,,506.0000000000291,,response,,,,99,,,,,,,Space,keypress(Space),,,,,,,,"---- -- ----- -- ------ - ------- --- ----------<br>------------- ------ ------ ---- ---- ------- ----- -- ----<br>-------- ------- -- ---------- --- - --- ----- ----- ----<br>---- --- --- ----- --- ---- ---- ------- most, ---- -------<br>--- --- -- ----- -- --- ---- -- --- ---- -- ------ ------<br>--- ----- -- ----",156080,156188.00000000003,155682,155673,155699,156115,,36,"most,"
screen,html.Screen,1_1_0_1_37,2021-04-20T10:58:31.794Z,,,,,,,,,,,,,,,,53,,,,,,,,,,,,,,473,,response,,,,99,,,,,,,Space,keypress(Space),,,,,,,,---- -- ----- -- ------ - ------- --- ----------<br>------------- ------ ------ ---- ---- ------- ----- -- ----<br>-------- ------- -- ---------- --- - --- ----- ----- ----<br>---- --- --- ----- --- ---- ---- ------- ----- it's -------<br>--- --- -- ----- -- --- ---- -- --- ---- -- ------ ------<br>--- ----- -- ----,156463,156571,156098,156080,156115,156481,,37,it's
screen,html.Screen,1_1_0_1_38,2021-04-20T10:58:32.103Z,,,,,,,,,,,,,,,,53,,,,,,,,,,,,,,414,,response,,,,99,,,,,,,Space,keypress(Space),,,,,,,,---- -- ----- -- ------ - ------- --- ----------<br>------------- ------ ------ ---- ---- ------- ----- -- ----<br>-------- ------- -- ---------- --- - --- ----- ----- ----<br>---- --- --- ----- --- ---- ---- ------- ----- ---- whether<br>--- --- -- ----- -- --- ---- -- --- ---- -- ------ ------<br>--- ----- -- ----,156771.00000000003,156879,156465,156463,156481,156803,,38,whether
screen,html.Screen,1_1_0_1_39,2021-04-20T10:58:32.423Z,,,,,,,,,,,,,,,,53,,,,,,,,,,,,,,413.0000000000291,,response,,,,99,,,,,,,Space,keypress(Space),,,,,,,,---- -- ----- -- ------ - ------- --- ----------<br>------------- ------ ------ ---- ---- ------- ----- -- ----<br>-------- ------- -- ---------- --- - --- ----- ----- ----<br>---- --- --- ----- --- ---- ---- ------- ----- ---- -------<br>you --- -- ----- -- --- ---- -- --- ---- -- ------ ------<br>--- ----- -- ----,157091,157200.00000000003,156787,156771.00000000003,156803,157120,,39,you
screen,html.Screen,1_1_0_1_40,2021-04-20T10:58:32.657Z,,,,,,,,,,,,,,,,53,,,,,,,,,,,,,,329,,response,,,,99,,,,,,,Space,keypress(Space),,,,,,,,---- -- ----- -- ------ - ------- --- ----------<br>------------- ------ ------ ---- ---- ------- ----- -- ----<br>-------- ------- -- ---------- --- - --- ----- ----- ----<br>---- --- --- ----- --- ---- ---- ------- ----- ---- -------<br>--- are -- ----- -- --- ---- -- --- ---- -- ------ ------<br>--- ----- -- ----,157325.00000000003,157433,157104,157092,157120,157354,,40,are
screen,html.Screen,1_1_0_1_41,2021-04-20T10:58:32.917Z,,,,,,,,,,,,,,,,53,,,,,,,,,,,,,,356,,response,,,,99,,,,,,,Space,keypress(Space),,,,,,,,---- -- ----- -- ------ - ------- --- ----------<br>------------- ------ ------ ---- ---- ------- ----- -- ----<br>-------- ------- -- ---------- --- - --- ----- ----- ----<br>---- --- --- ----- --- ---- ---- ------- ----- ---- -------<br>--- --- as ----- -- --- ---- -- --- ---- -- ------ ------<br>--- ----- -- ----,157585,157693,157337,157325.00000000003,157354,157604,,41,as
screen,html.Screen,1_1_0_1_42,2021-04-20T10:58:33.143Z,,,,,,,,,,,,,,,,53,,,,,,,,,,,,,,334.0000000000291,,response,,,,99,,,,,,,Space,keypress(Space),,,,,,,,---- -- ----- -- ------ - ------- --- ----------<br>------------- ------ ------ ---- ---- ------- ----- -- ----<br>-------- ------- -- ---------- --- - --- ----- ----- ----<br>---- --- --- ----- --- ---- ---- ------- ----- ---- -------<br>--- --- -- close -- --- ---- -- --- ---- -- ------ ------<br>--- ----- -- ----,157812,157920.00000000003,157586,157585,157604,157837,,42,close
screen,html.Screen,1_1_0_1_43,2021-04-20T10:58:33.423Z,,,,,,,,,,,,,,,,53,,,,,,,,,,,,,,379,,response,,,,99,,,,,,,Space,keypress(Space),,,,,,,,---- -- ----- -- ------ - ------- --- ----------<br>------------- ------ ------ ---- ---- ------- ----- -- ----<br>-------- ------- -- ---------- --- - --- ----- ----- ----<br>---- --- --- ----- --- ---- ---- ------- ----- ---- -------<br>--- --- -- ----- as --- ---- -- --- ---- -- ------ ------<br>--- ----- -- ----,158091,158199,157820,157812,157837,158120,,43,as
screen,html.Screen,1_1_0_1_44,2021-04-20T10:58:33.799Z,,,,,,,,,,,,,,,,53,,,,,,,,,,,,,,472.0000000000291,,response,,,,99,,,,,,,Space,keypress(Space),,,,,,,,---- -- ----- -- ------ - ------- --- ----------<br>------------- ------ ------ ---- ---- ------- ----- -- ----<br>-------- ------- -- ---------- --- - --- ----- ----- ----<br>---- --- --- ----- --- ---- ---- ------- ----- ---- -------<br>--- --- -- ----- -- you ---- -- --- ---- -- ------ ------<br>--- ----- -- ----,158467,158575.00000000003,158103,158091,158120,158486,,44,you
screen,html.Screen,1_1_0_1_45,2021-04-20T10:58:34.065Z,,,,,,,,,,,,,,,,53,,,,,,,,,,,,,,371,,response,,,,99,,,,,,,Space,keypress(Space),,,,,,,,---- -- ----- -- ------ - ------- --- ----------<br>------------- ------ ------ ---- ---- ------- ----- -- ----<br>-------- ------- -- ---------- --- - --- ----- ----- ----<br>---- --- --- ----- --- ---- ---- ------- ----- ---- -------<br>--- --- -- ----- -- --- want -- --- ---- -- ------ ------<br>--- ----- -- ----,158733,158841,158470,158467,158486,158753,,45,want
screen,html.Screen,1_1_0_1_46,2021-04-20T10:58:34.390Z,,,,,,,,,,,,,,,,53,,,,,,,,,,,,,,430,,response,,,,99,,,,,,,Space,keypress(Space),,,,,,,,---- -- ----- -- ------ - ------- --- ----------<br>------------- ------ ------ ---- ---- ------- ----- -- ----<br>-------- ------- -- ---------- --- - --- ----- ----- ----<br>---- --- --- ----- --- ---- ---- ------- ----- ---- -------<br>--- --- -- ----- -- --- ---- to --- ---- -- ------ ------<br>--- ----- -- ----,159058,159167,158737,158734,158753,159086,,46,to
screen,html.Screen,1_1_0_1_47,2021-04-20T10:58:34.636Z,,,,,,,,,,,,,,,,53,,,,,,,,,,,,,,343,,response,,,,99,,,,,,,Space,keypress(Space),,,,,,,,"---- -- ----- -- ------ - ------- --- ----------<br>------------- ------ ------ ---- ---- ------- ----- -- ----<br>-------- ------- -- ---------- --- - --- ----- ----- ----<br>---- --- --- ----- --- ---- ---- ------- ----- ---- -------<br>--- --- -- ----- -- --- ---- -- be, ---- -- ------ ------<br>--- ----- -- ----",159305,159413,159070,159058,159086,159337,,47,"be,"
screen,html.Screen,1_1_0_1_48,2021-04-20T10:58:34.943Z,,,,,,,,,,,,,,,,53,,,,,,,,,,,,,,400,,response,,,,99,,,,,,,Space,keypress(Space),,,,,,,,---- -- ----- -- ------ - ------- --- ----------<br>------------- ------ ------ ---- ---- ------- ----- -- ----<br>-------- ------- -- ---------- --- - --- ----- ----- ----<br>---- --- --- ----- --- ---- ---- ------- ----- ---- -------<br>--- --- -- ----- -- --- ---- -- --- even -- ------ ------<br>--- ----- -- ----,159611,159720,159320,159305,159337,159637,,48,even
screen,html.Screen,1_1_0_1_49,2021-04-20T10:58:35.191Z,,,,,,,,,,,,,,,,53,,,,,,,,,,,,,,348,,response,,,,99,,,,,,,Space,keypress(Space),,,,,,,,---- -- ----- -- ------ - ------- --- ----------<br>------------- ------ ------ ---- ---- ------- ----- -- ----<br>-------- ------- -- ---------- --- - --- ----- ----- ----<br>---- --- --- ----- --- ---- ---- ------- ----- ---- -------<br>--- --- -- ----- -- --- ---- -- --- ---- if ------ ------<br>--- ----- -- ----,159859,159967,159619,159611,159637,159887,,49,if
screen,html.Screen,1_1_0_1_50,2021-04-20T10:58:35.396Z,,,,,,,,,,,,,,,,53,,,,,,,,,,,,,,303,,response,,,,99,,,,,,,Space,keypress(Space),,,,,,,,---- -- ----- -- ------ - ------- --- ----------<br>------------- ------ ------ ---- ---- ------- ----- -- ----<br>-------- ------- -- ---------- --- - --- ----- ----- ----<br>---- --- --- ----- --- ---- ---- ------- ----- ---- -------<br>--- --- -- ----- -- --- ---- -- --- ---- -- that's ------<br>--- ----- -- ----,160064,160173,159870,159859,159887,160087,,50,that's
screen,html.Screen,1_1_0_1_51,2021-04-20T10:58:35.595Z,,,,,,,,,,,,,,,,53,,,,,,,,,,,,,,302,,response,,,,99,,,,,,,Space,keypress(Space),,,,,,,,---- -- ----- -- ------ - ------- --- ----------<br>------------- ------ ------ ---- ---- ------- ----- -- ----<br>-------- ------- -- ---------- --- - --- ----- ----- ----<br>---- --- --- ----- --- ---- ---- ------- ----- ---- -------<br>--- --- -- ----- -- --- ---- -- --- ---- -- ------ really<br>--- ----- -- ----,160263,160372,160070,160064,160087,160286,,51,really
screen,html.Screen,1_1_0_1_52,2021-04-20T10:58:36.035Z,,,,,,,,,,,,,,,,53,,,,,,,,,,,,,,543.0000000000291,,response,,,,99,,,,,,,Space,keypress(Space),,,,,,,,---- -- ----- -- ------ - ------- --- ----------<br>------------- ------ ------ ---- ---- ------- ----- -- ----<br>-------- ------- -- ---------- --- - --- ----- ----- ----<br>---- --- --- ----- --- ---- ---- ------- ----- ---- -------<br>--- --- -- ----- -- --- ---- -- --- ---- -- ------ ------<br>not ----- -- ----,160704,160813.00000000003,160270,160263,160286,160736,,52,not
screen,html.Screen,1_1_0_1_53,2021-04-20T10:58:36.303Z,,,,,,,,,,,,,,,,53,,,,,,,,,,,,,,360,,response,,,,99,,,,,,,Space,keypress(Space),,,,,,,,---- -- ----- -- ------ - ------- --- ----------<br>------------- ------ ------ ---- ---- ------- ----- -- ----<br>-------- ------- -- ---------- --- - --- ----- ----- ----<br>---- --- --- ----- --- ---- ---- ------- ----- ---- -------<br>--- --- -- ----- -- --- ---- -- --- ---- -- ------ ------<br>--- close -- ----,160972,161080,160720,160704,160736,161002,,53,close
screen,html.Screen,1_1_0_1_54,2021-04-20T10:58:36.675Z,,,,,,,,,,,,,,,,53,,,,,,,,,,,,,,466,,response,,,,99,,,,,,,Space,keypress(Space),,,,,,,,---- -- ----- -- ------ - ------- --- ----------<br>------------- ------ ------ ---- ---- ------- ----- -- ----<br>-------- ------- -- ---------- --- - --- ----- ----- ----<br>---- --- --- ----- --- ---- ---- ------- ----- ---- -------<br>--- --- -- ----- -- --- ---- -- --- ---- -- ------ ------<br>--- ----- at ----,161344,161452,160986,160972,161002,161369,,54,at
screen,html.Screen,1_1_0_1_55,2021-04-20T10:58:37.667Z,,,,,,,,,,,,,,,,53,,,,,,,,,,,,,,1091.000000000029,,response,,,,99,,,,,,,Space,keypress(Space),,,,,,,,---- -- ----- -- ------ - ------- --- ----------<br>------------- ------ ------ ---- ---- ------- ----- -- ----<br>-------- ------- -- ---------- --- - --- ----- ----- ----<br>---- --- --- ----- --- ---- ---- ------- ----- ---- -------<br>--- --- -- ----- -- --- ---- -- --- ---- -- ------ ------<br>--- ----- -- all.,162335,162444.00000000003,161353,161344,161369,162369,,55,all.
Item 99,flow.Loop,1_1_0_1,2021-04-20T10:58:37.667Z,,,,,,,,,,,,,,,,,,,,,,,,,,,,,,21560.00000000003,,completion,,,,,E,,,,,,,,,,,silence,,,,,162336,162444.00000000003,140853,140854,140884,162369,,,
Question 1,html.Screen,1_1_0_2,2021-04-20T10:58:44.629Z,,,,,,,,,,,,,,,,,,,,,,,,,,,false,FALSE,,7054,,response,,,,99,E,,,,,,TRUE,click #choice-1,,,,silence,,,,,169297,169407,162353,162336,162369,169328,,,
Question 2,html.Screen,1_1_0_3,2021-04-20T10:58:50.419Z,,,,,,,,,,,,,,,,,,,,,,,,,,,true,TRUE,,5887,,response,,,,99,E,,,,,,TRUE,click #choice-1,,,,silence,,,,,175088,175198,169311,169298,169328,175114,,,
Item 99,flow.Sequence,1_1_0,2021-04-20T10:58:50.420Z,,,,,,,,,,,,,,,,,,,,,,,,,,,,,,44331,,completion,,,,,,,,,,,,,,,,,,,,,175089,175198,130862,130856,130867,175114,,,
Holding screen,html.Screen,1_1_1_0,2021-04-20T10:59:00.419Z,,,,,,,,,,,,,,,,,,,,,,,,,,,,,,9990,,timeout,,,,,,,,,,,,,,,,,,,,,185088,185088,175098,175089,175114,185104,,,
screen,html.Screen,1_1_1_1_0,2021-04-20T10:59:01.309Z,,,,,,,,,,,,,,,,54,,,,,,,,,,,,,,1000,,response,,,,100,,,,,,,Space,keypress(Space),,,,,,,,At --- ---- --- ------ ----- ------- ---- -- --- ------- --<br>------- ---------- ------ -- ----- -- ----- -- ---- ------<br>--- ----- --- --- ------ -------- ----- --- ------ ----- --<br>----- ----- ---------- --- --- ------ ------ ---- -- ------<br>------- --- ------ ----- --- ---- ------- -- ---- --- --<br>------- ------,185979,186088,185088,185088,185104,186021,,0,At
screen,html.Screen,1_1_1_1_1,2021-04-20T10:59:01.690Z,,,,,,,,,,,,,,,,54,,,,,,,,,,,,,,465,,response,,,,100,,,,,,,Space,keypress(Space),,,,,,,,-- the ---- --- ------ ----- ------- ---- -- --- ------- --<br>------- ---------- ------ -- ----- -- ----- -- ---- ------<br>--- ----- --- --- ------ -------- ----- --- ------ ----- --<br>----- ----- ---------- --- --- ------ ------ ---- -- ------<br>------- --- ------ ----- --- ---- ------- -- ---- --- --<br>------- ------,186360,186469,186004,185979,186021,186387,,1,the
screen,html.Screen,1_1_1_1_2,2021-04-20T10:59:01.990Z,,,,,,,,,,,,,,,,54,,,,,,,,,,,,,,397,,response,,,,100,,,,,,,Space,keypress(Space),,,,,,,,-- --- time --- ------ ----- ------- ---- -- --- ------- --<br>------- ---------- ------ -- ----- -- ----- -- ---- ------<br>--- ----- --- --- ------ -------- ----- --- ------ ----- --<br>----- ----- ---------- --- --- ------ ------ ---- -- ------<br>------- --- ------ ----- --- ---- ------- -- ---- --- --<br>------- ------,186659,186768,186371,186360,186387,186687,,2,time
screen,html.Screen,1_1_1_1_3,2021-04-20T10:59:02.358Z,,,,,,,,,,,,,,,,54,,,,,,,,,,,,,,467,,response,,,,100,,,,,,,Space,keypress(Space),,,,,,,,-- --- ---- the ------ ----- ------- ---- -- --- ------- --<br>------- ---------- ------ -- ----- -- ----- -- ---- ------<br>--- ----- --- --- ------ -------- ----- --- ------ ----- --<br>----- ----- ---------- --- --- ------ ------ ---- -- ------<br>------- --- ------ ----- --- ---- ------- -- ---- --- --<br>------- ------,187028,187137,186670,186659,186687,187054,,3,the
screen,html.Screen,1_1_1_1_4,2021-04-20T10:59:02.608Z,,,,,,,,,,,,,,,,54,,,,,,,,,,,,,,348,,response,,,,100,,,,,,,Space,keypress(Space),,,,,,,,-- --- ---- --- French ----- ------- ---- -- --- ------- --<br>------- ---------- ------ -- ----- -- ----- -- ---- ------<br>--- ----- --- --- ------ -------- ----- --- ------ ----- --<br>----- ----- ---------- --- --- ------ ------ ---- -- ------<br>------- --- ------ ----- --- ---- ------- -- ---- --- --<br>------- ------,187277.00000000003,187386,187038,187028,187054,187304,,4,French
screen,html.Screen,1_1_1_1_5,2021-04-20T10:59:02.921Z,,,,,,,,,,,,,,,,54,,,,,,,,,,,,,,412,,response,,,,100,,,,,,,Space,keypress(Space),,,,,,,,-- --- ---- --- ------ crown ------- ---- -- --- ------- --<br>------- ---------- ------ -- ----- -- ----- -- ---- ------<br>--- ----- --- --- ------ -------- ----- --- ------ ----- --<br>----- ----- ---------- --- --- ------ ------ ---- -- ------<br>------- --- ------ ----- --- ---- ------- -- ---- --- --<br>------- ------,187590,187699,187287,187277.00000000003,187304,187621,,5,crown
screen,html.Screen,1_1_1_1_6,2021-04-20T10:59:03.235Z,,,,,,,,,,,,,,,,54,,,,,,,,,,,,,,410,,response,,,,100,,,,,,,Space,keypress(Space),,,,,,,,-- --- ---- --- ------ ----- secured ---- -- --- ------- --<br>------- ---------- ------ -- ----- -- ----- -- ---- ------<br>--- ----- --- --- ------ -------- ----- --- ------ ----- --<br>----- ----- ---------- --- --- ------ ------ ---- -- ------<br>------- --- ------ ----- --- ---- ------- -- ---- --- --<br>------- ------,187904,188013,187603,187590,187621,187937,,6,secured
screen,html.Screen,1_1_1_1_7,2021-04-20T10:59:03.601Z,,,,,,,,,,,,,,,,54,,,,,,,,,,,,,,457,,response,,,,100,,,,,,,Space,keypress(Space),,,,,,,,-- --- ---- --- ------ ----- ------- much -- --- ------- --<br>------- ---------- ------ -- ----- -- ----- -- ---- ------<br>--- ----- --- --- ------ -------- ----- --- ------ ----- --<br>----- ----- ---------- --- --- ------ ------ ---- -- ------<br>------- --- ------ ----- --- ---- ------- -- ---- --- --<br>------- ------,188270,188378,187921,187904,187937,188287,,7,much
screen,html.Screen,1_1_1_1_8,2021-04-20T10:59:03.923Z,,,,,,,,,,,,,,,,54,,,,,,,,,,,,,,431,,response,,,,100,,,,,,,Space,keypress(Space),,,,,,,,-- --- ---- --- ------ ----- ------- ---- of --- ------- --<br>------- ---------- ------ -- ----- -- ----- -- ---- ------<br>--- ----- --- --- ------ -------- ----- --- ------ ----- --<br>----- ----- ---------- --- --- ------ ------ ---- -- ------<br>------- --- ------ ----- --- ---- ------- -- ---- --- --<br>------- ------,188593.00000000003,188702,188271,188270,188287,188621,,8,of
screen,html.Screen,1_1_1_1_9,2021-04-20T10:59:04.179Z,,,,,,,,,,,,,,,,54,,,,,,,,,,,,,,354,,response,,,,100,,,,,,,Space,keypress(Space),,,,,,,,-- --- ---- --- ------ ----- ------- ---- -- its ------- --<br>------- ---------- ------ -- ----- -- ----- -- ---- ------<br>--- ----- --- --- ------ -------- ----- --- ------ ----- --<br>----- ----- ---------- --- --- ------ ------ ---- -- ------<br>------- --- ------ ----- --- ---- ------- -- ---- --- --<br>------- ------,188849.00000000003,188958,188604,188593.00000000003,188621,188870,,9,its
screen,html.Screen,1_1_1_1_10,2021-04-20T10:59:04.540Z,,,,,,,,,,,,,,,,54,,,,,,,,,,,,,,465,,response,,,,100,,,,,,,Space,keypress(Space),,,,,,,,-- --- ---- --- ------ ----- ------- ---- -- --- revenue --<br>------- ---------- ------ -- ----- -- ----- -- ---- ------<br>--- ----- --- --- ------ -------- ----- --- ------ ----- --<br>----- ----- ---------- --- --- ------ ------ ---- -- ------<br>------- --- ------ ----- --- ---- ------- -- ---- --- --<br>------- ------,189210,189318,188853,188849.00000000003,188870,189238,,10,revenue
screen,html.Screen,1_1_1_1_11,2021-04-20T10:59:04.835Z,,,,,,,,,,,,,,,,54,,,,,,,,,,,,,,393,,response,,,,100,,,,,,,Space,keypress(Space),,,,,,,,-- --- ---- --- ------ ----- ------- ---- -- --- ------- by<br>------- ---------- ------ -- ----- -- ----- -- ---- ------<br>--- ----- --- --- ------ -------- ----- --- ------ ----- --<br>----- ----- ---------- --- --- ------ ------ ---- -- ------<br>------- --- ------ ----- --- ---- ------- -- ---- --- --<br>------- ------,189505,189614,189221,189210,189238,189525,,11,by
screen,html.Screen,1_1_1_1_12,2021-04-20T10:59:05.149Z,,,,,,,,,,,,,,,,54,,,,,,,,,,,,,,418,,response,,,,100,,,,,,,Space,keypress(Space),,,,,,,,-- --- ---- --- ------ ----- ------- ---- -- --- ------- --<br>issuing ---------- ------ -- ----- -- ----- -- ---- ------<br>--- ----- --- --- ------ -------- ----- --- ------ ----- --<br>----- ----- ---------- --- --- ------ ------ ---- -- ------<br>------- --- ------ ----- --- ---- ------- -- ---- --- --<br>------- ------,189818,189927,189509,189505,189525,189842,,12,issuing
screen,html.Screen,1_1_1_1_13,2021-04-20T10:59:05.408Z,,,,,,,,,,,,,,,,54,,,,,,,,,,,,,,361,,response,,,,100,,,,,,,Space,keypress(Space),,,,,,,,-- --- ---- --- ------ ----- ------- ---- -- --- ------- --<br>------- government ------ -- ----- -- ----- -- ---- ------<br>--- ----- --- --- ------ -------- ----- --- ------ ----- --<br>----- ----- ---------- --- --- ------ ------ ---- -- ------<br>------- --- ------ ----- --- ---- ------- -- ---- --- --<br>------- ------,190077,190186,189825,189818,189842,190109,,13,government
screen,html.Screen,1_1_1_1_14,2021-04-20T10:59:05.730Z,,,,,,,,,,,,,,,,54,,,,,,,,,,,,,,417,,response,,,,100,,,,,,,Space,keypress(Space),,,,,,,,-- --- ---- --- ------ ----- ------- ---- -- --- ------- --<br>------- ---------- bonds. -- ----- -- ----- -- ---- ------<br>--- ----- --- --- ------ -------- ----- --- ------ ----- --<br>----- ----- ---------- --- --- ------ ------ ---- -- ------<br>------- --- ------ ----- --- ---- ------- -- ---- --- --<br>------- ------,190399,190508,190091,190077,190109,190425,,14,bonds.
screen,html.Screen,1_1_1_1_15,2021-04-20T10:59:06.012Z,,,,,,,,,,,,,,,,54,,,,,,,,,,,,,,382,,response,,,,100,,,,,,,Space,keypress(Space),,,,,,,,-- --- ---- --- ------ ----- ------- ---- -- --- ------- --<br>------- ---------- ------ In ----- -- ----- -- ---- ------<br>--- ----- --- --- ------ -------- ----- --- ------ ----- --<br>----- ----- ---------- --- --- ------ ------ ---- -- ------<br>------- --- ------ ----- --- ---- ------- -- ---- --- --<br>------- ------,190681,190791,190409,190399,190425,190709,,15,In
screen,html.Screen,1_1_1_1_16,2021-04-20T10:59:06.319Z,,,,,,,,,,,,,,,,54,,,,,,,,,,,,,,406,,response,,,,100,,,,,,,Space,keypress(Space),,,,,,,,"-- --- ---- --- ------ ----- ------- ---- -- --- ------- --<br>------- ---------- ------ -- 1727, -- ----- -- ---- ------<br>--- ----- --- --- ------ -------- ----- --- ------ ----- --<br>----- ----- ---------- --- --- ------ ------ ---- -- ------<br>------- --- ------ ----- --- ---- ------- -- ---- --- --<br>------- ------",190989,191098,190692,190682.00000000003,190709,191009,,16,"1727,"
screen,html.Screen,1_1_1_1_17,2021-04-20T10:59:06.753Z,,,,,,,,,,,,,,,,54,,,,,,,,,,,,,,540,,response,,,,100,,,,,,,Space,keypress(Space),,,,,,,,-- --- ---- --- ------ ----- ------- ---- -- --- ------- --<br>------- ---------- ------ -- ----- in ----- -- ---- ------<br>--- ----- --- --- ------ -------- ----- --- ------ ----- --<br>----- ----- ---------- --- --- ------ ------ ---- -- ------<br>------- --- ------ ----- --- ---- ------- -- ---- --- --<br>------- ------,191422,191531,190991,190989,191009,191459,,17,in
screen,html.Screen,1_1_1_1_18,2021-04-20T10:59:07.077Z,,,,,,,,,,,,,,,,54,,,,,,,,,,,,,,413.0000000000291,,response,,,,100,,,,,,,Space,keypress(Space),,,,,,,,-- --- ---- --- ------ ----- ------- ---- -- --- ------- --<br>------- ---------- ------ -- ----- -- order -- ---- ------<br>--- ----- --- --- ------ -------- ----- --- ------ ----- --<br>----- ----- ---------- --- --- ------ ------ ---- -- ------<br>------- --- ------ ----- --- ---- ------- -- ---- --- --<br>------- ------,191746,191855.00000000003,191442,191422,191459,191775,,18,order
screen,html.Screen,1_1_1_1_19,2021-04-20T10:59:07.453Z,,,,,,,,,,,,,,,,54,,,,,,,,,,,,,,473,,response,,,,100,,,,,,,Space,keypress(Space),,,,,,,,-- --- ---- --- ------ ----- ------- ---- -- --- ------- --<br>------- ---------- ------ -- ----- -- ----- to ---- ------<br>--- ----- --- --- ------ -------- ----- --- ------ ----- --<br>----- ----- ---------- --- --- ------ ------ ---- -- ------<br>------- --- ------ ----- --- ---- ------- -- ---- --- --<br>------- ------,192123,192232,191759,191746,191775,192141,,19,to
screen,html.Screen,1_1_1_1_20,2021-04-20T10:59:07.706Z,,,,,,,,,,,,,,,,54,,,,,,,,,,,,,,359,,response,,,,100,,,,,,,Space,keypress(Space),,,,,,,,-- --- ---- --- ------ ----- ------- ---- -- --- ------- --<br>------- ---------- ------ -- ----- -- ----- -- save ------<br>--- ----- --- --- ------ -------- ----- --- ------ ----- --<br>----- ----- ---------- --- --- ------ ------ ---- -- ------<br>------- --- ------ ----- --- ---- ------- -- ---- --- --<br>------- ------,192375,192484,192125,192123,192141,192409,,20,save
screen,html.Screen,1_1_1_1_21,2021-04-20T10:59:08.149Z,,,,,,,,,,,,,,,,54,,,,,,,,,,,,,,536,,response,,,,100,,,,,,,Space,keypress(Space),,,,,,,,"-- --- ---- --- ------ ----- ------- ---- -- --- ------- --<br>------- ---------- ------ -- ----- -- ----- -- ---- money,<br>--- ----- --- --- ------ -------- ----- --- ------ ----- --<br>----- ----- ---------- --- --- ------ ------ ---- -- ------<br>------- --- ------ ----- --- ---- ------- -- ---- --- --<br>------- ------",192819.00000000003,192928,192392,192375,192409,192859,,21,"money,"
screen,html.Screen,1_1_1_1_22,2021-04-20T10:59:08.444Z,,,,,,,,,,,,,,,,54,,,,,,,,,,,,,,382,,response,,,,100,,,,,,,Space,keypress(Space),,,,,,,,-- --- ---- --- ------ ----- ------- ---- -- --- ------- --<br>------- ---------- ------ -- ----- -- ----- -- ---- ------<br>the ----- --- --- ------ -------- ----- --- ------ ----- --<br>----- ----- ---------- --- --- ------ ------ ---- -- ------<br>------- --- ------ ----- --- ---- ------- -- ---- --- --<br>------- ------,193114,193223,192841,192819.00000000003,192859,193142,,22,the
screen,html.Screen,1_1_1_1_23,2021-04-20T10:59:08.661Z,,,,,,,,,,,,,,,,54,,,,,,,,,,,,,,315,,response,,,,100,,,,,,,Space,keypress(Space),,,,,,,,-- --- ---- --- ------ ----- ------- ---- -- --- ------- --<br>------- ---------- ------ -- ----- -- ----- -- ---- ------<br>--- state --- --- ------ -------- ----- --- ------ ----- --<br>----- ----- ---------- --- --- ------ ------ ---- -- ------<br>------- --- ------ ----- --- ---- ------- -- ---- --- --<br>------- ------,193331.00000000003,193440,193125,193114,193142,193359,,23,state
screen,html.Screen,1_1_1_1_24,2021-04-20T10:59:08.886Z,,,,,,,,,,,,,,,,54,,,,,,,,,,,,,,324,,response,,,,100,,,,,,,Space,keypress(Space),,,,,,,,-- --- ---- --- ------ ----- ------- ---- -- --- ------- --<br>------- ---------- ------ -- ----- -- ----- -- ---- ------<br>--- ----- cut --- ------ -------- ----- --- ------ ----- --<br>----- ----- ---------- --- --- ------ ------ ---- -- ------<br>------- --- ------ ----- --- ---- ------- -- ---- --- --<br>------- ------,193556,193665,193341,193331.00000000003,193359,193575,,24,cut
screen,html.Screen,1_1_1_1_25,2021-04-20T10:59:09.287Z,,,,,,,,,,,,,,,,54,,,,,,,,,,,,,,508,,response,,,,100,,,,,,,Space,keypress(Space),,,,,,,,-- --- ---- --- ------ ----- ------- ---- -- --- ------- --<br>------- ---------- ------ -- ----- -- ----- -- ---- ------<br>--- ----- --- the ------ -------- ----- --- ------ ----- --<br>----- ----- ---------- --- --- ------ ------ ---- -- ------<br>------- --- ------ ----- --- ---- ------- -- ---- --- --<br>------- ------,193957,194066,193558,193556,193575,193992,,25,the
screen,html.Screen,1_1_1_1_26,2021-04-20T10:59:09.509Z,,,,,,,,,,,,,,,,54,,,,,,,,,,,,,,312,,response,,,,100,,,,,,,Space,keypress(Space),,,,,,,,-- --- ---- --- ------ ----- ------- ---- -- --- ------- --<br>------- ---------- ------ -- ----- -- ----- -- ---- ------<br>--- ----- --- --- bonds' -------- ----- --- ------ ----- --<br>----- ----- ---------- --- --- ------ ------ ---- -- ------<br>------- --- ------ ----- --- ---- ------- -- ---- --- --<br>------- ------,194178,194287,193975,193957,193992,194208,,26,bonds'
screen,html.Screen,1_1_1_1_27,2021-04-20T10:59:09.785Z,,,,,,,,,,,,,,,,54,,,,,,,,,,,,,,372,,response,,,,100,,,,,,,Space,keypress(Space),,,,,,,,-- --- ---- --- ------ ----- ------- ---- -- --- ------- --<br>------- ---------- ------ -- ----- -- ----- -- ---- ------<br>--- ----- --- --- ------ interest ----- --- ------ ----- --<br>----- ----- ---------- --- --- ------ ------ ---- -- ------<br>------- --- ------ ----- --- ---- ------- -- ---- --- --<br>------- ------,194455,194564,194192,194179,194208,194475,,27,interest
screen,html.Screen,1_1_1_1_28,2021-04-20T10:59:10.110Z,,,,,,,,,,,,,,,,54,,,,,,,,,,,,,,430,,response,,,,100,,,,,,,Space,keypress(Space),,,,,,,,-- --- ---- --- ------ ----- ------- ---- -- --- ------- --<br>------- ---------- ------ -- ----- -- ----- -- ---- ------<br>--- ----- --- --- ------ -------- rate. --- ------ ----- --<br>----- ----- ---------- --- --- ------ ------ ---- -- ------<br>------- --- ------ ----- --- ---- ------- -- ---- --- --<br>------- ------,194780,194889,194459,194455,194475,194813,,28,rate.
screen,html.Screen,1_1_1_1_29,2021-04-20T10:59:10.521Z,,,,,,,,,,,,,,,,54,,,,,,,,,,,,,,503,,response,,,,100,,,,,,,Space,keypress(Space),,,,,,,,-- --- ---- --- ------ ----- ------- ---- -- --- ------- --<br>------- ---------- ------ -- ----- -- ----- -- ---- ------<br>--- ----- --- --- ------ -------- ----- The ------ ----- --<br>----- ----- ---------- --- --- ------ ------ ---- -- ------<br>------- --- ------ ----- --- ---- ------- -- ---- --- --<br>------- ------,195190,195299,194796,194780,194813,195228,,29,The
screen,html.Screen,1_1_1_1_30,2021-04-20T10:59:11.064Z,,,,,,,,,,,,,,,,54,,,,,,,,,,,,,,632.0000000000291,,response,,,,100,,,,,,,Space,keypress(Space),,,,,,,,-- --- ---- --- ------ ----- ------- ---- -- --- ------- --<br>------- ---------- ------ -- ----- -- ----- -- ---- ------<br>--- ----- --- --- ------ -------- ----- --- market ----- --<br>----- ----- ---------- --- --- ------ ------ ---- -- ------<br>------- --- ------ ----- --- ---- ------- -- ---- --- --<br>------- ------,195734,195843.00000000003,195211,195190,195228,195763,,30,market
screen,html.Screen,1_1_1_1_31,2021-04-20T10:59:11.373Z,,,,,,,,,,,,,,,,54,,,,,,,,,,,,,,406,,response,,,,100,,,,,,,Space,keypress(Space),,,,,,,,-- --- ---- --- ------ ----- ------- ---- -- --- ------- --<br>------- ---------- ------ -- ----- -- ----- -- ---- ------<br>--- ----- --- --- ------ -------- ----- --- ------ value --<br>----- ----- ---------- --- --- ------ ------ ---- -- ------<br>------- --- ------ ----- --- ---- ------- -- ---- --- --<br>------- ------,196042,196151,195745,195734,195763,196063,,31,value
screen,html.Screen,1_1_1_1_32,2021-04-20T10:59:11.774Z,,,,,,,,,,,,,,,,54,,,,,,,,,,,,,,507,,response,,,,100,,,,,,,Space,keypress(Space),,,,,,,,-- --- ---- --- ------ ----- ------- ---- -- --- ------- --<br>------- ---------- ------ -- ----- -- ----- -- ---- ------<br>--- ----- --- --- ------ -------- ----- --- ------ ----- of<br>----- ----- ---------- --- --- ------ ------ ---- -- ------<br>------- --- ------ ----- --- ---- ------- -- ---- --- --<br>------- ------,196444.00000000003,196553,196046,196042,196063,196479,,32,of
screen,html.Screen,1_1_1_1_33,2021-04-20T10:59:12.062Z,,,,,,,,,,,,,,,,54,,,,,,,,,,,,,,378,,response,,,,100,,,,,,,Space,keypress(Space),,,,,,,,-- --- ---- --- ------ ----- ------- ---- -- --- ------- --<br>------- ---------- ------ -- ----- -- ----- -- ---- ------<br>--- ----- --- --- ------ -------- ----- --- ------ ----- --<br>these ----- ---------- --- --- ------ ------ ---- -- ------<br>------- --- ------ ----- --- ---- ------- -- ---- --- --<br>------- ------,196731,196840,196462,196444.00000000003,196479,196763,,33,these
screen,html.Screen,1_1_1_1_34,2021-04-20T10:59:12.368Z,,,,,,,,,,,,,,,,54,,,,,,,,,,,,,,401,,response,,,,100,,,,,,,Space,keypress(Space),,,,,,,,-- --- ---- --- ------ ----- ------- ---- -- --- ------- --<br>------- ---------- ------ -- ----- -- ----- -- ---- ------<br>--- ----- --- --- ------ -------- ----- --- ------ ----- --<br>----- bonds ---------- --- --- ------ ------ ---- -- ------<br>------- --- ------ ----- --- ---- ------- -- ---- --- --<br>------- ------,197037,197147,196746,196731,196763,197063,,34,bonds
screen,html.Screen,1_1_1_1_35,2021-04-20T10:59:12.843Z,,,,,,,,,,,,,,,,54,,,,,,,,,,,,,,576,,response,,,,100,,,,,,,Space,keypress(Space),,,,,,,,"-- --- ---- --- ------ ----- ------- ---- -- --- ------- --<br>------- ---------- ------ -- ----- -- ----- -- ---- ------<br>--- ----- --- --- ------ -------- ----- --- ------ ----- --<br>----- ----- plummeted, --- --- ------ ------ ---- -- ------<br>------- --- ------ ----- --- ---- ------- -- ---- --- --<br>------- ------",197513,197622,197046,197038,197063,197546,,35,"plummeted,"
screen,html.Screen,1_1_1_1_36,2021-04-20T10:59:13.240Z,,,,,,,,,,,,,,,,54,,,,,,,,,,,,,,490,,response,,,,100,,,,,,,Space,keypress(Space),,,,,,,,-- --- ---- --- ------ ----- ------- ---- -- --- ------- --<br>------- ---------- ------ -- ----- -- ----- -- ---- ------<br>--- ----- --- --- ------ -------- ----- --- ------ ----- --<br>----- ----- ---------- and --- ------ ------ ---- -- ------<br>------- --- ------ ----- --- ---- ------- -- ---- --- --<br>------- ------,197910,198019,197529,197513,197546,197946,,36,and
screen,html.Screen,1_1_1_1_37,2021-04-20T10:59:13.533Z,,,,,,,,,,,,,,,,54,,,,,,,,,,,,,,382,,response,,,,100,,,,,,,Space,keypress(Space),,,,,,,,-- --- ---- --- ------ ----- ------- ---- -- --- ------- --<br>------- ---------- ------ -- ----- -- ----- -- ---- ------<br>--- ----- --- --- ------ -------- ----- --- ------ ----- --<br>----- ----- ---------- --- the ------ ------ ---- -- ------<br>------- --- ------ ----- --- ---- ------- -- ---- --- --<br>------- ------,198203,198312,197930,197910,197946,198229,,37,the
screen,html.Screen,1_1_1_1_38,2021-04-20T10:59:14.019Z,,,,,,,,,,,,,,,,54,,,,,,,,,,,,,,585,,response,,,,100,,,,,,,Space,keypress(Space),,,,,,,,-- --- ---- --- ------ ----- ------- ---- -- --- ------- --<br>------- ---------- ------ -- ----- -- ----- -- ---- ------<br>--- ----- --- --- ------ -------- ----- --- ------ ----- --<br>----- ----- ---------- --- --- market ------ ---- -- ------<br>------- --- ------ ----- --- ---- ------- -- ---- --- --<br>------- ------,198689,198798,198213,198203,198229,198729,,38,market
screen,html.Screen,1_1_1_1_39,2021-04-20T10:59:14.366Z,,,,,,,,,,,,,,,,54,,,,,,,,,,,,,,432,,response,,,,100,,,,,,,Space,keypress(Space),,,,,,,,-- --- ---- --- ------ ----- ------- ---- -- --- ------- --<br>------- ---------- ------ -- ----- -- ----- -- ---- ------<br>--- ----- --- --- ------ -------- ----- --- ------ ----- --<br>----- ----- ---------- --- --- ------ became ---- -- ------<br>------- --- ------ ----- --- ---- ------- -- ---- --- --<br>------- ------,199036,199145,198713,198689,198729,199062,,39,became
screen,html.Screen,1_1_1_1_40,2021-04-20T10:59:14.689Z,,,,,,,,,,,,,,,,54,,,,,,,,,,,,,,422.0000000000291,,response,,,,100,,,,,,,Space,keypress(Space),,,,,,,,-- --- ---- --- ------ ----- ------- ---- -- --- ------- --<br>------- ---------- ------ -- ----- -- ----- -- ---- ------<br>--- ----- --- --- ------ -------- ----- --- ------ ----- --<br>----- ----- ---------- --- --- ------ ------ wary -- ------<br>------- --- ------ ----- --- ---- ------- -- ---- --- --<br>------- ------,199359,199468.00000000003,199046,199036,199062,199379,,40,wary
screen,html.Screen,1_1_1_1_41,2021-04-20T10:59:15.104Z,,,,,,,,,,,,,,,,54,,,,,,,,,,,,,,522,,response,,,,100,,,,,,,Space,keypress(Space),,,,,,,,-- --- ---- --- ------ ----- ------- ---- -- --- ------- --<br>------- ---------- ------ -- ----- -- ----- -- ---- ------<br>--- ----- --- --- ------ -------- ----- --- ------ ----- --<br>----- ----- ---------- --- --- ------ ------ ---- of ------<br>------- --- ------ ----- --- ---- ------- -- ---- --- --<br>------- ------,199774,199884,199362,199359,199379,199812,,41,of
screen,html.Screen,1_1_1_1_42,2021-04-20T10:59:15.363Z,,,,,,,,,,,,,,,,54,,,,,,,,,,,,,,347,,response,,,,100,,,,,,,Space,keypress(Space),,,,,,,,-- --- ---- --- ------ ----- ------- ---- -- --- ------- --<br>------- ---------- ------ -- ----- -- ----- -- ---- ------<br>--- ----- --- --- ------ -------- ----- --- ------ ----- --<br>----- ----- ---------- --- --- ------ ------ ---- -- French<br>------- --- ------ ----- --- ---- ------- -- ---- --- --<br>------- ------,200033.00000000003,200142,199795,199774,199812,200065,,42,French
screen,html.Screen,1_1_1_1_43,2021-04-20T10:59:15.673Z,,,,,,,,,,,,,,,,54,,,,,,,,,,,,,,402,,response,,,,100,,,,,,,Space,keypress(Space),,,,,,,,-- --- ---- --- ------ ----- ------- ---- -- --- ------- --<br>------- ---------- ------ -- ----- -- ----- -- ---- ------<br>--- ----- --- --- ------ -------- ----- --- ------ ----- --<br>----- ----- ---------- --- --- ------ ------ ---- -- ------<br>credit. --- ------ ----- --- ---- ------- -- ---- --- --<br>------- ------,200343.00000000003,200452,200050,200033.00000000003,200065,200366,,43,credit.
screen,html.Screen,1_1_1_1_44,2021-04-20T10:59:15.910Z,,,,,,,,,,,,,,,,54,,,,,,,,,,,,,,340,,response,,,,100,,,,,,,Space,keypress(Space),,,,,,,,-- --- ---- --- ------ ----- ------- ---- -- --- ------- --<br>------- ---------- ------ -- ----- -- ----- -- ---- ------<br>--- ----- --- --- ------ -------- ----- --- ------ ----- --<br>----- ----- ---------- --- --- ------ ------ ---- -- ------<br>------- The ------ ----- --- ---- ------- -- ---- --- --<br>------- ------,200580,200689,200349,200343.00000000003,200366,200599,,44,The
screen,html.Screen,1_1_1_1_45,2021-04-20T10:59:16.170Z,,,,,,,,,,,,,,,,54,,,,,,,,,,,,,,367,,response,,,,100,,,,,,,Space,keypress(Space),,,,,,,,-- --- ---- --- ------ ----- ------- ---- -- --- ------- --<br>------- ---------- ------ -- ----- -- ----- -- ---- ------<br>--- ----- --- --- ------ -------- ----- --- ------ ----- --<br>----- ----- ---------- --- --- ------ ------ ---- -- ------<br>------- --- French ----- --- ---- ------- -- ---- --- --<br>------- ------,200840,200949,200582,200580,200599,200865,,45,French
screen,html.Screen,1_1_1_1_46,2021-04-20T10:59:16.425Z,,,,,,,,,,,,,,,,54,,,,,,,,,,,,,,354,,response,,,,100,,,,,,,Space,keypress(Space),,,,,,,,-- --- ---- --- ------ ----- ------- ---- -- --- ------- --<br>------- ---------- ------ -- ----- -- ----- -- ---- ------<br>--- ----- --- --- ------ -------- ----- --- ------ ----- --<br>----- ----- ---------- --- --- ------ ------ ---- -- ------<br>------- --- ------ state --- ---- ------- -- ---- --- --<br>------- ------,201095,201204,200850,200840,200865,201116,,46,state
screen,html.Screen,1_1_1_1_47,2021-04-20T10:59:16.851Z,,,,,,,,,,,,,,,,54,,,,,,,,,,,,,,531,,response,,,,100,,,,,,,Space,keypress(Space),,,,,,,,-- --- ---- --- ------ ----- ------- ---- -- --- ------- --<br>------- ---------- ------ -- ----- -- ----- -- ---- ------<br>--- ----- --- --- ------ -------- ----- --- ------ ----- --<br>----- ----- ---------- --- --- ------ ------ ---- -- ------<br>------- --- ------ ----- was ---- ------- -- ---- --- --<br>------- ------,201521.00000000003,201630,201099,201095,201116,201549,,47,was
screen,html.Screen,1_1_1_1_48,2021-04-20T10:59:17.147Z,,,,,,,,,,,,,,,,54,,,,,,,,,,,,,,393.0000000000291,,response,,,,100,,,,,,,Space,keypress(Space),,,,,,,,-- --- ---- --- ------ ----- ------- ---- -- --- ------- --<br>------- ---------- ------ -- ----- -- ----- -- ---- ------<br>--- ----- --- --- ------ -------- ----- --- ------ ----- --<br>----- ----- ---------- --- --- ------ ------ ---- -- ------<br>------- --- ------ ----- --- left ------- -- ---- --- --<br>------- ------,201817,201926.00000000003,201533,201521.00000000003,201549,201848,,48,left
screen,html.Screen,1_1_1_1_49,2021-04-20T10:59:17.589Z,,,,,,,,,,,,,,,,54,,,,,,,,,,,,,,535,,response,,,,100,,,,,,,Space,keypress(Space),,,,,,,,-- --- ---- --- ------ ----- ------- ---- -- --- ------- --<br>------- ---------- ------ -- ----- -- ----- -- ---- ------<br>--- ----- --- --- ------ -------- ----- --- ------ ----- --<br>----- ----- ---------- --- --- ------ ------ ---- -- ------<br>------- --- ------ ----- --- ---- without -- ---- --- --<br>------- ------,202259,202368,201833,201817,201848,202299,,49,without
screen,html.Screen,1_1_1_1_50,2021-04-20T10:59:17.861Z,,,,,,,,,,,,,,,,54,,,,,,,,,,,,,,357.0000000000291,,response,,,,100,,,,,,,Space,keypress(Space),,,,,,,,-- --- ---- --- ------ ----- ------- ---- -- --- ------- --<br>------- ---------- ------ -- ----- -- ----- -- ---- ------<br>--- ----- --- --- ------ -------- ----- --- ------ ----- --<br>----- ----- ---------- --- --- ------ ------ ---- -- ------<br>------- --- ------ ----- --- ---- ------- an ---- --- --<br>------- ------,202531,202640.00000000003,202283,202259,202299,202549,,50,an
screen,html.Screen,1_1_1_1_51,2021-04-20T10:59:18.090Z,,,,,,,,,,,,,,,,54,,,,,,,,,,,,,,337,,response,,,,100,,,,,,,Space,keypress(Space),,,,,,,,-- --- ---- --- ------ ----- ------- ---- -- --- ------- --<br>------- ---------- ------ -- ----- -- ----- -- ---- ------<br>--- ----- --- --- ------ -------- ----- --- ------ ----- --<br>----- ----- ---------- --- --- ------ ------ ---- -- ------<br>------- --- ------ ----- --- ---- ------- -- easy --- --<br>------- ------,202760,202869,202532,202531,202549,202782,,51,easy
screen,html.Screen,1_1_1_1_52,2021-04-20T10:59:18.336Z,,,,,,,,,,,,,,,,54,,,,,,,,,,,,,,349,,response,,,,100,,,,,,,Space,keypress(Space),,,,,,,,-- --- ---- --- ------ ----- ------- ---- -- --- ------- --<br>------- ---------- ------ -- ----- -- ----- -- ---- ------<br>--- ----- --- --- ------ -------- ----- --- ------ ----- --<br>----- ----- ---------- --- --- ------ ------ ---- -- ------<br>------- --- ------ ----- --- ---- ------- -- ---- way --<br>------- ------,203006,203115,202766,202760,202782,203033,,52,way
screen,html.Screen,1_1_1_1_53,2021-04-20T10:59:18.772Z,,,,,,,,,,,,,,,,54,,,,,,,,,,,,,,536,,response,,,,100,,,,,,,Space,keypress(Space),,,,,,,,-- --- ---- --- ------ ----- ------- ---- -- --- ------- --<br>------- ---------- ------ -- ----- -- ----- -- ---- ------<br>--- ----- --- --- ------ -------- ----- --- ------ ----- --<br>----- ----- ---------- --- --- ------ ------ ---- -- ------<br>------- --- ------ ----- --- ---- ------- -- ---- --- of<br>------- ------,203442,203552,203016,203006,203033,203482,,53,of
screen,html.Screen,1_1_1_1_54,2021-04-20T10:59:19.106Z,,,,,,,,,,,,,,,,54,,,,,,,,,,,,,,419,,response,,,,100,,,,,,,Space,keypress(Space),,,,,,,,-- --- ---- --- ------ ----- ------- ---- -- --- ------- --<br>------- ---------- ------ -- ----- -- ----- -- ---- ------<br>--- ----- --- --- ------ -------- ----- --- ------ ----- --<br>----- ----- ---------- --- --- ------ ------ ---- -- ------<br>------- --- ------ ----- --- ---- ------- -- ---- --- --<br>raising ------,203776,203885,203466,203442,203482,203798,,54,raising
screen,html.Screen,1_1_1_1_55,2021-04-20T10:59:19.425Z,,,,,,,,,,,,,,,,54,,,,,,,,,,,,,,422,,response,,,,100,,,,,,,Space,keypress(Space),,,,,,,,-- --- ---- --- ------ ----- ------- ---- -- --- ------- --<br>------- ---------- ------ -- ----- -- ----- -- ---- ------<br>--- ----- --- --- ------ -------- ----- --- ------ ----- --<br>----- ----- ---------- --- --- ------ ------ ---- -- ------<br>------- --- ------ ----- --- ---- ------- -- ---- --- --<br>------- money.,204095,204204,203782,203776,203798,204116,,55,money.
Item 100,flow.Loop,1_1_1_1,2021-04-20T10:59:19.425Z,,,,,,,,,,,,,,,,,,,,,,,,,,,,,,19100,,completion,,,,,E,,,,,,,,,,,silence,,,,,204095,204204,185088,185088,185104,204116,,,
Question 1,html.Screen,1_1_1_2,2021-04-20T10:59:23.550Z,,,,,,,,,,,,,,,,,,,,,,,,,,,true,TRUE,,4232.000000000029,,response,,,,100,E,,,,,,TRUE,click #choice-1,,,,silence,,,,,208220,208331.00000000003,204099,204095,204116,208248,,,
Question 2,html.Screen,1_1_1_3,2021-04-20T10:59:27.100Z,,,,,,,,,,,,,,,,,,,,,,,,,,,true,FALSE,,3649,,response,,,,100,E,,,,,,FALSE,click #choice-2,,,,silence,,,,,211770,211880,208231,208221,208248,211799,,,
Item 100,flow.Sequence,1_1_1,2021-04-20T10:59:27.100Z,,,,,,,,,,,,,,,,,,,,,,,,,,,,,,36766,,completion,,,,,,,,,,,,,,,,,,,,,211770,211880,175098,175089,175114,211799,,,
End of Practice,html.Page,1_1_2,2021-04-20T10:59:35.761Z,,,,,,,,,,,,,,,,,,,,,,,,,,,,,,8632,,form submission,,,,,,,,,,,,,,,,,,,,,220431,220431,211782,211770,211799,220456,,,
Practice,flow.Sequence,1_1,2021-04-20T10:59:35.761Z,,,,,,,,,,,,,,,,,,,,,,,,,,,,,,89564,,completion,,,,,,,,,,,,,,,,,,,,,220431,220431,130862,130856,130867,220456,,,
Trap_instruction,html.Page,1_2_0,2021-04-20T10:59:41.653Z,,,,,,,,,,,,,,,,,,,,,,,,,,,,,,5867,,form submission,,,,,,,,,,,,,,,,,,,,,226323,226323,220439,220432.00000000003,220456,226344,,,
trap_trial,html.Screen,1_2_1,2021-04-20T10:59:44.931Z,,,,,,,,,,,,,,,,,,,,,,,,,,,true,1,,3379.000000000029,,response,,,,,,,,,,,1,click #choice-1,,,,,,,,,229602,229712.00000000003,226333,226324,226344,229643,,,
end of trap trial,html.Page,1_2_2,2021-04-20T10:59:46.968Z,,,,,,,,,,,,,,,,,,,,,,,,,,,,,,1996,,form submission,,,,,,,,,,,,,,,,,,,,,231639,231639,229633,229602,229643,231667,,,
Trap 1,flow.Sequence,1_2,2021-04-20T10:59:46.969Z,,,,,,,,,,,,,,,,,,,,,,,,,,,,,,11183,,completion,,,,,,,,,,,,,,,,,,,,,231639,231639,220439,220432.00000000003,220456,231667,,,
Standby,html.Page,1_3_0,2021-04-20T10:59:54.980Z,,,,,,,,,,,,,,,,,,,,,,,,,,,,,,8000,,timeout,,,,,,,,,,,,,,,,,,,,,239650,239650,231649,231640.00000000003,231667,239667,,,
Holding screen,html.Screen,1_3_1_0_0,2021-04-20T11:00:01.986Z,,,,,,,,,,,,,,,,,,,,,,,,,,,,,,7007,,timeout,,,,,,,,,,,,,,,,,,,,,246657,246657,239650,239651,239667,246674,,,
screen,html.Screen,1_3_1_0_1_0,2021-04-20T11:00:02.615Z,,,,,,,,,,,,,,,,2,,,,,,,,,,,,,,740,,response,,,,1,E,,,,,,Space,keypress(Space),,,,lyrical,,,,Two ---- ------ --- ------- ---------- ------- ----------<br>--- --------- --- ----------- ------- ----- ------- ---<br>--------- ---- -- --- ---- -- --------- -- ---- -------<br>-- --------- ------ --- ----- ------ ---- --- --------- --<br>------ - ---- -- --- ----------- ------- ---- ----- -----<br>--- -------- - ------ ---- -- ----- ---- --- --- -----------<br>-- -------,247287,247397,246657,246657,246674,247322,,0,Two
screen,html.Screen,1_3_1_0_1_1,2021-04-20T11:00:02.996Z,,,,,,,,,,,,,,,,2,,,,,,,,,,,,,,471,,response,,,,1,E,,,,,,Space,keypress(Space),,,,lyrical,,,,--- days ------ --- ------- ---------- ------- ----------<br>--- --------- --- ----------- ------- ----- ------- ---<br>--------- ---- -- --- ---- -- --------- -- ---- -------<br>-- --------- ------ --- ----- ------ ---- --- --------- --<br>------ - ---- -- --- ----------- ------- ---- ----- -----<br>--- -------- - ------ ---- -- ----- ---- --- --- -----------<br>-- -------,247667,247778,247307,247287,247322,247690,,1,days
screen,html.Screen,1_3_1_0_1_2,2021-04-20T11:00:03.314Z,,,,,,,,,,,,,,,,2,,,,,,,,,,,,,,423,,response,,,,1,E,,,,,,Space,keypress(Space),,,,lyrical,,,,"--- ---- later, --- ------- ---------- ------- ----------<br>--- --------- --- ----------- ------- ----- ------- ---<br>--------- ---- -- --- ---- -- --------- -- ---- -------<br>-- --------- ------ --- ----- ------ ---- --- --------- --<br>------ - ---- -- --- ----------- ------- ---- ----- -----<br>--- -------- - ------ ---- -- ----- ---- --- --- -----------<br>-- -------",247985,248096,247673,247667,247690,248006,,2,"later,"
screen,html.Screen,1_3_1_0_1_3,2021-04-20T11:00:03.591Z,,,,,,,,,,,,,,,,2,,,,,,,,,,,,,,383.0000000000291,,response,,,,1,E,,,,,,Space,keypress(Space),,,,lyrical,,,,--- ---- ------ the ------- ---------- ------- ----------<br>--- --------- --- ----------- ------- ----- ------- ---<br>--------- ---- -- --- ---- -- --------- -- ---- -------<br>-- --------- ------ --- ----- ------ ---- --- --------- --<br>------ - ---- -- --- ----------- ------- ---- ----- -----<br>--- -------- - ------ ---- -- ----- ---- --- --- -----------<br>-- -------,248262,248373.00000000003,247990,247986.00000000003,248006,248290,,3,the
screen,html.Screen,1_3_1_0_1_4,2021-04-20T11:00:03.893Z,,,,,,,,,,,,,,,,2,,,,,,,,,,,,,,402,,response,,,,1,E,,,,,,Space,keypress(Space),,,,lyrical,,,,--- ---- ------ --- British ---------- ------- ----------<br>--- --------- --- ----------- ------- ----- ------- ---<br>--------- ---- -- --- ---- -- --------- -- ---- -------<br>-- --------- ------ --- ----- ------ ---- --- --------- --<br>------ - ---- -- --- ----------- ------- ---- ----- -----<br>--- -------- - ------ ---- -- ----- ---- --- --- -----------<br>-- -------,248564,248675,248273,248262,248290,248590,,4,British
screen,html.Screen,1_3_1_0_1_5,2021-04-20T11:00:04.224Z,,,,,,,,,,,,,,,,2,,,,,,,,,,,,,,433,,response,,,,1,E,,,,,,Space,keypress(Space),,,,lyrical,,,,--- ---- ------ --- ------- astronomer ------- ----------<br>--- --------- --- ----------- ------- ----- ------- ---<br>--------- ---- -- --- ---- -- --------- -- ---- -------<br>-- --------- ------ --- ----- ------ ---- --- --------- --<br>------ - ---- -- --- ----------- ------- ---- ----- -----<br>--- -------- - ------ ---- -- ----- ---- --- --- -----------<br>-- -------,248895,249006,248573,248565,248590,248922,,5,astronomer
screen,html.Screen,1_3_1_0_1_6,2021-04-20T11:00:04.568Z,,,,,,,,,,,,,,,,2,,,,,,,,,,,,,,443,,response,,,,1,E,,,,,,Space,keypress(Space),,,,lyrical,,,,--- ---- ------ --- ------- ---------- Richard ----------<br>--- --------- --- ----------- ------- ----- ------- ---<br>--------- ---- -- --- ---- -- --------- -- ---- -------<br>-- --------- ------ --- ----- ------ ---- --- --------- --<br>------ - ---- -- --- ----------- ------- ---- ----- -----<br>--- -------- - ------ ---- -- ----- ---- --- --- -----------<br>-- -------,249239,249350,248907,248896.00000000003,248922,249274,,6,Richard
screen,html.Screen,1_3_1_0_1_7,2021-04-20T11:00:04.889Z,,,,,,,,,,,,,,,,2,,,,,,,,,,,,,,413.0000000000291,,response,,,,1,E,,,,,,Space,keypress(Space),,,,lyrical,,,,--- ---- ------ --- ------- ---------- ------- Carrington<br>--- --------- --- ----------- ------- ----- ------- ---<br>--------- ---- -- --- ---- -- --------- -- ---- -------<br>-- --------- ------ --- ----- ------ ---- --- --------- --<br>------ - ---- -- --- ----------- ------- ---- ----- -----<br>--- -------- - ------ ---- -- ----- ---- --- --- -----------<br>-- -------,249560,249670.00000000003,249257,249239,249274,249590,,7,Carrington
screen,html.Screen,1_3_1_0_1_8,2021-04-20T11:00:05.256Z,,,,,,,,,,,,,,,,2,,,,,,,,,,,,,,464,,response,,,,1,E,,,,,,Space,keypress(Space),,,,lyrical,,,,--- ---- ------ --- ------- ---------- ------- ----------<br>was --------- --- ----------- ------- ----- ------- ---<br>--------- ---- -- --- ---- -- --------- -- ---- -------<br>-- --------- ------ --- ----- ------ ---- --- --------- --<br>------ - ---- -- --- ----------- ------- ---- ----- -----<br>--- -------- - ------ ---- -- ----- ---- --- --- -----------<br>-- -------,249927,250038,249574,249560,249590,249957,,8,was
screen,html.Screen,1_3_1_0_1_9,2021-04-20T11:00:05.555Z,,,,,,,,,,,,,,,,2,,,,,,,,,,,,,,397.0000000000291,,response,,,,1,E,,,,,,Space,keypress(Space),,,,lyrical,,,,--- ---- ------ --- ------- ---------- ------- ----------<br>--- observing --- ----------- ------- ----- ------- ---<br>--------- ---- -- --- ---- -- --------- -- ---- -------<br>-- --------- ------ --- ----- ------ ---- --- --------- --<br>------ - ---- -- --- ----------- ------- ---- ----- -----<br>--- -------- - ------ ---- -- ----- ---- --- --- -----------<br>-- -------,250226,250337.00000000003,249940,249927,249957,250244,,9,observing
screen,html.Screen,1_3_1_0_1_10,2021-04-20T11:00:06.003Z,,,,,,,,,,,,,,,,2,,,,,,,,,,,,,,558,,response,,,,1,E,,,,,,Space,keypress(Space),,,,lyrical,,,,--- ---- ------ --- ------- ---------- ------- ----------<br>--- --------- the ----------- ------- ----- ------- ---<br>--------- ---- -- --- ---- -- --------- -- ---- -------<br>-- --------- ------ --- ----- ------ ---- --- --------- --<br>------ - ---- -- --- ----------- ------- ---- ----- -----<br>--- -------- - ------ ---- -- ----- ---- --- --- -----------<br>-- -------,250674,250785,250227,250226,250244,250711,,10,the
screen,html.Screen,1_3_1_0_1_11,2021-04-20T11:00:06.342Z,,,,,,,,,,,,,,,,2,,,,,,,,,,,,,,429,,response,,,,1,E,,,,,,Space,keypress(Space),,,,lyrical,,,,--- ---- ------ --- ------- ---------- ------- ----------<br>--- --------- --- interesting ------- ----- ------- ---<br>--------- ---- -- --- ---- -- --------- -- ---- -------<br>-- --------- ------ --- ----- ------ ---- --- --------- --<br>------ - ---- -- --- ----------- ------- ---- ----- -----<br>--- -------- - ------ ---- -- ----- ---- --- --- -----------<br>-- -------,251013,251124,250695,250674,250711,251045,,11,interesting
screen,html.Screen,1_3_1_0_1_12,2021-04-20T11:00:06.712Z,,,,,,,,,,,,,,,,2,,,,,,,,,,,,,,466,,response,,,,1,E,,,,,,Space,keypress(Space),,,,lyrical,,,,--- ---- ------ --- ------- ---------- ------- ----------<br>--- --------- --- ----------- sunspot ----- ------- ---<br>--------- ---- -- --- ---- -- --------- -- ---- -------<br>-- --------- ------ --- ----- ------ ---- --- --------- --<br>------ - ---- -- --- ----------- ------- ---- ----- -----<br>--- -------- - ------ ---- -- ----- ---- --- --- -----------<br>-- -------,251383,251494,251028,251013,251045,251411,,12,sunspot
screen,html.Screen,1_3_1_0_1_13,2021-04-20T11:00:07.084Z,,,,,,,,,,,,,,,,2,,,,,,,,,,,,,,472,,response,,,,1,E,,,,,,Space,keypress(Space),,,,lyrical,,,,--- ---- ------ --- ------- ---------- ------- ----------<br>--- --------- --- ----------- ------- group ------- ---<br>--------- ---- -- --- ---- -- --------- -- ---- -------<br>-- --------- ------ --- ----- ------ ---- --- --------- --<br>------ - ---- -- --- ----------- ------- ---- ----- -----<br>--- -------- - ------ ---- -- ----- ---- --- --- -----------<br>-- -------,251755,251866,251394,251384,251411,251777,,13,group
screen,html.Screen,1_3_1_0_1_14,2021-04-20T11:00:07.597Z,,,,,,,,,,,,,,,,2,,,,,,,,,,,,,,618.0000000000291,,response,,,,1,E,,,,,,Space,keypress(Space),,,,lyrical,,,,--- ---- ------ --- ------- ---------- ------- ----------<br>--- --------- --- ----------- ------- ----- through ---<br>--------- ---- -- --- ---- -- --------- -- ---- -------<br>-- --------- ------ --- ----- ------ ---- --- --------- --<br>------ - ---- -- --- ----------- ------- ---- ----- -----<br>--- -------- - ------ ---- -- ----- ---- --- --- -----------<br>-- -------,252269,252379.00000000003,251761,251755,251777,252311,,14,through
screen,html.Screen,1_3_1_0_1_15,2021-04-20T11:00:08.583Z,,,,,,,,,,,,,,,,2,,,,,,,,,,,,,,1071,,response,,,,1,E,,,,,,Space,keypress(Space),,,,lyrical,,,,--- ---- ------ --- ------- ---------- ------- ----------<br>--- --------- --- ----------- ------- ----- ------- his<br>--------- ---- -- --- ---- -- --------- -- ---- -------<br>-- --------- ------ --- ----- ------ ---- --- --------- --<br>------ - ---- -- --- ----------- ------- ---- ----- -----<br>--- -------- - ------ ---- -- ----- ---- --- --- -----------<br>-- -------,253254.00000000003,253365,252294,252269,252311,253294,,15,his
screen,html.Screen,1_3_1_0_1_16,2021-04-20T11:00:09.028Z,,,,,,,,,,,,,,,,2,,,,,,,,,,,,,,532,,response,,,,1,E,,,,,,Space,keypress(Space),,,,lyrical,,,,--- ---- ------ --- ------- ---------- ------- ----------<br>--- --------- --- ----------- ------- ----- ------- ---<br>telescope ---- -- --- ---- -- --------- -- ---- -------<br>-- --------- ------ --- ----- ------ ---- --- --------- --<br>------ - ---- -- --- ----------- ------- ---- ----- -----<br>--- -------- - ------ ---- -- ----- ---- --- --- -----------<br>-- -------,253699,253810,253278,253254.00000000003,253294,253728,,16,telescope
screen,html.Screen,1_3_1_0_1_17,2021-04-20T11:00:09.490Z,,,,,,,,,,,,,,,,2,,,,,,,,,,,,,,562,,response,,,,1,E,,,,,,Space,keypress(Space),,,,lyrical,,,,--- ---- ------ --- ------- ---------- ------- ----------<br>--- --------- --- ----------- ------- ----- ------- ---<br>--------- when -- --- ---- -- --------- -- ---- -------<br>-- --------- ------ --- ----- ------ ---- --- --------- --<br>------ - ---- -- --- ----------- ------- ---- ----- -----<br>--- -------- - ------ ---- -- ----- ---- --- --- -----------<br>-- -------,254161,254272,253710,253699,253728,254193,,17,when
screen,html.Screen,1_3_1_0_1_18,2021-04-20T11:00:09.808Z,,,,,,,,,,,,,,,,2,,,,,,,,,,,,,,413,,response,,,,1,E,,,,,,Space,keypress(Space),,,,lyrical,,,,--- ---- ------ --- ------- ---------- ------- ----------<br>--- --------- --- ----------- ------- ----- ------- ---<br>--------- ---- he --- ---- -- --------- -- ---- -------<br>-- --------- ------ --- ----- ------ ---- --- --------- --<br>------ - ---- -- --- ----------- ------- ---- ----- -----<br>--- -------- - ------ ---- -- ----- ---- --- --- -----------<br>-- -------,254479,254590,254177,254161,254193,254510,,18,he
screen,html.Screen,1_3_1_0_1_19,2021-04-20T11:00:10.158Z,,,,,,,,,,,,,,,,2,,,,,,,,,,,,,,446,,response,,,,1,E,,,,,,Space,keypress(Space),,,,lyrical,,,,--- ---- ------ --- ------- ---------- ------- ----------<br>--- --------- --- ----------- ------- ----- ------- ---<br>--------- ---- -- saw ---- -- --------- -- ---- -------<br>-- --------- ------ --- ----- ------ ---- --- --------- --<br>------ - ---- -- --- ----------- ------- ---- ----- -----<br>--- -------- - ------ ---- -- ----- ---- --- --- -----------<br>-- -------,254829,254940,254494,254479,254510,254861,,19,saw
screen,html.Screen,1_3_1_0_1_20,2021-04-20T11:00:10.588Z,,,,,,,,,,,,,,,,2,,,,,,,,,,,,,,527,,response,,,,1,E,,,,,,Space,keypress(Space),,,,lyrical,,,,--- ---- ------ --- ------- ---------- ------- ----------<br>--- --------- --- ----------- ------- ----- ------- ---<br>--------- ---- -- --- what -- --------- -- ---- -------<br>-- --------- ------ --- ----- ------ ---- --- --------- --<br>------ - ---- -- --- ----------- ------- ---- ----- -----<br>--- -------- - ------ ---- -- ----- ---- --- --- -----------<br>-- -------,255259,255370,254843,254830,254861,255294,,20,what
screen,html.Screen,1_3_1_0_1_21,2021-04-20T11:00:10.823Z,,,,,,,,,,,,,,,,2,,,,,,,,,,,,,,328.0000000000291,,response,,,,1,E,,,,,,Space,keypress(Space),,,,lyrical,,,,--- ---- ------ --- ------- ---------- ------- ----------<br>--- --------- --- ----------- ------- ----- ------- ---<br>--------- ---- -- --- ---- he --------- -- ---- -------<br>-- --------- ------ --- ----- ------ ---- --- --------- --<br>------ - ---- -- --- ----------- ------- ---- ----- -----<br>--- -------- - ------ ---- -- ----- ---- --- --- -----------<br>-- -------,255494,255605.00000000003,255277,255260.00000000003,255294,255514,,21,he
screen,html.Screen,1_3_1_0_1_22,2021-04-20T11:00:10.999Z,,,,,,,,,,,,,,,,2,,,,,,,,,,,,,,283,,response,,,,1,E,,,,,,Space,keypress(Space),,,,lyrical,,,,--- ---- ------ --- ------- ---------- ------- ----------<br>--- --------- --- ----------- ------- ----- ------- ---<br>--------- ---- -- --- ---- -- described -- ---- -------<br>-- --------- ------ --- ----- ------ ---- --- --------- --<br>------ - ---- -- --- ----------- ------- ---- ----- -----<br>--- -------- - ------ ---- -- ----- ---- --- --- -----------<br>-- -------,255670.00000000003,255781,255498,255494,255514,255698,,22,described
screen,html.Screen,1_3_1_0_1_23,2021-04-20T11:00:11.476Z,,,,,,,,,,,,,,,,2,,,,,,,,,,,,,,576,,response,,,,1,E,,,,,,Space,keypress(Space),,,,lyrical,,,,--- ---- ------ --- ------- ---------- ------- ----------<br>--- --------- --- ----------- ------- ----- ------- ---<br>--------- ---- -- --- ---- -- --------- as ---- -------<br>-- --------- ------ --- ----- ------ ---- --- --------- --<br>------ - ---- -- --- ----------- ------- ---- ----- -----<br>--- -------- - ------ ---- -- ----- ---- --- --- -----------<br>-- -------,256147,256257,255681,255670.00000000003,255698,256182,,23,as
screen,html.Screen,1_3_1_0_1_24,2021-04-20T11:00:11.814Z,,,,,,,,,,,,,,,,2,,,,,,,,,,,,,,431,,response,,,,1,E,,,,,,Space,keypress(Space),,,,lyrical,,,,"--- ---- ------ --- ------- ---------- ------- ----------<br>--- --------- --- ----------- ------- ----- ------- ---<br>--------- ---- -- --- ---- -- --------- -- ""two -------<br>-- --------- ------ --- ----- ------ ---- --- --------- --<br>------ - ---- -- --- ----------- ------- ---- ----- -----<br>--- -------- - ------ ---- -- ----- ---- --- --- -----------<br>-- -------",256485,256596,256165,256147,256182,256514,,24,"""two"
screen,html.Screen,1_3_1_0_1_25,2021-04-20T11:00:12.149Z,,,,,,,,,,,,,,,,2,,,,,,,,,,,,,,432.9999999999709,,response,,,,1,E,,,,,,Space,keypress(Space),,,,lyrical,,,,--- ---- ------ --- ------- ---------- ------- ----------<br>--- --------- --- ----------- ------- ----- ------- ---<br>--------- ---- -- --- ---- -- --------- -- ---- patches<br>-- --------- ------ --- ----- ------ ---- --- --------- --<br>------ - ---- -- --- ----------- ------- ---- ----- -----<br>--- -------- - ------ ---- -- ----- ---- --- --- -----------<br>-- -------,256821.00000000003,256930.99999999997,256498,256485,256514,256849,,25,patches
screen,html.Screen,1_3_1_0_1_26,2021-04-20T11:00:12.476Z,,,,,,,,,,,,,,,,2,,,,,,,,,,,,,,425.9999999999709,,response,,,,1,E,,,,,,Space,keypress(Space),,,,lyrical,,,,--- ---- ------ --- ------- ---------- ------- ----------<br>--- --------- --- ----------- ------- ----- ------- ---<br>--------- ---- -- --- ---- -- --------- -- ---- -------<br>of --------- ------ --- ----- ------ ---- --- --------- --<br>------ - ---- -- --- ----------- ------- ---- ----- -----<br>--- -------- - ------ ---- -- ----- ---- --- --- -----------<br>-- -------,257147,257257.99999999997,256832,256821.00000000003,256849,257165,,26,of
screen,html.Screen,1_3_1_0_1_27,2021-04-20T11:00:12.679Z,,,,,,,,,,,,,,,,2,,,,,,,,,,,,,,313,,response,,,,1,E,,,,,,Space,keypress(Space),,,,lyrical,,,,--- ---- ------ --- ------- ---------- ------- ----------<br>--- --------- --- ----------- ------- ----- ------- ---<br>--------- ---- -- --- ---- -- --------- -- ---- -------<br>-- intensely ------ --- ----- ------ ---- --- --------- --<br>------ - ---- -- --- ----------- ------- ---- ----- -----<br>--- -------- - ------ ---- -- ----- ---- --- --- -----------<br>-- -------,257350.00000000003,257461,257148,257148.00000000003,257165,257382,,27,intensely
screen,html.Screen,1_3_1_0_1_28,2021-04-20T11:00:13.140Z,,,,,,,,,,,,,,,,2,,,,,,,,,,,,,,557.0000000000291,,response,,,,1,E,,,,,,Space,keypress(Space),,,,lyrical,,,,--- ---- ------ --- ------- ---------- ------- ----------<br>--- --------- --- ----------- ------- ----- ------- ---<br>--------- ---- -- --- ---- -- --------- -- ---- -------<br>-- --------- bright --- ----- ------ ---- --- --------- --<br>------ - ---- -- --- ----------- ------- ---- ----- -----<br>--- -------- - ------ ---- -- ----- ---- --- --- -----------<br>-- -------,257810.99999999997,257922.00000000003,257365,257350.00000000003,257382,257848,,28,bright
screen,html.Screen,1_3_1_0_1_29,2021-04-20T11:00:13.474Z,,,,,,,,,,,,,,,,2,,,,,,,,,,,,,,424.0000000000291,,response,,,,1,E,,,,,,Space,keypress(Space),,,,lyrical,,,,--- ---- ------ --- ------- ---------- ------- ----------<br>--- --------- --- ----------- ------- ----- ------- ---<br>--------- ---- -- --- ---- -- --------- -- ---- -------<br>-- --------- ------ and ----- ------ ---- --- --------- --<br>------ - ---- -- --- ----------- ------- ---- ----- -----<br>--- -------- - ------ ---- -- ----- ---- --- --- -----------<br>-- -------,258144.99999999997,258256.00000000003,257832,257810.99999999997,257848,258165,,29,and
screen,html.Screen,1_3_1_0_1_30,2021-04-20T11:00:13.901Z,,,,,,,,,,,,,,,,2,,,,,,,,,,,,,,535,,response,,,,1,E,,,,,,Space,keypress(Space),,,,lyrical,,,,--- ---- ------ --- ------- ---------- ------- ----------<br>--- --------- --- ----------- ------- ----- ------- ---<br>--------- ---- -- --- ---- -- --------- -- ---- -------<br>-- --------- ------ --- white ------ ---- --- --------- --<br>------ - ---- -- --- ----------- ------- ---- ----- -----<br>--- -------- - ------ ---- -- ----- ---- --- --- -----------<br>-- -------,258572.99999999997,258683,258148,258144.99999999997,258165,258615,,30,white
screen,html.Screen,1_3_1_0_1_31,2021-04-20T11:00:14.257Z,,,,,,,,,,,,,,,,2,,,,,,,,,,,,,,441,,response,,,,1,E,,,,,,Space,keypress(Space),,,,lyrical,,,,"--- ---- ------ --- ------- ---------- ------- ----------<br>--- --------- --- ----------- ------- ----- ------- ---<br>--------- ---- -- --- ---- -- --------- -- ---- -------<br>-- --------- ------ --- ----- light"" ---- --- --------- --<br>------ - ---- -- --- ----------- ------- ---- ----- -----<br>--- -------- - ------ ---- -- ----- ---- --- --- -----------<br>-- -------",258928,259039,258598,258572.99999999997,258615,258948,,31,"light"""
screen,html.Screen,1_3_1_0_1_32,2021-04-20T11:00:14.674Z,,,,,,,,,,,,,,,,2,,,,,,,,,,,,,,524.0000000000291,,response,,,,1,E,,,,,,Space,keypress(Space),,,,lyrical,,,,--- ---- ------ --- ------- ---------- ------- ----------<br>--- --------- --- ----------- ------- ----- ------- ---<br>--------- ---- -- --- ---- -- --------- -- ---- -------<br>-- --------- ------ --- ----- ------ over --- --------- --<br>------ - ---- -- --- ----------- ------- ---- ----- -----<br>--- -------- - ------ ---- -- ----- ---- --- --- -----------<br>-- -------,259346,259456.00000000003,258932,258928,258948,259382,,32,over
screen,html.Screen,1_3_1_0_1_33,2021-04-20T11:00:14.929Z,,,,,,,,,,,,,,,,2,,,,,,,,,,,,,,346,,response,,,,1,E,,,,,,Space,keypress(Space),,,,lyrical,,,,--- ---- ------ --- ------- ---------- ------- ----------<br>--- --------- --- ----------- ------- ----- ------- ---<br>--------- ---- -- --- ---- -- --------- -- ---- -------<br>-- --------- ------ --- ----- ------ ---- the --------- --<br>------ - ---- -- --- ----------- ------- ---- ----- -----<br>--- -------- - ------ ---- -- ----- ---- --- --- -----------<br>-- -------,259600.00000000003,259712,259366,259346,259382,259631,,33,the
screen,html.Screen,1_3_1_0_1_34,2021-04-20T11:00:15.128Z,,,,,,,,,,,,,,,,2,,,,,,,,,,,,,,296,,response,,,,1,E,,,,,,Space,keypress(Space),,,,lyrical,,,,--- ---- ------ --- ------- ---------- ------- ----------<br>--- --------- --- ----------- ------- ----- ------- ---<br>--------- ---- -- --- ---- -- --------- -- ---- -------<br>-- --------- ------ --- ----- ------ ---- --- sunspots. --<br>------ - ---- -- --- ----------- ------- ---- ----- -----<br>--- -------- - ------ ---- -- ----- ---- --- --- -----------<br>-- -------,259800,259911,259615,259601,259631,259832,,34,sunspots.
screen,html.Screen,1_3_1_0_1_35,2021-04-20T11:00:15.650Z,,,,,,,,,,,,,,,,2,,,,,,,,,,,,,,617.0000000000291,,response,,,,1,E,,,,,,Space,keypress(Space),,,,lyrical,,,,--- ---- ------ --- ------- ---------- ------- ----------<br>--- --------- --- ----------- ------- ----- ------- ---<br>--------- ---- -- --- ---- -- --------- -- ---- -------<br>-- --------- ------ --- ----- ------ ---- --- --------- He<br>------ - ---- -- --- ----------- ------- ---- ----- -----<br>--- -------- - ------ ---- -- ----- ---- --- --- -----------<br>-- -------,260322,260432.00000000003,259815,259800,259832,260365,,35,He
screen,html.Screen,1_3_1_0_1_36,2021-04-20T11:00:16.062Z,,,,,,,,,,,,,,,,2,,,,,,,,,,,,,,495,,response,,,,1,E,,,,,,Space,keypress(Space),,,,lyrical,,,,--- ---- ------ --- ------- ---------- ------- ----------<br>--- --------- --- ----------- ------- ----- ------- ---<br>--------- ---- -- --- ---- -- --------- -- ---- -------<br>-- --------- ------ --- ----- ------ ---- --- --------- --<br>jotted - ---- -- --- ----------- ------- ---- ----- -----<br>--- -------- - ------ ---- -- ----- ---- --- --- -----------<br>-- -------,260733.99999999997,260844,260349,260322,260365,260770,,36,jotted
screen,html.Screen,1_3_1_0_1_37,2021-04-20T11:00:16.302Z,,,,,,,,,,,,,,,,2,,,,,,,,,,,,,,331,,response,,,,1,E,,,,,,Space,keypress(Space),,,,lyrical,,,,--- ---- ------ --- ------- ---------- ------- ----------<br>--- --------- --- ----------- ------- ----- ------- ---<br>--------- ---- -- --- ---- -- --------- -- ---- -------<br>-- --------- ------ --- ----- ------ ---- --- --------- --<br>------ a ---- -- --- ----------- ------- ---- ----- -----<br>--- -------- - ------ ---- -- ----- ---- --- --- -----------<br>-- -------,260973,261084,260753,260733.99999999997,260770,261003,,37,a
screen,html.Screen,1_3_1_0_1_38,2021-04-20T11:00:16.596Z,,,,,,,,,,,,,,,,2,,,,,,,,,,,,,,392.0000000000291,,response,,,,1,E,,,,,,Space,keypress(Space),,,,lyrical,,,,--- ---- ------ --- ------- ---------- ------- ----------<br>--- --------- --- ----------- ------- ----- ------- ---<br>--------- ---- -- --- ---- -- --------- -- ---- -------<br>-- --------- ------ --- ----- ------ ---- --- --------- --<br>------ - note -- --- ----------- ------- ---- ----- -----<br>--- -------- - ------ ---- -- ----- ---- --- --- -----------<br>-- -------,261267,261379.00000000003,260987,260973,261003,261286,,38,note
screen,html.Screen,1_3_1_0_1_39,2021-04-20T11:00:16.878Z,,,,,,,,,,,,,,,,2,,,,,,,,,,,,,,391,,response,,,,1,E,,,,,,Space,keypress(Space),,,,lyrical,,,,--- ---- ------ --- ------- ---------- ------- ----------<br>--- --------- --- ----------- ------- ----- ------- ---<br>--------- ---- -- --- ---- -- --------- -- ---- -------<br>-- --------- ------ --- ----- ------ ---- --- --------- --<br>------ - ---- in --- ----------- ------- ---- ----- -----<br>--- -------- - ------ ---- -- ----- ---- --- --- -----------<br>-- -------,261548.99999999997,261661,261270,261267,261286,261570,,39,in
screen,html.Screen,1_3_1_0_1_40,2021-04-20T11:00:17.129Z,,,,,,,,,,,,,,,,2,,,,,,,,,,,,,,359,,response,,,,1,E,,,,,,Space,keypress(Space),,,,lyrical,,,,--- ---- ------ --- ------- ---------- ------- ----------<br>--- --------- --- ----------- ------- ----- ------- ---<br>--------- ---- -- --- ---- -- --------- -- ---- -------<br>-- --------- ------ --- ----- ------ ---- --- --------- --<br>------ - ---- -- his ----------- ------- ---- ----- -----<br>--- -------- - ------ ---- -- ----- ---- --- --- -----------<br>-- -------,261800,261911,261552,261548.99999999997,261570,261819,,40,his
screen,html.Screen,1_3_1_0_1_41,2021-04-20T11:00:17.348Z,,,,,,,,,,,,,,,,2,,,,,,,,,,,,,,328.0000000000291,,response,,,,1,E,,,,,,Space,keypress(Space),,,,lyrical,,,,--- ---- ------ --- ------- ---------- ------- ----------<br>--- --------- --- ----------- ------- ----- ------- ---<br>--------- ---- -- --- ---- -- --------- -- ---- -------<br>-- --------- ------ --- ----- ------ ---- --- --------- --<br>------ - ---- -- --- painstaking ------- ---- ----- -----<br>--- -------- - ------ ---- -- ----- ---- --- --- -----------<br>-- -------,262019.99999999997,262131.00000000003,261803,261800,261819,262053,,41,painstaking
screen,html.Screen,1_3_1_0_1_42,2021-04-20T11:00:17.824Z,,,,,,,,,,,,,,,,2,,,,,,,,,,,,,,570,,response,,,,1,E,,,,,,Space,keypress(Space),,,,lyrical,,,,--- ---- ------ --- ------- ---------- ------- ----------<br>--- --------- --- ----------- ------- ----- ------- ---<br>--------- ---- -- --- ---- -- --------- -- ---- -------<br>-- --------- ------ --- ----- ------ ---- --- --------- --<br>------ - ---- -- --- ----------- record. ---- ----- -----<br>--- -------- - ------ ---- -- ----- ---- --- --- -----------<br>-- -------,262496,262607,262037,262019.99999999997,262053,262535,,42,record.
screen,html.Screen,1_3_1_0_1_43,2021-04-20T11:00:18.323Z,,,,,,,,,,,,,,,,2,,,,,,,,,,,,,,585,,response,,,,1,E,,,,,,Space,keypress(Space),,,,lyrical,,,,--- ---- ------ --- ------- ---------- ------- ----------<br>--- --------- --- ----------- ------- ----- ------- ---<br>--------- ---- -- --- ---- -- --------- -- ---- -------<br>-- --------- ------ --- ----- ------ ---- --- --------- --<br>------ - ---- -- --- ----------- ------- That ----- -----<br>--- -------- - ------ ---- -- ----- ---- --- --- -----------<br>-- -------,262994,263105,262520,262496,262535,263035,,43,That
screen,html.Screen,1_3_1_0_1_44,2021-04-20T11:00:18.736Z,,,,,,,,,,,,,,,,2,,,,,,,,,,,,,,498,,response,,,,1,E,,,,,,Space,keypress(Space),,,,lyrical,,,,--- ---- ------ --- ------- ---------- ------- ----------<br>--- --------- --- ----------- ------- ----- ------- ---<br>--------- ---- -- --- ---- -- --------- -- ---- -------<br>-- --------- ------ --- ----- ------ ---- --- --------- --<br>------ - ---- -- --- ----------- ------- ---- night -----<br>--- -------- - ------ ---- -- ----- ---- --- --- -----------<br>-- -------,263407,263518,263020,262994,263035,263435,,44,night
screen,html.Screen,1_3_1_0_1_45,2021-04-20T11:00:19.226Z,,,,,,,,,,,,,,,,2,,,,,,,,,,,,,,588,,response,,,,1,E,,,,,,Space,keypress(Space),,,,lyrical,,,,--- ---- ------ --- ------- ---------- ------- ----------<br>--- --------- --- ----------- ------- ----- ------- ---<br>--------- ---- -- --- ---- -- --------- -- ---- -------<br>-- --------- ------ --- ----- ------ ---- --- --------- --<br>------ - ---- -- --- ----------- ------- ---- ----- there<br>--- -------- - ------ ---- -- ----- ---- --- --- -----------<br>-- -------,263897,264008,263420,263407,263435,263936,,45,there
screen,html.Screen,1_3_1_0_1_46,2021-04-20T11:00:19.739Z,,,,,,,,,,,,,,,,2,,,,,,,,,,,,,,603,,response,,,,1,E,,,,,,Space,keypress(Space),,,,lyrical,,,,--- ---- ------ --- ------- ---------- ------- ----------<br>--- --------- --- ----------- ------- ----- ------- ---<br>--------- ---- -- --- ---- -- --------- -- ---- -------<br>-- --------- ------ --- ----- ------ ---- --- --------- --<br>------ - ---- -- --- ----------- ------- ---- ----- -----<br>was -------- - ------ ---- -- ----- ---- --- --- -----------<br>-- -------,264410,264522,263919,263897,263936,264452,,46,was
screen,html.Screen,1_3_1_0_1_47,2021-04-20T11:00:19.995Z,,,,,,,,,,,,,,,,2,,,,,,,,,,,,,,341,,response,,,,1,E,,,,,,Space,keypress(Space),,,,lyrical,,,,--- ---- ------ --- ------- ---------- ------- ----------<br>--- --------- --- ----------- ------- ----- ------- ---<br>--------- ---- -- --- ---- -- --------- -- ---- -------<br>-- --------- ------ --- ----- ------ ---- --- --------- --<br>------ - ---- -- --- ----------- ------- ---- ----- -----<br>--- scarcely - ------ ---- -- ----- ---- --- --- -----------<br>-- -------,264666,264777,264436,264410,264452,264686,,47,scarcely
screen,html.Screen,1_3_1_0_1_48,2021-04-20T11:00:20.505Z,,,,,,,,,,,,,,,,2,,,,,,,,,,,,,,618,,response,,,,1,E,,,,,,Space,keypress(Space),,,,lyrical,,,,--- ---- ------ --- ------- ---------- ------- ----------<br>--- --------- --- ----------- ------- ----- ------- ---<br>--------- ---- -- --- ---- -- --------- -- ---- -------<br>-- --------- ------ --- ----- ------ ---- --- --------- --<br>------ - ---- -- --- ----------- ------- ---- ----- -----<br>--- -------- a ------ ---- -- ----- ---- --- --- -----------<br>-- -------,265176,265288,264670,264666,264686,265219,,48,a
screen,html.Screen,1_3_1_0_1_49,2021-04-20T11:00:20.768Z,,,,,,,,,,,,,,,,2,,,,,,,,,,,,,,347,,response,,,,1,E,,,,,,Space,keypress(Space),,,,lyrical,,,,--- ---- ------ --- ------- ---------- ------- ----------<br>--- --------- --- ----------- ------- ----- ------- ---<br>--------- ---- -- --- ---- -- --------- -- ---- -------<br>-- --------- ------ --- ----- ------ ---- --- --------- --<br>------ - ---- -- --- ----------- ------- ---- ----- -----<br>--- -------- - square ---- -- ----- ---- --- --- -----------<br>-- -------,265439,265550,265203,265176,265219,265470,,49,square
screen,html.Screen,1_3_1_0_1_50,2021-04-20T11:00:21.042Z,,,,,,,,,,,,,,,,2,,,,,,,,,,,,,,371,,response,,,,1,E,,,,,,Space,keypress(Space),,,,lyrical,,,,--- ---- ------ --- ------- ---------- ------- ----------<br>--- --------- --- ----------- ------- ----- ------- ---<br>--------- ---- -- --- ---- -- --------- -- ---- -------<br>-- --------- ------ --- ----- ------ ---- --- --------- --<br>------ - ---- -- --- ----------- ------- ---- ----- -----<br>--- -------- - ------ inch -- ----- ---- --- --- -----------<br>-- -------,265713,265824,265453,265440,265470,265740,,50,inch
screen,html.Screen,1_3_1_0_1_51,2021-04-20T11:00:21.324Z,,,,,,,,,,,,,,,,2,,,,,,,,,,,,,,383,,response,,,,1,E,,,,,,Space,keypress(Space),,,,lyrical,,,,--- ---- ------ --- ------- ---------- ------- ----------<br>--- --------- --- ----------- ------- ----- ------- ---<br>--------- ---- -- --- ---- -- --------- -- ---- -------<br>-- --------- ------ --- ----- ------ ---- --- --------- --<br>------ - ---- -- --- ----------- ------- ---- ----- -----<br>--- -------- - ------ ---- of ----- ---- --- --- -----------<br>-- -------,265995,266107,265724,265713,265740,266024,,51,of
screen,html.Screen,1_3_1_0_1_52,2021-04-20T11:00:21.597Z,,,,,,,,,,,,,,,,2,,,,,,,,,,,,,,371,,response,,,,1,E,,,,,,Space,keypress(Space),,,,lyrical,,,,--- ---- ------ --- ------- ---------- ------- ----------<br>--- --------- --- ----------- ------- ----- ------- ---<br>--------- ---- -- --- ---- -- --------- -- ---- -------<br>-- --------- ------ --- ----- ------ ---- --- --------- --<br>------ - ---- -- --- ----------- ------- ---- ----- -----<br>--- -------- - ------ ---- -- earth ---- --- --- -----------<br>-- -------,266269,266379,266008,265995,266024,266291,,52,earth
screen,html.Screen,1_3_1_0_1_53,2021-04-20T11:00:21.920Z,,,,,,,,,,,,,,,,2,,,,,,,,,,,,,,428,,response,,,,1,E,,,,,,Space,keypress(Space),,,,lyrical,,,,--- ---- ------ --- ------- ---------- ------- ----------<br>--- --------- --- ----------- ------- ----- ------- ---<br>--------- ---- -- --- ---- -- --------- -- ---- -------<br>-- --------- ------ --- ----- ------ ---- --- --------- --<br>------ - ---- -- --- ----------- ------- ---- ----- -----<br>--- -------- - ------ ---- -- ----- that --- --- -----------<br>-- -------,266591,266702,266274,266269,266291,266624,,53,that
screen,html.Screen,1_3_1_0_1_54,2021-04-20T11:00:22.224Z,,,,,,,,,,,,,,,,2,,,,,,,,,,,,,,401,,response,,,,1,E,,,,,,Space,keypress(Space),,,,lyrical,,,,--- ---- ------ --- ------- ---------- ------- ----------<br>--- --------- --- ----------- ------- ----- ------- ---<br>--------- ---- -- --- ---- -- --------- -- ---- -------<br>-- --------- ------ --- ----- ------ ---- --- --------- --<br>------ - ---- -- --- ----------- ------- ---- ----- -----<br>--- -------- - ------ ---- -- ----- ---- was --- -----------<br>-- -------,266896,267007,266606,266592,266624,266924,,54,was
