sender,sender_type,sender_id,timestamp,meta,,Blues,Classical,Country,Dance,Electronic,Folk,Gospel,Hip-Hop,Jazz,Latin,Musical/Film,New-age,Pop,Provo_ID,R&B,Rap,Reggae,Religious,Rock,Soul,Swing,Traditional,age,artist_name,correct,correctResponse,distraction,duration,education,ended_on,familiarity,gender,headphone_check_performance,item,list,music_frequency,offensiveness,pleasantness,position_correct,preference,response,response_action,snippet_file,song_name,song_rating,sound,stimulus_1,stimulus_2,stimulus_3,text,time_commit,time_end,time_render,time_run,time_show,time_switch,url,word,word_ID
Introduction,html.Screen,0_0,2021-04-22T16:35:22.711Z,"{""labjs_version"":""20.2.2"",""labjs_build"":{""flavor"":""production"",""commit"":""a25486e0c714a0ae2ce03ff94b7bb6896854dcfa""},""location"":""https://run.pavlovia.org/mvasilev/music_f/"",""userAgent"":""Mozilla/5.0 (Windows NT 10.0; Win64; x64) AppleWebKit/537.36 (KHTML, like Gecko) Chrome/90.0.4430.72 Safari/537.36 Edg/90.0.818.42"",""platform"":""Win32"",""language"":""en-GB"",""locale"":""en-GB"",""timeZone"":""Europe/London"",""timezoneOffset"":-60,""screen_width"":1366,""screen_height"":768,""scroll_width"":1366,""scroll_height"":609,""window_innerWidth"":1366,""window_innerHeight"":657,""devicePixelRatio"":1}",,,,,,,,,,,,,,,,,,,,,,,,,,,,,1927.508999975963,,response,,,,,,,,,,,continue,click button,,,,,,,,,9996.384999976726,9992.814999975963,7798.739,8038.55499997735,8065.306,10015.297,{},,
Volume calibration,html.Screen,0_1,2021-04-22T16:35:28.487Z,,,,,,,,,,,,,,,,,,,,,,,,,,,,,,5747.4379999966095,,response,,,,,,,,,,,continue,click button,,,,,,,,,15771.970000001602,15762.73499999661,9982.093,9996.929999993881,10015.297,15764.998,,,
Task instructions,html.Screen,0_2,2021-04-22T16:35:29.430Z,,,,,,,,,,,,,,,,,,,,,,,,,,,,,,947.7619999948874,,response,,,,,,,,,,,continue,click button,,,,,,,,,16715.14999997453,16712.759999994887,15748.54,15772.344999975758,15764.998,16741.685,,,
Sounds,html.Screen,0_3_0_0,2021-04-22T16:35:33.705Z,,,,,,,,,,,,,,,,,,,,,,,,,,,,,,4256.440999999999,,timeout,,,,,,,,,1,,,,,,,,S,O,I,,20990.079999988666,20981.447,16698.434,16715.964999981225,16741.685,20998.126,,,
Judgement,html.Screen,0_3_0_1,2021-04-22T16:35:34.861Z,,,,,,,,,,,,,,,,,,,,,,,,,,,true,1,,1145.6889999885352,,response,,,,,,,,,1,,1,click #choice-1,,,,,S,O,I,,22146.334999997634,22143.814999988535,20981.447,20990.469999989728,20998.126,22148.067,,,
Trial,flow.Sequence,0_3_0,2021-04-22T16:35:34.862Z,,,,,,,,,,,,,,,,,,,,,,,,,,,,,,5402.129999988534,,completion,,,,,,,,,1,,,,,,,,S,O,I,,22147.295000002487,22143.814999988535,16698.434,16715.700000000652,16741.685,22148.067,,,
Sounds,html.Screen,0_3_1_0,2021-04-22T16:35:39.098Z,,,,,,,,,,,,,,,,,,,,,,,,,,,,,,4249.804,,timeout,,,,,,,,,1,,,,,,,,S,I,O,,26383.32999998238,26381.435,22131.624,22147.744999994757,22148.067,26397.871,,,
Judgement,html.Screen,0_3_1_1,2021-04-22T16:35:40.100Z,,,,,,,,,,,,,,,,,,,,,,,,,,,true,1,,985.0239999879122,,response,,,,,,,,,1,,1,click #choice-1,,,,,S,I,O,,27385.159999976167,27382.89499998791,26381.435,26384.00499999989,26397.871,27397.818,,,
Trial,flow.Sequence,0_3_1,2021-04-22T16:35:40.100Z,,,,,,,,,,,,,,,,,,,,,,,,,,,,,,5234.827999987912,,completion,,,,,,,,,1,,,,,,,,S,I,O,,27385.79000000027,27382.89499998791,22131.624,22147.5999999966,22148.067,27397.818,,,
Sounds,html.Screen,0_3_2_0,2021-04-22T16:35:44.348Z,,,,,,,,,,,,,,,,,,,,,,,,,,,,,,4249.733,,timeout,,,,,,,,,2,,,,,,,,I,S,O,,31633.124999993015,31631.387,27381.568,27386.204999987967,27397.818,31647.551,,,
Judgement,html.Screen,0_3_2_1,2021-04-22T16:35:45.081Z,,,,,,,,,,,,,,,,,,,,,,,,,,,true,2,,715.703999974743,,response,,,,,,,,,2,,2,click #choice-2,,,,,I,S,O,,32366.004999988945,32363.254999974743,31631.387,31633.669999981066,31647.551,32398.007,,,
Trial,flow.Sequence,0_3_2,2021-04-22T16:35:45.081Z,,,,,,,,,,,,,,,,,,,,,,,,,,,,,,4965.436999974743,,completion,,,,,,,,,2,,,,,,,,I,S,O,,32366.5649999748,32363.254999974743,27381.568,27386.079999996582,27397.818,32398.007,,,
Sounds,html.Screen,0_3_3_0,2021-04-22T16:35:49.347Z,,,,,,,,,,,,,,,,,,,,,,,,,,,,,,4249.300999999996,,timeout,,,,,,,,,3,,,,,,,,O,I,S,,36632.51999998465,36630.977,32381.479,32366.929999989225,32398.007,36647.308,,,
Judgement,html.Screen,0_3_3_1,2021-04-22T16:35:50.110Z,,,,,,,,,,,,,,,,,,,,,,,,,,,true,3,,745.5519999926546,,response,,,,,,,,,3,,3,click #choice-3,,,,,O,I,S,,37395.309999992605,37392.85999999265,36630.977,36633.024999988265,36647.308,37397.275,,,
Trial,flow.Sequence,0_3_3,2021-04-22T16:35:50.111Z,,,,,,,,,,,,,,,,,,,,,,,,,,,,,,4994.85299999265,,completion,,,,,,,,,3,,,,,,,,O,I,S,,37395.94999997644,37392.85999999265,32381.479,32366.809999977704,32398.007,37397.275,,,
Sounds,html.Screen,0_3_4_0,2021-04-22T16:35:54.347Z,,,,,,,,,,,,,,,,,,,,,,,,,,,,,,4250.684000000001,,timeout,,,,,,,,,2,,,,,,,,O,S,I,,41632.829999987734,41630.451,37380.623,37396.28499999526,37397.275,41647.959,,,
Judgement,html.Screen,0_3_4_1,2021-04-22T16:35:55.000Z,,,,,,,,,,,,,,,,,,,,,,,,,,,true,2,,634.840999986307,,response,,,,,,,,,2,,2,click #choice-2,,,,,O,S,I,,42285.2599999751,42282.79999998631,41630.451,41633.669999981066,41647.959,42297.072,,,
Trial,flow.Sequence,0_3_4,2021-04-22T16:35:55.000Z,,,,,,,,,,,,,,,,,,,,,,,,,,,,,,4885.524999986308,,completion,,,,,,,,,2,,,,,,,,O,S,I,,42285.78499998548,42282.79999998631,37380.623,37396.18999999948,37397.275,42297.072,,,
Sounds,html.Screen,0_3_5_0,2021-04-22T16:35:59.246Z,,,,,,,,,,,,,,,,,,,,,,,,,,,,,,4249.760000000002,,timeout,,,,,,,,,3,,,,,,,,I,O,S,,46531.629999983124,46530.231,42280.658,42286.135000002105,42297.072,46546.832,,,
Judgement,html.Screen,0_3_5_1,2021-04-22T16:36:00.055Z,,,,,,,,,,,,,,,,,,,,,,,,,,,true,3,,790.572999998396,,response,,,,,,,,,3,,3,click #choice-3,,,,,I,O,S,,47339.90999998059,47337.4049999984,46530.231,46531.98999998858,46546.832,47346.794,,,
Trial,flow.Sequence,0_3_5,2021-04-22T16:36:00.056Z,,,,,,,,,,,,,,,,,,,,,,,,,,,,,,5040.332999998398,,completion,,,,,,,,,3,,,,,,,,I,O,S,,47340.904999990016,47337.4049999984,42280.658,42286.04499998619,42297.072,47346.794,,,
Task,flow.Loop,0_3,2021-04-22T16:36:00.066Z,,,,,,,,,,,,,,,,,,,,,,,,,,,,,,30595.719999998397,,completion,,,1,,,,,,,,,,,,,,,,,,47351.049999997485,47337.4049999984,16698.434,16715.56499999133,16741.685,47346.794,,,
Trap,html.Screen,0_4,2021-04-22T16:36:00.068Z,,,,,,,,,,,,,,,,,,,,,,,,,,,,,,NaN,,skipped,,,,,,,,,,,,,,,,,,,,,47353.739999991376,47337.4049999984,,47353.444999986095,,47346.794,,,
Thanks,html.Screen,0_5,2021-04-22T16:36:03.280Z,,,,,,,,,,,,,,,,,,,,,,,,,,,,,,3216.37099999957,,response,,,,,,,,,,,continue,click button,,,,,,,,,50565.47000000137,50563.16499999957,47330.143,47353.94999998971,47346.794,62896.034,,,
Headphone screening,flow.Sequence,0,2021-04-22T16:36:03.281Z,,,,,,,,,,,,,,,,,,,,,,,,,,,,,,42497.858999999575,,completion,,,,,,,,,,,,,,,,,,,,,50565.97999998485,50563.16499999957,7798.739,8038.520000001881,8065.306,62896.034,,,
Instructions,html.Page,1_0,2021-04-22T16:36:17.896Z,,,,,,,,,,,,,,,,,,,,,,,,,,,,,,2284.920999988899,,form submission,,,,,,,,,,,,,,,,,,,,,65182.20999999903,65180.9549999889,62862.697,62876.18500000099,62896.034,65195.92,,,
Holding screen,html.Screen,1_1_0_0,2021-04-22T16:36:27.894Z,,,,,,,,,,,,,,,,,,,,,,,,,,,,,,10032.899000000005,,timeout,,,,,,,,,,,,,,,,,,,,,75180.41000000085,75179.238,65162.571,65182.749999978114,65195.92,75228.819,,,
screen,html.Screen,1_1_0_1_0,2021-04-22T16:36:30.109Z,,,,,,,,,,,,,,,,53,,,,,,,,,,,,,,2159.765999978772,,response,,,,99,,,,,,,Space,keypress(Space),,,,,,,,When -- ----- -- ------ - ------- --- ----------<br>------------- ------ ------ ---- ---- ------- ----- -- ----<br>-------- ------- -- ---------- --- - --- ----- ----- ----<br>---- --- --- ----- --- ---- ---- ------- ----- ---- -------<br>--- --- -- ----- -- --- ---- -- --- ---- -- ------ ------<br>--- ----- -- ----,77395.29999997467,77388.58499997878,75179.238,75180.85999999312,75228.819,77412.027,,0,When
screen,html.Screen,1_1_0_1_1,2021-04-22T16:36:30.723Z,,,,,,,,,,,,,,,,53,,,,,,,,,,,,,,596.0729999772739,,response,,,,99,,,,,,,Space,keypress(Space),,,,,,,,---- it ----- -- ------ - ------- --- ----------<br>------------- ------ ------ ---- ---- ------- ----- -- ----<br>-------- ------- -- ---------- --- - --- ----- ----- ----<br>---- --- --- ----- --- ---- ---- ------- ----- ---- -------<br>--- --- -- ----- -- --- ---- -- --- ---- -- ------ ------<br>--- ----- -- ----,78009.54999998794,78008.09999997728,77395.26,77395.74999999604,77412.027,78011.996,,1,it
screen,html.Screen,1_1_0_1_2,2021-04-22T16:36:31.218Z,,,,,,,,,,,,,,,,53,,,,,,,,,,,,,,491.1339999973279,,response,,,,99,,,,,,,Space,keypress(Space),,,,,,,,---- -- comes -- ------ - ------- --- ----------<br>------------- ------ ------ ---- ---- ------- ----- -- ----<br>-------- ------- -- ---------- --- - --- ----- ----- ----<br>---- --- --- ----- --- ---- ---- ------- ----- ---- -------<br>--- --- -- ----- -- --- ---- -- --- ---- -- ------ ------<br>--- ----- -- ----,78504.53499998548,78503.12999999733,77995.315,78009.9249999912,78011.996,78511.949,,2,comes
screen,html.Screen,1_1_0_1_3,2021-04-22T16:36:31.613Z,,,,,,,,,,,,,,,,53,,,,,,,,,,,,,,385.32599999572267,,response,,,,99,,,,,,,Space,keypress(Space),,,,,,,,---- -- ----- to ------ - ------- --- ----------<br>------------- ------ ------ ---- ---- ------- ----- -- ----<br>-------- ------- -- ---------- --- - --- ----- ----- ----<br>---- --- --- ----- --- ---- ---- ------- ----- ---- -------<br>--- --- -- ----- -- --- ---- -- --- ---- -- ------ ------<br>--- ----- -- ----,78898.80499997525,78897.27499999572,78495.291,78505.10999999824,78511.949,78911.98,,3,to
screen,html.Screen,1_1_0_1_4,2021-04-22T16:36:32.553Z,,,,,,,,,,,,,,,,53,,,,,,,,,,,,,,925.5199999941833,,response,,,,99,,,,,,,Space,keypress(Space),,,,,,,,---- -- ----- -- having - ------- --- ----------<br>------------- ------ ------ ---- ---- ------- ----- -- ----<br>-------- ------- -- ---------- --- - --- ----- ----- ----<br>---- --- --- ----- --- ---- ---- ------- ----- ---- -------<br>--- --- -- ----- -- --- ---- -- --- ---- -- ------ ------<br>--- ----- -- ----,79839.04999998049,79837.49999999418,78895.319,78899.17499999865,78911.98,79845.245,,4,having
screen,html.Screen,1_1_0_1_5,2021-04-22T16:36:33.613Z,,,,,,,,,,,,,,,,53,,,,,,,,,,,,,,1052.729999999865,,response,,,,99,,,,,,,Space,keypress(Space),,,,,,,,---- -- ----- -- ------ a ------- --- ----------<br>------------- ------ ------ ---- ---- ------- ----- -- ----<br>-------- ------- -- ---------- --- - --- ----- ----- ----<br>---- --- --- ----- --- ---- ---- ------- ----- ---- -------<br>--- --- -- ----- -- --- ---- -- --- ---- -- ------ ------<br>--- ----- -- ----,80899.42000000156,80897.97499999986,79828.717,79839.42499998375,79845.245,80912.062,,5,a
screen,html.Screen,1_1_0_1_6,2021-04-22T16:36:34.443Z,,,,,,,,,,,,,,,,53,,,,,,,,,,,,,,815.6029999839666,,response,,,,99,,,,,,,Space,keypress(Space),,,,,,,,---- -- ----- -- ------ - lasting --- ----------<br>------------- ------ ------ ---- ---- ------- ----- -- ----<br>-------- ------- -- ---------- --- - --- ----- ----- ----<br>---- --- --- ----- --- ---- ---- ------- ----- ---- -------<br>--- --- -- ----- -- --- ---- -- --- ---- -- ------ ------<br>--- ----- -- ----,81729.08499999903,81727.66499998397,80895.638,80899.80499999365,80912.062,81745.175,,6,lasting
screen,html.Screen,1_1_0_1_7,2021-04-22T16:36:35.020Z,,,,,,,,,,,,,,,,53,,,,,,,,,,,,,,559.539999976565,,response,,,,99,,,,,,,Space,keypress(Space),,,,,,,,---- -- ----- -- ------ - ------- and ----------<br>------------- ------ ------ ---- ---- ------- ----- -- ----<br>-------- ------- -- ---------- --- - --- ----- ----- ----<br>---- --- --- ----- --- ---- ---- ------- ----- ---- -------<br>--- --- -- ----- -- --- ---- -- --- ---- -- ------ ------<br>--- ----- -- ----,82306.24999999418,82304.71499997657,81728.578,81729.46999999112,81745.175,82311.811,,7,and
screen,html.Screen,1_1_0_1_8,2021-04-22T16:36:35.560Z,,,,,,,,,,,,,,,,53,,,,,,,,,,,,,,533.5790000022243,,response,,,,99,,,,,,,Space,keypress(Space),,,,,,,,---- -- ----- -- ------ - ------- --- fulfilling<br>------------- ------ ------ ---- ---- ------- ----- -- ----<br>-------- ------- -- ---------- --- - --- ----- ----- ----<br>---- --- --- ----- --- ---- ---- ------- ----- ---- -------<br>--- --- -- ----- -- --- ---- -- --- ---- -- ------ ------<br>--- ----- -- ----,82846.59499998088,82845.39000000223,82295.568,82306.61999998847,82311.811,82862.228,,8,fulfilling
screen,html.Screen,1_1_0_1_9,2021-04-22T16:36:36.111Z,,,,,,,,,,,,,,,,53,,,,,,,,,,,,,,533.4019999845186,,response,,,,99,,,,,,,Space,keypress(Space),,,,,,,,"---- -- ----- -- ------ - ------- --- ----------<br>relationship, ------ ------ ---- ---- ------- ----- -- ----<br>-------- ------- -- ---------- --- - --- ----- ----- ----<br>---- --- --- ----- --- ---- ---- ------- ----- ---- -------<br>--- --- -- ----- -- --- ---- -- --- ---- -- ------ ------<br>--- ----- -- ----",83396.81499998551,83395.62999998452,82845.315,82846.90499998396,82862.228,83411.849,,9,"relationship,"
screen,html.Screen,1_1_0_1_10,2021-04-22T16:36:37.256Z,,,,,,,,,,,,,,,,53,,,,,,,,,,,,,,1127.960999987481,,response,,,,99,,,,,,,Space,keypress(Space),,,,,,,,---- -- ----- -- ------ - ------- --- ----------<br>------------- common ------ ---- ---- ------- ----- -- ----<br>-------- ------- -- ---------- --- - --- ----- ----- ----<br>---- --- --- ----- --- ---- ---- ------- ----- ---- -------<br>--- --- -- ----- -- --- ---- -- --- ---- -- ------ ------<br>--- ----- -- ----,84541.70499998145,84539.80999998748,83395.304,83397.14499999536,83411.849,84545.009,,10,common
screen,html.Screen,1_1_0_1_11,2021-04-22T16:36:38.187Z,,,,,,,,,,,,,,,,53,,,,,,,,,,,,,,927.1259999890608,,response,,,,99,,,,,,,Space,keypress(Space),,,,,,,,---- -- ----- -- ------ - ------- --- ----------<br>------------- ------ wisdom ---- ---- ------- ----- -- ----<br>-------- ------- -- ---------- --- - --- ----- ----- ----<br>---- --- --- ----- --- ---- ---- ------- ----- ---- -------<br>--- --- -- ----- -- --- ---- -- --- ---- -- ------ ------<br>--- ----- -- ----,85473.45999997924,85472.13499998907,84528.359,84542.15999998269,84545.009,85478.306,,11,wisdom
screen,html.Screen,1_1_0_1_12,2021-04-22T16:36:38.816Z,,,,,,,,,,,,,,,,53,,,,,,,,,,,,,,622.7790000020614,,response,,,,99,,,,,,,Space,keypress(Space),,,,,,,,---- -- ----- -- ------ - ------- --- ----------<br>------------- ------ ------ says ---- ------- ----- -- ----<br>-------- ------- -- ---------- --- - --- ----- ----- ----<br>---- --- --- ----- --- ---- ---- ------- ----- ---- -------<br>--- --- -- ----- -- --- ---- -- --- ---- -- ------ ------<br>--- ----- -- ----,86102.53999999259,86101.08500000206,85461.752,85473.8799999759,85478.306,86111.61,,12,says
screen,html.Screen,1_1_0_1_13,2021-04-22T16:36:39.481Z,,,,,,,,,,,,,,,,53,,,,,,,,,,,,,,654.6149999993941,,response,,,,99,,,,,,,Space,keypress(Space),,,,,,,,---- -- ----- -- ------ - ------- --- ----------<br>------------- ------ ------ ---- that ------- ----- -- ----<br>-------- ------- -- ---------- --- - --- ----- ----- ----<br>---- --- --- ----- --- ---- ---- ------- ----- ---- -------<br>--- --- -- ----- -- --- ---- -- --- ---- -- ------ ------<br>--- ----- -- ----,86767.61499998975,86766.2249999994,86095.36,86102.91999997571,86111.61,86778.265,,13,that
screen,html.Screen,1_1_0_1_14,2021-04-22T16:36:41.164Z,,,,,,,,,,,,,,,,53,,,,,,,,,,,,,,1670.6399999974674,,response,,,,99,,,,,,,Space,keypress(Space),,,,,,,,---- -- ----- -- ------ - ------- --- ----------<br>------------- ------ ------ ---- ---- feeling ----- -- ----<br>-------- ------- -- ---------- --- - --- ----- ----- ----<br>---- --- --- ----- --- ---- ---- ------- ----- ---- -------<br>--- --- -- ----- -- --- ---- -- --- ---- -- ------ ------<br>--- ----- -- ----,88450.42499998817,88448.90499999747,86761.643,86767.989999993,86778.265,88461.452,,14,feeling
screen,html.Screen,1_1_0_1_15,2021-04-22T16:36:41.876Z,,,,,,,,,,,,,,,,53,,,,,,,,,,,,,,699.3929999766842,,response,,,,99,,,,,,,Space,keypress(Space),,,,,,,,---- -- ----- -- ------ - ------- --- ----------<br>------------- ------ ------ ---- ---- ------- close -- ----<br>-------- ------- -- ---------- --- - --- ----- ----- ----<br>---- --- --- ----- --- ---- ---- ------- ----- ---- -------<br>--- --- -- ----- -- --- ---- -- --- ---- -- ------ ------<br>--- ----- -- ----,89162.46500000125,89160.84499997669,88444.891,88450.81499998923,88461.452,89178.269,,15,close
screen,html.Screen,1_1_0_1_16,2021-04-22T16:36:42.476Z,,,,,,,,,,,,,,,,53,,,,,,,,,,,,,,582.7160000008007,,response,,,,99,,,,,,,Space,keypress(Space),,,,,,,,---- -- ----- -- ------ - ------- --- ----------<br>------------- ------ ------ ---- ---- ------- ----- to ----<br>-------- ------- -- ---------- --- - --- ----- ----- ----<br>---- --- --- ----- --- ---- ---- ------- ----- ---- -------<br>--- --- -- ----- -- --- ---- -- --- ---- -- ------ ------<br>--- ----- -- ----,89762.38999998895,89760.9850000008,89161.516,89162.82999998657,89178.269,89778.465,,16,to
screen,html.Screen,1_1_0_1_17,2021-04-22T16:36:43.171Z,,,,,,,,,,,,,,,,53,,,,,,,,,,,,,,677.719999988185,,response,,,,99,,,,,,,Space,keypress(Space),,,,,,,,---- -- ----- -- ------ - ------- --- ----------<br>------------- ------ ------ ---- ---- ------- ----- -- your<br>-------- ------- -- ---------- --- - --- ----- ----- ----<br>---- --- --- ----- --- ---- ---- ------- ----- ---- -------<br>--- --- -- ----- -- --- ---- -- --- ---- -- ------ ------<br>--- ----- -- ----,90457.43999999831,90456.18499998818,89761.535,89762.94999997481,89778.465,90461.341,,17,your
screen,html.Screen,1_1_0_1_18,2021-04-22T16:36:44.027Z,,,,,,,,,,,,,,,,53,,,,,,,,,,,,,,850.6989999897924,,response,,,,99,,,,,,,Space,keypress(Space),,,,,,,,---- -- ----- -- ------ - ------- --- ----------<br>------------- ------ ------ ---- ---- ------- ----- -- ----<br>romantic ------- -- ---------- --- - --- ----- ----- ----<br>---- --- --- ----- --- ---- ---- ------- ----- ---- -------<br>--- --- -- ----- -- --- ---- -- --- ---- -- ------ ------<br>--- ----- -- ----,91313.46999999369,91312.03999998979,90444.983,90457.7500000014,90461.341,91328.468,,18,romantic
screen,html.Screen,1_1_0_1_19,2021-04-22T16:36:44.655Z,,,,,,,,,,,,,,,,53,,,,,,,,,,,,,,611.4419999864185,,response,,,,99,,,,,,,Space,keypress(Space),,,,,,,,---- -- ----- -- ------ - ------- --- ----------<br>------------- ------ ------ ---- ---- ------- ----- -- ----<br>-------- partner -- ---------- --- - --- ----- ----- ----<br>---- --- --- ----- --- ---- ---- ------- ----- ---- -------<br>--- --- -- ----- -- --- ---- -- --- ---- -- ------ ------<br>--- ----- -- ----,91941.31999998353,91939.90999998641,91311.384,91313.83499997901,91328.468,91944.66,,19,partner
screen,html.Screen,1_1_0_1_20,2021-04-22T16:36:45.221Z,,,,,,,,,,,,,,,,53,,,,,,,,,,,,,,560.649999978632,,response,,,,99,,,,,,,Space,keypress(Space),,,,,,,,---- -- ----- -- ------ - ------- --- ----------<br>------------- ------ ------ ---- ---- ------- ----- -- ----<br>-------- ------- is ---------- --- - --- ----- ----- ----<br>---- --- --- ----- --- ---- ---- ------- ----- ---- -------<br>--- --- -- ----- -- --- ---- -- --- ---- -- ------ ------<br>--- ----- -- ----,92506.76999997813,92505.30999997864,91928.427,91941.72000000253,91944.66,92511.295,,20,is
screen,html.Screen,1_1_0_1_21,2021-04-22T16:36:45.852Z,,,,,,,,,,,,,,,,53,,,,,,,,,,,,,,624.9999999747815,,response,,,,99,,,,,,,Space,keypress(Space),,,,,,,,---- -- ----- -- ------ - ------- --- ----------<br>------------- ------ ------ ---- ---- ------- ----- -- ----<br>-------- ------- -- paramount. --- - --- ----- ----- ----<br>---- --- --- ----- --- ---- ---- ------- ----- ---- -------<br>--- --- -- ----- -- --- ---- -- --- ---- -- ------ ------<br>--- ----- -- ----,93137.69499998307,93136.29499997478,92494.584,92507.11499998579,92511.295,93144.576,,21,paramount.
screen,html.Screen,1_1_0_1_22,2021-04-22T16:36:46.312Z,,,,,,,,,,,,,,,,53,,,,,,,,,,,,,,452.50399997772183,,response,,,,99,,,,,,,Space,keypress(Space),,,,,,,,---- -- ----- -- ------ - ------- --- ----------<br>------------- ------ ------ ---- ---- ------- ----- -- ----<br>-------- ------- -- ---------- But - --- ----- ----- ----<br>---- --- --- ----- --- ---- ---- ------- ----- ---- -------<br>--- --- -- ----- -- --- ---- -- --- ---- -- ------ ------<br>--- ----- -- ----,93598.44499998144,93597.07999997772,93127.971,93138.05499998853,93144.576,93611.602,,22,But
screen,html.Screen,1_1_0_1_23,2021-04-22T16:36:46.785Z,,,,,,,,,,,,,,,,53,,,,,,,,,,,,,,458.2980000022362,,response,,,,99,,,,,,,Space,keypress(Space),,,,,,,,---- -- ----- -- ------ - ------- --- ----------<br>------------- ------ ------ ---- ---- ------- ----- -- ----<br>-------- ------- -- ---------- --- a --- ----- ----- ----<br>---- --- --- ----- --- ---- ---- ------- ----- ---- -------<br>--- --- -- ----- -- --- ---- -- --- ---- -- ------ ------<br>--- ----- -- ----,94071.29500000156,94069.90000000224,93595.031,93598.8049999869,93611.602,94077.88,,23,a
screen,html.Screen,1_1_0_1_24,2021-04-22T16:36:47.154Z,,,,,,,,,,,,,,,,53,,,,,,,,,,,,,,360.82499997864943,,response,,,,99,,,,,,,Space,keypress(Space),,,,,,,,---- -- ----- -- ------ - ------- --- ----------<br>------------- ------ ------ ---- ---- ------- ----- -- ----<br>-------- ------- -- ---------- --- - new ----- ----- ----<br>---- --- --- ----- --- ---- ---- ------- ----- ---- -------<br>--- --- -- ----- -- --- ---- -- --- ---- -- ------ ------<br>--- ----- -- ----,94440.08499998017,94438.70499997865,94061.59,94071.67999999365,94077.88,94444.548,,24,new
screen,html.Screen,1_1_0_1_25,2021-04-22T16:36:47.487Z,,,,,,,,,,,,,,,,53,,,,,,,,,,,,,,327.3819999880652,,response,,,,99,,,,,,,Space,keypress(Space),,,,,,,,---- -- ----- -- ------ - ------- --- ----------<br>------------- ------ ------ ---- ---- ------- ----- -- ----<br>-------- ------- -- ---------- --- - --- study ----- ----<br>---- --- --- ----- --- ---- ---- ------- ----- ---- -------<br>--- --- -- ----- -- --- ---- -- --- ---- -- ------ ------<br>--- ----- -- ----,94773.4449999989,94771.92999998806,94428.22,94440.47000000137,94444.548,94777.856,,25,study
screen,html.Screen,1_1_0_1_26,2021-04-22T16:36:47.857Z,,,,,,,,,,,,,,,,53,,,,,,,,,,,,,,363.5639999999257,,response,,,,99,,,,,,,Space,keypress(Space),,,,,,,,---- -- ----- -- ------ - ------- --- ----------<br>------------- ------ ------ ---- ---- ------- ----- -- ----<br>-------- ------- -- ---------- --- - --- ----- finds ----<br>---- --- --- ----- --- ---- ---- ------- ----- ---- -------<br>--- --- -- ----- -- --- ---- -- --- ---- -- ------ ------<br>--- ----- -- ----,95142.83499997691,95141.41999999993,94761.312,94773.80499997525,94777.856,95161.661,,26,finds
screen,html.Screen,1_1_0_1_27,2021-04-22T16:36:48.178Z,,,,,,,,,,,,,,,,53,,,,,,,,,,,,,,301.66899999868474,,response,,,,99,,,,,,,Space,keypress(Space),,,,,,,,---- -- ----- -- ------ - ------- --- ----------<br>------------- ------ ------ ---- ---- ------- ----- -- ----<br>-------- ------- -- ---------- --- - --- ----- ----- that<br>---- --- --- ----- --- ---- ---- ------- ----- ---- -------<br>--- --- -- ----- -- --- ---- -- --- ---- -- ------ ------<br>--- ----- -- ----,95464.54999997513,95463.32999999868,95128.275,95143.23999997578,95161.661,95478.211,,27,that
screen,html.Screen,1_1_0_1_28,2021-04-22T16:36:48.740Z,,,,,,,,,,,,,,,,53,,,,,,,,,,,,,,546.2689999927679,,response,,,,99,,,,,,,Space,keypress(Space),,,,,,,,---- -- ----- -- ------ - ------- --- ----------<br>------------- ------ ------ ---- ---- ------- ----- -- ----<br>-------- ------- -- ---------- --- - --- ----- ----- ----<br>it's --- --- ----- --- ---- ---- ------- ----- ---- -------<br>--- --- -- ----- -- --- ---- -- --- ---- -- ------ ------<br>--- ----- -- ----,96026.37499998673,96024.47999999276,95461.451,95464.88499999396,95478.211,96044.926,,28,it's
screen,html.Screen,1_1_0_1_29,2021-04-22T16:36:49.080Z,,,,,,,,,,,,,,,,53,,,,,,,,,,,,,,320.0289999972738,,response,,,,99,,,,,,,Space,keypress(Space),,,,,,,,---- -- ----- -- ------ - ------- --- ----------<br>------------- ------ ------ ---- ---- ------- ----- -- ----<br>-------- ------- -- ---------- --- - --- ----- ----- ----<br>---- not --- ----- --- ---- ---- ------- ----- ---- -------<br>--- --- -- ----- -- --- ---- -- --- ---- -- ------ ------<br>--- ----- -- ----,96366.33999997866,96364.95499999728,96011.574,96026.81499999017,96044.926,96378.004,,29,not
screen,html.Screen,1_1_0_1_30,2021-04-22T16:36:49.412Z,,,,,,,,,,,,,,,,53,,,,,,,,,,,,,,318.76599998046004,,response,,,,99,,,,,,,Space,keypress(Space),,,,,,,,---- -- ----- -- ------ - ------- --- ----------<br>------------- ------ ------ ---- ---- ------- ----- -- ----<br>-------- ------- -- ---------- --- - --- ----- ----- ----<br>---- --- how ----- --- ---- ---- ------- ----- ---- -------<br>--- --- -- ----- -- --- ---- -- --- ---- -- ------ ------<br>--- ----- -- ----,96698.12499999534,96696.76999998046,96361.105,96366.71000000206,96378.004,96711.167,,30,how
screen,html.Screen,1_1_0_1_31,2021-04-22T16:36:49.730Z,,,,,,,,,,,,,,,,53,,,,,,,,,,,,,,303.8629999804689,,response,,,,99,,,,,,,Space,keypress(Space),,,,,,,,---- -- ----- -- ------ - ------- --- ----------<br>------------- ------ ------ ---- ---- ------- ----- -- ----<br>-------- ------- -- ---------- --- - --- ----- ----- ----<br>---- --- --- close --- ---- ---- ------- ----- ---- -------<br>--- --- -- ----- -- --- ---- -- --- ---- -- ------ ------<br>--- ----- -- ----,97016.2249999994,97015.02999998047,96694.467,96698.47999999183,96711.167,97027.998,,31,close
screen,html.Screen,1_1_0_1_32,2021-04-22T16:36:50.119Z,,,,,,,,,,,,,,,,53,,,,,,,,,,,,,,376.09699997621647,,response,,,,99,,,,,,,Space,keypress(Space),,,,,,,,---- -- ----- -- ------ - ------- --- ----------<br>------------- ------ ------ ---- ---- ------- ----- -- ----<br>-------- ------- -- ---------- --- - --- ----- ----- ----<br>---- --- --- ----- you ---- ---- ------- ----- ---- -------<br>--- --- -- ----- -- --- ---- -- --- ---- -- ------ ------<br>--- ----- -- ----,97405.57000000263,97404.09499997622,97011.527,97016.52999999351,97027.998,97411.07,,32,you
screen,html.Screen,1_1_0_1_33,2021-04-22T16:36:50.443Z,,,,,,,,,,,,,,,,53,,,,,,,,,,,,,,316.94999998045387,,response,,,,99,,,,,,,Space,keypress(Space),,,,,,,,---- -- ----- -- ------ - ------- --- ----------<br>------------- ------ ------ ---- ---- ------- ----- -- ----<br>-------- ------- -- ---------- --- - --- ----- ----- ----<br>---- --- --- ----- --- feel ---- ------- ----- ---- -------<br>--- --- -- ----- -- --- ---- -- --- ---- -- ------ ------<br>--- ----- -- ----,97729.40999999992,97728.01999998046,97394.839,97405.92999997898,97411.07,97744.724,,33,feel
screen,html.Screen,1_1_0_1_34,2021-04-22T16:36:51.150Z,,,,,,,,,,,,,,,,53,,,,,,,,,,,,,,689.9210000011808,,response,,,,99,,,,,,,Space,keypress(Space),,,,,,,,---- -- ----- -- ------ - ------- --- ----------<br>------------- ------ ------ ---- ---- ------- ----- -- ----<br>-------- ------- -- ---------- --- - --- ----- ----- ----<br>---- --- --- ----- --- ---- that ------- ----- ---- -------<br>--- --- -- ----- -- --- ---- -- --- ---- -- ------ ------<br>--- ----- -- ----,98436.0099999758,98434.64500000118,97727.882,97732.5149999815,97744.724,98444.324,,34,that
screen,html.Screen,1_1_0_1_35,2021-04-22T16:36:51.547Z,,,,,,,,,,,,,,,,53,,,,,,,,,,,,,,386.3609999935434,,response,,,,99,,,,,,,Space,keypress(Space),,,,,,,,---- -- ----- -- ------ - ------- --- ----------<br>------------- ------ ------ ---- ---- ------- ----- -- ----<br>-------- ------- -- ---------- --- - --- ----- ----- ----<br>---- --- --- ----- --- ---- ---- matters ----- ---- -------<br>--- --- -- ----- -- --- ---- -- --- ---- -- ------ ------<br>--- ----- -- ----,98833.23499999824,98830.68499999354,98428.017,98439.67999998131,98444.324,98844.455,,35,matters
screen,html.Screen,1_1_0_1_36,2021-04-22T16:36:51.822Z,,,,,,,,,,,,,,,,53,,,,,,,,,,,,,,262.2600000017119,,response,,,,99,,,,,,,Space,keypress(Space),,,,,,,,"---- -- ----- -- ------ - ------- --- ----------<br>------------- ------ ------ ---- ---- ------- ----- -- ----<br>-------- ------- -- ---------- --- - --- ----- ----- ----<br>---- --- --- ----- --- ---- ---- ------- most, ---- -------<br>--- --- -- ----- -- --- ---- -- --- ---- -- ------ ------<br>--- ----- -- ----",99108.06999998749,99106.71500000171,98827.792,98833.64999998594,98844.455,99110.962,,36,"most,"
screen,html.Screen,1_1_0_1_37,2021-04-22T16:36:52.338Z,,,,,,,,,,,,,,,,53,,,,,,,,,,,,,,511.68799997569295,,response,,,,99,,,,,,,Space,keypress(Space),,,,,,,,---- -- ----- -- ------ - ------- --- ----------<br>------------- ------ ------ ---- ---- ------- ----- -- ----<br>-------- ------- -- ---------- --- - --- ----- ----- ----<br>---- --- --- ----- --- ---- ---- ------- ----- it's -------<br>--- --- -- ----- -- --- ---- -- --- ---- -- ------ ------<br>--- ----- -- ----,99624.3399999803,99622.64999997569,99094.783,99108.44999999972,99110.962,99627.61,,37,it's
screen,html.Screen,1_1_0_1_38,2021-04-22T16:36:52.762Z,,,,,,,,,,,,,,,,53,,,,,,,,,,,,,,419.53499998954067,,response,,,,99,,,,,,,Space,keypress(Space),,,,,,,,---- -- ----- -- ------ - ------- --- ----------<br>------------- ------ ------ ---- ---- ------- ----- -- ----<br>-------- ------- -- ---------- --- - --- ----- ----- ----<br>---- --- --- ----- --- ---- ---- ------- ----- ---- whether<br>--- --- -- ----- -- --- ---- -- --- ---- -- ------ ------<br>--- ----- -- ----,100048.48499997752,100047.14499998954,99611.318,99624.68999999692,99627.61,100061.25,,38,whether
screen,html.Screen,1_1_0_1_39,2021-04-22T16:36:53.100Z,,,,,,,,,,,,,,,,53,,,,,,,,,,,,,,323.2649999833666,,response,,,,99,,,,,,,Space,keypress(Space),,,,,,,,---- -- ----- -- ------ - ------- --- ----------<br>------------- ------ ------ ---- ---- ------- ----- -- ----<br>-------- ------- -- ---------- --- - --- ----- ----- ----<br>---- --- --- ----- --- ---- ---- ------- ----- ---- -------<br>you --- -- ----- -- --- ---- -- --- ---- -- ------ ------<br>--- ----- -- ----,100385.90999998269,100384.51499998337,100044.697,100048.84000000311,100061.25,100394.235,,39,you
screen,html.Screen,1_1_0_1_40,2021-04-22T16:36:53.627Z,,,,,,,,,,,,,,,,53,,,,,,,,,,,,,,518.04499998955,,response,,,,99,,,,,,,Space,keypress(Space),,,,,,,,---- -- ----- -- ------ - ------- --- ----------<br>------------- ------ ------ ---- ---- ------- ----- -- ----<br>-------- ------- -- ---------- --- - --- ----- ----- ----<br>---- --- --- ----- --- ---- ---- ------- ----- ---- -------<br>--- are -- ----- -- --- ---- -- --- ---- -- ------ ------<br>--- ----- -- ----,100913.6399999843,100912.27999998955,100377.909,100386.43499999307,100394.235,100927.915,,40,are
screen,html.Screen,1_1_0_1_41,2021-04-22T16:36:53.983Z,,,,,,,,,,,,,,,,53,,,,,,,,,,,,,,339.59499997603416,,response,,,,99,,,,,,,Space,keypress(Space),,,,,,,,---- -- ----- -- ------ - ------- --- ----------<br>------------- ------ ------ ---- ---- ------- ----- -- ----<br>-------- ------- -- ---------- --- - --- ----- ----- ----<br>---- --- --- ----- --- ---- ---- ------- ----- ---- -------<br>--- --- as ----- -- --- ---- -- --- ---- -- ------ ------<br>--- ----- -- ----,101268.92499998212,101267.50999997603,100911.003,100913.97999998298,100927.915,101277.539,,41,as
screen,html.Screen,1_1_0_1_42,2021-04-22T16:36:54.357Z,,,,,,,,,,,,,,,,53,,,,,,,,,,,,,,364.3909999833995,,response,,,,99,,,,,,,Space,keypress(Space),,,,,,,,---- -- ----- -- ------ - ------- --- ----------<br>------------- ------ ------ ---- ---- ------- ----- -- ----<br>-------- ------- -- ---------- --- - --- ----- ----- ----<br>---- --- --- ----- --- ---- ---- ------- ----- ---- -------<br>--- --- -- close -- --- ---- -- --- ---- -- ------ ------<br>--- ----- -- ----,101643.25500000268,101641.9299999834,101260.917,101269.28999999654,101277.539,101661.333,,42,close
screen,html.Screen,1_1_0_1_43,2021-04-22T16:36:54.679Z,,,,,,,,,,,,,,,,53,,,,,,,,,,,,,,302.4969999933237,,response,,,,99,,,,,,,Space,keypress(Space),,,,,,,,---- -- ----- -- ------ - ------- --- ----------<br>------------- ------ ------ ---- ---- ------- ----- -- ----<br>-------- ------- -- ---------- --- - --- ----- ----- ----<br>---- --- --- ----- --- ---- ---- ------- ----- ---- -------<br>--- --- -- ----- as --- ---- -- --- ---- -- ------ ------<br>--- ----- -- ----,101965.25999999722,101963.82999999332,101628.008,101643.59500000137,101661.333,101977.833,,43,as
screen,html.Screen,1_1_0_1_44,2021-04-22T16:36:55.015Z,,,,,,,,,,,,,,,,53,,,,,,,,,,,,,,321.6919999803504,,response,,,,99,,,,,,,Space,keypress(Space),,,,,,,,---- -- ----- -- ------ - ------- --- ----------<br>------------- ------ ------ ---- ---- ------- ----- -- ----<br>-------- ------- -- ---------- --- - --- ----- ----- ----<br>---- --- --- ----- --- ---- ---- ------- ----- ---- -------<br>--- --- -- ----- -- you ---- -- --- ---- -- ------ ------<br>--- ----- -- ----,102300.8699999773,102299.52499998035,101961.071,101965.60499997577,101977.833,102310.743,,44,you
screen,html.Screen,1_1_0_1_45,2021-04-22T16:36:55.421Z,,,,,,,,,,,,,,,,53,,,,,,,,,,,,,,395.3369999744609,,response,,,,99,,,,,,,Space,keypress(Space),,,,,,,,---- -- ----- -- ------ - ------- --- ----------<br>------------- ------ ------ ---- ---- ------- ----- -- ----<br>-------- ------- -- ---------- --- - --- ----- ----- ----<br>---- --- --- ----- --- ---- ---- ------- ----- ---- -------<br>--- --- -- ----- -- --- want -- --- ---- -- ------ ------<br>--- ----- -- ----,102707.41000000271,102706.07999997446,102294.607,102301.22999998275,102310.743,102727.483,,45,want
screen,html.Screen,1_1_0_1_46,2021-04-22T16:36:55.760Z,,,,,,,,,,,,,,,,53,,,,,,,,,,,,,,317.49699997693824,,response,,,,99,,,,,,,Space,keypress(Space),,,,,,,,---- -- ----- -- ------ - ------- --- ----------<br>------------- ------ ------ ---- ---- ------- ----- -- ----<br>-------- ------- -- ---------- --- - --- ----- ----- ----<br>---- --- --- ----- --- ---- ---- ------- ----- ---- -------<br>--- --- -- ----- -- --- ---- to --- ---- -- ------ ------<br>--- ----- -- ----,103046.26499998267,103044.97999997693,102711.242,102711.54999997816,102727.483,103061.275,,46,to
screen,html.Screen,1_1_0_1_47,2021-04-22T16:36:56.121Z,,,,,,,,,,,,,,,,53,,,,,,,,,,,,,,344.77999999947497,,response,,,,99,,,,,,,Space,keypress(Space),,,,,,,,"---- -- ----- -- ------ - ------- --- ----------<br>------------- ------ ------ ---- ---- ------- ----- -- ----<br>-------- ------- -- ---------- --- - --- ----- ----- ----<br>---- --- --- ----- --- ---- ---- ------- ----- ---- -------<br>--- --- -- ----- -- --- ---- -- be, ---- -- ------ ------<br>--- ----- -- ----",103407.39499998745,103406.05499999947,103044.539,103046.56999997678,103061.275,103410.753,,47,"be,"
screen,html.Screen,1_1_0_1_48,2021-04-22T16:36:56.516Z,,,,,,,,,,,,,,,,53,,,,,,,,,,,,,,389.81199998318334,,response,,,,99,,,,,,,Space,keypress(Space),,,,,,,,---- -- ----- -- ------ - ------- --- ----------<br>------------- ------ ------ ---- ---- ------- ----- -- ----<br>-------- ------- -- ---------- --- - --- ----- ----- ----<br>---- --- --- ----- --- ---- ---- ------- ----- ---- -------<br>--- --- -- ----- -- --- ---- -- --- even -- ------ ------<br>--- ----- -- ----,103801.7449999752,103800.56499998318,103394.487,103407.7399999951,103410.753,103810.75,,48,even
screen,html.Screen,1_1_0_1_49,2021-04-22T16:36:56.857Z,,,,,,,,,,,,,,,,53,,,,,,,,,,,,,,331.4149999974761,,response,,,,99,,,,,,,Space,keypress(Space),,,,,,,,---- -- ----- -- ------ - ------- --- ----------<br>------------- ------ ------ ---- ---- ------- ----- -- ----<br>-------- ------- -- ---------- --- - --- ----- ----- ----<br>---- --- --- ----- --- ---- ---- ------- ----- ---- -------<br>--- --- -- ----- -- --- ---- -- --- ---- if ------ ------<br>--- ----- -- ----,104143.54999997886,104142.16499999748,103793.97,103802.03500000061,103810.75,104161.234,,49,if
screen,html.Screen,1_1_0_1_50,2021-04-22T16:36:57.206Z,,,,,,,,,,,,,,,,53,,,,,,,,,,,,,,330.0009999940521,,response,,,,99,,,,,,,Space,keypress(Space),,,,,,,,---- -- ----- -- ------ - ------- --- ----------<br>------------- ------ ------ ---- ---- ------- ----- -- ----<br>-------- ------- -- ---------- --- - --- ----- ----- ----<br>---- --- --- ----- --- ---- ---- ------- ----- ---- -------<br>--- --- -- ----- -- --- ---- -- --- ---- -- that's ------<br>--- ----- -- ----,104492.57499998203,104491.23499999405,104144.493,104143.89999999548,104161.234,104527.858,,50,that's
screen,html.Screen,1_1_0_1_51,2021-04-22T16:36:57.642Z,,,,,,,,,,,,,,,,53,,,,,,,,,,,,,,399.2019999872573,,response,,,,99,,,,,,,Space,keypress(Space),,,,,,,,---- -- ----- -- ------ - ------- --- ----------<br>------------- ------ ------ ---- ---- ------- ----- -- ----<br>-------- ------- -- ---------- --- - --- ----- ----- ----<br>---- --- --- ----- --- ---- ---- ------- ----- ---- -------<br>--- --- -- ----- -- --- ---- -- --- ---- -- ------ really<br>--- ----- -- ----,104928.48499998217,104927.05999998725,104513.551,104492.90499999188,104527.858,104944.083,,51,really
screen,html.Screen,1_1_0_1_52,2021-04-22T16:36:58.026Z,,,,,,,,,,,,,,,,53,,,,,,,,,,,,,,366.28199998299533,,response,,,,99,,,,,,,Space,keypress(Space),,,,,,,,---- -- ----- -- ------ - ------- --- ----------<br>------------- ------ ------ ---- ---- ------- ----- -- ----<br>-------- ------- -- ---------- --- - --- ----- ----- ----<br>---- --- --- ----- --- ---- ---- ------- ----- ---- -------<br>--- --- -- ----- -- --- ---- -- --- ---- -- ------ ------<br>not ----- -- ----,105311.86499999603,105310.364999983,104927.394,104928.82499998086,104944.083,105327.376,,52,not
screen,html.Screen,1_1_0_1_53,2021-04-22T16:36:58.362Z,,,,,,,,,,,,,,,,53,,,,,,,,,,,,,,319.5189999834838,,response,,,,99,,,,,,,Space,keypress(Space),,,,,,,,---- -- ----- -- ------ - ------- --- ----------<br>------------- ------ ------ ---- ---- ------- ----- -- ----<br>-------- ------- -- ---------- --- - --- ----- ----- ----<br>---- --- --- ----- --- ---- ---- ------- ----- ---- -------<br>--- --- -- ----- -- --- ---- -- --- ---- -- ------ ------<br>--- close -- ----,105648.26999997604,105646.89499998349,105310.878,105312.2549999971,105327.376,105661.086,,53,close
screen,html.Screen,1_1_0_1_54,2021-04-22T16:36:58.695Z,,,,,,,,,,,,,,,,53,,,,,,,,,,,,,,319.1239999797108,,response,,,,99,,,,,,,Space,keypress(Space),,,,,,,,---- -- ----- -- ------ - ------- --- ----------<br>------------- ------ ------ ---- ---- ------- ----- -- ----<br>-------- ------- -- ---------- --- - --- ----- ----- ----<br>---- --- --- ----- --- ---- ---- ------- ----- ---- -------<br>--- --- -- ----- -- --- ---- -- --- ---- -- ------ ------<br>--- ----- at ----,105981.4249999763,105980.2099999797,105644.217,105648.61499998369,105661.086,105994.468,,54,at
screen,html.Screen,1_1_0_1_55,2021-04-22T16:36:59.197Z,,,,,,,,,,,,,,,,53,,,,,,,,,,,,,,487.4269999753451,,response,,,,99,,,,,,,Space,keypress(Space),,,,,,,,---- -- ----- -- ------ - ------- --- ----------<br>------------- ------ ------ ---- ---- ------- ----- -- ----<br>-------- ------- -- ---------- --- - --- ----- ----- ----<br>---- --- --- ----- --- ---- ---- ------- ----- ---- -------<br>--- --- -- ----- -- --- ---- -- --- ---- -- ------ ------<br>--- ----- -- all.,106483.24999999022,106481.89499997534,105977.768,105981.72999999952,105994.468,106493.935,,55,all.
Item 99,flow.Loop,1_1_0_1,2021-04-22T16:36:59.198Z,,,,,,,,,,,,,,,,,,,,,,,,,,,,,,31253.075999975335,,completion,,,,,F,,,,,,,,,,,silence,,,,,106483.91499998979,106481.89499997534,75179.238,75180.73500000173,75228.819,106493.935,,,
Question 1,html.Screen,1_1_0_2,2021-04-22T16:37:03.444Z,,,,,,,,,,,,,,,,,,,,,,,,,,,true,FALSE,,4234.024999989255,,response,,,,99,F,,,,,,FALSE,click #choice-2,,,,silence,,,,,110730.35999998683,110727.95999998925,106477.656,106484.21499997494,106493.935,110743.757,,,
Question 2,html.Screen,1_1_0_3,2021-04-22T16:37:08.160Z,,,,,,,,,,,,,,,,,,,,,,,,,,,true,TRUE,,4698.592999997534,,response,,,,99,F,,,,,,TRUE,click #choice-1,,,,silence,,,,,115445.84000000032,115442.34999999753,110726.994,110730.73999999906,110743.757,115477.095,,,
Item 99,flow.Sequence,1_1_0,2021-04-22T16:37:08.160Z,,,,,,,,,,,,,,,,,,,,,,,,,,,,,,50246.429999997534,,completion,,,,,,,,,,,,,,,,,,,,,115446.3799999794,115442.34999999753,65162.571,65182.6599999913,65195.92,115477.095,,,
Holding screen,html.Screen,1_1_1_0,2021-04-22T16:37:18.181Z,,,,,,,,,,,,,,,,,,,,,,,,,,,,,,9999.225000000006,,timeout,,,,,,,,,,,,,,,,,,,,,125466.30499997991,125459.698,115460.38,115446.76999998046,115477.095,125476.32,,,
screen,html.Screen,1_1_1_1_0,2021-04-22T16:37:20.853Z,,,,,,,,,,,,,,,,54,,,,,,,,,,,,,,2660.4149999782094,,response,,,,100,,,,,,,Space,keypress(Space),,,,,,,,At --- ---- --- ------ ----- ------- ---- -- --- ------- --<br>------- ---------- ------ -- ----- -- ----- -- ---- ------<br>--- ----- --- --- ------ -------- ----- --- ------ ----- --<br>----- ----- ---------- --- --- ------ ------ ---- -- ------<br>------- --- ------ ----- --- ---- ------- -- ---- --- --<br>------- ------,128138.29999999143,128136.73499997822,125459.698,125466.66499998537,125476.32,128142.896,,0,At
screen,html.Screen,1_1_1_1_1,2021-04-22T16:37:21.267Z,,,,,,,,,,,,,,,,54,,,,,,,,,,,,,,408.5240000034246,,response,,,,100,,,,,,,Space,keypress(Space),,,,,,,,-- the ---- --- ------ ----- ------- ---- -- --- ------- --<br>------- ---------- ------ -- ----- -- ----- -- ---- ------<br>--- ----- --- --- ------ -------- ----- --- ------ ----- --<br>----- ----- ---------- --- --- ------ ------ ---- -- ------<br>------- --- ------ ----- --- ---- ------- -- ---- --- --<br>------- ------,128552.76500000036,128551.42000000342,128126.467,128138.78499998827,128142.896,128559.53,,1,the
screen,html.Screen,1_1_1_1_2,2021-04-22T16:37:21.686Z,,,,,,,,,,,,,,,,54,,,,,,,,,,,,,,410.4649999921967,,response,,,,100,,,,,,,Space,keypress(Space),,,,,,,,-- --- time --- ------ ----- ------- ---- -- --- ------- --<br>------- ---------- ------ -- ----- -- ----- -- ---- ------<br>--- ----- --- --- ------ -------- ----- --- ------ ----- --<br>----- ----- ---------- --- --- ------ ------ ---- -- ------<br>------- --- ------ ----- --- ---- ------- -- ---- --- --<br>------- ------,128971.35499998694,128969.9949999922,128542.987,128553.11999999685,128559.53,128976.206,,2,time
screen,html.Screen,1_1_1_1_3,2021-04-22T16:37:23.470Z,,,,,,,,,,,,,,,,54,,,,,,,,,,,,,,1777.993999995757,,response,,,,100,,,,,,,Space,keypress(Space),,,,,,,,-- --- ---- the ------ ----- ------- ---- -- --- ------- --<br>------- ---------- ------ -- ----- -- ----- -- ---- ------<br>--- ----- --- --- ------ -------- ----- --- ------ ----- --<br>----- ----- ---------- --- --- ------ ------ ---- -- ------<br>------- --- ------ ----- --- ---- ------- -- ---- --- --<br>------- ------,130755.55000000168,130754.19999999576,128959.643,128971.69499998563,128976.206,130759.436,,3,the
screen,html.Screen,1_1_1_1_4,2021-04-22T16:37:23.883Z,,,,,,,,,,,,,,,,54,,,,,,,,,,,,,,408.0189999879658,,response,,,,100,,,,,,,Space,keypress(Space),,,,,,,,-- --- ---- --- French ----- ------- ---- -- --- ------- --<br>------- ---------- ------ -- ----- -- ----- -- ---- ------<br>--- ----- --- --- ------ -------- ----- --- ------ ----- --<br>----- ----- ---------- --- --- ------ ------ ---- -- ------<br>------- --- ------ ----- --- ---- ------- -- ---- --- --<br>------- ------,131168.84499997832,131167.45499998797,130742.692,130755.94000000274,130759.436,131176.128,,4,French
screen,html.Screen,1_1_1_1_5,2021-04-22T16:37:24.397Z,,,,,,,,,,,,,,,,54,,,,,,,,,,,,,,505.1519999897864,,response,,,,100,,,,,,,Space,keypress(Space),,,,,,,,-- --- ---- --- ------ crown ------- ---- -- --- ------- --<br>------- ---------- ------ -- ----- -- ----- -- ---- ------<br>--- ----- --- --- ------ -------- ----- --- ------ ----- --<br>----- ----- ---------- --- --- ------ ------ ---- -- ------<br>------- --- ------ ----- --- ---- ------- -- ---- --- --<br>------- ------,131682.7499999781,131681.27999998978,131159.866,131169.20999999274,131176.128,131692.699,,5,crown
screen,html.Screen,1_1_1_1_6,2021-04-22T16:37:24.737Z,,,,,,,,,,,,,,,,54,,,,,,,,,,,,,,329.03599998753634,,response,,,,100,,,,,,,Space,keypress(Space),,,,,,,,-- --- ---- --- ------ ----- secured ---- -- --- ------- --<br>------- ---------- ------ -- ----- -- ----- -- ---- ------<br>--- ----- --- --- ------ -------- ----- --- ------ ----- --<br>----- ----- ---------- --- --- ------ ------ ---- -- ------<br>------- --- ------ ----- --- ---- ------- -- ---- --- --<br>------- ------,132023.1050000002,132021.73499998753,131676.285,131683.06999999913,131692.699,132026.068,,6,secured
screen,html.Screen,1_1_1_1_7,2021-04-22T16:37:25.163Z,,,,,,,,,,,,,,,,54,,,,,,,,,,,,,,421.6769999831158,,response,,,,100,,,,,,,Space,keypress(Space),,,,,,,,-- --- ---- --- ------ ----- ------- much -- --- ------- --<br>------- ---------- ------ -- ----- -- ----- -- ---- ------<br>--- ----- --- --- ------ -------- ----- --- ------ ----- --<br>----- ----- ---------- --- --- ------ ------ ---- -- ------<br>------- --- ------ ----- --- ---- ------- -- ---- --- --<br>------- ------,132448.9599999797,132447.74499998312,132009.517,132023.4749999945,132026.068,132459.449,,7,much
screen,html.Screen,1_1_1_1_8,2021-04-22T16:37:26.933Z,,,,,,,,,,,,,,,,54,,,,,,,,,,,,,,1757.4759999860835,,response,,,,100,,,,,,,Space,keypress(Space),,,,,,,,-- --- ---- --- ------ ----- ------- ---- of --- ------- --<br>------- ---------- ------ -- ----- -- ----- -- ---- ------<br>--- ----- --- --- ------ -------- ----- --- ------ ----- --<br>----- ----- ---------- --- --- ------ ------ ---- -- ------<br>------- --- ------ ----- --- ---- ------- -- ---- --- --<br>------- ------,134218.28000000096,134216.92499998608,132442.837,132449.2699999828,132459.449,134225.898,,8,of
screen,html.Screen,1_1_1_1_9,2021-04-22T16:37:27.302Z,,,,,,,,,,,,,,,,54,,,,,,,,,,,,,,360.8169999831007,,response,,,,100,,,,,,,Space,keypress(Space),,,,,,,,-- --- ---- --- ------ ----- ------- ---- -- its ------- --<br>------- ---------- ------ -- ----- -- ----- -- ---- ------<br>--- ----- --- --- ------ -------- ----- --- ------ ----- --<br>----- ----- ---------- --- --- ------ ------ ---- -- ------<br>------- --- ------ ----- --- ---- ------- -- ---- --- --<br>------- ------,134588.04499998223,134586.7149999831,134209.45,134218.6099999817,134225.898,134592.627,,9,its
screen,html.Screen,1_1_1_1_10,2021-04-22T16:37:27.752Z,,,,,,,,,,,,,,,,54,,,,,,,,,,,,,,443.9329999786278,,response,,,,100,,,,,,,Space,keypress(Space),,,,,,,,-- --- ---- --- ------ ----- ------- ---- -- --- revenue --<br>------- ---------- ------ -- ----- -- ----- -- ---- ------<br>--- ----- --- --- ------ -------- ----- --- ------ ----- --<br>----- ----- ---------- --- --- ------ ------ ---- -- ------<br>------- --- ------ ----- --- ---- ------- -- ---- --- --<br>------- ------,135037.794999982,135036.55999997864,134576.098,134588.37499999208,134592.627,135042.57,,10,revenue
screen,html.Screen,1_1_1_1_11,2021-04-22T16:37:28.167Z,,,,,,,,,,,,,,,,54,,,,,,,,,,,,,,408.8699999752571,,response,,,,100,,,,,,,Space,keypress(Space),,,,,,,,-- --- ---- --- ------ ----- ------- ---- -- --- ------- by<br>------- ---------- ------ -- ----- -- ----- -- ---- ------<br>--- ----- --- --- ------ -------- ----- --- ------ ----- --<br>----- ----- ---------- --- --- ------ ------ ---- -- ------<br>------- --- ------ ----- --- ---- ------- -- ---- --- --<br>------- ------,135452.81999997678,135451.43999997526,135025.925,135038.11500000302,135042.57,135459.199,,11,by
screen,html.Screen,1_1_1_1_12,2021-04-22T16:37:28.591Z,,,,,,,,,,,,,,,,54,,,,,,,,,,,,,,415.7860000022047,,response,,,,100,,,,,,,Space,keypress(Space),,,,,,,,-- --- ---- --- ------ ----- ------- ---- -- --- ------- --<br>issuing ---------- ------ -- ----- -- ----- -- ---- ------<br>--- ----- --- --- ------ -------- ----- --- ------ ----- --<br>----- ----- ---------- --- --- ------ ------ ---- -- ------<br>------- --- ------ ----- --- ---- ------- -- ---- --- --<br>------- ------,135876.2749999878,135874.9850000022,135442.663,135453.27499997802,135459.199,135892.593,,12,issuing
screen,html.Screen,1_1_1_1_13,2021-04-22T16:37:29.099Z,,,,,,,,,,,,,,,,54,,,,,,,,,,,,,,490.5219999750843,,response,,,,100,,,,,,,Space,keypress(Space),,,,,,,,-- --- ---- --- ------ ----- ------- ---- -- --- ------- --<br>------- government ------ -- ----- -- ----- -- ---- ------<br>--- ----- --- --- ------ -------- ----- --- ------ ----- --<br>----- ----- ---------- --- --- ------ ------ ---- -- ------<br>------- --- ------ ----- --- ---- ------- -- ---- --- --<br>------- ------,136384.38999999198,136383.11499997508,135875.843,135876.55499999528,135892.593,136392.49,,13,government
screen,html.Screen,1_1_1_1_14,2021-04-22T16:37:29.534Z,,,,,,,,,,,,,,,,54,,,,,,,,,,,,,,426.27999998349696,,response,,,,100,,,,,,,Space,keypress(Space),,,,,,,,-- --- ---- --- ------ ----- ------- ---- -- --- ------- --<br>------- ---------- bonds. -- ----- -- ----- -- ---- ------<br>--- ----- --- --- ------ -------- ----- --- ------ ----- --<br>----- ----- ---------- --- --- ------ ------ ---- -- ------<br>------- --- ------ ----- --- ---- ------- -- ---- --- --<br>------- ------,136820.0450000004,136818.7699999835,136375.765,136384.69999999506,136392.49,136825.807,,14,bonds.
screen,html.Screen,1_1_1_1_15,2021-04-22T16:37:29.930Z,,,,,,,,,,,,,,,,54,,,,,,,,,,,,,,388.02800000229036,,response,,,,100,,,,,,,Space,keypress(Space),,,,,,,,-- --- ---- --- ------ ----- ------- ---- -- --- ------- --<br>------- ---------- ------ In ----- -- ----- -- ---- ------<br>--- ----- --- --- ------ -------- ----- --- ------ ----- --<br>----- ----- ---------- --- --- ------ ------ ---- -- ------<br>------- --- ------ ----- --- ---- ------- -- ---- --- --<br>------- ------,137215.2950000018,137213.8350000023,136809.297,136820.3649999923,136825.807,137225.764,,15,In
screen,html.Screen,1_1_1_1_16,2021-04-22T16:37:30.374Z,,,,,,,,,,,,,,,,54,,,,,,,,,,,,,,432.86599999081227,,response,,,,100,,,,,,,Space,keypress(Space),,,,,,,,"-- --- ---- --- ------ ----- ------- ---- -- --- ------- --<br>------- ---------- ------ -- 1727, -- ----- -- ---- ------<br>--- ----- --- --- ------ -------- ----- --- ------ ----- --<br>----- ----- ---------- --- --- ------ ------ ---- -- ------<br>------- --- ------ ----- --- ---- ------- -- ---- --- --<br>------- ------",137660.00499998336,137658.6299999908,137209.531,137215.63999998034,137225.764,137675.963,,16,"1727,"
screen,html.Screen,1_1_1_1_17,2021-04-22T16:37:30.810Z,,,,,,,,,,,,,,,,54,,,,,,,,,,,,,,418.126999998698,,response,,,,100,,,,,,,Space,keypress(Space),,,,,,,,-- --- ---- --- ------ ----- ------- ---- -- --- ------- --<br>------- ---------- ------ -- ----- in ----- -- ---- ------<br>--- ----- --- --- ------ -------- ----- --- ------ ----- --<br>----- ----- ---------- --- --- ------ ------ ---- -- ------<br>------- --- ------ ----- --- ---- ------- -- ---- --- --<br>------- ------,138095.4550000024,138094.0899999987,137659.48,137660.36499998881,137675.963,138109.587,,17,in
screen,html.Screen,1_1_1_1_18,2021-04-22T16:37:31.481Z,,,,,,,,,,,,,,,,54,,,,,,,,,,,,,,655.033000001742,,response,,,,100,,,,,,,Space,keypress(Space),,,,,,,,-- --- ---- --- ------ ----- ------- ---- -- --- ------- --<br>------- ---------- ------ -- ----- -- order -- ---- ------<br>--- ----- --- --- ------ -------- ----- --- ------ ----- --<br>----- ----- ---------- --- --- ------ ------ ---- -- ------<br>------- --- ------ ----- --- ---- ------- -- ---- --- --<br>------- ------,138766.33499999298,138764.62000000174,138092.422,138095.8099999989,138109.587,138775.69,,18,order
screen,html.Screen,1_1_1_1_19,2021-04-22T16:37:31.833Z,,,,,,,,,,,,,,,,54,,,,,,,,,,,,,,341.43999999872176,,response,,,,100,,,,,,,Space,keypress(Space),,,,,,,,-- --- ---- --- ------ ----- ------- ---- -- --- ------- --<br>------- ---------- ------ -- ----- -- ----- to ---- ------<br>--- ----- --- --- ------ -------- ----- --- ------ ----- --<br>----- ----- ---------- --- --- ------ ------ ---- -- ------<br>------- --- ------ ----- --- ---- ------- -- ---- --- --<br>------- ------,139118.71999999858,139117.12999999872,138759.479,138766.69499999844,138775.69,139125.677,,19,to
screen,html.Screen,1_1_1_1_20,2021-04-22T16:37:32.183Z,,,,,,,,,,,,,,,,54,,,,,,,,,,,,,,341.26299998388276,,response,,,,100,,,,,,,Space,keypress(Space),,,,,,,,-- --- ---- --- ------ ----- ------- ---- -- --- ------- --<br>------- ---------- ------ -- ----- -- ----- -- save ------<br>--- ----- --- --- ------ -------- ----- --- ------ ----- --<br>----- ----- ---------- --- --- ------ ------ ---- -- ------<br>------- --- ------ ----- --- ---- ------- -- ---- --- --<br>------- ------,139468.2099999918,139466.93999998388,139109.478,139119.10999999964,139125.677,139475.652,,20,save
screen,html.Screen,1_1_1_1_21,2021-04-22T16:37:32.599Z,,,,,,,,,,,,,,,,54,,,,,,,,,,,,,,407.5430000021588,,response,,,,100,,,,,,,Space,keypress(Space),,,,,,,,"-- --- ---- --- ------ ----- ------- ---- -- --- ------- --<br>------- ---------- ------ -- ----- -- ----- -- ---- money,<br>--- ----- --- --- ------ -------- ----- --- ------ ----- --<br>----- ----- ---------- --- --- ------ ------ ---- -- ------<br>------- --- ------ ----- --- ---- ------- -- ---- --- --<br>------- ------",139884.40999999875,139883.19500000216,139459.157,139468.54000000167,139475.652,139892.279,,21,"money,"
screen,html.Screen,1_1_1_1_22,2021-04-22T16:37:32.987Z,,,,,,,,,,,,,,,,54,,,,,,,,,,,,,,379.4810000032594,,response,,,,100,,,,,,,Space,keypress(Space),,,,,,,,-- --- ---- --- ------ ----- ------- ---- -- --- ------- --<br>------- ---------- ------ -- ----- -- ----- -- ---- ------<br>the ----- --- --- ------ -------- ----- --- ------ ----- --<br>----- ----- ---------- --- --- ------ ------ ---- -- ------<br>------- --- ------ ----- --- ---- ------- -- ---- --- --<br>------- ------,140273.1050000002,140271.76000000327,139876.073,139884.6949999861,139892.279,140275.63,,22,the
screen,html.Screen,1_1_1_1_23,2021-04-22T16:37:33.416Z,,,,,,,,,,,,,,,,54,,,,,,,,,,,,,,424.92499998852145,,response,,,,100,,,,,,,Space,keypress(Space),,,,,,,,-- --- ---- --- ------ ----- ------- ---- -- --- ------- --<br>------- ---------- ------ -- ----- -- ----- -- ---- ------<br>--- state --- --- ------ -------- ----- --- ------ ----- --<br>----- ----- ---------- --- --- ------ ------ ---- -- ------<br>------- --- ------ ----- --- ---- ------- -- ---- --- --<br>------- ------,140701.76499997615,140700.55499998853,140258.983,140273.4599999967,140275.63,140708.909,,23,state
screen,html.Screen,1_1_1_1_24,2021-04-22T16:37:33.793Z,,,,,,,,,,,,,,,,54,,,,,,,,,,,,,,369.5159999851312,,response,,,,100,,,,,,,Space,keypress(Space),,,,,,,,-- --- ---- --- ------ ----- ------- ---- -- --- ------- --<br>------- ---------- ------ -- ----- -- ----- -- ---- ------<br>--- ----- cut --- ------ -------- ----- --- ------ ----- --<br>----- ----- ---------- --- --- ------ ------ ---- -- ------<br>------- --- ------ ----- --- ---- ------- -- ---- --- --<br>------- ------,141079.05499998014,141078.42499998515,140692.483,140702.08999997703,140708.909,141092.19,,24,cut
screen,html.Screen,1_1_1_1_25,2021-04-22T16:37:34.211Z,,,,,,,,,,,,,,,,54,,,,,,,,,,,,,,404.12499999668216,,response,,,,100,,,,,,,Space,keypress(Space),,,,,,,,-- --- ---- --- ------ ----- ------- ---- -- --- ------- --<br>------- ---------- ------ -- ----- -- ----- -- ---- ------<br>--- ----- --- the ------ -------- ----- --- ------ ----- --<br>----- ----- ---------- --- --- ------ ------ ---- -- ------<br>------- --- ------ ----- --- ---- ------- -- ---- --- --<br>------- ------,141496.95499998052,141496.31499999668,141075.6,141079.23499998287,141092.19,141508.867,,25,the
screen,html.Screen,1_1_1_1_26,2021-04-22T16:37:34.697Z,,,,,,,,,,,,,,,,54,,,,,,,,,,,,,,472.9329999795591,,response,,,,100,,,,,,,Space,keypress(Space),,,,,,,,-- --- ---- --- ------ ----- ------- ---- -- --- ------- --<br>------- ---------- ------ -- ----- -- ----- -- ---- ------<br>--- ----- --- --- bonds' -------- ----- --- ------ ----- --<br>----- ----- ---------- --- --- ------ ------ ---- -- ------<br>------- --- ------ ----- --- ---- ------- -- ---- --- --<br>------- ------,141982.48999999487,141981.79999997956,141492.122,141497.15499999002,141508.867,141992.155,,26,bonds'
screen,html.Screen,1_1_1_1_27,2021-04-22T16:37:35.138Z,,,,,,,,,,,,,,,,54,,,,,,,,,,,,,,430.89999999201973,,response,,,,100,,,,,,,Space,keypress(Space),,,,,,,,-- --- ---- --- ------ ----- ------- ---- -- --- ------- --<br>------- ---------- ------ -- ----- -- ----- -- ---- ------<br>--- ----- --- --- ------ interest ----- --- ------ ----- --<br>----- ----- ---------- --- --- ------ ------ ---- -- ------<br>------- --- ------ ----- --- ---- ------- -- ---- --- --<br>------- ------,142423.61499997787,142423.05499999202,141975.421,141982.64999999083,141992.155,142425.434,,27,interest
screen,html.Screen,1_1_1_1_28,2021-04-22T16:37:35.732Z,,,,,,,,,,,,,,,,54,,,,,,,,,,,,,,591.9309999778634,,response,,,,100,,,,,,,Space,keypress(Space),,,,,,,,-- --- ---- --- ------ ----- ------- ---- -- --- ------- --<br>------- ---------- ------ -- ----- -- ----- -- ---- ------<br>--- ----- --- --- ------ -------- rate. --- ------ ----- --<br>----- ----- ---------- --- --- ------ ------ ---- -- ------<br>------- --- ------ ----- --- ---- ------- -- ---- --- --<br>------- ------,143017.9749999952,143017.36499997787,142408.732,142423.7349999894,142425.434,143025.448,,28,rate.
screen,html.Screen,1_1_1_1_29,2021-04-22T16:37:36.629Z,,,,,,,,,,,,,,,,54,,,,,,,,,,,,,,888.1819999954605,,response,,,,100,,,,,,,Space,keypress(Space),,,,,,,,-- --- ---- --- ------ ----- ------- ---- -- --- ------- --<br>------- ---------- ------ -- ----- -- ----- -- ---- ------<br>--- ----- --- --- ------ -------- ----- The ------ ----- --<br>----- ----- ---------- --- --- ------ ------ ---- -- ------<br>------- --- ------ ----- --- ---- ------- -- ---- --- --<br>------- ------,143914.27499998827,143913.62999999546,143008.695,143018.15499999793,143025.448,143925.387,,29,The
screen,html.Screen,1_1_1_1_30,2021-04-22T16:37:37.021Z,,,,,,,,,,,,,,,,54,,,,,,,,,,,,,,380.0029999940889,,response,,,,100,,,,,,,Space,keypress(Space),,,,,,,,-- --- ---- --- ------ ----- ------- ---- -- --- ------- --<br>------- ---------- ------ -- ----- -- ----- -- ---- ------<br>--- ----- --- --- ------ -------- ----- --- market ----- --<br>----- ----- ---------- --- --- ------ ------ ---- -- ------<br>------- --- ------ ----- --- ---- ------- -- ---- --- --<br>------- ------,144306.66499998188,144305.38999999408,143908.666,143914.43499998422,143925.387,144338.082,,30,market
screen,html.Screen,1_1_1_1_31,2021-04-22T16:37:37.470Z,,,,,,,,,,,,,,,,54,,,,,,,,,,,,,,416.34800000087125,,response,,,,100,,,,,,,Space,keypress(Space),,,,,,,,-- --- ---- --- ------ ----- ------- ---- -- --- ------- --<br>------- ---------- ------ -- ----- -- ----- -- ---- ------<br>--- ----- --- --- ------ -------- ----- --- ------ value --<br>----- ----- ---------- --- --- ------ ------ ---- -- ------<br>------- --- ------ ----- --- ---- ------- -- ---- --- --<br>------- ------,144755.90999997803,144754.43000000087,144292.007,144306.97999999393,144338.082,144758.749,,31,value
screen,html.Screen,1_1_1_1_32,2021-04-22T16:37:38.154Z,,,,,,,,,,,,,,,,54,,,,,,,,,,,,,,679.7659999870812,,response,,,,100,,,,,,,Space,keypress(Space),,,,,,,,-- --- ---- --- ------ ----- ------- ---- -- --- ------- --<br>------- ---------- ------ -- ----- -- ----- -- ---- ------<br>--- ----- --- --- ------ -------- ----- --- ------ ----- of<br>----- ----- ---------- --- --- ------ ------ ---- -- ------<br>------- --- ------ ----- --- ---- ------- -- ---- --- --<br>------- ------,145439.73499999265,145438.5149999871,144742.212,144756.2699999835,144758.749,145442.044,,32,of
screen,html.Screen,1_1_1_1_33,2021-04-22T16:37:38.552Z,,,,,,,,,,,,,,,,54,,,,,,,,,,,,,,394.6909999898635,,response,,,,100,,,,,,,Space,keypress(Space),,,,,,,,-- --- ---- --- ------ ----- ------- ---- -- --- ------- --<br>------- ---------- ------ -- ----- -- ----- -- ---- ------<br>--- ----- --- --- ------ -------- ----- --- ------ ----- --<br>these ----- ---------- --- --- ------ ------ ---- -- ------<br>------- --- ------ ----- --- ---- ------- -- ---- --- --<br>------- ------,145838.05500000017,145836.73499998986,145425.365,145440.01999998,145442.044,145842.028,,33,these
screen,html.Screen,1_1_1_1_34,2021-04-22T16:37:38.934Z,,,,,,,,,,,,,,,,54,,,,,,,,,,,,,,376.11699999164557,,response,,,,100,,,,,,,Space,keypress(Space),,,,,,,,-- --- ---- --- ------ ----- ------- ---- -- --- ------- --<br>------- ---------- ------ -- ----- -- ----- -- ---- ------<br>--- ----- --- --- ------ -------- ----- --- ------ ----- --<br>----- bonds ---------- --- --- ------ ------ ---- -- ------<br>------- --- ------ ----- --- ---- ------- -- ---- --- --<br>------- ------,146219.34499999043,146218.14499999164,145825.307,145838.4049999877,145842.028,146225.318,,34,bonds
screen,html.Screen,1_1_1_1_35,2021-04-22T16:37:39.399Z,,,,,,,,,,,,,,,,54,,,,,,,,,,,,,,458.4069999807689,,response,,,,100,,,,,,,Space,keypress(Space),,,,,,,,"-- --- ---- --- ------ ----- ------- ---- -- --- ------- --<br>------- ---------- ------ -- ----- -- ----- -- ---- ------<br>--- ----- --- --- ------ -------- ----- --- ------ ----- --<br>----- ----- plummeted, --- --- ------ ------ ---- -- ------<br>------- --- ------ ----- --- ---- ------- -- ---- --- --<br>------- ------",146685.10999999125,146683.72499998077,146208.729,146219.6399999957,146225.318,146691.982,,35,"plummeted,"
screen,html.Screen,1_1_1_1_36,2021-04-22T16:37:39.789Z,,,,,,,,,,,,,,,,54,,,,,,,,,,,,,,381.27299999570823,,response,,,,100,,,,,,,Space,keypress(Space),,,,,,,,-- --- ---- --- ------ ----- ------- ---- -- --- ------- --<br>------- ---------- ------ -- ----- -- ----- -- ---- ------<br>--- ----- --- --- ------ -------- ----- --- ------ ----- --<br>----- ----- ---------- and --- ------ ------ ---- -- ------<br>------- --- ------ ----- --- ---- ------- -- ---- --- --<br>------- ------,147074.56499998807,147073.2549999957,146675.319,146685.4699999967,146691.982,147092.441,,36,and
screen,html.Screen,1_1_1_1_37,2021-04-22T16:37:41.140Z,,,,,,,,,,,,,,,,54,,,,,,,,,,,,,,1332.3240000033984,,response,,,,100,,,,,,,Space,keypress(Space),,,,,,,,-- --- ---- --- ------ ----- ------- ---- -- --- ------- --<br>------- ---------- ------ -- ----- -- ----- -- ---- ------<br>--- ----- --- --- ------ -------- ----- --- ------ ----- --<br>----- ----- ---------- --- the ------ ------ ---- -- ------<br>------- --- ------ ----- --- ---- ------- -- ---- --- --<br>------- ------,148426.17999998038,148424.7650000034,147075.364,147074.90999999573,147092.441,148442.332,,37,the
screen,html.Screen,1_1_1_1_38,2021-04-22T16:37:41.638Z,,,,,,,,,,,,,,,,54,,,,,,,,,,,,,,480.05299998348346,,response,,,,100,,,,,,,Space,keypress(Space),,,,,,,,-- --- ---- --- ------ ----- ------- ---- -- --- ------- --<br>------- ---------- ------ -- ----- -- ----- -- ---- ------<br>--- ----- --- --- ------ -------- ----- --- ------ ----- --<br>----- ----- ---------- --- --- market ------ ---- -- ------<br>------- --- ------ ----- --- ---- ------- -- ---- --- --<br>------- ------,148923.86999999871,148922.38499998348,148425.478,148426.5000000014,148442.332,148942.393,,38,market
screen,html.Screen,1_1_1_1_39,2021-04-22T16:37:42.042Z,,,,,,,,,,,,,,,,54,,,,,,,,,,,,,,383.89699999723234,,response,,,,100,,,,,,,Space,keypress(Space),,,,,,,,-- --- ---- --- ------ ----- ------- ---- -- --- ------- --<br>------- ---------- ------ -- ----- -- ----- -- ---- ------<br>--- ----- --- --- ------ -------- ----- --- ------ ----- --<br>----- ----- ---------- --- --- ------ became ---- -- ------<br>------- --- ------ ----- --- ---- ------- -- ---- --- --<br>------- ------,149327.43999999366,149326.28999999724,148908.83,148924.23499998404,148942.393,149342.33,,39,became
screen,html.Screen,1_1_1_1_40,2021-04-22T16:37:42.671Z,,,,,,,,,,,,,,,,54,,,,,,,,,,,,,,613.1650000019872,,response,,,,100,,,,,,,Space,keypress(Space),,,,,,,,-- --- ---- --- ------ ----- ------- ---- -- --- ------- --<br>------- ---------- ------ -- ----- -- ----- -- ---- ------<br>--- ----- --- --- ------ -------- ----- --- ------ ----- --<br>----- ----- ---------- --- --- ------ ------ wary -- ------<br>------- --- ------ ----- --- ---- ------- -- ---- --- --<br>------- ------,149956.9049999991,149955.49500000197,149325.157,149327.724999981,149342.33,149991.319,,40,wary
screen,html.Screen,1_1_1_1_41,2021-04-22T16:37:43.146Z,,,,,,,,,,,,,,,,54,,,,,,,,,,,,,,439.2259999810776,,response,,,,100,,,,,,,Space,keypress(Space),,,,,,,,-- --- ---- --- ------ ----- ------- ---- -- --- ------- --<br>------- ---------- ------ -- ----- -- ----- -- ---- ------<br>--- ----- --- --- ------ -------- ----- --- ------ ----- --<br>----- ----- ---------- --- --- ------ ------ ---- of ------<br>------- --- ------ ----- --- ---- ------- -- ---- --- --<br>------- ------,150431.9049999758,150430.54499998107,149942.233,149957.22999999998,149991.319,150441.789,,41,of
screen,html.Screen,1_1_1_1_42,2021-04-22T16:37:43.750Z,,,,,,,,,,,,,,,,54,,,,,,,,,,,,,,591.8659999774536,,response,,,,100,,,,,,,Space,keypress(Space),,,,,,,,-- --- ---- --- ------ ----- ------- ---- -- --- ------- --<br>------- ---------- ------ -- ----- -- ----- -- ---- ------<br>--- ----- --- --- ------ -------- ----- --- ------ ----- --<br>----- ----- ---------- --- --- ------ ------ ---- -- French<br>------- --- ------ ----- --- ---- ------- -- ---- --- --<br>------- ------,151035.26999999303,151033.65499997744,150425.48,150432.23499998567,150441.789,151041.795,,42,French
screen,html.Screen,1_1_1_1_43,2021-04-22T16:37:44.262Z,,,,,,,,,,,,,,,,54,,,,,,,,,,,,,,505.00499998187297,,response,,,,100,,,,,,,Space,keypress(Space),,,,,,,,-- --- ---- --- ------ ----- ------- ---- -- --- ------- --<br>------- ---------- ------ -- ----- -- ----- -- ---- ------<br>--- ----- --- --- ------ -------- ----- --- ------ ----- --<br>----- ----- ---------- --- --- ------ ------ ---- -- ------<br>credit. --- ------ ----- --- ---- ------- -- ---- --- --<br>------- ------,151548.1199999922,151546.7999999819,151025.205,151035.81000000122,151041.795,151558.419,,43,credit.
screen,html.Screen,1_1_1_1_44,2021-04-22T16:37:45.079Z,,,,,,,,,,,,,,,,54,,,,,,,,,,,,,,805.3860000008717,,response,,,,100,,,,,,,Space,keypress(Space),,,,,,,,-- --- ---- --- ------ ----- ------- ---- -- --- ------- --<br>------- ---------- ------ -- ----- -- ----- -- ---- ------<br>--- ----- --- --- ------ -------- ----- --- ------ ----- --<br>----- ----- ---------- --- --- ------ ------ ---- -- ------<br>------- The ------ ----- --- ---- ------- -- ---- --- --<br>------- ------,152365.15999998664,152363.80500000087,151541.742,151548.45000000205,151558.419,152375.012,,44,The
screen,html.Screen,1_1_1_1_45,2021-04-22T16:37:45.457Z,,,,,,,,,,,,,,,,54,,,,,,,,,,,,,,365.9529999754159,,response,,,,100,,,,,,,Space,keypress(Space),,,,,,,,-- --- ---- --- ------ ----- ------- ---- -- --- ------- --<br>------- ---------- ------ -- ----- -- ----- -- ---- ------<br>--- ----- --- --- ------ -------- ----- --- ------ ----- --<br>----- ----- ---------- --- --- ------ ------ ---- -- ------<br>------- --- French ----- --- ---- ------- -- ---- --- --<br>------- ------,152742.3499999859,152740.9649999754,152358.413,152365.48499998753,152375.012,152758.813,,45,French
screen,html.Screen,1_1_1_1_46,2021-04-22T16:37:46.116Z,,,,,,,,,,,,,,,,54,,,,,,,,,,,,,,641.3169999945385,,response,,,,100,,,,,,,Space,keypress(Space),,,,,,,,-- --- ---- --- ------ ----- ------- ---- -- --- ------- --<br>------- ---------- ------ -- ----- -- ----- -- ---- ------<br>--- ----- --- --- ------ -------- ----- --- ------ ----- --<br>----- ----- ---------- --- --- ------ ------ ---- -- ------<br>------- --- ------ state --- ---- ------- -- ---- --- --<br>------- ------,153401.46500000264,153400.12999999453,152741.878,152742.71500000032,152758.813,153408.321,,46,state
screen,html.Screen,1_1_1_1_47,2021-04-22T16:37:46.709Z,,,,,,,,,,,,,,,,54,,,,,,,,,,,,,,583.3439999795519,,response,,,,100,,,,,,,Space,keypress(Space),,,,,,,,-- --- ---- --- ------ ----- ------- ---- -- --- ------- --<br>------- ---------- ------ -- ----- -- ----- -- ---- ------<br>--- ----- --- --- ------ -------- ----- --- ------ ----- --<br>----- ----- ---------- --- --- ------ ------ ---- -- ------<br>------- --- ------ ----- was ---- ------- -- ---- --- --<br>------- ------,153994.20999997528,153991.66499997955,153391.864,153401.79999999236,153408.321,154008.446,,47,was
screen,html.Screen,1_1_1_1_48,2021-04-22T16:37:47.272Z,,,,,,,,,,,,,,,,54,,,,,,,,,,,,,,548.0889999815263,,response,,,,100,,,,,,,Space,keypress(Space),,,,,,,,-- --- ---- --- ------ ----- ------- ---- -- --- ------- --<br>------- ---------- ------ -- ----- -- ----- -- ---- ------<br>--- ----- --- --- ------ -------- ----- --- ------ ----- --<br>----- ----- ---------- --- --- ------ ------ ---- -- ------<br>------- --- ------ ----- --- left ------- -- ---- --- --<br>------- ------,154557.8600000008,154556.53499998152,153992.112,153994.5299999963,154008.446,154575.006,,48,left
screen,html.Screen,1_1_1_1_49,2021-04-22T16:37:47.887Z,,,,,,,,,,,,,,,,54,,,,,,,,,,,,,,595.8989999772166,,response,,,,100,,,,,,,Space,keypress(Space),,,,,,,,-- --- ---- --- ------ ----- ------- ---- -- --- ------- --<br>------- ---------- ------ -- ----- -- ----- -- ---- ------<br>--- ----- --- --- ------ -------- ----- --- ------ ----- --<br>----- ----- ---------- --- --- ------ ------ ---- -- ------<br>------- --- ------ ----- --- ---- without -- ---- --- --<br>------- ------,155172.26500000106,155170.9049999772,154558.27,154558.18999998155,154575.006,155174.909,,49,without
screen,html.Screen,1_1_1_1_50,2021-04-22T16:37:48.495Z,,,,,,,,,,,,,,,,54,,,,,,,,,,,,,,604.3309999743651,,response,,,,100,,,,,,,Space,keypress(Space),,,,,,,,-- --- ---- --- ------ ----- ------- ---- -- --- ------- --<br>------- ---------- ------ -- ----- -- ----- -- ---- ------<br>--- ----- --- --- ------ -------- ----- --- ------ ----- --<br>----- ----- ---------- --- --- ------ ------ ---- -- ------<br>------- --- ------ ----- --- ---- ------- an ---- --- --<br>------- ------,155780.52499998012,155779.23999997438,155158.7,155172.59000000195,155174.909,155791.589,,50,an
screen,html.Screen,1_1_1_1_51,2021-04-22T16:37:49.123Z,,,,,,,,,,,,,,,,54,,,,,,,,,,,,,,615.4309999841789,,response,,,,100,,,,,,,Space,keypress(Space),,,,,,,,-- --- ---- --- ------ ----- ------- ---- -- --- ------- --<br>------- ---------- ------ -- ----- -- ----- -- ---- ------<br>--- ----- --- --- ------ -------- ----- --- ------ ----- --<br>----- ----- ---------- --- --- ------ ------ ---- -- ------<br>------- --- ------ ----- --- ---- ------- -- easy --- --<br>------- ------,156408.40499999467,156407.0199999842,155774.845,155780.91999999015,155791.589,156425.298,,51,easy
screen,html.Screen,1_1_1_1_52,2021-04-22T16:37:49.588Z,,,,,,,,,,,,,,,,54,,,,,,,,,,,,,,446.6669999984442,,response,,,,100,,,,,,,Space,keypress(Space),,,,,,,,-- --- ---- --- ------ ----- ------- ---- -- --- ------- --<br>------- ---------- ------ -- ----- -- ----- -- ---- ------<br>--- ----- --- --- ------ -------- ----- --- ------ ----- --<br>----- ----- ---------- --- --- ------ ------ ---- -- ------<br>------- --- ------ ----- --- ---- ------- -- ---- way --<br>------- ------,156873.31999998423,156871.96499999845,156408.193,156409.14499998325,156425.298,156891.994,,52,way
screen,html.Screen,1_1_1_1_53,2021-04-22T16:37:50.022Z,,,,,,,,,,,,,,,,54,,,,,,,,,,,,,,414.78599998442223,,response,,,,100,,,,,,,Space,keypress(Space),,,,,,,,-- --- ---- --- ------ ----- ------- ---- -- --- ------- --<br>------- ---------- ------ -- ----- -- ----- -- ---- ------<br>--- ----- --- --- ------ -------- ----- --- ------ ----- --<br>----- ----- ---------- --- --- ------ ------ ---- -- ------<br>------- --- ------ ----- --- ---- ------- -- ---- --- of<br>------- ------,157308.08499999694,157306.77999998443,156858.642,156873.74499998987,156891.994,157325.023,,53,of
screen,html.Screen,1_1_1_1_54,2021-04-22T16:37:50.494Z,,,,,,,,,,,,,,,,54,,,,,,,,,,,,,,452.87199997744756,,response,,,,100,,,,,,,Space,keypress(Space),,,,,,,,-- --- ---- --- ------ ----- ------- ---- -- --- ------- --<br>------- ---------- ------ -- ----- -- ----- -- ---- ------<br>--- ----- --- --- ------ -------- ----- --- ------ ----- --<br>----- ----- ---------- --- --- ------ ------ ---- -- ------<br>------- --- ------ ----- --- ---- ------- -- ---- --- --<br>raising ------,157779.28999997675,157777.89499997743,157308.405,157308.4149999777,157325.023,157791.796,,54,raising
screen,html.Screen,1_1_1_1_55,2021-04-22T16:37:51.336Z,,,,,,,,,,,,,,,,54,,,,,,,,,,,,,,828.9789999884961,,response,,,,100,,,,,,,Space,keypress(Space),,,,,,,,-- --- ---- --- ------ ----- ------- ---- -- --- ------- --<br>------- ---------- ------ -- ----- -- ----- -- ---- ------<br>--- ----- --- --- ------ -------- ----- --- ------ ----- --<br>----- ----- ---------- --- --- ------ ------ ---- -- ------<br>------- --- ------ ----- --- ---- ------- -- ---- --- --<br>------- money.,158621.96499999845,158620.7749999885,157775.259,157779.63999999338,157791.796,158624.73,,55,money.
Item 100,flow.Loop,1_1_1_1,2021-04-22T16:37:51.337Z,,,,,,,,,,,,,,,,,,,,,,,,,,,,,,33144.45499998849,,completion,,,,,F,,,,,,,,,,,silence,,,,,158622.45499997516,158620.7749999885,125459.698,125466.57499999856,125476.32,158624.73,,,
Question 1,html.Screen,1_1_1_2,2021-04-22T16:37:54.378Z,,,,,,,,,,,,,,,,,,,,,,,,,,,true,TRUE,,3037.37499999578,,response,,,,100,F,,,,,,TRUE,click #choice-1,,,,silence,,,,,161663.86499998043,161662.1049999958,158608.266,158622.69999997807,158624.73,161674.624,,,
Question 2,html.Screen,1_1_1_3,2021-04-22T16:37:56.449Z,,,,,,,,,,,,,,,,,,,,,,,,,,,false,FALSE,,2058.3809999873047,,response,,,,100,F,,,,,,TRUE,click #choice-1,,,,silence,,,,,163735.0199999928,163733.00499998732,161658.428,161664.2849999771,161674.624,163741.163,,,
Item 100,flow.Sequence,1_1_1,2021-04-22T16:37:56.450Z,,,,,,,,,,,,,,,,,,,,,,,,,,,,,,48255.909999987314,,completion,,,,,,,,,,,,,,,,,,,,,163735.53499998525,163733.00499998732,115460.38,115446.66499999585,115477.095,163741.163,,,
End of Practice,html.Page,1_1_2,2021-04-22T16:38:01.992Z,,,,,,,,,,,,,,,,,,,,,,,,,,,,,,5535.72199999931,,form submission,,,,,,,,,,,,,,,,,,,,,169277.90999997524,169276.8849999993,163724.709,163735.80999998376,163741.163,169290.88,,,
Practice,flow.Sequence,1_1,2021-04-22T16:38:01.993Z,,,,,,,,,,,,,,,,,,,,,,,,,,,,,,104080.96499999931,,completion,,,,,,,,,,,,,,,,,,,,,169278.46499998122,169276.8849999993,65162.571,65182.56499999552,65195.92,169290.88,,,
Trap_instruction,html.Page,1_2_0,2021-04-22T16:38:02.760Z,,,,,,,,,,,,,,,,,,,,,,,,,,,,,,754.2600000019884,,form submission,,,,,,,,,,,,,,,,,,,,,170046.17499999586,170045.140000002,169274.709,169278.82499998668,169290.88,170107.429,,,
trap_trial,html.Screen,1_2_1,2021-04-22T16:38:05.810Z,,,,,,,,,,,,,,,,,,,,,,,,,,,true,1,,2985.6560000004247,,response,,,,,,,,,,,1,click #choice-1,,,,,,,,,173095.50999998464,173093.08500000043,170041.325,170046.5049999766,170107.429,173107.341,,,
end of trap trial,html.Page,1_2_2,2021-04-22T16:38:07.778Z,,,,,,,,,,,,,,,,,,,,,,,,,,,,,,1955.2240000001912,,form submission,,,,,,,,,,,,,,,,,,,,,175063.42999998014,175062.56500000018,173090.744,173096.06499999063,173107.341,175074.4,,,
Trap 1,flow.Sequence,1_2,2021-04-22T16:38:07.778Z,,,,,,,,,,,,,,,,,,,,,,,,,,,,,,5771.685000000172,,completion,,,,,,,,,,,,,,,,,,,,,175063.90499998815,175062.56500000018,169274.709,169278.72000000207,169290.88,175074.4,,,
Standby,html.Page,1_3_0,2021-04-22T16:38:15.773Z,,,,,,,,,,,,,,,,,,,,,,,,,,,,,,7999.118000000017,,timeout,,,,,,,,,,,,,,,,,,,,,183058.5949999804,183057.214,175057.275,175064.2649999936,175074.4,183073.518,,,
Holding screen,html.Screen,1_3_1_0_0,2021-04-22T16:38:22.771Z,,,,,,,,,,,,,,,,,,,,,,,,,,,,,,6999.693999999989,,timeout,,,,,,,,,,,,,,,,,,,,,190057.57499998435,190056.549,183057.214,183059.07999997726,183073.518,190073.212,,,
screen,html.Screen,1_3_1_0_1_0,2021-04-22T16:38:23.554Z,,,,,,,,,,,,,,,,11,,,,,,,,,,,,,,765.9679999808432,,response,,,,4,F,,,,,,Space,keypress(Space),,,,instrumental,,,,Known -- ---- --- -- --- -------- ------------ ---------- --<br>- ------- ------ --------- -- ------------ -- --- ---- -----<br>------ ---- ---- ------ ------ ------- --- ----- ---------<br>---- --- -------- -------- --- --- -- ------- --- --- -----<br>-- --- ------ ------- --- --- -------- ---- --------- --<br>---------- -- -------- ----------------,190840.5550000025,190839.17999998084,190056.549,190057.97500000335,190073.212,190856.846,,0,Known
screen,html.Screen,1_3_1_0_1_1,2021-04-22T16:38:23.900Z,,,,,,,,,,,,,,,,11,,,,,,,,,,,,,,328.3840000027849,,response,,,,4,F,,,,,,Space,keypress(Space),,,,instrumental,,,,----- as ---- --- -- --- -------- ------------ ---------- --<br>- ------- ------ --------- -- ------------ -- --- ---- -----<br>------ ---- ---- ------ ------ ------- --- ----- ---------<br>---- --- -------- -------- --- --- -- ------- --- --- -----<br>-- --- ------ ------- --- --- -------- ---- --------- --<br>---------- -- -------- ----------------,191186.56000000192,191185.23000000278,190839.895,190840.88000000338,190856.846,191189.824,,1,as
screen,html.Screen,1_3_1_0_1_2,2021-04-22T16:38:24.340Z,,,,,,,,,,,,,,,,11,,,,,,,,,,,,,,434.6709999963932,,response,,,,4,F,,,,,,Space,keypress(Space),,,,instrumental,,,,----- -- Rapa --- -- --- -------- ------------ ---------- --<br>- ------- ------ --------- -- ------------ -- --- ---- -----<br>------ ---- ---- ------ ------ ------- --- ----- ---------<br>---- --- -------- -------- --- --- -- ------- --- --- -----<br>-- --- ------ ------- --- --- -------- ---- --------- --<br>---------- -- -------- ----------------,191626.0749999783,191624.4949999964,191173.365,191186.9149999984,191189.824,191640.016,,2,Rapa
screen,html.Screen,1_3_1_0_1_3,2021-04-22T16:38:25.013Z,,,,,,,,,,,,,,,,11,,,,,,,,,,,,,,657.7690000024741,,response,,,,4,F,,,,,,Space,keypress(Space),,,,instrumental,,,,----- -- ---- Nui -- --- -------- ------------ ---------- --<br>- ------- ------ --------- -- ------------ -- --- ---- -----<br>------ ---- ---- ------ ------ ------- --- ----- ---------<br>---- --- -------- -------- --- --- -- ------- --- --- -----<br>-- --- ------ ------- --- --- -------- ---- --------- --<br>---------- -- -------- ----------------,192298.97499998333,192297.78500000248,191623.137,191626.40499998815,191640.016,192306.48,,3,Nui
screen,html.Screen,1_3_1_0_1_4,2021-04-22T16:38:25.390Z,,,,,,,,,,,,,,,,11,,,,,,,,,,,,,,367.60499997690204,,response,,,,4,F,,,,,,Space,keypress(Space),,,,instrumental,,,,----- -- ---- --- to --- -------- ------------ ---------- --<br>- ------- ------ --------- -- ------------ -- --- ---- -----<br>------ ---- ---- ------ ------ ------- --- ----- ---------<br>---- --- -------- -------- --- --- -- ------- --- --- -----<br>-- --- ------ ------- --- --- -------- ---- --------- --<br>---------- -- -------- ----------------,192675.62999998336,192674.0849999769,192289.862,192299.24999998184,192306.48,192690.262,,4,to
screen,html.Screen,1_3_1_0_1_5,2021-04-22T16:38:25.740Z,,,,,,,,,,,,,,,,11,,,,,,,,,,,,,,334.0479999788804,,response,,,,4,F,,,,,,Space,keypress(Space),,,,instrumental,,,,----- -- ---- --- -- the -------- ------------ ---------- --<br>- ------- ------ --------- -- ------------ -- --- ---- -----<br>------ ---- ---- ------ ------ ------- --- ----- ---------<br>---- --- -------- -------- --- --- -- ------- --- --- -----<br>-- --- ------ ------- --- --- -------- ---- --------- --<br>---------- -- -------- ----------------,193025.64999999595,193024.30999997887,192673.271,192675.96500000218,192690.262,193040.07,,5,the
screen,html.Screen,1_3_1_0_1_6,2021-04-22T16:38:26.165Z,,,,,,,,,,,,,,,,11,,,,,,,,,,,,,,410.019999998447,,response,,,,4,F,,,,,,Space,keypress(Space),,,,instrumental,,,,----- -- ---- --- -- --- island's ------------ ---------- --<br>- ------- ------ --------- -- ------------ -- --- ---- -----<br>------ ---- ---- ------ ------ ------- --- ----- ---------<br>---- --- -------- -------- --- --- -- ------- --- --- -----<br>-- --- ------ ------- --- --- -------- ---- --------- --<br>---------- -- -------- ----------------,193451.26000000164,193450.08999999845,193023.236,193025.96999998786,193040.07,193456.362,,6,island's
screen,html.Screen,1_3_1_0_1_7,2021-04-22T16:38:26.669Z,,,,,,,,,,,,,,,,11,,,,,,,,,,,,,,497.297999999224,,response,,,,4,F,,,,,,Space,keypress(Space),,,,instrumental,,,,"----- -- ---- --- -- --- -------- inhabitants, ---------- --<br>- ------- ------ --------- -- ------------ -- --- ---- -----<br>------ ---- ---- ------ ------ ------- --- ----- ---------<br>---- --- -------- -------- --- --- -- ------- --- --- -----<br>-- --- ------ ------- --- --- -------- ---- --------- --<br>---------- -- -------- ----------------",193955.2449999901,193953.65999999922,193439.864,193451.54499998898,193456.362,193973.036,,7,"inhabitants,"
screen,html.Screen,1_3_1_0_1_8,2021-04-22T16:38:27.642Z,,,,,,,,,,,,,,,,11,,,,,,,,,,,,,,953.403999981092,,response,,,,4,F,,,,,,Space,keypress(Space),,,,instrumental,,,,----- -- ---- --- -- --- -------- ------------ Rongorongo --<br>- ------- ------ --------- -- ------------ -- --- ---- -----<br>------ ---- ---- ------ ------ ------- --- ----- ---------<br>---- --- -------- -------- --- --- -- ------- --- --- -----<br>-- --- ------ ------- --- --- -------- ---- --------- --<br>---------- -- -------- ----------------,194927.98499998753,194926.43999998108,193940.02,193955.60999997542,193973.036,194939.833,,8,Rongorongo
screen,html.Screen,1_3_1_0_1_9,2021-04-22T16:38:28.090Z,,,,,,,,,,,,,,,,11,,,,,,,,,,,,,,434.5369999758841,,response,,,,4,F,,,,,,Space,keypress(Space),,,,instrumental,,,,----- -- ---- --- -- --- -------- ------------ ---------- is<br>- ------- ------ --------- -- ------------ -- --- ---- -----<br>------ ---- ---- ------ ------ ------- --- ----- ---------<br>---- --- -------- -------- --- --- -- ------- --- --- -----<br>-- --- ------ ------- --- --- -------- ---- --------- --<br>---------- -- -------- ----------------,195375.89499997557,195374.3699999759,194922.956,194928.32999999519,194939.833,195389.939,,9,is
screen,html.Screen,1_3_1_0_1_10,2021-04-22T16:38:28.451Z,,,,,,,,,,,,,,,,11,,,,,,,,,,,,,,345.8109999925364,,response,,,,4,F,,,,,,Space,keypress(Space),,,,instrumental,,,,----- -- ---- --- -- --- -------- ------------ ---------- --<br>a ------- ------ --------- -- ------------ -- --- ---- -----<br>------ ---- ---- ------ ------ ------- --- ----- ---------<br>---- --- -------- -------- --- --- -- ------- --- --- -----<br>-- --- ------ ------- --- --- -------- ---- --------- --<br>---------- -- -------- ----------------,195737.20499998308,195735.74999999255,195373.079,195376.22499998542,195389.939,195739.594,,10,a
screen,html.Screen,1_3_1_0_1_11,2021-04-22T16:38:29.280Z,,,,,,,,,,,,,,,,11,,,,,,,,,,,,,,824.9059999785677,,response,,,,4,F,,,,,,Space,keypress(Space),,,,instrumental,,,,----- -- ---- --- -- --- -------- ------------ ---------- --<br>- writing ------ --------- -- ------------ -- --- ---- -----<br>------ ---- ---- ------ ------ ------- --- ----- ---------<br>---- --- -------- -------- --- --- -- ------- --- --- -----<br>-- --- ------ ------- --- --- -------- ---- --------- --<br>---------- -- -------- ----------------,196565.79999998212,196564.49999997858,195723.053,195737.5400000019,195739.594,196572.902,,11,writing
screen,html.Screen,1_3_1_0_1_12,2021-04-22T16:38:29.911Z,,,,,,,,,,,,,,,,11,,,,,,,,,,,,,,623.2529999832623,,response,,,,4,F,,,,,,Space,keypress(Space),,,,instrumental,,,,----- -- ---- --- -- --- -------- ------------ ---------- --<br>- ------- system --------- -- ------------ -- --- ---- -----<br>------ ---- ---- ------ ------ ------- --- ----- ---------<br>---- --- -------- -------- --- --- -- ------- --- --- -----<br>-- --- ------ ------- --- --- -------- ---- --------- --<br>---------- -- -------- ----------------,197197.53499998478,197196.15499998326,196556.323,196566.07499998063,196572.902,197206.285,,12,system
screen,html.Screen,1_3_1_0_1_13,2021-04-22T16:38:30.586Z,,,,,,,,,,,,,,,,11,,,,,,,,,,,,,,664.3549999791721,,response,,,,4,F,,,,,,Space,keypress(Space),,,,instrumental,,,,----- -- ---- --- -- --- -------- ------------ ---------- --<br>- ------- ------ comprised -- ------------ -- --- ---- -----<br>------ ---- ---- ------ ------ ------- --- ----- ---------<br>---- --- -------- -------- --- --- -- ------- --- --- -----<br>-- --- ------ ------- --- --- -------- ---- --------- --<br>---------- -- -------- ----------------,197872.0650000032,197870.63999997918,197189.827,197197.8249999811,197206.285,197889.981,,13,comprised
screen,html.Screen,1_3_1_0_1_14,2021-04-22T16:38:31.039Z,,,,,,,,,,,,,,,,11,,,,,,,,,,,,,,433.29899998233304,,response,,,,4,F,,,,,,Space,keypress(Space),,,,instrumental,,,,----- -- ---- --- -- --- -------- ------------ ---------- --<br>- ------- ------ --------- of ------------ -- --- ---- -----<br>------ ---- ---- ------ ------ ------- --- ----- ---------<br>---- --- -------- -------- --- --- -- ------- --- --- -----<br>-- --- ------ ------- --- --- -------- ---- --------- --<br>---------- -- -------- ----------------,198324.84499999555,198323.27999998233,197872.818,197872.39499998395,197889.981,198339.975,,14,of
screen,html.Screen,1_3_1_0_1_15,2021-04-22T16:38:31.890Z,,,,,,,,,,,,,,,,11,,,,,,,,,,,,,,835.1849999843107,,response,,,,4,F,,,,,,Space,keypress(Space),,,,instrumental,,,,----- -- ---- --- -- --- -------- ------------ ---------- --<br>- ------- ------ --------- -- pictographs. -- --- ---- -----<br>------ ---- ---- ------ ------ ------- --- ----- ---------<br>---- --- -------- -------- --- --- -- ------- --- --- -----<br>-- --- ------ ------- --- --- -------- ---- --------- --<br>---------- -- -------- ----------------,199176.53499997687,199175.15999998432,198322.839,198325.24499998544,198339.975,199189.728,,15,pictographs.
screen,html.Screen,1_3_1_0_1_16,2021-04-22T16:38:32.375Z,,,,,,,,,,,,,,,,11,,,,,,,,,,,,,,469.89700000023004,,response,,,,4,F,,,,,,Space,keypress(Space),,,,instrumental,,,,----- -- ---- --- -- --- -------- ------------ ---------- --<br>- ------- ------ --------- -- ------------ It --- ---- -----<br>------ ---- ---- ------ ------ ------- --- ----- ---------<br>---- --- -------- -------- --- --- -- ------- --- --- -----<br>-- --- ------ ------- --- --- -------- ---- --------- --<br>---------- -- -------- ----------------,199660.9349999926,199659.62500000023,199172.956,199176.8549999979,199189.728,199672.929,,16,It
screen,html.Screen,1_3_1_0_1_17,2021-04-22T16:38:32.718Z,,,,,,,,,,,,,,,,11,,,,,,,,,,,,,,330.1659999927506,,response,,,,4,F,,,,,,Space,keypress(Space),,,,instrumental,,,,----- -- ---- --- -- --- -------- ------------ ---------- --<br>- ------- ------ --------- -- ------------ -- has ---- -----<br>------ ---- ---- ------ ------ ------- --- ----- ---------<br>---- --- -------- -------- --- --- -- ------- --- --- -----<br>-- --- ------ ------- --- --- -------- ---- --------- --<br>---------- -- -------- ----------------,200003.69499999215,200003.09499999275,199656.085,199661.23499997775,199672.929,200005.957,,17,has
screen,html.Screen,1_3_1_0_1_18,2021-04-22T16:38:33.148Z,,,,,,,,,,,,,,,,11,,,,,,,,,,,,,,427.14299999474315,,response,,,,4,F,,,,,,Space,keypress(Space),,,,instrumental,,,,----- -- ---- --- -- --- -------- ------------ ---------- --<br>- ------- ------ --------- -- ------------ -- --- been -----<br>------ ---- ---- ------ ------ ------- --- ----- ---------<br>---- --- -------- -------- --- --- -- ------- --- --- -----<br>-- --- ------ ------- --- --- -------- ---- --------- --<br>---------- -- -------- ----------------,200434.49499999406,200433.09999999474,199989.651,200003.84999997914,200005.957,200439.395,,18,been
screen,html.Screen,1_3_1_0_1_19,2021-04-22T16:38:33.544Z,,,,,,,,,,,,,,,,11,,,,,,,,,,,,,,389.4999999841966,,response,,,,4,F,,,,,,Space,keypress(Space),,,,instrumental,,,,----- -- ---- --- -- --- -------- ------------ ---------- --<br>- ------- ------ --------- -- ------------ -- --- ---- found<br>------ ---- ---- ------ ------ ------- --- ----- ---------<br>---- --- -------- -------- --- --- -- ------- --- --- -----<br>-- --- ------ ------- --- --- -------- ---- --------- --<br>---------- -- -------- ----------------,200830.14999999432,200828.8949999842,200422.615,200434.89999999292,200439.395,200839.396,,19,found
screen,html.Screen,1_3_1_0_1_20,2021-04-22T16:38:33.959Z,,,,,,,,,,,,,,,,11,,,,,,,,,,,,,,403.41899997595465,,response,,,,4,F,,,,,,Space,keypress(Space),,,,instrumental,,,,----- -- ---- --- -- --- -------- ------------ ---------- --<br>- ------- ------ --------- -- ------------ -- --- ---- -----<br>carved ---- ---- ------ ------ ------- --- ----- ---------<br>---- --- -------- -------- --- --- -- ------- --- --- -----<br>-- --- ------ ------- --- --- -------- ---- --------- --<br>---------- -- -------- ----------------,201244.59999997634,201242.81499997596,200822.705,200830.43499998166,200839.396,201256.175,,20,carved
screen,html.Screen,1_3_1_0_1_21,2021-04-22T16:38:34.504Z,,,,,,,,,,,,,,,,11,,,,,,,,,,,,,,532.4799999821116,,response,,,,4,F,,,,,,Space,keypress(Space),,,,instrumental,,,,----- -- ---- --- -- --- -------- ------------ ---------- --<br>- ------- ------ --------- -- ------------ -- --- ---- -----<br>------ into ---- ------ ------ ------- --- ----- ---------<br>---- --- -------- -------- --- --- -- ------- --- --- -----<br>-- --- ------ ------- --- --- -------- ---- --------- --<br>---------- -- -------- ----------------,201789.87999999663,201788.6549999821,201239.35,201245.11999997776,201256.175,201806.077,,21,into
screen,html.Screen,1_3_1_0_1_22,2021-04-22T16:38:34.938Z,,,,,,,,,,,,,,,,11,,,,,,,,,,,,,,416.92299999814713,,response,,,,4,F,,,,,,Space,keypress(Space),,,,instrumental,,,,----- -- ---- --- -- --- -------- ------------ ---------- --<br>- ------- ------ --------- -- ------------ -- --- ---- -----<br>------ ---- many ------ ------ ------- --- ----- ---------<br>---- --- -------- -------- --- --- -- ------- --- --- -----<br>-- --- ------ ------- --- --- -------- ---- --------- --<br>---------- -- -------- ----------------,202224.5399999956,202222.99999999814,201789.71,201790.16499998397,201806.077,202239.671,,22,many
screen,html.Screen,1_3_1_0_1_23,2021-04-22T16:38:35.448Z,,,,,,,,,,,,,,,,11,,,,,,,,,,,,,,492.9139999906474,,response,,,,4,F,,,,,,Space,keypress(Space),,,,instrumental,,,,----- -- ---- --- -- --- -------- ------------ ---------- --<br>- ------- ------ --------- -- ------------ -- --- ---- -----<br>------ ---- ---- oblong ------ ------- --- ----- ---------<br>---- --- -------- -------- --- --- -- ------- --- --- -----<br>-- --- ------ ------- --- --- -------- ---- --------- --<br>---------- -- -------- ----------------,202734.21499997494,202732.58499999065,202222.753,202224.99499999685,202239.671,202739.256,,23,oblong
screen,html.Screen,1_3_1_0_1_24,2021-04-22T16:38:35.908Z,,,,,,,,,,,,,,,,11,,,,,,,,,,,,,,453.5639999965788,,response,,,,4,F,,,,,,Space,keypress(Space),,,,instrumental,,,,----- -- ---- --- -- --- -------- ------------ ---------- --<br>- ------- ------ --------- -- ------------ -- --- ---- -----<br>------ ---- ---- ------ wooden ------- --- ----- ---------<br>---- --- -------- -------- --- --- -- ------- --- --- -----<br>-- --- ------ ------- --- --- -------- ---- --------- --<br>---------- -- -------- ----------------,203194.42499999423,203192.81999999657,202722.599,202734.60999998497,202739.256,203206.159,,24,wooden
screen,html.Screen,1_3_1_0_1_25,2021-04-22T16:38:36.342Z,,,,,,,,,,,,,,,,11,,,,,,,,,,,,,,420.50099997987854,,response,,,,4,F,,,,,,Space,keypress(Space),,,,instrumental,,,,----- -- ---- --- -- --- -------- ------------ ---------- --<br>- ------- ------ --------- -- ------------ -- --- ---- -----<br>------ ---- ---- ------ ------ tablets --- ----- ---------<br>---- --- -------- -------- --- --- -- ------- --- --- -----<br>-- --- ------ ------- --- --- -------- ---- --------- --<br>---------- -- -------- ----------------,203628.04999999935,203626.6599999799,203189.335,203194.87999999546,203206.159,203639.365,,25,tablets
screen,html.Screen,1_3_1_0_1_26,2021-04-22T16:38:36.876Z,,,,,,,,,,,,,,,,11,,,,,,,,,,,,,,521.0299999844283,,response,,,,4,F,,,,,,Space,keypress(Space),,,,instrumental,,,,----- -- ---- --- -- --- -------- ------------ ---------- --<br>- ------- ------ --------- -- ------------ -- --- ---- -----<br>------ ---- ---- ------ ------ ------- and ----- ---------<br>---- --- -------- -------- --- --- -- ------- --- --- -----<br>-- --- ------ ------- --- --- -------- ---- --------- --<br>---------- -- -------- ----------------,204161.7949999927,204160.39499998442,203622.969,203628.3799999801,203639.365,204172.564,,26,and
screen,html.Screen,1_3_1_0_1_27,2021-04-22T16:38:37.269Z,,,,,,,,,,,,,,,,11,,,,,,,,,,,,,,381.505999983754,,response,,,,4,F,,,,,,Space,keypress(Space),,,,instrumental,,,,----- -- ---- --- -- --- -------- ------------ ---------- --<br>- ------- ------ --------- -- ------------ -- --- ---- -----<br>------ ---- ---- ------ ------ ------- --- other ---------<br>---- --- -------- -------- --- --- -- ------- --- --- -----<br>-- --- ------ ------- --- --- -------- ---- --------- --<br>---------- -- -------- ----------------,204555.5250000034,204554.06999998377,204155.869,204162.1349999914,204172.564,204572.653,,27,other
screen,html.Screen,1_3_1_0_1_28,2021-04-22T16:38:37.780Z,,,,,,,,,,,,,,,,11,,,,,,,,,,,,,,492.286999982025,,response,,,,4,F,,,,,,Space,keypress(Space),,,,instrumental,,,,----- -- ---- --- -- --- -------- ------------ ---------- --<br>- ------- ------ --------- -- ------------ -- --- ---- -----<br>------ ---- ---- ------ ------ ------- --- ----- artifacts<br>---- --- -------- -------- --- --- -- ------- --- --- -----<br>-- --- ------ ------- --- --- -------- ---- --------- --<br>---------- -- -------- ----------------,205066.41999998828,205064.93999998202,204555.876,204555.85999999312,204572.653,205072.495,,28,artifacts
screen,html.Screen,1_3_1_0_1_29,2021-04-22T16:38:38.175Z,,,,,,,,,,,,,,,,11,,,,,,,,,,,,,,387.33499997796025,,response,,,,4,F,,,,,,Space,keypress(Space),,,,instrumental,,,,----- -- ---- --- -- --- -------- ------------ ---------- --<br>- ------- ------ --------- -- ------------ -- --- ---- -----<br>------ ---- ---- ------ ------ ------- --- ----- ---------<br>from --- -------- -------- --- --- -- ------- --- --- -----<br>-- --- ------ ------- --- --- -------- ---- --------- --<br>---------- -- -------- ----------------,205461.1900000018,205459.82999997796,205055.847,205066.7399999802,205072.495,205472.516,,29,from
screen,html.Screen,1_3_1_0_1_30,2021-04-22T16:38:38.690Z,,,,,,,,,,,,,,,,11,,,,,,,,,,,,,,501.80899998830864,,response,,,,4,F,,,,,,Space,keypress(Space),,,,instrumental,,,,----- -- ---- --- -- --- -------- ------------ ---------- --<br>- ------- ------ --------- -- ------------ -- --- ---- -----<br>------ ---- ---- ------ ------ ------- --- ----- ---------<br>---- the -------- -------- --- --- -- ------- --- --- -----<br>-- --- ------ ------- --- --- -------- ---- --------- --<br>---------- -- -------- ----------------,205975.70499998983,205974.3249999883,205456.104,205461.51999998256,205472.516,205989.597,,30,the
screen,html.Screen,1_3_1_0_1_31,2021-04-22T16:38:39.120Z,,,,,,,,,,,,,,,,11,,,,,,,,,,,,,,414.8379999749013,,response,,,,4,F,,,,,,Space,keypress(Space),,,,instrumental,,,,----- -- ---- --- -- --- -------- ------------ ---------- --<br>- ------- ------ --------- -- ------------ -- --- ---- -----<br>------ ---- ---- ------ ------ ------- --- ----- ---------<br>---- --- island's -------- --- --- -- ------- --- --- -----<br>-- --- ------ ------- --- --- -------- ---- --------- --<br>---------- -- -------- ----------------,206406.02499997476,206404.4349999749,205972.701,205976.03499999968,205989.597,206422.674,,31,island's
screen,html.Screen,1_3_1_0_1_32,2021-04-22T16:38:39.585Z,,,,,,,,,,,,,,,,11,,,,,,,,,,,,,,447.1759999882197,,response,,,,4,F,,,,,,Space,keypress(Space),,,,instrumental,,,,----- -- ---- --- -- --- -------- ------------ ---------- --<br>- ------- ------ --------- -- ------------ -- --- ---- -----<br>------ ---- ---- ------ ------ ------- --- ----- ---------<br>---- --- -------- history. --- --- -- ------- --- --- -----<br>-- --- ------ ------- --- --- -------- ---- --------- --<br>---------- -- -------- ----------------,206871.0799999826,206869.84999998822,206405.885,206406.35999999358,206422.674,206905.729,,32,history.
screen,html.Screen,1_3_1_0_1_33,2021-04-22T16:38:40.000Z,,,,,,,,,,,,,,,,11,,,,,,,,,,,,,,378.6809999929392,,response,,,,4,F,,,,,,Space,keypress(Space),,,,instrumental,,,,----- -- ---- --- -- --- -------- ------------ ---------- --<br>- ------- ------ --------- -- ------------ -- --- ---- -----<br>------ ---- ---- ------ ------ ------- --- ----- ---------<br>---- --- -------- -------- The --- -- ------- --- --- -----<br>-- --- ------ ------- --- --- -------- ---- --------- --<br>---------- -- -------- ----------------,207286.0299999884,207284.40999999293,206892.994,206871.36499999906,206905.729,207289.036,,33,The
screen,html.Screen,1_3_1_0_1_34,2021-04-22T16:38:40.769Z,,,,,,,,,,,,,,,,11,,,,,,,,,,,,,,764.4239999955462,,response,,,,4,F,,,,,,Space,keypress(Space),,,,instrumental,,,,----- -- ---- --- -- --- -------- ------------ ---------- --<br>- ------- ------ --------- -- ------------ -- --- ---- -----<br>------ ---- ---- ------ ------ ------- --- ----- ---------<br>---- --- -------- -------- --- art -- ------- --- --- -----<br>-- --- ------ ------- --- --- -------- ---- --------- --<br>---------- -- -------- ----------------,208055.00500000198,208053.45999999554,207272.291,207286.460000003,207289.036,208072.582,,34,art
screen,html.Screen,1_3_1_0_1_35,2021-04-22T16:38:41.313Z,,,,,,,,,,,,,,,,11,,,,,,,,,,,,,,524.8929999877582,,response,,,,4,F,,,,,,Space,keypress(Space),,,,instrumental,,,,----- -- ---- --- -- --- -------- ------------ ---------- --<br>- ------- ------ --------- -- ------------ -- --- ---- -----<br>------ ---- ---- ------ ------ ------- --- ----- ---------<br>---- --- -------- -------- --- --- of ------- --- --- -----<br>-- --- ------ ------- --- --- -------- ---- --------- --<br>---------- -- -------- ----------------,208598.70499998215,208597.47499998775,208055.829,208055.4149999807,208072.582,208605.616,,35,of
screen,html.Screen,1_3_1_0_1_36,2021-04-22T16:38:41.750Z,,,,,,,,,,,,,,,,11,,,,,,,,,,,,,,429.28899997859844,,response,,,,4,F,,,,,,Space,keypress(Space),,,,instrumental,,,,----- -- ---- --- -- --- -------- ------------ ---------- --<br>- ------- ------ --------- -- ------------ -- --- ---- -----<br>------ ---- ---- ------ ------ ------- --- ----- ---------<br>---- --- -------- -------- --- --- -- writing --- --- -----<br>-- --- ------ ------- --- --- -------- ---- --------- --<br>---------- -- -------- ----------------,209036.12499998417,209034.9049999786,208589.12,208599.0049999964,208605.616,209038.919,,36,writing
screen,html.Screen,1_3_1_0_1_37,2021-04-22T16:38:42.146Z,,,,,,,,,,,,,,,,11,,,,,,,,,,,,,,391.58099998766556,,response,,,,4,F,,,,,,Space,keypress(Space),,,,instrumental,,,,----- -- ---- --- -- --- -------- ------------ ---------- --<br>- ------- ------ --------- -- ------------ -- --- ---- -----<br>------ ---- ---- ------ ------ ------- --- ----- ---------<br>---- --- -------- -------- --- --- -- ------- was --- -----<br>-- --- ------ ------- --- --- -------- ---- --------- --<br>---------- -- -------- ----------------,209431.86499999138,209430.49999998766,209022.341,209036.40499999165,209038.919,209438.942,,37,was
screen,html.Screen,1_3_1_0_1_38,2021-04-22T16:38:42.570Z,,,,,,,,,,,,,,,,11,,,,,,,,,,,,,,415.6579999914684,,response,,,,4,F,,,,,,Space,keypress(Space),,,,instrumental,,,,----- -- ---- --- -- --- -------- ------------ ---------- --<br>- ------- ------ --------- -- ------------ -- --- ---- -----<br>------ ---- ---- ------ ------ ------- --- ----- ---------<br>---- --- -------- -------- --- --- -- ------- --- not -----<br>-- --- ------ ------- --- --- -------- ---- --------- --<br>---------- -- -------- ----------------,209855.88999997708,209854.59999999148,209422.562,209432.18999999226,209438.942,209872.571,,38,not
