sender,sender_type,sender_id,timestamp,meta,,Blues,Classical,Country,Dance,Electronic,Folk,Gospel,Hip-Hop,Jazz,Latin,Musical/Film,New-age,Pop,Provo_ID,R&B,Rap,Reggae,Religious,Rock,Soul,Swing,Traditional,age,artist_name,correct,correctResponse,distraction,duration,education,ended_on,familiarity,gender,headphone_check_performance,item,list,music_frequency,offensiveness,pleasantness,position_correct,preference,response,response_action,snippet_file,song_name,song_rating,sound,stimulus_1,stimulus_2,stimulus_3,text,time_commit,time_end,time_render,time_run,time_show,time_switch,url,word,word_ID
Introduction,html.Screen,0_0,2021-04-11T14:49:30.167Z,"{""labjs_version"":""20.2.2"",""labjs_build"":{""flavor"":""production"",""commit"":""a25486e0c714a0ae2ce03ff94b7bb6896854dcfa""},""location"":""https://run.pavlovia.org/mvasilev/music_a/"",""userAgent"":""Mozilla/5.0 (Windows NT 10.0; Win64; x64) AppleWebKit/537.36 (KHTML, like Gecko) Chrome/89.0.4389.90 Safari/537.36"",""platform"":""Win32"",""language"":""en-GB"",""locale"":""en-US"",""timeZone"":""Europe/London"",""timezoneOffset"":-60,""screen_width"":1366,""screen_height"":768,""scroll_width"":1366,""scroll_height"":577,""window_innerWidth"":1366,""window_innerHeight"":625,""devicePixelRatio"":1}",,,,,,,,,,,,,,,,,,,,,,,,,,,,,5098.099000062881,,response,,,,,,,,,,,continue,click button,,,,,,,,,64683.72499989346,64672.77000006288,59457.479,59461.37999999337,59574.671,64724.044,{},,
Volume calibration,html.Screen,0_1,2021-04-11T14:49:54.053Z,,,,,,,,,,,,,,,,,,,,,,,,,,,,,,23831.83599988347,,response,,,,,,,,,,,continue,click button,,,,,,,,,88569.73499991,88555.87999988347,64673.682,64686.23499991372,64724.044,88568.032,,,
Task instructions,html.Screen,0_2,2021-04-11T14:50:04.391Z,,,,,,,,,,,,,,,,,,,,,,,,,,,,,,10340.298000005656,,response,,,,,,,,,,,continue,click button,,,,,,,,,98911.04499995708,98908.33000000566,88551.738,88570.42000000365,88568.032,98915.735,,,
Sounds,html.Screen,0_3_0_0,2021-04-11T14:50:08.641Z,,,,,,,,,,,,,,,,,,,,,,,,,,,,,,4249.4679999999935,,timeout,,,,,,,,,2,,,,,,,,O,S,I,,103161.28999995999,103148.82,98899.851,98912.19999990426,98915.735,103165.203,,,
Judgement,html.Screen,0_3_0_1,2021-04-11T14:50:09.965Z,,,,,,,,,,,,,,,,,,,,,,,,,,,true,2,,1317.3219998830318,,response,,,,,,,,,2,,2,click #choice-2,,,,,O,S,I,,104485.175000038,104482.52499988303,103148.82,103161.73500008881,103165.203,104497.919,,,
Trial,flow.Sequence,0_3_0,2021-04-11T14:50:09.966Z,,,,,,,,,,,,,,,,,,,,,,,,,,,,,,5566.789999883025,,completion,,,,,,,,,2,,,,,,,,O,S,I,,104486.59499990754,104482.52499988303,98899.851,98911.92999994382,98915.735,104497.919,,,
Sounds,html.Screen,0_3_1_0,2021-04-11T14:50:14.215Z,,,,,,,,,,,,,,,,,,,,,,,,,,,,,,4248.97600000001,,timeout,,,,,,,,,1,,,,,,,,S,O,I,,108734.79499993846,108730.653,104481.016,104487.37500002608,104497.919,108746.895,,,
Judgement,html.Screen,0_3_1_1,2021-04-11T14:50:14.882Z,,,,,,,,,,,,,,,,,,,,,,,,,,,true,1,,653.6500000986416,,response,,,,,,,,,1,,1,click #choice-1,,,,,S,O,I,,109402.20999997109,109400.54500009865,108730.653,108736.51499999687,108746.895,109413.268,,,
Trial,flow.Sequence,0_3_1,2021-04-11T14:50:14.883Z,,,,,,,,,,,,,,,,,,,,,,,,,,,,,,4902.626000098651,,completion,,,,,,,,,1,,,,,,,,S,O,I,,109402.79500000179,109400.54500009865,104481.016,104487.14000009932,104497.919,109413.268,,,
Sounds,html.Screen,0_3_2_0,2021-04-11T14:50:19.128Z,,,,,,,,,,,,,,,,,,,,,,,,,,,,,,4248.981,,timeout,,,,,,,,,3,,,,,,,,I,O,S,,113648.06500007398,113645.597,109396.691,109403.24499993585,109413.268,113662.249,,,
Judgement,html.Screen,0_3_2_1,2021-04-11T14:50:19.712Z,,,,,,,,,,,,,,,,,,,,,,,,,,,true,3,,567.9160000736156,,response,,,,,,,,,3,,3,click #choice-3,,,,,I,O,S,,114232.53499995917,114230.16500007361,113645.597,113648.43999990262,113662.249,114245.469,,,
Trial,flow.Sequence,0_3_2,2021-04-11T14:50:19.713Z,,,,,,,,,,,,,,,,,,,,,,,,,,,,,,4816.897000073615,,completion,,,,,,,,,3,,,,,,,,I,O,S,,114233.42499998398,114230.16500007361,109396.691,109403.10500003397,109413.268,114245.469,,,
Sounds,html.Screen,0_3_3_0,2021-04-11T14:50:23.959Z,,,,,,,,,,,,,,,,,,,,,,,,,,,,,,4249.0060000000085,,timeout,,,,,,,,,3,,,,,,,,O,I,S,,118479.04499992728,118477.825,114228.793,114234.17999991216,114245.469,118494.475,,,
Judgement,html.Screen,0_3_3_1,2021-04-11T14:50:24.393Z,,,,,,,,,,,,,,,,,,,,,,,,,,,false,3,,417.3450000375451,,response,,,,,,,,,3,,1,click #choice-1,,,,,O,I,S,,118913.69000007398,118911.82000003755,118477.825,118479.34000007808,118494.475,118927.88,,,
Trial,flow.Sequence,0_3_3,2021-04-11T14:50:24.394Z,,,,,,,,,,,,,,,,,,,,,,,,,,,,,,4666.351000037554,,completion,,,,,,,,,3,,,,,,,,O,I,S,,118914.26500002854,118911.82000003755,114228.793,114233.95500006154,114245.469,118927.88,,,
Sounds,html.Screen,0_3_4_0,2021-04-11T14:50:28.642Z,,,,,,,,,,,,,,,,,,,,,,,,,,,,,,4250.558999999994,,timeout,,,,,,,,,2,,,,,,,,I,S,O,,123162.62000007555,123160.243,118911.508,118914.64999993332,118927.88,123178.439,,,
Judgement,html.Screen,0_3_4_1,2021-04-11T14:50:29.115Z,,,,,,,,,,,,,,,,,,,,,,,,,,,true,2,,454.24100003881904,,response,,,,,,,,,2,,2,click #choice-2,,,,,I,S,O,,123635.19500009716,123632.68000003882,123160.243,123163.12499996275,123178.439,123643.352,,,
Trial,flow.Sequence,0_3_4,2021-04-11T14:50:29.116Z,,,,,,,,,,,,,,,,,,,,,,,,,,,,,,4704.800000038813,,completion,,,,,,,,,2,,,,,,,,I,S,O,,123636.08499988914,123632.68000003882,118911.508,118914.53499998897,118927.88,123643.352,,,
Sounds,html.Screen,0_3_5_0,2021-04-11T14:50:33.357Z,,,,,,,,,,,,,,,,,,,,,,,,,,,,,,4249.099000000002,,timeout,,,,,,,,,1,,,,,,,,S,I,O,,127877.12999992073,127875.7,123626.665,123636.72000006773,123643.352,127892.451,,,
Judgement,html.Screen,0_3_5_1,2021-04-11T14:50:33.827Z,,,,,,,,,,,,,,,,,,,,,,,,,,,true,1,,451.3139998813858,,response,,,,,,,,,1,,1,click #choice-1,,,,,S,I,O,,128346.86499997042,128343.76499988139,127875.7,127877.65999999829,127892.451,128375.603,,,
Trial,flow.Sequence,0_3_5,2021-04-11T14:50:33.828Z,,,,,,,,,,,,,,,,,,,,,,,,,,,,,,4700.412999881388,,completion,,,,,,,,,1,,,,,,,,S,I,O,,128347.71999996156,128343.76499988139,123626.665,123636.52499997988,123643.352,128375.603,,,
Task,flow.Loop,0_3,2021-04-11T14:50:33.845Z,,,,,,,,,,,,,,,,,,,,,,,,,,,,,,29428.029999881386,,completion,,,0.8333333333333334,,,,,,,,,,,,,,,,,,128365.53999991156,128343.76499988139,98899.851,98911.64999990724,98915.735,128375.603,,,
Trap,html.Screen,0_4,2021-04-11T14:50:33.859Z,,,,,,,,,,,,,,,,,,,,,,,,,,,,,,NaN,,skipped,,,,,,,,,,,,,,,,,,,,,128379.26000007428,128343.76499988139,,128378.65000008605,,128375.603,,,
Thanks,html.Screen,0_5,2021-04-11T14:50:36.663Z,,,,,,,,,,,,,,,,,,,,,,,,,,,,,,2805.2269999684067,,response,,,,,,,,,,,continue,click button,,,,,,,,,131183.02499991842,131180.8299999684,128342.25,128379.8549999483,128375.603,135974.548,,,
Headphone screening,flow.Sequence,0,2021-04-11T14:50:36.664Z,,,,,,,,,,,,,,,,,,,,,,,,,,,,,,71606.15899996841,,completion,,,,,,,,,,,,,,,,,,,,,131183.8249999564,131180.8299999684,59457.479,59461.265000049025,59574.671,135974.548,,,
Instructions,html.Page,1_0,2021-04-11T14:51:06.409Z,,,,,,,,,,,,,,,,,,,,,,,,,,,,,,24953.55199990276,,form submission,,,,,,,,,,,,,,,,,,,,,160929.9900000915,160928.09999990277,135907.218,135963.8350000605,135974.548,160951.665,,,
Holding screen,html.Screen,1_1_0_0,2021-04-11T14:51:16.415Z,,,,,,,,,,,,,,,,,,,,,,,,,,,,,,10198.068999999989,,timeout,,,,,,,,,,,,,,,,,,,,,170936.43500003964,170933.149,160918.238,160930.96000002697,160951.665,171149.734,,,
screen,html.Screen,1_1_0_1_0,2021-04-11T14:51:17.722Z,,,,,,,,,,,,,,,,53,,,,,,,,,,,,,,1072.040999983612,,response,,,,99,,,,,,,Space,keypress(Space),,,,,,,,When -- ----- -- ------ - ------- --- ----------<br>------------- ------ ------ ---- ---- ------- ----- -- ----<br>-------- ------- -- ---------- --- - --- ----- ----- ----<br>---- --- --- ----- --- ---- ---- ------- ----- ---- -------<br>--- --- -- ----- -- --- ---- -- --- ---- -- ------ ------<br>--- ----- -- ----,172242.79000004753,172221.7749999836,170933.149,170938.8200000394,171149.734,172249.41,,0,When
screen,html.Screen,1_1_0_1_1,2021-04-11T14:51:18.134Z,,,,,,,,,,,,,,,,53,,,,,,,,,,,,,,403.88999988898286,,response,,,,99,,,,,,,Space,keypress(Space),,,,,,,,---- it ----- -- ------ - ------- --- ----------<br>------------- ------ ------ ---- ---- ------- ----- -- ----<br>-------- ------- -- ---------- --- - --- ----- ----- ----<br>---- --- --- ----- --- ---- ---- ------- ----- ---- -------<br>--- --- -- ----- -- --- ---- -- --- ---- -- ------ ------<br>--- ----- -- ----,172654.8049999401,172653.299999889,172215.87,172244.62000001222,172249.41,172665.874,,1,it
screen,html.Screen,1_1_0_1_2,2021-04-11T14:51:18.547Z,,,,,,,,,,,,,,,,53,,,,,,,,,,,,,,398.68100004812004,,response,,,,99,,,,,,,Space,keypress(Space),,,,,,,,---- -- comes -- ------ - ------- --- ----------<br>------------- ------ ------ ---- ---- ------- ----- -- ----<br>-------- ------- -- ---------- --- - --- ----- ----- ----<br>---- --- --- ----- --- ---- ---- ------- ----- ---- -------<br>--- --- -- ----- -- --- ---- -- --- ---- -- ------ ------<br>--- ----- -- ----,173068.10999987647,173064.55500004813,172649.341,172655.2649999503,172665.874,173082.88,,2,comes
screen,html.Screen,1_1_0_1_3,2021-04-11T14:51:18.957Z,,,,,,,,,,,,,,,,53,,,,,,,,,,,,,,391.90999989106786,,response,,,,99,,,,,,,Space,keypress(Space),,,,,,,,---- -- ----- to ------ - ------- --- ----------<br>------------- ------ ------ ---- ---- ------- ----- -- ----<br>-------- ------- -- ---------- --- - --- ----- ----- ----<br>---- --- --- ----- --- ---- ---- ------- ----- ---- -------<br>--- --- -- ----- -- --- ---- -- --- ---- -- ------ ------<br>--- ----- -- ----,173477.85499994643,173474.78999989107,173066.195,173069.49999998324,173082.88,173502.131,,3,to
screen,html.Screen,1_1_0_1_4,2021-04-11T14:51:19.370Z,,,,,,,,,,,,,,,,53,,,,,,,,,,,,,,385.8440000778646,,response,,,,99,,,,,,,Space,keypress(Space),,,,,,,,---- -- ----- -- having - ------- --- ----------<br>------------- ------ ------ ---- ---- ------- ----- -- ----<br>-------- ------- -- ---------- --- - --- ----- ----- ----<br>---- --- --- ----- --- ---- ---- ------- ----- ---- -------<br>--- --- -- ----- -- --- ---- -- --- ---- -- ------ ------<br>--- ----- -- ----,173891.0550000146,173887.97500007786,173466.317,173479.25999993458,173502.131,173898.834,,4,having
screen,html.Screen,1_1_0_1_5,2021-04-11T14:51:19.796Z,,,,,,,,,,,,,,,,53,,,,,,,,,,,,,,417.00100001579267,,response,,,,99,,,,,,,Space,keypress(Space),,,,,,,,---- -- ----- -- ------ a ------- --- ----------<br>------------- ------ ------ ---- ---- ------- ----- -- ----<br>-------- ------- -- ---------- --- - --- ----- ----- ----<br>---- --- --- ----- --- ---- ---- ------- ----- ---- -------<br>--- --- -- ----- -- --- ---- -- --- ---- -- ------ ------<br>--- ----- -- ----,174317.1099999454,174315.8350000158,173882.388,173892.4100000877,173898.834,174331.795,,5,a
screen,html.Screen,1_1_0_1_6,2021-04-11T14:51:20.118Z,,,,,,,,,,,,,,,,53,,,,,,,,,,,,,,305.6399999241403,,response,,,,99,,,,,,,Space,keypress(Space),,,,,,,,---- -- ----- -- ------ - lasting --- ----------<br>------------- ------ ------ ---- ---- ------- ----- -- ----<br>-------- ------- -- ---------- --- - --- ----- ----- ----<br>---- --- --- ----- --- ---- ---- ------- ----- ---- -------<br>--- --- -- ----- -- --- ---- -- --- ---- -- ------ ------<br>--- ----- -- ----,174639.2000000924,174637.43499992415,174316.063,174317.4449999351,174331.795,174648.613,,6,lasting
screen,html.Screen,1_1_0_1_7,2021-04-11T14:51:20.440Z,,,,,,,,,,,,,,,,53,,,,,,,,,,,,,,309.59700006979983,,response,,,,99,,,,,,,Space,keypress(Space),,,,,,,,---- -- ----- -- ------ - ------- and ----------<br>------------- ------ ------ ---- ---- ------- ----- -- ----<br>-------- ------- -- ---------- --- - --- ----- ----- ----<br>---- --- --- ----- --- ---- ---- ------- ----- ---- -------<br>--- --- -- ----- -- --- ---- -- --- ---- -- ------ ------<br>--- ----- -- ----,174961.12499991432,174958.2100000698,174631.672,174639.80000000447,174648.613,174998.873,,7,and
screen,html.Screen,1_1_0_1_8,2021-04-11T14:51:20.826Z,,,,,,,,,,,,,,,,53,,,,,,,,,,,,,,345.1270000409859,,response,,,,99,,,,,,,Space,keypress(Space),,,,,,,,---- -- ----- -- ------ - ------- --- fulfilling<br>------------- ------ ------ ---- ---- ------- ----- -- ----<br>-------- ------- -- ---------- --- - --- ----- ----- ----<br>---- --- --- ----- --- ---- ---- ------- ----- ---- -------<br>--- --- -- ----- -- --- ---- -- --- ---- -- ------ ------<br>--- ----- -- ----,175346.81000001729,175344.00000004098,174982.344,174962.51500002109,174998.873,175365.412,,8,fulfilling
screen,html.Screen,1_1_0_1_9,2021-04-11T14:51:21.154Z,,,,,,,,,,,,,,,,53,,,,,,,,,,,,,,308.58300007740036,,response,,,,99,,,,,,,Space,keypress(Space),,,,,,,,"---- -- ----- -- ------ - ------- --- ----------<br>relationship, ------ ------ ---- ---- ------- ----- -- ----<br>-------- ------- -- ---------- --- - --- ----- ----- ----<br>---- --- --- ----- --- ---- ---- ------- ----- ---- -------<br>--- --- -- ----- -- --- ---- -- --- ---- -- ------ ------<br>--- ----- -- ----",175675.47499993816,175673.9950000774,175348.796,175348.2550000772,175365.412,175681.558,,9,"relationship,"
screen,html.Screen,1_1_0_1_10,2021-04-11T14:51:21.556Z,,,,,,,,,,,,,,,,53,,,,,,,,,,,,,,392.4369999842893,,response,,,,99,,,,,,,Space,keypress(Space),,,,,,,,---- -- ----- -- ------ - ------- --- ----------<br>------------- common ------ ---- ---- ------- ----- -- ----<br>-------- ------- -- ---------- --- - --- ----- ----- ----<br>---- --- --- ----- --- ---- ---- ------- ----- ---- -------<br>--- --- -- ----- -- --- ---- -- --- ---- -- ------ ------<br>--- ----- -- ----,176077.17499998398,176073.99499998428,175665.686,175675.83999992348,175681.558,176099.391,,10,common
screen,html.Screen,1_1_0_1_11,2021-04-11T14:51:21.942Z,,,,,,,,,,,,,,,,53,,,,,,,,,,,,,,360.89400003739865,,response,,,,99,,,,,,,Space,keypress(Space),,,,,,,,---- -- ----- -- ------ - ------- --- ----------<br>------------- ------ wisdom ---- ---- ------- ----- -- ----<br>-------- ------- -- ---------- --- - --- ----- ----- ----<br>---- --- --- ----- --- ---- ---- ------- ----- ---- -------<br>--- --- -- ----- -- --- ---- -- --- ---- -- ------ ------<br>--- ----- -- ----,176463.42499996535,176460.2850000374,176065.269,176078.56000005268,176099.391,176481.483,,11,wisdom
screen,html.Screen,1_1_0_1_12,2021-04-11T14:51:22.394Z,,,,,,,,,,,,,,,,53,,,,,,,,,,,,,,430.68699990864843,,response,,,,99,,,,,,,Space,keypress(Space),,,,,,,,---- -- ----- -- ------ - ------- --- ----------<br>------------- ------ ------ says ---- ------- ----- -- ----<br>-------- ------- -- ---------- --- - --- ----- ----- ----<br>---- --- --- ----- --- ---- ---- ------- ----- ---- -------<br>--- --- -- ----- -- --- ---- -- --- ---- -- ------ ------<br>--- ----- -- ----,176915.30500003137,176912.16999990866,176464.96,176464.79499991983,176481.483,176931.781,,12,says
screen,html.Screen,1_1_0_1_13,2021-04-11T14:51:22.820Z,,,,,,,,,,,,,,,,53,,,,,,,,,,,,,,406.2689999038994,,response,,,,99,,,,,,,Space,keypress(Space),,,,,,,,---- -- ----- -- ------ - ------- --- ----------<br>------------- ------ ------ ---- that ------- ----- -- ----<br>-------- ------- -- ---------- --- - --- ----- ----- ----<br>---- --- --- ----- --- ---- ---- ------- ----- ---- -------<br>--- --- -- ----- -- --- ---- -- --- ---- -- ------ ------<br>--- ----- -- ----,177341.14999999292,177338.0499999039,176914.971,176916.76499997266,176931.781,177348.274,,13,that
screen,html.Screen,1_1_0_1_14,2021-04-11T14:51:23.219Z,,,,,,,,,,,,,,,,53,,,,,,,,,,,,,,390.6960000639956,,response,,,,99,,,,,,,Space,keypress(Space),,,,,,,,---- -- ----- -- ------ - ------- --- ----------<br>------------- ------ ------ ---- ---- feeling ----- -- ----<br>-------- ------- -- ---------- --- - --- ----- ----- ----<br>---- --- --- ----- --- ---- ---- ------- ----- ---- -------<br>--- --- -- ----- -- --- ---- -- --- ---- -- ------ ------<br>--- ----- -- ----,177740.35499989986,177738.970000064,177332.153,177342.62500004843,177348.274,177747.748,,14,feeling
screen,html.Screen,1_1_0_1_15,2021-04-11T14:51:23.559Z,,,,,,,,,,,,,,,,53,,,,,,,,,,,,,,328.7219999708759,,response,,,,99,,,,,,,Space,keypress(Space),,,,,,,,---- -- ----- -- ------ - ------- --- ----------<br>------------- ------ ------ ---- ---- ------- close -- ----<br>-------- ------- -- ---------- --- - --- ----- ----- ----<br>---- --- --- ----- --- ---- ---- ------- ----- ---- -------<br>--- --- -- ----- -- --- ---- -- --- ---- -- ------ ------<br>--- ----- -- ----,178079.60500009358,178076.46999997087,177732.009,177740.6750000082,177747.748,178097.671,,15,close
screen,html.Screen,1_1_0_1_16,2021-04-11T14:51:23.972Z,,,,,,,,,,,,,,,,53,,,,,,,,,,,,,,392.9089999833086,,response,,,,99,,,,,,,Space,keypress(Space),,,,,,,,---- -- ----- -- ------ - ------- --- ----------<br>------------- ------ ------ ---- ---- ------- ----- to ----<br>-------- ------- -- ---------- --- - --- ----- ----- ----<br>---- --- --- ----- --- ---- ---- ------- ----- ---- -------<br>--- --- -- ----- -- --- ---- -- --- ---- -- ------ ------<br>--- ----- -- ----,178492.70000006072,178490.5799999833,178081.103,178081.4300000202,178097.671,178497.821,,16,to
screen,html.Screen,1_1_0_1_17,2021-04-11T14:51:24.337Z,,,,,,,,,,,,,,,,53,,,,,,,,,,,,,,357.6689999871887,,response,,,,99,,,,,,,Space,keypress(Space),,,,,,,,---- -- ----- -- ------ - ------- --- ----------<br>------------- ------ ------ ---- ---- ------- ----- -- your<br>-------- ------- -- ---------- --- - --- ----- ----- ----<br>---- --- --- ----- --- ---- ---- ------- ----- ---- -------<br>--- --- -- ----- -- --- ---- -- --- ---- -- ------ ------<br>--- ----- -- ----,178858.49000001326,178855.48999998719,178481.457,178493.58500004746,178497.821,178864.354,,17,your
screen,html.Screen,1_1_0_1_18,2021-04-11T14:51:24.690Z,,,,,,,,,,,,,,,,53,,,,,,,,,,,,,,343.3910000215401,,response,,,,99,,,,,,,Space,keypress(Space),,,,,,,,---- -- ----- -- ------ - ------- --- ----------<br>------------- ------ ------ ---- ---- ------- ----- -- ----<br>romantic ------- -- ---------- --- - --- ----- ----- ----<br>---- --- --- ----- --- ---- ---- ------- ----- ---- -------<br>--- --- -- ----- -- --- ---- -- --- ---- -- ------ ------<br>--- ----- -- ----,179210.8700000681,179207.74500002153,178848.094,178859.8650000058,178864.354,179248.026,,18,romantic
screen,html.Screen,1_1_0_1_19,2021-04-11T14:51:25.077Z,,,,,,,,,,,,,,,,53,,,,,,,,,,,,,,346.34400006436044,,response,,,,99,,,,,,,Space,keypress(Space),,,,,,,,---- -- ----- -- ------ - ------- --- ----------<br>------------- ------ ------ ---- ---- ------- ----- -- ----<br>-------- partner -- ---------- --- - --- ----- ----- ----<br>---- --- --- ----- --- ---- ---- ------- ----- ---- -------<br>--- --- -- ----- -- --- ---- -- --- ---- -- ------ ------<br>--- ----- -- ----,179597.66500000842,179594.37000006437,179231.514,179212.25000009872,179248.026,179614.198,,19,partner
screen,html.Screen,1_1_0_1_20,2021-04-11T14:51:25.400Z,,,,,,,,,,,,,,,,53,,,,,,,,,,,,,,303.571999941807,,response,,,,99,,,,,,,Space,keypress(Space),,,,,,,,---- -- ----- -- ------ - ------- --- ----------<br>------------- ------ ------ ---- ---- ------- ----- -- ----<br>-------- ------- is ---------- --- - --- ----- ----- ----<br>---- --- --- ----- --- ---- ---- ------- ----- ---- -------<br>--- --- -- ----- -- --- ---- -- --- ---- -- ------ ------<br>--- ----- -- ----,179921.21000005864,179917.7699999418,179598.307,179599.08999991603,179614.198,179930.72,,20,is
screen,html.Screen,1_1_0_1_21,2021-04-11T14:51:25.722Z,,,,,,,,,,,,,,,,53,,,,,,,,,,,,,,309.3699999774981,,response,,,,99,,,,,,,Space,keypress(Space),,,,,,,,---- -- ----- -- ------ - ------- --- ----------<br>------------- ------ ------ ---- ---- ------- ----- -- ----<br>-------- ------- -- paramount. --- - --- ----- ----- ----<br>---- --- --- ----- --- ---- ---- ------- ----- ---- -------<br>--- --- -- ----- -- --- ---- -- --- ---- -- ------ ------<br>--- ----- -- ----,180243.18500002846,180240.0899999775,179914.168,179923.02000010386,179930.72,180280.946,,21,paramount.
screen,html.Screen,1_1_0_1_22,2021-04-11T14:51:26.078Z,,,,,,,,,,,,,,,,53,,,,,,,,,,,,,,314.55400005402043,,response,,,,99,,,,,,,Space,keypress(Space),,,,,,,,---- -- ----- -- ------ - ------- --- ----------<br>------------- ------ ------ ---- ---- ------- ----- -- ----<br>-------- ------- -- ---------- But - --- ----- ----- ----<br>---- --- --- ----- --- ---- ---- ------- ----- ---- -------<br>--- --- -- ----- -- --- ---- -- --- ---- -- ------ ------<br>--- ----- -- ----,180599.14999990724,180595.50000005402,180264.709,180244.72499988042,180280.946,180614.292,,22,But
screen,html.Screen,1_1_0_1_23,2021-04-11T14:51:26.406Z,,,,,,,,,,,,,,,,53,,,,,,,,,,,,,,309.03799990323023,,response,,,,99,,,,,,,Space,keypress(Space),,,,,,,,---- -- ----- -- ------ - ------- --- ----------<br>------------- ------ ------ ---- ---- ------- ----- -- ----<br>-------- ------- -- ---------- --- a --- ----- ----- ----<br>---- --- --- ----- --- ---- ---- ------- ----- ---- -------<br>--- --- -- ----- -- --- ---- -- --- ---- -- ------ ------<br>--- ----- -- ----,180926.91499996,180923.32999990322,180597.739,180600.6050000433,180614.292,180964.012,,23,a
screen,html.Screen,1_1_0_1_24,2021-04-11T14:51:26.676Z,,,,,,,,,,,,,,,,53,,,,,,,,,,,,,,229.7080000975402,,response,,,,99,,,,,,,Space,keypress(Space),,,,,,,,---- -- ----- -- ------ - ------- --- ----------<br>------------- ------ ------ ---- ---- ------- ----- -- ----<br>-------- ------- -- ---------- --- - new ----- ----- ----<br>---- --- --- ----- --- ---- ---- ------- ----- ---- -------<br>--- --- -- ----- -- --- ---- -- --- ---- -- ------ ------<br>--- ----- -- ----,181196.71000004746,181193.72000009753,180947.829,180928.27500007115,180964.012,181213.757,,24,new
screen,html.Screen,1_1_0_1_25,2021-04-11T14:51:26.988Z,,,,,,,,,,,,,,,,53,,,,,,,,,,,,,,292.15300006532925,,response,,,,99,,,,,,,Space,keypress(Space),,,,,,,,---- -- ----- -- ------ - ------- --- ----------<br>------------- ------ ------ ---- ---- ------- ----- -- ----<br>-------- ------- -- ---------- --- - --- study ----- ----<br>---- --- --- ----- --- ---- ---- ------- ----- ---- -------<br>--- --- -- ----- -- --- ---- -- --- ---- -- ------ ------<br>--- ----- -- ----,181508.97499988787,181505.91000006534,181197.519,181198.15499987453,181213.757,181513.872,,25,study
screen,html.Screen,1_1_0_1_26,2021-04-11T14:51:27.336Z,,,,,,,,,,,,,,,,53,,,,,,,,,,,,,,340.35299990090425,,response,,,,99,,,,,,,Space,keypress(Space),,,,,,,,---- -- ----- -- ------ - ------- --- ----------<br>------------- ------ ------ ---- ---- ------- ----- -- ----<br>-------- ------- -- ---------- --- - --- ----- finds ----<br>---- --- --- ----- --- ---- ---- ------- ----- ---- -------<br>--- --- -- ----- -- --- ---- -- --- ---- -- ------ ------<br>--- ----- -- ----,181857.18500008807,181854.2249999009,181496.849,181510.35999995656,181513.872,181863.868,,26,finds
screen,html.Screen,1_1_0_1_27,2021-04-11T14:51:27.648Z,,,,,,,,,,,,,,,,53,,,,,,,,,,,,,,301.2469999816094,,response,,,,99,,,,,,,Space,keypress(Space),,,,,,,,---- -- ----- -- ------ - ------- --- ----------<br>------------- ------ ------ ---- ---- ------- ----- -- ----<br>-------- ------- -- ---------- --- - --- ----- ----- that<br>---- --- --- ----- --- ---- ---- ------- ----- ---- -------<br>--- --- -- ----- -- --- ---- -- --- ---- -- ------ ------<br>--- ----- -- ----,182168.67000004277,182165.1149999816,181847.62,181858.53999992833,181863.868,182180.747,,27,that
screen,html.Screen,1_1_0_1_28,2021-04-11T14:51:27.955Z,,,,,,,,,,,,,,,,53,,,,,,,,,,,,,,292.53800007278915,,response,,,,99,,,,,,,Space,keypress(Space),,,,,,,,---- -- ----- -- ------ - ------- --- ----------<br>------------- ------ ------ ---- ---- ------- ----- -- ----<br>-------- ------- -- ---------- --- - --- ----- ----- ----<br>it's --- --- ----- --- ---- ---- ------- ----- ---- -------<br>--- --- -- ----- -- --- ---- -- --- ---- -- ------ ------<br>--- ----- -- ----,182476.31500009447,182473.2850000728,182163.957,182170.10500002652,182180.747,182496.653,,28,it's
screen,html.Screen,1_1_0_1_29,2021-04-11T14:51:28.303Z,,,,,,,,,,,,,,,,53,,,,,,,,,,,,,,324.97699990397086,,response,,,,99,,,,,,,Space,keypress(Space),,,,,,,,---- -- ----- -- ------ - ------- --- ----------<br>------------- ------ ------ ---- ---- ------- ----- -- ----<br>-------- ------- -- ---------- --- - --- ----- ----- ----<br>---- not --- ----- --- ---- ---- ------- ----- ---- -------<br>--- --- -- ----- -- --- ---- -- --- ---- -- ------ ------<br>--- ----- -- ----,182824.47999995202,182821.62999990396,182464.108,182477.69000008702,182496.653,182830.159,,29,not
screen,html.Screen,1_1_0_1_30,2021-04-11T14:51:28.509Z,,,,,,,,,,,,,,,,53,,,,,,,,,,,,,,196.98599994179676,,response,,,,99,,,,,,,Space,keypress(Space),,,,,,,,---- -- ----- -- ------ - ------- --- ----------<br>------------- ------ ------ ---- ---- ------- ----- -- ----<br>-------- ------- -- ---------- --- - --- ----- ----- ----<br>---- --- how ----- --- ---- ---- ------- ----- ---- -------<br>--- --- -- ----- -- --- ---- -- --- ---- -- ------ ------<br>--- ----- -- ----,183030.21500003524,183027.1449999418,182813.771,182824.9899998773,182830.159,183047.182,,30,how
screen,html.Screen,1_1_0_1_31,2021-04-11T14:51:28.696Z,,,,,,,,,,,,,,,,53,,,,,,,,,,,,,,165.18800008113612,,response,,,,99,,,,,,,Space,keypress(Space),,,,,,,,---- -- ----- -- ------ - ------- --- ----------<br>------------- ------ ------ ---- ---- ------- ----- -- ----<br>-------- ------- -- ---------- --- - --- ----- ----- ----<br>---- --- --- close --- ---- ---- ------- ----- ---- -------<br>--- --- -- ----- -- --- ---- -- --- ---- -- ------ ------<br>--- ----- -- ----,183217.149999924,183212.37000008114,183030.35,183031.60999994725,183047.182,183230.33,,31,close
screen,html.Screen,1_1_0_1_32,2021-04-11T14:51:29.211Z,,,,,,,,,,,,,,,,53,,,,,,,,,,,,,,500.325000079436,,response,,,,99,,,,,,,Space,keypress(Space),,,,,,,,---- -- ----- -- ------ - ------- --- ----------<br>------------- ------ ------ ---- ---- ------- ----- -- ----<br>-------- ------- -- ---------- --- - --- ----- ----- ----<br>---- --- --- ----- you ---- ---- ------- ----- ---- -------<br>--- --- -- ----- -- --- ---- -- --- ---- -- ------ ------<br>--- ----- -- ----,183732.27500007488,183730.65500007942,183213.672,183218.7799999956,183230.33,183746.44,,32,you
screen,html.Screen,1_1_0_1_33,2021-04-11T14:51:29.471Z,,,,,,,,,,,,,,,,53,,,,,,,,,,,,,,242.01500010065502,,response,,,,99,,,,,,,Space,keypress(Space),,,,,,,,---- -- ----- -- ------ - ------- --- ----------<br>------------- ------ ------ ---- ---- ------- ----- -- ----<br>-------- ------- -- ---------- --- - --- ----- ----- ----<br>---- --- --- ----- --- feel ---- ------- ----- ---- -------<br>--- --- -- ----- -- --- ---- -- --- ---- -- ------ ------<br>--- ----- -- ----,183991.74500000663,183988.45500010066,183730.595,183732.75500000454,183746.44,183996.504,,33,feel
screen,html.Screen,1_1_0_1_34,2021-04-11T14:51:29.808Z,,,,,,,,,,,,,,,,53,,,,,,,,,,,,,,329.12600009396556,,response,,,,99,,,,,,,Space,keypress(Space),,,,,,,,---- -- ----- -- ------ - ------- --- ----------<br>------------- ------ ------ ---- ---- ------- ----- -- ----<br>-------- ------- -- ---------- --- - --- ----- ----- ----<br>---- --- --- ----- --- ---- that ------- ----- ---- -------<br>--- --- -- ----- -- --- ---- -- --- ---- -- ------ ------<br>--- ----- -- ----,184329.0299999062,184325.63000009395,183980.326,183992.9949999787,183996.504,184346.366,,34,that
screen,html.Screen,1_1_0_1_35,2021-04-11T14:51:30.220Z,,,,,,,,,,,,,,,,53,,,,,,,,,,,,,,391.2240000333695,,response,,,,99,,,,,,,Space,keypress(Space),,,,,,,,---- -- ----- -- ------ - ------- --- ----------<br>------------- ------ ------ ---- ---- ------- ----- -- ----<br>-------- ------- -- ---------- --- - --- ----- ----- ----<br>---- --- --- ----- --- ---- ---- matters ----- ---- -------<br>--- --- -- ----- -- --- ---- -- --- ---- -- ------ ------<br>--- ----- -- ----,184741.1799998954,184737.59000003338,184329.917,184330.33500006422,184346.366,184746.287,,35,matters
screen,html.Screen,1_1_0_1_36,2021-04-11T14:51:30.636Z,,,,,,,,,,,,,,,,53,,,,,,,,,,,,,,407.40300006465986,,response,,,,99,,,,,,,Space,keypress(Space),,,,,,,,"---- -- ----- -- ------ - ------- --- ----------<br>------------- ------ ------ ---- ---- ------- ----- -- ----<br>-------- ------- -- ---------- --- - --- ----- ----- ----<br>---- --- --- ----- --- ---- ---- ------- most, ---- -------<br>--- --- -- ----- -- --- ---- -- --- ---- -- ------ ------<br>--- ----- -- ----",185156.6649999004,185153.69000006467,184729.983,184742.41499998607,184746.287,185163.249,,36,"most,"
screen,html.Screen,1_1_0_1_37,2021-04-11T14:51:31.060Z,,,,,,,,,,,,,,,,53,,,,,,,,,,,,,,414.585999887262,,response,,,,99,,,,,,,Space,keypress(Space),,,,,,,,---- -- ----- -- ------ - ------- --- ----------<br>------------- ------ ------ ---- ---- ------- ----- -- ----<br>-------- ------- -- ---------- --- - --- ----- ----- ----<br>---- --- --- ----- --- ---- ---- ------- ----- it's -------<br>--- --- -- ----- -- --- ---- -- --- ---- -- ------ ------<br>--- ----- -- ----,185580.80999995582,185577.83499988727,185146.766,185157.97500009649,185163.249,185596.192,,37,it's
screen,html.Screen,1_1_0_1_38,2021-04-11T14:51:31.439Z,,,,,,,,,,,,,,,,53,,,,,,,,,,,,,,360.2529999015678,,response,,,,99,,,,,,,Space,keypress(Space),,,,,,,,---- -- ----- -- ------ - ------- --- ----------<br>------------- ------ ------ ---- ---- ------- ----- -- ----<br>-------- ------- -- ---------- --- - --- ----- ----- ----<br>---- --- --- ----- --- ---- ---- ------- ----- ---- whether<br>--- --- -- ----- -- --- ---- -- --- ---- -- ------ ------<br>--- ----- -- ----,185959.56000010483,185956.44499990158,185580.078,185582.0750000421,185596.192,185995.981,,38,whether
screen,html.Screen,1_1_0_1_39,2021-04-11T14:51:31.811Z,,,,,,,,,,,,,,,,53,,,,,,,,,,,,,,332.9289999237808,,response,,,,99,,,,,,,Space,keypress(Space),,,,,,,,---- -- ----- -- ------ - ------- --- ----------<br>------------- ------ ------ ---- ---- ------- ----- -- ----<br>-------- ------- -- ---------- --- - --- ----- ----- ----<br>---- --- --- ----- --- ---- ---- ------- ----- ---- -------<br>you --- -- ----- -- --- ---- -- --- ---- -- ------ ------<br>--- ----- -- ----,186332.11000007577,186328.90999992378,185980.079,185960.85499995388,185995.981,186346.271,,39,you
screen,html.Screen,1_1_0_1_40,2021-04-11T14:51:32.225Z,,,,,,,,,,,,,,,,53,,,,,,,,,,,,,,396.3340000358294,,response,,,,99,,,,,,,Space,keypress(Space),,,,,,,,---- -- ----- -- ------ - ------- --- ----------<br>------------- ------ ------ ---- ---- ------- ----- -- ----<br>-------- ------- -- ---------- --- - --- ----- ----- ----<br>---- --- --- ----- --- ---- ---- ------- ----- ---- -------<br>--- are -- ----- -- --- ---- -- --- ---- -- ------ ------<br>--- ----- -- ----,186746.25999992713,186742.60500003584,186329.54,186333.3799999673,186346.271,186762.316,,40,are
screen,html.Screen,1_1_0_1_41,2021-04-11T14:51:32.564Z,,,,,,,,,,,,,,,,53,,,,,,,,,,,,,,319.74399992788676,,response,,,,99,,,,,,,Space,keypress(Space),,,,,,,,---- -- ----- -- ------ - ------- --- ----------<br>------------- ------ ------ ---- ---- ------- ----- -- ----<br>-------- ------- -- ---------- --- - --- ----- ----- ----<br>---- --- --- ----- --- ---- ---- ------- ----- ---- -------<br>--- --- as ----- -- --- ---- -- --- ---- -- ------ ------<br>--- ----- -- ----,187085.35000006668,187082.05999992788,186746.537,186747.53000005148,186762.316,187096.191,,41,as
screen,html.Screen,1_1_0_1_42,2021-04-11T14:51:32.880Z,,,,,,,,,,,,,,,,53,,,,,,,,,,,,,,301.7389999773586,,response,,,,99,,,,,,,Space,keypress(Space),,,,,,,,---- -- ----- -- ------ - ------- --- ----------<br>------------- ------ ------ ---- ---- ------- ----- -- ----<br>-------- ------- -- ---------- --- - --- ----- ----- ----<br>---- --- --- ----- --- ---- ---- ------- ----- ---- -------<br>--- --- -- close -- --- ---- -- --- ---- -- ------ ------<br>--- ----- -- ----,187400.9499999229,187397.92999997735,187079.065,187086.6499999538,187096.191,187428.885,,42,close
screen,html.Screen,1_1_0_1_43,2021-04-11T14:51:33.174Z,,,,,,,,,,,,,,,,53,,,,,,,,,,,,,,261.854999990901,,response,,,,99,,,,,,,Space,keypress(Space),,,,,,,,---- -- ----- -- ------ - ------- --- ----------<br>------------- ------ ------ ---- ---- ------- ----- -- ----<br>-------- ------- -- ---------- --- - --- ----- ----- ----<br>---- --- --- ----- --- ---- ---- ------- ----- ---- -------<br>--- --- -- ----- as --- ---- -- --- ---- -- ------ ------<br>--- ----- -- ----,187695.1949999202,187690.7399999909,187396.117,187402.34000002965,187428.885,187712.228,,43,as
screen,html.Screen,1_1_0_1_44,2021-04-11T14:51:33.481Z,,,,,,,,,,,,,,,,53,,,,,,,,,,,,,,288.47199997503776,,response,,,,99,,,,,,,Space,keypress(Space),,,,,,,,---- -- ----- -- ------ - ------- --- ----------<br>------------- ------ ------ ---- ---- ------- ----- -- ----<br>-------- ------- -- ---------- --- - --- ----- ----- ----<br>---- --- --- ----- --- ---- ---- ------- ----- ---- -------<br>--- --- -- ----- -- you ---- -- --- ---- -- ------ ------<br>--- ----- -- ----,188002.33000004664,188000.69999997504,187695.872,187696.40000001527,187712.228,188012.354,,44,you
screen,html.Screen,1_1_0_1_45,2021-04-11T14:51:33.815Z,,,,,,,,,,,,,,,,53,,,,,,,,,,,,,,320.17099997616606,,response,,,,99,,,,,,,Space,keypress(Space),,,,,,,,---- -- ----- -- ------ - ------- --- ----------<br>------------- ------ ------ ---- ---- ------- ----- -- ----<br>-------- ------- -- ---------- --- - --- ----- ----- ----<br>---- --- --- ----- --- ---- ---- ------- ----- ---- -------<br>--- --- -- ----- -- --- want -- --- ---- -- ------ ------<br>--- ----- -- ----,188335.55499999784,188332.52499997616,187995.884,188002.82999989577,188012.354,188345.793,,45,want
screen,html.Screen,1_1_0_1_46,2021-04-11T14:51:34.183Z,,,,,,,,,,,,,,,,53,,,,,,,,,,,,,,355.1370000499883,,response,,,,99,,,,,,,Space,keypress(Space),,,,,,,,---- -- ----- -- ------ - ------- --- ----------<br>------------- ------ ------ ---- ---- ------- ----- -- ----<br>-------- ------- -- ---------- --- - --- ----- ----- ----<br>---- --- --- ----- --- ---- ---- ------- ----- ---- -------<br>--- --- -- ----- -- --- ---- to --- ---- -- ------ ------<br>--- ----- -- ----,188704.31499998085,188700.93000005,188329.47,188336.72000002116,188345.793,188711.965,,46,to
screen,html.Screen,1_1_0_1_47,2021-04-11T14:51:34.478Z,,,,,,,,,,,,,,,,53,,,,,,,,,,,,,,284.629999916855,,response,,,,99,,,,,,,Space,keypress(Space),,,,,,,,"---- -- ----- -- ------ - ------- --- ----------<br>------------- ------ ------ ---- ---- ------- ----- -- ----<br>-------- ------- -- ---------- --- - --- ----- ----- ----<br>---- --- --- ----- --- ---- ---- ------- ----- ---- -------<br>--- --- -- ----- -- --- ---- -- be, ---- -- ------ ------<br>--- ----- -- ----",188998.87500004843,188996.59499991685,188696.584,188705.5649999529,188711.965,189011.975,,47,"be,"
screen,html.Screen,1_1_0_1_48,2021-04-11T14:51:34.810Z,,,,,,,,,,,,,,,,53,,,,,,,,,,,,,,315.7000000659318,,response,,,,99,,,,,,,Space,keypress(Space),,,,,,,,---- -- ----- -- ------ - ------- --- ----------<br>------------- ------ ------ ---- ---- ------- ----- -- ----<br>-------- ------- -- ---------- --- - --- ----- ----- ----<br>---- --- --- ----- --- ---- ---- ------- ----- ---- -------<br>--- --- -- ----- -- --- ---- -- --- even -- ------ ------<br>--- ----- -- ----,189330.8749999851,189327.67500006594,188995.117,188999.7250000015,189011.975,189345.711,,48,even
screen,html.Screen,1_1_0_1_49,2021-04-11T14:51:35.119Z,,,,,,,,,,,,,,,,53,,,,,,,,,,,,,,291.6939999285387,,response,,,,99,,,,,,,Space,keypress(Space),,,,,,,,---- -- ----- -- ------ - ------- --- ----------<br>------------- ------ ------ ---- ---- ------- ----- -- ----<br>-------- ------- -- ---------- --- - --- ----- ----- ----<br>---- --- --- ----- --- ---- ---- ------- ----- ---- -------<br>--- --- -- ----- -- --- ---- -- --- ---- if ------ ------<br>--- ----- -- ----,189640.35500003956,189637.40499992855,189328.976,189332.0150000509,189345.711,189645.156,,49,if
screen,html.Screen,1_1_0_1_50,2021-04-11T14:51:35.397Z,,,,,,,,,,,,,,,,53,,,,,,,,,,,,,,269.28900000217254,,response,,,,99,,,,,,,Space,keypress(Space),,,,,,,,---- -- ----- -- ------ - ------- --- ----------<br>------------- ------ ------ ---- ---- ------- ----- -- ----<br>-------- ------- -- ---------- --- - --- ----- ----- ----<br>---- --- --- ----- --- ---- ---- ------- ----- ---- -------<br>--- --- -- ----- -- --- ---- -- --- ---- -- that's ------<br>--- ----- -- ----,189917.7399999462,189914.44500000216,189629.147,189641.47999999113,189645.156,189928.506,,50,that's
screen,html.Screen,1_1_0_1_51,2021-04-11T14:51:35.661Z,,,,,,,,,,,,,,,,53,,,,,,,,,,,,,,251.82899992453167,,response,,,,99,,,,,,,Space,keypress(Space),,,,,,,,---- -- ----- -- ------ - ------- --- ----------<br>------------- ------ ------ ---- ---- ------- ----- -- ----<br>-------- ------- -- ---------- --- - --- ----- ----- ----<br>---- --- --- ----- --- ---- ---- ------- ----- ---- -------<br>--- --- -- ----- -- --- ---- -- --- ---- -- ------ really<br>--- ----- -- ----,190181.64000008255,190180.33499992453,189912.585,189918.92999992706,189928.506,190194.773,,51,really
screen,html.Screen,1_1_0_1_52,2021-04-11T14:51:35.957Z,,,,,,,,,,,,,,,,53,,,,,,,,,,,,,,279.84199995553354,,response,,,,99,,,,,,,Space,keypress(Space),,,,,,,,---- -- ----- -- ------ - ------- --- ----------<br>------------- ------ ------ ---- ---- ------- ----- -- ----<br>-------- ------- -- ---------- --- - --- ----- ----- ----<br>---- --- --- ----- --- ---- ---- ------- ----- ---- -------<br>--- --- -- ----- -- --- ---- -- --- ---- -- ------ ------<br>not ----- -- ----,190477.75999992155,190474.61499995552,190178.983,190181.910000043,190194.773,190494.892,,52,not
screen,html.Screen,1_1_0_1_53,2021-04-11T14:51:36.255Z,,,,,,,,,,,,,,,,53,,,,,,,,,,,,,,277.8030000505969,,response,,,,99,,,,,,,Space,keypress(Space),,,,,,,,---- -- ----- -- ------ - ------- --- ----------<br>------------- ------ ------ ---- ---- ------- ----- -- ----<br>-------- ------- -- ---------- --- - --- ----- ----- ----<br>---- --- --- ----- --- ---- ---- ------- ----- ---- -------<br>--- --- -- ----- -- --- ---- -- --- ---- -- ------ ------<br>--- close -- ----,190775.7200000342,190772.6950000506,190478.185,190479.0000000503,190494.892,190794.841,,53,close
screen,html.Screen,1_1_0_1_54,2021-04-11T14:51:36.540Z,,,,,,,,,,,,,,,,53,,,,,,,,,,,,,,263.1090000458353,,response,,,,99,,,,,,,Space,keypress(Space),,,,,,,,---- -- ----- -- ------ - ------- --- ----------<br>------------- ------ ------ ---- ---- ------- ----- -- ----<br>-------- ------- -- ---------- --- - --- ----- ----- ----<br>---- --- --- ----- --- ---- ---- ------- ----- ---- -------<br>--- --- -- ----- -- --- ---- -- --- ---- -- ------ ------<br>--- ----- at ----,191060.9949999489,191057.95000004582,190778.443,190776.94500004873,190794.841,191078.325,,54,at
screen,html.Screen,1_1_0_1_55,2021-04-11T14:51:36.876Z,,,,,,,,,,,,,,,,53,,,,,,,,,,,,,,315.24999987817137,,response,,,,99,,,,,,,Space,keypress(Space),,,,,,,,---- -- ----- -- ------ - ------- --- ----------<br>------------- ------ ------ ---- ---- ------- ----- -- ----<br>-------- ------- -- ---------- --- - --- ----- ----- ----<br>---- --- --- ----- --- ---- ---- ------- ----- ---- -------<br>--- --- -- ----- -- --- ---- -- --- ---- -- ------ ------<br>--- ----- -- all.,191396.57999994233,191393.57499987818,191061.522,191062.12499993853,191078.325,191494.592,,55,all.
Item 99,flow.Loop,1_1_0_1,2021-04-11T14:51:36.878Z,,,,,,,,,,,,,,,,,,,,,,,,,,,,,,20243.840999878186,,completion,,,,,A,,,,,,,,,,,silence,,,,,191399.1499999538,191393.57499987818,170933.149,170938.02000000142,171149.734,191494.592,,,
Question 1,html.Screen,1_1_0_2,2021-04-11T14:51:41.100Z,,,,,,,,,,,,,,,,,,,,,,,,,,,true,FALSE,,4124.222999936144,,response,,,,99,A,,,,,,FALSE,click #choice-2,,,,silence,,,,,195621.28499988467,195618.81499993615,191395.323,191400.55999998003,191494.592,195643.647,,,
Question 2,html.Screen,1_1_0_3,2021-04-11T14:51:48.396Z,,,,,,,,,,,,,,,,,,,,,,,,,,,true,TRUE,,7271.557999968412,,response,,,,99,A,,,,,,TRUE,click #choice-1,,,,silence,,,,,202917.40999999456,202915.2049999684,195610.348,195621.87499995343,195643.647,202925.322,,,
Item 99,flow.Sequence,1_1_0,2021-04-11T14:51:48.397Z,,,,,,,,,,,,,,,,,,,,,,,,,,,,,,41963.5399999684,,completion,,,,,,,,,,,,,,,,,,,,,202917.87000000477,202915.2049999684,160918.238,160930.75999990106,160951.665,202925.322,,,
Holding screen,html.Screen,1_1_1_0,2021-04-11T14:51:58.389Z,,,,,,,,,,,,,,,,,,,,,,,,,,,,,,10015.026000000013,,timeout,,,,,,,,,,,,,,,,,,,,,212910.1050000172,212907.22,202908.676,202918.18500007503,202925.322,212940.348,,,
screen,html.Screen,1_1_1_1_0,2021-04-11T14:51:59.127Z,,,,,,,,,,,,,,,,54,,,,,,,,,,,,,,704.1320000172127,,response,,,,100,,,,,,,Space,keypress(Space),,,,,,,,At --- ---- --- ------ ----- ------- ---- -- --- ------- --<br>------- ---------- ------ -- ----- -- ----- -- ---- ------<br>--- ----- --- --- ------ -------- ----- --- ------ ----- --<br>----- ----- ---------- --- --- ------ ------ ---- -- ------<br>------- --- ------ ----- --- ---- ------- -- ---- --- --<br>------- ------,213647.50500000082,213644.4800000172,212907.22,212911.85500007123,212940.348,213656.581,,0,At
screen,html.Screen,1_1_1_1_1,2021-04-11T14:51:59.991Z,,,,,,,,,,,,,,,,54,,,,,,,,,,,,,,852.9489999229554,,response,,,,100,,,,,,,Space,keypress(Space),,,,,,,,-- the ---- --- ------ ----- ------- ---- -- --- ------- --<br>------- ---------- ------ -- ----- -- ----- -- ---- ------<br>--- ----- --- --- ------ -------- ----- --- ------ ----- --<br>----- ----- ---------- --- --- ------ ------ ---- -- ------<br>------- --- ------ ----- --- ---- ------- -- ---- --- --<br>------- ------,214512.29500002228,214509.52999992296,213640.012,213648.71499990113,213656.581,214522.725,,1,the
screen,html.Screen,1_1_1_1_2,2021-04-11T14:52:00.650Z,,,,,,,,,,,,,,,,54,,,,,,,,,,,,,,644.9249999593885,,response,,,,100,,,,,,,Space,keypress(Space),,,,,,,,-- --- time --- ------ ----- ------- ---- -- --- ------- --<br>------- ---------- ------ -- ----- -- ----- -- ---- ------<br>--- ----- --- --- ------ -------- ----- --- ------ ----- --<br>----- ----- ---------- --- --- ------ ------ ---- -- ------<br>------- --- ------ ----- --- ---- ------- -- ---- --- --<br>------- ------,215170.5700000748,215167.6499999594,214506.037,214513.47499992698,214522.725,215189.414,,2,time
screen,html.Screen,1_1_1_1_3,2021-04-11T14:52:00.961Z,,,,,,,,,,,,,,,,54,,,,,,,,,,,,,,289.866000086884,,response,,,,100,,,,,,,Space,keypress(Space),,,,,,,,-- --- ---- the ------ ----- ------- ---- -- --- ------- --<br>------- ---------- ------ -- ----- -- ----- -- ---- ------<br>--- ----- --- --- ------ -------- ----- --- ------ ----- --<br>----- ----- ---------- --- --- ------ ------ ---- -- ------<br>------- --- ------ ----- --- ---- ------- -- ---- --- --<br>------- ------,215482.27500007488,215479.28000008687,215172.629,215171.7199999839,215189.414,215489.317,,3,the
screen,html.Screen,1_1_1_1_4,2021-04-11T14:52:01.305Z,,,,,,,,,,,,,,,,54,,,,,,,,,,,,,,333.5629998760123,,response,,,,100,,,,,,,Space,keypress(Space),,,,,,,,-- --- ---- --- French ----- ------- ---- -- --- ------- --<br>------- ---------- ------ -- ----- -- ----- -- ---- ------<br>--- ----- --- --- ------ -------- ----- --- ------ ----- --<br>----- ----- ---------- --- --- ------ ------ ---- -- ------<br>------- --- ------ ----- --- ---- ------- -- ---- --- --<br>------- ------,215825.63000009395,215822.87999987602,215472.953,215483.46000001766,215489.317,215839.343,,4,French
screen,html.Screen,1_1_1_1_5,2021-04-11T14:52:01.620Z,,,,,,,,,,,,,,,,54,,,,,,,,,,,,,,298.55699997243937,,response,,,,100,,,,,,,Space,keypress(Space),,,,,,,,-- --- ---- --- ------ crown ------- ---- -- --- ------- --<br>------- ---------- ------ -- ----- -- ----- -- ---- ------<br>--- ----- --- --- ------ -------- ----- --- ------ ----- --<br>----- ----- ---------- --- --- ------ ------ ---- -- ------<br>------- --- ------ ----- --- ---- ------- -- ---- --- --<br>------- ------,216140.8849998843,216137.89999997243,215822.674,215826.80999999866,215839.343,216156.273,,5,crown
screen,html.Screen,1_1_1_1_6,2021-04-11T14:52:02.123Z,,,,,,,,,,,,,,,,54,,,,,,,,,,,,,,485.231999948679,,response,,,,100,,,,,,,Space,keypress(Space),,,,,,,,-- --- ---- --- ------ ----- secured ---- -- --- ------- --<br>------- ---------- ------ -- ----- -- ----- -- ---- ------<br>--- ----- --- --- ------ -------- ----- --- ------ ----- --<br>----- ----- ---------- --- --- ------ ------ ---- -- ------<br>------- --- ------ ----- --- ---- ------- -- ---- --- --<br>------- ------,216644.32500000112,216641.50499994867,216139.456,216142.08999997936,216156.273,216655.971,,6,secured
screen,html.Screen,1_1_1_1_7,2021-04-11T14:52:02.457Z,,,,,,,,,,,,,,,,54,,,,,,,,,,,,,,320.12900008718134,,response,,,,100,,,,,,,Space,keypress(Space),,,,,,,,-- --- ---- --- ------ ----- ------- much -- --- ------- --<br>------- ---------- ------ -- ----- -- ----- -- ---- ------<br>--- ----- --- --- ------ -------- ----- --- ------ ----- --<br>----- ----- ---------- --- --- ------ ------ ---- -- ------<br>------- --- ------ ----- --- ---- ------- -- ---- --- --<br>------- ------,216978.39999990538,216976.10000008717,216639.508,216645.47000010498,216655.971,216988.928,,7,much
screen,html.Screen,1_1_1_1_8,2021-04-11T14:52:02.738Z,,,,,,,,,,,,,,,,54,,,,,,,,,,,,,,266.94700003165053,,response,,,,100,,,,,,,Space,keypress(Space),,,,,,,,-- --- ---- --- ------ ----- ------- ---- of --- ------- --<br>------- ---------- ------ -- ----- -- ----- -- ---- ------<br>--- ----- --- --- ------ -------- ----- --- ------ ----- --<br>----- ----- ---------- --- --- ------ ------ ---- -- ------<br>------- --- ------ ----- --- ---- ------- -- ---- --- --<br>------- ------,217259.19499993324,217255.87500003166,216972.898,216979.22999993898,216988.928,217272.613,,8,of
screen,html.Screen,1_1_1_1_9,2021-04-11T14:52:03.031Z,,,,,,,,,,,,,,,,54,,,,,,,,,,,,,,276.146999917808,,response,,,,100,,,,,,,Space,keypress(Space),,,,,,,,-- --- ---- --- ------ ----- ------- ---- -- its ------- --<br>------- ---------- ------ -- ----- -- ----- -- ---- ------<br>--- ----- --- --- ------ -------- ----- --- ------ ----- --<br>----- ----- ---------- --- --- ------ ------ ---- -- ------<br>------- --- ------ ----- --- ---- ------- -- ---- --- --<br>------- ------,217551.72000010498,217548.75999991782,217256.293,217260.4000000283,217272.613,217588.848,,9,its
screen,html.Screen,1_1_1_1_10,2021-04-11T14:52:03.311Z,,,,,,,,,,,,,,,,54,,,,,,,,,,,,,,240.3769999940414,,response,,,,100,,,,,,,Space,keypress(Space),,,,,,,,-- --- ---- --- ------ ----- ------- ---- -- --- revenue --<br>------- ---------- ------ -- ----- -- ----- -- ---- ------<br>--- ----- --- --- ------ -------- ----- --- ------ ----- --<br>----- ----- ---------- --- --- ------ ------ ---- -- ------<br>------- --- ------ ----- --- ---- ------- -- ---- --- --<br>------- ------,217832.23500009626,217829.22499999404,217576.9,217552.91499989107,217588.848,217838.711,,10,revenue
screen,html.Screen,1_1_1_1_11,2021-04-11T14:52:03.650Z,,,,,,,,,,,,,,,,54,,,,,,,,,,,,,,331.0890000323998,,response,,,,100,,,,,,,Space,keypress(Space),,,,,,,,-- --- ---- --- ------ ----- ------- ---- -- --- ------- by<br>------- ---------- ------ -- ----- -- ----- -- ---- ------<br>--- ----- --- --- ------ -------- ----- --- ------ ----- --<br>----- ----- ---------- --- --- ------ ------ ---- -- ------<br>------- --- ------ ----- --- ---- ------- -- ---- --- --<br>------- ------,218171.15000006743,218169.8000000324,217822.742,217833.40499992482,217838.711,218189.436,,11,by
screen,html.Screen,1_1_1_1_12,2021-04-11T14:52:03.926Z,,,,,,,,,,,,,,,,54,,,,,,,,,,,,,,254.03400005656295,,response,,,,100,,,,,,,Space,keypress(Space),,,,,,,,-- --- ---- --- ------ ----- ------- ---- -- --- ------- --<br>issuing ---------- ------ -- ----- -- ----- -- ---- ------<br>--- ----- --- --- ------ -------- ----- --- ------ ----- --<br>----- ----- ---------- --- --- ------ ------ ---- -- ------<br>------- --- ------ ----- --- ---- ------- -- ---- --- --<br>------- ------,218446.53499987908,218443.47000005655,218156.178,218171.430000104,218189.436,218455.587,,12,issuing
screen,html.Screen,1_1_1_1_13,2021-04-11T14:52:04.203Z,,,,,,,,,,,,,,,,54,,,,,,,,,,,,,,265.38299990753876,,response,,,,100,,,,,,,Space,keypress(Space),,,,,,,,-- --- ---- --- ------ ----- ------- ---- -- --- ------- --<br>------- government ------ -- ----- -- ----- -- ---- ------<br>--- ----- --- --- ------ -------- ----- --- ------ ----- --<br>----- ----- ---------- --- --- ------ ------ ---- -- ------<br>------- --- ------ ----- --- ---- ------- -- ---- --- --<br>------- ------,218723.9099999424,218720.96999990754,218438.772,218447.6999999024,218455.587,218738.628,,13,government
screen,html.Screen,1_1_1_1_14,2021-04-11T14:52:04.516Z,,,,,,,,,,,,,,,,54,,,,,,,,,,,,,,294.7219999251247,,response,,,,100,,,,,,,Space,keypress(Space),,,,,,,,-- --- ---- --- ------ ----- ------- ---- -- --- ------- --<br>------- ---------- bonds. -- ----- -- ----- -- ---- ------<br>--- ----- --- --- ------ -------- ----- --- ------ ----- --<br>----- ----- ---------- --- --- ------ ------ ---- -- ------<br>------- --- ------ ----- --- ---- ------- -- ---- --- --<br>------- ------,219036.69500001706,219033.34999992512,218722.469,218725.06499988958,218738.628,219054.995,,14,bonds.
screen,html.Screen,1_1_1_1_15,2021-04-11T14:52:04.890Z,,,,,,,,,,,,,,,,54,,,,,,,,,,,,,,353.1850000276463,,response,,,,100,,,,,,,Space,keypress(Space),,,,,,,,-- --- ---- --- ------ ----- ------- ---- -- --- ------- --<br>------- ---------- ------ In ----- -- ----- -- ---- ------<br>--- ----- --- --- ------ -------- ----- --- ------ ----- --<br>----- ----- ---------- --- --- ------ ------ ---- -- ------<br>------- --- ------ ----- --- ---- ------- -- ---- --- --<br>------- ------,219411.1200000625,219408.18000002764,219038.788,219037.8699998837,219054.995,219422.048,,15,In
screen,html.Screen,1_1_1_1_16,2021-04-11T14:52:05.207Z,,,,,,,,,,,,,,,,54,,,,,,,,,,,,,,302.6819998998544,,response,,,,100,,,,,,,Space,keypress(Space),,,,,,,,"-- --- ---- --- ------ ----- ------- ---- -- --- ------- --<br>------- ---------- ------ -- 1727, -- ----- -- ---- ------<br>--- ----- --- --- ------ -------- ----- --- ------ ----- --<br>----- ----- ---------- --- --- ------ ------ ---- -- ------<br>------- --- ------ ----- --- ---- ------- -- ---- --- --<br>------- ------",219727.734999964,219724.72999989986,219405.444,219412.28999989107,219422.048,219738.731,,16,"1727,"
screen,html.Screen,1_1_1_1_17,2021-04-11T14:52:05.697Z,,,,,,,,,,,,,,,,54,,,,,,,,,,,,,,477.79900009246194,,response,,,,100,,,,,,,Space,keypress(Space),,,,,,,,-- --- ---- --- ------ ----- ------- ---- -- --- ------- --<br>------- ---------- ------ -- ----- in ----- -- ---- ------<br>--- ----- --- --- ------ -------- ----- --- ------ ----- --<br>----- ----- ---------- --- --- ------ ------ ---- -- ------<br>------- --- ------ ----- --- ---- ------- -- ---- --- --<br>------- ------,220217.96000003815,220216.53000009246,219721.636,219728.9499999024,219738.731,220221.55,,17,in
screen,html.Screen,1_1_1_1_18,2021-04-11T14:52:06.155Z,,,,,,,,,,,,,,,,54,,,,,,,,,,,,,,450.7550000146148,,response,,,,100,,,,,,,Space,keypress(Space),,,,,,,,-- --- ---- --- ------ ----- ------- ---- -- --- ------- --<br>------- ---------- ------ -- ----- -- order -- ---- ------<br>--- ----- --- --- ------ -------- ----- --- ------ ----- --<br>----- ----- ---------- --- --- ------ ------ ---- -- ------<br>------- --- ------ ----- --- ---- ------- -- ---- --- --<br>------- ------,220675.58500007726,220672.3050000146,220205.967,220218.22999999858,220221.55,220688.101,,18,order
screen,html.Screen,1_1_1_1_19,2021-04-11T14:52:07.447Z,,,,,,,,,,,,,,,,54,,,,,,,,,,,,,,1273.899000057747,,response,,,,100,,,,,,,Space,keypress(Space),,,,,,,,-- --- ---- --- ------ ----- ------- ---- -- --- ------- --<br>------- ---------- ------ -- ----- -- ----- to ---- ------<br>--- ----- --- --- ------ -------- ----- --- ------ ----- --<br>----- ----- ---------- --- --- ------ ------ ---- -- ------<br>------- --- ------ ----- --- ---- ------- -- ---- --- --<br>------- ------,221965.00000008382,221962.00000005774,220671.644,220676.83500004932,220688.101,221971.349,,19,to
screen,html.Screen,1_1_1_1_20,2021-04-11T14:52:07.945Z,,,,,,,,,,,,,,,,54,,,,,,,,,,,,,,489.44599996268516,,response,,,,100,,,,,,,Space,keypress(Space),,,,,,,,-- --- ---- --- ------ ----- ------- ---- -- --- ------- --<br>------- ---------- ------ -- ----- -- ----- -- save ------<br>--- ----- --- --- ------ -------- ----- --- ------ ----- --<br>----- ----- ---------- --- --- ------ ------ ---- -- ------<br>------- --- ------ ----- --- ---- ------- -- ---- --- --<br>------- ------,222462.360000005,222460.79499996267,221955.033,221966.19500010274,221971.349,222470.841,,20,save
screen,html.Screen,1_1_1_1_21,2021-04-11T14:52:08.336Z,,,,,,,,,,,,,,,,54,,,,,,,,,,,,,,379.75399996715714,,response,,,,100,,,,,,,Space,keypress(Space),,,,,,,,"-- --- ---- --- ------ ----- ------- ---- -- --- ------- --<br>------- ---------- ------ -- ----- -- ----- -- ---- money,<br>--- ----- --- --- ------ -------- ----- --- ------ ----- --<br>----- ----- ---------- --- --- ------ ------ ---- -- ------<br>------- --- ------ ----- --- ---- ------- -- ---- --- --<br>------- ------",222853.7500000093,222850.59499996714,222455.107,222462.77000010014,222470.841,222870.913,,21,"money,"
screen,html.Screen,1_1_1_1_22,2021-04-11T14:52:08.800Z,,,,,,,,,,,,,,,,54,,,,,,,,,,,,,,444.2220000407542,,response,,,,100,,,,,,,Space,keypress(Space),,,,,,,,-- --- ---- --- ------ ----- ------- ---- -- --- ------- --<br>------- ---------- ------ -- ----- -- ----- -- ---- ------<br>the ----- --- --- ------ -------- ----- --- ------ ----- --<br>----- ----- ---------- --- --- ------ ------ ---- -- ------<br>------- --- ------ ----- --- ---- ------- -- ---- --- --<br>------- ------,223318.1400001049,223315.13500004075,222854.592,222854.87499996088,222870.913,223337.547,,22,the
screen,html.Screen,1_1_1_1_23,2021-04-11T14:52:09.185Z,,,,,,,,,,,,,,,,54,,,,,,,,,,,,,,362.36299996663,,response,,,,100,,,,,,,Space,keypress(Space),,,,,,,,-- --- ---- --- ------ ----- ------- ---- -- --- ------- --<br>------- ---------- ------ -- ----- -- ----- -- ---- ------<br>--- state --- --- ------ -------- ----- --- ------ ----- --<br>----- ----- ---------- --- --- ------ ------ ---- -- ------<br>------- --- ------ ----- --- ---- ------- -- ---- --- --<br>------- ------,223702.9699999839,223699.90999996662,223321.109,223319.334999891,223337.547,223721.049,,23,state
screen,html.Screen,1_1_1_1_24,2021-04-11T14:52:09.563Z,,,,,,,,,,,,,,,,54,,,,,,,,,,,,,,356.7460000483552,,response,,,,100,,,,,,,Space,keypress(Space),,,,,,,,-- --- ---- --- ------ ----- ------- ---- -- --- ------- --<br>------- ---------- ------ -- ----- -- ----- -- ---- ------<br>--- ----- cut --- ------ -------- ----- --- ------ ----- --<br>----- ----- ---------- --- --- ------ ------ ---- -- ------<br>------- --- ------ ----- --- ---- ------- -- ---- --- --<br>------- ------,224080.82000003196,224077.79500004835,223704.721,223704.13500000723,223721.049,224087.767,,24,cut
screen,html.Screen,1_1_1_1_25,2021-04-11T14:52:10.276Z,,,,,,,,,,,,,,,,54,,,,,,,,,,,,,,703.4880000473931,,response,,,,100,,,,,,,Space,keypress(Space),,,,,,,,-- --- ---- --- ------ ----- ------- ---- -- --- ------- --<br>------- ---------- ------ -- ----- -- ----- -- ---- ------<br>--- ----- --- the ------ -------- ----- --- ------ ----- --<br>----- ----- ---------- --- --- ------ ------ ---- -- ------<br>------- --- ------ ----- --- ---- ------- -- ---- --- --<br>------- ------,224794.2500000354,224791.2550000474,224070.739,224081.99999993667,224087.767,224804.093,,25,the
screen,html.Screen,1_1_1_1_26,2021-04-11T14:52:10.707Z,,,,,,,,,,,,,,,,54,,,,,,,,,,,,,,418.0220000114059,,response,,,,100,,,,,,,Space,keypress(Space),,,,,,,,-- --- ---- --- ------ ----- ------- ---- -- --- ------- --<br>------- ---------- ------ -- ----- -- ----- -- ---- ------<br>--- ----- --- --- bonds' -------- ----- --- ------ ----- --<br>----- ----- ---------- --- --- ------ ------ ---- -- ------<br>------- --- ------ ----- --- ---- ------- -- ---- --- --<br>------- ------,225224.5249999687,225222.1150000114,224787.711,224795.5499999225,224804.093,225237.03,,26,bonds'
screen,html.Screen,1_1_1_1_27,2021-04-11T14:52:11.098Z,,,,,,,,,,,,,,,,54,,,,,,,,,,,,,,375.7400000070047,,response,,,,100,,,,,,,Space,keypress(Space),,,,,,,,-- --- ---- --- ------ ----- ------- ---- -- --- ------- --<br>------- ---------- ------ -- ----- -- ----- -- ---- ------<br>--- ----- --- --- ------ interest ----- --- ------ ----- --<br>----- ----- ---------- --- --- ------ ------ ---- -- ------<br>------- --- ------ ----- --- ---- ------- -- ---- --- --<br>------- ------,225616.0099999979,225612.770000007,225220.788,225225.24000005797,225237.03,225643.197,,27,interest
screen,html.Screen,1_1_1_1_28,2021-04-11T14:52:11.491Z,,,,,,,,,,,,,,,,54,,,,,,,,,,,,,,362.9729999496485,,response,,,,100,,,,,,,Space,keypress(Space),,,,,,,,-- --- ---- --- ------ ----- ------- ---- -- --- ------- --<br>------- ---------- ------ -- ----- -- ----- -- ---- ------<br>--- ----- --- --- ------ -------- rate. --- ------ ----- --<br>----- ----- ---------- --- --- ------ ------ ---- -- ------<br>------- --- ------ ----- --- ---- ------- -- ---- --- --<br>------- ------,226009.14500001818,226006.16999994963,225604.226,225617.21999989823,225643.197,226020.844,,28,rate.
screen,html.Screen,1_1_1_1_29,2021-04-11T14:52:11.905Z,,,,,,,,,,,,,,,,54,,,,,,,,,,,,,,400.8309998740733,,response,,,,100,,,,,,,Space,keypress(Space),,,,,,,,-- --- ---- --- ------ ----- ------- ---- -- --- ------- --<br>------- ---------- ------ -- ----- -- ----- -- ---- ------<br>--- ----- --- --- ------ -------- ----- The ------ ----- --<br>----- ----- ---------- --- --- ------ ------ ---- -- ------<br>------- --- ------ ----- --- ---- ------- -- ---- --- --<br>------- ------,226422.8900000453,226421.67499987409,226004.247,226010.37500007078,226020.844,226437.102,,29,The
screen,html.Screen,1_1_1_1_30,2021-04-11T14:52:12.301Z,,,,,,,,,,,,,,,,54,,,,,,,,,,,,,,377.94800009200117,,response,,,,100,,,,,,,Space,keypress(Space),,,,,,,,-- --- ---- --- ------ ----- ------- ---- -- --- ------- --<br>------- ---------- ------ -- ----- -- ----- -- ---- ------<br>--- ----- --- --- ------ -------- ----- --- market ----- --<br>----- ----- ---------- --- --- ------ ------ ---- -- ------<br>------- --- ------ ----- --- ---- ------- -- ---- --- --<br>------- ------,226818.32999992184,226815.05000009201,226420.879,226423.24499995448,226437.102,226836.57,,30,market
screen,html.Screen,1_1_1_1_31,2021-04-11T14:52:12.748Z,,,,,,,,,,,,,,,,54,,,,,,,,,,,,,,425.6149998831679,,response,,,,100,,,,,,,Space,keypress(Space),,,,,,,,-- --- ---- --- ------ ----- ------- ---- -- --- ------- --<br>------- ---------- ------ -- ----- -- ----- -- ---- ------<br>--- ----- --- --- ------ -------- ----- --- ------ value --<br>----- ----- ---------- --- --- ------ ------ ---- -- ------<br>------- --- ------ ----- --- ---- ------- -- ---- --- --<br>------- ------,227265.8100000117,227262.18499988317,226819.774,226819.49999998324,226836.57,227291.743,,31,value
screen,html.Screen,1_1_1_1_32,2021-04-11T14:52:13.110Z,,,,,,,,,,,,,,,,54,,,,,,,,,,,,,,332.7269999224518,,response,,,,100,,,,,,,Space,keypress(Space),,,,,,,,-- --- ---- --- ------ ----- ------- ---- -- --- ------- --<br>------- ---------- ------ -- ----- -- ----- -- ---- ------<br>--- ----- --- --- ------ -------- ----- --- ------ ----- of<br>----- ----- ---------- --- --- ------ ------ ---- -- ------<br>------- --- ------ ----- --- ---- ------- -- ---- --- --<br>------- ------,227627.4399999529,227624.46999992244,227253.022,227266.99999999255,227291.743,227636.372,,32,of
screen,html.Screen,1_1_1_1_33,2021-04-11T14:52:13.459Z,,,,,,,,,,,,,,,,54,,,,,,,,,,,,,,337.0280000171333,,response,,,,100,,,,,,,Space,keypress(Space),,,,,,,,-- --- ---- --- ------ ----- ------- ---- -- --- ------- --<br>------- ---------- ------ -- ----- -- ----- -- ---- ------<br>--- ----- --- --- ------ -------- ----- --- ------ ----- --<br>these ----- ---------- --- --- ------ ------ ---- -- ------<br>------- --- ------ ----- --- ---- ------- -- ---- --- --<br>------- ------,227976.34500009008,227973.40000001714,227620.145,227628.6249998957,227636.372,227986.817,,33,these
screen,html.Screen,1_1_1_1_34,2021-04-11T14:52:13.778Z,,,,,,,,,,,,,,,,54,,,,,,,,,,,,,,307.5129999460478,,response,,,,100,,,,,,,Space,keypress(Space),,,,,,,,-- --- ---- --- ------ ----- ------- ---- -- --- ------- --<br>------- ---------- ------ -- ----- -- ----- -- ---- ------<br>--- ----- --- --- ------ -------- ----- --- ------ ----- --<br>----- bonds ---------- --- --- ------ ------ ---- -- ------<br>------- --- ------ ----- --- ---- ------- -- ---- --- --<br>------- ------,228295.9100001026,228294.32999994606,227970.751,227977.33499994501,227986.817,228302.824,,34,bonds
screen,html.Screen,1_1_1_1_35,2021-04-11T14:52:14.098Z,,,,,,,,,,,,,,,,54,,,,,,,,,,,,,,309.7809999147721,,response,,,,100,,,,,,,Space,keypress(Space),,,,,,,,"-- --- ---- --- ------ ----- ------- ---- -- --- ------- --<br>------- ---------- ------ -- ----- -- ----- -- ---- ------<br>--- ----- --- --- ------ -------- ----- --- ------ ----- --<br>----- ----- plummeted, --- --- ------ ------ ---- -- ------<br>------- --- ------ ----- --- ---- ------- -- ---- --- --<br>------- ------",228616.05999991298,228612.60499991477,228286.328,228296.2150000967,228302.824,228636.564,,35,"plummeted,"
screen,html.Screen,1_1_1_1_36,2021-04-11T14:52:14.469Z,,,,,,,,,,,,,,,,54,,,,,,,,,,,,,,346.44100004551,,response,,,,100,,,,,,,Space,keypress(Space),,,,,,,,-- --- ---- --- ------ ----- ------- ---- -- --- ------- --<br>------- ---------- ------ -- ----- -- ----- -- ---- ------<br>--- ----- --- --- ------ -------- ----- --- ------ ----- --<br>----- ----- ---------- and --- ------ ------ ---- -- ------<br>------- --- ------ ----- --- ---- ------- -- ---- --- --<br>------- ------,228986.49999988265,228983.00500004552,228603.225,228617.51500004902,228636.564,229002.905,,36,and
screen,html.Screen,1_1_1_1_37,2021-04-11T14:52:14.839Z,,,,,,,,,,,,,,,,54,,,,,,,,,,,,,,351.06000001661596,,response,,,,100,,,,,,,Space,keypress(Space),,,,,,,,-- --- ---- --- ------ ----- ------- ---- -- --- ------- --<br>------- ---------- ------ -- ----- -- ----- -- ---- ------<br>--- ----- --- --- ------ -------- ----- --- ------ ----- --<br>----- ----- ---------- --- the ------ ------ ---- -- ------<br>------- --- ------ ----- --- ---- ------- -- ---- --- --<br>------- ------,229357.0349998772,229353.96500001661,228986.505,228987.69499990158,229002.905,229369.587,,37,the
screen,html.Screen,1_1_1_1_38,2021-04-11T14:52:15.151Z,,,,,,,,,,,,,,,,54,,,,,,,,,,,,,,295.3679999274318,,response,,,,100,,,,,,,Space,keypress(Space),,,,,,,,-- --- ---- --- ------ ----- ------- ---- -- --- ------- --<br>------- ---------- ------ -- ----- -- ----- -- ---- ------<br>--- ----- --- --- ------ -------- ----- --- ------ ----- --<br>----- ----- ---------- --- --- market ------ ---- -- ------<br>------- --- ------ ----- --- ---- ------- -- ---- --- --<br>------- ------,229668.28999994323,229664.95499992743,229353.057,229358.2349999342,229369.587,229685.9,,38,market
screen,html.Screen,1_1_1_1_39,2021-04-11T14:52:15.490Z,,,,,,,,,,,,,,,,54,,,,,,,,,,,,,,318.9149998765497,,response,,,,100,,,,,,,Space,keypress(Space),,,,,,,,-- --- ---- --- ------ ----- ------- ---- -- --- ------- --<br>------- ---------- ------ -- ----- -- ----- -- ---- ------<br>--- ----- --- --- ------ -------- ----- --- ------ ----- --<br>----- ----- ---------- --- --- ------ became ---- -- ------<br>------- --- ------ ----- --- ---- ------- -- ---- --- --<br>------- ------,230007.69999995828,230004.81499987654,229669.785,229669.50999991968,229685.9,230019.65,,39,became
screen,html.Screen,1_1_1_1_40,2021-04-11T14:52:15.831Z,,,,,,,,,,,,,,,,54,,,,,,,,,,,,,,327.9699998986034,,response,,,,100,,,,,,,Space,keypress(Space),,,,,,,,-- --- ---- --- ------ ----- ------- ---- -- --- ------- --<br>------- ---------- ------ -- ----- -- ----- -- ---- ------<br>--- ----- --- --- ------ -------- ----- --- ------ ----- --<br>----- ----- ---------- --- --- ------ ------ wary -- ------<br>------- --- ------ ----- --- ---- ------- -- ---- --- --<br>------- ------,230349.0049999673,230347.6199998986,230002.626,230008.91000009142,230019.65,230352.713,,40,wary
screen,html.Screen,1_1_1_1_41,2021-04-11T14:52:16.148Z,,,,,,,,,,,,,,,,54,,,,,,,,,,,,,,310.45700007257983,,response,,,,100,,,,,,,Space,keypress(Space),,,,,,,,-- --- ---- --- ------ ----- ------- ---- -- --- ------- --<br>------- ---------- ------ -- ----- -- ----- -- ---- ------<br>--- ----- --- --- ------ -------- ----- --- ------ ----- --<br>----- ----- ---------- --- --- ------ ------ ---- of ------<br>------- --- ------ ----- --- ---- ------- -- ---- --- --<br>------- ------,230666.10500006936,230663.17000007257,230336.285,230349.34499999508,230352.713,230685.997,,41,of
screen,html.Screen,1_1_1_1_42,2021-04-11T14:52:16.467Z,,,,,,,,,,,,,,,,54,,,,,,,,,,,,,,295.77299995484645,,response,,,,100,,,,,,,Space,keypress(Space),,,,,,,,-- --- ---- --- ------ ----- ------- ---- -- --- ------- --<br>------- ---------- ------ -- ----- -- ----- -- ---- ------<br>--- ----- --- --- ------ -------- ----- --- ------ ----- --<br>----- ----- ---------- --- --- ------ ------ ---- -- French<br>------- --- ------ ----- --- ---- ------- -- ---- --- --<br>------- ------,230984.76999998093,230981.76999995485,230668.978,230667.3000000883,230685.997,231002.281,,42,French
screen,html.Screen,1_1_1_1_43,2021-04-11T14:52:16.786Z,,,,,,,,,,,,,,,,54,,,,,,,,,,,,,,297.56400003048475,,response,,,,100,,,,,,,Space,keypress(Space),,,,,,,,-- --- ---- --- ------ ----- ------- ---- -- --- ------- --<br>------- ---------- ------ -- ----- -- ----- -- ---- ------<br>--- ----- --- --- ------ -------- ----- --- ------ ----- --<br>----- ----- ---------- --- --- ------ ------ ---- -- ------<br>credit. --- ------ ----- --- ---- ------- -- ---- --- --<br>------- ------,231303.68999997154,231299.84500003047,230986.208,230985.92999996617,231002.281,231319.28,,43,credit.
screen,html.Screen,1_1_1_1_44,2021-04-11T14:52:17.286Z,,,,,,,,,,,,,,,,54,,,,,,,,,,,,,,481.2499998912972,,response,,,,100,,,,,,,Space,keypress(Space),,,,,,,,-- --- ---- --- ------ ----- ------- ---- -- --- ------- --<br>------- ---------- ------ -- ----- -- ----- -- ---- ------<br>--- ----- --- --- ------ -------- ----- --- ------ ----- --<br>----- ----- ---------- --- --- ------ ------ ---- -- ------<br>------- The ------ ----- --- ---- ------- -- ---- --- --<br>------- ------,231803.46000008285,231800.5299998913,231302.612,231304.83999988064,231319.28,231818.942,,44,The
screen,html.Screen,1_1_1_1_45,2021-04-11T14:52:17.590Z,,,,,,,,,,,,,,,,54,,,,,,,,,,,,,,285.7129999155004,,response,,,,100,,,,,,,Space,keypress(Space),,,,,,,,-- --- ---- --- ------ ----- ------- ---- -- --- ------- --<br>------- ---------- ------ -- ----- -- ----- -- ---- ------<br>--- ----- --- --- ------ -------- ----- --- ------ ----- --<br>----- ----- ---------- --- --- ------ ------ ---- -- ------<br>------- --- French ----- --- ---- ------- -- ---- --- --<br>------- ------,232107.7449999284,232104.6549999155,231802.093,231804.65999990702,231818.942,232118.69,,45,French
screen,html.Screen,1_1_1_1_46,2021-04-11T14:52:17.918Z,,,,,,,,,,,,,,,,54,,,,,,,,,,,,,,313.7650000019348,,response,,,,100,,,,,,,Space,keypress(Space),,,,,,,,-- --- ---- --- ------ ----- ------- ---- -- --- ------- --<br>------- ---------- ------ -- ----- -- ----- -- ---- ------<br>--- ----- --- --- ------ -------- ----- --- ------ ----- --<br>----- ----- ---------- --- --- ------ ------ ---- -- ------<br>------- --- ------ state --- ---- ------- -- ---- --- --<br>------- ------,232435.48500002362,232432.45500000194,232102.79,232108.93999994732,232118.69,232451.94,,46,state
screen,html.Screen,1_1_1_1_47,2021-04-11T14:52:18.213Z,,,,,,,,,,,,,,,,54,,,,,,,,,,,,,,275.829999997688,,response,,,,100,,,,,,,Space,keypress(Space),,,,,,,,-- --- ---- --- ------ ----- ------- ---- -- --- ------- --<br>------- ---------- ------ -- ----- -- ----- -- ---- ------<br>--- ----- --- --- ------ -------- ----- --- ------ ----- --<br>----- ----- ---------- --- --- ------ ------ ---- -- ------<br>------- --- ------ ----- was ---- ------- -- ---- --- --<br>------- ------,232731.1050000135,232727.7699999977,232435.982,232436.70500000007,232451.94,232760.151,,47,was
screen,html.Screen,1_1_1_1_48,2021-04-11T14:52:18.514Z,,,,,,,,,,,,,,,,54,,,,,,,,,,,,,,268.1839999226504,,response,,,,100,,,,,,,Space,keypress(Space),,,,,,,,-- --- ---- --- ------ ----- ------- ---- -- --- ------- --<br>------- ---------- ------ -- ----- -- ----- -- ---- ------<br>--- ----- --- --- ------ -------- ----- --- ------ ----- --<br>----- ----- ---------- --- --- ------ ------ ---- -- ------<br>------- --- ------ ----- --- left ------- -- ---- --- --<br>------- ------,233031.60000010394,233028.33499992266,232719.111,232732.2700000368,232760.151,233051.988,,48,left
screen,html.Screen,1_1_1_1_49,2021-04-11T14:52:18.824Z,,,,,,,,,,,,,,,,54,,,,,,,,,,,,,,288.2969999256311,,response,,,,100,,,,,,,Space,keypress(Space),,,,,,,,-- --- ---- --- ------ ----- ------- ---- -- --- ------- --<br>------- ---------- ------ -- ----- -- ----- -- ---- ------<br>--- ----- --- --- ------ -------- ----- --- ------ ----- --<br>----- ----- ---------- --- --- ------ ------ ---- -- ------<br>------- --- ------ ----- --- ---- without -- ---- --- --<br>------- ------,233341.85500000603,233340.28499992564,233020.336,233032.850000076,233051.988,233351.83,,49,without
screen,html.Screen,1_1_1_1_50,2021-04-11T14:52:19.220Z,,,,,,,,,,,,,,,,54,,,,,,,,,,,,,,382.5899998770037,,response,,,,100,,,,,,,Space,keypress(Space),,,,,,,,-- --- ---- --- ------ ----- ------- ---- -- --- ------- --<br>------- ---------- ------ -- ----- -- ----- -- ---- ------<br>--- ----- --- --- ------ -------- ----- --- ------ ----- --<br>----- ----- ---------- --- --- ------ ------ ---- -- ------<br>------- --- ------ ----- --- ---- ------- an ---- --- --<br>------- ------,233737.57999995723,233734.419999877,233335.613,233342.26500010118,233351.83,233751.793,,50,an
screen,html.Screen,1_1_1_1_51,2021-04-11T14:52:19.560Z,,,,,,,,,,,,,,,,54,,,,,,,,,,,,,,322.30200004723156,,response,,,,100,,,,,,,Space,keypress(Space),,,,,,,,-- --- ---- --- ------ ----- ------- ---- -- --- ------- --<br>------- ---------- ------ -- ----- -- ----- -- ---- ------<br>--- ----- --- --- ------ -------- ----- --- ------ ----- --<br>----- ----- ---------- --- --- ------ ------ ---- -- ------<br>------- --- ------ ----- --- ---- ------- -- easy --- --<br>------- ------,234077.83999992535,234074.09500004724,233735.859,233738.80499997176,233751.793,234085.445,,51,easy
screen,html.Screen,1_1_1_1_52,2021-04-11T14:52:19.885Z,,,,,,,,,,,,,,,,54,,,,,,,,,,,,,,314.0149999859859,,response,,,,100,,,,,,,Space,keypress(Space),,,,,,,,-- --- ---- --- ------ ----- ------- ---- -- --- ------- --<br>------- ---------- ------ -- ----- -- ----- -- ---- ------<br>--- ----- --- --- ------ -------- ----- --- ------ ----- --<br>----- ----- ---------- --- --- ------ ------ ---- -- ------<br>------- --- ------ ----- --- ---- ------- -- ---- way --<br>------- ------,234402.3800001014,234399.459999986,234068.298,234079.0150000248,234085.445,234418.648,,52,way
screen,html.Screen,1_1_1_1_53,2021-04-11T14:52:20.249Z,,,,,,,,,,,,,,,,54,,,,,,,,,,,,,,345.9070000015781,,response,,,,100,,,,,,,Space,keypress(Space),,,,,,,,-- --- ---- --- ------ ----- ------- ---- -- --- ------- --<br>------- ---------- ------ -- ----- -- ----- -- ---- ------<br>--- ----- --- --- ------ -------- ----- --- ------ ----- --<br>----- ----- ---------- --- --- ------ ------ ---- -- ------<br>------- --- ------ ----- --- ---- ------- -- ---- --- of<br>------- ------,234766.46000007167,234764.55500000156,234403.164,234403.61999999732,234418.648,234784.861,,53,of
screen,html.Screen,1_1_1_1_54,2021-04-11T14:52:20.573Z,,,,,,,,,,,,,,,,54,,,,,,,,,,,,,,302.2640000782267,,response,,,,100,,,,,,,Space,keypress(Space),,,,,,,,-- --- ---- --- ------ ----- ------- ---- -- --- ------- --<br>------- ---------- ------ -- ----- -- ----- -- ---- ------<br>--- ----- --- --- ------ -------- ----- --- ------ ----- --<br>----- ----- ---------- --- --- ------ ------ ---- -- ------<br>------- --- ------ ----- --- ---- ------- -- ---- --- --<br>raising ------,235090.28999996372,235087.12500007823,234768.586,234767.13999989443,234784.861,235101.962,,54,raising
screen,html.Screen,1_1_1_1_55,2021-04-11T14:52:20.937Z,,,,,,,,,,,,,,,,54,,,,,,,,,,,,,,349.89799991372274,,response,,,,100,,,,,,,Space,keypress(Space),,,,,,,,-- --- ---- --- ------ ----- ------- ---- -- --- ------- --<br>------- ---------- ------ -- ----- -- ----- -- ---- ------<br>--- ----- --- --- ------ -------- ----- --- ------ ----- --<br>----- ----- ---------- --- --- ------ ------ ---- -- ------<br>------- --- ------ ----- --- ---- ------- -- ---- --- --<br>------- money.,235454.94499988854,235451.85999991372,235085.505,235091.49500005879,235101.962,235501.669,,55,money.
Item 100,flow.Loop,1_1_1_1,2021-04-11T14:52:20.939Z,,,,,,,,,,,,,,,,,,,,,,,,,,,,,,22511.511999913724,,completion,,,,,A,,,,,,,,,,,silence,,,,,235457.05999992788,235451.85999991372,212907.22,212911.245000083,212940.348,235501.669,,,
Question 1,html.Screen,1_1_1_2,2021-04-11T14:52:24.728Z,,,,,,,,,,,,,,,,,,,,,,,,,,,true,TRUE,,3741.230999953812,,response,,,,100,A,,,,,,TRUE,click #choice-1,,,,silence,,,,,239245.6700000912,239242.8999999538,235451.834,235458.2849999424,235501.669,239267.124,,,
Question 2,html.Screen,1_1_1_3,2021-04-11T14:52:27.594Z,,,,,,,,,,,,,,,,,,,,,,,,,,,true,FALSE,,2842.441000049759,,response,,,,100,A,,,,,,FALSE,click #choice-2,,,,silence,,,,,242111.73000000417,242109.56500004977,239233.853,239246.36500002816,239267.124,242133.207,,,
Item 100,flow.Sequence,1_1_1,2021-04-11T14:52:27.595Z,,,,,,,,,,,,,,,,,,,,,,,,,,,,,,39184.243000049784,,completion,,,,,,,,,,,,,,,,,,,,,242112.51499992795,242109.56500004977,202908.676,202918.09999989346,202925.322,242133.207,,,
End of Practice,html.Page,1_1_2,2021-04-11T14:52:32.867Z,,,,,,,,,,,,,,,,,,,,,,,,,,,,,,5250.077999988978,,form submission,,,,,,,,,,,,,,,,,,,,,247384.6050000284,247383.28499998897,242099.724,242112.96000005677,242133.207,247415.133,,,
Practice,flow.Sequence,1_1,2021-04-11T14:52:32.868Z,,,,,,,,,,,,,,,,,,,,,,,,,,,,,,86431.61999998896,,completion,,,,,,,,,,,,,,,,,,,,,247385.37999987602,247383.28499998897,160918.238,160930.57000008412,160951.665,247415.133,,,
Trap_instruction,html.Page,1_2_0,2021-04-11T14:52:37.430Z,,,,,,,,,,,,,,,,,,,,,,,,,,,,,,4531.626999962522,,form submission,,,,,,,,,,,,,,,,,,,,,251948.0550000444,251946.75999996252,247398.582,247385.9399999492,247415.133,252064.44,,,
trap_trial,html.Screen,1_2_1,2021-04-11T14:52:41.147Z,,,,,,,,,,,,,,,,,,,,,,,,,,,true,1,,3598.1800000755466,,response,,,,,,,,,,,1,click #choice-1,,,,,,,,,255665.0199999567,255662.62000007555,251931.028,251948.51000001654,252064.44,255679.932,,,
end of trap trial,html.Page,1_2_2,2021-04-11T14:52:43.239Z,,,,,,,,,,,,,,,,,,,,,,,,,,,,,,2075.55300008881,,form submission,,,,,,,,,,,,,,,,,,,,,257756.49999990128,257755.4850000888,255663.225,255665.56999995373,255679.932,257762.776,,,
Trap 1,flow.Sequence,1_2,2021-04-11T14:52:43.239Z,,,,,,,,,,,,,,,,,,,,,,,,,,,,,,10340.35200008881,,completion,,,,,,,,,,,,,,,,,,,,,257757.15499999933,257755.4850000888,247398.582,247385.7549999375,247415.133,257762.776,,,
Standby,html.Page,1_3_0,2021-04-11T14:52:51.229Z,,,,,,,,,,,,,,,,,,,,,,,,,,,,,,7998.691999999981,,timeout,,,,,,,,,,,,,,,,,,,,,265746.6349999886,265745.092,257746.089,257757.71999987774,257762.776,265761.468,,,
Holding screen,html.Screen,1_3_1_0_0,2021-04-11T14:52:58.228Z,,,,,,,,,,,,,,,,,,,,,,,,,,,,,,7014.769000000029,,timeout,,,,,,,,,,,,,,,,,,,,,272745.38500001654,272743.437,265745.092,265747.4149998743,265761.468,272776.237,,,
screen,html.Screen,1_3_1_0_1_0,2021-04-11T14:52:59.345Z,,,,,,,,,,,,,,,,11,,,,,,,,,,,,,,1082.3979999531875,,response,,,,4,A,,,,,,Space,keypress(Space),,,,silence,,,,Known -- ---- --- -- --- -------- ------------ ---------- --<br>- ------- ------ --------- -- ------------ -- --- ---- -----<br>------ ---- ---- ------ ------ ------- --- ----- ---------<br>---- --- -------- -------- --- --- -- ------- --- --- -----<br>-- --- ------ ------- --- --- -------- ---- --------- --<br>---------- -- -------- ----------------,273862.84000007436,273858.6349999532,272743.437,272746.74000008963,272776.237,273876.004,,0,Known
screen,html.Screen,1_3_1_0_1_1,2021-04-11T14:52:59.949Z,,,,,,,,,,,,,,,,11,,,,,,,,,,,,,,588.025999915495,,response,,,,4,A,,,,,,Space,keypress(Space),,,,silence,,,,----- as ---- --- -- --- -------- ------------ ---------- --<br>- ------- ------ --------- -- ------------ -- --- ---- -----<br>------ ---- ---- ------ ------ ------- --- ----- ---------<br>---- --- -------- -------- --- --- -- ------- --- --- -----<br>-- --- ------ ------- --- --- -------- ---- --------- --<br>---------- -- -------- ----------------,274467.149999924,274464.0299999155,273859.3,273864.23499998637,273876.004,274476.249,,1,as
screen,html.Screen,1_3_1_0_1_2,2021-04-11T14:53:00.555Z,,,,,,,,,,,,,,,,11,,,,,,,,,,,,,,592.9459999891114,,response,,,,4,A,,,,,,Space,keypress(Space),,,,silence,,,,----- -- Rapa --- -- --- -------- ------------ ---------- --<br>- ------- ------ --------- -- ------------ -- --- ---- -----<br>------ ---- ---- ------ ------ ------- --- ----- ---------<br>---- --- -------- -------- --- --- -- ------- --- --- -----<br>-- --- ------ ------- --- --- -------- ---- --------- --<br>---------- -- -------- ----------------,275072.5300000049,275069.1949999891,274459.138,274468.3550000191,274476.249,275108.896,,2,Rapa
screen,html.Screen,1_3_1_0_1_3,2021-04-11T14:53:01.371Z,,,,,,,,,,,,,,,,11,,,,,,,,,,,,,,778.0589999944787,,response,,,,4,A,,,,,,Space,keypress(Space),,,,silence,,,,----- -- ---- Nui -- --- -------- ------------ ---------- --<br>- ------- ------ --------- -- ------------ -- --- ---- -----<br>------ ---- ---- ------ ------ ------- --- ----- ---------<br>---- --- -------- -------- --- --- -- ------- --- --- -----<br>-- --- ------ ------- --- --- -------- ---- --------- --<br>---------- -- -------- ----------------,275888.70000001043,275886.9549999945,275092.652,275073.63500003703,275108.896,275892.233,,3,Nui
screen,html.Screen,1_3_1_0_1_4,2021-04-11T14:53:01.931Z,,,,,,,,,,,,,,,,11,,,,,,,,,,,,,,553.9870000416413,,response,,,,4,A,,,,,,Space,keypress(Space),,,,silence,,,,----- -- ---- --- to --- -------- ------------ ---------- --<br>- ------- ------ --------- -- ------------ -- --- ---- -----<br>------ ---- ---- ------ ------ ------- --- ----- ---------<br>---- --- -------- -------- --- --- -- ------- --- --- -----<br>-- --- ------ ------- --- --- -------- ---- --------- --<br>---------- -- -------- ----------------,276449.0849999711,276446.22000004165,275875.665,275889.00500000454,275892.233,276458.591,,4,to
screen,html.Screen,1_3_1_0_1_5,2021-04-11T14:53:02.371Z,,,,,,,,,,,,,,,,11,,,,,,,,,,,,,,427.14900005608797,,response,,,,4,A,,,,,,Space,keypress(Space),,,,silence,,,,----- -- ---- --- -- the -------- ------------ ---------- --<br>- ------- ------ --------- -- ------------ -- --- ---- -----<br>------ ---- ---- ------ ------ ------- --- ----- ---------<br>---- --- -------- -------- --- --- -- ------- --- --- -----<br>-- --- ------ ------- --- --- -------- ---- --------- --<br>---------- -- -------- ----------------,276888.65000009537,276885.7400000561,276442.229,276450.36499993876,276458.591,276908.544,,5,the
screen,html.Screen,1_3_1_0_1_6,2021-04-11T14:53:02.853Z,,,,,,,,,,,,,,,,11,,,,,,,,,,,,,,459.80599988787435,,response,,,,4,A,,,,,,Space,keypress(Space),,,,silence,,,,----- -- ---- --- -- --- island's ------------ ---------- --<br>- ------- ------ --------- -- ------------ -- --- ---- -----<br>------ ---- ---- ------ ------ ------- --- ----- ---------<br>---- --- -------- -------- --- --- -- ------- --- --- -----<br>-- --- ------ ------- --- --- -------- ---- --------- --<br>---------- -- -------- ----------------,277371.160000097,277368.34999988787,276875.707,276889.9000000674,276908.544,277398.73,,6,island's
screen,html.Screen,1_3_1_0_1_7,2021-04-11T14:53:03.317Z,,,,,,,,,,,,,,,,11,,,,,,,,,,,,,,432.9999999762513,,response,,,,4,A,,,,,,Space,keypress(Space),,,,silence,,,,"----- -- ---- --- -- --- -------- inhabitants, ---------- --<br>- ------- ------ --------- -- ------------ -- --- ---- -----<br>------ ---- ---- ------ ------ ------- --- ----- ---------<br>---- --- -------- -------- --- --- -- ------- --- --- -----<br>-- --- ------ ------- --- --- -------- ---- --------- --<br>---------- -- -------- ----------------",277834.74000007845,277831.72999997623,277358.828,277372.3100000061,277398.73,277842.272,,7,"inhabitants,"
screen,html.Screen,1_3_1_0_1_8,2021-04-11T14:53:04.758Z,,,,,,,,,,,,,,,,11,,,,,,,,,,,,,,1429.7279998807935,,response,,,,4,A,,,,,,Space,keypress(Space),,,,silence,,,,----- -- ---- --- -- --- -------- ------------ Rongorongo --<br>- ------- ------ --------- -- ------------ -- --- ---- -----<br>------ ---- ---- ------ ------ ------- --- ----- ---------<br>---- --- -------- -------- --- --- -- ------- --- --- -----<br>-- --- ------ ------- --- --- -------- ---- --------- --<br>---------- -- -------- ----------------,279275.4150000401,279271.9999998808,277825.591,277835.92500002123,277842.272,279291.361,,8,Rongorongo
screen,html.Screen,1_3_1_0_1_9,2021-04-11T14:53:05.118Z,,,,,,,,,,,,,,,,11,,,,,,,,,,,,,,342.7039998747059,,response,,,,4,A,,,,,,Space,keypress(Space),,,,silence,,,,----- -- ---- --- -- --- -------- ------------ ---------- is<br>- ------- ------ --------- -- ------------ -- --- ---- -----<br>------ ---- ---- ------ ------ ------- --- ----- ---------<br>---- --- -------- -------- --- --- -- ------- --- --- -----<br>-- --- ------ ------- --- --- -------- ---- --------- --<br>---------- -- -------- ----------------,279635.8650000766,279634.0649998747,279275.176,279276.610000059,279291.361,279641.255,,9,is
screen,html.Screen,1_3_1_0_1_10,2021-04-11T14:53:05.550Z,,,,,,,,,,,,,,,,11,,,,,,,,,,,,,,423.27000005252194,,response,,,,4,A,,,,,,Space,keypress(Space),,,,silence,,,,----- -- ---- --- -- --- -------- ------------ ---------- --<br>a ------- ------ --------- -- ------------ -- --- ---- -----<br>------ ---- ---- ------ ------ ------- --- ----- ---------<br>---- --- -------- -------- --- --- -- ------- --- --- -----<br>-- --- ------ ------- --- --- -------- ---- --------- --<br>---------- -- -------- ----------------,280067.49999988824,280064.5250000525,279625.463,279636.3200000487,279641.255,280075.113,,10,a
screen,html.Screen,1_3_1_0_1_11,2021-04-11T14:53:06.049Z,,,,,,,,,,,,,,,,11,,,,,,,,,,,,,,488.12700004677754,,response,,,,4,A,,,,,,Space,keypress(Space),,,,silence,,,,----- -- ---- --- -- --- -------- ------------ ---------- --<br>- writing ------ --------- -- ------------ -- --- ---- -----<br>------ ---- ---- ------ ------ ------- --- ----- ---------<br>---- --- -------- -------- --- --- -- ------- --- --- -----<br>-- --- ------ ------- --- --- -------- ---- --------- --<br>---------- -- -------- ----------------,280566.6300000157,280563.2400000468,280057.764,280068.69499990717,280075.113,280574.52,,11,writing
screen,html.Screen,1_3_1_0_1_12,2021-04-11T14:53:06.458Z,,,,,,,,,,,,,,,,11,,,,,,,,,,,,,,398.2949999864213,,response,,,,4,A,,,,,,Space,keypress(Space),,,,silence,,,,----- -- ---- --- -- --- -------- ------------ ---------- --<br>- ------- system --------- -- ------------ -- --- ---- -----<br>------ ---- ---- ------ ------ ------- --- ----- ---------<br>---- --- -------- -------- --- --- -- ------- --- --- -----<br>-- --- ------ ------- --- --- -------- ---- --------- --<br>---------- -- -------- ----------------,280975.9150000755,280972.81499998644,280558.151,280567.79500003904,280574.52,280990.965,,12,system
screen,html.Screen,1_3_1_0_1_13,2021-04-11T14:53:06.885Z,,,,,,,,,,,,,,,,11,,,,,,,,,,,,,,409.2650000283611,,response,,,,4,A,,,,,,Space,keypress(Space),,,,silence,,,,----- -- ---- --- -- --- -------- ------------ ---------- --<br>- ------- ------ comprised -- ------------ -- --- ---- -----<br>------ ---- ---- ------ ------ ------- --- ----- ---------<br>---- --- -------- -------- --- --- -- ------- --- --- -----<br>-- --- ------ ------- --- --- -------- ---- --------- --<br>---------- -- -------- ----------------,281403.2499999739,281400.2300000284,280975.057,280977.0500001032,280990.965,281408.028,,13,comprised
screen,html.Screen,1_3_1_0_1_14,2021-04-11T14:53:07.297Z,,,,,,,,,,,,,,,,11,,,,,,,,,,,,,,403.18199995619943,,response,,,,4,A,,,,,,Space,keypress(Space),,,,silence,,,,----- -- ---- --- -- --- -------- ------------ ---------- --<br>- ------- ------ --------- of ------------ -- --- ---- -----<br>------ ---- ---- ------ ------ ------- --- ----- ---------<br>---- --- -------- -------- --- --- -- ------- --- --- -----<br>-- --- ------ ------- --- --- -------- ---- --------- --<br>---------- -- -------- ----------------,281814.6999999881,281811.2099999562,281391.386,281404.4949999079,281408.028,281824.554,,14,of
screen,html.Screen,1_3_1_0_1_15,2021-04-11T14:53:07.800Z,,,,,,,,,,,,,,,,11,,,,,,,,,,,,,,496.2710000607185,,response,,,,4,A,,,,,,Space,keypress(Space),,,,silence,,,,----- -- ---- --- -- --- -------- ------------ ---------- --<br>- ------- ------ --------- -- pictographs. -- --- ---- -----<br>------ ---- ---- ------ ------ ------- --- ----- ---------<br>---- --- -------- -------- --- --- -- ------- --- --- -----<br>-- --- ------ ------- --- --- -------- ---- --------- --<br>---------- -- -------- ----------------,282322.9300000239,282320.8250000607,281807.424,281815.8650000114,281824.554,282340.581,,15,pictographs.
screen,html.Screen,1_3_1_0_1_16,2021-04-11T14:53:08.248Z,,,,,,,,,,,,,,,,11,,,,,,,,,,,,,,427.4040000422392,,response,,,,4,A,,,,,,Space,keypress(Space),,,,silence,,,,----- -- ---- --- -- --- -------- ------------ ---------- --<br>- ------- ------ --------- -- ------------ It --- ---- -----<br>------ ---- ---- ------ ------ ------- --- ----- ---------<br>---- --- -------- -------- --- --- -- ------- --- --- -----<br>-- --- ------ ------- --- --- -------- ---- --------- --<br>---------- -- -------- ----------------,282771.08499989845,282767.98500004224,282325.043,282323.7399999052,282340.581,282807.352,,16,It
screen,html.Screen,1_3_1_0_1_17,2021-04-11T14:53:08.587Z,,,,,,,,,,,,,,,,11,,,,,,,,,,,,,,299.38299992115935,,response,,,,4,A,,,,,,Space,keypress(Space),,,,silence,,,,----- -- ---- --- -- --- -------- ------------ ---------- --<br>- ------- ------ --------- -- ------------ -- has ---- -----<br>------ ---- ---- ------ ------ ------- --- ----- ---------<br>---- --- -------- -------- --- --- -- ------- --- --- -----<br>-- --- ------ ------- --- --- -------- ---- --------- --<br>---------- -- -------- ----------------,283109.78500009514,283106.7349999212,282790.918,282772.2350000404,282807.352,283124.385,,17,has
screen,html.Screen,1_3_1_0_1_18,2021-04-11T14:53:08.935Z,,,,,,,,,,,,,,,,11,,,,,,,,,,,,,,330.3650000335183,,response,,,,4,A,,,,,,Space,keypress(Space),,,,silence,,,,----- -- ---- --- -- --- -------- ------------ ---------- --<br>- ------- ------ --------- -- ------------ -- --- been -----<br>------ ---- ---- ------ ------ ------- --- ----- ---------<br>---- --- -------- -------- --- --- -- ------- --- --- -----<br>-- --- ------ ------- --- --- -------- ---- --------- --<br>---------- -- -------- ----------------,283457.9050000757,283454.7500000335,283107.492,283111.0149999149,283124.385,283473.795,,18,been
screen,html.Screen,1_3_1_0_1_19,2021-04-11T14:53:09.317Z,,,,,,,,,,,,,,,,11,,,,,,,,,,,,,,362.57499991724035,,response,,,,4,A,,,,,,Space,keypress(Space),,,,silence,,,,----- -- ---- --- -- --- -------- ------------ ---------- --<br>- ------- ------ --------- -- ------------ -- --- ---- found<br>------ ---- ---- ------ ------ ------- --- ----- ---------<br>---- --- -------- -------- --- --- -- ------- --- --- -----<br>-- --- ------ ------- --- --- -------- ---- --------- --<br>---------- -- -------- ----------------,283839.554999955,283836.3699999172,283457.388,283459.07999994233,283473.795,283857.077,,19,found
screen,html.Screen,1_3_1_0_1_20,2021-04-11T14:53:09.683Z,,,,,,,,,,,,,,,,11,,,,,,,,,,,,,,344.88800001476193,,response,,,,4,A,,,,,,Space,keypress(Space),,,,silence,,,,----- -- ---- --- -- --- -------- ------------ ---------- --<br>- ------- ------ --------- -- ------------ -- --- ---- -----<br>carved ---- ---- ------ ------ ------- --- ----- ---------<br>---- --- -------- -------- --- --- -- ------- --- --- -----<br>-- --- ------ ------- --- --- -------- ---- --------- --<br>---------- -- -------- ----------------,284205.3100001067,284201.96500001475,283840.737,283840.7499999739,283857.077,284223.66,,20,carved
screen,html.Screen,1_3_1_0_1_21,2021-04-11T14:53:10.069Z,,,,,,,,,,,,,,,,11,,,,,,,,,,,,,,364.84499987604795,,response,,,,4,A,,,,,,Space,keypress(Space),,,,silence,,,,----- -- ---- --- -- --- -------- ------------ ---------- --<br>- ------- ------ --------- -- ------------ -- --- ---- -----<br>------ into ---- ------ ------ ------- --- ----- ---------<br>---- --- -------- -------- --- --- -- ------- --- --- -----<br>-- --- ------ ------- --- --- -------- ---- --------- --<br>---------- -- -------- ----------------,284591.8749999255,284588.504999876,284207.185,284206.51499996893,284223.66,284606.773,,21,into
screen,html.Screen,1_3_1_0_1_22,2021-04-11T14:53:10.567Z,,,,,,,,,,,,,,,,11,,,,,,,,,,,,,,480.9320000708685,,response,,,,4,A,,,,,,Space,keypress(Space),,,,silence,,,,----- -- ---- --- -- --- -------- ------------ ---------- --<br>- ------- ------ --------- -- ------------ -- --- ---- -----<br>------ ---- many ------ ------ ------- --- ----- ---------<br>---- --- -------- -------- --- --- -- ------- --- --- -----<br>-- --- ------ ------- --- --- -------- ---- --------- --<br>---------- -- -------- ----------------,285089.9849999696,285087.70500007086,284590.554,284593.0749999825,284606.773,285106.756,,22,many
screen,html.Screen,1_3_1_0_1_23,2021-04-11T14:53:10.938Z,,,,,,,,,,,,,,,,11,,,,,,,,,,,,,,350.96400006400654,,response,,,,4,A,,,,,,Space,keypress(Space),,,,silence,,,,----- -- ---- --- -- --- -------- ------------ ---------- --<br>- ------- ------ --------- -- ------------ -- --- ---- -----<br>------ ---- ---- oblong ------ ------- --- ----- ---------<br>---- --- -------- -------- --- --- -- ------- --- --- -----<br>-- --- ------ ------- --- --- -------- ---- --------- --<br>---------- -- -------- ----------------,285460.97999997437,285457.720000064,285090.166,285090.755000012,285106.756,285473.583,,23,oblong
screen,html.Screen,1_3_1_0_1_24,2021-04-11T14:53:11.259Z,,,,,,,,,,,,,,,,11,,,,,,,,,,,,,,306.4170000279555,,response,,,,4,A,,,,,,Space,keypress(Space),,,,silence,,,,----- -- ---- --- -- --- -------- ------------ ---------- --<br>- ------- ------ --------- -- ------------ -- --- ---- -----<br>------ ---- ---- ------ wooden ------- --- ----- ---------<br>---- --- -------- -------- --- --- -- ------- --- --- -----<br>-- --- ------ ------- --- --- -------- ---- --------- --<br>---------- -- -------- ----------------,285781.4799998887,285780.00000002794,285457.537,285462.1399999596,285473.583,285790.213,,24,wooden
screen,html.Screen,1_3_1_0_1_25,2021-04-11T14:53:11.622Z,,,,,,,,,,,,,,,,11,,,,,,,,,,,,,,351.6170000950806,,response,,,,4,A,,,,,,Space,keypress(Space),,,,silence,,,,----- -- ---- --- -- --- -------- ------------ ---------- --<br>- ------- ------ --------- -- ------------ -- --- ---- -----<br>------ ---- ---- ------ ------ tablets --- ----- ---------<br>---- --- -------- -------- --- --- -- ------- --- --- -----<br>-- --- ------ ------- --- --- -------- ---- --------- --<br>---------- -- -------- ----------------,286144.8550000787,286141.83000009507,285773.481,285781.90000006,285790.213,286156.798,,25,tablets
screen,html.Screen,1_3_1_0_1_26,2021-04-11T14:53:12.010Z,,,,,,,,,,,,,,,,11,,,,,,,,,,,,,,372.7820000894717,,response,,,,4,A,,,,,,Space,keypress(Space),,,,silence,,,,----- -- ---- --- -- --- -------- ------------ ---------- --<br>- ------- ------ --------- -- ------------ -- --- ---- -----<br>------ ---- ---- ------ ------ ------- and ----- ---------<br>---- --- -------- -------- --- --- -- ------- --- --- -----<br>-- --- ------ ------- --- --- -------- ---- --------- --<br>---------- -- -------- ----------------,286532.9249999486,286529.5800000895,286140.122,286146.0150000639,286156.798,286540.325,,26,and
screen,html.Screen,1_3_1_0_1_27,2021-04-11T14:53:12.414Z,,,,,,,,,,,,,,,,11,,,,,,,,,,,,,,393.2799999110284,,response,,,,4,A,,,,,,Space,keypress(Space),,,,silence,,,,----- -- ---- --- -- --- -------- ------------ ---------- --<br>- ------- ------ --------- -- ------------ -- --- ---- -----<br>------ ---- ---- ------ ------ ------- --- other ---------<br>---- --- -------- -------- --- --- -- ------- --- --- -----<br>-- --- ------ ------- --- --- -------- ---- --------- --<br>---------- -- -------- ----------------,286936.50499987416,286933.60499991104,286523.582,286534.14499992505,286540.325,286956.348,,27,other
screen,html.Screen,1_3_1_0_1_28,2021-04-11T14:53:12.792Z,,,,,,,,,,,,,,,,11,,,,,,,,,,,,,,355.0669998873491,,response,,,,4,A,,,,,,Space,keypress(Space),,,,silence,,,,----- -- ---- --- -- --- -------- ------------ ---------- --<br>- ------- ------ --------- -- ------------ -- --- ---- -----<br>------ ---- ---- ------ ------ ------- --- ----- artifacts<br>---- --- -------- -------- --- --- -- ------- --- --- -----<br>-- --- ------ ------- --- --- -------- ---- --------- --<br>---------- -- -------- ----------------,287314.5099999383,287311.41499988735,286923.085,286937.64499993995,286956.348,287323.337,,28,artifacts
screen,html.Screen,1_3_1_0_1_29,2021-04-11T14:53:13.192Z,,,,,,,,,,,,,,,,11,,,,,,,,,,,,,,387.70800000365125,,response,,,,4,A,,,,,,Space,keypress(Space),,,,silence,,,,----- -- ---- --- -- --- -------- ------------ ---------- --<br>- ------- ------ --------- -- ------------ -- --- ---- -----<br>------ ---- ---- ------ ------ ------- --- ----- ---------<br>from --- -------- -------- --- --- -- ------- --- --- -----<br>-- --- ------ ------- --- --- -------- ---- --------- --<br>---------- -- -------- ----------------,287714.3099999521,287711.04500000365,287306.054,287315.6349998899,287323.337,287723.037,,29,from
screen,html.Screen,1_3_1_0_1_30,2021-04-11T14:53:13.605Z,,,,,,,,,,,,,,,,11,,,,,,,,,,,,,,401.9529999238439,,response,,,,4,A,,,,,,Space,keypress(Space),,,,silence,,,,----- -- ---- --- -- --- -------- ------------ ---------- --<br>- ------- ------ --------- -- ------------ -- --- ---- -----<br>------ ---- ---- ------ ------ ------- --- ----- ---------<br>---- the -------- -------- --- --- -- ------- --- --- -----<br>-- --- ------ ------- --- --- -------- ---- --------- --<br>---------- -- -------- ----------------,288128.10999993235,288124.98999992386,287706.802,287715.4749999754,287723.037,288139.726,,30,the
screen,html.Screen,1_3_1_0_1_31,2021-04-11T14:53:13.925Z,,,,,,,,,,,,,,,,11,,,,,,,,,,,,,,304.61399992904626,,response,,,,4,A,,,,,,Space,keypress(Space),,,,silence,,,,----- -- ---- --- -- --- -------- ------------ ---------- --<br>- ------- ------ --------- -- ------------ -- --- ---- -----<br>------ ---- ---- ------ ------ ------- --- ----- ---------<br>---- --- island's -------- --- --- -- ------- --- --- -----<br>-- --- ------ ------- --- --- -------- ---- --------- --<br>---------- -- -------- ----------------,288447.3500000313,288444.33999992907,288123.036,288129.3649999425,288139.726,288456.468,,31,island's
screen,html.Screen,1_3_1_0_1_32,2021-04-11T14:53:14.314Z,,,,,,,,,,,,,,,,11,,,,,,,,,,,,,,378.58699991588946,,response,,,,4,A,,,,,,Space,keypress(Space),,,,silence,,,,----- -- ---- --- -- --- -------- ------------ ---------- --<br>- ------- ------ --------- -- ------------ -- --- ---- -----<br>------ ---- ---- ------ ------ ------- --- ----- ---------<br>---- --- -------- history. --- --- -- ------- --- --- -----<br>-- --- ------ ------- --- --- -------- ---- --------- --<br>---------- -- -------- ----------------,288836.6950000636,288835.0549999159,288440.017,288448.5750000458,288456.468,288839.462,,32,history.
screen,html.Screen,1_3_1_0_1_33,2021-04-11T14:53:14.693Z,,,,,,,,,,,,,,,,11,,,,,,,,,,,,,,372.8329999757116,,response,,,,4,A,,,,,,Space,keypress(Space),,,,silence,,,,----- -- ---- --- -- --- -------- ------------ ---------- --<br>- ------- ------ --------- -- ------------ -- --- ---- -----<br>------ ---- ---- ------ ------ ------- --- ----- ---------<br>---- --- -------- -------- The --- -- ------- --- --- -----<br>-- --- ------ ------- --- --- -------- ---- --------- --<br>---------- -- -------- ----------------,289215.3399998788,289212.2949999757,288823.218,288837.065000087,288839.462,289222.783,,33,The
screen,html.Screen,1_3_1_0_1_34,2021-04-11T14:53:15.031Z,,,,,,,,,,,,,,,,11,,,,,,,,,,,,,,327.7469998913002,,response,,,,4,A,,,,,,Space,keypress(Space),,,,silence,,,,----- -- ---- --- -- --- -------- ------------ ---------- --<br>- ------- ------ --------- -- ------------ -- --- ---- -----<br>------ ---- ---- ------ ------ ------- --- ----- ---------<br>---- --- -------- -------- --- art -- ------- --- --- -----<br>-- --- ------ ------- --- --- -------- ---- --------- --<br>---------- -- -------- ----------------,289553.46999992616,289550.5299998913,289205.637,289216.60499996506,289222.783,289572.64,,34,art
screen,html.Screen,1_3_1_0_1_35,2021-04-11T14:53:15.366Z,,,,,,,,,,,,,,,,11,,,,,,,,,,,,,,312.3799999287585,,response,,,,4,A,,,,,,Space,keypress(Space),,,,silence,,,,----- -- ---- --- -- --- -------- ------------ ---------- --<br>- ------- ------ --------- -- ------------ -- --- ---- -----<br>------ ---- ---- ------ ------ ------- --- ----- ---------<br>---- --- -------- -------- --- --- of ------- --- --- -----<br>-- --- ------ ------- --- --- -------- ---- --------- --<br>---------- -- -------- ----------------,289888.6599999387,289885.0199999288,289556.011,289554.67500002123,289572.64,289905.751,,35,of
screen,html.Screen,1_3_1_0_1_36,2021-04-11T14:53:15.738Z,,,,,,,,,,,,,,,,11,,,,,,,,,,,,,,351.204000106256,,response,,,,4,A,,,,,,Space,keypress(Space),,,,silence,,,,----- -- ---- --- -- --- -------- ------------ ---------- --<br>- ------- ------ --------- -- ------------ -- --- ---- -----<br>------ ---- ---- ------ ------ ------- --- ----- ---------<br>---- --- -------- -------- --- --- -- writing --- --- -----<br>-- --- ------ ------- --- --- -------- ---- --------- --<br>---------- -- -------- ----------------,290260.3400000371,290256.95500010625,289888.971,289889.8300000001,289905.751,290272.308,,36,writing
screen,html.Screen,1_3_1_0_1_37,2021-04-11T14:53:16.087Z,,,,,,,,,,,,,,,,11,,,,,,,,,,,,,,334.6620000807452,,response,,,,4,A,,,,,,Space,keypress(Space),,,,silence,,,,----- -- ---- --- -- --- -------- ------------ ---------- --<br>- ------- ------ --------- -- ------------ -- --- ---- -----<br>------ ---- ---- ------ ------ ------- --- ----- ---------<br>---- --- -------- -------- --- --- -- ------- was --- -----<br>-- --- ------ ------- --- --- -------- ---- --------- --<br>---------- -- -------- ----------------,290610.1299999282,290606.97000008076,290256.171,290261.5100000985,290272.308,290622.555,,37,was
screen,html.Screen,1_3_1_0_1_38,2021-04-11T14:53:16.552Z,,,,,,,,,,,,,,,,11,,,,,,,,,,,,,,449.9049999375711,,response,,,,4,A,,,,,,Space,keypress(Space),,,,silence,,,,----- -- ---- --- -- --- -------- ------------ ---------- --<br>- ------- ------ --------- -- ------------ -- --- ---- -----<br>------ ---- ---- ------ ------ ------- --- ----- ---------<br>---- --- -------- -------- --- --- -- ------- --- not -----<br>-- --- ------ ------- --- --- -------- ---- --------- --<br>---------- -- -------- ----------------,291074.7149998788,291072.45999993756,290605.97,290611.43000004813,290622.555,291088.882,,38,not
