sender,sender_type,sender_id,timestamp,meta,,Blues,Classical,Country,Dance,Electronic,Folk,Gospel,Hip-Hop,Jazz,Latin,Musical/Film,New-age,Pop,Prolific_id,Provo_ID,R&B,Rap,Reggae,Religious,Rock,Soul,Swing,Traditional,age,artist_name,correct,correctResponse,distraction,duration,education,ended_on,familiarity,gender,headphone_check_performance,item,list,music_frequency,offensiveness,pleasantness,position_correct,preference,response,response_action,snippet_file,song_name,song_rating,sound,stimulus_1,stimulus_2,stimulus_3,text,time_commit,time_end,time_render,time_run,time_show,time_switch,url,word,word_ID
Prolific ID,html.Form,0,2021-04-26T11:20:23.290Z,"{""labjs_version"":""20.2.2"",""labjs_build"":{""flavor"":""production"",""commit"":""a25486e0c714a0ae2ce03ff94b7bb6896854dcfa""},""location"":""https://run.pavlovia.org/mvasilev/prolific_music_b/"",""userAgent"":""Mozilla/5.0 (Macintosh; Intel Mac OS X 10_15_6) AppleWebKit/605.1.15 (KHTML, like Gecko) Version/14.0.3 Safari/605.1.15"",""platform"":""MacIntel"",""language"":""en-gb"",""locale"":""en-GB"",""timeZone"":""Europe/London"",""timezoneOffset"":-60,""screen_width"":1280,""screen_height"":800,""scroll_width"":1280,""scroll_height"":647,""window_innerWidth"":1280,""window_innerHeight"":695,""devicePixelRatio"":2}",,,,,,,,,,,,,,,5c28cac3867f660001ae9c4a,,,,,,,,,,,,,,,10534,,form submission,,,,,,,,,,,,,,,,,,,,,18581,18578,8030,7989,8044,18601,{},,
Introduction,html.Screen,1_0,2021-04-26T11:20:34.921Z,,,,,,,,,,,,,,,,,,,,,,,,,,,,,,,11632,,response,,,,,,,,,,,continue,click button,,,,,,,,,30212,30220,18588,18582,18601,30246,,,
Volume calibration,html.Screen,1_1,2021-04-26T11:21:09.961Z,,,,,,,,,,,,,,,,,,,,,,,,,,,,,,,35035.00000000001,,response,,,,,,,,,,,continue,click button,,,,,,,,,65253,65263.00000000001,30228,30212,30246,65280,,,
Task instructions,html.Screen,1_2,2021-04-26T11:21:21.105Z,,,,,,,,,,,,,,,,,,,,,,,,,,,,,,,11145,,response,,,,,,,,,,,continue,click button,,,,,,,,,76397,76408,65263,65254.99999999999,65280,76429,,,
Sounds,html.Screen,1_3_0_0,2021-04-26T11:21:25.374Z,,,,,,,,,,,,,,,,,,,,,,,,,,,,,,,4251,,timeout,,,,,,,,,2,,,,,,,,I,S,O,,80666,80663,76413,76397,76429,80680,,,
Judgement,html.Screen,1_3_0_1,2021-04-26T11:21:26.619Z,,,,,,,,,,,,,,,,,,,,,,,,,,,,true,2,,1260,,response,,,,,,,,,2,,2,click #choice-2,,,,,I,S,O,,81911,81923,80663,80666,80680,81930,,,
Trial,flow.Sequence,1_3_0,2021-04-26T11:21:26.621Z,,,,,,,,,,,,,,,,,,,,,,,,,,,,,,,5494,,completion,,,,,,,,,2,,,,,,,,I,S,O,,81913,81923,76413,76397,76429,81930,,,
Sounds,html.Screen,1_3_1_0,2021-04-26T11:21:30.872Z,,,,,,,,,,,,,,,,,,,,,,,,,,,,,,,4250,,timeout,,,,,,,,,3,,,,,,,,O,I,S,,86165,86164,81916,81914,81930,86180,,,
Judgement,html.Screen,1_3_1_1,2021-04-26T11:21:31.700Z,,,,,,,,,,,,,,,,,,,,,,,,,,,,true,3,,841,,response,,,,,,,,,3,,3,click #choice-3,,,,,O,I,S,,86993,87005,86164,86165,86180,87013,,,
Trial,flow.Sequence,1_3_1,2021-04-26T11:21:31.701Z,,,,,,,,,,,,,,,,,,,,,,,,,,,,,,,5075,,completion,,,,,,,,,3,,,,,,,,O,I,S,,86993,87005,81916,81913,81930,87013,,,
Sounds,html.Screen,1_3_2_0,2021-04-26T11:21:35.955Z,,,,,,,,,,,,,,,,,,,,,,,,,,,,,,,4251,,timeout,,,,,,,,,3,,,,,,,,I,O,S,,91247,91247,86997,86993,87013,91264,,,
Judgement,html.Screen,1_3_2_1,2021-04-26T11:21:36.605Z,,,,,,,,,,,,,,,,,,,,,,,,,,,,true,3,,663,,response,,,,,,,,,3,,3,click #choice-3,,,,,I,O,S,,91897,91910,91247,91247,91264,91931,,,
Trial,flow.Sequence,1_3_2,2021-04-26T11:21:36.605Z,,,,,,,,,,,,,,,,,,,,,,,,,,,,,,,4897,,completion,,,,,,,,,3,,,,,,,,I,O,S,,91898,91910,86997,86993,87013,91931,,,
Sounds,html.Screen,1_3_3_0,2021-04-26T11:21:40.872Z,,,,,,,,,,,,,,,,,,,,,,,,,,,,,,,4249,,timeout,,,,,,,,,2,,,,,,,,O,S,I,,96165,96164,91914,91898,91931,96180,,,
Judgement,html.Screen,1_3_3_1,2021-04-26T11:21:41.552Z,,,,,,,,,,,,,,,,,,,,,,,,,,,,true,2,,694,,response,,,,,,,,,2,,2,click #choice-2,,,,,O,S,I,,96844.00000000001,96858,96164,96165,96180,96863,,,
Trial,flow.Sequence,1_3_3,2021-04-26T11:21:41.553Z,,,,,,,,,,,,,,,,,,,,,,,,,,,,,,,4927,,completion,,,,,,,,,2,,,,,,,,O,S,I,,96845,96858,91914,91898,91931,96863,,,
Sounds,html.Screen,1_3_4_0,2021-04-26T11:21:45.806Z,,,,,,,,,,,,,,,,,,,,,,,,,,,,,,,4250,,timeout,,,,,,,,,1,,,,,,,,S,O,I,,101099,101098,96847,96846,96863,101113,,,
Judgement,html.Screen,1_3_4_1,2021-04-26T11:21:46.644Z,,,,,,,,,,,,,,,,,,,,,,,,,,,,true,1,,851,,response,,,,,,,,,1,,1,click #choice-1,,,,,S,O,I,,101936,101949,101098,101099,101113,101964,,,
Trial,flow.Sequence,1_3_4,2021-04-26T11:21:46.644Z,,,,,,,,,,,,,,,,,,,,,,,,,,,,,,,5086,,completion,,,,,,,,,1,,,,,,,,S,O,I,,101936,101949,96847,96846,96863,101964,,,
Sounds,html.Screen,1_3_5_0,2021-04-26T11:21:50.905Z,,,,,,,,,,,,,,,,,,,,,,,,,,,,,,,4250,,timeout,,,,,,,,,1,,,,,,,,S,I,O,,106198.00000000001,106197,101948,101936,101964,106214,,,
Judgement,html.Screen,1_3_5_1,2021-04-26T11:21:51.625Z,,,,,,,,,,,,,,,,,,,,,,,,,,,,true,1,,730,,response,,,,,,,,,1,,1,click #choice-1,,,,,S,I,O,,106917,106927,106197,106198.00000000001,106214,106947,,,
Trial,flow.Sequence,1_3_5,2021-04-26T11:21:51.625Z,,,,,,,,,,,,,,,,,,,,,,,,,,,,,,,4963,,completion,,,,,,,,,1,,,,,,,,S,I,O,,106918,106927,101948,101936,101964,106947,,,
Task,flow.Loop,1_3,2021-04-26T11:21:51.627Z,,,,,,,,,,,,,,,,,,,,,,,,,,,,,,,30498,,completion,,,1,,,,,,,,,,,,,,,,,,106920,106927,76413,76397,76429,106947,,,
Trap,html.Screen,1_4,2021-04-26T11:21:51.629Z,,,,,,,,,,,,,,,,,,,,,,,,,,,,,,,NaN,,skipped,,,,,,,,,,,,,,,,,,,,,106921,106927,,106921,,106947,,,
Thanks,html.Screen,1_5,2021-04-26T11:22:09.995Z,,,,,,,,,,,,,,,,,,,,,,,,,,,,,,,18370,,response,,,,,,,,,,,continue,click button,,,,,,,,,125289,125301,106931,106921,106947,130064,,,
Headphone screening,flow.Sequence,1,2021-04-26T11:22:09.995Z,,,,,,,,,,,,,,,,,,,,,,,,,,,,,,,106700,,completion,,,,,,,,,,,,,,,,,,,,,125289,125301,18588,18582,18601,130064,,,
Instructions,html.Page,2_0,2021-04-26T11:22:36.312Z,,,,,,,,,,,,,,,,,,,,,,,,,,,,,,,21540,,form submission,,,,,,,,,,,,,,,,,,,,,151605,151604,130061,130030,130064,151621,,,
Holding screen,html.Screen,2_1_0_0,2021-04-26T11:22:46.306Z,,,,,,,,,,,,,,,,,,,,,,,,,,,,,,,10032,,timeout,,,,,,,,,,,,,,,,,,,,,161600,161599,151620,151608,151621,161653,,,
screen,html.Screen,2_1_0_1_0,2021-04-26T11:22:47.956Z,,,,,,,,,,,,,,,,,53,,,,,,,,,,,,,,1662,,response,,,,99,,,,,,,Space,keypress(Space),,,,,,,,When -- ----- -- ------ - ------- --- ----------<br>------------- ------ ------ ---- ---- ------- ----- -- ----<br>-------- ------- -- ---------- --- - --- ----- ----- ----<br>---- --- --- ----- --- ---- ---- ------- ----- ---- -------<br>--- --- -- ----- -- --- ---- -- --- ---- -- ------ ------<br>--- ----- -- ----,163250,163261,161599,161604,161653,163282,,0,When
screen,html.Screen,2_1_0_1_1,2021-04-26T11:22:48.598Z,,,,,,,,,,,,,,,,,53,,,,,,,,,,,,,,641,,response,,,,99,,,,,,,Space,keypress(Space),,,,,,,,---- it ----- -- ------ - ------- --- ----------<br>------------- ------ ------ ---- ---- ------- ----- -- ----<br>-------- ------- -- ---------- --- - --- ----- ----- ----<br>---- --- --- ----- --- ---- ---- ------- ----- ---- -------<br>--- --- -- ----- -- --- ---- -- --- ---- -- ------ ------<br>--- ----- -- ----,163892,163906,163265,163250,163282,163932,,1,it
screen,html.Screen,2_1_0_1_2,2021-04-26T11:22:49.117Z,,,,,,,,,,,,,,,,,53,,,,,,,,,,,,,,510.0000000000291,,response,,,,99,,,,,,,Space,keypress(Space),,,,,,,,---- -- comes -- ------ - ------- --- ----------<br>------------- ------ ------ ---- ---- ------- ----- -- ----<br>-------- ------- -- ---------- --- - --- ----- ----- ----<br>---- --- --- ----- --- ---- ---- ------- ----- ---- -------<br>--- --- -- ----- -- --- ---- -- --- ---- -- ------ ------<br>--- ----- -- ----,164411,164426.00000000003,163916,163893,163932,164449,,2,comes
screen,html.Screen,2_1_0_1_3,2021-04-26T11:22:49.592Z,,,,,,,,,,,,,,,,,53,,,,,,,,,,,,,,469,,response,,,,99,,,,,,,Space,keypress(Space),,,,,,,,---- -- ----- to ------ - ------- --- ----------<br>------------- ------ ------ ---- ---- ------- ----- -- ----<br>-------- ------- -- ---------- --- - --- ----- ----- ----<br>---- --- --- ----- --- ---- ---- ------- ----- ---- -------<br>--- --- -- ----- -- --- ---- -- --- ---- -- ------ ------<br>--- ----- -- ----,164886,164901,164432,164412,164449,164915,,3,to
screen,html.Screen,2_1_0_1_4,2021-04-26T11:22:50.012Z,,,,,,,,,,,,,,,,,53,,,,,,,,,,,,,,422,,response,,,,99,,,,,,,Space,keypress(Space),,,,,,,,---- -- ----- -- having - ------- --- ----------<br>------------- ------ ------ ---- ---- ------- ----- -- ----<br>-------- ------- -- ---------- --- - --- ----- ----- ----<br>---- --- --- ----- --- ---- ---- ------- ----- ---- -------<br>--- --- -- ----- -- --- ---- -- --- ---- -- ------ ------<br>--- ----- -- ----,165307.00000000003,165320,164898,164888,164915,165349,,4,having
screen,html.Screen,2_1_0_1_5,2021-04-26T11:22:50.448Z,,,,,,,,,,,,,,,,,53,,,,,,,,,,,,,,424,,response,,,,99,,,,,,,Space,keypress(Space),,,,,,,,---- -- ----- -- ------ a ------- --- ----------<br>------------- ------ ------ ---- ---- ------- ----- -- ----<br>-------- ------- -- ---------- --- - --- ----- ----- ----<br>---- --- --- ----- --- ---- ---- ------- ----- ---- -------<br>--- --- -- ----- -- --- ---- -- --- ---- -- ------ ------<br>--- ----- -- ----,165742,165756,165332,165307.00000000003,165349,165782,,5,a
screen,html.Screen,2_1_0_1_6,2021-04-26T11:22:51.073Z,,,,,,,,,,,,,,,,,53,,,,,,,,,,,,,,615,,response,,,,99,,,,,,,Space,keypress(Space),,,,,,,,---- -- ----- -- ------ - lasting --- ----------<br>------------- ------ ------ ---- ---- ------- ----- -- ----<br>-------- ------- -- ---------- --- - --- ----- ----- ----<br>---- --- --- ----- --- ---- ---- ------- ----- ---- -------<br>--- --- -- ----- -- --- ---- -- --- ---- -- ------ ------<br>--- ----- -- ----,166367,166381,165766,165742,165782,166399,,6,lasting
screen,html.Screen,2_1_0_1_7,2021-04-26T11:22:51.451Z,,,,,,,,,,,,,,,,,53,,,,,,,,,,,,,,377,,response,,,,99,,,,,,,Space,keypress(Space),,,,,,,,---- -- ----- -- ------ - ------- and ----------<br>------------- ------ ------ ---- ---- ------- ----- -- ----<br>-------- ------- -- ---------- --- - --- ----- ----- ----<br>---- --- --- ----- --- ---- ---- ------- ----- ---- -------<br>--- --- -- ----- -- --- ---- -- --- ---- -- ------ ------<br>--- ----- -- ----,166745,166759,166382,166367,166399,166765,,7,and
screen,html.Screen,2_1_0_1_8,2021-04-26T11:22:51.974Z,,,,,,,,,,,,,,,,,53,,,,,,,,,,,,,,532,,response,,,,99,,,,,,,Space,keypress(Space),,,,,,,,---- -- ----- -- ------ - ------- --- fulfilling<br>------------- ------ ------ ---- ---- ------- ----- -- ----<br>-------- ------- -- ---------- --- - --- ----- ----- ----<br>---- --- --- ----- --- ---- ---- ------- ----- ---- -------<br>--- --- -- ----- -- --- ---- -- --- ---- -- ------ ------<br>--- ----- -- ----,167268,167282,166750,166746,166765,167299,,8,fulfilling
screen,html.Screen,2_1_0_1_9,2021-04-26T11:22:52.433Z,,,,,,,,,,,,,,,,,53,,,,,,,,,,,,,,459,,response,,,,99,,,,,,,Space,keypress(Space),,,,,,,,"---- -- ----- -- ------ - ------- --- ----------<br>relationship, ------ ------ ---- ---- ------- ----- -- ----<br>-------- ------- -- ---------- --- - --- ----- ----- ----<br>---- --- --- ----- --- ---- ---- ------- ----- ---- -------<br>--- --- -- ----- -- --- ---- -- --- ---- -- ------ ------<br>--- ----- -- ----",167727,167741,167282,167270,167299,167766,,9,"relationship,"
screen,html.Screen,2_1_0_1_10,2021-04-26T11:22:52.952Z,,,,,,,,,,,,,,,,,53,,,,,,,,,,,,,,512,,response,,,,99,,,,,,,Space,keypress(Space),,,,,,,,---- -- ----- -- ------ - ------- --- ----------<br>------------- common ------ ---- ---- ------- ----- -- ----<br>-------- ------- -- ---------- --- - --- ----- ----- ----<br>---- --- --- ----- --- ---- ---- ------- ----- ---- -------<br>--- --- -- ----- -- --- ---- -- --- ---- -- ------ ------<br>--- ----- -- ----,168246,168261,167749,167728,167766,168281,,10,common
screen,html.Screen,2_1_0_1_11,2021-04-26T11:22:53.360Z,,,,,,,,,,,,,,,,,53,,,,,,,,,,,,,,401,,response,,,,99,,,,,,,Space,keypress(Space),,,,,,,,---- -- ----- -- ------ - ------- --- ----------<br>------------- ------ wisdom ---- ---- ------- ----- -- ----<br>-------- ------- -- ---------- --- - --- ----- ----- ----<br>---- --- --- ----- --- ---- ---- ------- ----- ---- -------<br>--- --- -- ----- -- --- ---- -- --- ---- -- ------ ------<br>--- ----- -- ----,168654,168667,168266,168247,168281,168682,,11,wisdom
screen,html.Screen,2_1_0_1_12,2021-04-26T11:22:53.700Z,,,,,,,,,,,,,,,,,53,,,,,,,,,,,,,,343,,response,,,,99,,,,,,,Space,keypress(Space),,,,,,,,---- -- ----- -- ------ - ------- --- ----------<br>------------- ------ ------ says ---- ------- ----- -- ----<br>-------- ------- -- ---------- --- - --- ----- ----- ----<br>---- --- --- ----- --- ---- ---- ------- ----- ---- -------<br>--- --- -- ----- -- --- ---- -- --- ---- -- ------ ------<br>--- ----- -- ----,168995,169009,168666,168655,168682,169015,,12,says
screen,html.Screen,2_1_0_1_13,2021-04-26T11:22:54.383Z,,,,,,,,,,,,,,,,,53,,,,,,,,,,,,,,692,,response,,,,99,,,,,,,Space,keypress(Space),,,,,,,,---- -- ----- -- ------ - ------- --- ----------<br>------------- ------ ------ ---- that ------- ----- -- ----<br>-------- ------- -- ---------- --- - --- ----- ----- ----<br>---- --- --- ----- --- ---- ---- ------- ----- ---- -------<br>--- --- -- ----- -- --- ---- -- --- ---- -- ------ ------<br>--- ----- -- ----,169678,169692,169000,168995,169015,169716,,13,that
screen,html.Screen,2_1_0_1_14,2021-04-26T11:22:54.798Z,,,,,,,,,,,,,,,,,53,,,,,,,,,,,,,,407,,response,,,,99,,,,,,,Space,keypress(Space),,,,,,,,---- -- ----- -- ------ - ------- --- ----------<br>------------- ------ ------ ---- ---- feeling ----- -- ----<br>-------- ------- -- ---------- --- - --- ----- ----- ----<br>---- --- --- ----- --- ---- ---- ------- ----- ---- -------<br>--- --- -- ----- -- --- ---- -- --- ---- -- ------ ------<br>--- ----- -- ----,170092,170106,169699,169678,169716,170132,,14,feeling
screen,html.Screen,2_1_0_1_15,2021-04-26T11:22:55.234Z,,,,,,,,,,,,,,,,,53,,,,,,,,,,,,,,426,,response,,,,99,,,,,,,Space,keypress(Space),,,,,,,,---- -- ----- -- ------ - ------- --- ----------<br>------------- ------ ------ ---- ---- ------- close -- ----<br>-------- ------- -- ---------- --- - --- ----- ----- ----<br>---- --- --- ----- --- ---- ---- ------- ----- ---- -------<br>--- --- -- ----- -- --- ---- -- --- ---- -- ------ ------<br>--- ----- -- ----,170528,170542,170116,170093.00000000003,170132,170566,,15,close
screen,html.Screen,2_1_0_1_16,2021-04-26T11:22:55.622Z,,,,,,,,,,,,,,,,,53,,,,,,,,,,,,,,381,,response,,,,99,,,,,,,Space,keypress(Space),,,,,,,,---- -- ----- -- ------ - ------- --- ----------<br>------------- ------ ------ ---- ---- ------- ----- to ----<br>-------- ------- -- ---------- --- - --- ----- ----- ----<br>---- --- --- ----- --- ---- ---- ------- ----- ---- -------<br>--- --- -- ----- -- --- ---- -- --- ---- -- ------ ------<br>--- ----- -- ----,170916,170930,170549,170528,170566,170949,,16,to
screen,html.Screen,2_1_0_1_17,2021-04-26T11:22:55.984Z,,,,,,,,,,,,,,,,,53,,,,,,,,,,,,,,360,,response,,,,99,,,,,,,Space,keypress(Space),,,,,,,,---- -- ----- -- ------ - ------- --- ----------<br>------------- ------ ------ ---- ---- ------- ----- -- your<br>-------- ------- -- ---------- --- - --- ----- ----- ----<br>---- --- --- ----- --- ---- ---- ------- ----- ---- -------<br>--- --- -- ----- -- --- ---- -- --- ---- -- ------ ------<br>--- ----- -- ----,171278,171292,170932,170917,170949,171299,,17,your
screen,html.Screen,2_1_0_1_18,2021-04-26T11:22:56.473Z,,,,,,,,,,,,,,,,,53,,,,,,,,,,,,,,499,,response,,,,99,,,,,,,Space,keypress(Space),,,,,,,,---- -- ----- -- ------ - ------- --- ----------<br>------------- ------ ------ ---- ---- ------- ----- -- ----<br>romantic ------- -- ---------- --- - --- ----- ----- ----<br>---- --- --- ----- --- ---- ---- ------- ----- ---- -------<br>--- --- -- ----- -- --- ---- -- --- ---- -- ------ ------<br>--- ----- -- ----,171767,171781,171282,171279,171299,171799,,18,romantic
screen,html.Screen,2_1_0_1_19,2021-04-26T11:22:56.754Z,,,,,,,,,,,,,,,,,53,,,,,,,,,,,,,,281.0000000000291,,response,,,,99,,,,,,,Space,keypress(Space),,,,,,,,---- -- ----- -- ------ - ------- --- ----------<br>------------- ------ ------ ---- ---- ------- ----- -- ----<br>-------- partner -- ---------- --- - --- ----- ----- ----<br>---- --- --- ----- --- ---- ---- ------- ----- ---- -------<br>--- --- -- ----- -- --- ---- -- --- ---- -- ------ ------<br>--- ----- -- ----,172048,172063.00000000003,171782,171768,171799,172082,,19,partner
screen,html.Screen,2_1_0_1_20,2021-04-26T11:22:57.133Z,,,,,,,,,,,,,,,,,53,,,,,,,,,,,,,,375,,response,,,,99,,,,,,,Space,keypress(Space),,,,,,,,---- -- ----- -- ------ - ------- --- ----------<br>------------- ------ ------ ---- ---- ------- ----- -- ----<br>-------- ------- is ---------- --- - --- ----- ----- ----<br>---- --- --- ----- --- ---- ---- ------- ----- ---- -------<br>--- --- -- ----- -- --- ---- -- --- ---- -- ------ ------<br>--- ----- -- ----,172427,172441,172066,172049,172082,172449,,20,is
screen,html.Screen,2_1_0_1_21,2021-04-26T11:22:57.601Z,,,,,,,,,,,,,,,,,53,,,,,,,,,,,,,,477,,response,,,,99,,,,,,,Space,keypress(Space),,,,,,,,---- -- ----- -- ------ - ------- --- ----------<br>------------- ------ ------ ---- ---- ------- ----- -- ----<br>-------- ------- -- paramount. --- - --- ----- ----- ----<br>---- --- --- ----- --- ---- ---- ------- ----- ---- -------<br>--- --- -- ----- -- --- ---- -- --- ---- -- ------ ------<br>--- ----- -- ----,172895,172909,172432,172428,172449,172932,,21,paramount.
screen,html.Screen,2_1_0_1_22,2021-04-26T11:22:58.046Z,,,,,,,,,,,,,,,,,53,,,,,,,,,,,,,,439,,response,,,,99,,,,,,,Space,keypress(Space),,,,,,,,---- -- ----- -- ------ - ------- --- ----------<br>------------- ------ ------ ---- ---- ------- ----- -- ----<br>-------- ------- -- ---------- But - --- ----- ----- ----<br>---- --- --- ----- --- ---- ---- ------- ----- ---- -------<br>--- --- -- ----- -- --- ---- -- --- ---- -- ------ ------<br>--- ----- -- ----,173341,173355,172916,172895,172932,173382,,22,But
screen,html.Screen,2_1_0_1_23,2021-04-26T11:22:58.413Z,,,,,,,,,,,,,,,,,53,,,,,,,,,,,,,,352,,response,,,,99,,,,,,,Space,keypress(Space),,,,,,,,---- -- ----- -- ------ - ------- --- ----------<br>------------- ------ ------ ---- ---- ------- ----- -- ----<br>-------- ------- -- ---------- --- a --- ----- ----- ----<br>---- --- --- ----- --- ---- ---- ------- ----- ---- -------<br>--- --- -- ----- -- --- ---- -- --- ---- -- ------ ------<br>--- ----- -- ----,173707,173719,173367,173341,173382,173732,,23,a
screen,html.Screen,2_1_0_1_24,2021-04-26T11:22:58.762Z,,,,,,,,,,,,,,,,,53,,,,,,,,,,,,,,349,,response,,,,99,,,,,,,Space,keypress(Space),,,,,,,,---- -- ----- -- ------ - ------- --- ----------<br>------------- ------ ------ ---- ---- ------- ----- -- ----<br>-------- ------- -- ---------- --- - new ----- ----- ----<br>---- --- --- ----- --- ---- ---- ------- ----- ---- -------<br>--- --- -- ----- -- --- ---- -- --- ---- -- ------ ------<br>--- ----- -- ----,174056,174065,173716,173708,173732,174083,,24,new
screen,html.Screen,2_1_0_1_25,2021-04-26T11:22:59.100Z,,,,,,,,,,,,,,,,,53,,,,,,,,,,,,,,281,,response,,,,99,,,,,,,Space,keypress(Space),,,,,,,,---- -- ----- -- ------ - ------- --- ----------<br>------------- ------ ------ ---- ---- ------- ----- -- ----<br>-------- ------- -- ---------- --- - --- study ----- ----<br>---- --- --- ----- --- ---- ---- ------- ----- ---- -------<br>--- --- -- ----- -- --- ---- -- --- ---- -- ------ ------<br>--- ----- -- ----,174394,174347,174066,174056,174083,174416,,25,study
screen,html.Screen,2_1_0_1_26,2021-04-26T11:22:59.477Z,,,,,,,,,,,,,,,,,53,,,,,,,,,,,,,,387,,response,,,,99,,,,,,,Space,keypress(Space),,,,,,,,---- -- ----- -- ------ - ------- --- ----------<br>------------- ------ ------ ---- ---- ------- ----- -- ----<br>-------- ------- -- ---------- --- - --- ----- finds ----<br>---- --- --- ----- --- ---- ---- ------- ----- ---- -------<br>--- --- -- ----- -- --- ---- -- --- ---- -- ------ ------<br>--- ----- -- ----,174772,174786,174399,174395,174416,174799,,26,finds
screen,html.Screen,2_1_0_1_27,2021-04-26T11:22:59.808Z,,,,,,,,,,,,,,,,,53,,,,,,,,,,,,,,335,,response,,,,99,,,,,,,Space,keypress(Space),,,,,,,,---- -- ----- -- ------ - ------- --- ----------<br>------------- ------ ------ ---- ---- ------- ----- -- ----<br>-------- ------- -- ---------- --- - --- ----- ----- that<br>---- --- --- ----- --- ---- ---- ------- ----- ---- -------<br>--- --- -- ----- -- --- ---- -- --- ---- -- ------ ------<br>--- ----- -- ----,175102,175117,174782,174772,174799,175133,,27,that
screen,html.Screen,2_1_0_1_28,2021-04-26T11:23:00.259Z,,,,,,,,,,,,,,,,,53,,,,,,,,,,,,,,451,,response,,,,99,,,,,,,Space,keypress(Space),,,,,,,,---- -- ----- -- ------ - ------- --- ----------<br>------------- ------ ------ ---- ---- ------- ----- -- ----<br>-------- ------- -- ---------- --- - --- ----- ----- ----<br>it's --- --- ----- --- ---- ---- ------- ----- ---- -------<br>--- --- -- ----- -- --- ---- -- --- ---- -- ------ ------<br>--- ----- -- ----,175554,175567,175116,175103,175133,175583,,28,it's
screen,html.Screen,2_1_0_1_29,2021-04-26T11:23:00.538Z,,,,,,,,,,,,,,,,,53,,,,,,,,,,,,,,279,,response,,,,99,,,,,,,Space,keypress(Space),,,,,,,,---- -- ----- -- ------ - ------- --- ----------<br>------------- ------ ------ ---- ---- ------- ----- -- ----<br>-------- ------- -- ---------- --- - --- ----- ----- ----<br>---- not --- ----- --- ---- ---- ------- ----- ---- -------<br>--- --- -- ----- -- --- ---- -- --- ---- -- ------ ------<br>--- ----- -- ----,175832,175845,175566,175554,175583,175865,,29,not
screen,html.Screen,2_1_0_1_30,2021-04-26T11:23:01.008Z,,,,,,,,,,,,,,,,,53,,,,,,,,,,,,,,466,,response,,,,99,,,,,,,Space,keypress(Space),,,,,,,,---- -- ----- -- ------ - ------- --- ----------<br>------------- ------ ------ ---- ---- ------- ----- -- ----<br>-------- ------- -- ---------- --- - --- ----- ----- ----<br>---- --- how ----- --- ---- ---- ------- ----- ---- -------<br>--- --- -- ----- -- --- ---- -- --- ---- -- ------ ------<br>--- ----- -- ----,176302,176315,175849,175834,175865,176333,,30,how
screen,html.Screen,2_1_0_1_31,2021-04-26T11:23:01.389Z,,,,,,,,,,,,,,,,,53,,,,,,,,,,,,,,381,,response,,,,99,,,,,,,Space,keypress(Space),,,,,,,,---- -- ----- -- ------ - ------- --- ----------<br>------------- ------ ------ ---- ---- ------- ----- -- ----<br>-------- ------- -- ---------- --- - --- ----- ----- ----<br>---- --- --- close --- ---- ---- ------- ----- ---- -------<br>--- --- -- ----- -- --- ---- -- --- ---- -- ------ ------<br>--- ----- -- ----,176683,176697,176316,176302,176333,176715,,31,close
screen,html.Screen,2_1_0_1_32,2021-04-26T11:23:01.746Z,,,,,,,,,,,,,,,,,53,,,,,,,,,,,,,,353,,response,,,,99,,,,,,,Space,keypress(Space),,,,,,,,---- -- ----- -- ------ - ------- --- ----------<br>------------- ------ ------ ---- ---- ------- ----- -- ----<br>-------- ------- -- ---------- --- - --- ----- ----- ----<br>---- --- --- ----- you ---- ---- ------- ----- ---- -------<br>--- --- -- ----- -- --- ---- -- --- ---- -- ------ ------<br>--- ----- -- ----,177041,177052,176699,176684,176715,177066,,32,you
screen,html.Screen,2_1_0_1_33,2021-04-26T11:23:02.045Z,,,,,,,,,,,,,,,,,53,,,,,,,,,,,,,,304,,response,,,,99,,,,,,,Space,keypress(Space),,,,,,,,---- -- ----- -- ------ - ------- --- ----------<br>------------- ------ ------ ---- ---- ------- ----- -- ----<br>-------- ------- -- ---------- --- - --- ----- ----- ----<br>---- --- --- ----- --- feel ---- ------- ----- ---- -------<br>--- --- -- ----- -- --- ---- -- --- ---- -- ------ ------<br>--- ----- -- ----,177339,177353,177049,177041,177066,177366,,33,feel
screen,html.Screen,2_1_0_1_34,2021-04-26T11:23:02.343Z,,,,,,,,,,,,,,,,,53,,,,,,,,,,,,,,303.0000000000291,,response,,,,99,,,,,,,Space,keypress(Space),,,,,,,,---- -- ----- -- ------ - ------- --- ----------<br>------------- ------ ------ ---- ---- ------- ----- -- ----<br>-------- ------- -- ---------- --- - --- ----- ----- ----<br>---- --- --- ----- --- ---- that ------- ----- ---- -------<br>--- --- -- ----- -- --- ---- -- --- ---- -- ------ ------<br>--- ----- -- ----,177638,177652.00000000003,177349,177341,177366,177666,,34,that
screen,html.Screen,2_1_0_1_35,2021-04-26T11:23:02.711Z,,,,,,,,,,,,,,,,,53,,,,,,,,,,,,,,371,,response,,,,99,,,,,,,Space,keypress(Space),,,,,,,,---- -- ----- -- ------ - ------- --- ----------<br>------------- ------ ------ ---- ---- ------- ----- -- ----<br>-------- ------- -- ---------- --- - --- ----- ----- ----<br>---- --- --- ----- --- ---- ---- matters ----- ---- -------<br>--- --- -- ----- -- --- ---- -- --- ---- -- ------ ------<br>--- ----- -- ----,178005,178020,177649,177638,177666,178032,,35,matters
screen,html.Screen,2_1_0_1_36,2021-04-26T11:23:03.048Z,,,,,,,,,,,,,,,,,53,,,,,,,,,,,,,,341,,response,,,,99,,,,,,,Space,keypress(Space),,,,,,,,"---- -- ----- -- ------ - ------- --- ----------<br>------------- ------ ------ ---- ---- ------- ----- -- ----<br>-------- ------- -- ---------- --- - --- ----- ----- ----<br>---- --- --- ----- --- ---- ---- ------- most, ---- -------<br>--- --- -- ----- -- --- ---- -- --- ---- -- ------ ------<br>--- ----- -- ----",178343.00000000003,178357,178016,178006,178032,178365,,36,"most,"
screen,html.Screen,2_1_0_1_37,2021-04-26T11:23:03.347Z,,,,,,,,,,,,,,,,,53,,,,,,,,,,,,,,306,,response,,,,99,,,,,,,Space,keypress(Space),,,,,,,,---- -- ----- -- ------ - ------- --- ----------<br>------------- ------ ------ ---- ---- ------- ----- -- ----<br>-------- ------- -- ---------- --- - --- ----- ----- ----<br>---- --- --- ----- --- ---- ---- ------- ----- it's -------<br>--- --- -- ----- -- --- ---- -- --- ---- -- ------ ------<br>--- ----- -- ----,178642,178655,178349,178343.00000000003,178365,178666,,37,it's
screen,html.Screen,2_1_0_1_38,2021-04-26T11:23:03.794Z,,,,,,,,,,,,,,,,,53,,,,,,,,,,,,,,452,,response,,,,99,,,,,,,Space,keypress(Space),,,,,,,,---- -- ----- -- ------ - ------- --- ----------<br>------------- ------ ------ ---- ---- ------- ----- -- ----<br>-------- ------- -- ---------- --- - --- ----- ----- ----<br>---- --- --- ----- --- ---- ---- ------- ----- ---- whether<br>--- --- -- ----- -- --- ---- -- --- ---- -- ------ ------<br>--- ----- -- ----,179088,179101,178649,178642,178666,179116,,38,whether
screen,html.Screen,2_1_0_1_39,2021-04-26T11:23:04.401Z,,,,,,,,,,,,,,,,,53,,,,,,,,,,,,,,609,,response,,,,99,,,,,,,Space,keypress(Space),,,,,,,,---- -- ----- -- ------ - ------- --- ----------<br>------------- ------ ------ ---- ---- ------- ----- -- ----<br>-------- ------- -- ---------- --- - --- ----- ----- ----<br>---- --- --- ----- --- ---- ---- ------- ----- ---- -------<br>you --- -- ----- -- --- ---- -- --- ---- -- ------ ------<br>--- ----- -- ----,179696,179708,179099,179089,179116,179733,,39,you
screen,html.Screen,2_1_0_1_40,2021-04-26T11:23:04.762Z,,,,,,,,,,,,,,,,,53,,,,,,,,,,,,,,353.0000000000291,,response,,,,99,,,,,,,Space,keypress(Space),,,,,,,,---- -- ----- -- ------ - ------- --- ----------<br>------------- ------ ------ ---- ---- ------- ----- -- ----<br>-------- ------- -- ---------- --- - --- ----- ----- ----<br>---- --- --- ----- --- ---- ---- ------- ----- ---- -------<br>--- are -- ----- -- --- ---- -- --- ---- -- ------ ------<br>--- ----- -- ----,180056,180069.00000000003,179716,179697,179733,180083,,40,are
screen,html.Screen,2_1_0_1_41,2021-04-26T11:23:05.016Z,,,,,,,,,,,,,,,,,53,,,,,,,,,,,,,,259.0000000000291,,response,,,,99,,,,,,,Space,keypress(Space),,,,,,,,---- -- ----- -- ------ - ------- --- ----------<br>------------- ------ ------ ---- ---- ------- ----- -- ----<br>-------- ------- -- ---------- --- - --- ----- ----- ----<br>---- --- --- ----- --- ---- ---- ------- ----- ---- -------<br>--- --- as ----- -- --- ---- -- --- ---- -- ------ ------<br>--- ----- -- ----,180311,180325.00000000003,180066,180057.00000000003,180083,180333,,41,as
screen,html.Screen,2_1_0_1_42,2021-04-26T11:23:05.370Z,,,,,,,,,,,,,,,,,53,,,,,,,,,,,,,,362,,response,,,,99,,,,,,,Space,keypress(Space),,,,,,,,---- -- ----- -- ------ - ------- --- ----------<br>------------- ------ ------ ---- ---- ------- ----- -- ----<br>-------- ------- -- ---------- --- - --- ----- ----- ----<br>---- --- --- ----- --- ---- ---- ------- ----- ---- -------<br>--- --- -- close -- --- ---- -- --- ---- -- ------ ------<br>--- ----- -- ----,180664.00000000003,180678,180316,180311,180333,180683,,42,close
screen,html.Screen,2_1_0_1_43,2021-04-26T11:23:05.707Z,,,,,,,,,,,,,,,,,53,,,,,,,,,,,,,,345,,response,,,,99,,,,,,,Space,keypress(Space),,,,,,,,---- -- ----- -- ------ - ------- --- ----------<br>------------- ------ ------ ---- ---- ------- ----- -- ----<br>-------- ------- -- ---------- --- - --- ----- ----- ----<br>---- --- --- ----- --- ---- ---- ------- ----- ---- -------<br>--- --- -- ----- as --- ---- -- --- ---- -- ------ ------<br>--- ----- -- ----,181001,181014,180669,180665,180683,181033,,43,as
screen,html.Screen,2_1_0_1_44,2021-04-26T11:23:06.282Z,,,,,,,,,,,,,,,,,53,,,,,,,,,,,,,,576,,response,,,,99,,,,,,,Space,keypress(Space),,,,,,,,---- -- ----- -- ------ - ------- --- ----------<br>------------- ------ ------ ---- ---- ------- ----- -- ----<br>-------- ------- -- ---------- --- - --- ----- ----- ----<br>---- --- --- ----- --- ---- ---- ------- ----- ---- -------<br>--- --- -- ----- -- you ---- -- --- ---- -- ------ ------<br>--- ----- -- ----,181577,181592,181016,181001,181033,181616,,44,you
screen,html.Screen,2_1_0_1_45,2021-04-26T11:23:06.549Z,,,,,,,,,,,,,,,,,53,,,,,,,,,,,,,,259,,response,,,,99,,,,,,,Space,keypress(Space),,,,,,,,---- -- ----- -- ------ - ------- --- ----------<br>------------- ------ ------ ---- ---- ------- ----- -- ----<br>-------- ------- -- ---------- --- - --- ----- ----- ----<br>---- --- --- ----- --- ---- ---- ------- ----- ---- -------<br>--- --- -- ----- -- --- want -- --- ---- -- ------ ------<br>--- ----- -- ----,181844,181858,181599,181577,181616,181866,,45,want
screen,html.Screen,2_1_0_1_46,2021-04-26T11:23:06.886Z,,,,,,,,,,,,,,,,,53,,,,,,,,,,,,,,345.0000000000291,,response,,,,99,,,,,,,Space,keypress(Space),,,,,,,,---- -- ----- -- ------ - ------- --- ----------<br>------------- ------ ------ ---- ---- ------- ----- -- ----<br>-------- ------- -- ---------- --- - --- ----- ----- ----<br>---- --- --- ----- --- ---- ---- ------- ----- ---- -------<br>--- --- -- ----- -- --- ---- to --- ---- -- ------ ------<br>--- ----- -- ----,182180,182194.00000000003,181849,181844,181866,182216,,46,to
screen,html.Screen,2_1_0_1_47,2021-04-26T11:23:07.173Z,,,,,,,,,,,,,,,,,53,,,,,,,,,,,,,,283,,response,,,,99,,,,,,,Space,keypress(Space),,,,,,,,"---- -- ----- -- ------ - ------- --- ----------<br>------------- ------ ------ ---- ---- ------- ----- -- ----<br>-------- ------- -- ---------- --- - --- ----- ----- ----<br>---- --- --- ----- --- ---- ---- ------- ----- ---- -------<br>--- --- -- ----- -- --- ---- -- be, ---- -- ------ ------<br>--- ----- -- ----",182467,182482,182199,182181,182216,182498,,47,"be,"
screen,html.Screen,2_1_0_1_48,2021-04-26T11:23:07.535Z,,,,,,,,,,,,,,,,,53,,,,,,,,,,,,,,359,,response,,,,99,,,,,,,Space,keypress(Space),,,,,,,,---- -- ----- -- ------ - ------- --- ----------<br>------------- ------ ------ ---- ---- ------- ----- -- ----<br>-------- ------- -- ---------- --- - --- ----- ----- ----<br>---- --- --- ----- --- ---- ---- ------- ----- ---- -------<br>--- --- -- ----- -- --- ---- -- --- even -- ------ ------<br>--- ----- -- ----,182829,182842,182483,182468.00000000003,182498,182849,,48,even
screen,html.Screen,2_1_0_1_49,2021-04-26T11:23:07.926Z,,,,,,,,,,,,,,,,,53,,,,,,,,,,,,,,400,,response,,,,99,,,,,,,Space,keypress(Space),,,,,,,,---- -- ----- -- ------ - ------- --- ----------<br>------------- ------ ------ ---- ---- ------- ----- -- ----<br>-------- ------- -- ---------- --- - --- ----- ----- ----<br>---- --- --- ----- --- ---- ---- ------- ----- ---- -------<br>--- --- -- ----- -- --- ---- -- --- ---- if ------ ------<br>--- ----- -- ----,183221,183233,182833,182830,182849,183249,,49,if
screen,html.Screen,2_1_0_1_50,2021-04-26T11:23:08.376Z,,,,,,,,,,,,,,,,,53,,,,,,,,,,,,,,453,,response,,,,99,,,,,,,Space,keypress(Space),,,,,,,,---- -- ----- -- ------ - ------- --- ----------<br>------------- ------ ------ ---- ---- ------- ----- -- ----<br>-------- ------- -- ---------- --- - --- ----- ----- ----<br>---- --- --- ----- --- ---- ---- ------- ----- ---- -------<br>--- --- -- ----- -- --- ---- -- --- ---- -- that's ------<br>--- ----- -- ----,183671,183686,183233,183221,183249,183698,,50,that's
screen,html.Screen,2_1_0_1_51,2021-04-26T11:23:08.799Z,,,,,,,,,,,,,,,,,53,,,,,,,,,,,,,,425,,response,,,,99,,,,,,,Space,keypress(Space),,,,,,,,---- -- ----- -- ------ - ------- --- ----------<br>------------- ------ ------ ---- ---- ------- ----- -- ----<br>-------- ------- -- ---------- --- - --- ----- ----- ----<br>---- --- --- ----- --- ---- ---- ------- ----- ---- -------<br>--- --- -- ----- -- --- ---- -- --- ---- -- ------ really<br>--- ----- -- ----,184093.00000000003,184108,183683,183671,183698,184132,,51,really
screen,html.Screen,2_1_0_1_52,2021-04-26T11:23:09.232Z,,,,,,,,,,,,,,,,,53,,,,,,,,,,,,,,425,,response,,,,99,,,,,,,Space,keypress(Space),,,,,,,,---- -- ----- -- ------ - ------- --- ----------<br>------------- ------ ------ ---- ---- ------- ----- -- ----<br>-------- ------- -- ---------- --- - --- ----- ----- ----<br>---- --- --- ----- --- ---- ---- ------- ----- ---- -------<br>--- --- -- ----- -- --- ---- -- --- ---- -- ------ ------<br>not ----- -- ----,184527.00000000003,184541,184116,184094,184132,184566,,52,not
screen,html.Screen,2_1_0_1_53,2021-04-26T11:23:09.597Z,,,,,,,,,,,,,,,,,53,,,,,,,,,,,,,,357,,response,,,,99,,,,,,,Space,keypress(Space),,,,,,,,---- -- ----- -- ------ - ------- --- ----------<br>------------- ------ ------ ---- ---- ------- ----- -- ----<br>-------- ------- -- ---------- --- - --- ----- ----- ----<br>---- --- --- ----- --- ---- ---- ------- ----- ---- -------<br>--- --- -- ----- -- --- ---- -- --- ---- -- ------ ------<br>--- close -- ----,184892,184906,184549,184527.00000000003,184566,184915,,53,close
screen,html.Screen,2_1_0_1_54,2021-04-26T11:23:10.043Z,,,,,,,,,,,,,,,,,53,,,,,,,,,,,,,,453,,response,,,,99,,,,,,,Space,keypress(Space),,,,,,,,---- -- ----- -- ------ - ------- --- ----------<br>------------- ------ ------ ---- ---- ------- ----- -- ----<br>-------- ------- -- ---------- --- - --- ----- ----- ----<br>---- --- --- ----- --- ---- ---- ------- ----- ---- -------<br>--- --- -- ----- -- --- ---- -- --- ---- -- ------ ------<br>--- ----- at ----,185337.00000000003,185352,184899,184892,184915,185366,,54,at
screen,html.Screen,2_1_0_1_55,2021-04-26T11:23:10.579Z,,,,,,,,,,,,,,,,,53,,,,,,,,,,,,,,540,,response,,,,99,,,,,,,Space,keypress(Space),,,,,,,,---- -- ----- -- ------ - ------- --- ----------<br>------------- ------ ------ ---- ---- ------- ----- -- ----<br>-------- ------- -- ---------- --- - --- ----- ----- ----<br>---- --- --- ----- --- ---- ---- ------- ----- ---- -------<br>--- --- -- ----- -- --- ---- -- --- ---- -- ------ ------<br>--- ----- -- all.,185874,185889,185349,185338,185366,185915,,55,all.
Item 99,flow.Loop,2_1_0_1,2021-04-26T11:23:10.580Z,,,,,,,,,,,,,,,,,,,,,,,,,,,,,,,24236,,completion,,,,,B,,,,,,,,,,,silence,,,,,185875,185889,161599,161600,161653,185915,,,
Question 1,html.Screen,2_1_0_2,2021-04-26T11:23:15.147Z,,,,,,,,,,,,,,,,,,,,,,,,,,,,true,FALSE,,4556,,response,,,,99,B,,,,,,FALSE,click #choice-2,,,,silence,,,,,190442,190455,185899,185875,185915,190466,,,
Question 2,html.Screen,2_1_0_3,2021-04-26T11:23:21.729Z,,,,,,,,,,,,,,,,,,,,,,,,,,,,true,TRUE,,6583,,response,,,,99,B,,,,,,TRUE,click #choice-1,,,,silence,,,,,197024,197038,190455,190442,190466,197069,,,
Item 99,flow.Sequence,2_1_0,2021-04-26T11:23:21.730Z,,,,,,,,,,,,,,,,,,,,,,,,,,,,,,,45417,,completion,,,,,,,,,,,,,,,,,,,,,197025,197038,151620,151608,151621,197069,,,
Holding screen,html.Screen,2_1_1_0,2021-04-26T11:23:31.755Z,,,,,,,,,,,,,,,,,,,,,,,,,,,,,,,9998,,timeout,,,,,,,,,,,,,,,,,,,,,207051.00000000003,207050,197039,197025,197069,207067,,,
screen,html.Screen,2_1_1_1_0,2021-04-26T11:23:32.370Z,,,,,,,,,,,,,,,,,54,,,,,,,,,,,,,,629,,response,,,,100,,,,,,,Space,keypress(Space),,,,,,,,At --- ---- --- ------ ----- ------- ---- -- --- ------- --<br>------- ---------- ------ -- ----- -- ----- -- ---- ------<br>--- ----- --- --- ------ -------- ----- --- ------ ----- --<br>----- ----- ---------- --- --- ------ ------ ---- -- ------<br>------- --- ------ ----- --- ---- ------- -- ---- --- --<br>------- ------,207665,207679,207050,207053,207067,207700,,0,At
screen,html.Screen,2_1_1_1_1,2021-04-26T11:23:32.804Z,,,,,,,,,,,,,,,,,54,,,,,,,,,,,,,,431,,response,,,,100,,,,,,,Space,keypress(Space),,,,,,,,-- the ---- --- ------ ----- ------- ---- -- --- ------- --<br>------- ---------- ------ -- ----- -- ----- -- ---- ------<br>--- ----- --- --- ------ -------- ----- --- ------ ----- --<br>----- ----- ---------- --- --- ------ ------ ---- -- ------<br>------- --- ------ ----- --- ---- ------- -- ---- --- --<br>------- ------,208099.00000000003,208113,207682,207665,207700,208133,,1,the
screen,html.Screen,2_1_1_1_2,2021-04-26T11:23:33.207Z,,,,,,,,,,,,,,,,,54,,,,,,,,,,,,,,400,,response,,,,100,,,,,,,Space,keypress(Space),,,,,,,,-- --- time --- ------ ----- ------- ---- -- --- ------- --<br>------- ---------- ------ -- ----- -- ----- -- ---- ------<br>--- ----- --- --- ------ -------- ----- --- ------ ----- --<br>----- ----- ---------- --- --- ------ ------ ---- -- ------<br>------- --- ------ ----- --- ---- ------- -- ---- --- --<br>------- ------,208503,208517,208117,208100,208133,208533,,2,time
screen,html.Screen,2_1_1_1_3,2021-04-26T11:23:33.552Z,,,,,,,,,,,,,,,,,54,,,,,,,,,,,,,,346,,response,,,,100,,,,,,,Space,keypress(Space),,,,,,,,-- --- ---- the ------ ----- ------- ---- -- --- ------- --<br>------- ---------- ------ -- ----- -- ----- -- ---- ------<br>--- ----- --- --- ------ -------- ----- --- ------ ----- --<br>----- ----- ---------- --- --- ------ ------ ---- -- ------<br>------- --- ------ ----- --- ---- ------- -- ---- --- --<br>------- ------,208848,208863,208517,208503,208533,208867,,3,the
screen,html.Screen,2_1_1_1_4,2021-04-26T11:23:34.288Z,,,,,,,,,,,,,,,,,54,,,,,,,,,,,,,,746,,response,,,,100,,,,,,,Space,keypress(Space),,,,,,,,-- --- ---- --- French ----- ------- ---- -- --- ------- --<br>------- ---------- ------ -- ----- -- ----- -- ---- ------<br>--- ----- --- --- ------ -------- ----- --- ------ ----- --<br>----- ----- ---------- --- --- ------ ------ ---- -- ------<br>------- --- ------ ----- --- ---- ------- -- ---- --- --<br>------- ------,209583,209598,208852,208848,208867,209617,,4,French
screen,html.Screen,2_1_1_1_5,2021-04-26T11:23:34.691Z,,,,,,,,,,,,,,,,,54,,,,,,,,,,,,,,400,,response,,,,100,,,,,,,Space,keypress(Space),,,,,,,,-- --- ---- --- ------ crown ------- ---- -- --- ------- --<br>------- ---------- ------ -- ----- -- ----- -- ---- ------<br>--- ----- --- --- ------ -------- ----- --- ------ ----- --<br>----- ----- ---------- --- --- ------ ------ ---- -- ------<br>------- --- ------ ----- --- ---- ------- -- ---- --- --<br>------- ------,209986.00000000003,210000,209600,209584,209617,210017,,5,crown
screen,html.Screen,2_1_1_1_6,2021-04-26T11:23:35.082Z,,,,,,,,,,,,,,,,,54,,,,,,,,,,,,,,392,,response,,,,100,,,,,,,Space,keypress(Space),,,,,,,,-- --- ---- --- ------ ----- secured ---- -- --- ------- --<br>------- ---------- ------ -- ----- -- ----- -- ---- ------<br>--- ----- --- --- ------ -------- ----- --- ------ ----- --<br>----- ----- ---------- --- --- ------ ------ ---- -- ------<br>------- --- ------ ----- --- ---- ------- -- ---- --- --<br>------- ------,210378,210392,210000,209987,210017,210400,,6,secured
screen,html.Screen,2_1_1_1_7,2021-04-26T11:23:35.437Z,,,,,,,,,,,,,,,,,54,,,,,,,,,,,,,,363,,response,,,,100,,,,,,,Space,keypress(Space),,,,,,,,-- --- ---- --- ------ ----- ------- much -- --- ------- --<br>------- ---------- ------ -- ----- -- ----- -- ---- ------<br>--- ----- --- --- ------ -------- ----- --- ------ ----- --<br>----- ----- ---------- --- --- ------ ------ ---- -- ------<br>------- --- ------ ----- --- ---- ------- -- ---- --- --<br>------- ------,210732,210746,210383,210378,210400,210750,,7,much
screen,html.Screen,2_1_1_1_8,2021-04-26T11:23:35.825Z,,,,,,,,,,,,,,,,,54,,,,,,,,,,,,,,399,,response,,,,100,,,,,,,Space,keypress(Space),,,,,,,,-- --- ---- --- ------ ----- ------- ---- of --- ------- --<br>------- ---------- ------ -- ----- -- ----- -- ---- ------<br>--- ----- --- --- ------ -------- ----- --- ------ ----- --<br>----- ----- ---------- --- --- ------ ------ ---- -- ------<br>------- --- ------ ----- --- ---- ------- -- ---- --- --<br>------- ------,211120,211135,210736,210732,210750,211150,,8,of
screen,html.Screen,2_1_1_1_9,2021-04-26T11:23:36.181Z,,,,,,,,,,,,,,,,,54,,,,,,,,,,,,,,359,,response,,,,100,,,,,,,Space,keypress(Space),,,,,,,,-- --- ---- --- ------ ----- ------- ---- -- its ------- --<br>------- ---------- ------ -- ----- -- ----- -- ---- ------<br>--- ----- --- --- ------ -------- ----- --- ------ ----- --<br>----- ----- ---------- --- --- ------ ------ ---- -- ------<br>------- --- ------ ----- --- ---- ------- -- ---- --- --<br>------- ------,211477,211492,211133,211120,211150,211500,,9,its
screen,html.Screen,2_1_1_1_10,2021-04-26T11:23:36.607Z,,,,,,,,,,,,,,,,,54,,,,,,,,,,,,,,434,,response,,,,100,,,,,,,Space,keypress(Space),,,,,,,,-- --- ---- --- ------ ----- ------- ---- -- --- revenue --<br>------- ---------- ------ -- ----- -- ----- -- ---- ------<br>--- ----- --- --- ------ -------- ----- --- ------ ----- --<br>----- ----- ---------- --- --- ------ ------ ---- -- ------<br>------- --- ------ ----- --- ---- ------- -- ---- --- --<br>------- ------,211902.00000000003,211917,211483,211477,211500,211933,,10,revenue
screen,html.Screen,2_1_1_1_11,2021-04-26T11:23:37.028Z,,,,,,,,,,,,,,,,,54,,,,,,,,,,,,,,421,,response,,,,100,,,,,,,Space,keypress(Space),,,,,,,,-- --- ---- --- ------ ----- ------- ---- -- --- ------- by<br>------- ---------- ------ -- ----- -- ----- -- ---- ------<br>--- ----- --- --- ------ -------- ----- --- ------ ----- --<br>----- ----- ---------- --- --- ------ ------ ---- -- ------<br>------- --- ------ ----- --- ---- ------- -- ---- --- --<br>------- ------,212323,212338,211917,211903,211933,212367,,11,by
screen,html.Screen,2_1_1_1_12,2021-04-26T11:23:37.527Z,,,,,,,,,,,,,,,,,54,,,,,,,,,,,,,,488,,response,,,,100,,,,,,,Space,keypress(Space),,,,,,,,-- --- ---- --- ------ ----- ------- ---- -- --- ------- --<br>issuing ---------- ------ -- ----- -- ----- -- ---- ------<br>--- ----- --- --- ------ -------- ----- --- ------ ----- --<br>----- ----- ---------- --- --- ------ ------ ---- -- ------<br>------- --- ------ ----- --- ---- ------- -- ---- --- --<br>------- ------,212822,212838,212350,212324,212367,212850,,12,issuing
screen,html.Screen,2_1_1_1_13,2021-04-26T11:23:37.959Z,,,,,,,,,,,,,,,,,54,,,,,,,,,,,,,,437,,response,,,,100,,,,,,,Space,keypress(Space),,,,,,,,-- --- ---- --- ------ ----- ------- ---- -- --- ------- --<br>------- government ------ -- ----- -- ----- -- ---- ------<br>--- ----- --- --- ------ -------- ----- --- ------ ----- --<br>----- ----- ---------- --- --- ------ ------ ---- -- ------<br>------- --- ------ ----- --- ---- ------- -- ---- --- --<br>------- ------,213254,213270,212833,212823,212850,213284,,13,government
screen,html.Screen,2_1_1_1_14,2021-04-26T11:23:38.343Z,,,,,,,,,,,,,,,,,54,,,,,,,,,,,,,,387,,response,,,,100,,,,,,,Space,keypress(Space),,,,,,,,-- --- ---- --- ------ ----- ------- ---- -- --- ------- --<br>------- ---------- bonds. -- ----- -- ----- -- ---- ------<br>--- ----- --- --- ------ -------- ----- --- ------ ----- --<br>----- ----- ---------- --- --- ------ ------ ---- -- ------<br>------- --- ------ ----- --- ---- ------- -- ---- --- --<br>------- ------,213638,213653,213266,213255,213284,213666,,14,bonds.
screen,html.Screen,2_1_1_1_15,2021-04-26T11:23:38.984Z,,,,,,,,,,,,,,,,,54,,,,,,,,,,,,,,644,,response,,,,100,,,,,,,Space,keypress(Space),,,,,,,,-- --- ---- --- ------ ----- ------- ---- -- --- ------- --<br>------- ---------- ------ In ----- -- ----- -- ---- ------<br>--- ----- --- --- ------ -------- ----- --- ------ ----- --<br>----- ----- ---------- --- --- ------ ------ ---- -- ------<br>------- --- ------ ----- --- ---- ------- -- ---- --- --<br>------- ------,214279,214294,213650,213638,213666,214317,,15,In
screen,html.Screen,2_1_1_1_16,2021-04-26T11:23:39.326Z,,,,,,,,,,,,,,,,,54,,,,,,,,,,,,,,337,,response,,,,100,,,,,,,Space,keypress(Space),,,,,,,,"-- --- ---- --- ------ ----- ------- ---- -- --- ------- --<br>------- ---------- ------ -- 1727, -- ----- -- ---- ------<br>--- ----- --- --- ------ -------- ----- --- ------ ----- --<br>----- ----- ---------- --- --- ------ ------ ---- -- ------<br>------- --- ------ ----- --- ---- ------- -- ---- --- --<br>------- ------",214622,214637,214300,214280,214317,214650,,16,"1727,"
screen,html.Screen,2_1_1_1_17,2021-04-26T11:23:39.875Z,,,,,,,,,,,,,,,,,54,,,,,,,,,,,,,,552,,response,,,,100,,,,,,,Space,keypress(Space),,,,,,,,-- --- ---- --- ------ ----- ------- ---- -- --- ------- --<br>------- ---------- ------ -- ----- in ----- -- ---- ------<br>--- ----- --- --- ------ -------- ----- --- ------ ----- --<br>----- ----- ---------- --- --- ------ ------ ---- -- ------<br>------- --- ------ ----- --- ---- ------- -- ---- --- --<br>------- ------,215170.00000000003,215185,214633,214622,214650,215200,,17,in
screen,html.Screen,2_1_1_1_18,2021-04-26T11:23:40.290Z,,,,,,,,,,,,,,,,,54,,,,,,,,,,,,,,417,,response,,,,100,,,,,,,Space,keypress(Space),,,,,,,,-- --- ---- --- ------ ----- ------- ---- -- --- ------- --<br>------- ---------- ------ -- ----- -- order -- ---- ------<br>--- ----- --- --- ------ -------- ----- --- ------ ----- --<br>----- ----- ---------- --- --- ------ ------ ---- -- ------<br>------- --- ------ ----- --- ---- ------- -- ---- --- --<br>------- ------,215585,215600,215183,215170.00000000003,215200,215617,,18,order
screen,html.Screen,2_1_1_1_19,2021-04-26T11:23:40.603Z,,,,,,,,,,,,,,,,,54,,,,,,,,,,,,,,314.0000000000291,,response,,,,100,,,,,,,Space,keypress(Space),,,,,,,,-- --- ---- --- ------ ----- ------- ---- -- --- ------- --<br>------- ---------- ------ -- ----- -- ----- to ---- ------<br>--- ----- --- --- ------ -------- ----- --- ------ ----- --<br>----- ----- ---------- --- --- ------ ------ ---- -- ------<br>------- --- ------ ----- --- ---- ------- -- ---- --- --<br>------- ------,215899,215914.00000000003,215600,215585,215617,215917,,19,to
screen,html.Screen,2_1_1_1_20,2021-04-26T11:23:40.931Z,,,,,,,,,,,,,,,,,54,,,,,,,,,,,,,,339.0000000000291,,response,,,,100,,,,,,,Space,keypress(Space),,,,,,,,-- --- ---- --- ------ ----- ------- ---- -- --- ------- --<br>------- ---------- ------ -- ----- -- ----- -- save ------<br>--- ----- --- --- ------ -------- ----- --- ------ ----- --<br>----- ----- ---------- --- --- ------ ------ ---- -- ------<br>------- --- ------ ----- --- ---- ------- -- ---- --- --<br>------- ------,216226,216242.00000000003,215903,215899,215917,216250,,20,save
screen,html.Screen,2_1_1_1_21,2021-04-26T11:23:41.449Z,,,,,,,,,,,,,,,,,54,,,,,,,,,,,,,,527,,response,,,,100,,,,,,,Space,keypress(Space),,,,,,,,"-- --- ---- --- ------ ----- ------- ---- -- --- ------- --<br>------- ---------- ------ -- ----- -- ----- -- ---- money,<br>--- ----- --- --- ------ -------- ----- --- ------ ----- --<br>----- ----- ---------- --- --- ------ ------ ---- -- ------<br>------- --- ------ ----- --- ---- ------- -- ---- --- --<br>------- ------",216745,216760,216233,216227,216250,216784,,21,"money,"
screen,html.Screen,2_1_1_1_22,2021-04-26T11:23:41.960Z,,,,,,,,,,,,,,,,,54,,,,,,,,,,,,,,503,,response,,,,100,,,,,,,Space,keypress(Space),,,,,,,,-- --- ---- --- ------ ----- ------- ---- -- --- ------- --<br>------- ---------- ------ -- ----- -- ----- -- ---- ------<br>the ----- --- --- ------ -------- ----- --- ------ ----- --<br>----- ----- ---------- --- --- ------ ------ ---- -- ------<br>------- --- ------ ----- --- ---- ------- -- ---- --- --<br>------- ------,217255,217270,216767,216745,216784,217284,,22,the
screen,html.Screen,2_1_1_1_23,2021-04-26T11:23:42.268Z,,,,,,,,,,,,,,,,,54,,,,,,,,,,,,,,311,,response,,,,100,,,,,,,Space,keypress(Space),,,,,,,,-- --- ---- --- ------ ----- ------- ---- -- --- ------- --<br>------- ---------- ------ -- ----- -- ----- -- ---- ------<br>--- state --- --- ------ -------- ----- --- ------ ----- --<br>----- ----- ---------- --- --- ------ ------ ---- -- ------<br>------- --- ------ ----- --- ---- ------- -- ---- --- --<br>------- ------,217564,217578,217267,217255,217284,217584,,23,state
screen,html.Screen,2_1_1_1_24,2021-04-26T11:23:42.694Z,,,,,,,,,,,,,,,,,54,,,,,,,,,,,,,,435,,response,,,,100,,,,,,,Space,keypress(Space),,,,,,,,-- --- ---- --- ------ ----- ------- ---- -- --- ------- --<br>------- ---------- ------ -- ----- -- ----- -- ---- ------<br>--- ----- cut --- ------ -------- ----- --- ------ ----- --<br>----- ----- ---------- --- --- ------ ------ ---- -- ------<br>------- --- ------ ----- --- ---- ------- -- ---- --- --<br>------- ------,217989,218003,217568,217564,217584,218017,,24,cut
screen,html.Screen,2_1_1_1_25,2021-04-26T11:23:43.090Z,,,,,,,,,,,,,,,,,54,,,,,,,,,,,,,,401,,response,,,,100,,,,,,,Space,keypress(Space),,,,,,,,-- --- ---- --- ------ ----- ------- ---- -- --- ------- --<br>------- ---------- ------ -- ----- -- ----- -- ---- ------<br>--- ----- --- the ------ -------- ----- --- ------ ----- --<br>----- ----- ---------- --- --- ------ ------ ---- -- ------<br>------- --- ------ ----- --- ---- ------- -- ---- --- --<br>------- ------,218385,218401,218000,217990,218017,218417,,25,the
screen,html.Screen,2_1_1_1_26,2021-04-26T11:23:43.504Z,,,,,,,,,,,,,,,,,54,,,,,,,,,,,,,,415,,response,,,,100,,,,,,,Space,keypress(Space),,,,,,,,-- --- ---- --- ------ ----- ------- ---- -- --- ------- --<br>------- ---------- ------ -- ----- -- ----- -- ---- ------<br>--- ----- --- --- bonds' -------- ----- --- ------ ----- --<br>----- ----- ---------- --- --- ------ ------ ---- -- ------<br>------- --- ------ ----- --- ---- ------- -- ---- --- --<br>------- ------,218799,218815,218400,218386,218417,218834,,26,bonds'
screen,html.Screen,2_1_1_1_27,2021-04-26T11:23:43.946Z,,,,,,,,,,,,,,,,,54,,,,,,,,,,,,,,440,,response,,,,100,,,,,,,Space,keypress(Space),,,,,,,,-- --- ---- --- ------ ----- ------- ---- -- --- ------- --<br>------- ---------- ------ -- ----- -- ----- -- ---- ------<br>--- ----- --- --- ------ interest ----- --- ------ ----- --<br>----- ----- ---------- --- --- ------ ------ ---- -- ------<br>------- --- ------ ----- --- ---- ------- -- ---- --- --<br>------- ------,219242.00000000003,219257,218817,218800,218834,219284,,27,interest
screen,html.Screen,2_1_1_1_28,2021-04-26T11:23:44.437Z,,,,,,,,,,,,,,,,,54,,,,,,,,,,,,,,481,,response,,,,100,,,,,,,Space,keypress(Space),,,,,,,,-- --- ---- --- ------ ----- ------- ---- -- --- ------- --<br>------- ---------- ------ -- ----- -- ----- -- ---- ------<br>--- ----- --- --- ------ -------- rate. --- ------ ----- --<br>----- ----- ---------- --- --- ------ ------ ---- -- ------<br>------- --- ------ ----- --- ---- ------- -- ---- --- --<br>------- ------,219732,219748,219267,219242.00000000003,219284,219767,,28,rate.
screen,html.Screen,2_1_1_1_29,2021-04-26T11:23:44.964Z,,,,,,,,,,,,,,,,,54,,,,,,,,,,,,,,524,,response,,,,100,,,,,,,Space,keypress(Space),,,,,,,,-- --- ---- --- ------ ----- ------- ---- -- --- ------- --<br>------- ---------- ------ -- ----- -- ----- -- ---- ------<br>--- ----- --- --- ------ -------- ----- The ------ ----- --<br>----- ----- ---------- --- --- ------ ------ ---- -- ------<br>------- --- ------ ----- --- ---- ------- -- ---- --- --<br>------- ------,220260,220274,219750,219733,219767,220300,,29,The
screen,html.Screen,2_1_1_1_30,2021-04-26T11:23:45.408Z,,,,,,,,,,,,,,,,,54,,,,,,,,,,,,,,435,,response,,,,100,,,,,,,Space,keypress(Space),,,,,,,,-- --- ---- --- ------ ----- ------- ---- -- --- ------- --<br>------- ---------- ------ -- ----- -- ----- -- ---- ------<br>--- ----- --- --- ------ -------- ----- --- market ----- --<br>----- ----- ---------- --- --- ------ ------ ---- -- ------<br>------- --- ------ ----- --- ---- ------- -- ---- --- --<br>------- ------,220703,220719,220284,220260,220300,220734,,30,market
screen,html.Screen,2_1_1_1_31,2021-04-26T11:23:45.859Z,,,,,,,,,,,,,,,,,54,,,,,,,,,,,,,,453.0000000000291,,response,,,,100,,,,,,,Space,keypress(Space),,,,,,,,-- --- ---- --- ------ ----- ------- ---- -- --- ------- --<br>------- ---------- ------ -- ----- -- ----- -- ---- ------<br>--- ----- --- --- ------ -------- ----- --- ------ value --<br>----- ----- ---------- --- --- ------ ------ ---- -- ------<br>------- --- ------ ----- --- ---- ------- -- ---- --- --<br>------- ------,221155,221170.00000000003,220717,220704,220734,221184,,31,value
screen,html.Screen,2_1_1_1_32,2021-04-26T11:23:46.203Z,,,,,,,,,,,,,,,,,54,,,,,,,,,,,,,,347,,response,,,,100,,,,,,,Space,keypress(Space),,,,,,,,-- --- ---- --- ------ ----- ------- ---- -- --- ------- --<br>------- ---------- ------ -- ----- -- ----- -- ---- ------<br>--- ----- --- --- ------ -------- ----- --- ------ ----- of<br>----- ----- ---------- --- --- ------ ------ ---- -- ------<br>------- --- ------ ----- --- ---- ------- -- ---- --- --<br>------- ------,221498,221514,221167,221155,221184,221517,,32,of
screen,html.Screen,2_1_1_1_33,2021-04-26T11:23:46.636Z,,,,,,,,,,,,,,,,,54,,,,,,,,,,,,,,445,,response,,,,100,,,,,,,Space,keypress(Space),,,,,,,,-- --- ---- --- ------ ----- ------- ---- -- --- ------- --<br>------- ---------- ------ -- ----- -- ----- -- ---- ------<br>--- ----- --- --- ------ -------- ----- --- ------ ----- --<br>these ----- ---------- --- --- ------ ------ ---- -- ------<br>------- --- ------ ----- --- ---- ------- -- ---- --- --<br>------- ------,221931,221947,221502,221499,221517,221967,,33,these
screen,html.Screen,2_1_1_1_34,2021-04-26T11:23:47.039Z,,,,,,,,,,,,,,,,,54,,,,,,,,,,,,,,400,,response,,,,100,,,,,,,Space,keypress(Space),,,,,,,,-- --- ---- --- ------ ----- ------- ---- -- --- ------- --<br>------- ---------- ------ -- ----- -- ----- -- ---- ------<br>--- ----- --- --- ------ -------- ----- --- ------ ----- --<br>----- bonds ---------- --- --- ------ ------ ---- -- ------<br>------- --- ------ ----- --- ---- ------- -- ---- --- --<br>------- ------,222335,222350,221950,221932.00000000003,221967,222367,,34,bonds
screen,html.Screen,2_1_1_1_35,2021-04-26T11:23:47.535Z,,,,,,,,,,,,,,,,,54,,,,,,,,,,,,,,495,,response,,,,100,,,,,,,Space,keypress(Space),,,,,,,,"-- --- ---- --- ------ ----- ------- ---- -- --- ------- --<br>------- ---------- ------ -- ----- -- ----- -- ---- ------<br>--- ----- --- --- ------ -------- ----- --- ------ ----- --<br>----- ----- plummeted, --- --- ------ ------ ---- -- ------<br>------- --- ------ ----- --- ---- ------- -- ---- --- --<br>------- ------",222830,222845,222350,222335,222367,222867,,35,"plummeted,"
screen,html.Screen,2_1_1_1_36,2021-04-26T11:23:47.956Z,,,,,,,,,,,,,,,,,54,,,,,,,,,,,,,,415.0000000000291,,response,,,,100,,,,,,,Space,keypress(Space),,,,,,,,-- --- ---- --- ------ ----- ------- ---- -- --- ------- --<br>------- ---------- ------ -- ----- -- ----- -- ---- ------<br>--- ----- --- --- ------ -------- ----- --- ------ ----- --<br>----- ----- ---------- and --- ------ ------ ---- -- ------<br>------- --- ------ ----- --- ---- ------- -- ---- --- --<br>------- ------,223251,223265.00000000003,222850,222830,222867,223283,,36,and
screen,html.Screen,2_1_1_1_37,2021-04-26T11:23:48.373Z,,,,,,,,,,,,,,,,,54,,,,,,,,,,,,,,416,,response,,,,100,,,,,,,Space,keypress(Space),,,,,,,,-- --- ---- --- ------ ----- ------- ---- -- --- ------- --<br>------- ---------- ------ -- ----- -- ----- -- ---- ------<br>--- ----- --- --- ------ -------- ----- --- ------ ----- --<br>----- ----- ---------- --- the ------ ------ ---- -- ------<br>------- --- ------ ----- --- ---- ------- -- ---- --- --<br>------- ------,223669,223683,223267,223251,223283,223700,,37,the
screen,html.Screen,2_1_1_1_38,2021-04-26T11:23:48.797Z,,,,,,,,,,,,,,,,,54,,,,,,,,,,,,,,424,,response,,,,100,,,,,,,Space,keypress(Space),,,,,,,,-- --- ---- --- ------ ----- ------- ---- -- --- ------- --<br>------- ---------- ------ -- ----- -- ----- -- ---- ------<br>--- ----- --- --- ------ -------- ----- --- ------ ----- --<br>----- ----- ---------- --- --- market ------ ---- -- ------<br>------- --- ------ ----- --- ---- ------- -- ---- --- --<br>------- ------,224092,224108,223684,223669,223700,224134,,38,market
screen,html.Screen,2_1_1_1_39,2021-04-26T11:23:49.121Z,,,,,,,,,,,,,,,,,54,,,,,,,,,,,,,,316,,response,,,,100,,,,,,,Space,keypress(Space),,,,,,,,-- --- ---- --- ------ ----- ------- ---- -- --- ------- --<br>------- ---------- ------ -- ----- -- ----- -- ---- ------<br>--- ----- --- --- ------ -------- ----- --- ------ ----- --<br>----- ----- ---------- --- --- ------ became ---- -- ------<br>------- --- ------ ----- --- ---- ------- -- ---- --- --<br>------- ------,224416,224433,224117,224093.00000000003,224134,224450,,39,became
screen,html.Screen,2_1_1_1_40,2021-04-26T11:23:49.594Z,,,,,,,,,,,,,,,,,54,,,,,,,,,,,,,,471,,response,,,,100,,,,,,,Space,keypress(Space),,,,,,,,-- --- ---- --- ------ ----- ------- ---- -- --- ------- --<br>------- ---------- ------ -- ----- -- ----- -- ---- ------<br>--- ----- --- --- ------ -------- ----- --- ------ ----- --<br>----- ----- ---------- --- --- ------ ------ wary -- ------<br>------- --- ------ ----- --- ---- ------- -- ---- --- --<br>------- ------,224890.00000000003,224905,224434,224417,224450,224934,,40,wary
screen,html.Screen,2_1_1_1_41,2021-04-26T11:23:49.912Z,,,,,,,,,,,,,,,,,54,,,,,,,,,,,,,,306,,response,,,,100,,,,,,,Space,keypress(Space),,,,,,,,-- --- ---- --- ------ ----- ------- ---- -- --- ------- --<br>------- ---------- ------ -- ----- -- ----- -- ---- ------<br>--- ----- --- --- ------ -------- ----- --- ------ ----- --<br>----- ----- ---------- --- --- ------ ------ ---- of ------<br>------- --- ------ ----- --- ---- ------- -- ---- --- --<br>------- ------,225208,225223,224917,224890.00000000003,224934,225234,,41,of
screen,html.Screen,2_1_1_1_42,2021-04-26T11:23:50.267Z,,,,,,,,,,,,,,,,,54,,,,,,,,,,,,,,362,,response,,,,100,,,,,,,Space,keypress(Space),,,,,,,,-- --- ---- --- ------ ----- ------- ---- -- --- ------- --<br>------- ---------- ------ -- ----- -- ----- -- ---- ------<br>--- ----- --- --- ------ -------- ----- --- ------ ----- --<br>----- ----- ---------- --- --- ------ ------ ---- -- French<br>------- --- ------ ----- --- ---- ------- -- ---- --- --<br>------- ------,225563.00000000003,225579,225217,225208,225234,225584,,42,French
screen,html.Screen,2_1_1_1_43,2021-04-26T11:23:50.756Z,,,,,,,,,,,,,,,,,54,,,,,,,,,,,,,,500,,response,,,,100,,,,,,,Space,keypress(Space),,,,,,,,-- --- ---- --- ------ ----- ------- ---- -- --- ------- --<br>------- ---------- ------ -- ----- -- ----- -- ---- ------<br>--- ----- --- --- ------ -------- ----- --- ------ ----- --<br>----- ----- ---------- --- --- ------ ------ ---- -- ------<br>credit. --- ------ ----- --- ---- ------- -- ---- --- --<br>------- ------,226051.00000000003,226067,225567,225563.00000000003,225584,226084,,43,credit.
screen,html.Screen,2_1_1_1_44,2021-04-26T11:23:51.206Z,,,,,,,,,,,,,,,,,54,,,,,,,,,,,,,,451,,response,,,,100,,,,,,,Space,keypress(Space),,,,,,,,-- --- ---- --- ------ ----- ------- ---- -- --- ------- --<br>------- ---------- ------ -- ----- -- ----- -- ---- ------<br>--- ----- --- --- ------ -------- ----- --- ------ ----- --<br>----- ----- ---------- --- --- ------ ------ ---- -- ------<br>------- The ------ ----- --- ---- ------- -- ---- --- --<br>------- ------,226502,226518,226067,226052,226084,226534,,44,The
screen,html.Screen,2_1_1_1_45,2021-04-26T11:23:51.519Z,,,,,,,,,,,,,,,,,54,,,,,,,,,,,,,,313,,response,,,,100,,,,,,,Space,keypress(Space),,,,,,,,-- --- ---- --- ------ ----- ------- ---- -- --- ------- --<br>------- ---------- ------ -- ----- -- ----- -- ---- ------<br>--- ----- --- --- ------ -------- ----- --- ------ ----- --<br>----- ----- ---------- --- --- ------ ------ ---- -- ------<br>------- --- French ----- --- ---- ------- -- ---- --- --<br>------- ------,226815,226830,226517,226502,226534,226850,,45,French
screen,html.Screen,2_1_1_1_46,2021-04-26T11:23:52.044Z,,,,,,,,,,,,,,,,,54,,,,,,,,,,,,,,521.0000000000291,,response,,,,100,,,,,,,Space,keypress(Space),,,,,,,,-- --- ---- --- ------ ----- ------- ---- -- --- ------- --<br>------- ---------- ------ -- ----- -- ----- -- ---- ------<br>--- ----- --- --- ------ -------- ----- --- ------ ----- --<br>----- ----- ---------- --- --- ------ ------ ---- -- ------<br>------- --- ------ state --- ---- ------- -- ---- --- --<br>------- ------,227340,227355.00000000003,226834,226817,226850,227384,,46,state
screen,html.Screen,2_1_1_1_47,2021-04-26T11:23:52.393Z,,,,,,,,,,,,,,,,,54,,,,,,,,,,,,,,337,,response,,,,100,,,,,,,Space,keypress(Space),,,,,,,,-- --- ---- --- ------ ----- ------- ---- -- --- ------- --<br>------- ---------- ------ -- ----- -- ----- -- ---- ------<br>--- ----- --- --- ------ -------- ----- --- ------ ----- --<br>----- ----- ---------- --- --- ------ ------ ---- -- ------<br>------- --- ------ ----- was ---- ------- -- ---- --- --<br>------- ------,227689,227704,227367,227341,227384,227717,,47,was
screen,html.Screen,2_1_1_1_48,2021-04-26T11:23:52.712Z,,,,,,,,,,,,,,,,,54,,,,,,,,,,,,,,323,,response,,,,100,,,,,,,Space,keypress(Space),,,,,,,,-- --- ---- --- ------ ----- ------- ---- -- --- ------- --<br>------- ---------- ------ -- ----- -- ----- -- ---- ------<br>--- ----- --- --- ------ -------- ----- --- ------ ----- --<br>----- ----- ---------- --- --- ------ ------ ---- -- ------<br>------- --- ------ ----- --- left ------- -- ---- --- --<br>------- ------,228008,228023,227700,227689,227717,228034,,48,left
screen,html.Screen,2_1_1_1_49,2021-04-26T11:23:53.139Z,,,,,,,,,,,,,,,,,54,,,,,,,,,,,,,,432,,response,,,,100,,,,,,,Space,keypress(Space),,,,,,,,-- --- ---- --- ------ ----- ------- ---- -- --- ------- --<br>------- ---------- ------ -- ----- -- ----- -- ---- ------<br>--- ----- --- --- ------ -------- ----- --- ------ ----- --<br>----- ----- ---------- --- --- ------ ------ ---- -- ------<br>------- --- ------ ----- --- ---- without -- ---- --- --<br>------- ------,228435,228449,228017,228009,228034,228467,,49,without
screen,html.Screen,2_1_1_1_50,2021-04-26T11:23:53.499Z,,,,,,,,,,,,,,,,,54,,,,,,,,,,,,,,361,,response,,,,100,,,,,,,Space,keypress(Space),,,,,,,,-- --- ---- --- ------ ----- ------- ---- -- --- ------- --<br>------- ---------- ------ -- ----- -- ----- -- ---- ------<br>--- ----- --- --- ------ -------- ----- --- ------ ----- --<br>----- ----- ---------- --- --- ------ ------ ---- -- ------<br>------- --- ------ ----- --- ---- ------- an ---- --- --<br>------- ------,228795.00000000003,228811,228450,228435,228467,228816,,50,an
screen,html.Screen,2_1_1_1_51,2021-04-26T11:23:53.871Z,,,,,,,,,,,,,,,,,54,,,,,,,,,,,,,,382.0000000000291,,response,,,,100,,,,,,,Space,keypress(Space),,,,,,,,-- --- ---- --- ------ ----- ------- ---- -- --- ------- --<br>------- ---------- ------ -- ----- -- ----- -- ---- ------<br>--- ----- --- --- ------ -------- ----- --- ------ ----- --<br>----- ----- ---------- --- --- ------ ------ ---- -- ------<br>------- --- ------ ----- --- ---- ------- -- easy --- --<br>------- ------,229167,229182.00000000003,228800,228796,228816,229201,,51,easy
screen,html.Screen,2_1_1_1_52,2021-04-26T11:23:54.215Z,,,,,,,,,,,,,,,,,54,,,,,,,,,,,,,,342,,response,,,,100,,,,,,,Space,keypress(Space),,,,,,,,-- --- ---- --- ------ ----- ------- ---- -- --- ------- --<br>------- ---------- ------ -- ----- -- ----- -- ---- ------<br>--- ----- --- --- ------ -------- ----- --- ------ ----- --<br>----- ----- ---------- --- --- ------ ------ ---- -- ------<br>------- --- ------ ----- --- ---- ------- -- ---- way --<br>------- ------,229510,229526,229184,229167,229201,229534,,52,way
screen,html.Screen,2_1_1_1_53,2021-04-26T11:23:54.703Z,,,,,,,,,,,,,,,,,54,,,,,,,,,,,,,,497,,response,,,,100,,,,,,,Space,keypress(Space),,,,,,,,-- --- ---- --- ------ ----- ------- ---- -- --- ------- --<br>------- ---------- ------ -- ----- -- ----- -- ---- ------<br>--- ----- --- --- ------ -------- ----- --- ------ ----- --<br>----- ----- ---------- --- --- ------ ------ ---- -- ------<br>------- --- ------ ----- --- ---- ------- -- ---- --- of<br>------- ------,229999,230014,229517,229511,229534,230034,,53,of
screen,html.Screen,2_1_1_1_54,2021-04-26T11:23:55.100Z,,,,,,,,,,,,,,,,,54,,,,,,,,,,,,,,395,,response,,,,100,,,,,,,Space,keypress(Space),,,,,,,,-- --- ---- --- ------ ----- ------- ---- -- --- ------- --<br>------- ---------- ------ -- ----- -- ----- -- ---- ------<br>--- ----- --- --- ------ -------- ----- --- ------ ----- --<br>----- ----- ---------- --- --- ------ ------ ---- -- ------<br>------- --- ------ ----- --- ---- ------- -- ---- --- --<br>raising ------,230396.00000000003,230412,230017,229999,230034,230417,,54,raising
screen,html.Screen,2_1_1_1_55,2021-04-26T11:23:56.003Z,,,,,,,,,,,,,,,,,54,,,,,,,,,,,,,,914,,response,,,,100,,,,,,,Space,keypress(Space),,,,,,,,-- --- ---- --- ------ ----- ------- ---- -- --- ------- --<br>------- ---------- ------ -- ----- -- ----- -- ---- ------<br>--- ----- --- --- ------ -------- ----- --- ------ ----- --<br>----- ----- ---------- --- --- ------ ------ ---- -- ------<br>------- --- ------ ----- --- ---- ------- -- ---- --- --<br>------- money.,231298,231314,230400,230396.00000000003,230417,231334,,55,money.
Item 100,flow.Loop,2_1_1_1,2021-04-26T11:23:56.004Z,,,,,,,,,,,,,,,,,,,,,,,,,,,,,,,24247,,completion,,,,,B,,,,,,,,,,,silence,,,,,231300,231314,207050,207051.00000000003,207067,231334,,,
Question 1,html.Screen,2_1_1_2,2021-04-26T11:23:59.185Z,,,,,,,,,,,,,,,,,,,,,,,,,,,,true,TRUE,,3179,,response,,,,100,B,,,,,,TRUE,click #choice-1,,,,silence,,,,,234481,234496,231317,231300,231334,234500,,,
Question 2,html.Screen,2_1_1_3,2021-04-26T11:24:02.584Z,,,,,,,,,,,,,,,,,,,,,,,,,,,,true,FALSE,,3403,,response,,,,100,B,,,,,,FALSE,click #choice-2,,,,silence,,,,,237880,237894,234491,234481,234500,237917,,,
Item 100,flow.Sequence,2_1_1,2021-04-26T11:24:02.584Z,,,,,,,,,,,,,,,,,,,,,,,,,,,,,,,40825,,completion,,,,,,,,,,,,,,,,,,,,,237880,237894,197039,197025,197069,237917,,,
End of Practice,html.Page,2_1_2,2021-04-26T11:24:09.959Z,,,,,,,,,,,,,,,,,,,,,,,,,,,,,,,7338,,form submission,,,,,,,,,,,,,,,,,,,,,245255,245255,237900,237881,237917,245284,,,
Practice,flow.Sequence,2_1,2021-04-26T11:24:09.959Z,,,,,,,,,,,,,,,,,,,,,,,,,,,,,,,93634,,completion,,,,,,,,,,,,,,,,,,,,,245255,245255,151620,151608,151621,245284,,,
Trap_instruction,html.Page,2_2_0,2021-04-26T11:24:17.144Z,,,,,,,,,,,,,,,,,,,,,,,,,,,,,,,7154.000000000029,,form submission,,,,,,,,,,,,,,,,,,,,,252440,252438.00000000003,245267,245256,245284,252470,,,
trap_trial,html.Screen,2_2_1,2021-04-26T11:24:22.198Z,,,,,,,,,,,,,,,,,,,,,,,,,,,,true,1,,5044,,response,,,,,,,,,,,1,click #choice-1,,,,,,,,,257494.00000000003,257509,252465,252442,252470,257537,,,
end of trap trial,html.Page,2_2_2,2021-04-26T11:24:24.426Z,,,,,,,,,,,,,,,,,,,,,,,,,,,,,,,2184.999999999971,,form submission,,,,,,,,,,,,,,,,,,,,,259721.99999999997,259721.99999999997,257535,257495,257537,259751,,,
Trap 1,flow.Sequence,2_2,2021-04-26T11:24:24.426Z,,,,,,,,,,,,,,,,,,,,,,,,,,,,,,,14437.99999999997,,completion,,,,,,,,,,,,,,,,,,,,,259721.99999999997,259721.99999999997,245267,245255,245284,259751,,,
Standby,html.Page,2_3_0,2021-04-26T11:24:32.439Z,,,,,,,,,,,,,,,,,,,,,,,,,,,,,,,8003,,timeout,,,,,,,,,,,,,,,,,,,,,267736,267735,259734,259723,259751,267754,,,
Holding screen,html.Screen,2_3_1_0_0,2021-04-26T11:24:39.438Z,,,,,,,,,,,,,,,,,,,,,,,,,,,,,,,6997,,timeout,,,,,,,,,,,,,,,,,,,,,274735,274734,267735,267736,267754,274751,,,
screen,html.Screen,2_3_1_0_1_0,2021-04-26T11:24:41.613Z,,,,,,,,,,,,,,,,,15,,,,,,,,,,,,,,2191,,response,,,,7,B,,,,,,Space,keypress(Space),,,,lyrical,,,,Greg --------- ---------- - --- ------- -- --- ------------<br>----- -- -------- ------- ---- ------ - -------- ---- -----<br>--- ------- ---- -- --- -------- --- - ----- ------ ---- --<br>-------- --- -------- -------- --- -------- ---- -- ----- -<br>-------- ---- --- ---------- --------- -- ------- ------ -<br>--------- ----- -----,276910,276925,274734,274735,274751,276952,,0,Greg
screen,html.Screen,2_3_1_0_1_1,2021-04-26T11:24:42.602Z,,,,,,,,,,,,,,,,,15,,,,,,,,,,,,,,980,,response,,,,7,B,,,,,,Space,keypress(Space),,,,lyrical,,,,"---- Anderson, ---------- - --- ------- -- --- ------------<br>----- -- -------- ------- ---- ------ - -------- ---- -----<br>--- ------- ---- -- --- -------- --- - ----- ------ ---- --<br>-------- --- -------- -------- --- -------- ---- -- ----- -<br>-------- ---- --- ---------- --------- -- ------- ------ -<br>--------- ----- -----",277899,277915,276935,276910,276952,277935,,1,"Anderson,"
screen,html.Screen,2_3_1_0_1_2,2021-04-26T11:24:43.299Z,,,,,,,,,,,,,,,,,15,,,,,,,,,,,,,,694,,response,,,,7,B,,,,,,Space,keypress(Space),,,,lyrical,,,,---- --------- considered - --- ------- -- --- ------------<br>----- -- -------- ------- ---- ------ - -------- ---- -----<br>--- ------- ---- -- --- -------- --- - ----- ------ ---- --<br>-------- --- -------- -------- --- -------- ---- -- ----- -<br>-------- ---- --- ---------- --------- -- ------- ------ -<br>--------- ----- -----,278596,278612,277918,277900.00000000006,277935,278634,,2,considered
screen,html.Screen,2_3_1_0_1_3,2021-04-26T11:24:43.906Z,,,,,,,,,,,,,,,,,15,,,,,,,,,,,,,,601,,response,,,,7,B,,,,,,Space,keypress(Space),,,,lyrical,,,,---- --------- ---------- a --- ------- -- --- ------------<br>----- -- -------- ------- ---- ------ - -------- ---- -----<br>--- ------- ---- -- --- -------- --- - ----- ------ ---- --<br>-------- --- -------- -------- --- -------- ---- -- ----- -<br>-------- ---- --- ---------- --------- -- ------- ------ -<br>--------- ----- -----,279203.00000000006,279219,278618,278597,278634,279235,,3,a
screen,html.Screen,2_3_1_0_1_4,2021-04-26T11:24:44.376Z,,,,,,,,,,,,,,,,,15,,,,,,,,,,,,,,472,,response,,,,7,B,,,,,,Space,keypress(Space),,,,lyrical,,,,---- --------- ---------- - key ------- -- --- ------------<br>----- -- -------- ------- ---- ------ - -------- ---- -----<br>--- ------- ---- -- --- -------- --- - ----- ------ ---- --<br>-------- --- -------- -------- --- -------- ---- -- ----- -<br>-------- ---- --- ---------- --------- -- ------- ------ -<br>--------- ----- -----,279673,279690,279218,279203.00000000006,279235,279702,,4,key
screen,html.Screen,2_3_1_0_1_5,2021-04-26T11:24:44.820Z,,,,,,,,,,,,,,,,,15,,,,,,,,,,,,,,450,,response,,,,7,B,,,,,,Space,keypress(Space),,,,lyrical,,,,---- --------- ---------- - --- witness -- --- ------------<br>----- -- -------- ------- ---- ------ - -------- ---- -----<br>--- ------- ---- -- --- -------- --- - ----- ------ ---- --<br>-------- --- -------- -------- --- -------- ---- -- ----- -<br>-------- ---- --- ---------- --------- -- ------- ------ -<br>--------- ----- -----,280117,280134,279684,279673,279702,280151,,5,witness
screen,html.Screen,2_3_1_0_1_6,2021-04-26T11:24:45.628Z,,,,,,,,,,,,,,,,,15,,,,,,,,,,,,,,806.0000000000582,,response,,,,7,B,,,,,,Space,keypress(Space),,,,lyrical,,,,---- --------- ---------- - --- ------- by --- ------------<br>----- -- -------- ------- ---- ------ - -------- ---- -----<br>--- ------- ---- -- --- -------- --- - ----- ------ ---- --<br>-------- --- -------- -------- --- -------- ---- -- ----- -<br>-------- ---- --- ---------- --------- -- ------- ------ -<br>--------- ----- -----,280925,280941.00000000006,280135,280117,280151,280968,,6,by
screen,html.Screen,2_3_1_0_1_7,2021-04-26T11:24:46.062Z,,,,,,,,,,,,,,,,,15,,,,,,,,,,,,,,423,,response,,,,7,B,,,,,,Space,keypress(Space),,,,lyrical,,,,---- --------- ---------- - --- ------- -- the ------------<br>----- -- -------- ------- ---- ------ - -------- ---- -----<br>--- ------- ---- -- --- -------- --- - ----- ------ ---- --<br>-------- --- -------- -------- --- -------- ---- -- ----- -<br>-------- ---- --- ---------- --------- -- ------- ------ -<br>--------- ----- -----,281359,281375,280952,280925,280968,281401,,7,the
screen,html.Screen,2_3_1_0_1_8,2021-04-26T11:24:46.833Z,,,,,,,,,,,,,,,,,15,,,,,,,,,,,,,,761,,response,,,,7,B,,,,,,Space,keypress(Space),,,,lyrical,,,,"---- --------- ---------- - --- ------- -- --- prosecution,<br>----- -- -------- ------- ---- ------ - -------- ---- -----<br>--- ------- ---- -- --- -------- --- - ----- ------ ---- --<br>-------- --- -------- -------- --- -------- ---- -- ----- -<br>-------- ---- --- ---------- --------- -- ------- ------ -<br>--------- ----- -----",282130,282146,281385,281359,281401,282168,,8,"prosecution,"
screen,html.Screen,2_3_1_0_1_9,2021-04-26T11:24:47.944Z,,,,,,,,,,,,,,,,,15,,,,,,,,,,,,,,1106,,response,,,,7,B,,,,,,Space,keypress(Space),,,,lyrical,,,,---- --------- ---------- - --- ------- -- --- ------------<br>vowed -- -------- ------- ---- ------ - -------- ---- -----<br>--- ------- ---- -- --- -------- --- - ----- ------ ---- --<br>-------- --- -------- -------- --- -------- ---- -- ----- -<br>-------- ---- --- ---------- --------- -- ------- ------ -<br>--------- ----- -----,283241,283258,282152,282130,282168,283285,,9,vowed
screen,html.Screen,2_3_1_0_1_10,2021-04-26T11:24:48.683Z,,,,,,,,,,,,,,,,,15,,,,,,,,,,,,,,730,,response,,,,7,B,,,,,,Space,keypress(Space),,,,lyrical,,,,---- --------- ---------- - --- ------- -- --- ------------<br>----- he -------- ------- ---- ------ - -------- ---- -----<br>--- ------- ---- -- --- -------- --- - ----- ------ ---- --<br>-------- --- -------- -------- --- -------- ---- -- ----- -<br>-------- ---- --- ---------- --------- -- ------- ------ -<br>--------- ----- -----,283980,283998,283268,283242,283285,284018,,10,he
screen,html.Screen,2_3_1_0_1_11,2021-04-26T11:24:49.247Z,,,,,,,,,,,,,,,,,15,,,,,,,,,,,,,,558,,response,,,,7,B,,,,,,Space,keypress(Space),,,,lyrical,,,,---- --------- ---------- - --- ------- -- --- ------------<br>----- -- wouldn't ------- ---- ------ - -------- ---- -----<br>--- ------- ---- -- --- -------- --- - ----- ------ ---- --<br>-------- --- -------- -------- --- -------- ---- -- ----- -<br>-------- ---- --- ---------- --------- -- ------- ------ -<br>--------- ----- -----,284544,284560,284002,283981,284018,284585,,11,wouldn't
screen,html.Screen,2_3_1_0_1_12,2021-04-26T11:24:49.943Z,,,,,,,,,,,,,,,,,15,,,,,,,,,,,,,,688,,response,,,,7,B,,,,,,Space,keypress(Space),,,,lyrical,,,,---- --------- ---------- - --- ------- -- --- ------------<br>----- -- -------- testify ---- ------ - -------- ---- -----<br>--- ------- ---- -- --- -------- --- - ----- ------ ---- --<br>-------- --- -------- -------- --- -------- ---- -- ----- -<br>-------- ---- --- ---------- --------- -- ------- ------ -<br>--------- ----- -----,285240,285256,284568,284544,284585,285269,,12,testify
screen,html.Screen,2_3_1_0_1_13,2021-04-26T11:24:50.333Z,,,,,,,,,,,,,,,,,15,,,,,,,,,,,,,,396,,response,,,,7,B,,,,,,Space,keypress(Space),,,,lyrical,,,,---- --------- ---------- - --- ------- -- --- ------------<br>----- -- -------- ------- when ------ - -------- ---- -----<br>--- ------- ---- -- --- -------- --- - ----- ------ ---- --<br>-------- --- -------- -------- --- -------- ---- -- ----- -<br>-------- ---- --- ---------- --------- -- ------- ------ -<br>--------- ----- -----,285630,285648,285252,285240,285269,285652,,13,when
screen,html.Screen,2_3_1_0_1_14,2021-04-26T11:24:50.741Z,,,,,,,,,,,,,,,,,15,,,,,,,,,,,,,,422,,response,,,,7,B,,,,,,Space,keypress(Space),,,,lyrical,,,,---- --------- ---------- - --- ------- -- --- ------------<br>----- -- -------- ------- ---- served - -------- ---- -----<br>--- ------- ---- -- --- -------- --- - ----- ------ ---- --<br>-------- --- -------- -------- --- -------- ---- -- ----- -<br>-------- ---- --- ---------- --------- -- ------- ------ -<br>--------- ----- -----,286038,286057,285635,285630,285652,286068,,14,served
screen,html.Screen,2_3_1_0_1_15,2021-04-26T11:24:51.207Z,,,,,,,,,,,,,,,,,15,,,,,,,,,,,,,,469,,response,,,,7,B,,,,,,Space,keypress(Space),,,,lyrical,,,,---- --------- ---------- - --- ------- -- --- ------------<br>----- -- -------- ------- ---- ------ a -------- ---- -----<br>--- ------- ---- -- --- -------- --- - ----- ------ ---- --<br>-------- --- -------- -------- --- -------- ---- -- ----- -<br>-------- ---- --- ---------- --------- -- ------- ------ -<br>--------- ----- -----,286504,286521,286052,286038,286068,286535,,15,a
screen,html.Screen,2_3_1_0_1_16,2021-04-26T11:24:52.150Z,,,,,,,,,,,,,,,,,15,,,,,,,,,,,,,,946.0000000000582,,response,,,,7,B,,,,,,Space,keypress(Space),,,,lyrical,,,,---- --------- ---------- - --- ------- -- --- ------------<br>----- -- -------- ------- ---- ------ - subpoena ---- -----<br>--- ------- ---- -- --- -------- --- - ----- ------ ---- --<br>-------- --- -------- -------- --- -------- ---- -- ----- -<br>-------- ---- --- ---------- --------- -- ------- ------ -<br>--------- ----- -----,287447,287465.00000000006,286519,286504,286535,287485,,16,subpoena
screen,html.Screen,2_3_1_0_1_17,2021-04-26T11:24:52.495Z,,,,,,,,,,,,,,,,,15,,,,,,,,,,,,,,342,,response,,,,7,B,,,,,,Space,keypress(Space),,,,lyrical,,,,---- --------- ---------- - --- ------- -- --- ------------<br>----- -- -------- ------- ---- ------ - -------- last -----<br>--- ------- ---- -- --- -------- --- - ----- ------ ---- --<br>-------- --- -------- -------- --- -------- ---- -- ----- -<br>-------- ---- --- ---------- --------- -- ------- ------ -<br>--------- ----- -----,287793,287810,287468,287447,287485,287819,,17,last
screen,html.Screen,2_3_1_0_1_18,2021-04-26T11:24:52.932Z,,,,,,,,,,,,,,,,,15,,,,,,,,,,,,,,442,,response,,,,7,B,,,,,,Space,keypress(Space),,,,lyrical,,,,---- --------- ---------- - --- ------- -- --- ------------<br>----- -- -------- ------- ---- ------ - -------- ---- week.<br>--- ------- ---- -- --- -------- --- - ----- ------ ---- --<br>-------- --- -------- -------- --- -------- ---- -- ----- -<br>-------- ---- --- ---------- --------- -- ------- ------ -<br>--------- ----- -----,288229,288244,287802,287793,287819,288269,,18,week.
screen,html.Screen,2_3_1_0_1_19,2021-04-26T11:24:53.658Z,,,,,,,,,,,,,,,,,15,,,,,,,,,,,,,,720,,response,,,,7,B,,,,,,Space,keypress(Space),,,,lyrical,,,,---- --------- ---------- - --- ------- -- --- ------------<br>----- -- -------- ------- ---- ------ - -------- ---- -----<br>His ------- ---- -- --- -------- --- - ----- ------ ---- --<br>-------- --- -------- -------- --- -------- ---- -- ----- -<br>-------- ---- --- ---------- --------- -- ------- ------ -<br>--------- ----- -----,288955,288972,288252,288230,288269,288985,,19,His
screen,html.Screen,2_3_1_0_1_20,2021-04-26T11:24:54.554Z,,,,,,,,,,,,,,,,,15,,,,,,,,,,,,,,899,,response,,,,7,B,,,,,,Space,keypress(Space),,,,lyrical,,,,---- --------- ---------- - --- ------- -- --- ------------<br>----- -- -------- ------- ---- ------ - -------- ---- -----<br>--- lawyers ---- -- --- -------- --- - ----- ------ ---- --<br>-------- --- -------- -------- --- -------- ---- -- ----- -<br>-------- ---- --- ---------- --------- -- ------- ------ -<br>--------- ----- -----,289851,289868,288969,288955,288985,289884,,20,lawyers
screen,html.Screen,2_3_1_0_1_21,2021-04-26T11:24:54.993Z,,,,,,,,,,,,,,,,,15,,,,,,,,,,,,,,438,,response,,,,7,B,,,,,,Space,keypress(Space),,,,lyrical,,,,---- --------- ---------- - --- ------- -- --- ------------<br>----- -- -------- ------- ---- ------ - -------- ---- -----<br>--- ------- said -- --- -------- --- - ----- ------ ---- --<br>-------- --- -------- -------- --- -------- ---- -- ----- -<br>-------- ---- --- ---------- --------- -- ------- ------ -<br>--------- ----- -----,290290,290307,289869,289852.00000000006,289884,290319,,21,said
screen,html.Screen,2_3_1_0_1_22,2021-04-26T11:24:55.428Z,,,,,,,,,,,,,,,,,15,,,,,,,,,,,,,,440,,response,,,,7,B,,,,,,Space,keypress(Space),,,,lyrical,,,,---- --------- ---------- - --- ------- -- --- ------------<br>----- -- -------- ------- ---- ------ - -------- ---- -----<br>--- ------- ---- he --- -------- --- - ----- ------ ---- --<br>-------- --- -------- -------- --- -------- ---- -- ----- -<br>-------- ---- --- ---------- --------- -- ------- ------ -<br>--------- ----- -----,290725,290742,290302,290291,290319,290769,,22,he
screen,html.Screen,2_3_1_0_1_23,2021-04-26T11:24:56.056Z,,,,,,,,,,,,,,,,,15,,,,,,,,,,,,,,618,,response,,,,7,B,,,,,,Space,keypress(Space),,,,lyrical,,,,---- --------- ---------- - --- ------- -- --- ------------<br>----- -- -------- ------- ---- ------ - -------- ---- -----<br>--- ------- ---- -- was -------- --- - ----- ------ ---- --<br>-------- --- -------- -------- --- -------- ---- -- ----- -<br>-------- ---- --- ---------- --------- -- ------- ------ -<br>--------- ----- -----,291353,291370,290752,290725,290769,291385,,23,was
screen,html.Screen,2_3_1_0_1_24,2021-04-26T11:24:56.457Z,,,,,,,,,,,,,,,,,15,,,,,,,,,,,,,,401,,response,,,,7,B,,,,,,Space,keypress(Space),,,,lyrical,,,,---- --------- ---------- - --- ------- -- --- ------------<br>----- -- -------- ------- ---- ------ - -------- ---- -----<br>--- ------- ---- -- --- prepared --- - ----- ------ ---- --<br>-------- --- -------- -------- --- -------- ---- -- ----- -<br>-------- ---- --- ---------- --------- -- ------- ------ -<br>--------- ----- -----,291754,291771,291370,291354,291385,291785,,24,prepared
screen,html.Screen,2_3_1_0_1_25,2021-04-26T11:24:57.154Z,,,,,,,,,,,,,,,,,15,,,,,,,,,,,,,,699,,response,,,,7,B,,,,,,Space,keypress(Space),,,,lyrical,,,,---- --------- ---------- - --- ------- -- --- ------------<br>----- -- -------- ------- ---- ------ - -------- ---- -----<br>--- ------- ---- -- --- -------- for - ----- ------ ---- --<br>-------- --- -------- -------- --- -------- ---- -- ----- -<br>-------- ---- --- ---------- --------- -- ------- ------ -<br>--------- ----- -----,292451,292468,291769,291755,291785,292485,,25,for
screen,html.Screen,2_3_1_0_1_26,2021-04-26T11:24:57.603Z,,,,,,,,,,,,,,,,,15,,,,,,,,,,,,,,446,,response,,,,7,B,,,,,,Space,keypress(Space),,,,lyrical,,,,---- --------- ---------- - --- ------- -- --- ------------<br>----- -- -------- ------- ---- ------ - -------- ---- -----<br>--- ------- ---- -- --- -------- --- a ----- ------ ---- --<br>-------- --- -------- -------- --- -------- ---- -- ----- -<br>-------- ---- --- ---------- --------- -- ------- ------ -<br>--------- ----- -----,292901,292916,292470,292452,292485,292935,,26,a
screen,html.Screen,2_3_1_0_1_27,2021-04-26T11:24:57.970Z,,,,,,,,,,,,,,,,,15,,,,,,,,,,,,,,365,,response,,,,7,B,,,,,,Space,keypress(Space),,,,lyrical,,,,---- --------- ---------- - --- ------- -- --- ------------<br>----- -- -------- ------- ---- ------ - -------- ---- -----<br>--- ------- ---- -- --- -------- --- - third ------ ---- --<br>-------- --- -------- -------- --- -------- ---- -- ----- -<br>-------- ---- --- ---------- --------- -- ------- ------ -<br>--------- ----- -----,293268,293284,292919,292901,292935,293302,,27,third
screen,html.Screen,2_3_1_0_1_28,2021-04-26T11:24:58.343Z,,,,,,,,,,,,,,,,,15,,,,,,,,,,,,,,372,,response,,,,7,B,,,,,,Space,keypress(Space),,,,lyrical,,,,---- --------- ---------- - --- ------- -- --- ------------<br>----- -- -------- ------- ---- ------ - -------- ---- -----<br>--- ------- ---- -- --- -------- --- - ----- prison ---- --<br>-------- --- -------- -------- --- -------- ---- -- ----- -<br>-------- ---- --- ---------- --------- -- ------- ------ -<br>--------- ----- -----,293640,293657,293285,293268,293302,293669,,28,prison
screen,html.Screen,2_3_1_0_1_29,2021-04-26T11:24:59.092Z,,,,,,,,,,,,,,,,,15,,,,,,,,,,,,,,754,,response,,,,7,B,,,,,,Space,keypress(Space),,,,lyrical,,,,---- --------- ---------- - --- ------- -- --- ------------<br>----- -- -------- ------- ---- ------ - -------- ---- -----<br>--- ------- ---- -- --- -------- --- - ----- ------ stay --<br>-------- --- -------- -------- --- -------- ---- -- ----- -<br>-------- ---- --- ---------- --------- -- ------- ------ -<br>--------- ----- -----,294389,294406,293652,293641,293669,294419,,29,stay
screen,html.Screen,2_3_1_0_1_30,2021-04-26T11:24:59.510Z,,,,,,,,,,,,,,,,,15,,,,,,,,,,,,,,421,,response,,,,7,B,,,,,,Space,keypress(Space),,,,lyrical,,,,---- --------- ---------- - --- ------- -- --- ------------<br>----- -- -------- ------- ---- ------ - -------- ---- -----<br>--- ------- ---- -- --- -------- --- - ----- ------ ---- to<br>-------- --- -------- -------- --- -------- ---- -- ----- -<br>-------- ---- --- ---------- --------- -- ------- ------ -<br>--------- ----- -----,294807,294824,294403,294389,294419,294834,,30,to
screen,html.Screen,2_3_1_0_1_31,2021-04-26T11:25:00.022Z,,,,,,,,,,,,,,,,,15,,,,,,,,,,,,,,517,,response,,,,7,B,,,,,,Space,keypress(Space),,,,lyrical,,,,---- --------- ---------- - --- ------- -- --- ------------<br>----- -- -------- ------- ---- ------ - -------- ---- -----<br>--- ------- ---- -- --- -------- --- - ----- ------ ---- --<br>maintain --- -------- -------- --- -------- ---- -- ----- -<br>-------- ---- --- ---------- --------- -- ------- ------ -<br>--------- ----- -----,295320,295337,294820,294807,294834,295351,,31,maintain
screen,html.Screen,2_3_1_0_1_32,2021-04-26T11:25:00.449Z,,,,,,,,,,,,,,,,,15,,,,,,,,,,,,,,429,,response,,,,7,B,,,,,,Space,keypress(Space),,,,lyrical,,,,---- --------- ---------- - --- ------- -- --- ------------<br>----- -- -------- ------- ---- ------ - -------- ---- -----<br>--- ------- ---- -- --- -------- --- - ----- ------ ---- --<br>-------- his -------- -------- --- -------- ---- -- ----- -<br>-------- ---- --- ---------- --------- -- ------- ------ -<br>--------- ----- -----,295747,295764,295335,295320,295351,295786,,32,his
screen,html.Screen,2_3_1_0_1_33,2021-04-26T11:25:01.060Z,,,,,,,,,,,,,,,,,15,,,,,,,,,,,,,,604,,response,,,,7,B,,,,,,Space,keypress(Space),,,,lyrical,,,,---- --------- ---------- - --- ------- -- --- ------------<br>----- -- -------- ------- ---- ------ - -------- ---- -----<br>--- ------- ---- -- --- -------- --- - ----- ------ ---- --<br>-------- --- silence. -------- --- -------- ---- -- ----- -<br>-------- ---- --- ---------- --------- -- ------- ------ -<br>--------- ----- -----,296357,296373,295769,295747,295786,296386,,33,silence.
screen,html.Screen,2_3_1_0_1_34,2021-04-26T11:25:02.008Z,,,,,,,,,,,,,,,,,15,,,,,,,,,,,,,,954,,response,,,,7,B,,,,,,Space,keypress(Space),,,,lyrical,,,,---- --------- ---------- - --- ------- -- --- ------------<br>----- -- -------- ------- ---- ------ - -------- ---- -----<br>--- ------- ---- -- --- -------- --- - ----- ------ ---- --<br>-------- --- -------- Anderson --- -------- ---- -- ----- -<br>-------- ---- --- ---------- --------- -- ------- ------ -<br>--------- ----- -----,297305,297322,296368,296357,296386,297335,,34,Anderson
screen,html.Screen,2_3_1_0_1_35,2021-04-26T11:25:02.460Z,,,,,,,,,,,,,,,,,15,,,,,,,,,,,,,,456.0000000000582,,response,,,,7,B,,,,,,Space,keypress(Space),,,,lyrical,,,,---- --------- ---------- - --- ------- -- --- ------------<br>----- -- -------- ------- ---- ------ - -------- ---- -----<br>--- ------- ---- -- --- -------- --- - ----- ------ ---- --<br>-------- --- -------- -------- was -------- ---- -- ----- -<br>-------- ---- --- ---------- --------- -- ------- ------ -<br>--------- ----- -----,297758,297775.00000000006,297319,297305,297335,297785,,35,was
screen,html.Screen,2_3_1_0_1_36,2021-04-26T11:25:02.880Z,,,,,,,,,,,,,,,,,15,,,,,,,,,,,,,,426,,response,,,,7,B,,,,,,Space,keypress(Space),,,,lyrical,,,,---- --------- ---------- - --- ------- -- --- ------------<br>----- -- -------- ------- ---- ------ - -------- ---- -----<br>--- ------- ---- -- --- -------- --- - ----- ------ ---- --<br>-------- --- -------- -------- --- released ---- -- ----- -<br>-------- ---- --- ---------- --------- -- ------- ------ -<br>--------- ----- -----,298177,298195,297769,297758,297785,298218,,36,released
screen,html.Screen,2_3_1_0_1_37,2021-04-26T11:25:03.729Z,,,,,,,,,,,,,,,,,15,,,,,,,,,,,,,,841,,response,,,,7,B,,,,,,Space,keypress(Space),,,,lyrical,,,,---- --------- ---------- - --- ------- -- --- ------------<br>----- -- -------- ------- ---- ------ - -------- ---- -----<br>--- ------- ---- -- --- -------- --- - ----- ------ ---- --<br>-------- --- -------- -------- --- -------- July -- ----- -<br>-------- ---- --- ---------- --------- -- ------- ------ -<br>--------- ----- -----,299026,299043,298202,298178,298218,299068,,37,July
screen,html.Screen,2_3_1_0_1_38,2021-04-26T11:25:04.131Z,,,,,,,,,,,,,,,,,15,,,,,,,,,,,,,,394,,response,,,,7,B,,,,,,Space,keypress(Space),,,,lyrical,,,,---- --------- ---------- - --- ------- -- --- ------------<br>----- -- -------- ------- ---- ------ - -------- ---- -----<br>--- ------- ---- -- --- -------- --- - ----- ------ ---- --<br>-------- --- -------- -------- --- -------- ---- 20 ----- -<br>-------- ---- --- ---------- --------- -- ------- ------ -<br>--------- ----- -----,299429.00000000006,299446,299052,299027,299068,299452,,38,20
screen,html.Screen,2_3_1_0_1_39,2021-04-26T11:25:04.794Z,,,,,,,,,,,,,,,,,15,,,,,,,,,,,,,,673,,response,,,,7,B,,,,,,Space,keypress(Space),,,,lyrical,,,,---- --------- ---------- - --- ------- -- --- ------------<br>----- -- -------- ------- ---- ------ - -------- ---- -----<br>--- ------- ---- -- --- -------- --- - ----- ------ ---- --<br>-------- --- -------- -------- --- -------- ---- -- after -<br>-------- ---- --- ---------- --------- -- ------- ------ -<br>--------- ----- -----,300091,300108,299435,299429.00000000006,299452,300118,,39,after
screen,html.Screen,2_3_1_0_1_40,2021-04-26T11:25:05.346Z,,,,,,,,,,,,,,,,,15,,,,,,,,,,,,,,559,,response,,,,7,B,,,,,,Space,keypress(Space),,,,lyrical,,,,---- --------- ---------- - --- ------- -- --- ------------<br>----- -- -------- ------- ---- ------ - -------- ---- -----<br>--- ------- ---- -- --- -------- --- - ----- ------ ---- --<br>-------- --- -------- -------- --- -------- ---- -- ----- a<br>-------- ---- --- ---------- --------- -- ------- ------ -<br>--------- ----- -----,300644,300661,300102,300091,300118,300685,,40,a
screen,html.Screen,2_3_1_0_1_41,2021-04-26T11:25:06.189Z,,,,,,,,,,,,,,,,,15,,,,,,,,,,,,,,834,,response,,,,7,B,,,,,,Space,keypress(Space),,,,lyrical,,,,---- --------- ---------- - --- ------- -- --- ------------<br>----- -- -------- ------- ---- ------ - -------- ---- -----<br>--- ------- ---- -- --- -------- --- - ----- ------ ---- --<br>-------- --- -------- -------- --- -------- ---- -- ----- -<br>two-week ---- --- ---------- --------- -- ------- ------ -<br>--------- ----- -----,301486,301503,300669,300644,300685,301519,,41,two-week
screen,html.Screen,2_3_1_0_1_42,2021-04-26T11:25:06.530Z,,,,,,,,,,,,,,,,,15,,,,,,,,,,,,,,343,,response,,,,7,B,,,,,,Space,keypress(Space),,,,lyrical,,,,---- --------- ---------- - --- ------- -- --- ------------<br>----- -- -------- ------- ---- ------ - -------- ---- -----<br>--- ------- ---- -- --- -------- --- - ----- ------ ---- --<br>-------- --- -------- -------- --- -------- ---- -- ----- -<br>-------- stay --- ---------- --------- -- ------- ------ -<br>--------- ----- -----,301828.00000000006,301845,301502,301487,301519,301852,,42,stay
screen,html.Screen,2_3_1_0_1_43,2021-04-26T11:25:06.902Z,,,,,,,,,,,,,,,,,15,,,,,,,,,,,,,,382,,response,,,,7,B,,,,,,Space,keypress(Space),,,,lyrical,,,,---- --------- ---------- - --- ------- -- --- ------------<br>----- -- -------- ------- ---- ------ - -------- ---- -----<br>--- ------- ---- -- --- -------- --- - ----- ------ ---- --<br>-------- --- -------- -------- --- -------- ---- -- ----- -<br>-------- ---- for ---------- --------- -- ------- ------ -<br>--------- ----- -----,302199,302217,301835,301828.00000000006,301852,302219,,43,for
screen,html.Screen,2_3_1_0_1_44,2021-04-26T11:25:07.751Z,,,,,,,,,,,,,,,,,15,,,,,,,,,,,,,,863.0000000000582,,response,,,,7,B,,,,,,Space,keypress(Space),,,,lyrical,,,,---- --------- ---------- - --- ------- -- --- ------------<br>----- -- -------- ------- ---- ------ - -------- ---- -----<br>--- ------- ---- -- --- -------- --- - ----- ------ ---- --<br>-------- --- -------- -------- --- -------- ---- -- ----- -<br>-------- ---- --- previously --------- -- ------- ------ -<br>--------- ----- -----,303049,303066.00000000006,302203,302200,302219,303086,,44,previously
screen,html.Screen,2_3_1_0_1_45,2021-04-26T11:25:08.836Z,,,,,,,,,,,,,,,,,15,,,,,,,,,,,,,,1083,,response,,,,7,B,,,,,,Space,keypress(Space),,,,lyrical,,,,---- --------- ---------- - --- ------- -- --- ------------<br>----- -- -------- ------- ---- ------ - -------- ---- -----<br>--- ------- ---- -- --- -------- --- - ----- ------ ---- --<br>-------- --- -------- -------- --- -------- ---- -- ----- -<br>-------- ---- --- ---------- declining -- ------- ------ -<br>--------- ----- -----,304134,304152,303069,303049,303086,304169,,45,declining
screen,html.Screen,2_3_1_0_1_46,2021-04-26T11:25:10.206Z,,,,,,,,,,,,,,,,,15,,,,,,,,,,,,,,1369,,response,,,,7,B,,,,,,Space,keypress(Space),,,,lyrical,,,,---- --------- ---------- - --- ------- -- --- ------------<br>----- -- -------- ------- ---- ------ - -------- ---- -----<br>--- ------- ---- -- --- -------- --- - ----- ------ ---- --<br>-------- --- -------- -------- --- -------- ---- -- ----- -<br>-------- ---- --- ---------- --------- to ------- ------ -<br>--------- ----- -----,305504,305521,304152,304134,304169,305536,,46,to
screen,html.Screen,2_3_1_0_1_47,2021-04-26T11:25:10.828Z,,,,,,,,,,,,,,,,,15,,,,,,,,,,,,,,626,,response,,,,7,B,,,,,,Space,keypress(Space),,,,lyrical,,,,---- --------- ---------- - --- ------- -- --- ------------<br>----- -- -------- ------- ---- ------ - -------- ---- -----<br>--- ------- ---- -- --- -------- --- - ----- ------ ---- --<br>-------- --- -------- -------- --- -------- ---- -- ----- -<br>-------- ---- --- ---------- --------- -- testify ------ -<br>--------- ----- -----,306126.00000000006,306145,305519,305504,305536,306169,,47,testify
screen,html.Screen,2_3_1_0_1_48,2021-04-26T11:25:11.171Z,,,,,,,,,,,,,,,,,15,,,,,,,,,,,,,,334,,response,,,,7,B,,,,,,Space,keypress(Space),,,,lyrical,,,,---- --------- ---------- - --- ------- -- --- ------------<br>----- -- -------- ------- ---- ------ - -------- ---- -----<br>--- ------- ---- -- --- -------- --- - ----- ------ ---- --<br>-------- --- -------- -------- --- -------- ---- -- ----- -<br>-------- ---- --- ---------- --------- -- ------- before -<br>--------- ----- -----,306469,306486,306152,306126.00000000006,306169,306502,,48,before
screen,html.Screen,2_3_1_0_1_49,2021-04-26T11:25:11.640Z,,,,,,,,,,,,,,,,,15,,,,,,,,,,,,,,469,,response,,,,7,B,,,,,,Space,keypress(Space),,,,lyrical,,,,---- --------- ---------- - --- ------- -- --- ------------<br>----- -- -------- ------- ---- ------ - -------- ---- -----<br>--- ------- ---- -- --- -------- --- - ----- ------ ---- --<br>-------- --- -------- -------- --- -------- ---- -- ----- -<br>-------- ---- --- ---------- --------- -- ------- ------ a<br>--------- ----- -----,306937,306955,306486,306469,306502,306969,,49,a
screen,html.Screen,2_3_1_0_1_50,2021-04-26T11:25:12.165Z,,,,,,,,,,,,,,,,,15,,,,,,,,,,,,,,526,,response,,,,7,B,,,,,,Space,keypress(Space),,,,lyrical,,,,---- --------- ---------- - --- ------- -- --- ------------<br>----- -- -------- ------- ---- ------ - -------- ---- -----<br>--- ------- ---- -- --- -------- --- - ----- ------ ---- --<br>-------- --- -------- -------- --- -------- ---- -- ----- -<br>-------- ---- --- ---------- --------- -- ------- ------ -<br>different ----- -----,307462,307478,306952,306938,306969,307502,,50,different
screen,html.Screen,2_3_1_0_1_51,2021-04-26T11:25:13.788Z,,,,,,,,,,,,,,,,,15,,,,,,,,,,,,,,1616.0000000000582,,response,,,,7,B,,,,,,Space,keypress(Space),,,,lyrical,,,,---- --------- ---------- - --- ------- -- --- ------------<br>----- -- -------- ------- ---- ------ - -------- ---- -----<br>--- ------- ---- -- --- -------- --- - ----- ------ ---- --<br>-------- --- -------- -------- --- -------- ---- -- ----- -<br>-------- ---- --- ---------- --------- -- ------- ------ -<br>--------- grand -----,309085,309102.00000000006,307486,307463,307502,309119,,51,grand
screen,html.Screen,2_3_1_0_1_52,2021-04-26T11:25:14.238Z,,,,,,,,,,,,,,,,,15,,,,,,,,,,,,,,453,,response,,,,7,B,,,,,,Space,keypress(Space),,,,lyrical,,,,---- --------- ---------- - --- ------- -- --- ------------<br>----- -- -------- ------- ---- ------ - -------- ---- -----<br>--- ------- ---- -- --- -------- --- - ----- ------ ---- --<br>-------- --- -------- -------- --- -------- ---- -- ----- -<br>-------- ---- --- ---------- --------- -- ------- ------ -<br>--------- ----- jury.,309536,309555,309102,309086,309119,309569,,52,jury.
Item 7,flow.Loop,2_3_1_0_1,2021-04-26T11:25:14.239Z,,,,,,,,,,,,,,,,,,,,,,,,,,,,,,,34804,,completion,,,,,,,,,,,,,,,,,,,,,309536,309555,274734,274735,274751,309569,,,
Question 1,html.Screen,2_3_1_0_2,2021-04-26T11:25:21.879Z,,,,,,,,,,,,,,,,,,,,,,,,,,,,true,FALSE,,7643,,response,,,,7,B,,,,,,FALSE,click #choice-2,,,,lyrical,,,,,317177,317195,309552,309537.00000000006,309569,317203,,,
Question 2,html.Screen,2_3_1_0_3,2021-04-26T11:25:25.170Z,,,,,,,,,,,,,,,,,,,,,,,,,,,,true,TRUE,,3300,,response,,,,7,B,,,,,,TRUE,click #choice-1,,,,lyrical,,,,,320468,320486,317186,317177,317203,320486,,,
Item 7,flow.Sequence,2_3_1_0,2021-04-26T11:25:25.170Z,,,,,,,,,,,,,,,,,,,,,,,,,,,,,,,52732,,completion,,,,,,,,,,,,,,,,,,,,,320468,320486,267735,267736,267754,320486,,,
Holding screen,html.Screen,2_3_1_1_0,2021-04-26T11:25:32.172Z,,,,,,,,,,,,,,,,,,,,,,,,,,,,,,,7001,,timeout,,,,,,,,,,,,,,,,,,,,,327470,327469,320478,320469,320486,327487,,,
screen,html.Screen,2_3_1_1_1_0,2021-04-26T11:25:33.444Z,,,,,,,,,,,,,,,,,51,,,,,,,,,,,,,,1291,,response,,,,13,B,,,,,,Space,keypress(Space),,,,lyrical,,,,American -------- --- --- ---- --- --- ------ -- --------<br>---- --------- --- ------- ------------ ---------- ---------<br>--- ---------- ------- ---------- ------- -- -------- ----<br>---- --- ------ ----- ------ -- ---- --- ----- -- - -------<br>-------- -- --- --- -- ----- ----------- ----- -----------<br>---- --- ---------- --- ---- --- -- ----------,328742,328760,327469,327471,327487,328786,,0,American
screen,html.Screen,2_3_1_1_1_1,2021-04-26T11:25:34.309Z,,,,,,,,,,,,,,,,,51,,,,,,,,,,,,,,856,,response,,,,13,B,,,,,,Space,keypress(Space),,,,lyrical,,,,-------- industry --- --- ---- --- --- ------ -- --------<br>---- --------- --- ------- ------------ ---------- ---------<br>--- ---------- ------- ---------- ------- -- -------- ----<br>---- --- ------ ----- ------ -- ---- --- ----- -- - -------<br>-------- -- --- --- -- ----- ----------- ----- -----------<br>---- --- ---------- --- ---- --- -- ----------,329607,329625,328769,328743,328786,329635,,1,industry
screen,html.Screen,2_3_1_1_1_2,2021-04-26T11:25:34.805Z,,,,,,,,,,,,,,,,,51,,,,,,,,,,,,,,501,,response,,,,13,B,,,,,,Space,keypress(Space),,,,lyrical,,,,-------- -------- may --- ---- --- --- ------ -- --------<br>---- --------- --- ------- ------------ ---------- ---------<br>--- ---------- ------- ---------- ------- -- -------- ----<br>---- --- ------ ----- ------ -- ---- --- ----- -- - -------<br>-------- -- --- --- -- ----- ----------- ----- -----------<br>---- --- ---------- --- ---- --- -- ----------,330103,330121,329620,329607,329635,330136,,2,may
screen,html.Screen,2_3_1_1_1_3,2021-04-26T11:25:35.359Z,,,,,,,,,,,,,,,,,51,,,,,,,,,,,,,,555,,response,,,,13,B,,,,,,Space,keypress(Space),,,,lyrical,,,,-------- -------- --- not ---- --- --- ------ -- --------<br>---- --------- --- ------- ------------ ---------- ---------<br>--- ---------- ------- ---------- ------- -- -------- ----<br>---- --- ------ ----- ------ -- ---- --- ----- -- - -------<br>-------- -- --- --- -- ----- ----------- ----- -----------<br>---- --- ---------- --- ---- --- -- ----------,330657,330675,330120,330103,330136,330686,,3,not
