sender,sender_type,sender_id,timestamp,meta,,Blues,Classical,Country,Dance,Electronic,Folk,Gospel,Hip-Hop,Jazz,Latin,Musical/Film,New-age,Pop,Prolific_id,Provo_ID,R&B,Rap,Reggae,Religious,Rock,Soul,Swing,Traditional,age,artist_name,correct,correctResponse,distraction,duration,education,ended_on,familiarity,gender,headphone_check_performance,item,list,music_frequency,offensiveness,pleasantness,position_correct,preference,response,response_action,snippet_file,song_name,song_rating,sound,stimulus_1,stimulus_2,stimulus_3,text,time_commit,time_end,time_render,time_run,time_show,time_switch,url,word,word_ID
Prolific ID,html.Form,0,2021-04-26T18:47:21.161Z,"{""labjs_version"":""20.2.2"",""labjs_build"":{""flavor"":""production"",""commit"":""a25486e0c714a0ae2ce03ff94b7bb6896854dcfa""},""location"":""https://run.pavlovia.org/mvasilev/prolific_music_d/"",""userAgent"":""Mozilla/5.0 (Windows NT 10.0; Win64; x64) AppleWebKit/537.36 (KHTML, like Gecko) Chrome/90.0.4430.85 Safari/537.36"",""platform"":""Win32"",""language"":""en-GB"",""locale"":""en-GB"",""timeZone"":""Europe/London"",""timezoneOffset"":-60,""screen_width"":1536,""screen_height"":864,""scroll_width"":1536,""scroll_height"":674,""window_innerWidth"":1536,""window_innerHeight"":722,""devicePixelRatio"":1.25}",,,,,,,,,,,,,,,5f02868eb1a7a9139228bbf3,,,,,,,,,,,,,,,4695.202000007432,,form submission,,,,,,,,,,,,,,,,,,,,,11956.245000008494,11955.855000007432,7227.699,7241.029999975581,7260.653,11959.465,{},,
Introduction,html.Screen,1_0,2021-04-26T18:47:29.370Z,,,,,,,,,,,,,,,,,,,,,,,,,,,,,,,8203.330000011101,,response,,,,,,,,,,,continue,click button,,,,,,,,,20165.184999990743,20162.7950000111,11943.174,11956.505000009201,11959.465,20174.112,,,
Volume calibration,html.Screen,1_1,2021-04-26T18:47:51.195Z,,,,,,,,,,,,,,,,,,,,,,,,,,,,,,,21813.26800000594,,response,,,,,,,,,,,continue,click button,,,,,,,,,41989.759999967646,41987.38000000594,20157.946,20165.64500000095,20174.112,42001.988,,,
Task instructions,html.Screen,1_2,2021-04-26T18:47:57.116Z,,,,,,,,,,,,,,,,,,,,,,,,,,,,,,,5908.522000016077,,response,,,,,,,,,,,continue,click button,,,,,,,,,47911.14999999991,47910.510000016075,41985.353,41989.889999968,42001.988,47917.135,,,
Sounds,html.Screen,1_3_0_0,2021-04-26T18:48:01.357Z,,,,,,,,,,,,,,,,,,,,,,,,,,,,,,,4248.9519999999975,,timeout,,,,,,,,,3,,,,,,,,O,I,S,,52152.57500001462,52149.871,47900.555,47911.37499996694,47917.135,52166.087,,,
Judgement,html.Screen,1_3_0_1,2021-04-26T18:48:02.523Z,,,,,,,,,,,,,,,,,,,,,,,,,,,,true,3,,1151.1480000240845,,response,,,,,,,,,3,,3,click #choice-3,,,,,O,I,S,,53318.06999997934,53317.235000024084,52149.871,52152.72499999264,52166.087,53332.479,,,
Trial,flow.Sequence,1_3_0,2021-04-26T18:48:02.523Z,,,,,,,,,,,,,,,,,,,,,,,,,,,,,,,5400.100000024082,,completion,,,,,,,,,3,,,,,,,,O,I,S,,53318.33999999799,53317.235000024084,47900.555,47911.32499999367,47917.135,53332.479,,,
Sounds,html.Screen,1_3_1_0,2021-04-26T18:48:06.770Z,,,,,,,,,,,,,,,,,,,,,,,,,,,,,,,4248.940999999999,,timeout,,,,,,,,,2,,,,,,,,I,S,O,,57565.394999983255,57564.763,53315.884,53318.46999999834,53332.479,57581.42,,,
Judgement,html.Screen,1_3_1_1,2021-04-26T18:48:07.406Z,,,,,,,,,,,,,,,,,,,,,,,,,,,,true,2,,619.2300000134128,,response,,,,,,,,,2,,2,click #choice-2,,,,,I,S,O,,58201.36000000639,58200.65000001341,57564.763,57565.51500002388,57581.42,58214.59,,,
Trial,flow.Sequence,1_3_1,2021-04-26T18:48:07.406Z,,,,,,,,,,,,,,,,,,,,,,,,,,,,,,,4868.171000013412,,completion,,,,,,,,,2,,,,,,,,I,S,O,,58201.57500001369,58200.65000001341,53315.884,53318.4299999848,53332.479,58214.59,,,
Sounds,html.Screen,1_3_2_0,2021-04-26T18:48:11.653Z,,,,,,,,,,,,,,,,,,,,,,,,,,,,,,,4248.938000000002,,timeout,,,,,,,,,2,,,,,,,,O,S,I,,62447.73499999428,62446.888,58197.98,58201.69999997597,58214.59,62463.528,,,
Judgement,html.Screen,1_3_2_1,2021-04-26T18:48:12.113Z,,,,,,,,,,,,,,,,,,,,,,,,,,,,true,2,,444.0119999856033,,response,,,,,,,,,2,,2,click #choice-2,,,,,O,S,I,,62908.594999986235,62907.5399999856,62446.888,62447.84500001697,62463.528,62913.454,,,
Trial,flow.Sequence,1_3_2,2021-04-26T18:48:12.114Z,,,,,,,,,,,,,,,,,,,,,,,,,,,,,,,4692.949999985605,,completion,,,,,,,,,2,,,,,,,,O,S,I,,62908.7999999756,62907.5399999856,58197.98,58201.66000002064,58214.59,62913.454,,,
Sounds,html.Screen,1_3_3_0,2021-04-26T18:48:16.352Z,,,,,,,,,,,,,,,,,,,,,,,,,,,,,,,4248.898000000001,,timeout,,,,,,,,,3,,,,,,,,I,O,S,,67147.20499998657,67145.738,62896.834,62908.93999999389,62913.454,67162.352,,,
Judgement,html.Screen,1_3_3_1,2021-04-26T18:48:16.954Z,,,,,,,,,,,,,,,,,,,,,,,,,,,,true,3,,586.0029999888066,,response,,,,,,,,,3,,3,click #choice-3,,,,,I,O,S,,67749.03000000631,67748.3549999888,67145.738,67147.30999997118,67162.352,67762.234,,,
Trial,flow.Sequence,1_3_3,2021-04-26T18:48:16.954Z,,,,,,,,,,,,,,,,,,,,,,,,,,,,,,,4834.900999988808,,completion,,,,,,,,,3,,,,,,,,I,O,S,,67749.19499998214,67748.3549999888,62896.834,62908.88499998255,62913.454,67762.234,,,
Sounds,html.Screen,1_3_4_0,2021-04-26T18:48:21.200Z,,,,,,,,,,,,,,,,,,,,,,,,,,,,,,,4248.947,,timeout,,,,,,,,,1,,,,,,,,S,I,O,,71995.14999997336,71994.549,67745.621,67749.30500000482,67762.234,72011.181,,,
Judgement,html.Screen,1_3_4_1,2021-04-26T18:48:21.693Z,,,,,,,,,,,,,,,,,,,,,,,,,,,,true,1,,475.75399999353976,,response,,,,,,,,,1,,1,click #choice-1,,,,,S,I,O,,72488.14500001026,72486.93499999354,71994.549,71995.26499997592,72011.181,72494.428,,,
Trial,flow.Sequence,1_3_4,2021-04-26T18:48:21.693Z,,,,,,,,,,,,,,,,,,,,,,,,,,,,,,,4724.70099999354,,completion,,,,,,,,,1,,,,,,,,S,I,O,,72488.3699999773,72486.93499999354,67745.621,67749.26999997115,67762.234,72494.428,,,
Sounds,html.Screen,1_3_5_0,2021-04-26T18:48:25.932Z,,,,,,,,,,,,,,,,,,,,,,,,,,,,,,,4250.070000000007,,timeout,,,,,,,,,1,,,,,,,,S,O,I,,76727.20500000287,76726.675,72477.748,72488.50500001572,72494.428,76744.498,,,
Judgement,html.Screen,1_3_5_1,2021-04-26T18:48:26.440Z,,,,,,,,,,,,,,,,,,,,,,,,,,,,true,1,,489.85700002232625,,response,,,,,,,,,1,,1,click #choice-1,,,,,S,O,I,,77235.0350000197,77234.35500002233,76726.675,76727.30500000762,76744.498,77243.217,,,
Trial,flow.Sequence,1_3_5,2021-04-26T18:48:26.440Z,,,,,,,,,,,,,,,,,,,,,,,,,,,,,,,4739.927000022333,,completion,,,,,,,,,1,,,,,,,,S,O,I,,77235.18999997759,77234.35500002233,72477.748,72488.46999998204,72494.428,77243.217,,,
Task,flow.Loop,1_3,2021-04-26T18:48:26.443Z,,,,,,,,,,,,,,,,,,,,,,,,,,,,,,,29317.22000002233,,completion,,,1,,,,,,,,,,,,,,,,,,77238.59000002267,77234.35500002233,47900.555,47911.275000020396,47917.135,77243.217,,,
Trap,html.Screen,1_4,2021-04-26T18:48:26.446Z,,,,,,,,,,,,,,,,,,,,,,,,,,,,,,,NaN,,skipped,,,,,,,,,,,,,,,,,,,,,77241.00500001805,77234.35500002233,,77240.8900000155,,77243.217,,,
Thanks,html.Screen,1_5,2021-04-26T18:48:28.994Z,,,,,,,,,,,,,,,,,,,,,,,,,,,,,,,2545.433000002231,,response,,,,,,,,,,,continue,click button,,,,,,,,,79789.2550000106,79788.65000000224,77226.547,77241.11499998253,77243.217,81925.391,,,
Headphone screening,flow.Sequence,1,2021-04-26T18:48:28.994Z,,,,,,,,,,,,,,,,,,,,,,,,,,,,,,,67829.18500000224,,completion,,,,,,,,,,,,,,,,,,,,,79789.40499998862,79788.65000000224,11943.174,11956.46499999566,11959.465,81925.391,,,
Instructions,html.Page,2_0,2021-04-26T18:48:45.267Z,,,,,,,,,,,,,,,,,,,,,,,,,,,,,,,14136.393999968946,,form submission,,,,,,,,,,,,,,,,,,,,,96062.00500001432,96061.78499996895,81908.703,81920.79499998363,81925.391,96071.882,,,
Holding screen,html.Screen,2_1_0_0,2021-04-26T18:48:55.258Z,,,,,,,,,,,,,,,,,,,,,,,,,,,,,,,9997.476999999999,,timeout,,,,,,,,,,,,,,,,,,,,,106053.16499999026,106052.715,96055.226,96062.22999998135,96071.882,106069.359,,,
screen,html.Screen,2_1_0_1_0,2021-04-26T18:48:56.021Z,,,,,,,,,,,,,,,,,53,,,,,,,,,,,,,,745.4009999792906,,response,,,,99,,,,,,,Space,keypress(Space),,,,,,,,When -- ----- -- ------ - ------- --- ----------<br>------------- ------ ------ ---- ---- ------- ----- -- ----<br>-------- ------- -- ---------- --- - --- ----- ----- ----<br>---- --- --- ----- --- ---- ---- ------- ----- ---- -------<br>--- --- -- ----- -- --- ---- -- --- ---- -- ------ ------<br>--- ----- -- ----,106816.50499999523,106814.75999997929,106052.715,106053.32000000635,106069.359,106819.169,,0,When
screen,html.Screen,2_1_0_1_1,2021-04-26T18:48:56.336Z,,,,,,,,,,,,,,,,,53,,,,,,,,,,,,,,311.34599996800534,,response,,,,99,,,,,,,Space,keypress(Space),,,,,,,,---- it ----- -- ------ - ------- --- ----------<br>------------- ------ ------ ---- ---- ------- ----- -- ----<br>-------- ------- -- ---------- --- - --- ----- ----- ----<br>---- --- --- ----- --- ---- ---- ------- ----- ---- -------<br>--- --- -- ----- -- --- ---- -- --- ---- -- ------ ------<br>--- ----- -- ----,107131.30499998806,107130.514999968,106802.668,106816.63000001572,106819.169,107135.747,,1,it
screen,html.Screen,2_1_0_1_2,2021-04-26T18:48:56.610Z,,,,,,,,,,,,,,,,,53,,,,,,,,,,,,,,269.48299997483264,,response,,,,99,,,,,,,Space,keypress(Space),,,,,,,,---- -- comes -- ------ - ------- --- ----------<br>------------- ------ ------ ---- ---- ------- ----- -- ----<br>-------- ------- -- ---------- --- - --- ----- ----- ----<br>---- --- --- ----- --- ---- ---- ------- ----- ---- -------<br>--- --- -- ----- -- --- ---- -- --- ---- -- ------ ------<br>--- ----- -- ----,107405.6349999737,107405.22999997484,107119.183,107131.43999996828,107135.747,107419.023,,2,comes
screen,html.Screen,2_1_0_1_3,2021-04-26T18:48:56.909Z,,,,,,,,,,,,,,,,,53,,,,,,,,,,,,,,284.7220000061643,,response,,,,99,,,,,,,Space,keypress(Space),,,,,,,,---- -- ----- to ------ - ------- --- ----------<br>------------- ------ ------ ---- ---- ------- ----- -- ----<br>-------- ------- -- ---------- --- - --- ----- ----- ----<br>---- --- --- ----- --- ---- ---- ------- ----- ---- -------<br>--- --- -- ----- -- --- ---- -- --- ---- -- ------ ------<br>--- ----- -- ----,107704.1999999783,107703.74500000617,107402.472,107405.74499999639,107419.023,107719.002,,3,to
screen,html.Screen,2_1_0_1_4,2021-04-26T18:48:57.222Z,,,,,,,,,,,,,,,,,53,,,,,,,,,,,,,,298.10299997717084,,response,,,,99,,,,,,,Space,keypress(Space),,,,,,,,---- -- ----- -- having - ------- --- ----------<br>------------- ------ ------ ---- ---- ------- ----- -- ----<br>-------- ------- -- ---------- --- - --- ----- ----- ----<br>---- --- --- ----- --- ---- ---- ------- ----- ---- -------<br>--- --- -- ----- -- --- ---- -- --- ---- -- ------ ------<br>--- ----- -- ----,108017.55499996943,108017.10499997716,107702.438,107704.31000000099,107719.002,108043.521,,4,having
screen,html.Screen,2_1_0_1_5,2021-04-26T18:48:57.543Z,,,,,,,,,,,,,,,,,53,,,,,,,,,,,,,,294.08899998776906,,response,,,,99,,,,,,,Space,keypress(Space),,,,,,,,---- -- ----- -- ------ a ------- --- ----------<br>------------- ------ ------ ---- ---- ------- ----- -- ----<br>-------- ------- -- ---------- --- - --- ----- ----- ----<br>---- --- --- ----- --- ---- ---- ------- ----- ---- -------<br>--- --- -- ----- -- --- ---- -- --- ---- -- ------ ------<br>--- ----- -- ----,108338.31000002101,108337.60999998776,108002.602,108017.66000001226,108043.521,108352.558,,5,a
screen,html.Screen,2_1_0_1_6,2021-04-26T18:48:57.850Z,,,,,,,,,,,,,,,,,53,,,,,,,,,,,,,,291.9419999948732,,response,,,,99,,,,,,,Space,keypress(Space),,,,,,,,---- -- ----- -- ------ - lasting --- ----------<br>------------- ------ ------ ---- ---- ------- ----- -- ----<br>-------- ------- -- ---------- --- - --- ----- ----- ----<br>---- --- --- ----- --- ---- ---- ------- ----- ---- -------<br>--- --- -- ----- -- --- ---- -- --- ---- -- ------ ------<br>--- ----- -- ----,108644.91500001168,108644.49999999488,108335.564,108338.44500000123,108352.558,108652.322,,6,lasting
screen,html.Screen,2_1_0_1_7,2021-04-26T18:48:58.169Z,,,,,,,,,,,,,,,,,53,,,,,,,,,,,,,,311.20299997010443,,response,,,,99,,,,,,,Space,keypress(Space),,,,,,,,---- -- ----- -- ------ - ------- and ----------<br>------------- ------ ------ ---- ---- ------- ----- -- ----<br>-------- ------- -- ---------- --- - --- ----- ----- ----<br>---- --- --- ----- --- ---- ---- ------- ----- ---- -------<br>--- --- -- ----- -- --- ---- -- --- ---- -- ------ ------<br>--- ----- -- ----,108964.19500000775,108963.5249999701,108636.029,108645.04500001203,108652.322,108968.648,,7,and
screen,html.Screen,2_1_0_1_8,2021-04-26T18:48:58.500Z,,,,,,,,,,,,,,,,,53,,,,,,,,,,,,,,325.4220000035566,,response,,,,99,,,,,,,Space,keypress(Space),,,,,,,,---- -- ----- -- ------ - ------- --- fulfilling<br>------------- ------ ------ ---- ---- ------- ----- -- ----<br>-------- ------- -- ---------- --- - --- ----- ----- ----<br>---- --- --- ----- --- ---- ---- ------- ----- ---- -------<br>--- --- -- ----- -- --- ---- -- --- ---- -- ------ ------<br>--- ----- -- ----,109294.739999983,109294.07000000356,108952.011,108964.34499998577,108968.648,109301.949,,8,fulfilling
screen,html.Screen,2_1_0_1_9,2021-04-26T18:48:58.823Z,,,,,,,,,,,,,,,,,53,,,,,,,,,,,,,,315.7709999801882,,response,,,,99,,,,,,,Space,keypress(Space),,,,,,,,"---- -- ----- -- ------ - ------- --- ----------<br>relationship, ------ ------ ---- ---- ------- ----- -- ----<br>-------- ------- -- ---------- --- - --- ----- ----- ----<br>---- --- --- ----- --- ---- ---- ------- ----- ---- -------<br>--- --- -- ----- -- --- ---- -- --- ---- -- ------ ------<br>--- ----- -- ----",109618.27500001527,109617.71999998018,109285.301,109294.89499999909,109301.949,109635.139,,9,"relationship,"
screen,html.Screen,2_1_0_1_10,2021-04-26T18:48:59.133Z,,,,,,,,,,,,,,,,,53,,,,,,,,,,,,,,292.33599997495185,,response,,,,99,,,,,,,Space,keypress(Space),,,,,,,,---- -- ----- -- ------ - ------- --- ----------<br>------------- common ------ ---- ---- ------- ----- -- ----<br>-------- ------- -- ---------- --- - --- ----- ----- ----<br>---- --- --- ----- --- ---- ---- ------- ----- ---- -------<br>--- --- -- ----- -- --- ---- -- --- ---- -- ------ ------<br>--- ----- -- ----,109928.06499998551,109927.47499997495,109618.565,109618.39000001783,109635.139,109935.061,,10,common
screen,html.Screen,2_1_0_1_11,2021-04-26T18:48:59.393Z,,,,,,,,,,,,,,,,,53,,,,,,,,,,,,,,252.15399998355133,,response,,,,99,,,,,,,Space,keypress(Space),,,,,,,,---- -- ----- -- ------ - ------- --- ----------<br>------------- ------ wisdom ---- ---- ------- ----- -- ----<br>-------- ------- -- ---------- --- - --- ----- ----- ----<br>---- --- --- ----- --- ---- ---- ------- ----- ---- -------<br>--- --- -- ----- -- --- ---- -- --- ---- -- ------ ------<br>--- ----- -- ----,110187.8700000234,110187.21499998355,109918.507,109928.2050000038,109935.061,110202.07,,11,wisdom
screen,html.Screen,2_1_0_1_12,2021-04-26T18:48:59.762Z,,,,,,,,,,,,,,,,,53,,,,,,,,,,,,,,354.9299999715877,,response,,,,99,,,,,,,Space,keypress(Space),,,,,,,,---- -- ----- -- ------ - ------- --- ----------<br>------------- ------ ------ says ---- ------- ----- -- ----<br>-------- ------- -- ---------- --- - --- ----- ----- ----<br>---- --- --- ----- --- ---- ---- ------- ----- ---- -------<br>--- --- -- ----- -- --- ---- -- --- ---- -- ------ ------<br>--- ----- -- ----,110557.57000000449,110556.9999999716,110185.38,110188.00500000361,110202.07,110568.35,,12,says
screen,html.Screen,2_1_0_1_13,2021-04-26T18:49:00.040Z,,,,,,,,,,,,,,,,,53,,,,,,,,,,,,,,266.5399999982619,,response,,,,99,,,,,,,Space,keypress(Space),,,,,,,,---- -- ----- -- ------ - ------- --- ----------<br>------------- ------ ------ ---- that ------- ----- -- ----<br>-------- ------- -- ---------- --- - --- ----- ----- ----<br>---- --- --- ----- --- ---- ---- ------- ----- ---- -------<br>--- --- -- ----- -- --- ---- -- --- ---- -- ------ ------<br>--- ----- -- ----,110835.44499997515,110834.88999999827,110551.739,110557.77499999385,110568.35,110852.092,,13,that
screen,html.Screen,2_1_0_1_14,2021-04-26T18:49:00.264Z,,,,,,,,,,,,,,,,,53,,,,,,,,,,,,,,206.94299998384668,,response,,,,99,,,,,,,Space,keypress(Space),,,,,,,,---- -- ----- -- ------ - ------- --- ----------<br>------------- ------ ------ ---- ---- feeling ----- -- ----<br>-------- ------- -- ---------- --- - --- ----- ----- ----<br>---- --- --- ----- --- ---- ---- ------- ----- ---- -------<br>--- --- -- ----- -- --- ---- -- --- ---- -- ------ ------<br>--- ----- -- ----,111059.5500000054,111059.03499998385,110834.982,110835.55499999784,110852.092,111068.161,,14,feeling
screen,html.Screen,2_1_0_1_15,2021-04-26T18:49:00.641Z,,,,,,,,,,,,,,,,,53,,,,,,,,,,,,,,367.9040000162495,,response,,,,99,,,,,,,Space,keypress(Space),,,,,,,,---- -- ----- -- ------ - ------- --- ----------<br>------------- ------ ------ ---- ---- ------- close -- ----<br>-------- ------- -- ---------- --- - --- ----- ----- ----<br>---- --- --- ----- --- ---- ---- ------- ----- ---- -------<br>--- --- -- ----- -- --- ---- -- --- ---- -- ------ ------<br>--- ----- -- ----,111436.47499999497,111436.06500001624,111051.547,111059.66500000795,111068.161,111451.827,,15,close
screen,html.Screen,2_1_0_1_16,2021-04-26T18:49:00.914Z,,,,,,,,,,,,,,,,,53,,,,,,,,,,,,,,256.9330000086193,,response,,,,99,,,,,,,Space,keypress(Space),,,,,,,,---- -- ----- -- ------ - ------- --- ----------<br>------------- ------ ------ ---- ---- ------- ----- to ----<br>-------- ------- -- ---------- --- - --- ----- ----- ----<br>---- --- --- ----- --- ---- ---- ------- ----- ---- -------<br>--- --- -- ----- -- --- ---- -- --- ---- -- ------ ------<br>--- ----- -- ----,111709.27499997197,111708.76000000862,111434.79,111436.57999997959,111451.827,111718.393,,16,to
screen,html.Screen,2_1_0_1_17,2021-04-26T18:49:01.165Z,,,,,,,,,,,,,,,,,53,,,,,,,,,,,,,,241.02199999026197,,response,,,,99,,,,,,,Space,keypress(Space),,,,,,,,---- -- ----- -- ------ - ------- --- ----------<br>------------- ------ ------ ---- ---- ------- ----- -- your<br>-------- ------- -- ---------- --- - --- ----- ----- ----<br>---- --- --- ----- --- ---- ---- ------- ----- ---- -------<br>--- --- -- ----- -- --- ---- -- --- ---- -- ------ ------<br>--- ----- -- ----,111959.8700000206,111959.41499999026,111701.381,111709.44499998586,111718.393,111967.925,,17,your
screen,html.Screen,2_1_0_1_18,2021-04-26T18:49:01.495Z,,,,,,,,,,,,,,,,,53,,,,,,,,,,,,,,322.15999998599,,response,,,,99,,,,,,,Space,keypress(Space),,,,,,,,---- -- ----- -- ------ - ------- --- ----------<br>------------- ------ ------ ---- ---- ------- ----- -- ----<br>romantic ------- -- ---------- --- - --- ----- ----- ----<br>---- --- --- ----- --- ---- ---- ------- ----- ---- -------<br>--- --- -- ----- -- --- ---- -- --- ---- -- ------ ------<br>--- ----- -- ----,112290.51999998046,112290.084999986,111951.658,111959.97999998508,111967.925,112301.428,,18,romantic
screen,html.Screen,2_1_0_1_19,2021-04-26T18:49:01.852Z,,,,,,,,,,,,,,,,,53,,,,,,,,,,,,,,345.12699998480093,,response,,,,99,,,,,,,Space,keypress(Space),,,,,,,,---- -- ----- -- ------ - ------- --- ----------<br>------------- ------ ------ ---- ---- ------- ----- -- ----<br>-------- partner -- ---------- --- - --- ----- ----- ----<br>---- --- --- ----- --- ---- ---- ------- ----- ---- -------<br>--- --- -- ----- -- --- ---- -- --- ---- -- ------ ------<br>--- ----- -- ----,112646.9849999994,112646.5549999848,112285.138,112290.63499998301,112301.428,112651.066,,19,partner
screen,html.Screen,2_1_0_1_20,2021-04-26T18:49:02.175Z,,,,,,,,,,,,,,,,,53,,,,,,,,,,,,,,318.274000010555,,response,,,,99,,,,,,,Space,keypress(Space),,,,,,,,---- -- ----- -- ------ - ------- --- ----------<br>------------- ------ ------ ---- ---- ------- ----- -- ----<br>-------- ------- is ---------- --- - --- ----- ----- ----<br>---- --- --- ----- --- ---- ---- ------- ----- ---- -------<br>--- --- -- ----- -- --- ---- -- --- ---- -- ------ ------<br>--- ----- -- ----,112969.79000000283,112969.34000001056,112634.556,112647.09500002209,112651.066,112984.361,,20,is
screen,html.Screen,2_1_0_1_21,2021-04-26T18:49:02.466Z,,,,,,,,,,,,,,,,,53,,,,,,,,,,,,,,276.42899997116183,,response,,,,99,,,,,,,Space,keypress(Space),,,,,,,,---- -- ----- -- ------ - ------- --- ----------<br>------------- ------ ------ ---- ---- ------- ----- -- ----<br>-------- ------- -- paramount. --- - --- ----- ----- ----<br>---- --- --- ----- --- ---- ---- ------- ----- ---- -------<br>--- --- -- ----- -- --- ---- -- --- ---- -- ------ ------<br>--- ----- -- ----,113261.27000001725,113260.78999997117,112967.746,112969.89499998745,112984.361,113267.565,,21,paramount.
screen,html.Screen,2_1_0_1_22,2021-04-26T18:49:02.900Z,,,,,,,,,,,,,,,,,53,,,,,,,,,,,,,,427.6950000076904,,response,,,,99,,,,,,,Space,keypress(Space),,,,,,,,---- -- ----- -- ------ - ------- --- ----------<br>------------- ------ ------ ---- ---- ------- ----- -- ----<br>-------- ------- -- ---------- But - --- ----- ----- ----<br>---- --- --- ----- --- ---- ---- ------- ----- ---- -------<br>--- --- -- ----- -- --- ---- -- --- ---- -- ------ ------<br>--- ----- -- ----,113695.63999999082,113695.2600000077,113251.002,113261.37999998173,113267.565,113700.754,,22,But
screen,html.Screen,2_1_0_1_23,2021-04-26T18:49:03.278Z,,,,,,,,,,,,,,,,,53,,,,,,,,,,,,,,372.2060000195197,,response,,,,99,,,,,,,Space,keypress(Space),,,,,,,,---- -- ----- -- ------ - ------- --- ----------<br>------------- ------ ------ ---- ---- ------- ----- -- ----<br>-------- ------- -- ---------- --- a --- ----- ----- ----<br>---- --- --- ----- --- ---- ---- ------- ----- ---- -------<br>--- --- -- ----- -- --- ---- -- --- ---- -- ------ ------<br>--- ----- -- ----,114073.6400000169,114072.96000001952,113684.613,113695.74499997543,113700.754,114084.134,,23,a
screen,html.Screen,2_1_0_1_24,2021-04-26T18:49:03.594Z,,,,,,,,,,,,,,,,,53,,,,,,,,,,,,,,304.7309999862482,,response,,,,99,,,,,,,Space,keypress(Space),,,,,,,,---- -- ----- -- ------ - ------- --- ----------<br>------------- ------ ------ ---- ---- ------- ----- -- ----<br>-------- ------- -- ---------- --- - new ----- ----- ----<br>---- --- --- ----- --- ---- ---- ------- ----- ---- -------<br>--- --- -- ----- -- --- ---- -- --- ---- -- ------ ------<br>--- ----- -- ----,114389.28000000305,114388.86499998625,114067.636,114073.82499997038,114084.134,114400.703,,24,new
screen,html.Screen,2_1_0_1_25,2021-04-26T18:49:03.900Z,,,,,,,,,,,,,,,,,53,,,,,,,,,,,,,,294.23700001578254,,response,,,,99,,,,,,,Space,keypress(Space),,,,,,,,---- -- ----- -- ------ - ------- --- ----------<br>------------- ------ ------ ---- ---- ------- ----- -- ----<br>-------- ------- -- ---------- --- - --- study ----- ----<br>---- --- --- ----- --- ---- ---- ------- ----- ---- -------<br>--- --- -- ----- -- --- ---- -- --- ---- -- ------ ------<br>--- ----- -- ----,114695.37500001024,114694.94000001578,114384.581,114389.39999998547,114400.703,114700.551,,25,study
screen,html.Screen,2_1_0_1_26,2021-04-26T18:49:04.145Z,,,,,,,,,,,,,,,,,53,,,,,,,,,,,,,,239.03900002359296,,response,,,,99,,,,,,,Space,keypress(Space),,,,,,,,---- -- ----- -- ------ - ------- --- ----------<br>------------- ------ ------ ---- ---- ------- ----- -- ----<br>-------- ------- -- ---------- --- - --- ----- finds ----<br>---- --- --- ----- --- ---- ---- ------- ----- ---- -------<br>--- --- -- ----- -- --- ---- -- --- ---- -- ------ ------<br>--- ----- -- ----,114940.02999999793,114939.5900000236,114683.98,114695.47999999486,114700.551,114950.549,,26,finds
screen,html.Screen,2_1_0_1_27,2021-04-26T18:49:04.464Z,,,,,,,,,,,,,,,,,53,,,,,,,,,,,,,,308.0460000211606,,response,,,,99,,,,,,,Space,keypress(Space),,,,,,,,---- -- ----- -- ------ - ------- --- ----------<br>------------- ------ ------ ---- ---- ------- ----- -- ----<br>-------- ------- -- ---------- --- - --- ----- ----- that<br>---- --- --- ----- --- ---- ---- ------- ----- ---- -------<br>--- --- -- ----- -- --- ---- -- --- ---- -- ------ ------<br>--- ----- -- ----,115259.30500001414,115258.59500002116,114933.904,114940.14999998035,114950.549,115267.077,,27,that
screen,html.Screen,2_1_0_1_28,2021-04-26T18:49:04.791Z,,,,,,,,,,,,,,,,,53,,,,,,,,,,,,,,318.7030000230734,,response,,,,99,,,,,,,Space,keypress(Space),,,,,,,,---- -- ----- -- ------ - ------- --- ----------<br>------------- ------ ------ ---- ---- ------- ----- -- ----<br>-------- ------- -- ---------- --- - --- ----- ----- ----<br>it's --- --- ----- --- ---- ---- ------- ----- ---- -------<br>--- --- -- ----- -- --- ---- -- --- ---- -- ------ ------<br>--- ----- -- ----,115586.18500002194,115585.78000002308,115250.505,115259.45499999216,115267.077,115600.596,,28,it's
screen,html.Screen,2_1_0_1_29,2021-04-26T18:49:05.035Z,,,,,,,,,,,,,,,,,53,,,,,,,,,,,,,,228.52400000941998,,response,,,,99,,,,,,,Space,keypress(Space),,,,,,,,---- -- ----- -- ------ - ------- --- ----------<br>------------- ------ ------ ---- ---- ------- ----- -- ----<br>-------- ------- -- ---------- --- - --- ----- ----- ----<br>---- not --- ----- --- ---- ---- ------- ----- ---- -------<br>--- --- -- ----- -- --- ---- -- --- ---- -- ------ ------<br>--- ----- -- ----,115829.87000001594,115829.12000000942,115584.068,115586.29000000656,115600.596,115833.576,,29,not
screen,html.Screen,2_1_0_1_30,2021-04-26T18:49:05.228Z,,,,,,,,,,,,,,,,,53,,,,,,,,,,,,,,188.74399998912122,,response,,,,99,,,,,,,Space,keypress(Space),,,,,,,,---- -- ----- -- ------ - ------- --- ----------<br>------------- ------ ------ ---- ---- ------- ----- -- ----<br>-------- ------- -- ---------- --- - --- ----- ----- ----<br>---- --- how ----- --- ---- ---- ------- ----- ---- -------<br>--- --- -- ----- -- --- ---- -- --- ---- -- ------ ------<br>--- ----- -- ----,116022.72000000812,116022.31999998912,115817.023,115830.01999999397,115833.576,116033.926,,30,how
screen,html.Screen,2_1_0_1_31,2021-04-26T18:49:05.637Z,,,,,,,,,,,,,,,,,53,,,,,,,,,,,,,,397.5539999701723,,response,,,,99,,,,,,,Space,keypress(Space),,,,,,,,---- -- ----- -- ------ - ------- --- ----------<br>------------- ------ ------ ---- ---- ------- ----- -- ----<br>-------- ------- -- ---------- --- - --- ----- ----- ----<br>---- --- --- close --- ---- ---- ------- ----- ---- -------<br>--- --- -- ----- -- --- ---- -- --- ---- -- ------ ------<br>--- ----- -- ----,116431.96999997599,116431.47999997018,116017.255,116022.83500001067,116033.926,116459.115,,31,close
screen,html.Screen,2_1_0_1_32,2021-04-26T18:49:05.992Z,,,,,,,,,,,,,,,,,53,,,,,,,,,,,,,,327.0300000200368,,response,,,,99,,,,,,,Space,keypress(Space),,,,,,,,---- -- ----- -- ------ - ------- --- ----------<br>------------- ------ ------ ---- ---- ------- ----- -- ----<br>-------- ------- -- ---------- --- - --- ----- ----- ----<br>---- --- --- ----- you ---- ---- ------- ----- ---- -------<br>--- --- -- ----- -- --- ---- -- --- ---- -- ------ ------<br>--- ----- -- ----,116786.67000000132,116786.14500002004,116416.874,116432.10999999428,116459.115,116800.514,,32,you
screen,html.Screen,2_1_0_1_33,2021-04-26T18:49:06.303Z,,,,,,,,,,,,,,,,,53,,,,,,,,,,,,,,297.4009999911941,,response,,,,99,,,,,,,Space,keypress(Space),,,,,,,,---- -- ----- -- ------ - ------- --- ----------<br>------------- ------ ------ ---- ---- ------- ----- -- ----<br>-------- ------- -- ---------- --- - --- ----- ----- ----<br>---- --- --- ----- --- feel ---- ------- ----- ---- -------<br>--- --- -- ----- -- --- ---- -- --- ---- -- ------ ------<br>--- ----- -- ----,117098.33000000799,117097.91499999119,116783.533,116786.78999998374,116800.514,117117.644,,33,feel
screen,html.Screen,2_1_0_1_34,2021-04-26T18:49:06.603Z,,,,,,,,,,,,,,,,,53,,,,,,,,,,,,,,279.7459999982675,,response,,,,99,,,,,,,Space,keypress(Space),,,,,,,,---- -- ----- -- ------ - ------- --- ----------<br>------------- ------ ------ ---- ---- ------- ----- -- ----<br>-------- ------- -- ---------- --- - --- ----- ----- ----<br>---- --- --- ----- --- ---- that ------- ----- ---- -------<br>--- --- -- ----- -- --- ---- -- --- ---- -- ------ ------<br>--- ----- -- ----,117397.96500001103,117397.38999999827,117083.517,117099.34000001522,117117.644,117399.852,,34,that
screen,html.Screen,2_1_0_1_35,2021-04-26T18:49:06.893Z,,,,,,,,,,,,,,,,,53,,,,,,,,,,,,,,288.0230000032607,,response,,,,99,,,,,,,Space,keypress(Space),,,,,,,,---- -- ----- -- ------ - ------- --- ----------<br>------------- ------ ------ ---- ---- ------- ----- -- ----<br>-------- ------- -- ---------- --- - --- ----- ----- ----<br>---- --- --- ----- --- ---- ---- matters ----- ---- -------<br>--- --- -- ----- -- --- ---- -- --- ---- -- ------ ------<br>--- ----- -- ----,117688.54000000283,117687.87500000326,117383.355,117398.15999998245,117399.852,117700.222,,35,matters
screen,html.Screen,2_1_0_1_36,2021-04-26T18:49:07.206Z,,,,,,,,,,,,,,,,,53,,,,,,,,,,,,,,300.722999977952,,response,,,,99,,,,,,,Space,keypress(Space),,,,,,,,"---- -- ----- -- ------ - ------- --- ----------<br>------------- ------ ------ ---- ---- ------- ----- -- ----<br>-------- ------- -- ---------- --- - --- ----- ----- ----<br>---- --- --- ----- --- ---- ---- ------- most, ---- -------<br>--- --- -- ----- -- --- ---- -- --- ---- -- ------ ------<br>--- ----- -- ----",118001.6450000112,118000.94499997795,117683.754,117689.20999998227,117700.222,118016.73,,36,"most,"
screen,html.Screen,2_1_0_1_37,2021-04-26T18:49:07.548Z,,,,,,,,,,,,,,,,,53,,,,,,,,,,,,,,326.10999999752676,,response,,,,99,,,,,,,Space,keypress(Space),,,,,,,,---- -- ----- -- ------ - ------- --- ----------<br>------------- ------ ------ ---- ---- ------- ----- -- ----<br>-------- ------- -- ---------- --- - --- ----- ----- ----<br>---- --- --- ----- --- ---- ---- ------- ----- it's -------<br>--- --- -- ----- -- --- ---- -- --- ---- -- ------ ------<br>--- ----- -- ----,118343.45500002382,118342.83999999752,117999.832,118001.82000000495,118016.73,118350.125,,37,it's
screen,html.Screen,2_1_0_1_38,2021-04-26T18:49:07.856Z,,,,,,,,,,,,,,,,,53,,,,,,,,,,,,,,300.6450000074692,,response,,,,99,,,,,,,Space,keypress(Space),,,,,,,,---- -- ----- -- ------ - ------- --- ----------<br>------------- ------ ------ ---- ---- ------- ----- -- ----<br>-------- ------- -- ---------- --- - --- ----- ----- ----<br>---- --- --- ----- --- ---- ---- ------- ----- ---- whether<br>--- --- -- ----- -- --- ---- -- --- ---- -- ------ ------<br>--- ----- -- ----,118651.1649999884,118650.77000000747,118333.336,118343.61500001978,118350.125,118666.249,,38,whether
screen,html.Screen,2_1_0_1_39,2021-04-26T18:49:08.170Z,,,,,,,,,,,,,,,,,53,,,,,,,,,,,,,,298.0910000059084,,response,,,,99,,,,,,,Space,keypress(Space),,,,,,,,---- -- ----- -- ------ - ------- --- ----------<br>------------- ------ ------ ---- ---- ------- ----- -- ----<br>-------- ------- -- ---------- --- - --- ----- ----- ----<br>---- --- --- ----- --- ---- ---- ------- ----- ---- -------<br>you --- -- ----- -- --- ---- -- --- ---- -- ------ ------<br>--- ----- -- ----,118964.7550000227,118964.3400000059,118649.679,118651.26499999315,118666.249,118966.149,,39,you
screen,html.Screen,2_1_0_1_40,2021-04-26T18:49:08.486Z,,,,,,,,,,,,,,,,,53,,,,,,,,,,,,,,314.5859999784443,,response,,,,99,,,,,,,Space,keypress(Space),,,,,,,,---- -- ----- -- ------ - ------- --- ----------<br>------------- ------ ------ ---- ---- ------- ----- -- ----<br>-------- ------- -- ---------- --- - --- ----- ----- ----<br>---- --- --- ----- --- ---- ---- ------- ----- ---- -------<br>--- are -- ----- -- --- ---- -- --- ---- -- ------ ------<br>--- ----- -- ----,119281.36500000255,119280.73499997845,118949.603,118964.89000000292,118966.149,119303.2,,40,are
screen,html.Screen,2_1_0_1_41,2021-04-26T18:49:08.754Z,,,,,,,,,,,,,,,,,53,,,,,,,,,,,,,,244.83499998525076,,response,,,,99,,,,,,,Space,keypress(Space),,,,,,,,---- -- ----- -- ------ - ------- --- ----------<br>------------- ------ ------ ---- ---- ------- ----- -- ----<br>-------- ------- -- ---------- --- - --- ----- ----- ----<br>---- --- --- ----- --- ---- ---- ------- ----- ---- -------<br>--- --- as ----- -- --- ---- -- --- ---- -- ------ ------<br>--- ----- -- ----,119548.68000000715,119548.03499998525,119266.527,119281.4950000029,119303.2,119566.939,,41,as
screen,html.Screen,2_1_0_1_42,2021-04-26T18:49:09.027Z,,,,,,,,,,,,,,,,,53,,,,,,,,,,,,,,255.23599997932615,,response,,,,99,,,,,,,Space,keypress(Space),,,,,,,,---- -- ----- -- ------ - ------- --- ----------<br>------------- ------ ------ ---- ---- ------- ----- -- ----<br>-------- ------- -- ---------- --- - --- ----- ----- ----<br>---- --- --- ----- --- ---- ---- ------- ----- ---- -------<br>--- --- -- close -- --- ---- -- --- ---- -- ------ ------<br>--- ----- -- ----,119822.57499999832,119822.17499997932,119533.044,119548.81499998737,119566.939,119833.014,,42,close
screen,html.Screen,2_1_0_1_43,2021-04-26T18:49:09.361Z,,,,,,,,,,,,,,,,,53,,,,,,,,,,,,,,322.2709999861836,,response,,,,99,,,,,,,Space,keypress(Space),,,,,,,,---- -- ----- -- ------ - ------- --- ----------<br>------------- ------ ------ ---- ---- ------- ----- -- ----<br>-------- ------- -- ---------- --- - --- ----- ----- ----<br>---- --- --- ----- --- ---- ---- ------- ----- ---- -------<br>--- --- -- ----- as --- ---- -- --- ---- -- ------ ------<br>--- ----- -- ----,120155.68500000518,120155.28499998618,119816.075,119822.67999998294,119833.014,120165.862,,43,as
screen,html.Screen,2_1_0_1_44,2021-04-26T18:49:09.651Z,,,,,,,,,,,,,,,,,53,,,,,,,,,,,,,,279.97800000032294,,response,,,,99,,,,,,,Space,keypress(Space),,,,,,,,---- -- ----- -- ------ - ------- --- ----------<br>------------- ------ ------ ---- ---- ------- ----- -- ----<br>-------- ------- -- ---------- --- - --- ----- ----- ----<br>---- --- --- ----- --- ---- ---- ------- ----- ---- -------<br>--- --- -- ----- -- you ---- -- --- ---- -- ------ ------<br>--- ----- -- ----,120446.33000000613,120445.84000000032,120149.374,120157.04499999993,120165.862,120449.082,,44,you
screen,html.Screen,2_1_0_1_45,2021-04-26T18:49:09.992Z,,,,,,,,,,,,,,,,,53,,,,,,,,,,,,,,337.63299999473384,,response,,,,99,,,,,,,Space,keypress(Space),,,,,,,,---- -- ----- -- ------ - ------- --- ----------<br>------------- ------ ------ ---- ---- ------- ----- -- ----<br>-------- ------- -- ---------- --- - --- ----- ----- ----<br>---- --- --- ----- --- ---- ---- ------- ----- ---- -------<br>--- --- -- ----- -- --- want -- --- ---- -- ------ ------<br>--- ----- -- ----,120787.12499997346,120786.71499999473,120432.522,120446.46000000648,120449.082,120799.58,,45,want
screen,html.Screen,2_1_0_1_46,2021-04-26T18:49:10.342Z,,,,,,,,,,,,,,,,,53,,,,,,,,,,,,,,337.5399999703077,,response,,,,99,,,,,,,Space,keypress(Space),,,,,,,,---- -- ----- -- ------ - ------- --- ----------<br>------------- ------ ------ ---- ---- ------- ----- -- ----<br>-------- ------- -- ---------- --- - --- ----- ----- ----<br>---- --- --- ----- --- ---- ---- ------- ----- ---- -------<br>--- --- -- ----- -- --- ---- to --- ---- -- ------ ------<br>--- ----- -- ----,121137.5049999915,121137.11999997031,120782.497,120787.27500000969,120799.58,121149.352,,46,to
screen,html.Screen,2_1_0_1_47,2021-04-26T18:49:11.315Z,,,,,,,,,,,,,,,,,53,,,,,,,,,,,,,,960.4830000102083,,response,,,,99,,,,,,,Space,keypress(Space),,,,,,,,"---- -- ----- -- ------ - ------- --- ----------<br>------------- ------ ------ ---- ---- ------- ----- -- ----<br>-------- ------- -- ---------- --- - --- ----- ----- ----<br>---- --- --- ----- --- ---- ---- ------- ----- ---- -------<br>--- --- -- ----- -- --- ---- -- be, ---- -- ------ ------<br>--- ----- -- ----",122110.24499998894,122109.83500001021,121132.393,121137.60999997612,121149.352,122115.346,,47,"be,"
screen,html.Screen,2_1_0_1_48,2021-04-26T18:49:11.642Z,,,,,,,,,,,,,,,,,53,,,,,,,,,,,,,,321.3540000202047,,response,,,,99,,,,,,,Space,keypress(Space),,,,,,,,---- -- ----- -- ------ - ------- --- ----------<br>------------- ------ ------ ---- ---- ------- ----- -- ----<br>-------- ------- -- ---------- --- - --- ----- ----- ----<br>---- --- --- ----- --- ---- ---- ------- ----- ---- -------<br>--- --- -- ----- -- --- ---- -- --- even -- ------ ------<br>--- ----- -- ----,122437.07500002347,122436.70000002021,122099.255,122110.34000001382,122115.346,122449.06,,48,even
screen,html.Screen,2_1_0_1_49,2021-04-26T18:49:12.034Z,,,,,,,,,,,,,,,,,53,,,,,,,,,,,,,,379.744999997376,,response,,,,99,,,,,,,Space,keypress(Space),,,,,,,,---- -- ----- -- ------ - ------- --- ----------<br>------------- ------ ------ ---- ---- ------- ----- -- ----<br>-------- ------- -- ---------- --- - --- ----- ----- ----<br>---- --- --- ----- --- ---- ---- ------- ----- ---- -------<br>--- --- -- ----- -- --- ---- -- --- ---- if ------ ------<br>--- ----- -- ----,122829.46999999695,122828.80499999737,122432.401,122437.16999999015,122449.06,122831.84,,49,if
screen,html.Screen,2_1_0_1_50,2021-04-26T18:49:12.362Z,,,,,,,,,,,,,,,,,53,,,,,,,,,,,,,,325.08999999737716,,response,,,,99,,,,,,,Space,keypress(Space),,,,,,,,---- -- ----- -- ------ - ------- --- ----------<br>------------- ------ ------ ---- ---- ------- ----- -- ----<br>-------- ------- -- ---------- --- - --- ----- ----- ----<br>---- --- --- ----- --- ---- ---- ------- ----- ---- -------<br>--- --- -- ----- -- --- ---- -- --- ---- -- that's ------<br>--- ----- -- ----,123157.56500000134,123156.92999999737,122815.324,122829.61999997497,122831.84,123165.327,,50,that's
screen,html.Screen,2_1_0_1_51,2021-04-26T18:49:12.673Z,,,,,,,,,,,,,,,,,53,,,,,,,,,,,,,,302.42300001070544,,response,,,,99,,,,,,,Space,keypress(Space),,,,,,,,---- -- ----- -- ------ - ------- --- ----------<br>------------- ------ ------ ---- ---- ------- ----- -- ----<br>-------- ------- -- ---------- --- - --- ----- ----- ----<br>---- --- --- ----- --- ---- ---- ------- ----- ---- -------<br>--- --- -- ----- -- --- ---- -- --- ---- -- ------ really<br>--- ----- -- ----,123468.28999998979,123467.75000001071,123148.488,123157.70500001963,123165.327,123482.212,,51,really
screen,html.Screen,2_1_0_1_52,2021-04-26T18:49:12.989Z,,,,,,,,,,,,,,,,,53,,,,,,,,,,,,,,301.94799998105736,,response,,,,99,,,,,,,Space,keypress(Space),,,,,,,,---- -- ----- -- ------ - ------- --- ----------<br>------------- ------ ------ ---- ---- ------- ----- -- ----<br>-------- ------- -- ---------- --- - --- ----- ----- ----<br>---- --- --- ----- --- ---- ---- ------- ----- ---- -------<br>--- --- -- ----- -- --- ---- -- --- ---- -- ------ ------<br>not ----- -- ----,123784.54999998212,123784.15999998106,123465.519,123468.44500000589,123482.212,123798.362,,52,not
screen,html.Screen,2_1_0_1_53,2021-04-26T18:49:13.313Z,,,,,,,,,,,,,,,,,53,,,,,,,,,,,,,,309.6979999986652,,response,,,,99,,,,,,,Space,keypress(Space),,,,,,,,---- -- ----- -- ------ - ------- --- ----------<br>------------- ------ ------ ---- ---- ------- ----- -- ----<br>-------- ------- -- ---------- --- - --- ----- ----- ----<br>---- --- --- ----- --- ---- ---- ------- ----- ---- -------<br>--- --- -- ----- -- --- ---- -- --- ---- -- ------ ------<br>--- close -- ----,124108.65499998908,124108.05999999866,123781.73,123784.64999998687,123798.362,124114.871,,53,close
screen,html.Screen,2_1_0_1_54,2021-04-26T18:49:13.593Z,,,,,,,,,,,,,,,,,53,,,,,,,,,,,,,,272.68400002298586,,response,,,,99,,,,,,,Space,keypress(Space),,,,,,,,---- -- ----- -- ------ - ------- --- ----------<br>------------- ------ ------ ---- ---- ------- ----- -- ----<br>-------- ------- -- ---------- --- - --- ----- ----- ----<br>---- --- --- ----- --- ---- ---- ------- ----- ---- -------<br>--- --- -- ----- -- --- ---- -- --- ---- -- ------ ------<br>--- ----- at ----,124388.16500001121,124387.55500002299,124098.612,124108.79999998724,124114.871,124398.152,,54,at
screen,html.Screen,2_1_0_1_55,2021-04-26T18:49:14.018Z,,,,,,,,,,,,,,,,,53,,,,,,,,,,,,,,415.05300001311116,,response,,,,99,,,,,,,Space,keypress(Space),,,,,,,,---- -- ----- -- ------ - ------- --- ----------<br>------------- ------ ------ ---- ---- ------- ----- -- ----<br>-------- ------- -- ---------- --- - --- ----- ----- ----<br>---- --- --- ----- --- ---- ---- ------- ----- ---- -------<br>--- --- -- ----- -- --- ---- -- --- ---- -- ------ ------<br>--- ----- -- all.,124813.67499998305,124813.20500001311,124381.94,124388.31499998923,124398.152,124842.979,,55,all.
Item 99,flow.Loop,2_1_0_1,2021-04-26T18:49:14.019Z,,,,,,,,,,,,,,,,,,,,,,,,,,,,,,,18743.846000013116,,completion,,,,,D,,,,,,,,,,,silence,,,,,124813.87000001268,124813.20500001311,106052.715,106053.27999999281,106069.359,124842.979,,,
Question 1,html.Screen,2_1_0_2,2021-04-26T18:49:18.490Z,,,,,,,,,,,,,,,,,,,,,,,,,,,,true,FALSE,,4441.495999993102,,response,,,,99,D,,,,,,FALSE,click #choice-2,,,,silence,,,,,129285.68500000983,129284.47499999311,124798.657,124813.96499997936,124842.979,129297.143,,,
Question 2,html.Screen,2_1_0_3,2021-04-26T18:49:24.606Z,,,,,,,,,,,,,,,,,,,,,,,,,,,,true,TRUE,,6103.086999970183,,response,,,,99,D,,,,,,TRUE,click #choice-1,,,,silence,,,,,135401.23499999754,135400.22999997018,129280.373,129285.84999998566,129297.143,135412.013,,,
Item 99,flow.Sequence,2_1_0,2021-04-26T18:49:24.606Z,,,,,,,,,,,,,,,,,,,,,,,,,,,,,,,39328.34799997018,,completion,,,,,,,,,,,,,,,,,,,,,135401.37500001583,135400.22999997018,96055.226,96062.17499997001,96071.882,135412.013,,,
Holding screen,html.Screen,2_1_1_0,2021-04-26T18:49:34.599Z,,,,,,,,,,,,,,,,,,,,,,,,,,,,,,,9997.597999999998,,timeout,,,,,,,,,,,,,,,,,,,,,145394.45500000147,145392.926,135395.432,135401.47500002058,135412.013,145409.611,,,
screen,html.Screen,2_1_1_1_0,2021-04-26T18:49:35.360Z,,,,,,,,,,,,,,,,,54,,,,,,,,,,,,,,744.8789999862493,,response,,,,100,,,,,,,Space,keypress(Space),,,,,,,,At --- ---- --- ------ ----- ------- ---- -- --- ------- --<br>------- ---------- ------ -- ----- -- ----- -- ---- ------<br>--- ----- --- --- ------ -------- ----- --- ------ ----- --<br>----- ----- ---------- --- --- ------ ------ ---- -- ------<br>------- --- ------ ----- --- ---- ------- -- ---- --- --<br>------- ------,146154.90999998292,146154.48999998625,145392.926,145394.58000002196,145409.611,146159.378,,0,At
screen,html.Screen,2_1_1_1_1,2021-04-26T18:49:35.680Z,,,,,,,,,,,,,,,,,54,,,,,,,,,,,,,,315.7020000038028,,response,,,,100,,,,,,,Space,keypress(Space),,,,,,,,-- the ---- --- ------ ----- ------- ---- -- --- ------- --<br>------- ---------- ------ -- ----- -- ----- -- ---- ------<br>--- ----- --- --- ------ -------- ----- --- ------ ----- --<br>----- ----- ---------- --- --- ------ ------ ---- -- ------<br>------- --- ------ ----- --- ---- ------- -- ---- --- --<br>------- ------,146475.51499999827,146475.0800000038,146142.871,146155.00999998767,146159.378,146492.648,,1,the
screen,html.Screen,2_1_1_1_2,2021-04-26T18:49:35.879Z,,,,,,,,,,,,,,,,,54,,,,,,,,,,,,,,181.18700002325932,,response,,,,100,,,,,,,Space,keypress(Space),,,,,,,,-- --- time --- ------ ----- ------- ---- -- --- ------- --<br>------- ---------- ------ -- ----- -- ----- -- ---- ------<br>--- ----- --- --- ------ -------- ----- --- ------ ----- --<br>----- ----- ---------- --- --- ------ ------ ---- -- ------<br>------- --- ------ ----- --- ---- ------- -- ---- --- --<br>------- ------,146674.32499997085,146673.83500002325,146459.389,146475.61999998288,146492.648,146675.908,,2,time
screen,html.Screen,2_1_1_1_3,2021-04-26T18:49:36.181Z,,,,,,,,,,,,,,,,,54,,,,,,,,,,,,,,299.6419999737409,,response,,,,100,,,,,,,Space,keypress(Space),,,,,,,,-- --- ---- the ------ ----- ------- ---- -- --- ------- --<br>------- ---------- ------ -- ----- -- ----- -- ---- ------<br>--- ----- --- --- ------ -------- ----- --- ------ ----- --<br>----- ----- ---------- --- --- ------ ------ ---- -- ------<br>------- --- ------ ----- --- ---- ------- -- ---- --- --<br>------- ------,146975.924999977,146975.54999997374,146659.272,146674.4249999756,146675.908,146992.877,,3,the
screen,html.Screen,2_1_1_1_4,2021-04-26T18:49:36.405Z,,,,,,,,,,,,,,,,,54,,,,,,,,,,,,,,207.06800000029034,,response,,,,100,,,,,,,Space,keypress(Space),,,,,,,,-- --- ---- --- French ----- ------- ---- -- --- ------- --<br>------- ---------- ------ -- ----- -- ----- -- ---- ------<br>--- ----- --- --- ------ -------- ----- --- ------ ----- --<br>----- ----- ---------- --- --- ------ ------ ---- -- ------<br>------- --- ------ ----- --- ---- ------- -- ---- --- --<br>------- ------,147200.32000000356,147199.9450000003,146959.628,146976.02000000188,146992.877,147209.524,,4,French
screen,html.Screen,2_1_1_1_5,2021-04-26T18:49:36.831Z,,,,,,,,,,,,,,,,,54,,,,,,,,,,,,,,416.32099997319165,,response,,,,100,,,,,,,Space,keypress(Space),,,,,,,,-- --- ---- --- ------ crown ------- ---- -- --- ------- --<br>------- ---------- ------ -- ----- -- ----- -- ---- ------<br>--- ----- --- --- ------ -------- ----- --- ------ ----- --<br>----- ----- ---------- --- --- ------ ------ ---- -- ------<br>------- --- ------ ----- --- ---- ------- -- ---- --- --<br>------- ------,147626.20499997865,147625.8449999732,147192.843,147200.4200000083,147209.524,147642.365,,5,crown
screen,html.Screen,2_1_1_1_6,2021-04-26T18:49:37.139Z,,,,,,,,,,,,,,,,,54,,,,,,,,,,,,,,291.62499999045394,,response,,,,100,,,,,,,Space,keypress(Space),,,,,,,,-- --- ---- --- ------ ----- secured ---- -- --- ------- --<br>------- ---------- ------ -- ----- -- ----- -- ---- ------<br>--- ----- --- --- ------ -------- ----- --- ------ ----- --<br>----- ----- ---------- --- --- ------ ------ ---- -- ------<br>------- --- ------ ----- --- ---- ------- -- ---- --- --<br>------- ------,147934.63500001235,147933.98999999044,147625.992,147626.30000000354,147642.365,147942.613,,6,secured
screen,html.Screen,2_1_1_1_7,2021-04-26T18:49:37.517Z,,,,,,,,,,,,,,,,,54,,,,,,,,,,,,,,369.3719999784371,,response,,,,100,,,,,,,Space,keypress(Space),,,,,,,,-- --- ---- --- ------ ----- ------- much -- --- ------- --<br>------- ---------- ------ -- ----- -- ----- -- ---- ------<br>--- ----- --- --- ------ -------- ----- --- ------ ----- --<br>----- ----- ---------- --- --- ------ ------ ---- -- ------<br>------- --- ------ ----- --- ---- ------- -- ---- --- --<br>------- ------,148312.40499997512,148311.98499997845,147925.693,147934.79999998817,147942.613,148325.537,,7,much
screen,html.Screen,2_1_1_1_8,2021-04-26T18:49:37.836Z,,,,,,,,,,,,,,,,,54,,,,,,,,,,,,,,304.6129999826662,,response,,,,100,,,,,,,Space,keypress(Space),,,,,,,,-- --- ---- --- ------ ----- ------- ---- of --- ------- --<br>------- ---------- ------ -- ----- -- ----- -- ---- ------<br>--- ----- --- --- ------ -------- ----- --- ------ ----- --<br>----- ----- ---------- --- --- ------ ------ ---- -- ------<br>------- --- ------ ----- --- ---- ------- -- ---- --- --<br>------- ------,148630.75000001118,148630.14999998268,148309.256,148312.5,148325.537,148642.33,,8,of
screen,html.Screen,2_1_1_1_9,2021-04-26T18:49:38.047Z,,,,,,,,,,,,,,,,,54,,,,,,,,,,,,,,198.98499996875762,,response,,,,100,,,,,,,Space,keypress(Space),,,,,,,,-- --- ---- --- ------ ----- ------- ---- -- its ------- --<br>------- ---------- ------ -- ----- -- ----- -- ---- ------<br>--- ----- --- --- ------ -------- ----- --- ------ ----- --<br>----- ----- ---------- --- --- ------ ------ ---- -- ------<br>------- --- ------ ----- --- ---- ------- -- ---- --- --<br>------- ------,148842.02500001993,148841.31499996874,148625.499,148630.86500001373,148642.33,148858.695,,9,its
screen,html.Screen,2_1_1_1_10,2021-04-26T18:49:38.343Z,,,,,,,,,,,,,,,,,54,,,,,,,,,,,,,,279.3749999863212,,response,,,,100,,,,,,,Space,keypress(Space),,,,,,,,-- --- ---- --- ------ ----- ------- ---- -- --- revenue --<br>------- ---------- ------ -- ----- -- ----- -- ---- ------<br>--- ----- --- --- ------ -------- ----- --- ------ ----- --<br>----- ----- ---------- --- --- ------ ------ ---- -- ------<br>------- --- ------ ----- --- ---- ------- -- ---- --- --<br>------- ------,149138.7199999881,149138.06999998633,148842.093,148842.15500002028,148858.695,149141.956,,10,revenue
screen,html.Screen,2_1_1_1_11,2021-04-26T18:49:38.676Z,,,,,,,,,,,,,,,,,54,,,,,,,,,,,,,,328.8489999899175,,response,,,,100,,,,,,,Space,keypress(Space),,,,,,,,-- --- ---- --- ------ ----- ------- ---- -- --- ------- by<br>------- ---------- ------ -- ----- -- ----- -- ---- ------<br>--- ----- --- --- ------ -------- ----- --- ------ ----- --<br>----- ----- ---------- --- --- ------ ------ ---- -- ------<br>------- --- ------ ----- --- ---- ------- -- ---- --- --<br>------- ------,149471.2249999866,149470.80499998992,149125.814,149138.8450000086,149141.956,149475.269,,11,by
screen,html.Screen,2_1_1_1_12,2021-04-26T18:49:38.933Z,,,,,,,,,,,,,,,,,54,,,,,,,,,,,,,,251.93600000286824,,response,,,,100,,,,,,,Space,keypress(Space),,,,,,,,-- --- ---- --- ------ ----- ------- ---- -- --- ------- --<br>issuing ---------- ------ -- ----- -- ----- -- ---- ------<br>--- ----- --- --- ------ -------- ----- --- ------ ----- --<br>----- ----- ---------- --- --- ------ ------ ---- -- ------<br>------- --- ------ ----- --- ---- ------- -- ---- --- --<br>------- ------,149727.85500000464,149727.20500000287,149458.646,149471.32000001147,149475.269,149741.86,,12,issuing
screen,html.Screen,2_1_1_1_13,2021-04-26T18:49:39.148Z,,,,,,,,,,,,,,,,,54,,,,,,,,,,,,,,200.38499998382758,,response,,,,100,,,,,,,Space,keypress(Space),,,,,,,,-- --- ---- --- ------ ----- ------- ---- -- --- ------- --<br>------- government ------ -- ----- -- ----- -- ---- ------<br>--- ----- --- --- ------ -------- ----- --- ------ ----- --<br>----- ----- ---------- --- --- ------ ------ ---- -- ------<br>------- --- ------ ----- --- ---- ------- -- ---- --- --<br>------- ------,149942.82499997644,149942.2449999838,149725.607,149727.96499996912,149741.86,149958.834,,13,government
screen,html.Screen,2_1_1_1_14,2021-04-26T18:49:39.522Z,,,,,,,,,,,,,,,,,54,,,,,,,,,,,,,,357.9010000003327,,response,,,,100,,,,,,,Space,keypress(Space),,,,,,,,-- --- ---- --- ------ ----- ------- ---- -- --- ------- --<br>------- ---------- bonds. -- ----- -- ----- -- ---- ------<br>--- ----- --- --- ------ -------- ----- --- ------ ----- --<br>----- ----- ---------- --- --- ------ ------ ---- -- ------<br>------- --- ------ ----- --- ---- ------- -- ---- --- --<br>------- ------,150317.39500002004,150316.73500000034,149942.158,149942.93499999912,149958.834,150325.002,,14,bonds.
screen,html.Screen,2_1_1_1_15,2021-04-26T18:49:39.918Z,,,,,,,,,,,,,,,,,54,,,,,,,,,,,,,,387.507999983005,,response,,,,100,,,,,,,Space,keypress(Space),,,,,,,,-- --- ---- --- ------ ----- ------- ---- -- --- ------- --<br>------- ---------- ------ In ----- -- ----- -- ---- ------<br>--- ----- --- --- ------ -------- ----- --- ------ ----- --<br>----- ----- ---------- --- --- ------ ------ ---- -- ------<br>------- --- ------ ----- --- ---- ------- -- ---- --- --<br>------- ------,150712.93500001775,150712.509999983,150308.46,150317.51999998232,150325.002,150724.906,,15,In
screen,html.Screen,2_1_1_1_16,2021-04-26T18:49:40.153Z,,,,,,,,,,,,,,,,,54,,,,,,,,,,,,,,223.3389999777719,,response,,,,100,,,,,,,Space,keypress(Space),,,,,,,,"-- --- ---- --- ------ ----- ------- ---- -- --- ------- --<br>------- ---------- ------ -- 1727, -- ----- -- ---- ------<br>--- ----- --- --- ------ -------- ----- --- ------ ----- --<br>----- ----- ---------- --- --- ------ ------ ---- -- ------<br>------- --- ------ ----- --- ---- ------- -- ---- --- --<br>------- ------",150948.68999999017,150948.24499997776,150708.343,150713.0350000225,150724.906,150958.6,,16,"1727,"
screen,html.Screen,2_1_1_1_17,2021-04-26T18:49:40.953Z,,,,,,,,,,,,,,,,,54,,,,,,,,,,,,,,789.2249999694468,,response,,,,100,,,,,,,Space,keypress(Space),,,,,,,,-- --- ---- --- ------ ----- ------- ---- -- --- ------- --<br>------- ---------- ------ -- ----- in ----- -- ---- ------<br>--- ----- --- --- ------ -------- ----- --- ------ ----- --<br>----- ----- ---------- --- --- ------ ------ ---- -- ------<br>------- --- ------ ----- --- ---- ------- -- ---- --- --<br>------- ------,151748.22499998845,151747.82499996945,150941.644,150948.78500001505,150958.6,151758.373,,17,in
screen,html.Screen,2_1_1_1_18,2021-04-26T18:49:41.271Z,,,,,,,,,,,,,,,,,54,,,,,,,,,,,,,,307.5920000161568,,response,,,,100,,,,,,,Space,keypress(Space),,,,,,,,-- --- ---- --- ------ ----- ------- ---- -- --- ------- --<br>------- ---------- ------ -- ----- -- order -- ---- ------<br>--- ----- --- --- ------ -------- ----- --- ------ ----- --<br>----- ----- ---------- --- --- ------ ------ ---- -- ------<br>------- --- ------ ----- --- ---- ------- -- ---- --- --<br>------- ------,152066.38999999268,152065.96500001615,151741.951,151748.3249999932,151758.373,152074.58,,18,order
screen,html.Screen,2_1_1_1_19,2021-04-26T18:49:41.504Z,,,,,,,,,,,,,,,,,54,,,,,,,,,,,,,,224.45499997455045,,response,,,,100,,,,,,,Space,keypress(Space),,,,,,,,-- --- ---- --- ------ ----- ------- ---- -- --- ------- --<br>------- ---------- ------ -- ----- -- ----- to ---- ------<br>--- ----- --- --- ------ -------- ----- --- ------ ----- --<br>----- ----- ---------- --- --- ------ ------ ---- -- ------<br>------- --- ------ ----- --- ---- ------- -- ---- --- --<br>------- ------,152299.5349999983,152299.03499997454,152057.989,152066.48999999743,152074.58,152307.854,,19,to
screen,html.Screen,2_1_1_1_20,2021-04-26T18:49:41.690Z,,,,,,,,,,,,,,,,,54,,,,,,,,,,,,,,177.2609999885899,,response,,,,100,,,,,,,Space,keypress(Space),,,,,,,,-- --- ---- --- ------ ----- ------- ---- -- --- ------- --<br>------- ---------- ------ -- ----- -- ----- -- save ------<br>--- ----- --- --- ------ -------- ----- --- ------ ----- --<br>----- ----- ---------- --- --- ------ ------ ---- -- ------<br>------- --- ------ ----- --- ---- ------- -- ---- --- --<br>------- ------,152485.6649999856,152485.11499998858,152291.32,152299.63000002317,152307.854,152491.143,,20,save
screen,html.Screen,2_1_1_1_21,2021-04-26T18:49:42.048Z,,,,,,,,,,,,,,,,,54,,,,,,,,,,,,,,351.486999970075,,response,,,,100,,,,,,,Space,keypress(Space),,,,,,,,"-- --- ---- --- ------ ----- ------- ---- -- --- ------- --<br>------- ---------- ------ -- ----- -- ----- -- ---- money,<br>--- ----- --- --- ------ -------- ----- --- ------ ----- --<br>----- ----- ---------- --- --- ------ ------ ---- -- ------<br>------- --- ------ ----- --- ---- ------- -- ---- --- --<br>------- ------",152843.01000001142,152842.6299999701,152474.956,152485.7600000105,152491.143,152857.739,,21,"money,"
screen,html.Screen,2_1_1_1_22,2021-04-26T18:49:42.403Z,,,,,,,,,,,,,,,,,54,,,,,,,,,,,,,,339.5860000155517,,response,,,,100,,,,,,,Space,keypress(Space),,,,,,,,-- --- ---- --- ------ ----- ------- ---- -- --- ------- --<br>------- ---------- ------ -- ----- -- ----- -- ---- ------<br>the ----- --- --- ------ -------- ----- --- ------ ----- --<br>----- ----- ---------- --- --- ------ ------ ---- -- ------<br>------- --- ------ ----- --- ---- ------- -- ---- --- --<br>------- ------,153197.84999999683,153197.32500001555,152841.2,152843.1049999781,152857.739,153207.97,,22,the
screen,html.Screen,2_1_1_1_23,2021-04-26T18:49:42.733Z,,,,,,,,,,,,,,,,,54,,,,,,,,,,,,,,319.7500000127766,,response,,,,100,,,,,,,Space,keypress(Space),,,,,,,,-- --- ---- --- ------ ----- ------- ---- -- --- ------- --<br>------- ---------- ------ -- ----- -- ----- -- ---- ------<br>--- state --- --- ------ -------- ----- --- ------ ----- --<br>----- ----- ---------- --- --- ------ ------ ---- -- ------<br>------- --- ------ ----- --- ---- ------- -- ---- --- --<br>------- ------,153528.29499996733,153527.72000001278,153191.064,153197.96499999939,153207.97,153540.904,,23,state
screen,html.Screen,2_1_1_1_24,2021-04-26T18:49:43.029Z,,,,,,,,,,,,,,,,,54,,,,,,,,,,,,,,283.02099997512414,,response,,,,100,,,,,,,Space,keypress(Space),,,,,,,,-- --- ---- --- ------ ----- ------- ---- -- --- ------- --<br>------- ---------- ------ -- ----- -- ----- -- ---- ------<br>--- ----- cut --- ------ -------- ----- --- ------ ----- --<br>----- ----- ---------- --- --- ------ ------ ---- -- ------<br>------- --- ------ ----- --- ---- ------- -- ---- --- --<br>------- ------,153824.329999974,153823.92499997513,153524.645,153528.40999996988,153540.904,153840.808,,24,cut
screen,html.Screen,2_1_1_1_25,2021-04-26T18:49:43.345Z,,,,,,,,,,,,,,,,,54,,,,,,,,,,,,,,299.0320000180218,,response,,,,100,,,,,,,Space,keypress(Space),,,,,,,,-- --- ---- --- ------ ----- ------- ---- -- --- ------- --<br>------- ---------- ------ -- ----- -- ----- -- ---- ------<br>--- ----- --- the ------ -------- ----- --- ------ ----- --<br>----- ----- ---------- --- --- ------ ------ ---- -- ------<br>------- --- ------ ----- --- ---- ------- -- ---- --- --<br>------- ------,154140.30999998795,154139.840000018,153824.182,153824.42499999888,153840.808,154157.88,,25,the
screen,html.Screen,2_1_1_1_26,2021-04-26T18:49:43.569Z,,,,,,,,,,,,,,,,,54,,,,,,,,,,,,,,205.23500001465436,,response,,,,100,,,,,,,Space,keypress(Space),,,,,,,,-- --- ---- --- ------ ----- ------- ---- -- --- ------- --<br>------- ---------- ------ -- ----- -- ----- -- ---- ------<br>--- ----- --- --- bonds' -------- ----- --- ------ ----- --<br>----- ----- ---------- --- --- ------ ------ ---- -- ------<br>------- --- ------ ----- --- ---- ------- -- ---- --- --<br>------- ------,154363.77499997616,154363.11500001466,154124.128,154140.42000001064,154157.88,154374.04,,26,bonds'
screen,html.Screen,2_1_1_1_27,2021-04-26T18:49:43.944Z,,,,,,,,,,,,,,,,,54,,,,,,,,,,,,,,364.5100000091188,,response,,,,100,,,,,,,Space,keypress(Space),,,,,,,,-- --- ---- --- ------ ----- ------- ---- -- --- ------- --<br>------- ---------- ------ -- ----- -- ----- -- ---- ------<br>--- ----- --- --- ------ interest ----- --- ------ ----- --<br>----- ----- ---------- --- --- ------ ------ ---- -- ------<br>------- --- ------ ----- --- ---- ------- -- ---- --- --<br>------- ------,154739.2150000087,154738.55000000913,154357.397,154363.91499999445,154374.04,154770.157,,27,interest
screen,html.Screen,2_1_1_1_28,2021-04-26T18:49:44.249Z,,,,,,,,,,,,,,,,,54,,,,,,,,,,,,,,273.58799997356255,,response,,,,100,,,,,,,Space,keypress(Space),,,,,,,,-- --- ---- --- ------ ----- ------- ---- -- --- ------- --<br>------- ---------- ------ -- ----- -- ----- -- ---- ------<br>--- ----- --- --- ------ -------- rate. --- ------ ----- --<br>----- ----- ---------- --- --- ------ ------ ---- -- ------<br>------- --- ------ ----- --- ---- ------- -- ---- --- --<br>------- ------,155044.16499997023,155043.74499997357,154724.061,154739.34500000905,154770.157,155057.627,,28,rate.
screen,html.Screen,2_1_1_1_29,2021-04-26T18:49:44.609Z,,,,,,,,,,,,,,,,,54,,,,,,,,,,,,,,346.0030000152474,,response,,,,100,,,,,,,Space,keypress(Space),,,,,,,,-- --- ---- --- ------ ----- ------- ---- -- --- ------- --<br>------- ---------- ------ -- ----- -- ----- -- ---- ------<br>--- ----- --- --- ------ -------- ----- The ------ ----- --<br>----- ----- ---------- --- --- ------ ------ ---- -- ------<br>------- --- ------ ----- --- ---- ------- -- ---- --- --<br>------- ------,155404.18499999214,155403.63000001526,155040.628,155044.26499997498,155057.627,155407.05,,29,The
screen,html.Screen,2_1_1_1_30,2021-04-26T18:49:44.919Z,,,,,,,,,,,,,,,,,54,,,,,,,,,,,,,,306.42000001698034,,response,,,,100,,,,,,,Space,keypress(Space),,,,,,,,-- --- ---- --- ------ ----- ------- ---- -- --- ------- --<br>------- ---------- ------ -- ----- -- ----- -- ---- ------<br>--- ----- --- --- ------ -------- ----- --- market ----- --<br>----- ----- ---------- --- --- ------ ------ ---- -- ------<br>------- --- ------ ----- --- ---- ------- -- ---- --- --<br>------- ------,155714.00999999605,155713.47000001697,155390.872,155404.30499997456,155407.05,155723.733,,30,market
screen,html.Screen,2_1_1_1_31,2021-04-26T18:49:45.204Z,,,,,,,,,,,,,,,,,54,,,,,,,,,,,,,,275.2970000063069,,response,,,,100,,,,,,,Space,keypress(Space),,,,,,,,-- --- ---- --- ------ ----- ------- ---- -- --- ------- --<br>------- ---------- ------ -- ----- -- ----- -- ---- ------<br>--- ----- --- --- ------ -------- ----- --- ------ value --<br>----- ----- ---------- --- --- ------ ------ ---- -- ------<br>------- --- ------ ----- --- ---- ------- -- ---- --- --<br>------- ------,155999.56500000553,155999.0300000063,155707.47,155714.10500002094,155723.733,156006.896,,31,value
screen,html.Screen,2_1_1_1_32,2021-04-26T18:49:45.467Z,,,,,,,,,,,,,,,,,54,,,,,,,,,,,,,,254.96900000766618,,response,,,,100,,,,,,,Space,keypress(Space),,,,,,,,-- --- ---- --- ------ ----- ------- ---- -- --- ------- --<br>------- ---------- ------ -- ----- -- ----- -- ---- ------<br>--- ----- --- --- ------ -------- ----- --- ------ ----- of<br>----- ----- ---------- --- --- ------ ------ ---- -- ------<br>------- --- ------ ----- --- ---- ------- -- ---- --- --<br>------- ------,156262.31499999994,156261.86500000767,155990.338,155999.66500001028,156006.896,156273.541,,32,of
screen,html.Screen,2_1_1_1_33,2021-04-26T18:49:45.736Z,,,,,,,,,,,,,,,,,54,,,,,,,,,,,,,,257.2840000234719,,response,,,,100,,,,,,,Space,keypress(Space),,,,,,,,-- --- ---- --- ------ ----- ------- ---- -- --- ------- --<br>------- ---------- ------ -- ----- -- ----- -- ---- ------<br>--- ----- --- --- ------ -------- ----- --- ------ ----- --<br>these ----- ---------- --- --- ------ ------ ---- -- ------<br>------- --- ------ ----- --- ---- ------- -- ---- --- --<br>------- ------,156531.32999996888,156530.82500002347,156256.93,156262.41999998456,156273.541,156540.4,,33,these
screen,html.Screen,2_1_1_1_34,2021-04-26T18:49:46.045Z,,,,,,,,,,,,,,,,,54,,,,,,,,,,,,,,298.80499996748404,,response,,,,100,,,,,,,Space,keypress(Space),,,,,,,,-- --- ---- --- ------ ----- ------- ---- -- --- ------- --<br>------- ---------- ------ -- ----- -- ----- -- ---- ------<br>--- ----- --- --- ------ -------- ----- --- ------ ----- --<br>----- bonds ---------- --- --- ------ ------ ---- -- ------<br>------- --- ------ ----- --- ---- ------- -- ---- --- --<br>------- ------,156839.9399999762,156839.20499996748,156523.88,156531.44499997143,156540.4,156856.707,,34,bonds
screen,html.Screen,2_1_1_1_35,2021-04-26T18:49:46.357Z,,,,,,,,,,,,,,,,,54,,,,,,,,,,,,,,294.487999984005,,response,,,,100,,,,,,,Space,keypress(Space),,,,,,,,"-- --- ---- --- ------ ----- ------- ---- -- --- ------- --<br>------- ---------- ------ -- ----- -- ----- -- ---- ------<br>--- ----- --- --- ------ -------- ----- --- ------ ----- --<br>----- ----- plummeted, --- --- ------ ------ ---- -- ------<br>------- --- ------ ----- --- ---- ------- -- ---- --- --<br>------- ------",157151.87499998137,157151.194999984,156840.178,156840.08499997435,156856.707,157156.59,,35,"plummeted,"
screen,html.Screen,2_1_1_1_36,2021-04-26T18:49:46.624Z,,,,,,,,,,,,,,,,,54,,,,,,,,,,,,,,261.88500001313514,,response,,,,100,,,,,,,Space,keypress(Space),,,,,,,,-- --- ---- --- ------ ----- ------- ---- -- --- ------- --<br>------- ---------- ------ -- ----- -- ----- -- ---- ------<br>--- ----- --- --- ------ -------- ----- --- ------ ----- --<br>----- ----- ---------- and --- ------ ------ ---- -- ------<br>------- --- ------ ----- --- ---- ------- -- ---- --- --<br>------- ------,157419.12999999477,157418.47500001313,157140.041,157152.00499998173,157156.59,157423.234,,36,and
screen,html.Screen,2_1_1_1_37,2021-04-26T18:49:46.998Z,,,,,,,,,,,,,,,,,54,,,,,,,,,,,,,,369.3760000040638,,response,,,,100,,,,,,,Space,keypress(Space),,,,,,,,-- --- ---- --- ------ ----- ------- ---- -- --- ------- --<br>------- ---------- ------ -- ----- -- ----- -- ---- ------<br>--- ----- --- --- ------ -------- ----- --- ------ ----- --<br>----- ----- ---------- --- the ------ ------ ---- -- ------<br>------- --- ------ ----- --- ---- ------- -- ---- --- --<br>------- ------,157793.13499998534,157792.61000000406,157407.043,157419.2949999706,157423.234,157806.697,,37,the
screen,html.Screen,2_1_1_1_38,2021-04-26T18:49:47.308Z,,,,,,,,,,,,,,,,,54,,,,,,,,,,,,,,295.87299998820527,,response,,,,100,,,,,,,Space,keypress(Space),,,,,,,,-- --- ---- --- ------ ----- ------- ---- -- --- ------- --<br>------- ---------- ------ -- ----- -- ----- -- ---- ------<br>--- ----- --- --- ------ -------- ----- --- ------ ----- --<br>----- ----- ---------- --- --- market ------ ---- -- ------<br>------- --- ------ ----- --- ---- ------- -- ---- --- --<br>------- ------,158103.0749999918,158102.5699999882,157790.228,157793.2799999835,157806.697,158106.39,,38,market
screen,html.Screen,2_1_1_1_39,2021-04-26T18:49:47.635Z,,,,,,,,,,,,,,,,,54,,,,,,,,,,,,,,322.99499996670056,,response,,,,100,,,,,,,Space,keypress(Space),,,,,,,,-- --- ---- --- ------ ----- ------- ---- -- --- ------- --<br>------- ---------- ------ -- ----- -- ----- -- ---- ------<br>--- ----- --- --- ------ -------- ----- --- ------ ----- --<br>----- ----- ---------- --- --- ------ became ---- -- ------<br>------- --- ------ ----- --- ---- ------- -- ---- --- --<br>------- ------,158430.05999998422,158429.3849999667,158089.951,158103.18999999436,158106.39,158439.927,,39,became
screen,html.Screen,2_1_1_1_40,2021-04-26T18:49:47.970Z,,,,,,,,,,,,,,,,,54,,,,,,,,,,,,,,325.1880000165256,,response,,,,100,,,,,,,Space,keypress(Space),,,,,,,,-- --- ---- --- ------ ----- ------- ---- -- --- ------- --<br>------- ---------- ------ -- ----- -- ----- -- ---- ------<br>--- ----- --- --- ------ -------- ----- --- ------ ----- --<br>----- ----- ---------- --- --- ------ ------ wary -- ------<br>------- --- ------ ----- --- ---- ------- -- ---- --- --<br>------- ------,158765.49499999965,158765.11500001652,158423.416,158430.18999998458,158439.927,158772.908,,40,wary
screen,html.Screen,2_1_1_1_41,2021-04-26T18:49:48.310Z,,,,,,,,,,,,,,,,,54,,,,,,,,,,,,,,331.9869999967632,,response,,,,100,,,,,,,Space,keypress(Space),,,,,,,,-- --- ---- --- ------ ----- ------- ---- -- --- ------- --<br>------- ---------- ------ -- ----- -- ----- -- ---- ------<br>--- ----- --- --- ------ -------- ----- --- ------ ----- --<br>----- ----- ---------- --- --- ------ ------ ---- of ------<br>------- --- ------ ----- --- ---- ------- -- ---- --- --<br>------- ------,159105.28000001796,159104.89499999676,158756.384,158765.58999996632,158772.908,159133.553,,41,of
screen,html.Screen,2_1_1_1_42,2021-04-26T18:49:48.676Z,,,,,,,,,,,,,,,,,54,,,,,,,,,,,,,,337.5370000063558,,response,,,,100,,,,,,,Space,keypress(Space),,,,,,,,-- --- ---- --- ------ ----- ------- ---- -- --- ------- --<br>------- ---------- ------ -- ----- -- ----- -- ---- ------<br>--- ----- --- --- ------ -------- ----- --- ------ ----- --<br>----- ----- ---------- --- --- ------ ------ ---- -- French<br>------- --- ------ ----- --- ---- ------- -- ---- --- --<br>------- ------,159471.4999999851,159471.09000000637,159089.545,159105.38500000257,159133.553,159492.825,,42,French
screen,html.Screen,2_1_1_1_43,2021-04-26T18:49:48.992Z,,,,,,,,,,,,,,,,,54,,,,,,,,,,,,,,293.75500001449836,,response,,,,100,,,,,,,Space,keypress(Space),,,,,,,,-- --- ---- --- ------ ----- ------- ---- -- --- ------- --<br>------- ---------- ------ -- ----- -- ----- -- ---- ------<br>--- ----- --- --- ------ -------- ----- --- ------ ----- --<br>----- ----- ---------- --- --- ------ ------ ---- -- ------<br>credit. --- ------ ----- --- ---- ------- -- ---- --- --<br>------- ------,159787.0099999709,159786.5800000145,159456.153,159471.5899999719,159492.825,159789.288,,43,credit.
screen,html.Screen,2_1_1_1_44,2021-04-26T18:49:49.385Z,,,,,,,,,,,,,,,,,54,,,,,,,,,,,,,,390.35699996742187,,response,,,,100,,,,,,,Space,keypress(Space),,,,,,,,-- --- ---- --- ------ ----- ------- ---- -- --- ------- --<br>------- ---------- ------ -- ----- -- ----- -- ---- ------<br>--- ----- --- --- ------ -------- ----- --- ------ ----- --<br>----- ----- ---------- --- --- ------ ------ ---- -- ------<br>------- The ------ ----- --- ---- ------- -- ---- --- --<br>------- ------,160180.14999997104,160179.64499996742,159773.05,159787.10999997566,159789.288,160189.272,,44,The
screen,html.Screen,2_1_1_1_45,2021-04-26T18:49:49.737Z,,,,,,,,,,,,,,,,,54,,,,,,,,,,,,,,342.85800000687595,,response,,,,100,,,,,,,Space,keypress(Space),,,,,,,,-- --- ---- --- ------ ----- ------- ---- -- --- ------- --<br>------- ---------- ------ -- ----- -- ----- -- ---- ------<br>--- ----- --- --- ------ -------- ----- --- ------ ----- --<br>----- ----- ---------- --- --- ------ ------ ---- -- ------<br>------- --- French ----- --- ---- ------- -- ---- --- --<br>------- ------,160532.56000002148,160532.13000000687,160172.651,160180.27000001166,160189.272,160539.506,,45,French
screen,html.Screen,2_1_1_1_46,2021-04-26T18:49:50.030Z,,,,,,,,,,,,,,,,,54,,,,,,,,,,,,,,285.59899999626214,,response,,,,100,,,,,,,Space,keypress(Space),,,,,,,,-- --- ---- --- ------ ----- ------- ---- -- --- ------- --<br>------- ---------- ------ -- ----- -- ----- -- ---- ------<br>--- ----- --- --- ------ -------- ----- --- ------ ----- --<br>----- ----- ---------- --- --- ------ ------ ---- -- ------<br>------- --- ------ state --- ---- ------- -- ---- --- --<br>------- ------,160825.49000001745,160825.10499999626,160522.569,160532.65499998815,160539.506,160839.438,,46,state
screen,html.Screen,2_1_1_1_47,2021-04-26T18:49:50.409Z,,,,,,,,,,,,,,,,,54,,,,,,,,,,,,,,364.9069999764615,,response,,,,100,,,,,,,Space,keypress(Space),,,,,,,,-- --- ---- --- ------ ----- ------- ---- -- --- ------- --<br>------- ---------- ------ -- ----- -- ----- -- ---- ------<br>--- ----- --- --- ------ -------- ----- --- ------ ----- --<br>----- ----- ---------- --- --- ------ ------ ---- -- ------<br>------- --- ------ ----- was ---- ------- -- ---- --- --<br>------- ------,161204.71999997972,161204.34499997646,160822.712,160825.5900000222,160839.438,161232.834,,47,was
screen,html.Screen,2_1_1_1_48,2021-04-26T18:49:50.736Z,,,,,,,,,,,,,,,,,54,,,,,,,,,,,,,,297.33100000376,,response,,,,100,,,,,,,Space,keypress(Space),,,,,,,,-- --- ---- --- ------ ----- ------- ---- -- --- ------- --<br>------- ---------- ------ -- ----- -- ----- -- ---- ------<br>--- ----- --- --- ------ -------- ----- --- ------ ----- --<br>----- ----- ---------- --- --- ------ ------ ---- -- ------<br>------- --- ------ ----- --- left ------- -- ---- --- --<br>------- ------,161530.87000001688,161530.16500000376,161189.07,161204.81999998447,161232.834,161539.191,,48,left
screen,html.Screen,2_1_1_1_49,2021-04-26T18:49:51.050Z,,,,,,,,,,,,,,,,,54,,,,,,,,,,,,,,305.23899999738205,,response,,,,100,,,,,,,Space,keypress(Space),,,,,,,,-- --- ---- --- ------ ----- ------- ---- -- --- ------- --<br>------- ---------- ------ -- ----- -- ----- -- ---- ------<br>--- ----- --- --- ------ -------- ----- --- ------ ----- --<br>----- ----- ---------- --- --- ------ ------ ---- -- ------<br>------- --- ------ ----- --- ---- without -- ---- --- --<br>------- ------,161844.83499999624,161844.42999999737,161522.297,161531.00999997696,161539.191,161855.473,,49,without
screen,html.Screen,2_1_1_1_50,2021-04-26T18:49:51.385Z,,,,,,,,,,,,,,,,,54,,,,,,,,,,,,,,323.84200001577847,,response,,,,100,,,,,,,Space,keypress(Space),,,,,,,,-- --- ---- --- ------ ----- ------- ---- -- --- ------- --<br>------- ---------- ------ -- ----- -- ----- -- ---- ------<br>--- ----- --- --- ------ -------- ----- --- ------ ----- --<br>----- ----- ---------- --- --- ------ ------ ---- -- ------<br>------- --- ------ ----- --- ---- ------- an ---- --- --<br>------- ------,162180.05500000436,162179.31500001578,161839.337,161844.93000002112,161855.473,162188.715,,50,an
screen,html.Screen,2_1_1_1_51,2021-04-26T18:49:51.690Z,,,,,,,,,,,,,,,,,54,,,,,,,,,,,,,,295.860000009503,,response,,,,100,,,,,,,Space,keypress(Space),,,,,,,,-- --- ---- --- ------ ----- ------- ---- -- --- ------- --<br>------- ---------- ------ -- ----- -- ----- -- ---- ------<br>--- ----- --- --- ------ -------- ----- --- ------ ----- --<br>----- ----- ---------- --- --- ------ ------ ---- -- ------<br>------- --- ------ ----- --- ---- ------- -- easy --- --<br>------- ------,162485.234999971,162484.5750000095,162172.525,162180.19500002265,162188.715,162488.625,,51,easy
screen,html.Screen,2_1_1_1_52,2021-04-26T18:49:52.035Z,,,,,,,,,,,,,,,,,54,,,,,,,,,,,,,,340.97000001743436,,response,,,,100,,,,,,,Space,keypress(Space),,,,,,,,-- --- ---- --- ------ ----- ------- ---- -- --- ------- --<br>------- ---------- ------ -- ----- -- ----- -- ---- ------<br>--- ----- --- --- ------ -------- ----- --- ------ ----- --<br>----- ----- ---------- --- --- ------ ------ ---- -- ------<br>------- --- ------ ----- --- ---- ------- -- ---- way --<br>------- ------,162829.98999999836,162829.59500001743,162472.089,162485.37999996915,162488.625,162839.019,,52,way
screen,html.Screen,2_1_1_1_53,2021-04-26T18:49:52.364Z,,,,,,,,,,,,,,,,,54,,,,,,,,,,,,,,319.7359999821929,,response,,,,100,,,,,,,Space,keypress(Space),,,,,,,,-- --- ---- --- ------ ----- ------- ---- -- --- ------- --<br>------- ---------- ------ -- ----- -- ----- -- ---- ------<br>--- ----- --- --- ------ -------- ----- --- ------ ----- --<br>----- ----- ---------- --- --- ------ ------ ---- -- ------<br>------- --- ------ ----- --- ---- ------- -- ---- --- of<br>------- ------,163159.16500001913,163158.7549999822,162822.047,162830.08500002325,162839.019,163172.066,,53,of
screen,html.Screen,2_1_1_1_54,2021-04-26T18:49:52.808Z,,,,,,,,,,,,,,,,,54,,,,,,,,,,,,,,430.6639999841573,,response,,,,100,,,,,,,Space,keypress(Space),,,,,,,,-- --- ---- --- ------ ----- ------- ---- -- --- ------- --<br>------- ---------- ------ -- ----- -- ----- -- ---- ------<br>--- ----- --- --- ------ -------- ----- --- ------ ----- --<br>----- ----- ---------- --- --- ------ ------ ---- -- ------<br>------- --- ------ ----- --- ---- ------- -- ---- --- --<br>raising ------,163603.30000001704,163602.72999998415,163155.298,163159.26500002388,163172.066,163605.01,,54,raising
screen,html.Screen,2_1_1_1_55,2021-04-26T18:49:53.174Z,,,,,,,,,,,,,,,,,54,,,,,,,,,,,,,,364.0649999717716,,response,,,,100,,,,,,,Space,keypress(Space),,,,,,,,-- --- ---- --- ------ ----- ------- ---- -- --- ------- --<br>------- ---------- ------ -- ----- -- ----- -- ---- ------<br>--- ----- --- --- ------ -------- ----- --- ------ ----- --<br>----- ----- ---------- --- --- ------ ------ ---- -- ------<br>------- --- ------ ----- --- ---- ------- -- ---- --- --<br>------- money.,163969.50000000652,163969.07499997178,163588.478,163603.44999999506,163605.01,163971.568,,55,money.
Item 100,flow.Loop,2_1_1_1,2021-04-26T18:49:53.174Z,,,,,,,,,,,,,,,,,,,,,,,,,,,,,,,18559.463999971777,,completion,,,,,D,,,,,,,,,,,silence,,,,,163969.66000000248,163969.07499997178,145392.926,145394.54999996815,145409.611,163971.568,,,
Question 1,html.Screen,2_1_1_2,2021-04-26T18:49:55.723Z,,,,,,,,,,,,,,,,,,,,,,,,,,,,true,TRUE,,2545.992000007507,,response,,,,100,D,,,,,,TRUE,click #choice-1,,,,silence,,,,,166518.30499997595,166517.5600000075,163955.525,163969.7349999915,163971.568,166520.972,,,
Question 2,html.Screen,2_1_1_3,2021-04-26T18:49:58.243Z,,,,,,,,,,,,,,,,,,,,,,,,,,,,true,FALSE,,2516.782999997551,,response,,,,100,D,,,,,,FALSE,click #choice-2,,,,silence,,,,,169038.46499999054,169037.75499999756,166504.318,166518.4049999807,166520.972,169053.686,,,
Item 100,flow.Sequence,2_1_1,2021-04-26T18:49:58.243Z,,,,,,,,,,,,,,,,,,,,,,,,,,,,,,,33625.741999997554,,completion,,,,,,,,,,,,,,,,,,,,,169038.6099999887,169037.75499999756,135395.432,135401.44499996677,135412.013,169053.686,,,
End of Practice,html.Page,2_1_2,2021-04-26T18:50:02.022Z,,,,,,,,,,,,,,,,,,,,,,,,,,,,,,,3763.4940000127535,,form submission,,,,,,,,,,,,,,,,,,,,,172817.34999996843,172817.18000001274,169037.05,169038.67999999784,169053.686,172819.408,,,
Practice,flow.Sequence,2_1,2021-04-26T18:50:02.022Z,,,,,,,,,,,,,,,,,,,,,,,,,,,,,,,76745.29800001274,,completion,,,,,,,,,,,,,,,,,,,,,172817.48999998672,172817.18000001274,96055.226,96062.12000001688,96071.882,172819.408,,,
Trap_instruction,html.Page,2_2_0,2021-04-26T18:50:04.562Z,,,,,,,,,,,,,,,,,,,,,,,,,,,,,,,2537.531999968749,,form submission,,,,,,,,,,,,,,,,,,,,,175357.20500000753,175356.93999996874,172802.818,172817.58999999147,172819.408,175368.793,,,
trap_trial,html.Screen,2_2_1,2021-04-26T18:50:07.953Z,,,,,,,,,,,,,,,,,,,,,,,,,,,,true,1,,3378.8020000225515,,response,,,,,,,,,,,1,click #choice-1,,,,,,,,,178748.3849999844,178747.59500002256,175352.449,175357.33500000788,175368.793,178751.239,,,
end of trap trial,html.Page,2_2_2,2021-04-26T18:50:09.955Z,,,,,,,,,,,,,,,,,,,,,,,,,,,,,,,1999.2259999900707,,form submission,,,,,,,,,,,,,,,,,,,,,180750.63500000397,180750.46499999007,178734.661,178748.48999996902,178751.239,180750.776,,,
Trap 1,flow.Sequence,2_2,2021-04-26T18:50:09.955Z,,,,,,,,,,,,,,,,,,,,,,,,,,,,,,,7931.056999990076,,completion,,,,,,,,,,,,,,,,,,,,,180750.77500002226,180750.46499999007,172802.818,172817.56499997573,172819.408,180750.776,,,
Standby,html.Page,2_3_0,2021-04-26T18:50:17.937Z,,,,,,,,,,,,,,,,,,,,,,,,,,,,,,,7997.998999999982,,timeout,,,,,,,,,,,,,,,,,,,,,188732.58499999065,188732.099,180734.132,180750.8899999666,180750.776,188748.775,,,
Holding screen,html.Screen,2_3_1_0_0,2021-04-26T18:50:24.935Z,,,,,,,,,,,,,,,,,,,,,,,,,,,,,,,6998.260999999999,,timeout,,,,,,,,,,,,,,,,,,,,,195731.54000000795,195730.849,188732.099,188732.75500000454,188748.775,195747.036,,,
screen,html.Screen,2_3_1_0_1_0,2021-04-26T18:50:25.611Z,,,,,,,,,,,,,,,,,48,,,,,,,,,,,,,,659.5539999695902,,response,,,,10,D,,,,,,Space,keypress(Space),,,,silence,,,,As -- --- ------ ------- --------- ----------- --------<br>--------- -------- --- ------- -- ------- ---- -- ------<br>-- --- -------- -------- ---------- ---- ---- ---- ------<br>-- --------- -- ---- -- --- -- --- ------- -- - -----<br>---------- -- -- -- ---- ----- -- ------ -- --- ------<br>-------,196407.00000000652,196406.58999996958,195730.849,195731.75999999512,195747.036,196413.541,,0,As
screen,html.Screen,2_3_1_0_1_1,2021-04-26T18:50:26.018Z,,,,,,,,,,,,,,,,,48,,,,,,,,,,,,,,400.3939999837603,,response,,,,10,D,,,,,,Space,keypress(Space),,,,silence,,,,-- in --- ------ ------- --------- ----------- --------<br>--------- -------- --- ------- -- ------- ---- -- ------<br>-- --- -------- -------- ---------- ---- ---- ---- ------<br>-- --------- -- ---- -- --- -- --- ------- -- - -----<br>---------- -- -- -- ---- ----- -- ------ -- --- ------<br>-------,196814.35000000056,196813.93499998376,196397.061,196407.10499999113,196413.541,196830.607,,1,in
screen,html.Screen,2_3_1_0_1_2,2021-04-26T18:50:26.401Z,,,,,,,,,,,,,,,,,48,,,,,,,,,,,,,,366.13299998486764,,response,,,,10,D,,,,,,Space,keypress(Space),,,,silence,,,,-- -- the ------ ------- --------- ----------- --------<br>--------- -------- --- ------- -- ------- ---- -- ------<br>-- --- -------- -------- ---------- ---- ---- ---- ------<br>-- --------- -- ---- -- --- -- --- ------- -- - -----<br>---------- -- -- -- ---- ----- -- ------ -- --- ------<br>-------,197197.12999998592,197196.73999998486,196813.568,196814.4500000053,196830.607,197213.392,,2,the
screen,html.Screen,2_3_1_0_1_3,2021-04-26T18:50:26.843Z,,,,,,,,,,,,,,,,,48,,,,,,,,,,,,,,424.67300000647083,,response,,,,10,D,,,,,,Space,keypress(Space),,,,silence,,,,-- -- --- United ------- --------- ----------- --------<br>--------- -------- --- ------- -- ------- ---- -- ------<br>-- --- -------- -------- ---------- ---- ---- ---- ------<br>-- --------- -- ---- -- --- -- --- ------- -- - -----<br>---------- -- -- -- ---- ----- -- ------ -- --- ------<br>-------,197638.80499999505,197638.06500000646,197196.777,197197.22999999067,197213.392,197646.526,,3,United
screen,html.Screen,2_3_1_0_1_4,2021-04-26T18:50:27.170Z,,,,,,,,,,,,,,,,,48,,,,,,,,,,,,,,319.13899996696273,,response,,,,10,D,,,,,,Space,keypress(Space),,,,silence,,,,"-- -- --- ------ States, --------- ----------- --------<br>--------- -------- --- ------- -- ------- ---- -- ------<br>-- --- -------- -------- ---------- ---- ---- ---- ------<br>-- --------- -- ---- -- --- -- --- ------- -- - -----<br>---------- -- -- -- ---- ----- -- ------ -- --- ------<br>-------",197966.14999999292,197965.66499996698,197629.996,197638.9499999932,197646.526,197980.412,,4,"States,"
screen,html.Screen,2_3_1_0_1_5,2021-04-26T18:50:27.474Z,,,,,,,,,,,,,,,,,48,,,,,,,,,,,,,,288.42799997515976,,response,,,,10,D,,,,,,Space,keypress(Space),,,,silence,,,,-- -- --- ------ ------- Colombian ----------- --------<br>--------- -------- --- ------- -- ------- ---- -- ------<br>-- --- -------- -------- ---------- ---- ---- ---- ------<br>-- --------- -- ---- -- --- -- --- ------- -- - -----<br>---------- -- -- -- ---- ----- -- ------ -- --- ------<br>-------,198269.55500000622,198268.83999997517,197963.467,197966.29499999108,197980.412,198280.147,,5,Colombian
screen,html.Screen,2_3_1_0_1_6,2021-04-26T18:50:27.962Z,,,,,,,,,,,,,,,,,48,,,,,,,,,,,,,,477.46299997146707,,response,,,,10,D,,,,,,Space,keypress(Space),,,,silence,,,,-- -- --- ------ ------- --------- legislation --------<br>--------- -------- --- ------- -- ------- ---- -- ------<br>-- --- -------- -------- ---------- ---- ---- ---- ------<br>-- --------- -- ---- -- --- -- --- ------- -- - -----<br>---------- -- -- -- ---- ----- -- ------ -- --- ------<br>-------,198757.99499999266,198757.60999997146,198263.158,198269.68999998644,198280.147,198762.909,,6,legislation
screen,html.Screen,2_3_1_0_1_7,2021-04-26T18:50:28.268Z,,,,,,,,,,,,,,,,,48,,,,,,,,,,,,,,301.1009999727539,,response,,,,10,D,,,,,,Space,keypress(Space),,,,silence,,,,-- -- --- ------ ------- --------- ----------- requires<br>--------- -------- --- ------- -- ------- ---- -- ------<br>-- --- -------- -------- ---------- ---- ---- ---- ------<br>-- --------- -- ---- -- --- -- --- ------- -- - -----<br>---------- -- -- -- ---- ----- -- ------ -- --- ------<br>-------,199064.42499998957,199064.00999997277,198746.418,198758.09000001755,198762.909,199079.936,,7,requires
screen,html.Screen,2_3_1_0_1_8,2021-04-26T18:50:28.726Z,,,,,,,,,,,,,,,,,48,,,,,,,,,,,,,,442.05900001735426,,response,,,,10,D,,,,,,Space,keypress(Space),,,,silence,,,,-- -- --- ------ ------- --------- ----------- --------<br>travelers -------- --- ------- -- ------- ---- -- ------<br>-- --- -------- -------- ---------- ---- ---- ---- ------<br>-- --------- -- ---- -- --- -- --- ------- -- - -----<br>---------- -- -- -- ---- ----- -- ------ -- --- ------<br>-------,199522.41999999387,199521.99500001734,199063.265,199064.52000001445,199079.936,199529.703,,8,travelers
screen,html.Screen,2_3_1_0_1_9,2021-04-26T18:50:29.154Z,,,,,,,,,,,,,,,,,48,,,,,,,,,,,,,,419.62699997398886,,response,,,,10,D,,,,,,Space,keypress(Space),,,,silence,,,,-- -- --- ------ ------- --------- ----------- --------<br>--------- entering --- ------- -- ------- ---- -- ------<br>-- --- -------- -------- ---------- ---- ---- ---- ------<br>-- --------- -- ---- -- --- -- --- ------- -- - -----<br>---------- -- -- -- ---- ----- -- ------ -- --- ------<br>-------,199950.0499999849,199949.329999974,199512.899,199522.51500001876,199529.703,199963.051,,9,entering
screen,html.Screen,2_3_1_0_1_10,2021-04-26T18:50:29.460Z,,,,,,,,,,,,,,,,,48,,,,,,,,,,,,,,292.7540000225126,,response,,,,10,D,,,,,,Space,keypress(Space),,,,silence,,,,-- -- --- ------ ------- --------- ----------- --------<br>--------- -------- the ------- -- ------- ---- -- ------<br>-- --- -------- -------- ---------- ---- ---- ---- ------<br>-- --------- -- ---- -- --- -- --- ------- -- - -----<br>---------- -- -- -- ---- ----- -- ------ -- --- ------<br>-------,200256.42499997048,200255.80500002252,199946.187,199950.2199999988,199963.051,200262.572,,10,the
screen,html.Screen,2_3_1_0_1_11,2021-04-26T18:50:29.818Z,,,,,,,,,,,,,,,,,48,,,,,,,,,,,,,,350.8480000087875,,response,,,,10,D,,,,,,Space,keypress(Space),,,,silence,,,,-- -- --- ------ ------- --------- ----------- --------<br>--------- -------- --- country -- ------- ---- -- ------<br>-- --- -------- -------- ---------- ---- ---- ---- ------<br>-- --------- -- ---- -- --- -- --- ------- -- - -----<br>---------- -- -- -- ---- ----- -- ------ -- --- ------<br>-------,200614.0749999904,200613.42000000877,200246.04,200256.5750000067,200262.572,200629.211,,11,country
screen,html.Screen,2_3_1_0_1_12,2021-04-26T18:50:30.130Z,,,,,,,,,,,,,,,,,48,,,,,,,,,,,,,,296.1989999670768,,response,,,,10,D,,,,,,Space,keypress(Space),,,,silence,,,,-- -- --- ------ ------- --------- ----------- --------<br>--------- -------- --- ------- to ------- ---- -- ------<br>-- --- -------- -------- ---------- ---- ---- ---- ------<br>-- --------- -- ---- -- --- -- --- ------- -- - -----<br>---------- -- -- -- ---- ----- -- ------ -- --- ------<br>-------,200925.8549999795,200925.4099999671,200612.891,200614.20499999076,200629.211,200929.029,,12,to
screen,html.Screen,2_3_1_0_1_13,2021-04-26T18:50:30.458Z,,,,,,,,,,,,,,,,,48,,,,,,,,,,,,,,324.5859999941604,,response,,,,10,D,,,,,,Space,keypress(Space),,,,silence,,,,-- -- --- ------ ------- --------- ----------- --------<br>--------- -------- --- ------- -- declare ---- -- ------<br>-- --- -------- -------- ---------- ---- ---- ---- ------<br>-- --------- -- ---- -- --- -- --- ------- -- - -----<br>---------- -- -- -- ---- ----- -- ------ -- --- ------<br>-------,201254.37500001863,201253.61499999417,200912.812,200925.9600000223,200929.029,201262.572,,13,declare
screen,html.Screen,2_3_1_0_1_14,2021-04-26T18:50:30.666Z,,,,,,,,,,,,,,,,,48,,,,,,,,,,,,,,199.39800000394462,,response,,,,10,D,,,,,,Space,keypress(Space),,,,silence,,,,-- -- --- ------ ------- --------- ----------- --------<br>--------- -------- --- ------- -- ------- cash -- ------<br>-- --- -------- -------- ---------- ---- ---- ---- ------<br>-- --------- -- ---- -- --- -- --- ------- -- - -----<br>---------- -- -- -- ---- ----- -- ------ -- --- ------<br>-------,201462.51500002109,201461.97000000393,201245.726,201254.50999999885,201262.572,201479.362,,14,cash
screen,html.Screen,2_3_1_0_1_15,2021-04-26T18:50:30.980Z,,,,,,,,,,,,,,,,,48,,,,,,,,,,,,,,296.2829999869864,,response,,,,10,D,,,,,,Space,keypress(Space),,,,silence,,,,-- -- --- ------ ------- --------- ----------- --------<br>--------- -------- --- ------- -- ------- ---- in ------<br>-- --- -------- -------- ---------- ---- ---- ---- ------<br>-- --------- -- ---- -- --- -- --- ------- -- - -----<br>---------- -- -- -- ---- ----- -- ------ -- --- ------<br>-------,201776.03499998804,201775.64499998698,201462.676,201462.60999998776,201479.362,201778.853,,15,in
screen,html.Screen,2_3_1_0_1_16,2021-04-26T18:50:31.330Z,,,,,,,,,,,,,,,,,48,,,,,,,,,,,,,,347.09700001601595,,response,,,,10,D,,,,,,Space,keypress(Space),,,,silence,,,,-- -- --- ------ ------- --------- ----------- --------<br>--------- -------- --- ------- -- ------- ---- -- excess<br>-- --- -------- -------- ---------- ---- ---- ---- ------<br>-- --------- -- ---- -- --- -- --- ------- -- - -----<br>---------- -- -- -- ---- ----- -- ------ -- --- ------<br>-------,202126.35999999475,202125.95000001602,201762.649,201776.13000001293,201778.853,202128.772,,16,excess
screen,html.Screen,2_3_1_0_1_17,2021-04-26T18:50:31.685Z,,,,,,,,,,,,,,,,,48,,,,,,,,,,,,,,351.568000009167,,response,,,,10,D,,,,,,Space,keypress(Space),,,,silence,,,,-- -- --- ------ ------- --------- ----------- --------<br>--------- -------- --- ------- -- ------- ---- -- ------<br>of --- -------- -------- ---------- ---- ---- ---- ------<br>-- --------- -- ---- -- --- -- --- ------- -- - -----<br>---------- -- -- -- ---- ----- -- ------ -- --- ------<br>-------,202480.7349999901,202480.34000000916,202112.227,202126.49499997497,202128.772,202495.35,,17,of
screen,html.Screen,2_3_1_0_1_18,2021-04-26T18:50:32.102Z,,,,,,,,,,,,,,,,,48,,,,,,,,,,,,,,401.6699999748671,,response,,,,10,D,,,,,,Space,keypress(Space),,,,silence,,,,-- -- --- ------ ------- --------- ----------- --------<br>--------- -------- --- ------- -- ------- ---- -- ------<br>-- ten -------- -------- ---------- ---- ---- ---- ------<br>-- --------- -- ---- -- --- -- --- ------- -- - -----<br>---------- -- -- -- ---- ----- -- ------ -- --- ------<br>-------,202897.63999998104,202897.01999997487,202479.176,202480.83000001498,202495.35,202912.277,,18,ten
screen,html.Screen,2_3_1_0_1_19,2021-04-26T18:50:32.456Z,,,,,,,,,,,,,,,,,48,,,,,,,,,,,,,,339.65299996943213,,response,,,,10,D,,,,,,Space,keypress(Space),,,,silence,,,,-- -- --- ------ ------- --------- ----------- --------<br>--------- -------- --- ------- -- ------- ---- -- ------<br>-- --- thousand -------- ---------- ---- ---- ---- ------<br>-- --------- -- ---- -- --- -- --- ------- -- - -----<br>---------- -- -- -- ---- ----- -- ------ -- --- ------<br>-------,203252.51999998,203251.92999996943,202895.433,202897.75000000373,202912.277,203262.243,,19,thousand
screen,html.Screen,2_3_1_0_1_20,2021-04-26T18:50:33.944Z,,,,,,,,,,,,,,,,,48,,,,,,,,,,,,,,1476.8069999746804,,response,,,,10,D,,,,,,Space,keypress(Space),,,,silence,,,,-- -- --- ------ ------- --------- ----------- --------<br>--------- -------- --- ------- -- ------- ---- -- ------<br>-- --- -------- dollars. ---------- ---- ---- ---- ------<br>-- --------- -- ---- -- --- -- --- ------- -- - -----<br>---------- -- -- -- ---- ----- -- ------ -- --- ------<br>-------,204739.56499999622,204739.04999997467,203245.247,203252.66499997815,203262.243,204744.792,,20,dollars.
screen,html.Screen,2_3_1_0_1_21,2021-04-26T18:50:34.358Z,,,,,,,,,,,,,,,,,48,,,,,,,,,,,,,,409.15800000718446,,response,,,,10,D,,,,,,Space,keypress(Space),,,,silence,,,,-- -- --- ------ ------- --------- ----------- --------<br>--------- -------- --- ------- -- ------- ---- -- ------<br>-- --- -------- -------- Concealing ---- ---- ---- ------<br>-- --------- -- ---- -- --- -- --- ------- -- - -----<br>---------- -- -- -- ---- ----- -- ------ -- --- ------<br>-------,205154.44499999285,205153.95000000717,204728.448,204739.71499997424,204744.792,205161.325,,21,Concealing
screen,html.Screen,2_3_1_0_1_22,2021-04-26T18:50:34.713Z,,,,,,,,,,,,,,,,,48,,,,,,,,,,,,,,347.2199999896693,,response,,,,10,D,,,,,,Space,keypress(Space),,,,silence,,,,-- -- --- ------ ------- --------- ----------- --------<br>--------- -------- --- ------- -- ------- ---- -- ------<br>-- --- -------- -------- ---------- more ---- ---- ------<br>-- --------- -- ---- -- --- -- --- ------- -- - -----<br>---------- -- -- -- ---- ----- -- ------ -- --- ------<br>-------,205508.9900000021,205508.54499998968,205145.164,205154.59499997087,205161.325,205511.259,,22,more
screen,html.Screen,2_3_1_0_1_23,2021-04-26T18:50:35.051Z,,,,,,,,,,,,,,,,,48,,,,,,,,,,,,,,335.6960000154504,,response,,,,10,D,,,,,,Space,keypress(Space),,,,silence,,,,-- -- --- ------ ------- --------- ----------- --------<br>--------- -------- --- ------- -- ------- ---- -- ------<br>-- --- -------- -------- ---------- ---- than ---- ------<br>-- --------- -- ---- -- --- -- --- ------- -- - -----<br>---------- -- -- -- ---- ----- -- ------ -- --- ------<br>-------,205847.45499998098,205846.95500001544,205494.683,205509.08499996876,205511.259,205861.271,,23,than
screen,html.Screen,2_3_1_0_1_24,2021-04-26T18:50:35.358Z,,,,,,,,,,,,,,,,,48,,,,,,,,,,,,,,291.7439999889466,,response,,,,10,D,,,,,,Space,keypress(Space),,,,silence,,,,-- -- --- ------ ------- --------- ----------- --------<br>--------- -------- --- ------- -- ------- ---- -- ------<br>-- --- -------- -------- ---------- ---- ---- that ------<br>-- --------- -- ---- -- --- -- --- ------- -- - -----<br>---------- -- -- -- ---- ----- -- ------ -- --- ------<br>-------,206153.7000000244,206153.01499998895,205844.604,205847.56999998353,205861.271,206161.454,,24,that
screen,html.Screen,2_3_1_0_1_25,2021-04-26T18:50:35.683Z,,,,,,,,,,,,,,,,,48,,,,,,,,,,,,,,317.0009999749309,,response,,,,10,D,,,,,,Space,keypress(Space),,,,silence,,,,-- -- --- ------ ------- --------- ----------- --------<br>--------- -------- --- ------- -- ------- ---- -- ------<br>-- --- -------- -------- ---------- ---- ---- ---- amount<br>-- --------- -- ---- -- --- -- --- ------- -- - -----<br>---------- -- -- -- ---- ----- -- ------ -- --- ------<br>-------,206478.9500000188,206478.45499997493,206144.508,206153.83999998448,206161.454,206494.462,,25,amount
screen,html.Screen,2_3_1_0_1_26,2021-04-26T18:50:35.947Z,,,,,,,,,,,,,,,,,48,,,,,,,,,,,,,,247.6730000076932,,response,,,,10,D,,,,,,Space,keypress(Space),,,,silence,,,,-- -- --- ------ ------- --------- ----------- --------<br>--------- -------- --- ------- -- ------- ---- -- ------<br>-- --- -------- -------- ---------- ---- ---- ---- ------<br>to --------- -- ---- -- --- -- --- ------- -- - -----<br>---------- -- -- -- ---- ----- -- ------ -- --- ------<br>-------,206742.81999998493,206742.1350000077,206477.844,206479.0449999855,206494.462,206744.273,,26,to
screen,html.Screen,2_3_1_0_1_27,2021-04-26T18:50:36.166Z,,,,,,,,,,,,,,,,,48,,,,,,,,,,,,,,216.9619999952265,,response,,,,10,D,,,,,,Space,keypress(Space),,,,silence,,,,-- -- --- ------ ------- --------- ----------- --------<br>--------- -------- --- ------- -- ------- ---- -- ------<br>-- --- -------- -------- ---------- ---- ---- ---- ------<br>-- transport -- ---- -- --- -- --- ------- -- - -----<br>---------- -- -- -- ---- ----- -- ------ -- --- ------<br>-------,206961.9299999904,206961.2349999952,206728.056,206742.94999998529,206744.273,206977.673,,27,transport
screen,html.Screen,2_3_1_0_1_28,2021-04-26T18:50:36.521Z,,,,,,,,,,,,,,,,,48,,,,,,,,,,,,,,338.8420000131591,,response,,,,10,D,,,,,,Space,keypress(Space),,,,silence,,,,-- -- --- ------ ------- --------- ----------- --------<br>--------- -------- --- ------- -- ------- ---- -- ------<br>-- --- -------- -------- ---------- ---- ---- ---- ------<br>-- --------- it ---- -- --- -- --- ------- -- - -----<br>---------- -- -- -- ---- ----- -- ------ -- --- ------<br>-------,207316.9249999919,207316.51500001317,206961.377,206962.07000000868,206977.673,207327.517,,28,it
screen,html.Screen,2_3_1_0_1_29,2021-04-26T18:50:36.868Z,,,,,,,,,,,,,,,,,48,,,,,,,,,,,,,,336.3429999714717,,response,,,,10,D,,,,,,Space,keypress(Space),,,,silence,,,,-- -- --- ------ ------- --------- ----------- --------<br>--------- -------- --- ------- -- ------- ---- -- ------<br>-- --- -------- -------- ---------- ---- ---- ---- ------<br>-- --------- -- into -- --- -- --- ------- -- - -----<br>---------- -- -- -- ---- ----- -- ------ -- --- ------<br>-------,207664.25999999046,207663.85999997146,207311.02,207317.02499999665,207327.517,207677.39,,29,into
screen,html.Screen,2_3_1_0_1_30,2021-04-26T18:50:37.211Z,,,,,,,,,,,,,,,,,48,,,,,,,,,,,,,,329.25999999570195,,response,,,,10,D,,,,,,Space,keypress(Space),,,,silence,,,,-- -- --- ------ ------- --------- ----------- --------<br>--------- -------- --- ------- -- ------- ---- -- ------<br>-- --- -------- -------- ---------- ---- ---- ---- ------<br>-- --------- -- ---- or --- -- --- ------- -- - -----<br>---------- -- -- -- ---- ----- -- ------ -- --- ------<br>-------,208007.04499997664,208006.64999999572,207660.811,207664.35500001535,207677.39,208010.624,,30,or
screen,html.Screen,2_3_1_0_1_31,2021-04-26T18:50:37.578Z,,,,,,,,,,,,,,,,,48,,,,,,,,,,,,,,362.7110000111279,,response,,,,10,D,,,,,,Space,keypress(Space),,,,silence,,,,-- -- --- ------ ------- --------- ----------- --------<br>--------- -------- --- ------- -- ------- ---- -- ------<br>-- --- -------- -------- ---------- ---- ---- ---- ------<br>-- --------- -- ---- -- out -- --- ------- -- - -----<br>---------- -- -- -- ---- ----- -- ------ -- --- ------<br>-------,208373.814999999,208373.33500001114,207994.048,208007.15000001946,208010.624,208377.197,,31,out
screen,html.Screen,2_3_1_0_1_32,2021-04-26T18:50:37.889Z,,,,,,,,,,,,,,,,,48,,,,,,,,,,,,,,307.24800002080156,,response,,,,10,D,,,,,,Space,keypress(Space),,,,silence,,,,-- -- --- ------ ------- --------- ----------- --------<br>--------- -------- --- ------- -- ------- ---- -- ------<br>-- --- -------- -------- ---------- ---- ---- ---- ------<br>-- --------- -- ---- -- --- of --- ------- -- - -----<br>---------- -- -- -- ---- ----- -- ------ -- --- ------<br>-------,208684.85000001965,208684.4450000208,208360.702,208373.9250000217,208377.197,208693.802,,32,of
screen,html.Screen,2_3_1_0_1_33,2021-04-26T18:50:38.179Z,,,,,,,,,,,,,,,,,48,,,,,,,,,,,,,,280.4579999881389,,response,,,,10,D,,,,,,Space,keypress(Space),,,,silence,,,,-- -- --- ------ ------- --------- ----------- --------<br>--------- -------- --- ------- -- ------- ---- -- ------<br>-- --- -------- -------- ---------- ---- ---- ---- ------<br>-- --------- -- ---- -- --- -- the ------- -- - -----<br>---------- -- -- -- ---- ----- -- ------ -- --- ------<br>-------,208974.84500001883,208974.25999998813,208677.617,208684.9500000244,208693.802,208977.046,,33,the
screen,html.Screen,2_3_1_0_1_34,2021-04-26T18:50:38.502Z,,,,,,,,,,,,,,,,,48,,,,,,,,,,,,,,320.44900000616326,,response,,,,10,D,,,,,,Space,keypress(Space),,,,silence,,,,-- -- --- ------ ------- --------- ----------- --------<br>--------- -------- --- ------- -- ------- ---- -- ------<br>-- --- -------- -------- ---------- ---- ---- ---- ------<br>-- --------- -- ---- -- --- -- --- country -- - -----<br>---------- -- -- -- ---- ----- -- ------ -- --- ------<br>-------,209298.14500000793,209297.49500000617,208960.479,208975.0050000148,208977.046,209310.406,,34,country
screen,html.Screen,2_3_1_0_1_35,2021-04-26T18:50:38.786Z,,,,,,,,,,,,,,,,,48,,,,,,,,,,,,,,270.479000003048,,response,,,,10,D,,,,,,Space,keypress(Space),,,,silence,,,,-- -- --- ------ ------- --------- ----------- --------<br>--------- -------- --- ------- -- ------- ---- -- ------<br>-- --- -------- -------- ---------- ---- ---- ---- ------<br>-- --------- -- ---- -- --- -- --- ------- is - -----<br>---------- -- -- -- ---- ----- -- ------ -- --- ------<br>-------,209581.64499996928,209580.88500000304,209293.712,209298.2600000105,209310.406,209594.009,,35,is
screen,html.Screen,2_3_1_0_1_36,2021-04-26T18:50:39.080Z,,,,,,,,,,,,,,,,,48,,,,,,,,,,,,,,281.8509999710077,,response,,,,10,D,,,,,,Space,keypress(Space),,,,silence,,,,-- -- --- ------ ------- --------- ----------- --------<br>--------- -------- --- ------- -- ------- ---- -- ------<br>-- --- -------- -------- ---------- ---- ---- ---- ------<br>-- --------- -- ---- -- --- -- --- ------- -- a -----<br>---------- -- -- -- ---- ----- -- ------ -- --- ------<br>-------,209876.4000000083,209875.859999971,209576.971,209581.77499996964,209594.009,209899.089,,36,a
screen,html.Screen,2_3_1_0_1_37,2021-04-26T18:50:39.437Z,,,,,,,,,,,,,,,,,48,,,,,,,,,,,,,,333.52599998624646,,response,,,,10,D,,,,,,Space,keypress(Space),,,,silence,,,,-- -- --- ------ ------- --------- ----------- --------<br>--------- -------- --- ------- -- ------- ---- -- ------<br>-- --- -------- -------- ---------- ---- ---- ---- ------<br>-- --------- -- ---- -- --- -- --- ------- -- - crime<br>---------- -- -- -- ---- ----- -- ------ -- --- ------<br>-------,210233.1300000078,210232.61499998625,209860.272,209876.53999996837,209899.089,210243.767,,37,crime
screen,html.Screen,2_3_1_0_1_38,2021-04-26T18:50:39.828Z,,,,,,,,,,,,,,,,,48,,,,,,,,,,,,,,379.7029999913648,,response,,,,10,D,,,,,,Space,keypress(Space),,,,silence,,,,-- -- --- ------ ------- --------- ----------- --------<br>--------- -------- --- ------- -- ------- ---- -- ------<br>-- --- -------- -------- ---------- ---- ---- ---- ------<br>-- --------- -- ---- -- --- -- --- ------- -- - -----<br>punishable -- -- -- ---- ----- -- ------ -- --- ------<br>-------,210623.87000001036,210623.46999999136,210226.874,210233.27500000596,210243.767,210626.625,,38,punishable
screen,html.Screen,2_3_1_0_1_39,2021-04-26T18:50:40.077Z,,,,,,,,,,,,,,,,,48,,,,,,,,,,,,,,246.07500000717118,,response,,,,10,D,,,,,,Space,keypress(Space),,,,silence,,,,-- -- --- ------ ------- --------- ----------- --------<br>--------- -------- --- ------- -- ------- ---- -- ------<br>-- --- -------- -------- ---------- ---- ---- ---- ------<br>-- --------- -- ---- -- --- -- --- ------- -- - -----<br>---------- by -- -- ---- ----- -- ------ -- --- ------<br>-------,210873.22499998845,210872.70000000717,210610.642,210623.96499997703,210626.625,210876.572,,39,by
screen,html.Screen,2_3_1_0_1_40,2021-04-26T18:50:40.468Z,,,,,,,,,,,,,,,,,48,,,,,,,,,,,,,,386.6930000159773,,response,,,,10,D,,,,,,Space,keypress(Space),,,,silence,,,,-- -- --- ------ ------- --------- ----------- --------<br>--------- -------- --- ------- -- ------- ---- -- ------<br>-- --- -------- -------- ---------- ---- ---- ---- ------<br>-- --------- -- ---- -- --- -- --- ------- -- - -----<br>---------- -- up -- ---- ----- -- ------ -- --- ------<br>-------,211263.89499998186,211263.26500001596,210860.033,210873.33500001114,210876.572,211276.764,,40,up
