sender,sender_type,sender_id,timestamp,meta,,Blues,Classical,Country,Dance,Electronic,Folk,Gospel,Hip-Hop,Jazz,Latin,Musical/Film,New-age,Pop,Prolific_id,Provo_ID,R&B,Rap,Reggae,Religious,Rock,Soul,Swing,Traditional,age,artist_name,correct,correctResponse,distraction,duration,education,ended_on,familiarity,gender,headphone_check_performance,item,list,music_frequency,offensiveness,pleasantness,position_correct,preference,response,response_action,snippet_file,song_name,song_rating,sound,stimulus_1,stimulus_2,stimulus_3,text,time_commit,time_end,time_render,time_run,time_show,time_switch,url,word,word_ID
Prolific ID,html.Form,0,2021-04-27T08:26:34.260Z,"{""labjs_version"":""20.2.2"",""labjs_build"":{""flavor"":""production"",""commit"":""a25486e0c714a0ae2ce03ff94b7bb6896854dcfa""},""location"":""https://run.pavlovia.org/mvasilev/prolific_music_f/"",""userAgent"":""Mozilla/5.0 (Macintosh; Intel Mac OS X 10_15_7) AppleWebKit/537.36 (KHTML, like Gecko) Chrome/90.0.4430.85 Safari/537.36"",""platform"":""MacIntel"",""language"":""en-GB"",""locale"":""en-GB"",""timeZone"":""Europe/London"",""timezoneOffset"":-60,""screen_width"":1440,""screen_height"":900,""scroll_width"":1440,""scroll_height"":773,""window_innerWidth"":1440,""window_innerHeight"":821,""devicePixelRatio"":2}",,,,,,,,,,,,,,,55d51a6b8ce09000127d4821,,,,,,,,,,,,,,,42283.979999999814,,form submission,,,,,,,,,,,,,,,,,,,,,51509.415000000445,51509.07999999981,9208.433,9215.919999998732,9225.1,51510.031,{},,
Introduction,html.Screen,1_0,2021-04-27T08:26:47.581Z,,,,,,,,,,,,,,,,,,,,,,,,,,,,,,,13314.334000000395,,response,,,,,,,,,,,continue,click button,,,,,,,,,64830.040000000736,64824.3650000004,51493.364,51509.62499999878,51510.031,64827.141,,,
Volume calibration,html.Screen,1_1,2021-04-27T08:27:15.565Z,,,,,,,,,,,,,,,,,,,,,,,,,,,,,,,27982.248999998526,,response,,,,,,,,,,,continue,click button,,,,,,,,,92814.92000000071,92809.38999999853,64810.474,64830.37499999773,64827.141,92828.058,,,
Task instructions,html.Screen,1_2,2021-04-27T08:27:21.928Z,,,,,,,,,,,,,,,,,,,,,,,,,,,,,,,6347.192000000228,,response,,,,,,,,,,,continue,click button,,,,,,,,,99177.70999999993,99175.25000000023,92811.391,92815.16499999998,92828.058,99178.308,,,
Sounds,html.Screen,1_3_0_0,2021-04-27T08:27:26.166Z,,,,,,,,,,,,,,,,,,,,,,,,,,,,,,,4250.084999999992,,timeout,,,,,,,,,2,,,,,,,,I,S,O,,103415.99999999744,103411.726,99161.641,99178.16499999753,99178.308,103428.393,,,
Judgement,html.Screen,1_3_0_1,2021-04-27T08:27:26.927Z,,,,,,,,,,,,,,,,,,,,,,,,,,,,true,2,,744.7669999984646,,response,,,,,,,,,2,,2,click #choice-2,,,,,I,S,O,,104176.41499999809,104173.15999999846,103411.726,103416.2499999984,103428.393,104178.408,,,
Trial,flow.Sequence,1_3_0,2021-04-27T08:27:26.927Z,,,,,,,,,,,,,,,,,,,,,,,,,,,,,,,4994.851999998456,,completion,,,,,,,,,2,,,,,,,,I,S,O,,104177.04500000036,104173.15999999846,99161.641,99178.07999999786,99178.308,104178.408,,,
Sounds,html.Screen,1_3_1_0,2021-04-27T08:27:31.165Z,,,,,,,,,,,,,,,,,,,,,,,,,,,,,,,4250.085000000006,,timeout,,,,,,,,,1,,,,,,,,S,I,O,,108414.33499999766,108411.826,104161.741,104177.28999999963,104178.408,108428.493,,,
Judgement,html.Screen,1_3_1_1,2021-04-27T08:27:32.107Z,,,,,,,,,,,,,,,,,,,,,,,,,,,,true,1,,926.2269999993587,,response,,,,,,,,,1,,1,click #choice-1,,,,,S,I,O,,109357.20500000025,109354.71999999936,108411.826,108414.62499999761,108428.493,109362.019,,,
Trial,flow.Sequence,1_3_1,2021-04-27T08:27:32.108Z,,,,,,,,,,,,,,,,,,,,,,,,,,,,,,,5176.311999999365,,completion,,,,,,,,,1,,,,,,,,S,I,O,,109357.49999999825,109354.71999999936,104161.741,104177.20499999996,104178.408,109362.019,,,
Sounds,html.Screen,1_3_2_0,2021-04-27T08:27:36.349Z,,,,,,,,,,,,,,,,,,,,,,,,,,,,,,,4250.085000000006,,timeout,,,,,,,,,1,,,,,,,,S,O,I,,113598.33000000071,113595.437,109345.352,109357.74999999921,109362.019,113612.104,,,
Judgement,html.Screen,1_3_2_1,2021-04-27T08:27:37.488Z,,,,,,,,,,,,,,,,,,,,,,,,,,,,true,1,,1122.710999999792,,response,,,,,,,,,1,,1,click #choice-1,,,,,S,O,I,,114738.07999999917,114734.8149999998,113595.437,113598.62499999872,113612.104,114745.46,,,
Trial,flow.Sequence,1_3_2,2021-04-27T08:27:37.489Z,,,,,,,,,,,,,,,,,,,,,,,,,,,,,,,5372.795999999798,,completion,,,,,,,,,1,,,,,,,,S,O,I,,114738.49999999948,114734.8149999998,109345.352,109357.62500000055,109362.019,114745.46,,,
Sounds,html.Screen,1_3_3_0,2021-04-27T08:27:41.732Z,,,,,,,,,,,,,,,,,,,,,,,,,,,,,,,4250.289999999994,,timeout,,,,,,,,,2,,,,,,,,O,S,I,,118981.58499999772,118979.083,114728.793,114738.75000000044,114745.46,118995.75,,,
Judgement,html.Screen,1_3_3_1,2021-04-27T08:27:42.366Z,,,,,,,,,,,,,,,,,,,,,,,,,,,,true,2,,617.1950000007637,,response,,,,,,,,,2,,2,click #choice-2,,,,,O,S,I,,119615.62499999854,119612.94500000076,118979.083,118981.9150000003,118995.75,119629.096,,,
Trial,flow.Sequence,1_3_3,2021-04-27T08:27:42.366Z,,,,,,,,,,,,,,,,,,,,,,,,,,,,,,,4867.485000000757,,completion,,,,,,,,,2,,,,,,,,O,S,I,,119616.0400000008,119612.94500000076,114728.793,114738.62499999814,114745.46,119629.096,,,
Sounds,html.Screen,1_3_4_0,2021-04-27T08:27:46.615Z,,,,,,,,,,,,,,,,,,,,,,,,,,,,,,,4250.084999999992,,timeout,,,,,,,,,3,,,,,,,,O,I,S,,123865.16499999925,123862.514,119612.429,119616.3349999988,119629.096,123879.181,,,
Judgement,html.Screen,1_3_4_1,2021-04-27T08:27:47.389Z,,,,,,,,,,,,,,,,,,,,,,,,,,,,true,3,,756.3290000000707,,response,,,,,,,,,3,,3,click #choice-3,,,,,O,I,S,,124638.70499999757,124635.51000000007,123862.514,123865.49999999988,123879.181,124645.863,,,
Trial,flow.Sequence,1_3_4,2021-04-27T08:27:47.389Z,,,,,,,,,,,,,,,,,,,,,,,,,,,,,,,5006.4140000000625,,completion,,,,,,,,,3,,,,,,,,O,I,S,,124639.12499999788,124635.51000000007,119612.429,119616.24999999913,119629.096,124645.863,,,
Sounds,html.Screen,1_3_5_0,2021-04-27T08:27:51.632Z,,,,,,,,,,,,,,,,,,,,,,,,,,,,,,,4250.085000000006,,timeout,,,,,,,,,3,,,,,,,,I,O,S,,128881.75000000047,128879.281,124629.196,124639.28999999916,124645.863,128895.948,,,
Judgement,html.Screen,1_3_5_1,2021-04-27T08:27:52.274Z,,,,,,,,,,,,,,,,,,,,,,,,,,,,true,3,,625.0369999991963,,response,,,,,,,,,3,,3,click #choice-3,,,,,I,O,S,,129523.87499999895,129520.9849999992,128879.281,128882.04000000042,128895.948,129529.553,,,
Trial,flow.Sequence,1_3_5,2021-04-27T08:27:52.275Z,,,,,,,,,,,,,,,,,,,,,,,,,,,,,,,4875.121999999203,,completion,,,,,,,,,3,,,,,,,,I,O,S,,129524.33499999825,129520.9849999992,124629.196,124639.25000000017,124645.863,129529.553,,,
Task,flow.Loop,1_3,2021-04-27T08:27:52.280Z,,,,,,,,,,,,,,,,,,,,,,,,,,,,,,,30342.676999999196,,completion,,,1,,,,,,,,,,,,,,,,,,129529.70500000083,129520.9849999992,99161.641,99177.9549999992,99178.308,129529.553,,,
Trap,html.Screen,1_4,2021-04-27T08:27:52.282Z,,,,,,,,,,,,,,,,,,,,,,,,,,,,,,,NaN,,skipped,,,,,,,,,,,,,,,,,,,,,129531.41499999765,129520.9849999992,,129531.33499999967,,129529.553,,,
Thanks,html.Screen,1_5,2021-04-27T08:27:55.625Z,,,,,,,,,,,,,,,,,,,,,,,,,,,,,,,3342.381999999212,,response,,,,,,,,,,,continue,click button,,,,,,,,,132875.24999999732,132871.9349999992,129512.886,129531.49999999732,129529.553,135213,,,
Headphone screening,flow.Sequence,1,2021-04-27T08:27:55.626Z,,,,,,,,,,,,,,,,,,,,,,,,,,,,,,,81361.90399999921,,completion,,,,,,,,,,,,,,,,,,,,,132875.53999999727,132871.9349999992,51493.364,51509.579999998095,51510.031,135213,,,
Instructions,html.Page,2_0,2021-04-27T08:28:13.425Z,,,,,,,,,,,,,,,,,,,,,,,,,,,,,,,15460.96000000008,,form submission,,,,,,,,,,,,,,,,,,,,,150674.83499999798,150673.96000000008,135196.333,135212.74999999878,135213,150679.976,,,
Holding screen,html.Screen,2_1_0_0,2021-04-27T08:28:23.416Z,,,,,,,,,,,,,,,,,,,,,,,,,,,,,,,10000.46100000001,,timeout,,,,,,,,,,,,,,,,,,,,,160665.99999999744,160663.77,150663.309,150675.20499999955,150679.976,160680.437,,,
screen,html.Screen,2_1_0_1_0,2021-04-27T08:28:25.075Z,,,,,,,,,,,,,,,,,53,,,,,,,,,,,,,,1637.517999998614,,response,,,,99,,,,,,,Space,keypress(Space),,,,,,,,When -- ----- -- ------ - ------- --- ----------<br>------------- ------ ------ ---- ---- ------- ----- -- ----<br>-------- ------- -- ---------- --- - --- ----- ----- ----<br>---- --- --- ----- --- ---- ---- ------- ----- ---- -------<br>--- --- -- ----- -- --- ---- -- --- ---- -- ------ ------<br>--- ----- -- ----,162324.9599999981,162317.95499999862,160663.77,160666.49999999936,160680.437,162330.718,,0,When
screen,html.Screen,2_1_0_1_1,2021-04-27T08:28:25.769Z,,,,,,,,,,,,,,,,,53,,,,,,,,,,,,,,684.1719999985653,,response,,,,99,,,,,,,Space,keypress(Space),,,,,,,,---- it ----- -- ------ - ------- --- ----------<br>------------- ------ ------ ---- ---- ------- ----- -- ----<br>-------- ------- -- ---------- --- - --- ----- ----- ----<br>---- --- --- ----- --- ---- ---- ------- ----- ---- -------<br>--- --- -- ----- -- --- ---- -- --- ---- -- ------ ------<br>--- ----- -- ----,163018.71000000028,163014.88999999856,162314.051,162325.20499999737,162330.718,163030.732,,1,it
screen,html.Screen,2_1_0_1_2,2021-04-27T08:28:26.390Z,,,,,,,,,,,,,,,,,53,,,,,,,,,,,,,,606.1880000008387,,response,,,,99,,,,,,,Space,keypress(Space),,,,,,,,---- -- comes -- ------ - ------- --- ----------<br>------------- ------ ------ ---- ---- ------- ----- -- ----<br>-------- ------- -- ---------- --- - --- ----- ----- ----<br>---- --- --- ----- --- ---- ---- ------- ----- ---- -------<br>--- --- -- ----- -- --- ---- -- --- ---- -- ------ ------<br>--- ----- -- ----,163640.4599999987,163636.92000000083,163014.065,163019.04499999728,163030.732,163647.411,,2,comes
screen,html.Screen,2_1_0_1_3,2021-04-27T08:28:26.922Z,,,,,,,,,,,,,,,,,53,,,,,,,,,,,,,,521.4240000004065,,response,,,,99,,,,,,,Space,keypress(Space),,,,,,,,---- -- ----- to ------ - ------- --- ----------<br>------------- ------ ------ ---- ---- ------- ----- -- ----<br>-------- ------- -- ---------- --- - --- ----- ----- ----<br>---- --- --- ----- --- ---- ---- ------- ----- ---- -------<br>--- --- -- ----- -- --- ---- -- --- ---- -- ------ ------<br>--- ----- -- ----,164172.37499999828,164168.8350000004,163630.744,163640.83499999833,163647.411,164180.755,,3,to
screen,html.Screen,2_1_0_1_4,2021-04-27T08:28:27.566Z,,,,,,,,,,,,,,,,,53,,,,,,,,,,,,,,632.0700000008801,,response,,,,99,,,,,,,Space,keypress(Space),,,,,,,,---- -- ----- -- having - ------- --- ----------<br>------------- ------ ------ ---- ---- ------- ----- -- ----<br>-------- ------- -- ---------- --- - --- ----- ----- ----<br>---- --- --- ----- --- ---- ---- ------- ----- ---- -------<br>--- --- -- ----- -- --- ---- -- --- ---- -- ------ ------<br>--- ----- -- ----,164816.16999999824,164812.82500000088,164164.088,164172.66499999823,164180.755,164830.768,,4,having
screen,html.Screen,2_1_0_1_5,2021-04-27T08:28:28.109Z,,,,,,,,,,,,,,,,,53,,,,,,,,,,,,,,524.4270000000834,,response,,,,99,,,,,,,Space,keypress(Space),,,,,,,,---- -- ----- -- ------ a ------- --- ----------<br>------------- ------ ------ ---- ---- ------- ----- -- ----<br>-------- ------- -- ---------- --- - --- ----- ----- ----<br>---- --- --- ----- --- ---- ---- ------- ----- ---- -------<br>--- --- -- ----- -- --- ---- -- --- ---- -- ------ ------<br>--- ----- -- ----,165358.7899999984,165355.1950000001,164814.101,164816.50000000081,164830.768,165364.112,,5,a
screen,html.Screen,2_1_0_1_6,2021-04-27T08:28:28.792Z,,,,,,,,,,,,,,,,,53,,,,,,,,,,,,,,673.9630000003963,,response,,,,99,,,,,,,Space,keypress(Space),,,,,,,,---- -- ----- -- ------ - lasting --- ----------<br>------------- ------ ------ ---- ---- ------- ----- -- ----<br>-------- ------- -- ---------- --- - --- ----- ----- ----<br>---- --- --- ----- --- ---- ---- ------- ----- ---- -------<br>--- --- -- ----- -- --- ---- -- --- ---- -- ------ ------<br>--- ----- -- ----,166041.7099999977,166038.0750000004,165347.445,165359.12499999904,165364.112,166047.459,,6,lasting
screen,html.Screen,2_1_0_1_7,2021-04-27T08:28:29.378Z,,,,,,,,,,,,,,,,,53,,,,,,,,,,,,,,577.3009999987844,,response,,,,99,,,,,,,Space,keypress(Space),,,,,,,,---- -- ----- -- ------ - ------- and ----------<br>------------- ------ ------ ---- ---- ------- ----- -- ----<br>-------- ------- -- ---------- --- - --- ----- ----- ----<br>---- --- --- ----- --- ---- ---- ------- ----- ---- -------<br>--- --- -- ----- -- --- ---- -- --- ---- -- ------ ------<br>--- ----- -- ----,166628.16999999995,166624.7599999988,166030.792,166041.99999999764,166047.459,166630.804,,7,and
screen,html.Screen,2_1_0_1_8,2021-04-27T08:28:29.978Z,,,,,,,,,,,,,,,,,53,,,,,,,,,,,,,,594.1459999998042,,response,,,,99,,,,,,,Space,keypress(Space),,,,,,,,---- -- ----- -- ------ - ------- --- fulfilling<br>------------- ------ ------ ---- ---- ------- ----- -- ----<br>-------- ------- -- ---------- --- - --- ----- ----- ----<br>---- --- --- ----- --- ---- ---- ------- ----- ---- -------<br>--- --- -- ----- -- --- ---- -- --- ---- -- ------ ------<br>--- ----- -- ----,167228.37499999878,167224.9499999998,166614.137,166628.4999999989,166630.804,167230.816,,8,fulfilling
screen,html.Screen,2_1_0_1_9,2021-04-27T08:28:31.853Z,,,,,,,,,,,,,,,,,53,,,,,,,,,,,,,,1868.4389999973646,,response,,,,99,,,,,,,Space,keypress(Space),,,,,,,,"---- -- ----- -- ------ - ------- --- ----------<br>relationship, ------ ------ ---- ---- ------- ----- -- ----<br>-------- ------- -- ---------- --- - --- ----- ----- ----<br>---- --- --- ----- --- ---- ---- ------- ----- ---- -------<br>--- --- -- ----- -- --- ---- -- --- ---- -- ------ ------<br>--- ----- -- ----",169102.8750000005,169099.25499999736,167214.149,167228.7899999974,167230.816,169114.187,,9,"relationship,"
screen,html.Screen,2_1_0_1_10,2021-04-27T08:28:32.605Z,,,,,,,,,,,,,,,,,53,,,,,,,,,,,,,,736.8129999987432,,response,,,,99,,,,,,,Space,keypress(Space),,,,,,,,---- -- ----- -- ------ - ------- --- ----------<br>------------- common ------ ---- ---- ------- ----- -- ----<br>-------- ------- -- ---------- --- - --- ----- ----- ----<br>---- --- --- ----- --- ---- ---- ------- ----- ---- -------<br>--- --- -- ----- -- --- ---- -- --- ---- -- ------ ------<br>--- ----- -- ----,169854.54499999832,169850.99999999875,169097.52,169103.2099999975,169114.187,169864.202,,10,common
screen,html.Screen,2_1_0_1_11,2021-04-27T08:28:33.199Z,,,,,,,,,,,,,,,,,53,,,,,,,,,,,,,,581.7030000005034,,response,,,,99,,,,,,,Space,keypress(Space),,,,,,,,---- -- ----- -- ------ - ------- --- ----------<br>------------- ------ wisdom ---- ---- ------- ----- -- ----<br>-------- ------- -- ---------- --- - --- ----- ----- ----<br>---- --- --- ----- --- ---- ---- ------- ----- ---- -------<br>--- --- -- ----- -- --- ---- -- --- ---- -- ------ ------<br>--- ----- -- ----,170449.29000000047,170445.9050000005,169847.535,169854.87499999726,169864.202,170464.214,,11,wisdom
screen,html.Screen,2_1_0_1_12,2021-04-27T08:28:33.895Z,,,,,,,,,,,,,,,,,53,,,,,,,,,,,,,,677.7509999988833,,response,,,,99,,,,,,,Space,keypress(Space),,,,,,,,---- -- ----- -- ------ - ------- --- ----------<br>------------- ------ ------ says ---- ------- ----- -- ----<br>-------- ------- -- ---------- --- - --- ----- ----- ----<br>---- --- --- ----- --- ---- ---- ------- ----- ---- -------<br>--- --- -- ----- -- --- ---- -- --- ---- -- ------ ------<br>--- ----- -- ----,171145.41499999905,171141.9649999989,170447.547,170449.4999999988,170464.214,171147.733,,12,says
screen,html.Screen,2_1_0_1_13,2021-04-27T08:28:34.467Z,,,,,,,,,,,,,,,,,53,,,,,,,,,,,,,,566.0819999991509,,response,,,,99,,,,,,,Space,keypress(Space),,,,,,,,---- -- ----- -- ------ - ------- --- ----------<br>------------- ------ ------ ---- that ------- ----- -- ----<br>-------- ------- -- ---------- --- - --- ----- ----- ----<br>---- --- --- ----- --- ---- ---- ------- ----- ---- -------<br>--- --- -- ----- -- --- ---- -- --- ---- -- ------ ------<br>--- ----- -- ----,171717.2099999989,171713.81499999916,171131.066,171145.78999999867,171147.733,171731.078,,13,that
screen,html.Screen,2_1_0_1_14,2021-04-27T08:28:35.014Z,,,,,,,,,,,,,,,,,53,,,,,,,,,,,,,,529.911999998847,,response,,,,99,,,,,,,Space,keypress(Space),,,,,,,,---- -- ----- -- ------ - ------- --- ----------<br>------------- ------ ------ ---- ---- feeling ----- -- ----<br>-------- ------- -- ---------- --- - --- ----- ----- ----<br>---- --- --- ----- --- ---- ---- ------- ----- ---- -------<br>--- --- -- ----- -- --- ---- -- --- ---- -- ------ ------<br>--- ----- -- ----,172264.32999999815,172260.98999999886,171714.411,171717.66999999818,171731.078,172281.089,,14,feeling
screen,html.Screen,2_1_0_1_15,2021-04-27T08:28:35.700Z,,,,,,,,,,,,,,,,,53,,,,,,,,,,,,,,664.9309999994002,,response,,,,99,,,,,,,Space,keypress(Space),,,,,,,,---- -- ----- -- ------ - ------- --- ----------<br>------------- ------ ------ ---- ---- ------- close -- ----<br>-------- ------- -- ---------- --- - --- ----- ----- ----<br>---- --- --- ----- --- ---- ---- ------- ----- ---- -------<br>--- --- -- ----- -- --- ---- -- --- ---- -- ------ ------<br>--- ----- -- ----,172950.24999999805,172946.0199999994,172264.422,172264.6649999988,172281.089,172964.436,,15,close
screen,html.Screen,2_1_0_1_16,2021-04-27T08:28:36.471Z,,,,,,,,,,,,,,,,,53,,,,,,,,,,,,,,752.6989999989746,,response,,,,99,,,,,,,Space,keypress(Space),,,,,,,,---- -- ----- -- ------ - ------- --- ----------<br>------------- ------ ------ ---- ---- ------- ----- to ----<br>-------- ------- -- ---------- --- - --- ----- ----- ----<br>---- --- --- ----- --- ---- ---- ------- ----- ---- -------<br>--- --- -- ----- -- --- ---- -- --- ---- -- ------ ------<br>--- ----- -- ----,173720.7500000004,173717.13499999896,172947.769,172950.46000000002,172964.436,173731.118,,16,to
screen,html.Screen,2_1_0_1_17,2021-04-27T08:28:37.050Z,,,,,,,,,,,,,,,,,53,,,,,,,,,,,,,,564.8569999972824,,response,,,,99,,,,,,,Space,keypress(Space),,,,,,,,---- -- ----- -- ------ - ------- --- ----------<br>------------- ------ ------ ---- ---- ------- ----- -- your<br>-------- ------- -- ---------- --- - --- ----- ----- ----<br>---- --- --- ----- --- ---- ---- ------- ----- ---- -------<br>--- --- -- ----- -- --- ---- -- --- ---- -- ------ ------<br>--- ----- -- ----,174299.53999999998,174295.97499999727,173714.451,173721.0849999974,173731.118,174314.463,,17,your
screen,html.Screen,2_1_0_1_18,2021-04-27T08:28:37.592Z,,,,,,,,,,,,,,,,,53,,,,,,,,,,,,,,524.4869999975781,,response,,,,99,,,,,,,Space,keypress(Space),,,,,,,,---- -- ----- -- ------ - ------- --- ----------<br>------------- ------ ------ ---- ---- ------- ----- -- ----<br>romantic ------- -- ---------- --- - --- ----- ----- ----<br>---- --- --- ----- --- ---- ---- ------- ----- ---- -------<br>--- --- -- ----- -- --- ---- -- --- ---- -- ------ ------<br>--- ----- -- ----,174842.41499999916,174838.94999999757,174297.796,174299.9149999996,174314.463,174847.807,,18,romantic
screen,html.Screen,2_1_0_1_19,2021-04-27T08:28:38.295Z,,,,,,,,,,,,,,,,,53,,,,,,,,,,,,,,693.2780000007479,,response,,,,99,,,,,,,Space,keypress(Space),,,,,,,,---- -- ----- -- ------ - ------- --- ----------<br>------------- ------ ------ ---- ---- ------- ----- -- ----<br>-------- partner -- ---------- --- - --- ----- ----- ----<br>---- --- --- ----- --- ---- ---- ------- ----- ---- -------<br>--- --- -- ----- -- --- ---- -- --- ---- -- ------ ------<br>--- ----- -- ----,175544.54500000065,175541.08500000075,174831.14,174842.7499999998,174847.807,175547.821,,19,partner
screen,html.Screen,2_1_0_1_20,2021-04-27T08:28:38.789Z,,,,,,,,,,,,,,,,,53,,,,,,,,,,,,,,487.94400000054156,,response,,,,99,,,,,,,Space,keypress(Space),,,,,,,,---- -- ----- -- ------ - ------- --- ----------<br>------------- ------ ------ ---- ---- ------- ----- -- ----<br>-------- ------- is ---------- --- - --- ----- ----- ----<br>---- --- --- ----- --- ---- ---- ------- ----- ---- -------<br>--- --- -- ----- -- --- ---- -- --- ---- -- ------ ------<br>--- ----- -- ----,176038.7950000004,176035.76500000054,175531.154,175544.78999999992,175547.821,176047.831,,20,is
screen,html.Screen,2_1_0_1_21,2021-04-27T08:28:39.380Z,,,,,,,,,,,,,,,,,53,,,,,,,,,,,,,,579.0739999973448,,response,,,,99,,,,,,,Space,keypress(Space),,,,,,,,---- -- ----- -- ------ - ------- --- ----------<br>------------- ------ ------ ---- ---- ------- ----- -- ----<br>-------- ------- -- paramount. --- - --- ----- ----- ----<br>---- --- --- ----- --- ---- ---- ------- ----- ---- -------<br>--- --- -- ----- -- --- ---- -- --- ---- -- ------ ------<br>--- ----- -- ----,176630.24999999834,176626.90499999735,176031.164,176039.07999999865,176047.831,176647.843,,21,paramount.
screen,html.Screen,2_1_0_1_22,2021-04-27T08:28:40.052Z,,,,,,,,,,,,,,,,,53,,,,,,,,,,,,,,651.1720000005153,,response,,,,99,,,,,,,Space,keypress(Space),,,,,,,,---- -- ----- -- ------ - ------- --- ----------<br>------------- ------ ------ ---- ---- ------- ----- -- ----<br>-------- ------- -- ---------- But - --- ----- ----- ----<br>---- --- --- ----- --- ---- ---- ------- ----- ---- -------<br>--- --- -- ----- -- --- ---- -- --- ---- -- ------ ------<br>--- ----- -- ----,177302.32999999862,177299.0150000005,176631.176,176630.62499999796,176647.843,177314.523,,22,But
screen,html.Screen,2_1_0_1_23,2021-04-27T08:28:40.502Z,,,,,,,,,,,,,,,,,53,,,,,,,,,,,,,,433.51699999859557,,response,,,,99,,,,,,,Space,keypress(Space),,,,,,,,---- -- ----- -- ------ - ------- --- ----------<br>------------- ------ ------ ---- ---- ------- ----- -- ----<br>-------- ------- -- ---------- --- a --- ----- ----- ----<br>---- --- --- ----- --- ---- ---- ------- ----- ---- -------<br>--- --- -- ----- -- --- ---- -- --- ---- -- ------ ------<br>--- ----- -- ----,177751.58499999816,177748.03999999858,177297.856,177302.70999999993,177314.523,177764.532,,23,a
screen,html.Screen,2_1_0_1_24,2021-04-27T08:28:41.202Z,,,,,,,,,,,,,,,,,53,,,,,,,,,,,,,,686.0079999979935,,response,,,,99,,,,,,,Space,keypress(Space),,,,,,,,---- -- ----- -- ------ - ------- --- ----------<br>------------- ------ ------ ---- ---- ------- ----- -- ----<br>-------- ------- -- ---------- --- - new ----- ----- ----<br>---- --- --- ----- --- ---- ---- ------- ----- ---- -------<br>--- --- -- ----- -- --- ---- -- --- ---- -- ------ ------<br>--- ----- -- ----,178452.28999999745,178450.539999998,177747.865,177751.8749999981,177764.532,178464.546,,24,new
screen,html.Screen,2_1_0_1_25,2021-04-27T08:28:41.744Z,,,,,,,,,,,,,,,,,53,,,,,,,,,,,,,,526.3489999989979,,response,,,,99,,,,,,,Space,keypress(Space),,,,,,,,---- -- ----- -- ------ - ------- --- ----------<br>------------- ------ ------ ---- ---- ------- ----- -- ----<br>-------- ------- -- ---------- --- - --- study ----- ----<br>---- --- --- ----- --- ---- ---- ------- ----- ---- -------<br>--- --- -- ----- -- --- ---- -- --- ---- -- ------ ------<br>--- ----- -- ----,178994.3349999994,178990.894999999,178447.879,178452.49999999942,178464.546,178997.89,,25,study
screen,html.Screen,2_1_0_1_26,2021-04-27T08:28:42.228Z,,,,,,,,,,,,,,,,,53,,,,,,,,,,,,,,476.2350000006263,,response,,,,99,,,,,,,Space,keypress(Space),,,,,,,,---- -- ----- -- ------ - ------- --- ----------<br>------------- ------ ------ ---- ---- ------- ----- -- ----<br>-------- ------- -- ---------- --- - --- ----- finds ----<br>---- --- --- ----- --- ---- ---- ------- ----- ---- -------<br>--- --- -- ----- -- --- ---- -- --- ---- -- ------ ------<br>--- ----- -- ----,179477.79000000082,179474.12500000064,178981.223,178994.70499999734,178997.89,179481.233,,26,finds
screen,html.Screen,2_1_0_1_27,2021-04-27T08:28:42.659Z,,,,,,,,,,,,,,,,,53,,,,,,,,,,,,,,423.79699999807053,,response,,,,99,,,,,,,Space,keypress(Space),,,,,,,,---- -- ----- -- ------ - ------- --- ----------<br>------------- ------ ------ ---- ---- ------- ----- -- ----<br>-------- ------- -- ---------- --- - --- ----- ----- that<br>---- --- --- ----- --- ---- ---- ------- ----- ---- -------<br>--- --- -- ----- -- --- ---- -- --- ---- -- ------ ------<br>--- ----- -- ----,179908.62500000003,179905.02999999808,179464.566,179478.12499999782,179481.233,179914.575,,27,that
screen,html.Screen,2_1_0_1_28,2021-04-27T08:28:43.343Z,,,,,,,,,,,,,,,,,53,,,,,,,,,,,,,,674.5199999993492,,response,,,,99,,,,,,,Space,keypress(Space),,,,,,,,---- -- ----- -- ------ - ------- --- ----------<br>------------- ------ ------ ---- ---- ------- ----- -- ----<br>-------- ------- -- ---------- --- - --- ----- ----- ----<br>it's --- --- ----- --- ---- ---- ------- ----- ---- -------<br>--- --- -- ----- -- --- ---- -- --- ---- -- ------ ------<br>--- ----- -- ----,180592.6249999975,180589.09499999936,179897.908,179908.91499999998,179914.575,180597.922,,28,it's
screen,html.Screen,2_1_0_1_29,2021-04-27T08:28:43.930Z,,,,,,,,,,,,,,,,,53,,,,,,,,,,,,,,578.2879999978177,,response,,,,99,,,,,,,Space,keypress(Space),,,,,,,,---- -- ----- -- ------ - ------- --- ----------<br>------------- ------ ------ ---- ---- ------- ----- -- ----<br>-------- ------- -- ---------- --- - --- ----- ----- ----<br>---- not --- ----- --- ---- ---- ------- ----- ---- -------<br>--- --- -- ----- -- --- ---- -- --- ---- -- ------ ------<br>--- ----- -- ----,181179.70499999865,181176.2099999978,180581.255,180592.91499999745,180597.922,181181.399,,29,not
screen,html.Screen,2_1_0_1_30,2021-04-27T08:28:44.374Z,,,,,,,,,,,,,,,,,53,,,,,,,,,,,,,,440.59099999963655,,response,,,,99,,,,,,,Space,keypress(Space),,,,,,,,---- -- ----- -- ------ - ------- --- ----------<br>------------- ------ ------ ---- ---- ------- ----- -- ----<br>-------- ------- -- ---------- --- - --- ----- ----- ----<br>---- --- how ----- --- ---- ---- ------- ----- ---- -------<br>--- --- -- ----- -- --- ---- -- --- ---- -- ------ ------<br>--- ----- -- ----,181624.49999999808,181621.98999999964,181164.732,181180.08499999996,181181.399,181631.408,,30,how
screen,html.Screen,2_1_0_1_31,2021-04-27T08:28:44.884Z,,,,,,,,,,,,,,,,,53,,,,,,,,,,,,,,499.4820000003674,,response,,,,99,,,,,,,Space,keypress(Space),,,,,,,,---- -- ----- -- ------ - ------- --- ----------<br>------------- ------ ------ ---- ---- ------- ----- -- ----<br>-------- ------- -- ---------- --- - --- ----- ----- ----<br>---- --- --- close --- ---- ---- ------- ----- ---- -------<br>--- --- -- ----- -- --- ---- -- --- ---- -- ------ ------<br>--- ----- -- ----,182134.29499999984,182130.89000000036,181614.741,181624.71000000005,181631.408,182148.085,,31,close
screen,html.Screen,2_1_0_1_32,2021-04-27T08:28:45.246Z,,,,,,,,,,,,,,,,,53,,,,,,,,,,,,,,344.96999999901163,,response,,,,99,,,,,,,Space,keypress(Space),,,,,,,,---- -- ----- -- ------ - ------- --- ----------<br>------------- ------ ------ ---- ---- ------- ----- -- ----<br>-------- ------- -- ---------- --- - --- ----- ----- ----<br>---- --- --- ----- you ---- ---- ------- ----- ---- -------<br>--- --- -- ----- -- --- ---- -- --- ---- -- ------ ------<br>--- ----- -- ----,182496.49999999747,182493.054999999,182131.418,182134.62499999878,182148.085,182514.759,,32,you
screen,html.Screen,2_1_0_1_33,2021-04-27T08:28:45.966Z,,,,,,,,,,,,,,,,,53,,,,,,,,,,,,,,697.1859999991138,,response,,,,99,,,,,,,Space,keypress(Space),,,,,,,,---- -- ----- -- ------ - ------- --- ----------<br>------------- ------ ------ ---- ---- ------- ----- -- ----<br>-------- ------- -- ---------- --- - --- ----- ----- ----<br>---- --- --- ----- --- feel ---- ------- ----- ---- -------<br>--- --- -- ----- -- --- ---- -- --- ---- -- ------ ------<br>--- ----- -- ----,183216.41499999896,183211.9449999991,182498.092,182498.66499999916,182514.759,183231.44,,33,feel
screen,html.Screen,2_1_0_1_34,2021-04-27T08:28:46.613Z,,,,,,,,,,,,,,,,,53,,,,,,,,,,,,,,628.3350000008068,,response,,,,99,,,,,,,Space,keypress(Space),,,,,,,,---- -- ----- -- ------ - ------- --- ----------<br>------------- ------ ------ ---- ---- ------- ----- -- ----<br>-------- ------- -- ---------- --- - --- ----- ----- ----<br>---- --- --- ----- --- ---- that ------- ----- ---- -------<br>--- --- -- ----- -- --- ---- -- --- ---- -- ------ ------<br>--- ----- -- ----,183862.58499999894,183859.7750000008,183214.773,183216.7049999989,183231.44,183864.786,,34,that
screen,html.Screen,2_1_0_1_35,2021-04-27T08:28:47.238Z,,,,,,,,,,,,,,,,,53,,,,,,,,,,,,,,619.3989999975311,,response,,,,99,,,,,,,Space,keypress(Space),,,,,,,,---- -- ----- -- ------ - ------- --- ----------<br>------------- ------ ------ ---- ---- ------- ----- -- ----<br>-------- ------- -- ---------- --- - --- ----- ----- ----<br>---- --- --- ----- --- ---- ---- matters ----- ---- -------<br>--- --- -- ----- -- --- ---- -- --- ---- -- ------ ------<br>--- ----- -- ----,184487.75000000023,184484.18499999752,183848.119,183862.91499999788,183864.786,184498.132,,35,matters
screen,html.Screen,2_1_0_1_36,2021-04-27T08:28:47.983Z,,,,,,,,,,,,,,,,,53,,,,,,,,,,,,,,731.8829999973532,,response,,,,99,,,,,,,Space,keypress(Space),,,,,,,,"---- -- ----- -- ------ - ------- --- ----------<br>------------- ------ ------ ---- ---- ------- ----- -- ----<br>-------- ------- -- ---------- --- - --- ----- ----- ----<br>---- --- --- ----- --- ---- ---- ------- most, ---- -------<br>--- --- -- ----- -- --- ---- -- --- ---- -- ------ ------<br>--- ----- -- ----",185233.49999999846,185230.01499999737,184481.465,184489.37499999738,184498.132,185248.147,,36,"most,"
screen,html.Screen,2_1_0_1_37,2021-04-27T08:28:48.560Z,,,,,,,,,,,,,,,,,53,,,,,,,,,,,,,,559.0729999987816,,response,,,,99,,,,,,,Space,keypress(Space),,,,,,,,---- -- ----- -- ------ - ------- --- ----------<br>------------- ------ ------ ---- ---- ------- ----- -- ----<br>-------- ------- -- ---------- --- - --- ----- ----- ----<br>---- --- --- ----- --- ---- ---- ------- ----- it's -------<br>--- --- -- ----- -- --- ---- -- --- ---- -- ------ ------<br>--- ----- -- ----,185810.4600000006,185807.21999999878,185231.48,185233.9150000007,185248.147,185814.825,,37,it's
screen,html.Screen,2_1_0_1_38,2021-04-27T08:28:49.007Z,,,,,,,,,,,,,,,,,53,,,,,,,,,,,,,,439.01499999756925,,response,,,,99,,,,,,,Space,keypress(Space),,,,,,,,---- -- ----- -- ------ - ------- --- ----------<br>------------- ------ ------ ---- ---- ------- ----- -- ----<br>-------- ------- -- ---------- --- - --- ----- ----- ----<br>---- --- --- ----- --- ---- ---- ------- ----- ---- whether<br>--- --- -- ----- -- --- ---- -- --- ---- -- ------ ------<br>--- ----- -- ----,186257.24999999875,186253.83999999758,185798.158,185810.75000000055,185814.825,186264.834,,38,whether
screen,html.Screen,2_1_0_1_39,2021-04-27T08:28:49.494Z,,,,,,,,,,,,,,,,,53,,,,,,,,,,,,,,476.31099999995786,,response,,,,99,,,,,,,Space,keypress(Space),,,,,,,,---- -- ----- -- ------ - ------- --- ----------<br>------------- ------ ------ ---- ---- ------- ----- -- ----<br>-------- ------- -- ---------- --- - --- ----- ----- ----<br>---- --- --- ----- --- ---- ---- ------- ----- ---- -------<br>you --- -- ----- -- --- ---- -- --- ---- -- ------ ------<br>--- ----- -- ----,186744.5399999997,186741.14499999996,186248.167,186257.4999999997,186264.834,186748.177,,39,you
screen,html.Screen,2_1_0_1_40,2021-04-27T08:28:50.073Z,,,,,,,,,,,,,,,,,53,,,,,,,,,,,,,,571.8480000009004,,response,,,,99,,,,,,,Space,keypress(Space),,,,,,,,---- -- ----- -- ------ - ------- --- ----------<br>------------- ------ ------ ---- ---- ------- ----- -- ----<br>-------- ------- -- ---------- --- - --- ----- ----- ----<br>---- --- --- ----- --- ---- ---- ------- ----- ---- -------<br>--- are -- ----- -- --- ---- -- --- ---- -- ------ ------<br>--- ----- -- ----,187323.4999999986,187320.0250000009,186731.51,186744.9149999993,186748.177,187331.522,,40,are
screen,html.Screen,2_1_0_1_41,2021-04-27T08:28:50.597Z,,,,,,,,,,,,,,,,,53,,,,,,,,,,,,,,511.76299999901676,,response,,,,99,,,,,,,Space,keypress(Space),,,,,,,,---- -- ----- -- ------ - ------- --- ----------<br>------------- ------ ------ ---- ---- ------- ----- -- ----<br>-------- ------- -- ---------- --- - --- ----- ----- ----<br>---- --- --- ----- --- ---- ---- ------- ----- ---- -------<br>--- --- as ----- -- --- ---- -- --- ---- -- ------ ------<br>--- ----- -- ----,187846.7500000006,187843.284999999,187314.855,187323.83499999924,187331.522,187848.199,,41,as
screen,html.Screen,2_1_0_1_42,2021-04-27T08:28:51.081Z,,,,,,,,,,,,,,,,,53,,,,,,,,,,,,,,479.985999998491,,response,,,,99,,,,,,,Space,keypress(Space),,,,,,,,---- -- ----- -- ------ - ------- --- ----------<br>------------- ------ ------ ---- ---- ------- ----- -- ----<br>-------- ------- -- ---------- --- - --- ----- ----- ----<br>---- --- --- ----- --- ---- ---- ------- ----- ---- -------<br>--- --- -- close -- --- ---- -- --- ---- -- ------ ------<br>--- ----- -- ----,188331.53999999922,188328.18499999848,187831.532,187847.16999999728,187848.199,188348.209,,42,close
screen,html.Screen,2_1_0_1_43,2021-04-27T08:28:51.514Z,,,,,,,,,,,,,,,,,53,,,,,,,,,,,,,,412.88599999801954,,response,,,,99,,,,,,,Space,keypress(Space),,,,,,,,---- -- ----- -- ------ - ------- --- ----------<br>------------- ------ ------ ---- ---- ------- ----- -- ----<br>-------- ------- -- ---------- --- - --- ----- ----- ----<br>---- --- --- ----- --- ---- ---- ------- ----- ---- -------<br>--- --- -- ----- as --- ---- -- --- ---- -- ------ ------<br>--- ----- -- ----,188764.37499999884,188761.09499999802,188331.542,188331.83500000086,188348.209,188781.551,,43,as
screen,html.Screen,2_1_0_1_44,2021-04-27T08:28:51.905Z,,,,,,,,,,,,,,,,,53,,,,,,,,,,,,,,370.543999997637,,response,,,,99,,,,,,,Space,keypress(Space),,,,,,,,---- -- ----- -- ------ - ------- --- ----------<br>------------- ------ ------ ---- ---- ------- ----- -- ----<br>-------- ------- -- ---------- --- - --- ----- ----- ----<br>---- --- --- ----- --- ---- ---- ------- ----- ---- -------<br>--- --- -- ----- -- you ---- -- --- ---- -- ------ ------<br>--- ----- -- ----,189155.53999999975,189152.09499999764,188764.884,188764.5799999991,188781.551,189164.892,,44,you
screen,html.Screen,2_1_0_1_45,2021-04-27T08:28:52.327Z,,,,,,,,,,,,,,,,,53,,,,,,,,,,,,,,409.18799999851035,,response,,,,99,,,,,,,Space,keypress(Space),,,,,,,,---- -- ----- -- ------ - ------- --- ----------<br>------------- ------ ------ ---- ---- ------- ----- -- ----<br>-------- ------- -- ---------- --- - --- ----- ----- ----<br>---- --- --- ----- --- ---- ---- ------- ----- ---- -------<br>--- --- -- ----- -- --- want -- --- ---- -- ------ ------<br>--- ----- -- ----,189577.5849999991,189574.0799999985,189148.225,189155.87500000038,189164.892,189581.567,,45,want
screen,html.Screen,2_1_0_1_46,2021-04-27T08:28:52.682Z,,,,,,,,,,,,,,,,,53,,,,,,,,,,,,,,347.5779999982333,,response,,,,99,,,,,,,Space,keypress(Space),,,,,,,,---- -- ----- -- ------ - ------- --- ----------<br>------------- ------ ------ ---- ---- ------- ----- -- ----<br>-------- ------- -- ---------- --- - --- ----- ----- ----<br>---- --- --- ----- --- ---- ---- ------- ----- ---- -------<br>--- --- -- ----- -- --- ---- to --- ---- -- ------ ------<br>--- ----- -- ----,189932.4149999993,189929.14499999824,189564.9,189577.87499999904,189581.567,189948.241,,46,to
screen,html.Screen,2_1_0_1_47,2021-04-27T08:28:53.030Z,,,,,,,,,,,,,,,,,53,,,,,,,,,,,,,,328.8039999988978,,response,,,,99,,,,,,,Space,keypress(Space),,,,,,,,"---- -- ----- -- ------ - ------- --- ----------<br>------------- ------ ------ ---- ---- ------- ----- -- ----<br>-------- ------- -- ---------- --- - --- ----- ----- ----<br>---- --- --- ----- --- ---- ---- ------- ----- ---- -------<br>--- --- -- ----- -- --- ---- -- be, ---- -- ------ ------<br>--- ----- -- ----",190280.45500000007,190277.0449999989,189931.574,189932.62499999764,189948.241,190281.581,,47,"be,"
screen,html.Screen,2_1_0_1_48,2021-04-27T08:28:53.509Z,,,,,,,,,,,,,,,,,53,,,,,,,,,,,,,,474.6689999985392,,response,,,,99,,,,,,,Space,keypress(Space),,,,,,,,---- -- ----- -- ------ - ------- --- ----------<br>------------- ------ ------ ---- ---- ------- ----- -- ----<br>-------- ------- -- ---------- --- - --- ----- ----- ----<br>---- --- --- ----- --- ---- ---- ------- ----- ---- -------<br>--- --- -- ----- -- --- ---- -- --- even -- ------ ------<br>--- ----- -- ----,190759.50000000012,190756.24999999854,190264.914,190280.6700000001,190281.581,190764.924,,48,even
screen,html.Screen,2_1_0_1_49,2021-04-27T08:28:53.879Z,,,,,,,,,,,,,,,,,53,,,,,,,,,,,,,,360.4459999979299,,response,,,,99,,,,,,,Space,keypress(Space),,,,,,,,---- -- ----- -- ------ - ------- --- ----------<br>------------- ------ ------ ---- ---- ------- ----- -- ----<br>-------- ------- -- ---------- --- - --- ----- ----- ----<br>---- --- --- ----- --- ---- ---- ------- ----- ---- -------<br>--- --- -- ----- -- --- ---- -- --- ---- if ------ ------<br>--- ----- -- ----,191128.78999999884,191125.36999999793,190748.257,190759.87499999974,190764.924,191131.766,,49,if
screen,html.Screen,2_1_0_1_50,2021-04-27T08:28:54.214Z,,,,,,,,,,,,,,,,,53,,,,,,,,,,,,,,329.608999998949,,response,,,,99,,,,,,,Space,keypress(Space),,,,,,,,---- -- ----- -- ------ - ------- --- ----------<br>------------- ------ ------ ---- ---- ------- ----- -- ----<br>-------- ------- -- ---------- --- - --- ----- ----- ----<br>---- --- --- ----- --- ---- ---- ------- ----- ---- -------<br>--- --- -- ----- -- --- ---- -- --- ---- -- that's ------<br>--- ----- -- ----,191464.57999999984,191461.37499999895,191115.099,191129.16499999847,191131.766,191481.773,,50,that's
screen,html.Screen,2_1_0_1_51,2021-04-27T08:28:54.606Z,,,,,,,,,,,,,,,,,53,,,,,,,,,,,,,,371.266999998159,,response,,,,99,,,,,,,Space,keypress(Space),,,,,,,,---- -- ----- -- ------ - ------- --- ----------<br>------------- ------ ------ ---- ---- ------- ----- -- ----<br>-------- ------- -- ---------- --- - --- ----- ----- ----<br>---- --- --- ----- --- ---- ---- ------- ----- ---- -------<br>--- --- -- ----- -- --- ---- -- --- ---- -- ------ really<br>--- ----- -- ----,191856.20500000005,191853.03999999815,191465.106,191464.95499999946,191481.773,191865.114,,51,really
screen,html.Screen,2_1_0_1_52,2021-04-27T08:28:54.947Z,,,,,,,,,,,,,,,,,53,,,,,,,,,,,,,,328.14099999831524,,response,,,,99,,,,,,,Space,keypress(Space),,,,,,,,---- -- ----- -- ------ - ------- --- ----------<br>------------- ------ ------ ---- ---- ------- ----- -- ----<br>-------- ------- -- ---------- --- - --- ----- ----- ----<br>---- --- --- ----- --- ---- ---- ------- ----- ---- -------<br>--- --- -- ----- -- --- ---- -- --- ---- -- ------ ------<br>not ----- -- ----,192196.9599999975,192193.25499999832,191848.447,191856.49999999805,191865.114,192198.454,,52,not
screen,html.Screen,2_1_0_1_53,2021-04-27T08:28:55.518Z,,,,,,,,,,,,,,,,,53,,,,,,,,,,,,,,565.6709999978775,,response,,,,99,,,,,,,Space,keypress(Space),,,,,,,,---- -- ----- -- ------ - ------- --- ----------<br>------------- ------ ------ ---- ---- ------- ----- -- ----<br>-------- ------- -- ---------- --- - --- ----- ----- ----<br>---- --- --- ----- --- ---- ---- ------- ----- ---- -------<br>--- --- -- ----- -- --- ---- -- --- ---- -- ------ ------<br>--- close -- ----,192767.74999999907,192764.12499999788,192181.787,192197.24999999744,192198.454,192781.799,,53,close
screen,html.Screen,2_1_0_1_54,2021-04-27T08:28:55.834Z,,,,,,,,,,,,,,,,,53,,,,,,,,,,,,,,298.6260000001057,,response,,,,99,,,,,,,Space,keypress(Space),,,,,,,,---- -- ----- -- ------ - ------- --- ----------<br>------------- ------ ------ ---- ---- ------- ----- -- ----<br>-------- ------- -- ---------- --- - --- ----- ----- ----<br>---- --- --- ----- --- ---- ---- ------- ----- ---- -------<br>--- --- -- ----- -- --- ---- -- --- ---- -- ------ ------<br>--- ----- at ----,193083.99999999892,193080.4250000001,192765.132,192768.0849999997,192781.799,193098.472,,54,at
screen,html.Screen,2_1_0_1_55,2021-04-27T08:28:56.333Z,,,,,,,,,,,,,,,,,53,,,,,,,,,,,,,,479.82799999738927,,response,,,,99,,,,,,,Space,keypress(Space),,,,,,,,---- -- ----- -- ------ - ------- --- ----------<br>------------- ------ ------ ---- ---- ------- ----- -- ----<br>-------- ------- -- ---------- --- - --- ----- ----- ----<br>---- --- --- ----- --- ---- ---- ------- ----- ---- -------<br>--- --- -- ----- -- --- ---- -- --- ---- -- ------ ------<br>--- ----- -- all.,193582.87500000006,193578.2999999974,193081.805,193084.37499999854,193098.472,193598.482,,55,all.
Item 99,flow.Loop,2_1_0_1,2021-04-27T08:28:56.333Z,,,,,,,,,,,,,,,,,,,,,,,,,,,,,,,32897.86299999739,,completion,,,,,F,,,,,,,,,,,silence,,,,,193583.37499999834,193578.2999999974,160663.77,160666.33499999807,160680.437,193598.482,,,
Question 1,html.Screen,2_1_0_2,2021-04-27T08:29:00.020Z,,,,,,,,,,,,,,,,,,,,,,,,,,,,true,FALSE,,3668.232999997941,,response,,,,99,F,,,,,,FALSE,click #choice-2,,,,silence,,,,,197269.78999999847,197266.71499999793,193581.815,193583.57999999862,193598.482,197281.889,,,
Question 2,html.Screen,2_1_0_3,2021-04-27T08:29:04.801Z,,,,,,,,,,,,,,,,,,,,,,,,,,,,true,TRUE,,4766.840999998618,,response,,,,99,F,,,,,,TRUE,click #choice-1,,,,silence,,,,,202051.58499999743,202048.7299999986,197265.222,197270.00000000044,197281.889,202065.556,,,
Item 99,flow.Sequence,2_1_0,2021-04-27T08:29:04.802Z,,,,,,,,,,,,,,,,,,,,,,,,,,,,,,,51368.75399999862,,completion,,,,,,,,,,,,,,,,,,,,,202051.87499999738,202048.7299999986,150663.309,150675.16999999862,150679.976,202065.556,,,
Holding screen,html.Screen,2_1_1_0,2021-04-27T08:29:14.801Z,,,,,,,,,,,,,,,,,,,,,,,,,,,,,,,10000.199999999983,,timeout,,,,,,,,,,,,,,,,,,,,,212051.16500000076,212049.089,202048.889,202052.03999999867,202065.556,212065.756,,,
screen,html.Screen,2_1_1_1_0,2021-04-27T08:29:15.706Z,,,,,,,,,,,,,,,,,54,,,,,,,,,,,,,,885.9639999973006,,response,,,,100,,,,,,,Space,keypress(Space),,,,,,,,At --- ---- --- ------ ----- ------- ---- -- --- ------- --<br>------- ---------- ------ -- ----- -- ----- -- ---- ------<br>--- ----- --- --- ------ -------- ----- --- ------ ----- --<br>----- ----- ---------- --- --- ------ ------ ---- -- ------<br>------- --- ------ ----- --- ---- ------- -- ---- --- --<br>------- ------,212956.50000000023,212951.7199999973,212049.089,212051.57999999938,212065.756,212965.774,,0,At
screen,html.Screen,2_1_1_1_1,2021-04-27T08:29:16.123Z,,,,,,,,,,,,,,,,,54,,,,,,,,,,,,,,403.71599999730824,,response,,,,100,,,,,,,Space,keypress(Space),,,,,,,,-- the ---- --- ------ ----- ------- ---- -- --- ------- --<br>------- ---------- ------ -- ----- -- ----- -- ---- ------<br>--- ----- --- --- ------ -------- ----- --- ------ ----- --<br>----- ----- ---------- --- --- ------ ------ ---- -- ------<br>------- --- ------ ----- --- ---- ------- -- ---- --- --<br>------- ------,213372.74999999863,213369.4899999973,212949.107,212956.83500000086,212965.774,213382.567,,1,the
screen,html.Screen,2_1_1_1_2,2021-04-27T08:29:16.545Z,,,,,,,,,,,,,,,,,54,,,,,,,,,,,,,,409.70299999808776,,response,,,,100,,,,,,,Space,keypress(Space),,,,,,,,-- --- time --- ------ ----- ------- ---- -- --- ------- --<br>------- ---------- ------ -- ----- -- ----- -- ---- ------<br>--- ----- --- --- ------ -------- ----- --- ------ ----- --<br>----- ----- ---------- --- --- ------ ------ ---- -- ------<br>------- --- ------ ----- --- ---- ------- -- ---- --- --<br>------- ------,213795.53999999916,213792.2699999981,213365.9,213373.08499999926,213382.567,213799.242,,2,time
screen,html.Screen,2_1_1_1_3,2021-04-27T08:29:16.916Z,,,,,,,,,,,,,,,,,54,,,,,,,,,,,,,,363.25799999854644,,response,,,,100,,,,,,,Space,keypress(Space),,,,,,,,-- --- ---- the ------ ----- ------- ---- -- --- ------- --<br>------- ---------- ------ -- ----- -- ----- -- ---- ------<br>--- ----- --- --- ------ -------- ----- --- ------ ----- --<br>----- ----- ---------- --- --- ------ ------ ---- -- ------<br>------- --- ------ ----- --- ---- ------- -- ---- --- --<br>------- ------,214165.7899999991,214162.49999999854,213782.575,213795.8350000008,213799.242,214182.583,,3,the
screen,html.Screen,2_1_1_1_4,2021-04-27T08:29:17.334Z,,,,,,,,,,,,,,,,,54,,,,,,,,,,,,,,397.8919999988284,,response,,,,100,,,,,,,Space,keypress(Space),,,,,,,,-- --- ---- --- French ----- ------- ---- -- --- ------- --<br>------- ---------- ------ -- ----- -- ----- -- ---- ------<br>--- ----- --- --- ------ -------- ----- --- ------ ----- --<br>----- ----- ---------- --- --- ------ ------ ---- -- ------<br>------- --- ------ ----- --- ---- ------- -- ---- --- --<br>------- ------,214583.83499999763,214580.47499999884,214165.916,214165.99999999744,214182.583,214599.258,,4,French
screen,html.Screen,2_1_1_1_5,2021-04-27T08:29:17.770Z,,,,,,,,,,,,,,,,,54,,,,,,,,,,,,,,418.26699999929406,,response,,,,100,,,,,,,Space,keypress(Space),,,,,,,,-- --- ---- --- ------ crown ------- ---- -- --- ------- --<br>------- ---------- ------ -- ----- -- ----- -- ---- ------<br>--- ----- --- --- ------ -------- ----- --- ------ ----- --<br>----- ----- ---------- --- --- ------ ------ ---- -- ------<br>------- --- ------ ----- --- ---- ------- -- ---- --- --<br>------- ------,215020.33499999743,215017.5249999993,214582.591,214584.12499999758,214599.258,215032.6,,5,crown
screen,html.Screen,2_1_1_1_6,2021-04-27T08:29:18.212Z,,,,,,,,,,,,,,,,,54,,,,,,,,,,,,,,426.6850000008126,,response,,,,100,,,,,,,Space,keypress(Space),,,,,,,,-- --- ---- --- ------ ----- secured ---- -- --- ------- --<br>------- ---------- ------ -- ----- -- ----- -- ---- ------<br>--- ----- --- --- ------ -------- ----- --- ------ ----- --<br>----- ----- ---------- --- --- ------ ------ ---- -- ------<br>------- --- ------ ----- --- ---- ------- -- ---- --- --<br>------- ------,215462.49999999782,215459.28500000082,215015.933,215020.5449999994,215032.6,215465.942,,6,secured
screen,html.Screen,2_1_1_1_7,2021-04-27T08:29:18.884Z,,,,,,,,,,,,,,,,,54,,,,,,,,,,,,,,664.6529999987106,,response,,,,100,,,,,,,Space,keypress(Space),,,,,,,,-- --- ---- --- ------ ----- ------- much -- --- ------- --<br>------- ---------- ------ -- ----- -- ----- -- ---- ------<br>--- ----- --- --- ------ -------- ----- --- ------ ----- --<br>----- ----- ---------- --- --- ------ ------ ---- -- ------<br>------- --- ------ ----- --- ---- ------- -- ---- --- --<br>------- ------,216133.9549999975,216130.59499999872,215449.275,215462.8300000004,215465.942,216149.289,,7,much
screen,html.Screen,2_1_1_1_8,2021-04-27T08:29:19.375Z,,,,,,,,,,,,,,,,,54,,,,,,,,,,,,,,473.0959999987681,,response,,,,100,,,,,,,Space,keypress(Space),,,,,,,,-- --- ---- --- ------ ----- ------- ---- of --- ------- --<br>------- ---------- ------ -- ----- -- ----- -- ---- ------<br>--- ----- --- --- ------ -------- ----- --- ------ ----- --<br>----- ----- ---------- --- --- ------ ------ ---- -- ------<br>------- --- ------ ----- --- ---- ------- -- ---- --- --<br>------- ------,216625.49999999828,216622.38499999876,216132.622,216134.21000000017,216149.289,216632.632,,8,of
screen,html.Screen,2_1_1_1_9,2021-04-27T08:29:19.881Z,,,,,,,,,,,,,,,,,54,,,,,,,,,,,,,,495.2079999973648,,response,,,,100,,,,,,,Space,keypress(Space),,,,,,,,-- --- ---- --- ------ ----- ------- ---- -- its ------- --<br>------- ---------- ------ -- ----- -- ----- -- ---- ------<br>--- ----- --- --- ------ -------- ----- --- ------ ----- --<br>----- ----- ---------- --- --- ------ ------ ---- -- ------<br>------- --- ------ ----- --- ---- ------- -- ---- --- --<br>------- ------,217131.28999999753,217127.83999999738,216615.965,216625.78999999823,216632.632,217132.642,,9,its
screen,html.Screen,2_1_1_1_10,2021-04-27T08:29:20.395Z,,,,,,,,,,,,,,,,,54,,,,,,,,,,,,,,509.0729999979376,,response,,,,100,,,,,,,Space,keypress(Space),,,,,,,,-- --- ---- --- ------ ----- ------- ---- -- --- revenue --<br>------- ---------- ------ -- ----- -- ----- -- ---- ------<br>--- ----- --- --- ------ -------- ----- --- ------ ----- --<br>----- ----- ---------- --- --- ------ ------ ---- -- ------<br>------- --- ------ ----- --- ---- ------- -- ---- --- --<br>------- ------,217645.33499999743,217641.71499999793,217115.975,217131.5399999985,217132.642,217649.319,,10,revenue
screen,html.Screen,2_1_1_1_11,2021-04-27T08:29:21.034Z,,,,,,,,,,,,,,,,,54,,,,,,,,,,,,,,631.4509999975853,,response,,,,100,,,,,,,Space,keypress(Space),,,,,,,,-- --- ---- --- ------ ----- ------- ---- -- --- ------- by<br>------- ---------- ------ -- ----- -- ----- -- ---- ------<br>--- ----- --- --- ------ -------- ----- --- ------ ----- --<br>----- ----- ---------- --- --- ------ ------ ---- -- ------<br>------- --- ------ ----- --- ---- ------- -- ---- --- --<br>------- ------,218284.2899999996,218280.76999999757,217632.652,217645.704999999,217649.319,218299.332,,11,by
screen,html.Screen,2_1_1_1_12,2021-04-27T08:29:21.940Z,,,,,,,,,,,,,,,,,54,,,,,,,,,,,,,,887.2179999985383,,response,,,,100,,,,,,,Space,keypress(Space),,,,,,,,-- --- ---- --- ------ ----- ------- ---- -- --- ------- --<br>issuing ---------- ------ -- ----- -- ----- -- ---- ------<br>--- ----- --- --- ------ -------- ----- --- ------ ----- --<br>----- ----- ---------- --- --- ------ ------ ---- -- ------<br>------- --- ------ ----- --- ---- ------- -- ---- --- --<br>------- ------,219189.9999999987,219186.54999999853,218282.665,218284.54000000056,218299.332,219199.35,,12,issuing
screen,html.Screen,2_1_1_1_13,2021-04-27T08:29:22.418Z,,,,,,,,,,,,,,,,,54,,,,,,,,,,,,,,465.3050000004878,,response,,,,100,,,,,,,Space,keypress(Space),,,,,,,,-- --- ---- --- ------ ----- ------- ---- -- --- ------- --<br>------- government ------ -- ----- -- ----- -- ---- ------<br>--- ----- --- --- ------ -------- ----- --- ------ ----- --<br>----- ----- ---------- --- --- ------ ------ ---- -- ------<br>------- --- ------ ----- --- ---- ------- -- ---- --- --<br>------- ------,219668.16499999914,219664.6550000005,219182.683,219190.28999999864,219199.35,219682.693,,13,government
screen,html.Screen,2_1_1_1_14,2021-04-27T08:29:24.358Z,,,,,,,,,,,,,,,,,54,,,,,,,,,,,,,,1922.1219999987807,,response,,,,100,,,,,,,Space,keypress(Space),,,,,,,,-- --- ---- --- ------ ----- ------- ---- -- --- ------- --<br>------- ---------- bonds. -- ----- -- ----- -- ---- ------<br>--- ----- --- --- ------ -------- ----- --- ------ ----- --<br>----- ----- ---------- --- --- ------ ------ ---- -- ------<br>------- --- ------ ----- --- ---- ------- -- ---- --- --<br>------- ------,221608.45499999778,221604.81499999878,219666.026,219668.49999999977,219682.693,221616.065,,14,bonds.
screen,html.Screen,2_1_1_1_15,2021-04-27T08:29:24.885Z,,,,,,,,,,,,,,,,,54,,,,,,,,,,,,,,515.4150000000081,,response,,,,100,,,,,,,Space,keypress(Space),,,,,,,,-- --- ---- --- ------ ----- ------- ---- -- --- ------- --<br>------- ---------- ------ In ----- -- ----- -- ---- ------<br>--- ----- --- --- ------ -------- ----- --- ------ ----- --<br>----- ----- ---------- --- --- ------ ------ ---- -- ------<br>------- --- ------ ----- --- ---- ------- -- ---- --- --<br>------- ------,222134.79000000007,222131.48,221599.398,221608.7950000001,221616.065,222149.409,,15,In
screen,html.Screen,2_1_1_1_16,2021-04-27T08:29:25.441Z,,,,,,,,,,,,,,,,,54,,,,,,,,,,,,,,538.2110000005923,,response,,,,100,,,,,,,Space,keypress(Space),,,,,,,,"-- --- ---- --- ------ ----- ------- ---- -- --- ------- --<br>------- ---------- ------ -- 1727, -- ----- -- ---- ------<br>--- ----- --- --- ------ -------- ----- --- ------ ----- --<br>----- ----- ---------- --- --- ------ ------ ---- -- ------<br>------- --- ------ ----- --- ---- ------- -- ---- --- --<br>------- ------",222691.03999999788,222687.6200000006,222132.742,222135.08000000002,222149.409,222699.42,,16,"1727,"
screen,html.Screen,2_1_1_1_17,2021-04-27T08:29:25.863Z,,,,,,,,,,,,,,,,,54,,,,,,,,,,,,,,409.44000000026426,,response,,,,100,,,,,,,Space,keypress(Space),,,,,,,,-- --- ---- --- ------ ----- ------- ---- -- --- ------- --<br>------- ---------- ------ -- ----- in ----- -- ---- ------<br>--- ----- --- --- ------ -------- ----- --- ------ ----- --<br>----- ----- ---------- --- --- ------ ------ ---- -- ------<br>------- --- ------ ----- --- ---- ------- -- ---- --- --<br>------- ------,223113.4149999998,223108.86000000028,222682.753,222691.33499999953,222699.42,223116.352,,17,in
screen,html.Screen,2_1_1_1_18,2021-04-27T08:29:26.252Z,,,,,,,,,,,,,,,,,54,,,,,,,,,,,,,,383.06299999839393,,response,,,,100,,,,,,,Space,keypress(Space),,,,,,,,-- --- ---- --- ------ ----- ------- ---- -- --- ------- --<br>------- ---------- ------ -- ----- -- order -- ---- ------<br>--- ----- --- --- ------ -------- ----- --- ------ ----- --<br>----- ----- ---------- --- --- ------ ------ ---- -- ------<br>------- --- ------ ----- --- ---- ------- -- ---- --- --<br>------- ------,223502.70499999897,223499.4149999984,223099.685,223113.78999999943,223116.352,223516.36,,18,order
screen,html.Screen,2_1_1_1_19,2021-04-27T08:29:26.571Z,,,,,,,,,,,,,,,,,54,,,,,,,,,,,,,,301.16000000052736,,response,,,,100,,,,,,,Space,keypress(Space),,,,,,,,-- --- ---- --- ------ ----- ------- ---- -- --- ------- --<br>------- ---------- ------ -- ----- -- ----- to ---- ------<br>--- ----- --- --- ------ -------- ----- --- ------ ----- --<br>----- ----- ---------- --- --- ------ ------ ---- -- ------<br>------- --- ------ ----- --- ---- ------- -- ---- --- --<br>------- ------,223820.78999999794,223817.5200000005,223499.693,223502.9149999973,223516.36,223833.033,,19,to
screen,html.Screen,2_1_1_1_20,2021-04-27T08:29:26.897Z,,,,,,,,,,,,,,,,,54,,,,,,,,,,,,,,310.68700000003446,,response,,,,100,,,,,,,Space,keypress(Space),,,,,,,,-- --- ---- --- ------ ----- ------- ---- -- --- ------- --<br>------- ---------- ------ -- ----- -- ----- -- save ------<br>--- ----- --- --- ------ -------- ----- --- ------ ----- --<br>----- ----- ---------- --- --- ------ ------ ---- -- ------<br>------- --- ------ ----- --- ---- ------- -- ---- --- --<br>------- ------,224147.24999999817,224143.72000000003,223816.366,223821.0399999989,223833.033,224149.706,,20,save
screen,html.Screen,2_1_1_1_21,2021-04-27T08:29:27.227Z,,,,,,,,,,,,,,,,,54,,,,,,,,,,,,,,324.863999998488,,response,,,,100,,,,,,,Space,keypress(Space),,,,,,,,"-- --- ---- --- ------ ----- ------- ---- -- --- ------- --<br>------- ---------- ------ -- ----- -- ----- -- ---- money,<br>--- ----- --- --- ------ -------- ----- --- ------ ----- --<br>----- ----- ---------- --- --- ------ ------ ---- -- ------<br>------- --- ------ ----- --- ---- ------- -- ---- --- --<br>------- ------",224477.41499999756,224474.5699999985,224133.039,224147.5849999988,224149.706,224483.046,,21,"money,"
screen,html.Screen,2_1_1_1_22,2021-04-27T08:29:27.611Z,,,,,,,,,,,,,,,,,54,,,,,,,,,,,,,,374.528999998176,,response,,,,100,,,,,,,Space,keypress(Space),,,,,,,,-- --- ---- --- ------ ----- ------- ---- -- --- ------- --<br>------- ---------- ------ -- ----- -- ----- -- ---- ------<br>the ----- --- --- ------ -------- ----- --- ------ ----- --<br>----- ----- ---------- --- --- ------ ------ ---- -- ------<br>------- --- ------ ----- --- ---- ------- -- ---- --- --<br>------- ------,224860.78999999881,224857.57499999818,224466.379,224477.66499999852,224483.046,224866.387,,22,the
screen,html.Screen,2_1_1_1_23,2021-04-27T08:29:27.971Z,,,,,,,,,,,,,,,,,54,,,,,,,,,,,,,,352.0679999983695,,response,,,,100,,,,,,,Space,keypress(Space),,,,,,,,-- --- ---- --- ------ ----- ------- ---- -- --- ------- --<br>------- ---------- ------ -- ----- -- ----- -- ---- ------<br>--- state --- --- ------ -------- ----- --- ------ ----- --<br>----- ----- ---------- --- --- ------ ------ ---- -- ------<br>------- --- ------ ----- --- ---- ------- -- ---- --- --<br>------- ------,225221.16499999902,225218.45499999836,224849.72,224861.07999999876,224866.387,225233.061,,23,state
screen,html.Screen,2_1_1_1_24,2021-04-27T08:29:28.376Z,,,,,,,,,,,,,,,,,54,,,,,,,,,,,,,,389.55899999829126,,response,,,,100,,,,,,,Space,keypress(Space),,,,,,,,-- --- ---- --- ------ ----- ------- ---- -- --- ------- --<br>------- ---------- ------ -- ----- -- ----- -- ---- ------<br>--- ----- cut --- ------ -------- ----- --- ------ ----- --<br>----- ----- ---------- --- --- ------ ------ ---- -- ------<br>------- --- ------ ----- --- ---- ------- -- ---- --- --<br>------- ------,225625.83499999892,225622.61999999828,225216.394,225221.41499999998,225233.061,225633.069,,24,cut
screen,html.Screen,2_1_1_1_25,2021-04-27T08:29:28.910Z,,,,,,,,,,,,,,,,,54,,,,,,,,,,,,,,523.6809999982943,,response,,,,100,,,,,,,Space,keypress(Space),,,,,,,,-- --- ---- --- ------ ----- ------- ---- -- --- ------- --<br>------- ---------- ------ -- ----- -- ----- -- ---- ------<br>--- ----- --- the ------ -------- ----- --- ------ ----- --<br>----- ----- ---------- --- --- ------ ------ ---- -- ------<br>------- --- ------ ----- --- ---- ------- -- ---- --- --<br>------- ------,226160.20500000013,226156.74999999828,225616.402,225626.16499999785,225633.069,226166.413,,25,the
screen,html.Screen,2_1_1_1_26,2021-04-27T08:29:29.274Z,,,,,,,,,,,,,,,,,54,,,,,,,,,,,,,,354.2320000005129,,response,,,,100,,,,,,,Space,keypress(Space),,,,,,,,-- --- ---- --- ------ ----- ------- ---- -- --- ------- --<br>------- ---------- ------ -- ----- -- ----- -- ---- ------<br>--- ----- --- --- bonds' -------- ----- --- ------ ----- --<br>----- ----- ---------- --- --- ------ ------ ---- -- ------<br>------- --- ------ ----- --- ---- ------- -- ---- --- --<br>------- ------,226524.29499999926,226520.6450000005,226149.746,226160.45499999746,226166.413,226533.087,,26,bonds'
screen,html.Screen,2_1_1_1_27,2021-04-27T08:29:29.849Z,,,,,,,,,,,,,,,,,54,,,,,,,,,,,,,,562.67799999821,,response,,,,100,,,,,,,Space,keypress(Space),,,,,,,,-- --- ---- --- ------ ----- ------- ---- -- --- ------- --<br>------- ---------- ------ -- ----- -- ----- -- ---- ------<br>--- ----- --- --- ------ interest ----- --- ------ ----- --<br>----- ----- ---------- --- --- ------ ------ ---- -- ------<br>------- --- ------ ----- --- ---- ------- -- ---- --- --<br>------- ------,227099.12500000064,227095.7649999982,226516.42,226524.53999999852,226533.087,227116.432,,27,interest
screen,html.Screen,2_1_1_1_28,2021-04-27T08:29:30.868Z,,,,,,,,,,,,,,,,,54,,,,,,,,,,,,,,998.1279999981634,,response,,,,100,,,,,,,Space,keypress(Space),,,,,,,,-- --- ---- --- ------ ----- ------- ---- -- --- ------- --<br>------- ---------- ------ -- ----- -- ----- -- ---- ------<br>--- ----- --- --- ------ -------- rate. --- ------ ----- --<br>----- ----- ---------- --- --- ------ ------ ---- -- ------<br>------- --- ------ ----- --- ---- ------- -- ---- --- --<br>------- ------,228118.08499999825,228114.55999999816,227099.765,227099.4150000006,227116.432,228133.119,,28,rate.
screen,html.Screen,2_1_1_1_29,2021-04-27T08:29:31.425Z,,,,,,,,,,,,,,,,,54,,,,,,,,,,,,,,538.5609999994631,,response,,,,100,,,,,,,Space,keypress(Space),,,,,,,,-- --- ---- --- ------ ----- ------- ---- -- --- ------- --<br>------- ---------- ------ -- ----- -- ----- -- ---- ------<br>--- ----- --- --- ------ -------- ----- The ------ ----- --<br>----- ----- ---------- --- --- ------ ------ ---- -- ------<br>------- --- ------ ----- --- ---- ------- -- ---- --- --<br>------- ------,228674.99999999927,228671.67999999947,228116.452,228118.3749999982,228133.119,228683.13,,29,The
screen,html.Screen,2_1_1_1_30,2021-04-27T08:29:31.818Z,,,,,,,,,,,,,,,,,54,,,,,,,,,,,,,,381.96999999979744,,response,,,,100,,,,,,,Space,keypress(Space),,,,,,,,-- --- ---- --- ------ ----- ------- ---- -- --- ------- --<br>------- ---------- ------ -- ----- -- ----- -- ---- ------<br>--- ----- --- --- ------ -------- ----- --- market ----- --<br>----- ----- ---------- --- --- ------ ------ ---- -- ------<br>------- --- ------ ----- --- ---- ------- -- ---- --- --<br>------- ------,229068.4149999979,229065.0999999998,228666.463,228675.3749999989,228683.13,229083.138,,30,market
screen,html.Screen,2_1_1_1_31,2021-04-27T08:29:32.212Z,,,,,,,,,,,,,,,,,54,,,,,,,,,,,,,,375.6169999996491,,response,,,,100,,,,,,,Space,keypress(Space),,,,,,,,-- --- ---- --- ------ ----- ------- ---- -- --- ------- --<br>------- ---------- ------ -- ----- -- ----- -- ---- ------<br>--- ----- --- --- ------ -------- ----- --- ------ value --<br>----- ----- ---------- --- --- ------ ------ ---- -- ------<br>------- --- ------ ----- --- ---- ------- -- ---- --- --<br>------- ------,229462.1249999982,229458.75499999966,229066.471,229068.66499999887,229083.138,229466.479,,31,value
screen,html.Screen,2_1_1_1_32,2021-04-27T08:29:32.823Z,,,,,,,,,,,,,,,,,54,,,,,,,,,,,,,,603.1559999998426,,response,,,,100,,,,,,,Space,keypress(Space),,,,,,,,-- --- ---- --- ------ ----- ------- ---- -- --- ------- --<br>------- ---------- ------ -- ----- -- ----- -- ---- ------<br>--- ----- --- --- ------ -------- ----- --- ------ ----- of<br>----- ----- ---------- --- --- ------ ------ ---- -- ------<br>------- --- ------ ----- --- ---- ------- -- ---- --- --<br>------- ------,230073.20999999865,230069.63499999983,229449.812,229462.49999999782,229466.479,230083.158,,32,of
screen,html.Screen,2_1_1_1_33,2021-04-27T08:29:33.356Z,,,,,,,,,,,,,,,,,54,,,,,,,,,,,,,,519.5169999982754,,response,,,,100,,,,,,,Space,keypress(Space),,,,,,,,-- --- ---- --- ------ ----- ------- ---- -- --- ------- --<br>------- ---------- ------ -- ----- -- ----- -- ---- ------<br>--- ----- --- --- ------ -------- ----- --- ------ ----- --<br>these ----- ---------- --- --- ------ ------ ---- -- ------<br>------- --- ------ ----- --- ---- ------- -- ---- --- --<br>------- ------,230605.99999999977,230602.67499999827,230066.491,230073.45499999792,230083.158,230616.502,,33,these
screen,html.Screen,2_1_1_1_34,2021-04-27T08:29:33.756Z,,,,,,,,,,,,,,,,,54,,,,,,,,,,,,,,386.12299999734387,,response,,,,100,,,,,,,Space,keypress(Space),,,,,,,,-- --- ---- --- ------ ----- ------- ---- -- --- ------- --<br>------- ---------- ------ -- ----- -- ----- -- ---- ------<br>--- ----- --- --- ------ -------- ----- --- ------ ----- --<br>----- bonds ---------- --- --- ------ ------ ---- -- ------<br>------- --- ------ ----- --- ---- ------- -- ---- --- --<br>------- ------,231005.83499999993,231002.62499999735,230599.835,230606.28999999972,230616.502,231016.51,,34,bonds
screen,html.Screen,2_1_1_1_35,2021-04-27T08:29:34.288Z,,,,,,,,,,,,,,,,,54,,,,,,,,,,,,,,518.3549999977986,,response,,,,100,,,,,,,Space,keypress(Space),,,,,,,,"-- --- ---- --- ------ ----- ------- ---- -- --- ------- --<br>------- ---------- ------ -- ----- -- ----- -- ---- ------<br>--- ----- --- --- ------ -------- ----- --- ------ ----- --<br>----- ----- plummeted, --- --- ------ ------ ---- -- ------<br>------- --- ------ ----- --- ---- ------- -- ---- --- --<br>------- ------",231538.2499999978,231534.8649999978,230999.843,231006.0799999992,231016.51,231549.854,,35,"plummeted,"
screen,html.Screen,2_1_1_1_36,2021-04-27T08:29:35.164Z,,,,,,,,,,,,,,,,,54,,,,,,,,,,,,,,860.95599999759,,response,,,,100,,,,,,,Space,keypress(Space),,,,,,,,-- --- ---- --- ------ ----- ------- ---- -- --- ------- --<br>------- ---------- ------ -- ----- -- ----- -- ---- ------<br>--- ----- --- --- ------ -------- ----- --- ------ ----- --<br>----- ----- ---------- and --- ------ ------ ---- -- ------<br>------- --- ------ ----- --- ---- ------- -- ---- --- --<br>------- ------,232414.249999998,232410.80999999758,231533.187,231538.53999999774,231549.854,232416.538,,36,and
screen,html.Screen,2_1_1_1_37,2021-04-27T08:29:35.617Z,,,,,,,,,,,,,,,,,54,,,,,,,,,,,,,,447.10699999763165,,response,,,,100,,,,,,,Space,keypress(Space),,,,,,,,-- --- ---- --- ------ ----- ------- ---- -- --- ------- --<br>------- ---------- ------ -- ----- -- ----- -- ---- ------<br>--- ----- --- --- ------ -------- ----- --- ------ ----- --<br>----- ----- ---------- --- the ------ ------ ---- -- ------<br>------- --- ------ ----- --- ---- ------- -- ---- --- --<br>------- ------,232866.82999999903,232863.64499999763,232399.871,232414.54499999963,232416.538,232883.214,,37,the
screen,html.Screen,2_1_1_1_38,2021-04-27T08:29:35.976Z,,,,,,,,,,,,,,,,,54,,,,,,,,,,,,,,338.73099999749684,,response,,,,100,,,,,,,Space,keypress(Space),,,,,,,,-- --- ---- --- ------ ----- ------- ---- -- --- ------- --<br>------- ---------- ------ -- ----- -- ----- -- ---- ------<br>--- ----- --- --- ------ -------- ----- --- ------ ----- --<br>----- ----- ---------- --- --- market ------ ---- -- ------<br>------- --- ------ ----- --- ---- ------- -- ---- --- --<br>------- ------,233225.99999999875,233221.9449999975,232866.547,232867.16499999966,232883.214,233233.307,,38,market
screen,html.Screen,2_1_1_1_39,2021-04-27T08:29:36.407Z,,,,,,,,,,,,,,,,,54,,,,,,,,,,,,,,420.36799999774667,,response,,,,100,,,,,,,Space,keypress(Space),,,,,,,,-- --- ---- --- ------ ----- ------- ---- -- --- ------- --<br>------- ---------- ------ -- ----- -- ----- -- ---- ------<br>--- ----- --- --- ------ -------- ----- --- ------ ----- --<br>----- ----- ---------- --- --- ------ became ---- -- ------<br>------- --- ------ ----- --- ---- ------- -- ---- --- --<br>------- ------,233656.91999999763,233653.67499999775,233216.64,233226.2950000004,233233.307,233666.649,,39,became
screen,html.Screen,2_1_1_1_40,2021-04-27T08:29:36.761Z,,,,,,,,,,,,,,,,,54,,,,,,,,,,,,,,341.2359999990731,,response,,,,100,,,,,,,Space,keypress(Space),,,,,,,,-- --- ---- --- ------ ----- ------- ---- -- --- ------- --<br>------- ---------- ------ -- ----- -- ----- -- ---- ------<br>--- ----- --- --- ------ -------- ----- --- ------ ----- --<br>----- ----- ---------- --- --- ------ ------ wary -- ------<br>------- --- ------ ----- --- ---- ------- -- ---- --- --<br>------- ------,234011.4199999989,234007.88499999908,233649.982,233657.16500000053,233666.649,234016.656,,40,wary
screen,html.Screen,2_1_1_1_41,2021-04-27T08:29:37.119Z,,,,,,,,,,,,,,,,,54,,,,,,,,,,,,,,349.07399999772315,,response,,,,100,,,,,,,Space,keypress(Space),,,,,,,,-- --- ---- --- ------ ----- ------- ---- -- --- ------- --<br>------- ---------- ------ -- ----- -- ----- -- ---- ------<br>--- ----- --- --- ------ -------- ----- --- ------ ----- --<br>----- ----- ---------- --- --- ------ ------ ---- of ------<br>------- --- ------ ----- --- ---- ------- -- ---- --- --<br>------- ------,234368.99999999878,234365.7299999977,233999.989,234011.74999999785,234016.656,234383.33,,41,of
screen,html.Screen,2_1_1_1_42,2021-04-27T08:29:37.534Z,,,,,,,,,,,,,,,,,54,,,,,,,,,,,,,,397.050000000163,,response,,,,100,,,,,,,Space,keypress(Space),,,,,,,,-- --- ---- --- ------ ----- ------- ---- -- --- ------- --<br>------- ---------- ------ -- ----- -- ----- -- ---- ------<br>--- ----- --- --- ------ -------- ----- --- ------ ----- --<br>----- ----- ---------- --- --- ------ ------ ---- -- French<br>------- --- ------ ----- --- ---- ------- -- ---- --- --<br>------- ------,234783.8300000003,234780.38000000015,234366.663,234369.28999999873,234383.33,234800.005,,42,French
screen,html.Screen,2_1_1_1_43,2021-04-27T08:29:37.909Z,,,,,,,,,,,,,,,,,54,,,,,,,,,,,,,,355.639999998908,,response,,,,100,,,,,,,Space,keypress(Space),,,,,,,,-- --- ---- --- ------ ----- ------- ---- -- --- ------- --<br>------- ---------- ------ -- ----- -- ----- -- ---- ------<br>--- ----- --- --- ------ -------- ----- --- ------ ----- --<br>----- ----- ---------- --- --- ------ ------ ---- -- ------<br>credit. --- ------ ----- --- ---- ------- -- ---- --- --<br>------- ------,235159.07999999763,235155.6449999989,234783.338,234784.03999999864,234800.005,235166.679,,43,credit.
screen,html.Screen,2_1_1_1_44,2021-04-27T08:29:39.033Z,,,,,,,,,,,,,,,,,54,,,,,,,,,,,,,,1113.8159999990603,,response,,,,100,,,,,,,Space,keypress(Space),,,,,,,,-- --- ---- --- ------ ----- ------- ---- -- --- ------- --<br>------- ---------- ------ -- ----- -- ----- -- ---- ------<br>--- ----- --- --- ------ -------- ----- --- ------ ----- --<br>----- ----- ---------- --- --- ------ ------ ---- -- ------<br>------- The ------ ----- --- ---- ------- -- ---- --- --<br>------- ------,236283.78999999768,236280.49499999906,235150.012,235159.33500000028,235166.679,236300.035,,44,The
screen,html.Screen,2_1_1_1_45,2021-04-27T08:29:39.559Z,,,,,,,,,,,,,,,,,54,,,,,,,,,,,,,,506.5399999986985,,response,,,,100,,,,,,,Space,keypress(Space),,,,,,,,-- --- ---- --- ------ ----- ------- ---- -- --- ------- --<br>------- ---------- ------ -- ----- -- ----- -- ---- ------<br>--- ----- --- --- ------ -------- ----- --- ------ ----- --<br>----- ----- ---------- --- --- ------ ------ ---- -- ------<br>------- --- French ----- --- ---- ------- -- ---- --- --<br>------- ------,236809.53999999838,236806.5749999987,236283.368,236284.1249999983,236300.035,236816.712,,45,French
screen,html.Screen,2_1_1_1_46,2021-04-27T08:29:40.135Z,,,,,,,,,,,,,,,,,54,,,,,,,,,,,,,,565.2379999990517,,response,,,,100,,,,,,,Space,keypress(Space),,,,,,,,-- --- ---- --- ------ ----- ------- ---- -- --- ------- --<br>------- ---------- ------ -- ----- -- ----- -- ---- ------<br>--- ----- --- --- ------ -------- ----- --- ------ ----- --<br>----- ----- ---------- --- --- ------ ------ ---- -- ------<br>------- --- ------ state --- ---- ------- -- ---- --- --<br>------- ------,237385.50000000032,237381.94999999905,236800.045,236809.874999999,236816.712,237400.057,,46,state
screen,html.Screen,2_1_1_1_47,2021-04-27T08:29:40.733Z,,,,,,,,,,,,,,,,,54,,,,,,,,,,,,,,579.8029999994615,,response,,,,100,,,,,,,Space,keypress(Space),,,,,,,,-- --- ---- --- ------ ----- ------- ---- -- --- ------- --<br>------- ---------- ------ -- ----- -- ----- -- ---- ------<br>--- ----- --- --- ------ -------- ----- --- ------ ----- --<br>----- ----- ---------- --- --- ------ ------ ---- -- ------<br>------- --- ------ ----- was ---- ------- -- ---- --- --<br>------- ------,237983.3749999998,237979.85999999946,237383.39,237385.74999999764,237400.057,238000.069,,47,was
screen,html.Screen,2_1_1_1_48,2021-04-27T08:29:41.134Z,,,,,,,,,,,,,,,,,54,,,,,,,,,,,,,,380.8210000003746,,response,,,,100,,,,,,,Space,keypress(Space),,,,,,,,-- --- ---- --- ------ ----- ------- ---- -- --- ------- --<br>------- ---------- ------ -- ----- -- ----- -- ---- ------<br>--- ----- --- --- ------ -------- ----- --- ------ ----- --<br>----- ----- ---------- --- --- ------ ------ ---- -- ------<br>------- --- ------ ----- --- left ------- -- ---- --- --<br>------- ------,238384.28999999815,238380.89000000036,237983.402,237983.6699999978,238000.069,238400.077,,48,left
screen,html.Screen,2_1_1_1_49,2021-04-27T08:29:41.579Z,,,,,,,,,,,,,,,,,54,,,,,,,,,,,,,,425.69299999947543,,response,,,,100,,,,,,,Space,keypress(Space),,,,,,,,-- --- ---- --- ------ ----- ------- ---- -- --- ------- --<br>------- ---------- ------ -- ----- -- ----- -- ---- ------<br>--- ----- --- --- ------ -------- ----- --- ------ ----- --<br>----- ----- ---------- --- --- ------ ------ ---- -- ------<br>------- --- ------ ----- --- ---- without -- ---- --- --<br>------- ------,238829.1250000002,238825.76999999947,238383.41,238384.5799999981,238400.077,238833.419,,49,without
screen,html.Screen,2_1_1_1_50,2021-04-27T08:29:41.968Z,,,,,,,,,,,,,,,,,54,,,,,,,,,,,,,,381.3560000003781,,response,,,,100,,,,,,,Space,keypress(Space),,,,,,,,-- --- ---- --- ------ ----- ------- ---- -- --- ------- --<br>------- ---------- ------ -- ----- -- ----- -- ---- ------<br>--- ----- --- --- ------ -------- ----- --- ------ ----- --<br>----- ----- ---------- --- --- ------ ------ ---- -- ------<br>------- --- ------ ----- --- ---- ------- an ---- --- --<br>------- ------,239218.2099999991,239214.77500000037,238816.752,238829.45499999914,238833.419,239233.427,,50,an
screen,html.Screen,2_1_1_1_51,2021-04-27T08:29:42.282Z,,,,,,,,,,,,,,,,,54,,,,,,,,,,,,,,295.32299999767565,,response,,,,100,,,,,,,Space,keypress(Space),,,,,,,,-- --- ---- --- ------ ----- ------- ---- -- --- ------- --<br>------- ---------- ------ -- ----- -- ----- -- ---- ------<br>--- ----- --- --- ------ -------- ----- --- ------ ----- --<br>----- ----- ---------- --- --- ------ ------ ---- -- ------<br>------- --- ------ ----- --- ---- ------- -- easy --- --<br>------- ------,239531.91499999957,239528.74999999767,239216.76,239218.45499999836,239233.427,239533.433,,51,easy
screen,html.Screen,2_1_1_1_52,2021-04-27T08:29:42.596Z,,,,,,,,,,,,,,,,,54,,,,,,,,,,,,,,309.29199999861885,,response,,,,100,,,,,,,Space,keypress(Space),,,,,,,,-- --- ---- --- ------ ----- ------- ---- -- --- ------- --<br>------- ---------- ------ -- ----- -- ----- -- ---- ------<br>--- ----- --- --- ------ -------- ----- --- ------ ----- --<br>----- ----- ---------- --- --- ------ ------ ---- -- ------<br>------- --- ------ ----- --- ---- ------- -- ---- way --<br>------- ------,239845.91499999806,239842.7249999986,239516.766,239532.20499999952,239533.433,239850.106,,52,way
screen,html.Screen,2_1_1_1_53,2021-04-27T08:29:42.932Z,,,,,,,,,,,,,,,,,54,,,,,,,,,,,,,,328.693999997864,,response,,,,100,,,,,,,Space,keypress(Space),,,,,,,,-- --- ---- --- ------ ----- ------- ---- -- --- ------- --<br>------- ---------- ------ -- ----- -- ----- -- ---- ------<br>--- ----- --- --- ------ -------- ----- --- ------ ----- --<br>----- ----- ---------- --- --- ------ ------ ---- -- ------<br>------- --- ------ ----- --- ---- ------- -- ---- --- of<br>------- ------,240182.12499999936,240178.79999999786,239833.439,239846.2499999987,239850.106,240183.446,,53,of
screen,html.Screen,2_1_1_1_54,2021-04-27T08:29:43.518Z,,,,,,,,,,,,,,,,,54,,,,,,,,,,,,,,582.0740000008373,,response,,,,100,,,,,,,Space,keypress(Space),,,,,,,,-- --- ---- --- ------ ----- ------- ---- -- --- ------- --<br>------- ---------- ------ -- ----- -- ----- -- ---- ------<br>--- ----- --- --- ------ -------- ----- --- ------ ----- --<br>----- ----- ---------- --- --- ------ ------ ---- -- ------<br>------- --- ------ ----- --- ---- ------- -- ---- --- --<br>raising ------,240768.74999999927,240765.52000000083,240166.779,240182.4149999993,240183.446,240783.458,,54,raising
screen,html.Screen,2_1_1_1_55,2021-04-27T08:29:43.836Z,,,,,,,,,,,,,,,,,54,,,,,,,,,,,,,,299.65699999762,,response,,,,100,,,,,,,Space,keypress(Space),,,,,,,,-- --- ---- --- ------ ----- ------- ---- -- --- ------- --<br>------- ---------- ------ -- ----- -- ----- -- ---- ------<br>--- ----- --- --- ------ -------- ----- --- ------ ----- --<br>----- ----- ---------- --- --- ------ ------ ---- -- ------<br>------- --- ------ ----- --- ---- ------- -- ---- --- --<br>------- money.,241086.33499999996,241083.11499999763,240766.791,240769.00000000023,240783.458,241100.131,,55,money.
Item 100,flow.Loop,2_1_1_1,2021-04-27T08:29:43.836Z,,,,,,,,,,,,,,,,,,,,,,,,,,,,,,,29017.35899999764,,completion,,,,,F,,,,,,,,,,,silence,,,,,241086.6649999989,241083.11499999763,212049.089,212051.45500000071,212065.756,241100.131,,,
Question 1,html.Screen,2_1_1_2,2021-04-27T08:29:46.276Z,,,,,,,,,,,,,,,,,,,,,,,,,,,,true,TRUE,,2423.798999999388,,response,,,,100,F,,,,,,TRUE,click #choice-1,,,,silence,,,,,243526.70500000022,243523.92999999938,241083.464,241086.78999999756,241100.131,243533.674,,,
Question 2,html.Screen,2_1_1_3,2021-04-27T08:29:49.770Z,,,,,,,,,,,,,,,,,,,,,,,,,,,,true,FALSE,,3484.805999998818,,response,,,,100,F,,,,,,FALSE,click #choice-2,,,,silence,,,,,247020.62499999738,247018.47999999882,243517.007,243526.99999999822,243533.674,247033.744,,,
Item 100,flow.Sequence,2_1_1,2021-04-27T08:29:49.771Z,,,,,,,,,,,,,,,,,,,,,,,,,,,,,,,44952.923999998806,,completion,,,,,,,,,,,,,,,,,,,,,247021.00000000064,247018.47999999882,202048.889,202051.99999999968,202065.556,247033.744,,,
End of Practice,html.Page,2_1_2,2021-04-27T08:29:52.291Z,,,,,,,,,,,,,,,,,,,,,,,,,,,,,,,2506.590999997861,,form submission,,,,,,,,,,,,,,,,,,,,,249541.08500000075,249540.33499999787,247017.077,247021.1649999983,247033.744,249550.461,,,
Practice,flow.Sequence,2_1,2021-04-27T08:29:52.291Z,,,,,,,,,,,,,,,,,,,,,,,,,,,,,,,98860.35899999787,,completion,,,,,,,,,,,,,,,,,,,,,249541.45499999868,249540.33499999787,150663.309,150675.0800000009,150679.976,249550.461,,,
Trap_instruction,html.Page,2_2_0,2021-04-27T08:29:55.145Z,,,,,,,,,,,,,,,,,,,,,,,,,,,,,,,2843.8740000008547,,form submission,,,,,,,,,,,,,,,,,,,,,252394.91500000076,252394.33500000086,249533.794,249541.6699999987,249550.461,252400.518,,,
trap_trial,html.Screen,2_2_1,2021-04-27T08:29:59.143Z,,,,,,,,,,,,,,,,,,,,,,,,,,,,true,1,,3989.6470000006957,,response,,,,,,,,,,,1,click #choice-1,,,,,,,,,256393.28999999998,256390.1650000007,252383.851,252395.1249999991,252400.518,256400.598,,,
end of trap trial,html.Page,2_2_2,2021-04-27T08:30:00.759Z,,,,,,,,,,,,,,,,,,,,,,,,,,,,,,,1607.7769999976153,,form submission,,,,,,,,,,,,,,,,,,,,,258008.9999999982,258008.3749999976,256383.931,256393.5399999973,256400.598,258017.531,,,
Trap 1,flow.Sequence,2_2,2021-04-27T08:30:00.759Z,,,,,,,,,,,,,,,,,,,,,,,,,,,,,,,8457.913999997603,,completion,,,,,,,,,,,,,,,,,,,,,258009.24999999916,258008.3749999976,249533.794,249541.57999999734,249550.461,258017.531,,,
Standby,html.Page,2_3_0,2021-04-27T08:30:08.753Z,,,,,,,,,,,,,,,,,,,,,,,,,,,,,,,8000.1600000000035,,timeout,,,,,,,,,,,,,,,,,,,,,266003.58499999857,266001.024,258000.864,258009.41500000044,258017.531,266017.691,,,
Holding screen,html.Screen,2_3_1_0_0,2021-04-27T08:30:15.753Z,,,,,,,,,,,,,,,,,,,,,,,,,,,,,,,7000.303000000014,,timeout,,,,,,,,,,,,,,,,,,,,,273003.2499999979,273001.327,266001.024,266004.0000000008,266017.691,273017.994,,,
screen,html.Screen,2_3_1_0_1_0,2021-04-27T08:30:16.385Z,,,,,,,,,,,,,,,,,11,,,,,,,,,,,,,,612.9710000003106,,response,,,,4,F,,,,,,Space,keypress(Space),,,,instrumental,,,,Known -- ---- --- -- --- -------- ------------ ---------- --<br>- ------- ------ --------- -- ------------ -- --- ---- -----<br>------ ---- ---- ------ ------ ------- --- ----- ---------<br>---- --- -------- -------- --- --- -- ------- --- --- -----<br>-- --- ------ ------- --- --- -------- ---- --------- --<br>---------- -- -------- ----------------,273635.7499999977,273630.9650000003,273001.327,273003.66500000015,273017.994,273651.34,,0,Known
screen,html.Screen,2_3_1_0_1_1,2021-04-27T08:30:16.783Z,,,,,,,,,,,,,,,,,11,,,,,,,,,,,,,,378.7599999999511,,response,,,,4,F,,,,,,Space,keypress(Space),,,,instrumental,,,,----- as ---- --- -- --- -------- ------------ ---------- --<br>- ------- ------ --------- -- ------------ -- --- ---- -----<br>------ ---- ---- ------ ------ ------- --- ----- ---------<br>---- --- -------- -------- --- --- -- ------- --- --- -----<br>-- --- ------ ------- --- --- -------- ---- --------- --<br>---------- -- -------- ----------------,274033.16500000074,274030.1,273634.673,273636.0399999976,273651.34,274034.681,,1,as
screen,html.Screen,2_3_1_0_1_2,2021-04-27T08:30:17.399Z,,,,,,,,,,,,,,,,,11,,,,,,,,,,,,,,611.4239999998244,,response,,,,4,F,,,,,,Space,keypress(Space),,,,instrumental,,,,----- -- Rapa --- -- --- -------- ------------ ---------- --<br>- ------- ------ --------- -- ------------ -- --- ---- -----<br>------ ---- ---- ------ ------ ------- --- ----- ---------<br>---- --- -------- -------- --- --- -- ------- --- --- -----<br>-- --- ------ ------- --- --- -------- ---- --------- --<br>---------- -- -------- ----------------,274649.6249999982,274646.1049999998,274018.014,274033.5799999994,274034.681,274651.36,,2,Rapa
screen,html.Screen,2_3_1_0_1_3,2021-04-27T08:30:17.952Z,,,,,,,,,,,,,,,,,11,,,,,,,,,,,,,,547.3649999983609,,response,,,,4,F,,,,,,Space,keypress(Space),,,,instrumental,,,,----- -- ---- Nui -- --- -------- ------------ ---------- --<br>- ------- ------ --------- -- ------------ -- --- ---- -----<br>------ ---- ---- ------ ------ ------- --- ----- ---------<br>---- --- -------- -------- --- --- -- ------- --- --- -----<br>-- --- ------ ------- --- --- -------- ---- --------- --<br>---------- -- -------- ----------------,275202.4999999994,275198.72499999835,274634.693,274649.8749999992,274651.36,275218.038,,3,Nui
screen,html.Screen,2_3_1_0_1_4,2021-04-27T08:30:18.562Z,,,,,,,,,,,,,,,,,11,,,,,,,,,,,,,,590.9769999989076,,response,,,,4,F,,,,,,Space,keypress(Space),,,,instrumental,,,,----- -- ---- --- to --- -------- ------------ ---------- --<br>- ------- ------ --------- -- ------------ -- --- ---- -----<br>------ ---- ---- ------ ------ ------- --- ----- ---------<br>---- --- -------- -------- --- --- -- ------- --- --- -----<br>-- --- ------ ------- --- --- -------- ---- --------- --<br>---------- -- -------- ----------------,275812.62499999866,275809.0149999989,275201.371,275202.78999999934,275218.038,275818.05,,4,to
screen,html.Screen,2_3_1_0_1_5,2021-04-27T08:30:19.073Z,,,,,,,,,,,,,,,,,11,,,,,,,,,,,,,,501.88999999762746,,response,,,,4,F,,,,,,Space,keypress(Space),,,,instrumental,,,,----- -- ---- --- -- the -------- ------------ ---------- --<br>- ------- ------ --------- -- ------------ -- --- ---- -----<br>------ ---- ---- ------ ------ ------- --- ----- ---------<br>---- --- -------- -------- --- --- -- ------- --- --- -----<br>-- --- ------ ------- --- --- -------- ---- --------- --<br>---------- -- -------- ----------------,276323.32999999926,276319.9399999976,275801.383,275812.87499999965,275818.05,276334.727,,5,the
screen,html.Screen,2_3_1_0_1_6,2021-04-27T08:30:19.590Z,,,,,,,,,,,,,,,,,11,,,,,,,,,,,,,,502.1179999979795,,response,,,,4,F,,,,,,Space,keypress(Space),,,,instrumental,,,,----- -- ---- --- -- --- island's ------------ ---------- --<br>- ------- ------ --------- -- ------------ -- --- ---- -----<br>------ ---- ---- ------ ------ ------- --- ----- ---------<br>---- --- -------- -------- --- --- -- ------- --- --- -----<br>-- --- ------ ------- --- --- -------- ---- --------- --<br>---------- -- -------- ----------------,276840.6250000007,276836.844999998,276318.06,276323.5849999983,276334.727,276851.404,,6,island's
screen,html.Screen,2_3_1_0_1_7,2021-04-27T08:30:20.552Z,,,,,,,,,,,,,,,,,11,,,,,,,,,,,,,,947.5260000008857,,response,,,,4,F,,,,,,Space,keypress(Space),,,,instrumental,,,,"----- -- ---- --- -- --- -------- inhabitants, ---------- --<br>- ------- ------ --------- -- ------------ -- --- ---- -----<br>------ ---- ---- ------ ------ ------- --- ----- ---------<br>---- --- -------- -------- --- --- -- ------- --- --- -----<br>-- --- ------ ------- --- --- -------- ---- --------- --<br>---------- -- -------- ----------------",277802.25000000064,277798.93000000087,276834.737,276840.874999998,276851.404,277818.09,,7,"inhabitants,"
screen,html.Screen,2_3_1_0_1_8,2021-04-27T08:30:21.142Z,,,,,,,,,,,,,,,,,11,,,,,,,,,,,,,,570.7850000005565,,response,,,,4,F,,,,,,Space,keypress(Space),,,,instrumental,,,,----- -- ---- --- -- --- -------- ------------ Rongorongo --<br>- ------- ------ --------- -- ------------ -- --- ---- -----<br>------ ---- ---- ------ ------ ------- --- ----- ---------<br>---- --- -------- -------- --- --- -- ------- --- --- -----<br>-- --- ------ ------- --- --- -------- ---- --------- --<br>---------- -- -------- ----------------,278392.2500000008,278388.8750000006,277801.423,277802.5400000006,277818.09,278401.435,,8,Rongorongo
screen,html.Screen,2_3_1_0_1_9,2021-04-27T08:30:21.761Z,,,,,,,,,,,,,,,,,11,,,,,,,,,,,,,,606.3250000004191,,response,,,,4,F,,,,,,Space,keypress(Space),,,,instrumental,,,,----- -- ---- --- -- --- -------- ------------ ---------- is<br>- ------- ------ --------- -- ------------ -- --- ---- -----<br>------ ---- ---- ------ ------ ------- --- ----- ---------<br>---- --- -------- -------- --- --- -- ------- --- --- -----<br>-- --- ------ ------- --- --- -------- ---- --------- --<br>---------- -- -------- ----------------,279011.0849999983,279007.7600000004,278384.768,278392.58499999775,278401.435,279018.315,,9,is
screen,html.Screen,2_3_1_0_1_10,2021-04-27T08:30:22.179Z,,,,,,,,,,,,,,,,,11,,,,,,,,,,,,,,407.62499999738066,,response,,,,4,F,,,,,,Space,keypress(Space),,,,instrumental,,,,----- -- ---- --- -- --- -------- ------------ ---------- --<br>a ------- ------ --------- -- ------------ -- --- ---- -----<br>------ ---- ---- ------ ------ ------- --- ----- ---------<br>---- --- -------- -------- --- --- -- ------- --- --- -----<br>-- --- ------ ------- --- --- -------- ---- --------- --<br>---------- -- -------- ----------------,279429.1249999987,279425.9399999974,279001.648,279011.3299999975,279018.315,279434.99,,10,a
screen,html.Screen,2_3_1_0_1_11,2021-04-27T08:30:22.673Z,,,,,,,,,,,,,,,,,11,,,,,,,,,,,,,,484.7449999995297,,response,,,,4,F,,,,,,Space,keypress(Space),,,,instrumental,,,,----- -- ---- --- -- --- -------- ------------ ---------- --<br>- writing ------ --------- -- ------------ -- --- ---- -----<br>------ ---- ---- ------ ------ ------- --- ----- ---------<br>---- --- -------- -------- --- --- -- ------- --- --- -----<br>-- --- ------ ------- --- --- -------- ---- --------- --<br>---------- -- -------- ----------------,279923.12499999756,279919.7349999995,279418.323,279429.3749999997,279434.99,279935,,11,writing
screen,html.Screen,2_3_1_0_1_12,2021-04-27T08:30:23.042Z,,,,,,,,,,,,,,,,,11,,,,,,,,,,,,,,354.10499999986496,,response,,,,4,F,,,,,,Space,keypress(Space),,,,instrumental,,,,----- -- ---- --- -- --- -------- ------------ ---------- --<br>- ------- system --------- -- ------------ -- --- ---- -----<br>------ ---- ---- ------ ------ ------- --- ----- ---------<br>---- --- -------- -------- --- --- -- ------- --- --- -----<br>-- --- ------ ------- --- --- -------- ---- --------- --<br>---------- -- -------- ----------------,280292.49999999953,280289.10499999986,279918.333,279923.5000000008,279935,280301.674,,12,system
screen,html.Screen,2_3_1_0_1_13,2021-04-27T08:30:23.813Z,,,,,,,,,,,,,,,,,11,,,,,,,,,,,,,,759.1759999979986,,response,,,,4,F,,,,,,Space,keypress(Space),,,,instrumental,,,,----- -- ---- --- -- --- -------- ------------ ---------- --<br>- ------- ------ comprised -- ------------ -- --- ---- -----<br>------ ---- ---- ------ ------ ------- --- ----- ---------<br>---- --- -------- -------- --- --- -- ------- --- --- -----<br>-- --- ------ ------- --- --- -------- ---- --------- --<br>---------- -- -------- ----------------,281063.4549999995,281060.849999998,280285.007,280292.8350000002,280301.674,281068.356,,13,comprised
screen,html.Screen,2_3_1_0_1_14,2021-04-27T08:30:24.683Z,,,,,,,,,,,,,,,,,11,,,,,,,,,,,,,,861.4239999985439,,response,,,,4,F,,,,,,Space,keypress(Space),,,,instrumental,,,,----- -- ---- --- -- --- -------- ------------ ---------- --<br>- ------- ------ --------- of ------------ -- --- ---- -----<br>------ ---- ---- ------ ------ ------- --- ----- ---------<br>---- --- -------- -------- --- --- -- ------- --- --- -----<br>-- --- ------ ------- --- --- -------- ---- --------- --<br>---------- -- -------- ----------------,281933.2949999989,281929.7799999986,281051.689,281063.6699999996,281068.356,281935.04,,14,of
screen,html.Screen,2_3_1_0_1_15,2021-04-27T08:30:25.584Z,,,,,,,,,,,,,,,,,11,,,,,,,,,,,,,,895.8199999982608,,response,,,,4,F,,,,,,Space,keypress(Space),,,,instrumental,,,,----- -- ---- --- -- --- -------- ------------ ---------- --<br>- ------- ------ --------- -- pictographs. -- --- ---- -----<br>------ ---- ---- ------ ------ ------- --- ----- ---------<br>---- --- -------- -------- --- --- -- ------- --- --- -----<br>-- --- ------ ------- --- --- -------- ---- --------- --<br>---------- -- -------- ----------------,282834.4199999992,282830.85999999824,281918.373,281933.5399999982,281935.04,282851.725,,15,pictographs.
screen,html.Screen,2_3_1_0_1_16,2021-04-27T08:30:26.638Z,,,,,,,,,,,,,,,,,11,,,,,,,,,,,,,,1032.1699999990524,,response,,,,4,F,,,,,,Space,keypress(Space),,,,instrumental,,,,----- -- ---- --- -- --- -------- ------------ ---------- --<br>- ------- ------ --------- -- ------------ It --- ---- -----<br>------ ---- ---- ------ ------ ------- --- ----- ---------<br>---- --- -------- -------- --- --- -- ------- --- --- -----<br>-- --- ------ ------- --- --- -------- ---- --------- --<br>---------- -- -------- ----------------,283888.3749999986,283883.894999999,282835.058,282834.7049999975,282851.725,283901.746,,16,It
screen,html.Screen,2_3_1_0_1_17,2021-04-27T08:30:27.254Z,,,,,,,,,,,,,,,,,11,,,,,,,,,,,,,,599.2589999982738,,response,,,,4,F,,,,,,Space,keypress(Space),,,,instrumental,,,,----- -- ---- --- -- --- -------- ------------ ---------- --<br>- ------- ------ --------- -- ------------ -- has ---- -----<br>------ ---- ---- ------ ------ ------- --- ----- ---------<br>---- --- -------- -------- --- --- -- ------- --- --- -----<br>-- --- ------ ------- --- --- -------- ---- --------- --<br>---------- -- -------- ----------------,284504.53999999806,284501.00499999826,283885.079,283888.6249999996,283901.746,284518.425,,17,has
screen,html.Screen,2_3_1_0_1_18,2021-04-27T08:30:27.955Z,,,,,,,,,,,,,,,,,11,,,,,,,,,,,,,,683.5099999973318,,response,,,,4,F,,,,,,Space,keypress(Space),,,,instrumental,,,,----- -- ---- --- -- --- -------- ------------ ---------- --<br>- ------- ------ --------- -- ------------ -- --- been -----<br>------ ---- ---- ------ ------ ------- --- ----- ---------<br>---- --- -------- -------- --- --- -- ------- --- --- -----<br>-- --- ------ ------- --- --- -------- ---- --------- --<br>---------- -- -------- ----------------,285205.29499999975,285201.9349999973,284501.758,284504.83499999973,284518.425,285218.439,,18,been
screen,html.Screen,2_3_1_0_1_19,2021-04-27T08:30:28.528Z,,,,,,,,,,,,,,,,,11,,,,,,,,,,,,,,556.3659999972442,,response,,,,4,F,,,,,,Space,keypress(Space),,,,instrumental,,,,----- -- ---- --- -- --- -------- ------------ ---------- --<br>- ------- ------ --------- -- ------------ -- --- ---- found<br>------ ---- ---- ------ ------ ------- --- ----- ---------<br>---- --- -------- -------- --- --- -- ------- --- --- -----<br>-- --- ------ ------- --- --- -------- ---- --------- --<br>---------- -- -------- ----------------,285778.374999998,285774.80499999726,285201.772,285205.6249999987,285218.439,285785.117,,19,found
screen,html.Screen,2_3_1_0_1_20,2021-04-27T08:30:29.505Z,,,,,,,,,,,,,,,,,11,,,,,,,,,,,,,,966.7679999978282,,response,,,,4,F,,,,,,Space,keypress(Space),,,,instrumental,,,,----- -- ---- --- -- --- -------- ------------ ---------- --<br>- ------- ------ --------- -- ------------ -- --- ---- -----<br>carved ---- ---- ------ ------ ------- --- ----- ---------<br>---- --- -------- -------- --- --- -- ------- --- --- -----<br>-- --- ------ ------- --- --- -------- ---- --------- --<br>---------- -- -------- ----------------,286755.87499999895,286751.88499999786,285768.45,285778.7499999977,285785.117,286768.47,,20,carved
screen,html.Screen,2_3_1_0_1_21,2021-04-27T08:30:30.054Z,,,,,,,,,,,,,,,,,11,,,,,,,,,,,,,,532.7499999975553,,response,,,,4,F,,,,,,Space,keypress(Space),,,,instrumental,,,,----- -- ---- --- -- --- -------- ------------ ---------- --<br>- ------- ------ --------- -- ------------ -- --- ---- -----<br>------ into ---- ------ ------ ------- --- ----- ---------<br>---- --- -------- -------- --- --- -- ------- --- --- -----<br>-- --- ------ ------- --- --- -------- ---- --------- --<br>---------- -- -------- ----------------,287304.9150000006,287301.2199999975,286751.803,286756.1249999999,286768.47,287318.481,,21,into
screen,html.Screen,2_3_1_0_1_22,2021-04-27T08:30:30.604Z,,,,,,,,,,,,,,,,,11,,,,,,,,,,,,,,532.4289999973262,,response,,,,4,F,,,,,,Space,keypress(Space),,,,instrumental,,,,----- -- ---- --- -- --- -------- ------------ ---------- --<br>- ------- ------ --------- -- ------------ -- --- ---- -----<br>------ ---- many ------ ------ ------- --- ----- ---------<br>---- --- -------- -------- --- --- -- ------- --- --- -----<br>-- --- ------ ------- --- --- -------- ---- --------- --<br>---------- -- -------- ----------------,287854.3299999983,287850.90999999736,287301.814,287305.20500000054,287318.481,287868.492,,22,many
screen,html.Screen,2_3_1_0_1_23,2021-04-27T08:30:30.985Z,,,,,,,,,,,,,,,,,11,,,,,,,,,,,,,,363.5229999977746,,response,,,,4,F,,,,,,Space,keypress(Space),,,,instrumental,,,,----- -- ---- --- -- --- -------- ------------ ---------- --<br>- ------- ------ --------- -- ------------ -- --- ---- -----<br>------ ---- ---- oblong ------ ------- --- ----- ---------<br>---- --- -------- -------- --- --- -- ------- --- --- -----<br>-- --- ------ ------- --- --- -------- ---- --------- --<br>---------- -- -------- ----------------,288235.5399999978,288232.0149999978,287851.825,287854.7049999979,287868.492,288251.833,,23,oblong
screen,html.Screen,2_3_1_0_1_24,2021-04-27T08:30:31.406Z,,,,,,,,,,,,,,,,,11,,,,,,,,,,,,,,400.98699999938253,,response,,,,4,F,,,,,,Space,keypress(Space),,,,instrumental,,,,----- -- ---- --- -- --- -------- ------------ ---------- --<br>- ------- ------ --------- -- ------------ -- --- ---- -----<br>------ ---- ---- ------ wooden ------- --- ----- ---------<br>---- --- -------- -------- --- --- -- ------- --- --- -----<br>-- --- ------ ------- --- --- -------- ---- --------- --<br>---------- -- -------- ----------------,288656.4999999973,288652.81999999937,288235.166,288235.7899999988,288251.833,288668.598,,24,wooden
screen,html.Screen,2_3_1_0_1_25,2021-04-27T08:30:31.878Z,,,,,,,,,,,,,,,,,11,,,,,,,,,,,,,,456.46199999848614,,response,,,,4,F,,,,,,Space,keypress(Space),,,,instrumental,,,,----- -- ---- --- -- --- -------- ------------ ---------- --<br>- ------- ------ --------- -- ------------ -- --- ---- -----<br>------ ---- ---- ------ ------ tablets --- ----- ---------<br>---- --- -------- -------- --- --- -- ------- --- --- -----<br>-- --- ------ ------- --- --- -------- ---- --------- --<br>---------- -- -------- ----------------,289128.70499999914,289125.0599999985,288651.931,288656.74999999825,288668.598,289135.274,,25,tablets
screen,html.Screen,2_3_1_0_1_26,2021-04-27T08:30:32.363Z,,,,,,,,,,,,,,,,,11,,,,,,,,,,,,,,474.6959999977262,,response,,,,4,F,,,,,,Space,keypress(Space),,,,instrumental,,,,----- -- ---- --- -- --- -------- ------------ ---------- --<br>- ------- ------ --------- -- ------------ -- --- ---- -----<br>------ ---- ---- ------ ------ ------- and ----- ---------<br>---- --- -------- -------- --- --- -- ------- --- --- -----<br>-- --- ------ ------- --- --- -------- ---- --------- --<br>---------- -- -------- ----------------,289613.1649999989,289609.9699999977,289118.607,289129.0000000008,289135.274,289618.617,,26,and
screen,html.Screen,2_3_1_0_1_27,2021-04-27T08:30:32.751Z,,,,,,,,,,,,,,,,,11,,,,,,,,,,,,,,379.2880000001169,,response,,,,4,F,,,,,,Space,keypress(Space),,,,instrumental,,,,----- -- ---- --- -- --- -------- ------------ ---------- --<br>- ------- ------ --------- -- ------------ -- --- ---- -----<br>------ ---- ---- ------ ------ ------- --- other ---------<br>---- --- -------- -------- --- --- -- ------- --- --- -----<br>-- --- ------ ------- --- --- -------- ---- --------- --<br>---------- -- -------- ----------------,290001.4999999985,289997.90500000014,289601.95,289613.4999999995,289618.617,290018.625,,27,other
screen,html.Screen,2_3_1_0_1_28,2021-04-27T08:30:33.461Z,,,,,,,,,,,,,,,,,11,,,,,,,,,,,,,,689.6749999984168,,response,,,,4,F,,,,,,Space,keypress(Space),,,,instrumental,,,,----- -- ---- --- -- --- -------- ------------ ---------- --<br>- ------- ------ --------- -- ------------ -- --- ---- -----<br>------ ---- ---- ------ ------ ------- --- ----- artifacts<br>---- --- -------- -------- --- --- -- ------- --- --- -----<br>-- --- ------ ------- --- --- -------- ---- --------- --<br>---------- -- -------- ----------------,290711.91499999986,290708.2999999984,290001.958,290001.7499999994,290018.625,290718.639,,28,artifacts
screen,html.Screen,2_3_1_0_1_29,2021-04-27T08:30:34.145Z,,,,,,,,,,,,,,,,,11,,,,,,,,,,,,,,673.4710000006598,,response,,,,4,F,,,,,,Space,keypress(Space),,,,instrumental,,,,----- -- ---- --- -- --- -------- ------------ ---------- --<br>- ------- ------ --------- -- ------------ -- --- ---- -----<br>------ ---- ---- ------ ------ ------- --- ----- ---------<br>from --- -------- -------- --- --- -- ------- --- --- -----<br>-- --- ------ ------- --- --- -------- ---- --------- --<br>---------- -- -------- ----------------,291395.71000000066,291392.1100000007,290701.972,290712.1699999989,290718.639,291401.986,,29,from
screen,html.Screen,2_3_1_0_1_30,2021-04-27T08:30:34.506Z,,,,,,,,,,,,,,,,,11,,,,,,,,,,,,,,351.2339999987162,,response,,,,4,F,,,,,,Space,keypress(Space),,,,instrumental,,,,----- -- ---- --- -- --- -------- ------------ ---------- --<br>- ------- ------ --------- -- ------------ -- --- ---- -----<br>------ ---- ---- ------ ------ ------- --- ----- ---------<br>---- the -------- -------- --- --- -- ------- --- --- -----<br>-- --- ------ ------- --- --- -------- ---- --------- --<br>---------- -- -------- ----------------,291756.6699999989,291753.2199999987,291385.319,291396.03999999963,291401.986,291768.66,,30,the
screen,html.Screen,2_3_1_0_1_31,2021-04-27T08:30:34.876Z,,,,,,,,,,,,,,,,,11,,,,,,,,,,,,,,354.5849999988568,,response,,,,4,F,,,,,,Space,keypress(Space),,,,instrumental,,,,----- -- ---- --- -- --- -------- ------------ ---------- --<br>- ------- ------ --------- -- ------------ -- --- ---- -----<br>------ ---- ---- ------ ------ ------- --- ----- ---------<br>---- --- island's -------- --- --- -- ------- --- --- -----<br>-- --- ------ ------- --- --- -------- ---- --------- --<br>---------- -- -------- ----------------,292126.58499999816,292123.24499999883,291751.993,291756.9999999978,291768.66,292135.334,,31,island's
screen,html.Screen,2_3_1_0_1_32,2021-04-27T08:30:36.032Z,,,,,,,,,,,,,,,,,11,,,,,,,,,,,,,,1143.7959999989835,,response,,,,4,F,,,,,,Space,keypress(Space),,,,instrumental,,,,----- -- ---- --- -- --- -------- ------------ ---------- --<br>- ------- ------ --------- -- ------------ -- --- ---- -----<br>------ ---- ---- ------ ------ ------- --- ----- ---------<br>---- --- -------- history. --- --- -- ------- --- --- -----<br>-- --- ------ ------- --- --- -------- ---- --------- --<br>---------- -- -------- ----------------,293282.6249999998,293279.12999999896,292118.667,292126.87499999814,292135.334,293285.357,,32,history.
screen,html.Screen,2_3_1_0_1_33,2021-04-27T08:30:36.413Z,,,,,,,,,,,,,,,,,11,,,,,,,,,,,,,,374.53800000069896,,response,,,,4,F,,,,,,Space,keypress(Space),,,,instrumental,,,,----- -- ---- --- -- --- -------- ------------ ---------- --<br>- ------- ------ --------- -- ------------ -- --- ---- -----<br>------ ---- ---- ------ ------ ------- --- ----- ---------<br>---- --- -------- -------- The --- -- ------- --- --- -----<br>-- --- ------ ------- --- --- -------- ---- --------- --<br>---------- -- -------- ----------------,293663.4149999991,293659.8950000007,293268.69,293282.9600000004,293285.357,293668.698,,33,The
screen,html.Screen,2_3_1_0_1_34,2021-04-27T08:30:36.872Z,,,,,,,,,,,,,,,,,11,,,,,,,,,,,,,,449.3269999998156,,response,,,,4,F,,,,,,Space,keypress(Space),,,,instrumental,,,,----- -- ---- --- -- --- -------- ------------ ---------- --<br>- ------- ------ --------- -- ------------ -- --- ---- -----<br>------ ---- ---- ------ ------ ------- --- ----- ---------<br>---- --- -------- -------- --- art -- ------- --- --- -----<br>-- --- ------ ------- --- --- -------- ---- --------- --<br>---------- -- -------- ----------------,294122.57999999926,294118.0249999998,293652.031,293663.66500000004,293668.698,294135.374,,34,art
screen,html.Screen,2_3_1_0_1_35,2021-04-27T08:30:37.252Z,,,,,,,,,,,,,,,,,11,,,,,,,,,,,,,,363.5809999991325,,response,,,,4,F,,,,,,Space,keypress(Space),,,,instrumental,,,,----- -- ---- --- -- --- -------- ------------ ---------- --<br>- ------- ------ --------- -- ------------ -- --- ---- -----<br>------ ---- ---- ------ ------ ------- --- ----- ---------<br>---- --- -------- -------- --- --- of ------- --- --- -----<br>-- --- ------ ------- --- --- -------- ---- --------- --<br>---------- -- -------- ----------------,294502.3299999994,294498.95499999914,294118.707,294122.8749999973,294135.374,294518.715,,35,of
screen,html.Screen,2_3_1_0_1_36,2021-04-27T08:30:37.895Z,,,,,,,,,,,,,,,,,11,,,,,,,,,,,,,,623.344999998284,,response,,,,4,F,,,,,,Space,keypress(Space),,,,instrumental,,,,----- -- ---- --- -- --- -------- ------------ ---------- --<br>- ------- ------ --------- -- ------------ -- --- ---- -----<br>------ ---- ---- ------ ------ ------- --- ----- ---------<br>---- --- -------- -------- --- --- -- writing --- --- -----<br>-- --- ------ ------- --- --- -------- ---- --------- --<br>---------- -- -------- ----------------,295145.45999999973,295142.0599999983,294502.048,294502.665,294518.715,295152.061,,36,writing
screen,html.Screen,2_3_1_0_1_37,2021-04-27T08:30:38.546Z,,,,,,,,,,,,,,,,,11,,,,,,,,,,,,,,641.0039999980363,,response,,,,4,F,,,,,,Space,keypress(Space),,,,instrumental,,,,----- -- ---- --- -- --- -------- ------------ ---------- --<br>- ------- ------ --------- -- ------------ -- --- ---- -----<br>------ ---- ---- ------ ------ ------- --- ----- ---------<br>---- --- -------- -------- --- --- -- ------- was --- -----<br>-- --- ------ ------- --- --- -------- ---- --------- --<br>---------- -- -------- ----------------,295796.3749999981,295793.064999998,295135.394,295145.74999999965,295152.061,295802.074,,37,was
