sender,sender_type,sender_id,timestamp,meta,,Blues,Classical,Country,Dance,Electronic,Folk,Gospel,Hip-Hop,Jazz,Latin,Musical/Film,New-age,Pop,Prolific_id,Provo_ID,R&B,Rap,Reggae,Religious,Rock,Soul,Swing,Traditional,age,artist_name,correct,correctResponse,distraction,duration,education,ended_on,familiarity,gender,headphone_check_performance,item,list,music_frequency,offensiveness,pleasantness,position_correct,preference,response,response_action,snippet_file,song_name,song_rating,sound,stimulus_1,stimulus_2,stimulus_3,text,time_commit,time_end,time_render,time_run,time_show,time_switch,url,word,word_ID
Prolific ID,html.Form,0,2021-04-26T18:59:02.134Z,"{""labjs_version"":""20.2.2"",""labjs_build"":{""flavor"":""production"",""commit"":""a25486e0c714a0ae2ce03ff94b7bb6896854dcfa""},""location"":""https://run.pavlovia.org/mvasilev/prolific_music_d/"",""userAgent"":""Mozilla/5.0 (Windows NT 10.0; Win64; x64; rv:88.0) Gecko/20100101 Firefox/88.0"",""platform"":""Win32"",""language"":""en-GB"",""locale"":""en-GB"",""timeZone"":""Europe/London"",""timezoneOffset"":-60,""screen_width"":1366,""screen_height"":768,""scroll_width"":1366,""scroll_height"":720,""window_innerWidth"":1366,""window_innerHeight"":768,""devicePixelRatio"":1}",,,,,,,,,,,,,,,5b97f2375612b30001acc4c9,,,,,,,,,,,,,,,16761.56,,form submission,,,,,,,,,,,,,,,,,,,,,45053,45049,28270.78,28264,28287.44,45071.58,{},,
Introduction,html.Screen,1_0,2021-04-26T18:59:10.752Z,,,,,,,,,,,,,,,,,,,,,,,,,,,,,,,8590.419999999998,,response,,,,,,,,,,,continue,click button,,,,,,,,,53671,53662,45054.9,45058,45071.58,53705.32,,,
Volume calibration,html.Screen,1_1,2021-04-26T18:59:38.340Z,,,,,,,,,,,,,,,,,,,,,,,,,,,,,,,27534.68,,response,,,,,,,,,,,continue,click button,,,,,,,,,81257,81240,53671.98,53672,53705.32,81273.32,,,
Task instructions,html.Screen,1_2,2021-04-26T18:59:45.459Z,,,,,,,,,,,,,,,,,,,,,,,,,,,,,,,7092.679999999993,,response,,,,,,,,,,,continue,click button,,,,,,,,,88378,88366,81256.66,81258,81273.32,88407.02,,,
Sounds,html.Screen,1_3_0_0,2021-04-26T18:59:49.724Z,,,,,,,,,,,,,,,,,,,,,,,,,,,,,,,4250.220000000001,,timeout,,,,,,,,,1,,,,,,,,S,I,O,,92642,92640.58,88390.36,88379,88407.02,92657.24,,,
Judgement,html.Screen,1_3_0_1,2021-04-26T18:59:50.588Z,,,,,,,,,,,,,,,,,,,,,,,,,,,,true,1,,832.7599999999948,,response,,,,,,,,,1,,1,click #choice-1,,,,,S,I,O,,93506,93490,92640.58,92643,92657.24,93523.92,,,
Trial,flow.Sequence,1_3_0,2021-04-26T18:59:50.591Z,,,,,,,,,,,,,,,,,,,,,,,,,,,,,,,5082.979999999996,,completion,,,,,,,,,1,,,,,,,,S,I,O,,93510,93490,88390.36,88379,88407.02,93523.92,,,
Sounds,html.Screen,1_3_1_0,2021-04-26T18:59:54.840Z,,,,,,,,,,,,,,,,,,,,,,,,,,,,,,,4250.220000000001,,timeout,,,,,,,,,1,,,,,,,,S,O,I,,97759,97757.48,93507.26,93511,93523.92,97774.14,,,
Judgement,html.Screen,1_3_1_1,2021-04-26T18:59:55.564Z,,,,,,,,,,,,,,,,,,,,,,,,,,,,true,1,,699.8600000000006,,response,,,,,,,,,1,,1,click #choice-1,,,,,S,O,I,,98482,98474,97757.48,97760,97774.14,98507.52,,,
Trial,flow.Sequence,1_3_1,2021-04-26T18:59:55.564Z,,,,,,,,,,,,,,,,,,,,,,,,,,,,,,,4950.080000000002,,completion,,,,,,,,,1,,,,,,,,S,O,I,,98484,98474,93507.26,93511,93523.92,98507.52,,,
Sounds,html.Screen,1_3_2_0,2021-04-26T18:59:59.825Z,,,,,,,,,,,,,,,,,,,,,,,,,,,,,,,4250.220000000001,,timeout,,,,,,,,,3,,,,,,,,I,O,S,,102743,102741.06,98490.84,98484,98507.52,102757.74,,,
Judgement,html.Screen,1_3_2_1,2021-04-26T19:00:00.421Z,,,,,,,,,,,,,,,,,,,,,,,,,,,,true,3,,576.2599999999948,,response,,,,,,,,,3,,3,click #choice-3,,,,,I,O,S,,103340,103334,102741.06,102743,102757.74,103357.76,,,
Trial,flow.Sequence,1_3_2,2021-04-26T19:00:00.423Z,,,,,,,,,,,,,,,,,,,,,,,,,,,,,,,4826.479999999996,,completion,,,,,,,,,3,,,,,,,,I,O,S,,103341,103334,98490.84,98484,98507.52,103357.76,,,
Sounds,html.Screen,1_3_3_0,2021-04-26T19:00:04.678Z,,,,,,,,,,,,,,,,,,,,,,,,,,,,,,,4250.200000000012,,timeout,,,,,,,,,2,,,,,,,,I,S,O,,107597,107591.28,103341.1,103342,103357.76,107607.96,,,
Judgement,html.Screen,1_3_3_1,2021-04-26T19:00:05.224Z,,,,,,,,,,,,,,,,,,,,,,,,,,,,true,2,,523.0399999999936,,response,,,,,,,,,2,,2,click #choice-2,,,,,I,S,O,,108142,108131,107591.28,107600,107607.96,108157.98,,,
Trial,flow.Sequence,1_3_3,2021-04-26T19:00:05.226Z,,,,,,,,,,,,,,,,,,,,,,,,,,,,,,,4773.240000000005,,completion,,,,,,,,,2,,,,,,,,I,S,O,,108145,108131,103341.1,103342,103357.76,108157.98,,,
Sounds,html.Screen,1_3_4_0,2021-04-26T19:00:09.476Z,,,,,,,,,,,,,,,,,,,,,,,,,,,,,,,4250.199999999997,,timeout,,,,,,,,,3,,,,,,,,O,I,S,,112393,112391.54,108141.32,108145,108157.98,112408.18,,,
Judgement,html.Screen,1_3_4_1,2021-04-26T19:00:10.080Z,,,,,,,,,,,,,,,,,,,,,,,,,,,,true,3,,581.820000000007,,response,,,,,,,,,3,,3,click #choice-3,,,,,O,I,S,,112998,112990,112391.54,112395,112408.18,113024.88,,,
Trial,flow.Sequence,1_3_4,2021-04-26T19:00:10.081Z,,,,,,,,,,,,,,,,,,,,,,,,,,,,,,,4832.020000000004,,completion,,,,,,,,,3,,,,,,,,O,I,S,,112999,112990,108141.32,108145,108157.98,113024.88,,,
Sounds,html.Screen,1_3_5_0,2021-04-26T19:00:14.342Z,,,,,,,,,,,,,,,,,,,,,,,,,,,,,,,4250.220000000001,,timeout,,,,,,,,,2,,,,,,,,O,S,I,,117260,117258.42,113008.2,113001,113024.88,117275.1,,,
Judgement,html.Screen,1_3_5_1,2021-04-26T19:00:14.879Z,,,,,,,,,,,,,,,,,,,,,,,,,,,,true,2,,511.8999999999942,,response,,,,,,,,,2,,2,click #choice-2,,,,,O,S,I,,117798,117787,117258.42,117261,117275.1,117858.46,,,
Trial,flow.Sequence,1_3_5,2021-04-26T19:00:14.881Z,,,,,,,,,,,,,,,,,,,,,,,,,,,,,,,4762.119999999995,,completion,,,,,,,,,2,,,,,,,,O,S,I,,117799,117787,113008.2,113001,113024.88,117858.46,,,
Task,flow.Loop,1_3,2021-04-26T19:00:14.886Z,,,,,,,,,,,,,,,,,,,,,,,,,,,,,,,29379.979999999996,,completion,,,1,,,,,,,,,,,,,,,,,,117804,117787,88390.36,88379,88407.02,117858.46,,,
Trap,html.Screen,1_4,2021-04-26T19:00:14.896Z,,,,,,,,,,,,,,,,,,,,,,,,,,,,,,,NaN,,skipped,,,,,,,,,,,,,,,,,,,,,117814,117787,,117813,,117858.46,,,
Thanks,html.Screen,1_5,2021-04-26T19:00:22.000Z,,,,,,,,,,,,,,,,,,,,,,,,,,,,,,,7053.539999999994,,response,,,,,,,,,,,continue,click button,,,,,,,,,124919,124912,117808.46,117815,117858.46,127342.26,,,
Headphone screening,flow.Sequence,1,2021-04-26T19:00:22.001Z,,,,,,,,,,,,,,,,,,,,,,,,,,,,,,,79840.42,,completion,,,,,,,,,,,,,,,,,,,,,124920,124912,45054.9,45058,45071.58,127342.26,,,
Instructions,html.Page,2_0,2021-04-26T19:00:51.330Z,,,,,,,,,,,,,,,,,,,,,,,,,,,,,,,26905.740000000005,,form submission,,,,,,,,,,,,,,,,,,,,,154248,154248,127325.58,127311,127342.26,154260.26,,,
Holding screen,html.Screen,2_1_0_0,2021-04-26T19:01:01.327Z,,,,,,,,,,,,,,,,,,,,,,,,,,,,,,,10067.139999999985,,timeout,,,,,,,,,,,,,,,,,,,,,164245,164244.06,154243.58,154249,154260.26,164327.4,,,
screen,html.Screen,2_1_0_1_0,2021-04-26T19:01:02.343Z,,,,,,,,,,,,,,,,,53,,,,,,,,,,,,,,929.6000000000058,,response,,,,99,,,,,,,Space,keypress(Space),,,,,,,,When -- ----- -- ------ - ------- --- ----------<br>------------- ------ ------ ---- ---- ------- ----- -- ----<br>-------- ------- -- ---------- --- - --- ----- ----- ----<br>---- --- --- ----- --- ---- ---- ------- ----- ---- -------<br>--- --- -- ----- -- --- ---- -- --- ---- -- ------ ------<br>--- ----- -- ----,165262,165257,164244.06,164246,164327.4,165294.12,,0,When
screen,html.Screen,2_1_0_1_1,2021-04-26T19:01:02.975Z,,,,,,,,,,,,,,,,,53,,,,,,,,,,,,,,586.8800000000047,,response,,,,99,,,,,,,Space,keypress(Space),,,,,,,,---- it ----- -- ------ - ------- --- ----------<br>------------- ------ ------ ---- ---- ------- ----- -- ----<br>-------- ------- -- ---------- --- - --- ----- ----- ----<br>---- --- --- ----- --- ---- ---- ------- ----- ---- -------<br>--- --- -- ----- -- --- ---- -- --- ---- -- ------ ------<br>--- ----- -- ----,165893,165881,165277.46,165263,165294.12,165910.82,,1,it
screen,html.Screen,2_1_0_1_2,2021-04-26T19:01:03.809Z,,,,,,,,,,,,,,,,,53,,,,,,,,,,,,,,813.179999999993,,response,,,,99,,,,,,,Space,keypress(Space),,,,,,,,---- -- comes -- ------ - ------- --- ----------<br>------------- ------ ------ ---- ---- ------- ----- -- ----<br>-------- ------- -- ---------- --- - --- ----- ----- ----<br>---- --- --- ----- --- ---- ---- ------- ----- ---- -------<br>--- --- -- ----- -- --- ---- -- --- ---- -- ------ ------<br>--- ----- -- ----,166727,166724,165894.14,165894,165910.82,166760.86,,2,comes
screen,html.Screen,2_1_0_1_3,2021-04-26T19:01:04.375Z,,,,,,,,,,,,,,,,,53,,,,,,,,,,,,,,526.140000000014,,response,,,,99,,,,,,,Space,keypress(Space),,,,,,,,---- -- ----- to ------ - ------- --- ----------<br>------------- ------ ------ ---- ---- ------- ----- -- ----<br>-------- ------- -- ---------- --- - --- ----- ----- ----<br>---- --- --- ----- --- ---- ---- ------- ----- ---- -------<br>--- --- -- ----- -- --- ---- -- --- ---- -- ------ ------<br>--- ----- -- ----,167293,167287,166744.2,166728,166760.86,167310.88,,3,to
screen,html.Screen,2_1_0_1_4,2021-04-26T19:01:04.922Z,,,,,,,,,,,,,,,,,53,,,,,,,,,,,,,,524.1199999999953,,response,,,,99,,,,,,,Space,keypress(Space),,,,,,,,---- -- ----- -- having - ------- --- ----------<br>------------- ------ ------ ---- ---- ------- ----- -- ----<br>-------- ------- -- ---------- --- - --- ----- ----- ----<br>---- --- --- ----- --- ---- ---- ------- ----- ---- -------<br>--- --- -- ----- -- --- ---- -- --- ---- -- ------ ------<br>--- ----- -- ----,167841,167835,167294.22,167294,167310.88,167860.92,,4,having
screen,html.Screen,2_1_0_1_5,2021-04-26T19:01:05.435Z,,,,,,,,,,,,,,,,,53,,,,,,,,,,,,,,489.0799999999872,,response,,,,99,,,,,,,Space,keypress(Space),,,,,,,,---- -- ----- -- ------ a ------- --- ----------<br>------------- ------ ------ ---- ---- ------- ----- -- ----<br>-------- ------- -- ---------- --- - --- ----- ----- ----<br>---- --- --- ----- --- ---- ---- ------- ----- ---- -------<br>--- --- -- ----- -- --- ---- -- --- ---- -- ------ ------<br>--- ----- -- ----,168352,168350,167844.26,167842,167860.92,168377.58,,5,a
screen,html.Screen,2_1_0_1_6,2021-04-26T19:01:06.007Z,,,,,,,,,,,,,,,,,53,,,,,,,,,,,,,,535.4200000000128,,response,,,,99,,,,,,,Space,keypress(Space),,,,,,,,---- -- ----- -- ------ - lasting --- ----------<br>------------- ------ ------ ---- ---- ------- ----- -- ----<br>-------- ------- -- ---------- --- - --- ----- ----- ----<br>---- --- --- ----- --- ---- ---- ------- ----- ---- -------<br>--- --- -- ----- -- --- ---- -- --- ---- -- ------ ------<br>--- ----- -- ----,168925,168913,168360.9,168353,168377.58,168944.28,,6,lasting
screen,html.Screen,2_1_0_1_7,2021-04-26T19:01:06.540Z,,,,,,,,,,,,,,,,,53,,,,,,,,,,,,,,499.72000000000116,,response,,,,99,,,,,,,Space,keypress(Space),,,,,,,,---- -- ----- -- ------ - ------- and ----------<br>------------- ------ ------ ---- ---- ------- ----- -- ----<br>-------- ------- -- ---------- --- - --- ----- ----- ----<br>---- --- --- ----- --- ---- ---- ------- ----- ---- -------<br>--- --- -- ----- -- --- ---- -- --- ---- -- ------ ------<br>--- ----- -- ----,169458,169444,168927.6,168926,168944.28,169477.64,,7,and
screen,html.Screen,2_1_0_1_8,2021-04-26T19:01:07.112Z,,,,,,,,,,,,,,,,,53,,,,,,,,,,,,,,543.359999999986,,response,,,,99,,,,,,,Space,keypress(Space),,,,,,,,---- -- ----- -- ------ - ------- --- fulfilling<br>------------- ------ ------ ---- ---- ------- ----- -- ----<br>-------- ------- -- ---------- --- - --- ----- ----- ----<br>---- --- --- ----- --- ---- ---- ------- ----- ---- -------<br>--- --- -- ----- -- --- ---- -- --- ---- -- ------ ------<br>--- ----- -- ----,170030,170021,169460.96,169459,169477.64,170061,,8,fulfilling
screen,html.Screen,2_1_0_1_9,2021-04-26T19:01:07.716Z,,,,,,,,,,,,,,,,,53,,,,,,,,,,,,,,570,,response,,,,99,,,,,,,Space,keypress(Space),,,,,,,,"---- -- ----- -- ------ - ------- --- ----------<br>relationship, ------ ------ ---- ---- ------- ----- -- ----<br>-------- ------- -- ---------- --- - --- ----- ----- ----<br>---- --- --- ----- --- ---- ---- ------- ----- ---- -------<br>--- --- -- ----- -- --- ---- -- --- ---- -- ------ ------<br>--- ----- -- ----",170634,170631,170044.32,170031,170061,170661.02,,9,"relationship,"
screen,html.Screen,2_1_0_1_10,2021-04-26T19:01:08.297Z,,,,,,,,,,,,,,,,,53,,,,,,,,,,,,,,547.9800000000105,,response,,,,99,,,,,,,Space,keypress(Space),,,,,,,,---- -- ----- -- ------ - ------- --- ----------<br>------------- common ------ ---- ---- ------- ----- -- ----<br>-------- ------- -- ---------- --- - --- ----- ----- ----<br>---- --- --- ----- --- ---- ---- ------- ----- ---- -------<br>--- --- -- ----- -- --- ---- -- --- ---- -- ------ ------<br>--- ----- -- ----,171216,171209,170644.36,170635,170661.02,171244.38,,10,common
screen,html.Screen,2_1_0_1_11,2021-04-26T19:01:08.862Z,,,,,,,,,,,,,,,,,53,,,,,,,,,,,,,,526.6199999999953,,response,,,,99,,,,,,,Space,keypress(Space),,,,,,,,---- -- ----- -- ------ - ------- --- ----------<br>------------- ------ wisdom ---- ---- ------- ----- -- ----<br>-------- ------- -- ---------- --- - --- ----- ----- ----<br>---- --- --- ----- --- ---- ---- ------- ----- ---- -------<br>--- --- -- ----- -- --- ---- -- --- ---- -- ------ ------<br>--- ----- -- ----,171780,171771,171227.72,171216,171244.38,171811.08,,11,wisdom
screen,html.Screen,2_1_0_1_12,2021-04-26T19:01:09.493Z,,,,,,,,,,,,,,,,,53,,,,,,,,,,,,,,584.9200000000128,,response,,,,99,,,,,,,Space,keypress(Space),,,,,,,,---- -- ----- -- ------ - ------- --- ----------<br>------------- ------ ------ says ---- ------- ----- -- ----<br>-------- ------- -- ---------- --- - --- ----- ----- ----<br>---- --- --- ----- --- ---- ---- ------- ----- ---- -------<br>--- --- -- ----- -- --- ---- -- --- ---- -- ------ ------<br>--- ----- -- ----,172412,172396,171794.42,171781,171811.08,172444.46,,12,says
screen,html.Screen,2_1_0_1_13,2021-04-26T19:01:09.966Z,,,,,,,,,,,,,,,,,53,,,,,,,,,,,,,,436.54000000000815,,response,,,,99,,,,,,,Space,keypress(Space),,,,,,,,---- -- ----- -- ------ - ------- --- ----------<br>------------- ------ ------ ---- that ------- ----- -- ----<br>-------- ------- -- ---------- --- - --- ----- ----- ----<br>---- --- --- ----- --- ---- ---- ------- ----- ---- -------<br>--- --- -- ----- -- --- ---- -- --- ---- -- ------ ------<br>--- ----- -- ----,172884,172881,172427.78,172413,172444.46,172911.14,,13,that
screen,html.Screen,2_1_0_1_14,2021-04-26T19:01:10.505Z,,,,,,,,,,,,,,,,,53,,,,,,,,,,,,,,501.85999999998603,,response,,,,99,,,,,,,Space,keypress(Space),,,,,,,,---- -- ----- -- ------ - ------- --- ----------<br>------------- ------ ------ ---- ---- feeling ----- -- ----<br>-------- ------- -- ---------- --- - --- ----- ----- ----<br>---- --- --- ----- --- ---- ---- ------- ----- ---- -------<br>--- --- -- ----- -- --- ---- -- --- ---- -- ------ ------<br>--- ----- -- ----,173424,173413,172894.48,172885,172911.14,173444.5,,14,feeling
screen,html.Screen,2_1_0_1_15,2021-04-26T19:01:11.460Z,,,,,,,,,,,,,,,,,53,,,,,,,,,,,,,,921.5,,response,,,,99,,,,,,,Space,keypress(Space),,,,,,,,---- -- ----- -- ------ - ------- --- ----------<br>------------- ------ ------ ---- ---- ------- close -- ----<br>-------- ------- -- ---------- --- - --- ----- ----- ----<br>---- --- --- ----- --- ---- ---- ------- ----- ---- -------<br>--- --- -- ----- -- --- ---- -- --- ---- -- ------ ------<br>--- ----- -- ----,174379,174366,173427.84,173425,173444.5,174411.22,,15,close
screen,html.Screen,2_1_0_1_16,2021-04-26T19:01:12.050Z,,,,,,,,,,,,,,,,,53,,,,,,,,,,,,,,547.7799999999988,,response,,,,99,,,,,,,Space,keypress(Space),,,,,,,,---- -- ----- -- ------ - ------- --- ----------<br>------------- ------ ------ ---- ---- ------- ----- to ----<br>-------- ------- -- ---------- --- - --- ----- ----- ----<br>---- --- --- ----- --- ---- ---- ------- ----- ---- -------<br>--- --- -- ----- -- --- ---- -- --- ---- -- ------ ------<br>--- ----- -- ----,174968,174959,174394.56,174380,174411.22,174994.58,,16,to
screen,html.Screen,2_1_0_1_17,2021-04-26T19:01:12.591Z,,,,,,,,,,,,,,,,,53,,,,,,,,,,,,,,511.4200000000128,,response,,,,99,,,,,,,Space,keypress(Space),,,,,,,,---- -- ----- -- ------ - ------- --- ----------<br>------------- ------ ------ ---- ---- ------- ----- -- your<br>-------- ------- -- ---------- --- - --- ----- ----- ----<br>---- --- --- ----- --- ---- ---- ------- ----- ---- -------<br>--- --- -- ----- -- --- ---- -- --- ---- -- ------ ------<br>--- ----- -- ----,175510,175506,174977.92,174969,174994.58,175527.94,,17,your
screen,html.Screen,2_1_0_1_18,2021-04-26T19:01:13.145Z,,,,,,,,,,,,,,,,,53,,,,,,,,,,,,,,525.0599999999977,,response,,,,99,,,,,,,Space,keypress(Space),,,,,,,,---- -- ----- -- ------ - ------- --- ----------<br>------------- ------ ------ ---- ---- ------- ----- -- ----<br>romantic ------- -- ---------- --- - --- ----- ----- ----<br>---- --- --- ----- --- ---- ---- ------- ----- ---- -------<br>--- --- -- ----- -- --- ---- -- --- ---- -- ------ ------<br>--- ----- -- ----,176064,176053,175511.28,175511,175527.94,176094.64,,18,romantic
screen,html.Screen,2_1_0_1_19,2021-04-26T19:01:14.113Z,,,,,,,,,,,,,,,,,53,,,,,,,,,,,,,,926.359999999986,,response,,,,99,,,,,,,Space,keypress(Space),,,,,,,,---- -- ----- -- ------ - ------- --- ----------<br>------------- ------ ------ ---- ---- ------- ----- -- ----<br>-------- partner -- ---------- --- - --- ----- ----- ----<br>---- --- --- ----- --- ---- ---- ------- ----- ---- -------<br>--- --- -- ----- -- --- ---- -- --- ---- -- ------ ------<br>--- ----- -- ----,177032,177021,176077.98,176065,176094.64,177061.36,,19,partner
screen,html.Screen,2_1_0_1_20,2021-04-26T19:01:14.639Z,,,,,,,,,,,,,,,,,53,,,,,,,,,,,,,,491.64000000001397,,response,,,,99,,,,,,,Space,keypress(Space),,,,,,,,---- -- ----- -- ------ - ------- --- ----------<br>------------- ------ ------ ---- ---- ------- ----- -- ----<br>-------- ------- is ---------- --- - --- ----- ----- ----<br>---- --- --- ----- --- ---- ---- ------- ----- ---- -------<br>--- --- -- ----- -- --- ---- -- --- ---- -- ------ ------<br>--- ----- -- ----,177558,177553,177044.7,177033,177061.36,177578.06,,20,is
screen,html.Screen,2_1_0_1_21,2021-04-26T19:01:15.278Z,,,,,,,,,,,,,,,,,53,,,,,,,,,,,,,,614.9400000000023,,response,,,,99,,,,,,,Space,keypress(Space),,,,,,,,---- -- ----- -- ------ - ------- --- ----------<br>------------- ------ ------ ---- ---- ------- ----- -- ----<br>-------- ------- -- paramount. --- - --- ----- ----- ----<br>---- --- --- ----- --- ---- ---- ------- ----- ---- -------<br>--- --- -- ----- -- --- ---- -- --- ---- -- ------ ------<br>--- ----- -- ----,178196,178193,177561.38,177558,177578.06,178228.08,,21,paramount.
screen,html.Screen,2_1_0_1_22,2021-04-26T19:01:15.860Z,,,,,,,,,,,,,,,,,53,,,,,,,,,,,,,,543.9200000000128,,response,,,,99,,,,,,,Space,keypress(Space),,,,,,,,---- -- ----- -- ------ - ------- --- ----------<br>------------- ------ ------ ---- ---- ------- ----- -- ----<br>-------- ------- -- ---------- But - --- ----- ----- ----<br>---- --- --- ----- --- ---- ---- ------- ----- ---- -------<br>--- --- -- ----- -- --- ---- -- --- ---- -- ------ ------<br>--- ----- -- ----,178778,178772,178211.42,178197,178228.08,178811.44,,22,But
screen,html.Screen,2_1_0_1_23,2021-04-26T19:01:16.405Z,,,,,,,,,,,,,,,,,53,,,,,,,,,,,,,,506.5599999999977,,response,,,,99,,,,,,,Space,keypress(Space),,,,,,,,---- -- ----- -- ------ - ------- --- ----------<br>------------- ------ ------ ---- ---- ------- ----- -- ----<br>-------- ------- -- ---------- --- a --- ----- ----- ----<br>---- --- --- ----- --- ---- ---- ------- ----- ---- -------<br>--- --- -- ----- -- --- ---- -- --- ---- -- ------ ------<br>--- ----- -- ----,179324,179318,178794.78,178779,178811.44,179344.8,,23,a
screen,html.Screen,2_1_0_1_24,2021-04-26T19:01:17.363Z,,,,,,,,,,,,,,,,,53,,,,,,,,,,,,,,926.2000000000116,,response,,,,99,,,,,,,Space,keypress(Space),,,,,,,,---- -- ----- -- ------ - ------- --- ----------<br>------------- ------ ------ ---- ---- ------- ----- -- ----<br>-------- ------- -- ---------- --- - new ----- ----- ----<br>---- --- --- ----- --- ---- ---- ------- ----- ---- -------<br>--- --- -- ----- -- --- ---- -- --- ---- -- ------ ------<br>--- ----- -- ----,180281,180271,179328.14,179324,179344.8,180311.52,,24,new
screen,html.Screen,2_1_0_1_25,2021-04-26T19:01:17.948Z,,,,,,,,,,,,,,,,,53,,,,,,,,,,,,,,537.4800000000105,,response,,,,99,,,,,,,Space,keypress(Space),,,,,,,,---- -- ----- -- ------ - ------- --- ----------<br>------------- ------ ------ ---- ---- ------- ----- -- ----<br>-------- ------- -- ---------- --- - --- study ----- ----<br>---- --- --- ----- --- ---- ---- ------- ----- ---- -------<br>--- --- -- ----- -- --- ---- -- --- ---- -- ------ ------<br>--- ----- -- ----,180867,180849,180294.86,180281,180311.52,180894.88,,25,study
screen,html.Screen,2_1_0_1_26,2021-04-26T19:01:18.483Z,,,,,,,,,,,,,,,,,53,,,,,,,,,,,,,,501.11999999999534,,response,,,,99,,,,,,,Space,keypress(Space),,,,,,,,---- -- ----- -- ------ - ------- --- ----------<br>------------- ------ ------ ---- ---- ------- ----- -- ----<br>-------- ------- -- ---------- --- - --- ----- finds ----<br>---- --- --- ----- --- ---- ---- ------- ----- ---- -------<br>--- --- -- ----- -- --- ---- -- --- ---- -- ------ ------<br>--- ----- -- ----,181403,181396,180878.22,180867,180894.88,181428.24,,26,finds
screen,html.Screen,2_1_0_1_27,2021-04-26T19:01:19.015Z,,,,,,,,,,,,,,,,,53,,,,,,,,,,,,,,498.7600000000093,,response,,,,99,,,,,,,Space,keypress(Space),,,,,,,,---- -- ----- -- ------ - ------- --- ----------<br>------------- ------ ------ ---- ---- ------- ----- -- ----<br>-------- ------- -- ---------- --- - --- ----- ----- that<br>---- --- --- ----- --- ---- ---- ------- ----- ---- -------<br>--- --- -- ----- -- --- ---- -- --- ---- -- ------ ------<br>--- ----- -- ----,181933,181927,181411.58,181403,181428.24,181961.6,,27,that
screen,html.Screen,2_1_0_1_28,2021-04-26T19:01:19.560Z,,,,,,,,,,,,,,,,,53,,,,,,,,,,,,,,512.3999999999942,,response,,,,99,,,,,,,Space,keypress(Space),,,,,,,,---- -- ----- -- ------ - ------- --- ----------<br>------------- ------ ------ ---- ---- ------- ----- -- ----<br>-------- ------- -- ---------- --- - --- ----- ----- ----<br>it's --- --- ----- --- ---- ---- ------- ----- ---- -------<br>--- --- -- ----- -- --- ---- -- --- ---- -- ------ ------<br>--- ----- -- ----,182478,182474,181944.94,181934,181961.6,182511.62,,28,it's
screen,html.Screen,2_1_0_1_29,2021-04-26T19:01:20.073Z,,,,,,,,,,,,,,,,,53,,,,,,,,,,,,,,462.38000000000466,,response,,,,99,,,,,,,Space,keypress(Space),,,,,,,,---- -- ----- -- ------ - ------- --- ----------<br>------------- ------ ------ ---- ---- ------- ----- -- ----<br>-------- ------- -- ---------- --- - --- ----- ----- ----<br>---- not --- ----- --- ---- ---- ------- ----- ---- -------<br>--- --- -- ----- -- --- ---- -- --- ---- -- ------ ------<br>--- ----- -- ----,182991,182974,182494.96,182479,182511.62,183011.66,,29,not
screen,html.Screen,2_1_0_1_30,2021-04-26T19:01:20.611Z,,,,,,,,,,,,,,,,,53,,,,,,,,,,,,,,509.3399999999965,,response,,,,99,,,,,,,Space,keypress(Space),,,,,,,,---- -- ----- -- ------ - ------- --- ----------<br>------------- ------ ------ ---- ---- ------- ----- -- ----<br>-------- ------- -- ---------- --- - --- ----- ----- ----<br>---- --- how ----- --- ---- ---- ------- ----- ---- -------<br>--- --- -- ----- -- --- ---- -- --- ---- -- ------ ------<br>--- ----- -- ----,183529,183521,182994.98,182992,183011.66,183561.68,,30,how
screen,html.Screen,2_1_0_1_31,2021-04-26T19:01:21.097Z,,,,,,,,,,,,,,,,,53,,,,,,,,,,,,,,444.320000000007,,response,,,,99,,,,,,,Space,keypress(Space),,,,,,,,---- -- ----- -- ------ - ------- --- ----------<br>------------- ------ ------ ---- ---- ------- ----- -- ----<br>-------- ------- -- ---------- --- - --- ----- ----- ----<br>---- --- --- close --- ---- ---- ------- ----- ---- -------<br>--- --- -- ----- -- --- ---- -- --- ---- -- ------ ------<br>--- ----- -- ----,184015,184006,183545.02,183530,183561.68,184045.04,,31,close
screen,html.Screen,2_1_0_1_32,2021-04-26T19:01:21.537Z,,,,,,,,,,,,,,,,,53,,,,,,,,,,,,,,397.95999999999185,,response,,,,99,,,,,,,Space,keypress(Space),,,,,,,,---- -- ----- -- ------ - ------- --- ----------<br>------------- ------ ------ ---- ---- ------- ----- -- ----<br>-------- ------- -- ---------- --- - --- ----- ----- ----<br>---- --- --- ----- you ---- ---- ------- ----- ---- -------<br>--- --- -- ----- -- --- ---- -- --- ---- -- ------ ------<br>--- ----- -- ----,184455,184443,184028.38,184016,184045.04,184478.4,,32,you
screen,html.Screen,2_1_0_1_33,2021-04-26T19:01:21.969Z,,,,,,,,,,,,,,,,,53,,,,,,,,,,,,,,402.6000000000058,,response,,,,99,,,,,,,Space,keypress(Space),,,,,,,,---- -- ----- -- ------ - ------- --- ----------<br>------------- ------ ------ ---- ---- ------- ----- -- ----<br>-------- ------- -- ---------- --- - --- ----- ----- ----<br>---- --- --- ----- --- feel ---- ------- ----- ---- -------<br>--- --- -- ----- -- --- ---- -- --- ---- -- ------ ------<br>--- ----- -- ----,184887,184881,184461.72,184456,184478.4,184911.74,,33,feel
screen,html.Screen,2_1_0_1_34,2021-04-26T19:01:22.389Z,,,,,,,,,,,,,,,,,53,,,,,,,,,,,,,,390.2600000000093,,response,,,,99,,,,,,,Space,keypress(Space),,,,,,,,---- -- ----- -- ------ - ------- --- ----------<br>------------- ------ ------ ---- ---- ------- ----- -- ----<br>-------- ------- -- ---------- --- - --- ----- ----- ----<br>---- --- --- ----- --- ---- that ------- ----- ---- -------<br>--- --- -- ----- -- --- ---- -- --- ---- -- ------ ------<br>--- ----- -- ----,185307,185302,184895.08,184888,184911.74,185328.44,,34,that
screen,html.Screen,2_1_0_1_35,2021-04-26T19:01:22.835Z,,,,,,,,,,,,,,,,,53,,,,,,,,,,,,,,411.5599999999977,,response,,,,99,,,,,,,Space,keypress(Space),,,,,,,,---- -- ----- -- ------ - ------- --- ----------<br>------------- ------ ------ ---- ---- ------- ----- -- ----<br>-------- ------- -- ---------- --- - --- ----- ----- ----<br>---- --- --- ----- --- ---- ---- matters ----- ---- -------<br>--- --- -- ----- -- --- ---- -- --- ---- -- ------ ------<br>--- ----- -- ----,185753,185740,185311.76,185308,185328.44,185778.46,,35,matters
screen,html.Screen,2_1_0_1_36,2021-04-26T19:01:23.484Z,,,,,,,,,,,,,,,,,53,,,,,,,,,,,,,,617.5400000000081,,response,,,,99,,,,,,,Space,keypress(Space),,,,,,,,"---- -- ----- -- ------ - ------- --- ----------<br>------------- ------ ------ ---- ---- ------- ----- -- ----<br>-------- ------- -- ---------- --- - --- ----- ----- ----<br>---- --- --- ----- --- ---- ---- ------- most, ---- -------<br>--- --- -- ----- -- --- ---- -- --- ---- -- ------ ------<br>--- ----- -- ----",186401,186396,185761.78,185754,185778.46,186428.48,,36,"most,"
screen,html.Screen,2_1_0_1_37,2021-04-26T19:01:23.950Z,,,,,,,,,,,,,,,,,53,,,,,,,,,,,,,,437.5199999999895,,response,,,,99,,,,,,,Space,keypress(Space),,,,,,,,---- -- ----- -- ------ - ------- --- ----------<br>------------- ------ ------ ---- ---- ------- ----- -- ----<br>-------- ------- -- ---------- --- - --- ----- ----- ----<br>---- --- --- ----- --- ---- ---- ------- ----- it's -------<br>--- --- -- ----- -- --- ---- -- --- ---- -- ------ ------<br>--- ----- -- ----,186869,186866,186411.82,186402,186428.48,186895.18,,37,it's
screen,html.Screen,2_1_0_1_38,2021-04-26T19:01:24.414Z,,,,,,,,,,,,,,,,,53,,,,,,,,,,,,,,422.820000000007,,response,,,,99,,,,,,,Space,keypress(Space),,,,,,,,---- -- ----- -- ------ - ------- --- ----------<br>------------- ------ ------ ---- ---- ------- ----- -- ----<br>-------- ------- -- ---------- --- - --- ----- ----- ----<br>---- --- --- ----- --- ---- ---- ------- ----- ---- whether<br>--- --- -- ----- -- --- ---- -- --- ---- -- ------ ------<br>--- ----- -- ----,187333,187318,186878.5,186869,186895.18,187361.86,,38,whether
screen,html.Screen,2_1_0_1_39,2021-04-26T19:01:24.856Z,,,,,,,,,,,,,,,,,53,,,,,,,,,,,,,,394.14000000001397,,response,,,,99,,,,,,,Space,keypress(Space),,,,,,,,---- -- ----- -- ------ - ------- --- ----------<br>------------- ------ ------ ---- ---- ------- ----- -- ----<br>-------- ------- -- ---------- --- - --- ----- ----- ----<br>---- --- --- ----- --- ---- ---- ------- ----- ---- -------<br>you --- -- ----- -- --- ---- -- --- ---- -- ------ ------<br>--- ----- -- ----,187774,187756,187345.2,187333,187361.86,187795.22,,39,you
screen,html.Screen,2_1_0_1_40,2021-04-26T19:01:25.313Z,,,,,,,,,,,,,,,,,53,,,,,,,,,,,,,,429.77999999999884,,response,,,,99,,,,,,,Space,keypress(Space),,,,,,,,---- -- ----- -- ------ - ------- --- ----------<br>------------- ------ ------ ---- ---- ------- ----- -- ----<br>-------- ------- -- ---------- --- - --- ----- ----- ----<br>---- --- --- ----- --- ---- ---- ------- ----- ---- -------<br>--- are -- ----- -- --- ---- -- --- ---- -- ------ ------<br>--- ----- -- ----,188231,188225,187778.56,187774,187795.22,188261.88,,40,are
screen,html.Screen,2_1_0_1_41,2021-04-26T19:01:25.757Z,,,,,,,,,,,,,,,,,53,,,,,,,,,,,,,,401.11999999999534,,response,,,,99,,,,,,,Space,keypress(Space),,,,,,,,---- -- ----- -- ------ - ------- --- ----------<br>------------- ------ ------ ---- ---- ------- ----- -- ----<br>-------- ------- -- ---------- --- - --- ----- ----- ----<br>---- --- --- ----- --- ---- ---- ------- ----- ---- -------<br>--- --- as ----- -- --- ---- -- --- ---- -- ------ ------<br>--- ----- -- ----,188676,188663,188245.2,188232,188261.88,188695.24,,41,as
screen,html.Screen,2_1_0_1_42,2021-04-26T19:01:26.244Z,,,,,,,,,,,,,,,,,53,,,,,,,,,,,,,,450.7600000000093,,response,,,,99,,,,,,,Space,keypress(Space),,,,,,,,---- -- ----- -- ------ - ------- --- ----------<br>------------- ------ ------ ---- ---- ------- ----- -- ----<br>-------- ------- -- ---------- --- - --- ----- ----- ----<br>---- --- --- ----- --- ---- ---- ------- ----- ---- -------<br>--- --- -- close -- --- ---- -- --- ---- -- ------ ------<br>--- ----- -- ----,189162,189146,188678.56,188676,188695.24,189195.26,,42,close
screen,html.Screen,2_1_0_1_43,2021-04-26T19:01:26.707Z,,,,,,,,,,,,,,,,,53,,,,,,,,,,,,,,419.7399999999907,,response,,,,99,,,,,,,Space,keypress(Space),,,,,,,,---- -- ----- -- ------ - ------- --- ----------<br>------------- ------ ------ ---- ---- ------- ----- -- ----<br>-------- ------- -- ---------- --- - --- ----- ----- ----<br>---- --- --- ----- --- ---- ---- ------- ----- ---- -------<br>--- --- -- ----- as --- ---- -- --- ---- -- ------ ------<br>--- ----- -- ----,189625,189615,189178.6,189163,189195.26,189645.28,,43,as
screen,html.Screen,2_1_0_1_44,2021-04-26T19:01:27.174Z,,,,,,,,,,,,,,,,,53,,,,,,,,,,,,,,439.72000000000116,,response,,,,99,,,,,,,Space,keypress(Space),,,,,,,,---- -- ----- -- ------ - ------- --- ----------<br>------------- ------ ------ ---- ---- ------- ----- -- ----<br>-------- ------- -- ---------- --- - --- ----- ----- ----<br>---- --- --- ----- --- ---- ---- ------- ----- ---- -------<br>--- --- -- ----- -- you ---- -- --- ---- -- ------ ------<br>--- ----- -- ----,190093,190085,189628.62,189626,189645.28,190111.98,,44,you
screen,html.Screen,2_1_0_1_45,2021-04-26T19:01:27.655Z,,,,,,,,,,,,,,,,,53,,,,,,,,,,,,,,457.0199999999895,,response,,,,99,,,,,,,Space,keypress(Space),,,,,,,,---- -- ----- -- ------ - ------- --- ----------<br>------------- ------ ------ ---- ---- ------- ----- -- ----<br>-------- ------- -- ---------- --- - --- ----- ----- ----<br>---- --- --- ----- --- ---- ---- ------- ----- ---- -------<br>--- --- -- ----- -- --- want -- --- ---- -- ------ ------<br>--- ----- -- ----,190574,190569,190095.3,190093,190111.98,190595.34,,45,want
screen,html.Screen,2_1_0_1_46,2021-04-26T19:01:28.150Z,,,,,,,,,,,,,,,,,53,,,,,,,,,,,,,,456.6600000000035,,response,,,,99,,,,,,,Space,keypress(Space),,,,,,,,---- -- ----- -- ------ - ------- --- ----------<br>------------- ------ ------ ---- ---- ------- ----- -- ----<br>-------- ------- -- ---------- --- - --- ----- ----- ----<br>---- --- --- ----- --- ---- ---- ------- ----- ---- -------<br>--- --- -- ----- -- --- ---- to --- ---- -- ------ ------<br>--- ----- -- ----,191068,191052,190578.66,190574,190595.34,191095.36,,46,to
screen,html.Screen,2_1_0_1_47,2021-04-26T19:01:28.604Z,,,,,,,,,,,,,,,,,53,,,,,,,,,,,,,,410.64000000001397,,response,,,,99,,,,,,,Space,keypress(Space),,,,,,,,"---- -- ----- -- ------ - ------- --- ----------<br>------------- ------ ------ ---- ---- ------- ----- -- ----<br>-------- ------- -- ---------- --- - --- ----- ----- ----<br>---- --- --- ----- --- ---- ---- ------- ----- ---- -------<br>--- --- -- ----- -- --- ---- -- be, ---- -- ------ ------<br>--- ----- -- ----",191523,191506,191078.68,191069,191095.36,191545.38,,47,"be,"
screen,html.Screen,2_1_0_1_48,2021-04-26T19:01:29.097Z,,,,,,,,,,,,,,,,,53,,,,,,,,,,,,,,460.61999999999534,,response,,,,99,,,,,,,Space,keypress(Space),,,,,,,,---- -- ----- -- ------ - ------- --- ----------<br>------------- ------ ------ ---- ---- ------- ----- -- ----<br>-------- ------- -- ---------- --- - --- ----- ----- ----<br>---- --- --- ----- --- ---- ---- ------- ----- ---- -------<br>--- --- -- ----- -- --- ---- -- --- even -- ------ ------<br>--- ----- -- ----,192016,192006,191528.72,191524,191545.38,192045.4,,48,even
screen,html.Screen,2_1_0_1_49,2021-04-26T19:01:29.553Z,,,,,,,,,,,,,,,,,53,,,,,,,,,,,,,,413.6000000000058,,response,,,,99,,,,,,,Space,keypress(Space),,,,,,,,---- -- ----- -- ------ - ------- --- ----------<br>------------- ------ ------ ---- ---- ------- ----- -- ----<br>-------- ------- -- ---------- --- - --- ----- ----- ----<br>---- --- --- ----- --- ---- ---- ------- ----- ---- -------<br>--- --- -- ----- -- --- ---- -- --- ---- if ------ ------<br>--- ----- -- ----,192471,192459,192028.74,192017,192045.4,192495.42,,49,if
screen,html.Screen,2_1_0_1_50,2021-04-26T19:01:30.017Z,,,,,,,,,,,,,,,,,53,,,,,,,,,,,,,,432.5799999999872,,response,,,,99,,,,,,,Space,keypress(Space),,,,,,,,---- -- ----- -- ------ - ------- --- ----------<br>------------- ------ ------ ---- ---- ------- ----- -- ----<br>-------- ------- -- ---------- --- - --- ----- ----- ----<br>---- --- --- ----- --- ---- ---- ------- ----- ---- -------<br>--- --- -- ----- -- --- ---- -- --- ---- -- that's ------<br>--- ----- -- ----,192936,192928,192478.76,192471,192495.42,192962.12,,50,that's
screen,html.Screen,2_1_0_1_51,2021-04-26T19:01:30.482Z,,,,,,,,,,,,,,,,,53,,,,,,,,,,,,,,433.88000000000466,,response,,,,99,,,,,,,Space,keypress(Space),,,,,,,,---- -- ----- -- ------ - ------- --- ----------<br>------------- ------ ------ ---- ---- ------- ----- -- ----<br>-------- ------- -- ---------- --- - --- ----- ----- ----<br>---- --- --- ----- --- ---- ---- ------- ----- ---- -------<br>--- --- -- ----- -- --- ---- -- --- ---- -- ------ really<br>--- ----- -- ----,193400,193396,192945.46,192936,192962.12,193428.82,,51,really
screen,html.Screen,2_1_0_1_52,2021-04-26T19:01:30.984Z,,,,,,,,,,,,,,,,,53,,,,,,,,,,,,,,467.179999999993,,response,,,,99,,,,,,,Space,keypress(Space),,,,,,,,---- -- ----- -- ------ - ------- --- ----------<br>------------- ------ ------ ---- ---- ------- ----- -- ----<br>-------- ------- -- ---------- --- - --- ----- ----- ----<br>---- --- --- ----- --- ---- ---- ------- ----- ---- -------<br>--- --- -- ----- -- --- ---- -- --- ---- -- ------ ------<br>not ----- -- ----,193903,193896,193412.14,193400,193428.82,193928.84,,52,not
screen,html.Screen,2_1_0_1_53,2021-04-26T19:01:31.448Z,,,,,,,,,,,,,,,,,53,,,,,,,,,,,,,,421.1600000000035,,response,,,,99,,,,,,,Space,keypress(Space),,,,,,,,---- -- ----- -- ------ - ------- --- ----------<br>------------- ------ ------ ---- ---- ------- ----- -- ----<br>-------- ------- -- ---------- --- - --- ----- ----- ----<br>---- --- --- ----- --- ---- ---- ------- ----- ---- -------<br>--- --- -- ----- -- --- ---- -- --- ---- -- ------ ------<br>--- close -- ----,194367,194350,193912.16,193903,193928.84,194395.52,,53,close
screen,html.Screen,2_1_0_1_54,2021-04-26T19:01:31.937Z,,,,,,,,,,,,,,,,,53,,,,,,,,,,,,,,453.4800000000105,,response,,,,99,,,,,,,Space,keypress(Space),,,,,,,,---- -- ----- -- ------ - ------- --- ----------<br>------------- ------ ------ ---- ---- ------- ----- -- ----<br>-------- ------- -- ---------- --- - --- ----- ----- ----<br>---- --- --- ----- --- ---- ---- ------- ----- ---- -------<br>--- --- -- ----- -- --- ---- -- --- ---- -- ------ ------<br>--- ----- at ----,194856,194849,194378.86,194368,194395.52,194878.88,,54,at
screen,html.Screen,2_1_0_1_55,2021-04-26T19:01:32.493Z,,,,,,,,,,,,,,,,,53,,,,,,,,,,,,,,518.1199999999953,,response,,,,99,,,,,,,Space,keypress(Space),,,,,,,,---- -- ----- -- ------ - ------- --- ----------<br>------------- ------ ------ ---- ---- ------- ----- -- ----<br>-------- ------- -- ---------- --- - --- ----- ----- ----<br>---- --- --- ----- --- ---- ---- ------- ----- ---- -------<br>--- --- -- ----- -- --- ---- -- --- ---- -- ------ ------<br>--- ----- -- all.,195412,195397,194862.22,194856,194878.88,195445.58,,55,all.
Item 99,flow.Loop,2_1_0_1,2021-04-26T19:01:32.494Z,,,,,,,,,,,,,,,,,,,,,,,,,,,,,,,31069.600000000006,,completion,,,,,D,,,,,,,,,,,silence,,,,,195413,195397,164244.06,164246,164327.4,195445.58,,,
Question 1,html.Screen,2_1_0_2,2021-04-26T19:01:37.181Z,,,,,,,,,,,,,,,,,,,,,,,,,,,,true,FALSE,,4638.420000000013,,response,,,,99,D,,,,,,FALSE,click #choice-2,,,,silence,,,,,200098,200084,195428.92,195414,195445.58,200129.12,,,
Question 2,html.Screen,2_1_0_3,2021-04-26T19:01:41.949Z,,,,,,,,,,,,,,,,,,,,,,,,,,,,true,TRUE,,4719.880000000005,,response,,,,99,D,,,,,,TRUE,click #choice-1,,,,silence,,,,,204868,204849,200112.46,200099,200129.12,204896.04,,,
Item 99,flow.Sequence,2_1_0,2021-04-26T19:01:41.950Z,,,,,,,,,,,,,,,,,,,,,,,,,,,,,,,50588.73999999999,,completion,,,,,,,,,,,,,,,,,,,,,204869,204849,154243.58,154249,154260.26,204896.04,,,
Holding screen,html.Screen,2_1_1_0,2021-04-26T19:01:51.963Z,,,,,,,,,,,,,,,,,,,,,,,,,,,,,,,10000.479999999981,,timeout,,,,,,,,,,,,,,,,,,,,,214881,214879.84,204879.36,204870,204896.04,214896.52,,,
screen,html.Screen,2_1_1_1_0,2021-04-26T19:01:52.747Z,,,,,,,,,,,,,,,,,54,,,,,,,,,,,,,,765.4800000000105,,response,,,,100,,,,,,,Space,keypress(Space),,,,,,,,At --- ---- --- ------ ----- ------- ---- -- --- ------- --<br>------- ---------- ------ -- ----- -- ----- -- ---- ------<br>--- ----- --- --- ------ -------- ----- --- ------ ----- --<br>----- ----- ---------- --- --- ------ ------ ---- -- ------<br>------- --- ------ ----- --- ---- ------- -- ---- --- --<br>------- ------,215666,215662,214879.84,214881,214896.52,215696.56,,0,At
screen,html.Screen,2_1_1_1_1,2021-04-26T19:01:53.261Z,,,,,,,,,,,,,,,,,54,,,,,,,,,,,,,,465.4400000000023,,response,,,,100,,,,,,,Space,keypress(Space),,,,,,,,-- the ---- --- ------ ----- ------- ---- -- --- ------- --<br>------- ---------- ------ -- ----- -- ----- -- ---- ------<br>--- ----- --- --- ------ -------- ----- --- ------ ----- --<br>----- ----- ---------- --- --- ------ ------ ---- -- ------<br>------- --- ------ ----- --- ---- ------- -- ---- --- --<br>------- ------,216179,216162,215679.88,215666,215696.56,216196.58,,1,the
screen,html.Screen,2_1_1_1_2,2021-04-26T19:01:53.747Z,,,,,,,,,,,,,,,,,54,,,,,,,,,,,,,,466.4200000000128,,response,,,,100,,,,,,,Space,keypress(Space),,,,,,,,-- --- time --- ------ ----- ------- ---- -- --- ------- --<br>------- ---------- ------ -- ----- -- ----- -- ---- ------<br>--- ----- --- --- ------ -------- ----- --- ------ ----- --<br>----- ----- ---------- --- --- ------ ------ ---- -- ------<br>------- --- ------ ----- --- ---- ------- -- ---- --- --<br>------- ------,216666,216663,216179.92,216179,216196.58,216696.6,,2,time
screen,html.Screen,2_1_1_1_3,2021-04-26T19:01:54.241Z,,,,,,,,,,,,,,,,,54,,,,,,,,,,,,,,450.3999999999942,,response,,,,100,,,,,,,Space,keypress(Space),,,,,,,,-- --- ---- the ------ ----- ------- ---- -- --- ------- --<br>------- ---------- ------ -- ----- -- ----- -- ---- ------<br>--- ----- --- --- ------ -------- ----- --- ------ ----- --<br>----- ----- ---------- --- --- ------ ------ ---- -- ------<br>------- --- ------ ----- --- ---- ------- -- ---- --- --<br>------- ------,217160,217147,216679.94,216667,216696.6,217179.96,,3,the
screen,html.Screen,2_1_1_1_4,2021-04-26T19:01:54.707Z,,,,,,,,,,,,,,,,,54,,,,,,,,,,,,,,435.04000000000815,,response,,,,100,,,,,,,Space,keypress(Space),,,,,,,,-- --- ---- --- French ----- ------- ---- -- --- ------- --<br>------- ---------- ------ -- ----- -- ----- -- ---- ------<br>--- ----- --- --- ------ -------- ----- --- ------ ----- --<br>----- ----- ---------- --- --- ------ ------ ---- -- ------<br>------- --- ------ ----- --- ---- ------- -- ---- --- --<br>------- ------,217626,217615,217163.3,217161,217179.96,217646.66,,4,French
screen,html.Screen,2_1_1_1_5,2021-04-26T19:01:55.165Z,,,,,,,,,,,,,,,,,54,,,,,,,,,,,,,,421.3399999999965,,response,,,,100,,,,,,,Space,keypress(Space),,,,,,,,-- --- ---- --- ------ crown ------- ---- -- --- ------- --<br>------- ---------- ------ -- ----- -- ----- -- ---- ------<br>--- ----- --- --- ------ -------- ----- --- ------ ----- --<br>----- ----- ---------- --- --- ------ ------ ---- -- ------<br>------- --- ------ ----- --- ---- ------- -- ---- --- --<br>------- ------,218084,218068,217630,217626,217646.66,218113.34,,5,crown
screen,html.Screen,2_1_1_1_6,2021-04-26T19:01:55.647Z,,,,,,,,,,,,,,,,,54,,,,,,,,,,,,,,438.6600000000035,,response,,,,100,,,,,,,Space,keypress(Space),,,,,,,,-- --- ---- --- ------ ----- secured ---- -- --- ------- --<br>------- ---------- ------ -- ----- -- ----- -- ---- ------<br>--- ----- --- --- ------ -------- ----- --- ------ ----- --<br>----- ----- ---------- --- --- ------ ------ ---- -- ------<br>------- --- ------ ----- --- ---- ------- -- ---- --- --<br>------- ------,218565,218552,218096.68,218085,218113.34,218596.7,,6,secured
screen,html.Screen,2_1_1_1_7,2021-04-26T19:01:56.184Z,,,,,,,,,,,,,,,,,54,,,,,,,,,,,,,,502.29999999998836,,response,,,,100,,,,,,,Space,keypress(Space),,,,,,,,-- --- ---- --- ------ ----- ------- much -- --- ------- --<br>------- ---------- ------ -- ----- -- ----- -- ---- ------<br>--- ----- --- --- ------ -------- ----- --- ------ ----- --<br>----- ----- ---------- --- --- ------ ------ ---- -- ------<br>------- --- ------ ----- --- ---- ------- -- ---- --- --<br>------- ------,219103,219099,218580.04,218566,218596.7,219130.06,,7,much
screen,html.Screen,2_1_1_1_8,2021-04-26T19:01:56.621Z,,,,,,,,,,,,,,,,,54,,,,,,,,,,,,,,406.9400000000023,,response,,,,100,,,,,,,Space,keypress(Space),,,,,,,,-- --- ---- --- ------ ----- ------- ---- of --- ------- --<br>------- ---------- ------ -- ----- -- ----- -- ---- ------<br>--- ----- --- --- ------ -------- ----- --- ------ ----- --<br>----- ----- ---------- --- --- ------ ------ ---- -- ------<br>------- --- ------ ----- --- ---- ------- -- ---- --- --<br>------- ------,219540,219537,219113.4,219103,219130.06,219563.42,,8,of
screen,html.Screen,2_1_1_1_9,2021-04-26T19:01:57.082Z,,,,,,,,,,,,,,,,,54,,,,,,,,,,,,,,426.5799999999872,,response,,,,100,,,,,,,Space,keypress(Space),,,,,,,,-- --- ---- --- ------ ----- ------- ---- -- its ------- --<br>------- ---------- ------ -- ----- -- ----- -- ---- ------<br>--- ----- --- --- ------ -------- ----- --- ------ ----- --<br>----- ----- ---------- --- --- ------ ------ ---- -- ------<br>------- --- ------ ----- --- ---- ------- -- ---- --- --<br>------- ------,220000,219990,219546.76,219540,219563.42,220030.12,,9,its
screen,html.Screen,2_1_1_1_10,2021-04-26T19:01:57.536Z,,,,,,,,,,,,,,,,,54,,,,,,,,,,,,,,412.88000000000466,,response,,,,100,,,,,,,Space,keypress(Space),,,,,,,,-- --- ---- --- ------ ----- ------- ---- -- --- revenue --<br>------- ---------- ------ -- ----- -- ----- -- ---- ------<br>--- ----- --- --- ------ -------- ----- --- ------ ----- --<br>----- ----- ---------- --- --- ------ ------ ---- -- ------<br>------- --- ------ ----- --- ---- ------- -- ---- --- --<br>------- ------,220455,220443,220013.44,220001,220030.12,220480.14,,10,revenue
screen,html.Screen,2_1_1_1_11,2021-04-26T19:01:58.008Z,,,,,,,,,,,,,,,,,54,,,,,,,,,,,,,,431.85999999998603,,response,,,,100,,,,,,,Space,keypress(Space),,,,,,,,-- --- ---- --- ------ ----- ------- ---- -- --- ------- by<br>------- ---------- ------ -- ----- -- ----- -- ---- ------<br>--- ----- --- --- ------ -------- ----- --- ------ ----- --<br>----- ----- ---------- --- --- ------ ------ ---- -- ------<br>------- --- ------ ----- --- ---- ------- -- ---- --- --<br>------- ------,220926,220912,220463.48,220455,220480.14,220946.82,,11,by
screen,html.Screen,2_1_1_1_12,2021-04-26T19:01:58.461Z,,,,,,,,,,,,,,,,,54,,,,,,,,,,,,,,418.179999999993,,response,,,,100,,,,,,,Space,keypress(Space),,,,,,,,-- --- ---- --- ------ ----- ------- ---- -- --- ------- --<br>issuing ---------- ------ -- ----- -- ----- -- ---- ------<br>--- ----- --- --- ------ -------- ----- --- ------ ----- --<br>----- ----- ---------- --- --- ------ ------ ---- -- ------<br>------- --- ------ ----- --- ---- ------- -- ---- --- --<br>------- ------,221380,221365,220930.16,220926,220946.82,221413.52,,12,issuing
screen,html.Screen,2_1_1_1_13,2021-04-26T19:01:58.948Z,,,,,,,,,,,,,,,,,54,,,,,,,,,,,,,,435.4800000000105,,response,,,,100,,,,,,,Space,keypress(Space),,,,,,,,-- --- ---- --- ------ ----- ------- ---- -- --- ------- --<br>------- government ------ -- ----- -- ----- -- ---- ------<br>--- ----- --- --- ------ -------- ----- --- ------ ----- --<br>----- ----- ---------- --- --- ------ ------ ---- -- ------<br>------- --- ------ ----- --- ---- ------- -- ---- --- --<br>------- ------,221867,221849,221396.86,221380,221413.52,221896.88,,13,government
screen,html.Screen,2_1_1_1_14,2021-04-26T19:01:59.432Z,,,,,,,,,,,,,,,,,54,,,,,,,,,,,,,,437.11999999999534,,response,,,,100,,,,,,,Space,keypress(Space),,,,,,,,-- --- ---- --- ------ ----- ------- ---- -- --- ------- --<br>------- ---------- bonds. -- ----- -- ----- -- ---- ------<br>--- ----- --- --- ------ -------- ----- --- ------ ----- --<br>----- ----- ---------- --- --- ------ ------ ---- -- ------<br>------- --- ------ ----- --- ---- ------- -- ---- --- --<br>------- ------,222350,222334,221880.22,221867,221896.88,222380.24,,14,bonds.
screen,html.Screen,2_1_1_1_15,2021-04-26T19:02:00.053Z,,,,,,,,,,,,,,,,,54,,,,,,,,,,,,,,578.7600000000093,,response,,,,100,,,,,,,Space,keypress(Space),,,,,,,,-- --- ---- --- ------ ----- ------- ---- -- --- ------- --<br>------- ---------- ------ In ----- -- ----- -- ---- ------<br>--- ----- --- --- ------ -------- ----- --- ------ ----- --<br>----- ----- ---------- --- --- ------ ------ ---- -- ------<br>------- --- ------ ----- --- ---- ------- -- ---- --- --<br>------- ------,222972,222959,222363.56,222351,222380.24,222996.94,,15,In
screen,html.Screen,2_1_1_1_16,2021-04-26T19:02:00.598Z,,,,,,,,,,,,,,,,,54,,,,,,,,,,,,,,509.0599999999977,,response,,,,100,,,,,,,Space,keypress(Space),,,,,,,,"-- --- ---- --- ------ ----- ------- ---- -- --- ------- --<br>------- ---------- ------ -- 1727, -- ----- -- ---- ------<br>--- ----- --- --- ------ -------- ----- --- ------ ----- --<br>----- ----- ---------- --- --- ------ ------ ---- -- ------<br>------- --- ------ ----- --- ---- ------- -- ---- --- --<br>------- ------",223516,223506,222980.26,222972,222996.94,223546.96,,16,"1727,"
screen,html.Screen,2_1_1_1_17,2021-04-26T19:02:01.364Z,,,,,,,,,,,,,,,,,54,,,,,,,,,,,,,,724.0400000000081,,response,,,,100,,,,,,,Space,keypress(Space),,,,,,,,-- --- ---- --- ------ ----- ------- ---- -- --- ------- --<br>------- ---------- ------ -- ----- in ----- -- ---- ------<br>--- ----- --- --- ------ -------- ----- --- ------ ----- --<br>----- ----- ---------- --- --- ------ ------ ---- -- ------<br>------- --- ------ ----- --- ---- ------- -- ---- --- --<br>------- ------,224282,224271,223530.3,223517,223546.96,224313.66,,17,in
screen,html.Screen,2_1_1_1_18,2021-04-26T19:02:01.826Z,,,,,,,,,,,,,,,,,54,,,,,,,,,,,,,,426.3399999999965,,response,,,,100,,,,,,,Space,keypress(Space),,,,,,,,-- --- ---- --- ------ ----- ------- ---- -- --- ------- --<br>------- ---------- ------ -- ----- -- order -- ---- ------<br>--- ----- --- --- ------ -------- ----- --- ------ ----- --<br>----- ----- ---------- --- --- ------ ------ ---- -- ------<br>------- --- ------ ----- --- ---- ------- -- ---- --- --<br>------- ------,224744,224740,224297,224282,224313.66,224763.68,,18,order
screen,html.Screen,2_1_1_1_19,2021-04-26T19:02:02.285Z,,,,,,,,,,,,,,,,,54,,,,,,,,,,,,,,429.320000000007,,response,,,,100,,,,,,,Space,keypress(Space),,,,,,,,-- --- ---- --- ------ ----- ------- ---- -- --- ------- --<br>------- ---------- ------ -- ----- -- ----- to ---- ------<br>--- ----- --- --- ------ -------- ----- --- ------ ----- --<br>----- ----- ---------- --- --- ------ ------ ---- -- ------<br>------- --- ------ ----- --- ---- ------- -- ---- --- --<br>------- ------,225204,225193,224747.02,224745,224763.68,225230.38,,19,to
screen,html.Screen,2_1_1_1_20,2021-04-26T19:02:02.731Z,,,,,,,,,,,,,,,,,54,,,,,,,,,,,,,,415.61999999999534,,response,,,,100,,,,,,,Space,keypress(Space),,,,,,,,-- --- ---- --- ------ ----- ------- ---- -- --- ------- --<br>------- ---------- ------ -- ----- -- ----- -- save ------<br>--- ----- --- --- ------ -------- ----- --- ------ ----- --<br>----- ----- ---------- --- --- ------ ------ ---- -- ------<br>------- --- ------ ----- --- ---- ------- -- ---- --- --<br>------- ------,225649,225646,225213.72,225204,225230.38,225680.4,,20,save
screen,html.Screen,2_1_1_1_21,2021-04-26T19:02:03.298Z,,,,,,,,,,,,,,,,,54,,,,,,,,,,,,,,528.6000000000058,,response,,,,100,,,,,,,Space,keypress(Space),,,,,,,,"-- --- ---- --- ------ ----- ------- ---- -- --- ------- --<br>------- ---------- ------ -- ----- -- ----- -- ---- money,<br>--- ----- --- --- ------ -------- ----- --- ------ ----- --<br>----- ----- ---------- --- --- ------ ------ ---- -- ------<br>------- --- ------ ----- --- ---- ------- -- ---- --- --<br>------- ------",226217,226209,225663.74,225649,225680.4,226247.1,,21,"money,"
screen,html.Screen,2_1_1_1_22,2021-04-26T19:02:03.848Z,,,,,,,,,,,,,,,,,54,,,,,,,,,,,,,,508.8999999999942,,response,,,,100,,,,,,,Space,keypress(Space),,,,,,,,-- --- ---- --- ------ ----- ------- ---- -- --- ------- --<br>------- ---------- ------ -- ----- -- ----- -- ---- ------<br>the ----- --- --- ------ -------- ----- --- ------ ----- --<br>----- ----- ---------- --- --- ------ ------ ---- -- ------<br>------- --- ------ ----- --- ---- ------- -- ---- --- --<br>------- ------,226767,226756,226230.42,226217,226247.1,226797.12,,22,the
screen,html.Screen,2_1_1_1_23,2021-04-26T19:02:04.352Z,,,,,,,,,,,,,,,,,54,,,,,,,,,,,,,,458.88000000000466,,response,,,,100,,,,,,,Space,keypress(Space),,,,,,,,-- --- ---- --- ------ ----- ------- ---- -- --- ------- --<br>------- ---------- ------ -- ----- -- ----- -- ---- ------<br>--- state --- --- ------ -------- ----- --- ------ ----- --<br>----- ----- ---------- --- --- ------ ------ ---- -- ------<br>------- --- ------ ----- --- ---- ------- -- ---- --- --<br>------- ------,227271,227256,226780.46,226768,226797.12,227297.12,,23,state
screen,html.Screen,2_1_1_1_24,2021-04-26T19:02:04.857Z,,,,,,,,,,,,,,,,,54,,,,,,,,,,,,,,473.88000000000466,,response,,,,100,,,,,,,Space,keypress(Space),,,,,,,,-- --- ---- --- ------ ----- ------- ---- -- --- ------- --<br>------- ---------- ------ -- ----- -- ----- -- ---- ------<br>--- ----- cut --- ------ -------- ----- --- ------ ----- --<br>----- ----- ---------- --- --- ------ ------ ---- -- ------<br>------- --- ------ ----- --- ---- ------- -- ---- --- --<br>------- ------,227775,227771,227280.44,227271,227297.12,227797.14,,24,cut
screen,html.Screen,2_1_1_1_25,2021-04-26T19:02:05.300Z,,,,,,,,,,,,,,,,,54,,,,,,,,,,,,,,411.85999999998603,,response,,,,100,,,,,,,Space,keypress(Space),,,,,,,,-- --- ---- --- ------ ----- ------- ---- -- --- ------- --<br>------- ---------- ------ -- ----- -- ----- -- ---- ------<br>--- ----- --- the ------ -------- ----- --- ------ ----- --<br>----- ----- ---------- --- --- ------ ------ ---- -- ------<br>------- --- ------ ----- --- ---- ------- -- ---- --- --<br>------- ------,228218,228209,227780.48,227775,227797.14,228247.16,,25,the
screen,html.Screen,2_1_1_1_26,2021-04-26T19:02:05.695Z,,,,,,,,,,,,,,,,,54,,,,,,,,,,,,,,351.8399999999965,,response,,,,100,,,,,,,Space,keypress(Space),,,,,,,,-- --- ---- --- ------ ----- ------- ---- -- --- ------- --<br>------- ---------- ------ -- ----- -- ----- -- ---- ------<br>--- ----- --- --- bonds' -------- ----- --- ------ ----- --<br>----- ----- ---------- --- --- ------ ------ ---- -- ------<br>------- --- ------ ----- --- ---- ------- -- ---- --- --<br>------- ------,228613,228599,228230.5,228219,228247.16,228630.52,,26,bonds'
screen,html.Screen,2_1_1_1_27,2021-04-26T19:02:06.155Z,,,,,,,,,,,,,,,,,54,,,,,,,,,,,,,,437.4800000000105,,response,,,,100,,,,,,,Space,keypress(Space),,,,,,,,-- --- ---- --- ------ ----- ------- ---- -- --- ------- --<br>------- ---------- ------ -- ----- -- ----- -- ---- ------<br>--- ----- --- --- ------ interest ----- --- ------ ----- --<br>----- ----- ---------- --- --- ------ ------ ---- -- ------<br>------- --- ------ ----- --- ---- ------- -- ---- --- --<br>------- ------,229073,229068,228613.86,228613,228630.52,229097.2,,27,interest
screen,html.Screen,2_1_1_1_28,2021-04-26T19:02:06.570Z,,,,,,,,,,,,,,,,,54,,,,,,,,,,,,,,376.79999999998836,,response,,,,100,,,,,,,Space,keypress(Space),,,,,,,,-- --- ---- --- ------ ----- ------- ---- -- --- ------- --<br>------- ---------- ------ -- ----- -- ----- -- ---- ------<br>--- ----- --- --- ------ -------- rate. --- ------ ----- --<br>----- ----- ---------- --- --- ------ ------ ---- -- ------<br>------- --- ------ ----- --- ---- ------- -- ---- --- --<br>------- ------,229489,229474,229080.54,229074,229097.2,229513.9,,28,rate.
screen,html.Screen,2_1_1_1_29,2021-04-26T19:02:07.020Z,,,,,,,,,,,,,,,,,54,,,,,,,,,,,,,,413.1000000000058,,response,,,,100,,,,,,,Space,keypress(Space),,,,,,,,-- --- ---- --- ------ ----- ------- ---- -- --- ------- --<br>------- ---------- ------ -- ----- -- ----- -- ---- ------<br>--- ----- --- --- ------ -------- ----- The ------ ----- --<br>----- ----- ---------- --- --- ------ ------ ---- -- ------<br>------- --- ------ ----- --- ---- ------- -- ---- --- --<br>------- ------,229939,229927,229497.22,229489,229513.9,229963.92,,29,The
screen,html.Screen,2_1_1_1_30,2021-04-26T19:02:07.445Z,,,,,,,,,,,,,,,,,54,,,,,,,,,,,,,,385.0799999999872,,response,,,,100,,,,,,,Space,keypress(Space),,,,,,,,-- --- ---- --- ------ ----- ------- ---- -- --- ------- --<br>------- ---------- ------ -- ----- -- ----- -- ---- ------<br>--- ----- --- --- ------ -------- ----- --- market ----- --<br>----- ----- ---------- --- --- ------ ------ ---- -- ------<br>------- --- ------ ----- --- ---- ------- -- ---- --- --<br>------- ------,230363,230349,229947.26,229939,229963.92,230380.6,,30,market
screen,html.Screen,2_1_1_1_31,2021-04-26T19:02:07.897Z,,,,,,,,,,,,,,,,,54,,,,,,,,,,,,,,422.3999999999942,,response,,,,100,,,,,,,Space,keypress(Space),,,,,,,,-- --- ---- --- ------ ----- ------- ---- -- --- ------- --<br>------- ---------- ------ -- ----- -- ----- -- ---- ------<br>--- ----- --- --- ------ -------- ----- --- ------ value --<br>----- ----- ---------- --- --- ------ ------ ---- -- ------<br>------- --- ------ ----- --- ---- ------- -- ---- --- --<br>------- ------,230815,230803,230363.94,230363,230380.6,230847.3,,31,value
screen,html.Screen,2_1_1_1_32,2021-04-26T19:02:08.284Z,,,,,,,,,,,,,,,,,54,,,,,,,,,,,,,,345.70000000001164,,response,,,,100,,,,,,,Space,keypress(Space),,,,,,,,-- --- ---- --- ------ ----- ------- ---- -- --- ------- --<br>------- ---------- ------ -- ----- -- ----- -- ---- ------<br>--- ----- --- --- ------ -------- ----- --- ------ ----- of<br>----- ----- ---------- --- --- ------ ------ ---- -- ------<br>------- --- ------ ----- --- ---- ------- -- ---- --- --<br>------- ------,231203,231193,230830.64,230816,230847.3,231230.66,,32,of
screen,html.Screen,2_1_1_1_33,2021-04-26T19:02:08.721Z,,,,,,,,,,,,,,,,,54,,,,,,,,,,,,,,401.3399999999965,,response,,,,100,,,,,,,Space,keypress(Space),,,,,,,,-- --- ---- --- ------ ----- ------- ---- -- --- ------- --<br>------- ---------- ------ -- ----- -- ----- -- ---- ------<br>--- ----- --- --- ------ -------- ----- --- ------ ----- --<br>these ----- ---------- --- --- ------ ------ ---- -- ------<br>------- --- ------ ----- --- ---- ------- -- ---- --- --<br>------- ------,231640,231632,231213.98,231204,231230.66,231664,,33,these
screen,html.Screen,2_1_1_1_34,2021-04-26T19:02:09.168Z,,,,,,,,,,,,,,,,,54,,,,,,,,,,,,,,420,,response,,,,100,,,,,,,Space,keypress(Space),,,,,,,,-- --- ---- --- ------ ----- ------- ---- -- --- ------- --<br>------- ---------- ------ -- ----- -- ----- -- ---- ------<br>--- ----- --- --- ------ -------- ----- --- ------ ----- --<br>----- bonds ---------- --- --- ------ ------ ---- -- ------<br>------- --- ------ ----- --- ---- ------- -- ---- --- --<br>------- ------,232087,232084,231647.34,231640,231664,232114.04,,34,bonds
screen,html.Screen,2_1_1_1_35,2021-04-26T19:02:09.715Z,,,,,,,,,,,,,,,,,54,,,,,,,,,,,,,,516.9599999999919,,response,,,,100,,,,,,,Space,keypress(Space),,,,,,,,"-- --- ---- --- ------ ----- ------- ---- -- --- ------- --<br>------- ---------- ------ -- ----- -- ----- -- ---- ------<br>--- ----- --- --- ------ -------- ----- --- ------ ----- --<br>----- ----- plummeted, --- --- ------ ------ ---- -- ------<br>------- --- ------ ----- --- ---- ------- -- ---- --- --<br>------- ------",232634,232631,232097.36,232087,232114.04,232664.06,,35,"plummeted,"
screen,html.Screen,2_1_1_1_36,2021-04-26T19:02:10.154Z,,,,,,,,,,,,,,,,,54,,,,,,,,,,,,,,403.9400000000023,,response,,,,100,,,,,,,Space,keypress(Space),,,,,,,,-- --- ---- --- ------ ----- ------- ---- -- --- ------- --<br>------- ---------- ------ -- ----- -- ----- -- ---- ------<br>--- ----- --- --- ------ -------- ----- --- ------ ----- --<br>----- ----- ---------- and --- ------ ------ ---- -- ------<br>------- --- ------ ----- --- ---- ------- -- ---- --- --<br>------- ------,233073,233068,232647.4,232635,232664.06,233097.42,,36,and
screen,html.Screen,2_1_1_1_37,2021-04-26T19:02:10.632Z,,,,,,,,,,,,,,,,,54,,,,,,,,,,,,,,440.5799999999872,,response,,,,100,,,,,,,Space,keypress(Space),,,,,,,,-- --- ---- --- ------ ----- ------- ---- -- --- ------- --<br>------- ---------- ------ -- ----- -- ----- -- ---- ------<br>--- ----- --- --- ------ -------- ----- --- ------ ----- --<br>----- ----- ---------- --- the ------ ------ ---- -- ------<br>------- --- ------ ----- --- ---- ------- -- ---- --- --<br>------- ------,233551,233538,233080.74,233073,233097.42,233580.78,,37,the
screen,html.Screen,2_1_1_1_38,2021-04-26T19:02:11.085Z,,,,,,,,,,,,,,,,,54,,,,,,,,,,,,,,409.22000000000116,,response,,,,100,,,,,,,Space,keypress(Space),,,,,,,,-- --- ---- --- ------ ----- ------- ---- -- --- ------- --<br>------- ---------- ------ -- ----- -- ----- -- ---- ------<br>--- ----- --- --- ------ -------- ----- --- ------ ----- --<br>----- ----- ---------- --- --- market ------ ---- -- ------<br>------- --- ------ ----- --- ---- ------- -- ---- --- --<br>------- ------,234003,233990,233564.1,233551,233580.78,234030.8,,38,market
screen,html.Screen,2_1_1_1_39,2021-04-26T19:02:11.478Z,,,,,,,,,,,,,,,,,54,,,,,,,,,,,,,,350.20000000001164,,response,,,,100,,,,,,,Space,keypress(Space),,,,,,,,-- --- ---- --- ------ ----- ------- ---- -- --- ------- --<br>------- ---------- ------ -- ----- -- ----- -- ---- ------<br>--- ----- --- --- ------ -------- ----- --- ------ ----- --<br>----- ----- ---------- --- --- ------ became ---- -- ------<br>------- --- ------ ----- --- ---- ------- -- ---- --- --<br>------- ------,234397,234381,234014.14,234004,234030.8,234414.16,,39,became
screen,html.Screen,2_1_1_1_40,2021-04-26T19:02:11.909Z,,,,,,,,,,,,,,,,,54,,,,,,,,,,,,,,404.8399999999965,,response,,,,100,,,,,,,Space,keypress(Space),,,,,,,,-- --- ---- --- ------ ----- ------- ---- -- --- ------- --<br>------- ---------- ------ -- ----- -- ----- -- ---- ------<br>--- ----- --- --- ------ -------- ----- --- ------ ----- --<br>----- ----- ---------- --- --- ------ ------ wary -- ------<br>------- --- ------ ----- --- ---- ------- -- ---- --- --<br>------- ------,234828,234819,234397.48,234398,234414.16,234847.5,,40,wary
screen,html.Screen,2_1_1_1_41,2021-04-26T19:02:12.336Z,,,,,,,,,,,,,,,,,54,,,,,,,,,,,,,,392.5,,response,,,,100,,,,,,,Space,keypress(Space),,,,,,,,-- --- ---- --- ------ ----- ------- ---- -- --- ------- --<br>------- ---------- ------ -- ----- -- ----- -- ---- ------<br>--- ----- --- --- ------ -------- ----- --- ------ ----- --<br>----- ----- ---------- --- --- ------ ------ ---- of ------<br>------- --- ------ ----- --- ---- ------- -- ---- --- --<br>------- ------,235253,235240,234830.84,234828,234847.5,235280.86,,41,of
screen,html.Screen,2_1_1_1_42,2021-04-26T19:02:12.740Z,,,,,,,,,,,,,,,,,54,,,,,,,,,,,,,,365.14000000001397,,response,,,,100,,,,,,,Space,keypress(Space),,,,,,,,-- --- ---- --- ------ ----- ------- ---- -- --- ------- --<br>------- ---------- ------ -- ----- -- ----- -- ---- ------<br>--- ----- --- --- ------ -------- ----- --- ------ ----- --<br>----- ----- ---------- --- --- ------ ------ ---- -- French<br>------- --- ------ ----- --- ---- ------- -- ---- --- --<br>------- ------,235658,235646,235264.2,235254,235280.86,235680.88,,42,French
screen,html.Screen,2_1_1_1_43,2021-04-26T19:02:13.176Z,,,,,,,,,,,,,,,,,54,,,,,,,,,,,,,,404.11999999999534,,response,,,,100,,,,,,,Space,keypress(Space),,,,,,,,-- --- ---- --- ------ ----- ------- ---- -- --- ------- --<br>------- ---------- ------ -- ----- -- ----- -- ---- ------<br>--- ----- --- --- ------ -------- ----- --- ------ ----- --<br>----- ----- ---------- --- --- ------ ------ ---- -- ------<br>credit. --- ------ ----- --- ---- ------- -- ---- --- --<br>------- ------,236094,236085,235664.22,235659,235680.88,236114.24,,43,credit.
screen,html.Screen,2_1_1_1_44,2021-04-26T19:02:13.605Z,,,,,,,,,,,,,,,,,54,,,,,,,,,,,,,,391.7600000000093,,response,,,,100,,,,,,,Space,keypress(Space),,,,,,,,-- --- ---- --- ------ ----- ------- ---- -- --- ------- --<br>------- ---------- ------ -- ----- -- ----- -- ---- ------<br>--- ----- --- --- ------ -------- ----- --- ------ ----- --<br>----- ----- ---------- --- --- ------ ------ ---- -- ------<br>------- The ------ ----- --- ---- ------- -- ---- --- --<br>------- ------,236523,236506,236097.56,236095,236114.24,236547.58,,44,The
screen,html.Screen,2_1_1_1_45,2021-04-26T19:02:14.005Z,,,,,,,,,,,,,,,,,54,,,,,,,,,,,,,,365.4200000000128,,response,,,,100,,,,,,,Space,keypress(Space),,,,,,,,-- --- ---- --- ------ ----- ------- ---- -- --- ------- --<br>------- ---------- ------ -- ----- -- ----- -- ---- ------<br>--- ----- --- --- ------ -------- ----- --- ------ ----- --<br>----- ----- ---------- --- --- ------ ------ ---- -- ------<br>------- --- French ----- --- ---- ------- -- ---- --- --<br>------- ------,236924,236913,236530.92,236523,236547.58,236947.6,,45,French
screen,html.Screen,2_1_1_1_46,2021-04-26T19:02:14.407Z,,,,,,,,,,,,,,,,,54,,,,,,,,,,,,,,370.3999999999942,,response,,,,100,,,,,,,Space,keypress(Space),,,,,,,,-- --- ---- --- ------ ----- ------- ---- -- --- ------- --<br>------- ---------- ------ -- ----- -- ----- -- ---- ------<br>--- ----- --- --- ------ -------- ----- --- ------ ----- --<br>----- ----- ---------- --- --- ------ ------ ---- -- ------<br>------- --- ------ state --- ---- ------- -- ---- --- --<br>------- ------,237325,237318,236930.94,236924,236947.6,237347.62,,46,state
screen,html.Screen,2_1_1_1_47,2021-04-26T19:02:14.874Z,,,,,,,,,,,,,,,,,54,,,,,,,,,,,,,,440.38000000000466,,response,,,,100,,,,,,,Space,keypress(Space),,,,,,,,-- --- ---- --- ------ ----- ------- ---- -- --- ------- --<br>------- ---------- ------ -- ----- -- ----- -- ---- ------<br>--- ----- --- --- ------ -------- ----- --- ------ ----- --<br>----- ----- ---------- --- --- ------ ------ ---- -- ------<br>------- --- ------ ----- was ---- ------- -- ---- --- --<br>------- ------,237793,237788,237330.96,237325,237347.62,237814.32,,47,was
screen,html.Screen,2_1_1_1_48,2021-04-26T19:02:15.378Z,,,,,,,,,,,,,,,,,54,,,,,,,,,,,,,,473.679999999993,,response,,,,100,,,,,,,Space,keypress(Space),,,,,,,,-- --- ---- --- ------ ----- ------- ---- -- --- ------- --<br>------- ---------- ------ -- ----- -- ----- -- ---- ------<br>--- ----- --- --- ------ -------- ----- --- ------ ----- --<br>----- ----- ---------- --- --- ------ ------ ---- -- ------<br>------- --- ------ ----- --- left ------- -- ---- --- --<br>------- ------,238295,238288,237797.66,237793,237814.32,238314.34,,48,left
screen,html.Screen,2_1_1_1_49,2021-04-26T19:02:15.798Z,,,,,,,,,,,,,,,,,54,,,,,,,,,,,,,,394.6600000000035,,response,,,,100,,,,,,,Space,keypress(Space),,,,,,,,-- --- ---- --- ------ ----- ------- ---- -- --- ------- --<br>------- ---------- ------ -- ----- -- ----- -- ---- ------<br>--- ----- --- --- ------ -------- ----- --- ------ ----- --<br>----- ----- ---------- --- --- ------ ------ ---- -- ------<br>------- --- ------ ----- --- ---- without -- ---- --- --<br>------- ------,238716,238709,238297.68,238296,238314.34,238747.7,,49,without
screen,html.Screen,2_1_1_1_50,2021-04-26T19:02:16.213Z,,,,,,,,,,,,,,,,,54,,,,,,,,,,,,,,368.29999999998836,,response,,,,100,,,,,,,Space,keypress(Space),,,,,,,,-- --- ---- --- ------ ----- ------- ---- -- --- ------- --<br>------- ---------- ------ -- ----- -- ----- -- ---- ------<br>--- ----- --- --- ------ -------- ----- --- ------ ----- --<br>----- ----- ---------- --- --- ------ ------ ---- -- ------<br>------- --- ------ ----- --- ---- ------- an ---- --- --<br>------- ------,239131,239116,238731.04,238717,238747.7,239164.38,,50,an
screen,html.Screen,2_1_1_1_51,2021-04-26T19:02:16.636Z,,,,,,,,,,,,,,,,,54,,,,,,,,,,,,,,372.61999999999534,,response,,,,100,,,,,,,Space,keypress(Space),,,,,,,,-- --- ---- --- ------ ----- ------- ---- -- --- ------- --<br>------- ---------- ------ -- ----- -- ----- -- ---- ------<br>--- ----- --- --- ------ -------- ----- --- ------ ----- --<br>----- ----- ---------- --- --- ------ ------ ---- -- ------<br>------- --- ------ ----- --- ---- ------- -- easy --- --<br>------- ------,239555,239537,239147.72,239132,239164.38,239581.08,,51,easy
screen,html.Screen,2_1_1_1_52,2021-04-26T19:02:17.026Z,,,,,,,,,,,,,,,,,54,,,,,,,,,,,,,,346.9200000000128,,response,,,,100,,,,,,,Space,keypress(Space),,,,,,,,-- --- ---- --- ------ ----- ------- ---- -- --- ------- --<br>------- ---------- ------ -- ----- -- ----- -- ---- ------<br>--- ----- --- --- ------ -------- ----- --- ------ ----- --<br>----- ----- ---------- --- --- ------ ------ ---- -- ------<br>------- --- ------ ----- --- ---- ------- -- ---- way --<br>------- ------,239945,239928,239564.4,239555,239581.08,239964.42,,52,way
screen,html.Screen,2_1_1_1_53,2021-04-26T19:02:17.427Z,,,,,,,,,,,,,,,,,54,,,,,,,,,,,,,,369.5799999999872,,response,,,,100,,,,,,,Space,keypress(Space),,,,,,,,-- --- ---- --- ------ ----- ------- ---- -- --- ------- --<br>------- ---------- ------ -- ----- -- ----- -- ---- ------<br>--- ----- --- --- ------ -------- ----- --- ------ ----- --<br>----- ----- ---------- --- --- ------ ------ ---- -- ------<br>------- --- ------ ----- --- ---- ------- -- ---- --- of<br>------- ------,240344,240334,239947.76,239946,239964.42,240364.44,,53,of
screen,html.Screen,2_1_1_1_54,2021-04-26T19:02:17.830Z,,,,,,,,,,,,,,,,,54,,,,,,,,,,,,,,375.5599999999977,,response,,,,100,,,,,,,Space,keypress(Space),,,,,,,,-- --- ---- --- ------ ----- ------- ---- -- --- ------- --<br>------- ---------- ------ -- ----- -- ----- -- ---- ------<br>--- ----- --- --- ------ -------- ----- --- ------ ----- --<br>----- ----- ---------- --- --- ------ ------ ---- -- ------<br>------- --- ------ ----- --- ---- ------- -- ---- --- --<br>raising ------,240749,240740,240347.78,240345,240364.44,240781.14,,54,raising
screen,html.Screen,2_1_1_1_55,2021-04-26T19:02:19.029Z,,,,,,,,,,,,,,,,,54,,,,,,,,,,,,,,1162.859999999986,,response,,,,100,,,,,,,Space,keypress(Space),,,,,,,,-- --- ---- --- ------ ----- ------- ---- -- --- ------- --<br>------- ---------- ------ -- ----- -- ----- -- ---- ------<br>--- ----- --- --- ------ -------- ----- --- ------ ----- --<br>----- ----- ---------- --- --- ------ ------ ---- -- ------<br>------- --- ------ ----- --- ---- ------- -- ---- --- --<br>------- money.,241948,241944,240764.46,240749,240781.14,241981.18,,55,money.
Item 100,flow.Loop,2_1_1_1,2021-04-26T19:02:19.029Z,,,,,,,,,,,,,,,,,,,,,,,,,,,,,,,27047.48000000001,,completion,,,,,D,,,,,,,,,,,silence,,,,,241948,241944,214879.84,214881,214896.52,241981.18,,,
Question 1,html.Screen,2_1_1_2,2021-04-26T19:02:21.267Z,,,,,,,,,,,,,,,,,,,,,,,,,,,,true,TRUE,,2196.820000000007,,response,,,,100,D,,,,,,TRUE,click #choice-1,,,,silence,,,,,244186,244178,241964.54,241949,241981.18,244214.64,,,
Question 2,html.Screen,2_1_1_3,2021-04-26T19:02:23.155Z,,,,,,,,,,,,,,,,,,,,,,,,,,,,true,FALSE,,1853.359999999986,,response,,,,100,D,,,,,,FALSE,click #choice-2,,,,silence,,,,,246073,246068,244197.98,244186,244214.64,246098.02,,,
Item 100,flow.Sequence,2_1_1,2021-04-26T19:02:23.156Z,,,,,,,,,,,,,,,,,,,,,,,,,,,,,,,41171.95999999999,,completion,,,,,,,,,,,,,,,,,,,,,246074,246068,204879.36,204869,204896.04,246098.02,,,
End of Practice,html.Page,2_1_2,2021-04-26T19:02:26.281Z,,,,,,,,,,,,,,,,,,,,,,,,,,,,,,,3101.9800000000105,,form submission,,,,,,,,,,,,,,,,,,,,,249200,249200,246081.4,246075,246098.02,249214.86,,,
Practice,flow.Sequence,2_1,2021-04-26T19:02:26.282Z,,,,,,,,,,,,,,,,,,,,,,,,,,,,,,,94939.73999999999,,completion,,,,,,,,,,,,,,,,,,,,,249201,249200,154243.58,154249,154260.26,249214.86,,,
Trap_instruction,html.Page,2_2_0,2021-04-26T19:02:31.368Z,,,,,,,,,,,,,,,,,,,,,,,,,,,,,,,5070.140000000014,,form submission,,,,,,,,,,,,,,,,,,,,,254285,254285,249198.18,249201,249214.86,254415.12,,,
trap_trial,html.Screen,2_2_1,2021-04-26T19:02:34.350Z,,,,,,,,,,,,,,,,,,,,,,,,,,,,true,1,,2840.8800000000047,,response,,,,,,,,,,,1,click #choice-1,,,,,,,,,257269,257256,254398.46,254286,254415.12,257298.62,,,
end of trap trial,html.Page,2_2_2,2021-04-26T19:02:36.243Z,,,,,,,,,,,,,,,,,,,,,,,,,,,,,,,1862.3800000000047,,form submission,,,,,,,,,,,,,,,,,,,,,259162,259161,257281.94,257270,257298.62,259182,,,
Trap 1,flow.Sequence,2_2,2021-04-26T19:02:36.244Z,,,,,,,,,,,,,,,,,,,,,,,,,,,,,,,9946.140000000014,,completion,,,,,,,,,,,,,,,,,,,,,259162,259161,249198.18,249201,249214.86,259182,,,
Standby,html.Page,2_3_0,2021-04-26T19:02:44.249Z,,,,,,,,,,,,,,,,,,,,,,,,,,,,,,,8000.419999999984,,timeout,,,,,,,,,,,,,,,,,,,,,267166,267165.76,259165.34,259163,259182,267182.42,,,
Holding screen,html.Screen,2_3_1_0_0,2021-04-26T19:02:51.249Z,,,,,,,,,,,,,,,,,,,,,,,,,,,,,,,7000.320000000007,,timeout,,,,,,,,,,,,,,,,,,,,,274167,274166.08,267165.76,267167,267182.42,274182.74,,,
screen,html.Screen,2_3_1_0_1_0,2021-04-26T19:02:51.935Z,,,,,,,,,,,,,,,,,48,,,,,,,,,,,,,,667.2600000000093,,response,,,,10,D,,,,,,Space,keypress(Space),,,,silence,,,,As -- --- ------ ------- --------- ----------- --------<br>--------- -------- --- ------- -- ------- ---- -- ------<br>-- --- -------- -------- ---------- ---- ---- ---- ------<br>-- --------- -- ---- -- --- -- --- ------- -- - -----<br>---------- -- -- -- ---- ----- -- ------ -- --- ------<br>-------,274853,274850,274166.08,274167,274182.74,274882.78,,0,As
screen,html.Screen,2_3_1_0_1_1,2021-04-26T19:02:52.352Z,,,,,,,,,,,,,,,,,48,,,,,,,,,,,,,,373.21999999997206,,response,,,,10,D,,,,,,Space,keypress(Space),,,,silence,,,,-- in --- ------ ------- --------- ----------- --------<br>--------- -------- --- ------- -- ------- ---- -- ------<br>-- --- -------- -------- ---------- ---- ---- ---- ------<br>-- --------- -- ---- -- --- -- --- ------- -- - -----<br>---------- -- -- -- ---- ----- -- ------ -- --- ------<br>-------,275270,275256,274866.12,274854,274882.78,275299.48,,1,in
screen,html.Screen,2_3_1_0_1_2,2021-04-26T19:02:52.749Z,,,,,,,,,,,,,,,,,48,,,,,,,,,,,,,,362.5200000000186,,response,,,,10,D,,,,,,Space,keypress(Space),,,,silence,,,,-- -- the ------ ------- --------- ----------- --------<br>--------- -------- --- ------- -- ------- ---- -- ------<br>-- --- -------- -------- ---------- ---- ---- ---- ------<br>-- --------- -- ---- -- --- -- --- ------- -- - -----<br>---------- -- -- -- ---- ----- -- ------ -- --- ------<br>-------,275667,275662,275282.8,275271,275299.48,275699.5,,2,the
screen,html.Screen,2_3_1_0_1_3,2021-04-26T19:02:53.124Z,,,,,,,,,,,,,,,,,48,,,,,,,,,,,,,,337.5,,response,,,,10,D,,,,,,Space,keypress(Space),,,,silence,,,,-- -- --- United ------- --------- ----------- --------<br>--------- -------- --- ------- -- ------- ---- -- ------<br>-- --- -------- -------- ---------- ---- ---- ---- ------<br>-- --------- -- ---- -- --- -- --- ------- -- - -----<br>---------- -- -- -- ---- ----- -- ------ -- --- ------<br>-------,276042,276037,275682.82,275668,275699.5,276066.18,,3,United
screen,html.Screen,2_3_1_0_1_4,2021-04-26T19:02:53.482Z,,,,,,,,,,,,,,,,,48,,,,,,,,,,,,,,329.820000000007,,response,,,,10,D,,,,,,Space,keypress(Space),,,,silence,,,,"-- -- --- ------ States, --------- ----------- --------<br>--------- -------- --- ------- -- ------- ---- -- ------<br>-- --- -------- -------- ---------- ---- ---- ---- ------<br>-- --------- -- ---- -- --- -- --- ------- -- - -----<br>---------- -- -- -- ---- ----- -- ------ -- --- ------<br>-------",276400,276396,276049.52,276043,276066.18,276432.86,,4,"States,"
screen,html.Screen,2_3_1_0_1_5,2021-04-26T19:02:53.882Z,,,,,,,,,,,,,,,,,48,,,,,,,,,,,,,,355.14000000001397,,response,,,,10,D,,,,,,Space,keypress(Space),,,,silence,,,,-- -- --- ------ ------- Colombian ----------- --------<br>--------- -------- --- ------- -- ------- ---- -- ------<br>-- --- -------- -------- ---------- ---- ---- ---- ------<br>-- --------- -- ---- -- --- -- --- ------- -- - -----<br>---------- -- -- -- ---- ----- -- ------ -- --- ------<br>-------,276801,276788,276416.2,276401,276432.86,276832.88,,5,Colombian
screen,html.Screen,2_3_1_0_1_6,2021-04-26T19:02:54.308Z,,,,,,,,,,,,,,,,,48,,,,,,,,,,,,,,377.11999999999534,,response,,,,10,D,,,,,,Space,keypress(Space),,,,silence,,,,-- -- --- ------ ------- --------- legislation --------<br>--------- -------- --- ------- -- ------- ---- -- ------<br>-- --- -------- -------- ---------- ---- ---- ---- ------<br>-- --------- -- ---- -- --- -- --- ------- -- - -----<br>---------- -- -- -- ---- ----- -- ------ -- --- ------<br>-------,277227,277210,276816.22,276801,276832.88,277249.58,,6,legislation
screen,html.Screen,2_3_1_0_1_7,2021-04-26T19:02:54.801Z,,,,,,,,,,,,,,,,,48,,,,,,,,,,,,,,459.4199999999837,,response,,,,10,D,,,,,,Space,keypress(Space),,,,silence,,,,-- -- --- ------ ------- --------- ----------- requires<br>--------- -------- --- ------- -- ------- ---- -- ------<br>-- --- -------- -------- ---------- ---- ---- ---- ------<br>-- --------- -- ---- -- --- -- --- ------- -- - -----<br>---------- -- -- -- ---- ----- -- ------ -- --- ------<br>-------,277719,277709,277232.9,277227,277249.58,277749.6,,7,requires
screen,html.Screen,2_3_1_0_1_8,2021-04-26T19:02:55.210Z,,,,,,,,,,,,,,,,,48,,,,,,,,,,,,,,365.4000000000233,,response,,,,10,D,,,,,,Space,keypress(Space),,,,silence,,,,-- -- --- ------ ------- --------- ----------- --------<br>travelers -------- --- ------- -- ------- ---- -- ------<br>-- --- -------- -------- ---------- ---- ---- ---- ------<br>-- --------- -- ---- -- --- -- --- ------- -- - -----<br>---------- -- -- -- ---- ----- -- ------ -- --- ------<br>-------,278128,278115,277732.94,277719,277749.6,278149.62,,8,travelers
screen,html.Screen,2_3_1_0_1_9,2021-04-26T19:02:55.653Z,,,,,,,,,,,,,,,,,48,,,,,,,,,,,,,,418.38000000000466,,response,,,,10,D,,,,,,Space,keypress(Space),,,,silence,,,,-- -- --- ------ ------- --------- ----------- --------<br>--------- entering --- ------- -- ------- ---- -- ------<br>-- --- -------- -------- ---------- ---- ---- ---- ------<br>-- --------- -- ---- -- --- -- --- ------- -- - -----<br>---------- -- -- -- ---- ----- -- ------ -- --- ------<br>-------,278572,278568,278132.96,278128,278149.62,278599.64,,9,entering
screen,html.Screen,2_3_1_0_1_10,2021-04-26T19:02:56.057Z,,,,,,,,,,,,,,,,,48,,,,,,,,,,,,,,359.35999999998603,,response,,,,10,D,,,,,,Space,keypress(Space),,,,silence,,,,-- -- --- ------ ------- --------- ----------- --------<br>--------- -------- the ------- -- ------- ---- -- ------<br>-- --- -------- -------- ---------- ---- ---- ---- ------<br>-- --------- -- ---- -- --- -- --- ------- -- - -----<br>---------- -- -- -- ---- ----- -- ------ -- --- ------<br>-------,278976,278959,278582.98,278572,278599.64,278999.66,,10,the
screen,html.Screen,2_3_1_0_1_11,2021-04-26T19:02:56.452Z,,,,,,,,,,,,,,,,,48,,,,,,,,,,,,,,365.3400000000256,,response,,,,10,D,,,,,,Space,keypress(Space),,,,silence,,,,-- -- --- ------ ------- --------- ----------- --------<br>--------- -------- --- country -- ------- ---- -- ------<br>-- --- -------- -------- ---------- ---- ---- ---- ------<br>-- --------- -- ---- -- --- -- --- ------- -- - -----<br>---------- -- -- -- ---- ----- -- ------ -- --- ------<br>-------,279370,279365,278983,278976,278999.66,279399.68,,11,country
screen,html.Screen,2_3_1_0_1_12,2021-04-26T19:02:56.800Z,,,,,,,,,,,,,,,,,48,,,,,,,,,,,,,,309.320000000007,,response,,,,10,D,,,,,,Space,keypress(Space),,,,silence,,,,-- -- --- ------ ------- --------- ----------- --------<br>--------- -------- --- ------- to ------- ---- -- ------<br>-- --- -------- -------- ---------- ---- ---- ---- ------<br>-- --------- -- ---- -- --- -- --- ------- -- - -----<br>---------- -- -- -- ---- ----- -- ------ -- --- ------<br>-------,279718,279709,279383.02,279371,279399.68,279749.7,,12,to
screen,html.Screen,2_3_1_0_1_13,2021-04-26T19:02:57.167Z,,,,,,,,,,,,,,,,,48,,,,,,,,,,,,,,318.29999999998836,,response,,,,10,D,,,,,,Space,keypress(Space),,,,silence,,,,-- -- --- ------ ------- --------- ----------- --------<br>--------- -------- --- ------- -- declare ---- -- ------<br>-- --- -------- -------- ---------- ---- ---- ---- ------<br>-- --------- -- ---- -- --- -- --- ------- -- - -----<br>---------- -- -- -- ---- ----- -- ------ -- --- ------<br>-------,280086,280068,279733.04,279719,279749.7,280116.38,,13,declare
screen,html.Screen,2_3_1_0_1_14,2021-04-26T19:02:57.566Z,,,,,,,,,,,,,,,,,48,,,,,,,,,,,,,,357.61999999999534,,response,,,,10,D,,,,,,Space,keypress(Space),,,,silence,,,,-- -- --- ------ ------- --------- ----------- --------<br>--------- -------- --- ------- -- ------- cash -- ------<br>-- --- -------- -------- ---------- ---- ---- ---- ------<br>-- --------- -- ---- -- --- -- --- ------- -- - -----<br>---------- -- -- -- ---- ----- -- ------ -- --- ------<br>-------,280484,280474,280099.72,280086,280116.38,280516.4,,14,cash
screen,html.Screen,2_3_1_0_1_15,2021-04-26T19:02:57.951Z,,,,,,,,,,,,,,,,,48,,,,,,,,,,,,,,349.5999999999767,,response,,,,10,D,,,,,,Space,keypress(Space),,,,silence,,,,-- -- --- ------ ------- --------- ----------- --------<br>--------- -------- --- ------- -- ------- ---- in ------<br>-- --- -------- -------- ---------- ---- ---- ---- ------<br>-- --------- -- ---- -- --- -- --- ------- -- - -----<br>---------- -- -- -- ---- ----- -- ------ -- --- ------<br>-------,280868,280866,280499.74,280485,280516.4,280899.76,,15,in
screen,html.Screen,2_3_1_0_1_16,2021-04-26T19:02:58.350Z,,,,,,,,,,,,,,,,,48,,,,,,,,,,,,,,356.2399999999907,,response,,,,10,D,,,,,,Space,keypress(Space),,,,silence,,,,-- -- --- ------ ------- --------- ----------- --------<br>--------- -------- --- ------- -- ------- ---- -- excess<br>-- --- -------- -------- ---------- ---- ---- ---- ------<br>-- --------- -- ---- -- --- -- --- ------- -- - -----<br>---------- -- -- -- ---- ----- -- ------ -- --- ------<br>-------,281268,281256,280883.1,280869,280899.76,281299.78,,16,excess
screen,html.Screen,2_3_1_0_1_17,2021-04-26T19:02:58.734Z,,,,,,,,,,,,,,,,,48,,,,,,,,,,,,,,346.21999999997206,,response,,,,10,D,,,,,,Space,keypress(Space),,,,silence,,,,-- -- --- ------ ------- --------- ----------- --------<br>--------- -------- --- ------- -- ------- ---- -- ------<br>of --- -------- -------- ---------- ---- ---- ---- ------<br>-- --------- -- ---- -- --- -- --- ------- -- - -----<br>---------- -- -- -- ---- ----- -- ------ -- --- ------<br>-------,281653,281646,281283.12,281268,281299.78,281683.12,,17,of
screen,html.Screen,2_3_1_0_1_18,2021-04-26T19:02:59.144Z,,,,,,,,,,,,,,,,,48,,,,,,,,,,,,,,368.88000000000466,,response,,,,10,D,,,,,,Space,keypress(Space),,,,silence,,,,-- -- --- ------ ------- --------- ----------- --------<br>--------- -------- --- ------- -- ------- ---- -- ------<br>-- ten -------- -------- ---------- ---- ---- ---- ------<br>-- --------- -- ---- -- --- -- --- ------- -- - -----<br>---------- -- -- -- ---- ----- -- ------ -- --- ------<br>-------,282062,282052,281666.46,281654,281683.12,282083.14,,18,ten
screen,html.Screen,2_3_1_0_1_19,2021-04-26T19:02:59.541Z,,,,,,,,,,,,,,,,,48,,,,,,,,,,,,,,359.85999999998603,,response,,,,10,D,,,,,,Space,keypress(Space),,,,silence,,,,-- -- --- ------ ------- --------- ----------- --------<br>--------- -------- --- ------- -- ------- ---- -- ------<br>-- --- thousand -------- ---------- ---- ---- ---- ------<br>-- --------- -- ---- -- --- -- --- ------- -- - -----<br>---------- -- -- -- ---- ----- -- ------ -- --- ------<br>-------,282459,282443,282066.48,282062,282083.14,282483.16,,19,thousand
screen,html.Screen,2_3_1_0_1_20,2021-04-26T19:02:59.917Z,,,,,,,,,,,,,,,,,48,,,,,,,,,,,,,,334.8400000000256,,response,,,,10,D,,,,,,Space,keypress(Space),,,,silence,,,,-- -- --- ------ ------- --------- ----------- --------<br>--------- -------- --- ------- -- ------- ---- -- ------<br>-- --- -------- dollars. ---------- ---- ---- ---- ------<br>-- --------- -- ---- -- --- -- --- ------- -- - -----<br>---------- -- -- -- ---- ----- -- ------ -- --- ------<br>-------,282835,282818,282466.5,282459,282483.16,282866.52,,20,dollars.
screen,html.Screen,2_3_1_0_1_21,2021-04-26T19:03:00.330Z,,,,,,,,,,,,,,,,,48,,,,,,,,,,,,,,373.4799999999814,,response,,,,10,D,,,,,,Space,keypress(Space),,,,silence,,,,-- -- --- ------ ------- --------- ----------- --------<br>--------- -------- --- ------- -- ------- ---- -- ------<br>-- --- -------- -------- Concealing ---- ---- ---- ------<br>-- --------- -- ---- -- --- -- --- ------- -- - -----<br>---------- -- -- -- ---- ----- -- ------ -- --- ------<br>-------,283248,283240,282849.86,282836,282866.52,283266.54,,21,Concealing
screen,html.Screen,2_3_1_0_1_22,2021-04-26T19:03:00.872Z,,,,,,,,,,,,,,,,,48,,,,,,,,,,,,,,520.460000000021,,response,,,,10,D,,,,,,Space,keypress(Space),,,,silence,,,,-- -- --- ------ ------- --------- ----------- --------<br>--------- -------- --- ------- -- ------- ---- -- ------<br>-- --- -------- -------- ---------- more ---- ---- ------<br>-- --------- -- ---- -- --- -- --- ------- -- - -----<br>---------- -- -- -- ---- ----- -- ------ -- --- ------<br>-------,283790,283787,283249.88,283249,283266.54,283816.56,,22,more
screen,html.Screen,2_3_1_0_1_23,2021-04-26T19:03:01.314Z,,,,,,,,,,,,,,,,,48,,,,,,,,,,,,,,407.4400000000023,,response,,,,10,D,,,,,,Space,keypress(Space),,,,silence,,,,-- -- --- ------ ------- --------- ----------- --------<br>--------- -------- --- ------- -- ------- ---- -- ------<br>-- --- -------- -------- ---------- ---- than ---- ------<br>-- --------- -- ---- -- --- -- --- ------- -- - -----<br>---------- -- -- -- ---- ----- -- ------ -- --- ------<br>-------,284232,284224,283799.9,283790,283816.56,284249.92,,23,than
screen,html.Screen,2_3_1_0_1_24,2021-04-26T19:03:01.684Z,,,,,,,,,,,,,,,,,48,,,,,,,,,,,,,,335.0800000000163,,response,,,,10,D,,,,,,Space,keypress(Space),,,,silence,,,,-- -- --- ------ ------- --------- ----------- --------<br>--------- -------- --- ------- -- ------- ---- -- ------<br>-- --- -------- -------- ---------- ---- ---- that ------<br>-- --------- -- ---- -- --- -- --- ------- -- - -----<br>---------- -- -- -- ---- ----- -- ------ -- --- ------<br>-------,284602,284585,284233.26,284232,284249.92,284633.28,,24,that
screen,html.Screen,2_3_1_0_1_25,2021-04-26T19:03:02.080Z,,,,,,,,,,,,,,,,,48,,,,,,,,,,,,,,356.71999999997206,,response,,,,10,D,,,,,,Space,keypress(Space),,,,silence,,,,-- -- --- ------ ------- --------- ----------- --------<br>--------- -------- --- ------- -- ------- ---- -- ------<br>-- --- -------- -------- ---------- ---- ---- ---- amount<br>-- --------- -- ---- -- --- -- --- ------- -- - -----<br>---------- -- -- -- ---- ----- -- ------ -- --- ------<br>-------,284998,284990,284616.6,284602,284633.28,285016.62,,25,amount
screen,html.Screen,2_3_1_0_1_26,2021-04-26T19:03:02.508Z,,,,,,,,,,,,,,,,,48,,,,,,,,,,,,,,395.38000000000466,,response,,,,10,D,,,,,,Space,keypress(Space),,,,silence,,,,-- -- --- ------ ------- --------- ----------- --------<br>--------- -------- --- ------- -- ------- ---- -- ------<br>-- --- -------- -------- ---------- ---- ---- ---- ------<br>to --------- -- ---- -- --- -- --- ------- -- - -----<br>---------- -- -- -- ---- ----- -- ------ -- --- ------<br>-------,285426,285412,284999.96,284999,285016.62,285449.98,,26,to
screen,html.Screen,2_3_1_0_1_27,2021-04-26T19:03:02.938Z,,,,,,,,,,,,,,,,,48,,,,,,,,,,,,,,399.0200000000186,,response,,,,10,D,,,,,,Space,keypress(Space),,,,silence,,,,-- -- --- ------ ------- --------- ----------- --------<br>--------- -------- --- ------- -- ------- ---- -- ------<br>-- --- -------- -------- ---------- ---- ---- ---- ------<br>-- transport -- ---- -- --- -- --- ------- -- - -----<br>---------- -- -- -- ---- ----- -- ------ -- --- ------<br>-------,285856,285849,285433.3,285427,285449.98,285883.34,,27,transport
screen,html.Screen,2_3_1_0_1_28,2021-04-26T19:03:03.332Z,,,,,,,,,,,,,,,,,48,,,,,,,,,,,,,,357.6599999999744,,response,,,,10,D,,,,,,Space,keypress(Space),,,,silence,,,,-- -- --- ------ ------- --------- ----------- --------<br>--------- -------- --- ------- -- ------- ---- -- ------<br>-- --- -------- -------- ---------- ---- ---- ---- ------<br>-- --------- it ---- -- --- -- --- ------- -- - -----<br>---------- -- -- -- ---- ----- -- ------ -- --- ------<br>-------,286250,286241,285866.66,285857,285883.34,286283.36,,28,it
screen,html.Screen,2_3_1_0_1_29,2021-04-26T19:03:03.732Z,,,,,,,,,,,,,,,,,48,,,,,,,,,,,,,,362.64000000001397,,response,,,,10,D,,,,,,Space,keypress(Space),,,,silence,,,,-- -- --- ------ ------- --------- ----------- --------<br>--------- -------- --- ------- -- ------- ---- -- ------<br>-- --- -------- -------- ---------- ---- ---- ---- ------<br>-- --------- -- into -- --- -- --- ------- -- - -----<br>---------- -- -- -- ---- ----- -- ------ -- --- ------<br>-------,286651,286646,286266.68,286251,286283.36,286683.38,,29,into
screen,html.Screen,2_3_1_0_1_30,2021-04-26T19:03:04.124Z,,,,,,,,,,,,,,,,,48,,,,,,,,,,,,,,353.61999999999534,,response,,,,10,D,,,,,,Space,keypress(Space),,,,silence,,,,-- -- --- ------ ------- --------- ----------- --------<br>--------- -------- --- ------- -- ------- ---- -- ------<br>-- --- -------- -------- ---------- ---- ---- ---- ------<br>-- --------- -- ---- or --- -- --- ------- -- - -----<br>---------- -- -- -- ---- ----- -- ------ -- --- ------<br>-------,287042,287037,286666.7,286651,286683.38,287066.72,,30,or
screen,html.Screen,2_3_1_0_1_31,2021-04-26T19:03:04.515Z,,,,,,,,,,,,,,,,,48,,,,,,,,,,,,,,360.28000000002794,,response,,,,10,D,,,,,,Space,keypress(Space),,,,silence,,,,-- -- --- ------ ------- --------- ----------- --------<br>--------- -------- --- ------- -- ------- ---- -- ------<br>-- --- -------- -------- ---------- ---- ---- ---- ------<br>-- --------- -- ---- -- out -- --- ------- -- - -----<br>---------- -- -- -- ---- ----- -- ------ -- --- ------<br>-------,287433,287427,287050.06,287042,287066.72,287466.74,,31,out
screen,html.Screen,2_3_1_0_1_32,2021-04-26T19:03:04.863Z,,,,,,,,,,,,,,,,,48,,,,,,,,,,,,,,305.2600000000093,,response,,,,10,D,,,,,,Space,keypress(Space),,,,silence,,,,-- -- --- ------ ------- --------- ----------- --------<br>--------- -------- --- ------- -- ------- ---- -- ------<br>-- --- -------- -------- ---------- ---- ---- ---- ------<br>-- --------- -- ---- -- --- of --- ------- -- - -----<br>---------- -- -- -- ---- ----- -- ------ -- --- ------<br>-------,287781,287772,287450.08,287433,287466.74,287800.1,,32,of
screen,html.Screen,2_3_1_0_1_33,2021-04-26T19:03:05.202Z,,,,,,,,,,,,,,,,,48,,,,,,,,,,,,,,314.9000000000233,,response,,,,10,D,,,,,,Space,keypress(Space),,,,silence,,,,-- -- --- ------ ------- --------- ----------- --------<br>--------- -------- --- ------- -- ------- ---- -- ------<br>-- --- -------- -------- ---------- ---- ---- ---- ------<br>-- --------- -- ---- -- --- -- the ------- -- - -----<br>---------- -- -- -- ---- ----- -- ------ -- --- ------<br>-------,288120,288115,287783.44,287782,287800.1,288150.12,,33,the
screen,html.Screen,2_3_1_0_1_34,2021-04-26T19:03:05.556Z,,,,,,,,,,,,,,,,,48,,,,,,,,,,,,,,308.88000000000466,,response,,,,10,D,,,,,,Space,keypress(Space),,,,silence,,,,-- -- --- ------ ------- --------- ----------- --------<br>--------- -------- --- ------- -- ------- ---- -- ------<br>-- --- -------- -------- ---------- ---- ---- ---- ------<br>-- --------- -- ---- -- --- -- --- country -- - -----<br>---------- -- -- -- ---- ----- -- ------ -- --- ------<br>-------,288473,288459,288133.44,288120,288150.12,288500.14,,34,country
screen,html.Screen,2_3_1_0_1_35,2021-04-26T19:03:05.931Z,,,,,,,,,,,,,,,,,48,,,,,,,,,,,,,,333.85999999998603,,response,,,,10,D,,,,,,Space,keypress(Space),,,,silence,,,,-- -- --- ------ ------- --------- ----------- --------<br>--------- -------- --- ------- -- ------- ---- -- ------<br>-- --- -------- -------- ---------- ---- ---- ---- ------<br>-- --------- -- ---- -- --- -- --- ------- is - -----<br>---------- -- -- -- ---- ----- -- ------ -- --- ------<br>-------,288849,288834,288483.46,288474,288500.14,288883.48,,35,is
screen,html.Screen,2_3_1_0_1_36,2021-04-26T19:03:06.316Z,,,,,,,,,,,,,,,,,48,,,,,,,,,,,,,,341.5200000000186,,response,,,,10,D,,,,,,Space,keypress(Space),,,,silence,,,,-- -- --- ------ ------- --------- ----------- --------<br>--------- -------- --- ------- -- ------- ---- -- ------<br>-- --- -------- -------- ---------- ---- ---- ---- ------<br>-- --------- -- ---- -- --- -- --- ------- -- a -----<br>---------- -- -- -- ---- ----- -- ------ -- --- ------<br>-------,289234,289225,288866.82,288850,288883.48,289266.84,,36,a
screen,html.Screen,2_3_1_0_1_37,2021-04-26T19:03:06.703Z,,,,,,,,,,,,,,,,,48,,,,,,,,,,,,,,348.1599999999744,,response,,,,10,D,,,,,,Space,keypress(Space),,,,silence,,,,-- -- --- ------ ------- --------- ----------- --------<br>--------- -------- --- ------- -- ------- ---- -- ------<br>-- --- -------- -------- ---------- ---- ---- ---- ------<br>-- --------- -- ---- -- --- -- --- ------- -- - crime<br>---------- -- -- -- ---- ----- -- ------ -- --- ------<br>-------,289622,289615,289250.18,289235,289266.84,289650.16,,37,crime
screen,html.Screen,2_3_1_0_1_38,2021-04-26T19:03:07.150Z,,,,,,,,,,,,,,,,,48,,,,,,,,,,,,,,402.8400000000256,,response,,,,10,D,,,,,,Space,keypress(Space),,,,silence,,,,-- -- --- ------ ------- --------- ----------- --------<br>--------- -------- --- ------- -- ------- ---- -- ------<br>-- --- -------- -------- ---------- ---- ---- ---- ------<br>-- --------- -- ---- -- --- -- --- ------- -- - -----<br>punishable -- -- -- ---- ----- -- ------ -- --- ------<br>-------,290069,290053,289633.5,289622,289650.16,290100.18,,38,punishable
screen,html.Screen,2_3_1_0_1_39,2021-04-26T19:03:07.533Z,,,,,,,,,,,,,,,,,48,,,,,,,,,,,,,,342.820000000007,,response,,,,10,D,,,,,,Space,keypress(Space),,,,silence,,,,-- -- --- ------ ------- --------- ----------- --------<br>--------- -------- --- ------- -- ------- ---- -- ------<br>-- --- -------- -------- ---------- ---- ---- ---- ------<br>-- --------- -- ---- -- --- -- --- ------- -- - -----<br>---------- by -- -- ---- ----- -- ------ -- --- ------<br>-------,290452,290443,290083.52,290069,290100.18,290483.54,,39,by
screen,html.Screen,2_3_1_0_1_40,2021-04-26T19:03:07.878Z,,,,,,,,,,,,,,,,,48,,,,,,,,,,,,,,303.46000000002095,,response,,,,10,D,,,,,,Space,keypress(Space),,,,silence,,,,-- -- --- ------ ------- --------- ----------- --------<br>--------- -------- --- ------- -- ------- ---- -- ------<br>-- --- -------- -------- ---------- ---- ---- ---- ------<br>-- --------- -- ---- -- --- -- --- ------- -- - -----<br>---------- -- up -- ---- ----- -- ------ -- --- ------<br>-------,290796,290787,290466.88,290452,290483.54,290816.9,,40,up
screen,html.Screen,2_3_1_0_1_41,2021-04-26T19:03:08.258Z,,,,,,,,,,,,,,,,,48,,,,,,,,,,,,,,345.0999999999767,,response,,,,10,D,,,,,,Space,keypress(Space),,,,silence,,,,-- -- --- ------ ------- --------- ----------- --------<br>--------- -------- --- ------- -- ------- ---- -- ------<br>-- --- -------- -------- ---------- ---- ---- ---- ------<br>-- --------- -- ---- -- --- -- --- ------- -- - -----<br>---------- -- -- to ---- ----- -- ------ -- --- ------<br>-------,291176,291162,290800.22,290796,290816.9,291200.24,,41,to
screen,html.Screen,2_3_1_0_1_42,2021-04-26T19:03:08.626Z,,,,,,,,,,,,,,,,,48,,,,,,,,,,,,,,336.7600000000093,,response,,,,10,D,,,,,,Space,keypress(Space),,,,silence,,,,-- -- --- ------ ------- --------- ----------- --------<br>--------- -------- --- ------- -- ------- ---- -- ------<br>-- --- -------- -------- ---------- ---- ---- ---- ------<br>-- --------- -- ---- -- --- -- --- ------- -- - -----<br>---------- -- -- -- five ----- -- ------ -- --- ------<br>-------,291544,291537,291183.58,291177,291200.24,291566.94,,42,five
screen,html.Screen,2_3_1_0_1_43,2021-04-26T19:03:08.936Z,,,,,,,,,,,,,,,,,48,,,,,,,,,,,,,,282.0599999999977,,response,,,,10,D,,,,,,Space,keypress(Space),,,,silence,,,,-- -- --- ------ ------- --------- ----------- --------<br>--------- -------- --- ------- -- ------- ---- -- ------<br>-- --- -------- -------- ---------- ---- ---- ---- ------<br>-- --------- -- ---- -- --- -- --- ------- -- - -----<br>---------- -- -- -- ---- years -- ------ -- --- ------<br>-------,291855,291849,291550.26,291544,291566.94,291883.62,,43,years
screen,html.Screen,2_3_1_0_1_44,2021-04-26T19:03:09.267Z,,,,,,,,,,,,,,,,,48,,,,,,,,,,,,,,293.38000000000466,,response,,,,10,D,,,,,,Space,keypress(Space),,,,silence,,,,-- -- --- ------ ------- --------- ----------- --------<br>--------- -------- --- ------- -- ------- ---- -- ------<br>-- --- -------- -------- ---------- ---- ---- ---- ------<br>-- --------- -- ---- -- --- -- --- ------- -- - -----<br>---------- -- -- -- ---- ----- in ------ -- --- ------<br>-------,292185,292177,291866.94,291855,291883.62,292216.96,,44,in
screen,html.Screen,2_3_1_0_1_45,2021-04-26T19:03:09.616Z,,,,,,,,,,,,,,,,,48,,,,,,,,,,,,,,304.03999999997905,,response,,,,10,D,,,,,,Space,keypress(Space),,,,silence,,,,-- -- --- ------ ------- --------- ----------- --------<br>--------- -------- --- ------- -- ------- ---- -- ------<br>-- --- -------- -------- ---------- ---- ---- ---- ------<br>-- --------- -- ---- -- --- -- --- ------- -- - -----<br>---------- -- -- -- ---- ----- -- prison -- --- ------<br>-------,292534,292521,292200.3,292186,292216.96,292566.98,,45,prison
screen,html.Screen,2_3_1_0_1_46,2021-04-26T19:03:09.972Z,,,,,,,,,,,,,,,,,48,,,,,,,,,,,,,,314.0200000000186,,response,,,,10,D,,,,,,Space,keypress(Space),,,,silence,,,,-- -- --- ------ ------- --------- ----------- --------<br>--------- -------- --- ------- -- ------- ---- -- ------<br>-- --- -------- -------- ---------- ---- ---- ---- ------<br>-- --------- -- ---- -- --- -- --- ------- -- - -----<br>---------- -- -- -- ---- ----- -- ------ in --- ------<br>-------,292890,292881,292550.32,292534,292566.98,292917,,46,in
screen,html.Screen,2_3_1_0_1_47,2021-04-26T19:03:10.362Z,,,,,,,,,,,,,,,,,48,,,,,,,,,,,,,,354,,response,,,,10,D,,,,,,Space,keypress(Space),,,,silence,,,,-- -- --- ------ ------- --------- ----------- --------<br>--------- -------- --- ------- -- ------- ---- -- ------<br>-- --- -------- -------- ---------- ---- ---- ---- ------<br>-- --------- -- ---- -- --- -- --- ------- -- - -----<br>---------- -- -- -- ---- ----- -- ------ -- the ------<br>-------,293280,293271,292900.34,292891,292917,293300.36,,47,the
screen,html.Screen,2_3_1_0_1_48,2021-04-26T19:03:10.742Z,,,,,,,,,,,,,,,,,48,,,,,,,,,,,,,,345.64000000001397,,response,,,,10,D,,,,,,Space,keypress(Space),,,,silence,,,,-- -- --- ------ ------- --------- ----------- --------<br>--------- -------- --- ------- -- ------- ---- -- ------<br>-- --- -------- -------- ---------- ---- ---- ---- ------<br>-- --------- -- ---- -- --- -- --- ------- -- - -----<br>---------- -- -- -- ---- ----- -- ------ -- --- United<br>-------,293661,293646,293283.68,293281,293300.36,293683.7,,48,United
screen,html.Screen,2_3_1_0_1_49,2021-04-26T19:03:11.122Z,,,,,,,,,,,,,,,,,48,,,,,,,,,,,,,,354.29999999998836,,response,,,,10,D,,,,,,Space,keypress(Space),,,,silence,,,,-- -- --- ------ ------- --------- ----------- --------<br>--------- -------- --- ------- -- ------- ---- -- ------<br>-- --- -------- -------- ---------- ---- ---- ---- ------<br>-- --------- -- ---- -- --- -- --- ------- -- - -----<br>---------- -- -- -- ---- ----- -- ------ -- --- ------<br>States.,294040,294038,293667.04,293661,293683.7,294067.06,,49,States.
Item 10,flow.Loop,2_3_1_0_1,2021-04-26T19:03:11.122Z,,,,,,,,,,,,,,,,,,,,,,,,,,,,,,,19855.26000000001,,completion,,,,,,,,,,,,,,,,,,,,,294041,294038,274166.08,274167,274182.74,294067.06,,,
Question 1,html.Screen,2_3_1_0_2,2021-04-26T19:03:14.330Z,,,,,,,,,,,,,,,,,,,,,,,,,,,,true,TRUE,,3172.9400000000023,,response,,,,10,D,,,,,,TRUE,click #choice-1,,,,silence,,,,,297248,297240,294050.4,294041,294067.06,297267.2,,,
Question 2,html.Screen,2_3_1_0_3,2021-04-26T19:03:16.914Z,,,,,,,,,,,,,,,,,,,,,,,,,,,,true,TRUE,,2550.7999999999884,,response,,,,10,D,,,,,,TRUE,click #choice-1,,,,silence,,,,,299832,299818,297250.56,297249,297267.2,299850.66,,,
Item 10,flow.Sequence,2_3_1_0,2021-04-26T19:03:16.914Z,,,,,,,,,,,,,,,,,,,,,,,,,,,,,,,32635.580000000016,,completion,,,,,,,,,,,,,,,,,,,,,299833,299818,267165.76,267167,267182.42,299850.66,,,
Holding screen,html.Screen,2_3_1_1_0,2021-04-26T19:03:23.917Z,,,,,,,,,,,,,,,,,,,,,,,,,,,,,,,7000.360000000044,,timeout,,,,,,,,,,,,,,,,,,,,,306836,306834.36,299834,299833,299850.66,306851.02,,,
screen,html.Screen,2_3_1_1_1_0,2021-04-26T19:03:24.593Z,,,,,,,,,,,,,,,,,15,,,,,,,,,,,,,,654.9799999999814,,response,,,,7,D,,,,,,Space,keypress(Space),,,,silence,,,,Greg --------- ---------- - --- ------- -- --- ------------<br>----- -- -------- ------- ---- ------ - -------- ---- -----<br>--- ------- ---- -- --- -------- --- - ----- ------ ---- --<br>-------- --- -------- -------- --- -------- ---- -- ----- -<br>-------- ---- --- ---------- --------- -- ------- ------ -<br>--------- ----- -----,307512,307506,306834.36,306836,306851.02,307534.38,,0,Greg
screen,html.Screen,2_3_1_1_1_1,2021-04-26T19:03:25.016Z,,,,,,,,,,,,,,,,,15,,,,,,,,,,,,,,392.61999999999534,,response,,,,7,D,,,,,,Space,keypress(Space),,,,silence,,,,"---- Anderson, ---------- - --- ------- -- --- ------------<br>----- -- -------- ------- ---- ------ - -------- ---- -----<br>--- ------- ---- -- --- -------- --- - ----- ------ ---- --<br>-------- --- -------- -------- --- -------- ---- -- ----- -<br>-------- ---- --- ---------- --------- -- ------- ------ -<br>--------- ----- -----",307934,307927,307517.72,307512,307534.38,307967.74,,1,"Anderson,"
screen,html.Screen,2_3_1_1_1_2,2021-04-26T19:03:25.400Z,,,,,,,,,,,,,,,,,15,,,,,,,,,,,,,,334.2600000000093,,response,,,,7,D,,,,,,Space,keypress(Space),,,,silence,,,,---- --------- considered - --- ------- -- --- ------------<br>----- -- -------- ------- ---- ------ - -------- ---- -----<br>--- ------- ---- -- --- -------- --- - ----- ------ ---- --<br>-------- --- -------- -------- --- -------- ---- -- ----- -<br>-------- ---- --- ---------- --------- -- ------- ------ -<br>--------- ----- -----,308317,308302,307951.06,307935,307967.74,308351.08,,2,considered
screen,html.Screen,2_3_1_1_1_3,2021-04-26T19:03:26.004Z,,,,,,,,,,,,,,,,,15,,,,,,,,,,,,,,560.9199999999837,,response,,,,7,D,,,,,,Space,keypress(Space),,,,silence,,,,---- --------- ---------- a --- ------- -- --- ------------<br>----- -- -------- ------- ---- ------ - -------- ---- -----<br>--- ------- ---- -- --- -------- --- - ----- ------ ---- --<br>-------- --- -------- -------- --- -------- ---- -- ----- -<br>-------- ---- --- ---------- --------- -- ------- ------ -<br>--------- ----- -----,308923,308912,308334.42,308318,308351.08,308951.12,,3,a
