sender,sender_type,sender_id,timestamp,meta,,Blues,Classical,Country,Dance,Electronic,Folk,Gospel,Hip-Hop,Jazz,Latin,Musical/Film,New-age,Pop,Prolific_id,Provo_ID,R&B,Rap,Reggae,Religious,Rock,Soul,Swing,Traditional,age,artist_name,correct,correctResponse,distraction,duration,education,ended_on,familiarity,gender,headphone_check_performance,item,list,music_frequency,offensiveness,pleasantness,position_correct,preference,response,response_action,snippet_file,song_name,song_rating,sound,stimulus_1,stimulus_2,stimulus_3,text,time_commit,time_end,time_render,time_run,time_show,time_switch,url,word,word_ID
Prolific ID,html.Form,0,2021-04-26T15:19:46.449Z,"{""labjs_version"":""20.2.2"",""labjs_build"":{""flavor"":""production"",""commit"":""a25486e0c714a0ae2ce03ff94b7bb6896854dcfa""},""location"":""https://run.pavlovia.org/mvasilev/prolific_music_c/#"",""userAgent"":""Mozilla/5.0 (Macintosh; Intel Mac OS X 10.15; rv:88.0) Gecko/20100101 Firefox/88.0"",""platform"":""MacIntel"",""language"":""en-US"",""locale"":""en-GB"",""timeZone"":""Europe/London"",""timezoneOffset"":-60,""screen_width"":1440,""screen_height"":900,""scroll_width"":1419,""scroll_height"":686,""window_innerWidth"":1419,""window_innerHeight"":734,""devicePixelRatio"":2}",,,,,,,,,,,,,,,6050835a7dbf1e0d8bef47d0,,,,,,,,,,,,,,,9498.82,,form submission,,,,,,,,,,,,,,,,,,,,,19402,19401,9864.92,9864,9902.18,19416.54,{},,
Introduction,html.Screen,1_0,2021-04-26T15:19:48.955Z,,,,,,,,,,,,,,,,,,,,,,,,,,,,,,,2488.459999999999,,response,,,,,,,,,,,continue,click button,,,,,,,,,21908,21905,19382.4,19404,19416.54,21941.72,,,
Volume calibration,html.Screen,1_1,2021-04-26T15:19:51.894Z,,,,,,,,,,,,,,,,,,,,,,,,,,,,,,,2903.279999999999,,response,,,,,,,,,,,continue,click button,,,,,,,,,24848,24845,21900.4,21909,21941.72,24867.42,,,
Task instructions,html.Screen,1_2,2021-04-26T15:19:54.952Z,,,,,,,,,,,,,,,,,,,,,,,,,,,,,,,3035.5800000000017,,response,,,,,,,,,,,continue,click button,,,,,,,,,27906,27903,24840.44,24849,24867.42,27927.38,,,
Sounds,html.Screen,1_3_0_0,2021-04-26T15:19:59.206Z,,,,,,,,,,,,,,,,,,,,,,,,,,,,,,,4247.119999999999,,timeout,,,,,,,,,2,,,,,,,,I,S,O,,32160,32158.5,27898.48,27907,27927.38,32174.5,,,
Judgement,html.Screen,1_3_0_1,2021-04-26T15:20:00.744Z,,,,,,,,,,,,,,,,,,,,,,,,,,,,true,2,,1520.5,,response,,,,,,,,,2,,2,click #choice-2,,,,,I,S,O,,33697,33695,32158.5,32160,32174.5,33730.3,,,
Trial,flow.Sequence,1_3_0,2021-04-26T15:20:00.744Z,,,,,,,,,,,,,,,,,,,,,,,,,,,,,,,5767.619999999999,,completion,,,,,,,,,2,,,,,,,,I,S,O,,33698,33695,27898.48,27907,27927.38,33730.3,,,
Sounds,html.Screen,1_3_1_0,2021-04-26T15:20:05.007Z,,,,,,,,,,,,,,,,,,,,,,,,,,,,,,,4247.139999999999,,timeout,,,,,,,,,1,,,,,,,,S,O,I,,37961,37960.6,33690.38,33699,33730.3,37977.44,,,
Judgement,html.Screen,1_3_1_1,2021-04-26T15:20:05.561Z,,,,,,,,,,,,,,,,,,,,,,,,,,,,true,1,,535.5599999999977,,response,,,,,,,,,1,,1,click #choice-1,,,,,S,O,I,,38514,38513,37960.6,37962,37977.44,38546,,,
Trial,flow.Sequence,1_3_1,2021-04-26T15:20:05.561Z,,,,,,,,,,,,,,,,,,,,,,,,,,,,,,,4782.699999999997,,completion,,,,,,,,,1,,,,,,,,S,O,I,,38515,38513,33690.38,33699,33730.3,38546,,,
Sounds,html.Screen,1_3_2_0,2021-04-26T15:20:09.823Z,,,,,,,,,,,,,,,,,,,,,,,,,,,,,,,4246.8399999999965,,timeout,,,,,,,,,1,,,,,,,,S,I,O,,42776,42775.84,38507.88,38515,38546,42792.84,,,
Judgement,html.Screen,1_3_2_1,2021-04-26T15:20:10.399Z,,,,,,,,,,,,,,,,,,,,,,,,,,,,true,1,,557.1600000000035,,response,,,,,,,,,1,,1,click #choice-1,,,,,S,I,O,,43353,43350,42775.84,42777,42792.84,43378.18,,,
Trial,flow.Sequence,1_3_2,2021-04-26T15:20:10.399Z,,,,,,,,,,,,,,,,,,,,,,,,,,,,,,,4804,,completion,,,,,,,,,1,,,,,,,,S,I,O,,43353,43350,38507.88,38515,38546,43378.18,,,
Sounds,html.Screen,1_3_3_0,2021-04-26T15:20:14.656Z,,,,,,,,,,,,,,,,,,,,,,,,,,,,,,,4247.199999999997,,timeout,,,,,,,,,2,,,,,,,,O,S,I,,47609,47608.48,43345.8,43353,43378.18,47625.38,,,
Judgement,html.Screen,1_3_3_1,2021-04-26T15:20:15.315Z,,,,,,,,,,,,,,,,,,,,,,,,,,,,true,2,,640.6200000000026,,response,,,,,,,,,2,,2,click #choice-2,,,,,O,S,I,,48269,48266,47608.48,47609,47625.38,48293.46,,,
Trial,flow.Sequence,1_3_3,2021-04-26T15:20:15.315Z,,,,,,,,,,,,,,,,,,,,,,,,,,,,,,,4887.82,,completion,,,,,,,,,2,,,,,,,,O,S,I,,48269,48266,43345.8,43353,43378.18,48293.46,,,
Sounds,html.Screen,1_3_4_0,2021-04-26T15:20:19.571Z,,,,,,,,,,,,,,,,,,,,,,,,,,,,,,,4247.919999999998,,timeout,,,,,,,,,3,,,,,,,,I,O,S,,52525,52524.6,48260.72,48269,48293.46,52541.38,,,
Judgement,html.Screen,1_3_4_1,2021-04-26T15:20:20.215Z,,,,,,,,,,,,,,,,,,,,,,,,,,,,true,3,,625.6200000000026,,response,,,,,,,,,3,,3,click #choice-3,,,,,I,O,S,,53169,53167,52524.6,52525,52541.38,53192.86,,,
Trial,flow.Sequence,1_3_4,2021-04-26T15:20:20.215Z,,,,,,,,,,,,,,,,,,,,,,,,,,,,,,,4873.540000000001,,completion,,,,,,,,,3,,,,,,,,I,O,S,,53170,53167,48260.72,48269,48293.46,53192.86,,,
Sounds,html.Screen,1_3_5_0,2021-04-26T15:20:24.471Z,,,,,,,,,,,,,,,,,,,,,,,,,,,,,,,4247.080000000002,,timeout,,,,,,,,,3,,,,,,,,O,I,S,,57425,57423.86,53162.72,53170,53192.86,57439.94,,,
Judgement,html.Screen,1_3_5_1,2021-04-26T15:20:24.895Z,,,,,,,,,,,,,,,,,,,,,,,,,,,,true,3,,406.0599999999977,,response,,,,,,,,,3,,3,click #choice-3,,,,,O,I,S,,57848,57846,57423.86,57425,57439.94,57874.58,,,
Trial,flow.Sequence,1_3_5,2021-04-26T15:20:24.895Z,,,,,,,,,,,,,,,,,,,,,,,,,,,,,,,4653.139999999999,,completion,,,,,,,,,3,,,,,,,,O,I,S,,57848,57846,53162.72,53170,53192.86,57874.58,,,
Task,flow.Loop,1_3,2021-04-26T15:20:24.896Z,,,,,,,,,,,,,,,,,,,,,,,,,,,,,,,29918.62,,completion,,,1,,,,,,,,,,,,,,,,,,57849,57846,27898.48,27906,27927.38,57874.58,,,
Trap,html.Screen,1_4,2021-04-26T15:20:24.898Z,,,,,,,,,,,,,,,,,,,,,,,,,,,,,,,NaN,,skipped,,,,,,,,,,,,,,,,,,,,,57852,57846,,57852,,57874.58,,,
Thanks,html.Screen,1_5,2021-04-26T15:20:27.257Z,,,,,,,,,,,,,,,,,,,,,,,,,,,,,,,2334.4199999999983,,response,,,,,,,,,,,continue,click button,,,,,,,,,60211,60209,57843.62,57852,57874.58,62238.32,,,
Headphone screening,flow.Sequence,1,2021-04-26T15:20:27.258Z,,,,,,,,,,,,,,,,,,,,,,,,,,,,,,,40792.46,,completion,,,,,,,,,,,,,,,,,,,,,60211,60209,19382.4,19404,19416.54,62238.32,,,
Instructions,html.Page,2_0,2021-04-26T15:20:35.373Z,,,,,,,,,,,,,,,,,,,,,,,,,,,,,,,6087.68,,form submission,,,,,,,,,,,,,,,,,,,,,68326,68326,62222.5,62224,62238.32,68358.42,,,
Holding screen,html.Screen,2_1_0_0,2021-04-26T15:20:45.387Z,,,,,,,,,,,,,,,,,,,,,,,,,,,,,,,9999.080000000002,,timeout,,,,,,,,,,,,,,,,,,,,,78341,78340.86,68318.6,68327,68358.42,78357.5,,,
screen,html.Screen,2_1_0_1_0,2021-04-26T15:20:46.984Z,,,,,,,,,,,,,,,,,53,,,,,,,,,,,,,,1575.5,,response,,,,99,,,,,,,Space,keypress(Space),,,,,,,,When -- ----- -- ------ - ------- --- ----------<br>------------- ------ ------ ---- ---- ------- ----- -- ----<br>-------- ------- -- ---------- --- - --- ----- ----- ----<br>---- --- --- ----- --- ---- ---- ------- ----- ---- -------<br>--- --- -- ----- -- --- ---- -- --- ---- -- ------ ------<br>--- ----- -- ----,79939,79933,78340.86,78342,78357.5,79980,,0,When
screen,html.Screen,2_1_0_1_1,2021-04-26T15:20:47.518Z,,,,,,,,,,,,,,,,,53,,,,,,,,,,,,,,489,,response,,,,99,,,,,,,Space,keypress(Space),,,,,,,,---- it ----- -- ------ - ------- --- ----------<br>------------- ------ ------ ---- ---- ------- ----- -- ----<br>-------- ------- -- ---------- --- - --- ----- ----- ----<br>---- --- --- ----- --- ---- ---- ------- ----- ---- -------<br>--- --- -- ----- -- --- ---- -- --- ---- -- ------ ------<br>--- ----- -- ----,80472,80469,79939.74,79939,79980,80514.28,,1,it
screen,html.Screen,2_1_0_1_2,2021-04-26T15:20:47.934Z,,,,,,,,,,,,,,,,,53,,,,,,,,,,,,,,371.72000000000116,,response,,,,99,,,,,,,Space,keypress(Space),,,,,,,,---- -- comes -- ------ - ------- --- ----------<br>------------- ------ ------ ---- ---- ------- ----- -- ----<br>-------- ------- -- ---------- --- - --- ----- ----- ----<br>---- --- --- ----- --- ---- ---- ------- ----- ---- -------<br>--- --- -- ----- -- --- ---- -- --- ---- -- ------ ------<br>--- ----- -- ----,80890,80886,80472.94,80472,80514.28,80932.26,,2,comes
screen,html.Screen,2_1_0_1_3,2021-04-26T15:20:48.349Z,,,,,,,,,,,,,,,,,53,,,,,,,,,,,,,,368.74000000000524,,response,,,,99,,,,,,,Space,keypress(Space),,,,,,,,---- -- ----- to ------ - ------- --- ----------<br>------------- ------ ------ ---- ---- ------- ----- -- ----<br>-------- ------- -- ---------- --- - --- ----- ----- ----<br>---- --- --- ----- --- ---- ---- ------- ----- ---- -------<br>--- --- -- ----- -- --- ---- -- --- ---- -- ------ ------<br>--- ----- -- ----,81304,81301,80890.28,80890,80932.26,81334.46,,3,to
screen,html.Screen,2_1_0_1_4,2021-04-26T15:20:48.727Z,,,,,,,,,,,,,,,,,53,,,,,,,,,,,,,,342.5399999999936,,response,,,,99,,,,,,,Space,keypress(Space),,,,,,,,---- -- ----- -- having - ------- --- ----------<br>------------- ------ ------ ---- ---- ------- ----- -- ----<br>-------- ------- -- ---------- --- - --- ----- ----- ----<br>---- --- --- ----- --- ---- ---- ------- ----- ---- -------<br>--- --- -- ----- -- --- ---- -- --- ---- -- ------ ------<br>--- ----- -- ----,81681,81677,81304.44,81304,81334.46,81718.58,,4,having
screen,html.Screen,2_1_0_1_5,2021-04-26T15:20:49.110Z,,,,,,,,,,,,,,,,,53,,,,,,,,,,,,,,342.41999999999825,,response,,,,99,,,,,,,Space,keypress(Space),,,,,,,,---- -- ----- -- ------ a ------- --- ----------<br>------------- ------ ------ ---- ---- ------- ----- -- ----<br>-------- ------- -- ---------- --- - --- ----- ----- ----<br>---- --- --- ----- --- ---- ---- ------- ----- ---- -------<br>--- --- -- ----- -- --- ---- -- --- ---- -- ------ ------<br>--- ----- -- ----,82065,82061,81682.42,81681,81718.58,82103.6,,5,a
screen,html.Screen,2_1_0_1_6,2021-04-26T15:20:49.478Z,,,,,,,,,,,,,,,,,53,,,,,,,,,,,,,,325.3999999999942,,response,,,,99,,,,,,,Space,keypress(Space),,,,,,,,---- -- ----- -- ------ - lasting --- ----------<br>------------- ------ ------ ---- ---- ------- ----- -- ----<br>-------- ------- -- ---------- --- - --- ----- ----- ----<br>---- --- --- ----- --- ---- ---- ------- ----- ---- -------<br>--- --- -- ----- -- --- ---- -- --- ---- -- ------ ------<br>--- ----- -- ----,82434,82429,82066.1,82065,82103.6,82470.58,,6,lasting
screen,html.Screen,2_1_0_1_7,2021-04-26T15:20:49.917Z,,,,,,,,,,,,,,,,,53,,,,,,,,,,,,,,398.41999999999825,,response,,,,99,,,,,,,Space,keypress(Space),,,,,,,,---- -- ----- -- ------ - ------- and ----------<br>------------- ------ ------ ---- ---- ------- ----- -- ----<br>-------- ------- -- ---------- --- - --- ----- ----- ----<br>---- --- --- ----- --- ---- ---- ------- ----- ---- -------<br>--- --- -- ----- -- --- ---- -- --- ---- -- ------ ------<br>--- ----- -- ----,82871,82869,82434.32,82434,82470.58,82905.7,,7,and
screen,html.Screen,2_1_0_1_8,2021-04-26T15:20:50.327Z,,,,,,,,,,,,,,,,,53,,,,,,,,,,,,,,372.3000000000029,,response,,,,99,,,,,,,Space,keypress(Space),,,,,,,,---- -- ----- -- ------ - ------- --- fulfilling<br>------------- ------ ------ ---- ---- ------- ----- -- ----<br>-------- ------- -- ---------- --- - --- ----- ----- ----<br>---- --- --- ----- --- ---- ---- ------- ----- ---- -------<br>--- --- -- ----- -- --- ---- -- --- ---- -- ------ ------<br>--- ----- -- ----,83282,83278,82872.5,82871,82905.7,83323.66,,8,fulfilling
screen,html.Screen,2_1_0_1_9,2021-04-26T15:20:50.716Z,,,,,,,,,,,,,,,,,53,,,,,,,,,,,,,,345.3399999999965,,response,,,,99,,,,,,,Space,keypress(Space),,,,,,,,"---- -- ----- -- ------ - ------- --- ----------<br>relationship, ------ ------ ---- ---- ------- ----- -- ----<br>-------- ------- -- ---------- --- - --- ----- ----- ----<br>---- --- --- ----- --- ---- ---- ------- ----- ---- -------<br>--- --- -- ----- -- --- ---- -- --- ---- -- ------ ------<br>--- ----- -- ----",83671,83669,83282.1,83282,83323.66,83708.86,,9,"relationship,"
screen,html.Screen,2_1_0_1_10,2021-04-26T15:20:51.071Z,,,,,,,,,,,,,,,,,53,,,,,,,,,,,,,,313.1399999999994,,response,,,,99,,,,,,,Space,keypress(Space),,,,,,,,---- -- ----- -- ------ - ------- --- ----------<br>------------- common ------ ---- ---- ------- ----- -- ----<br>-------- ------- -- ---------- --- - --- ----- ----- ----<br>---- --- --- ----- --- ---- ---- ------- ----- ---- -------<br>--- --- -- ----- -- --- ---- -- --- ---- -- ------ ------<br>--- ----- -- ----,84026,84022,83672.16,83671,83708.86,84059.98,,10,common
screen,html.Screen,2_1_0_1_11,2021-04-26T15:20:51.437Z,,,,,,,,,,,,,,,,,53,,,,,,,,,,,,,,330.0200000000041,,response,,,,99,,,,,,,Space,keypress(Space),,,,,,,,---- -- ----- -- ------ - ------- --- ----------<br>------------- ------ wisdom ---- ---- ------- ----- -- ----<br>-------- ------- -- ---------- --- - --- ----- ----- ----<br>---- --- --- ----- --- ---- ---- ------- ----- ---- -------<br>--- --- -- ----- -- --- ---- -- --- ---- -- ------ ------<br>--- ----- -- ----,84391,84390,84026.6,84026,84059.98,84426.82,,11,wisdom
screen,html.Screen,2_1_0_1_12,2021-04-26T15:20:51.759Z,,,,,,,,,,,,,,,,,53,,,,,,,,,,,,,,283.179999999993,,response,,,,99,,,,,,,Space,keypress(Space),,,,,,,,---- -- ----- -- ------ - ------- --- ----------<br>------------- ------ ------ says ---- ------- ----- -- ----<br>-------- ------- -- ---------- --- - --- ----- ----- ----<br>---- --- --- ----- --- ---- ---- ------- ----- ---- -------<br>--- --- -- ----- -- --- ---- -- --- ---- -- ------ ------<br>--- ----- -- ----,84714,84710,84392.38,84392,84426.82,84745.48,,12,says
screen,html.Screen,2_1_0_1_13,2021-04-26T15:20:52.117Z,,,,,,,,,,,,,,,,,53,,,,,,,,,,,,,,323.5200000000041,,response,,,,99,,,,,,,Space,keypress(Space),,,,,,,,---- -- ----- -- ------ - ------- --- ----------<br>------------- ------ ------ ---- that ------- ----- -- ----<br>-------- ------- -- ---------- --- - --- ----- ----- ----<br>---- --- --- ----- --- ---- ---- ------- ----- ---- -------<br>--- --- -- ----- -- --- ---- -- --- ---- -- ------ ------<br>--- ----- -- ----,85071,85069,84714.78,84714,84745.48,85112.36,,13,that
screen,html.Screen,2_1_0_1_14,2021-04-26T15:20:52.439Z,,,,,,,,,,,,,,,,,53,,,,,,,,,,,,,,277.6399999999994,,response,,,,99,,,,,,,Space,keypress(Space),,,,,,,,---- -- ----- -- ------ - ------- --- ----------<br>------------- ------ ------ ---- ---- feeling ----- -- ----<br>-------- ------- -- ---------- --- - --- ----- ----- ----<br>---- --- --- ----- --- ---- ---- ------- ----- ---- -------<br>--- --- -- ----- -- --- ---- -- --- ---- -- ------ ------<br>--- ----- -- ----,85393,85390,85072.48,85072,85112.36,85430.88,,14,feeling
screen,html.Screen,2_1_0_1_15,2021-04-26T15:20:52.837Z,,,,,,,,,,,,,,,,,53,,,,,,,,,,,,,,359.11999999999534,,response,,,,99,,,,,,,Space,keypress(Space),,,,,,,,---- -- ----- -- ------ - ------- --- ----------<br>------------- ------ ------ ---- ---- ------- close -- ----<br>-------- ------- -- ---------- --- - --- ----- ----- ----<br>---- --- --- ----- --- ---- ---- ------- ----- ---- -------<br>--- --- -- ----- -- --- ---- -- --- ---- -- ------ ------<br>--- ----- -- ----,85792,85790,85394.58,85394,85430.88,85831.42,,15,close
screen,html.Screen,2_1_0_1_16,2021-04-26T15:20:53.183Z,,,,,,,,,,,,,,,,,53,,,,,,,,,,,,,,301.58000000000175,,response,,,,99,,,,,,,Space,keypress(Space),,,,,,,,---- -- ----- -- ------ - ------- --- ----------<br>------------- ------ ------ ---- ---- ------- ----- to ----<br>-------- ------- -- ---------- --- - --- ----- ----- ----<br>---- --- --- ----- --- ---- ---- ------- ----- ---- -------<br>--- --- -- ----- -- --- ---- -- --- ---- -- ------ ------<br>--- ----- -- ----,86137,86133,85792.66,85792,85831.42,86166.72,,16,to
screen,html.Screen,2_1_0_1_17,2021-04-26T15:20:53.557Z,,,,,,,,,,,,,,,,,53,,,,,,,,,,,,,,342.27999999999884,,response,,,,99,,,,,,,Space,keypress(Space),,,,,,,,---- -- ----- -- ------ - ------- --- ----------<br>------------- ------ ------ ---- ---- ------- ----- -- your<br>-------- ------- -- ---------- --- - --- ----- ----- ----<br>---- --- --- ----- --- ---- ---- ------- ----- ---- -------<br>--- --- -- ----- -- --- ---- -- --- ---- -- ------ ------<br>--- ----- -- ----,86512,86509,86138.3,86137,86166.72,86551.26,,17,your
screen,html.Screen,2_1_0_1_18,2021-04-26T15:20:53.999Z,,,,,,,,,,,,,,,,,53,,,,,,,,,,,,,,398.74000000000524,,response,,,,99,,,,,,,Space,keypress(Space),,,,,,,,---- -- ----- -- ------ - ------- --- ----------<br>------------- ------ ------ ---- ---- ------- ----- -- ----<br>romantic ------- -- ---------- --- - --- ----- ----- ----<br>---- --- --- ----- --- ---- ---- ------- ----- ---- -------<br>--- --- -- ----- -- --- ---- -- --- ---- -- ------ ------<br>--- ----- -- ----,86954,86950,86512.52,86512,86551.26,86986,,18,romantic
screen,html.Screen,2_1_0_1_19,2021-04-26T15:20:54.317Z,,,,,,,,,,,,,,,,,53,,,,,,,,,,,,,,283,,response,,,,99,,,,,,,Space,keypress(Space),,,,,,,,---- -- ----- -- ------ - ------- --- ----------<br>------------- ------ ------ ---- ---- ------- ----- -- ----<br>-------- partner -- ---------- --- - --- ----- ----- ----<br>---- --- --- ----- --- ---- ---- ------- ----- ---- -------<br>--- --- -- ----- -- --- ---- -- --- ---- -- ------ ------<br>--- ----- -- ----,87272,87269,86954.16,86954,86986,87302.98,,19,partner
screen,html.Screen,2_1_0_1_20,2021-04-26T15:20:54.663Z,,,,,,,,,,,,,,,,,53,,,,,,,,,,,,,,310.0200000000041,,response,,,,99,,,,,,,Space,keypress(Space),,,,,,,,---- -- ----- -- ------ - ------- --- ----------<br>------------- ------ ------ ---- ---- ------- ----- -- ----<br>-------- ------- is ---------- --- - --- ----- ----- ----<br>---- --- --- ----- --- ---- ---- ------- ----- ---- -------<br>--- --- -- ----- -- --- ---- -- --- ---- -- ------ ------<br>--- ----- -- ----,87618,87613,87272.68,87272,87302.98,87654.18,,20,is
screen,html.Screen,2_1_0_1_21,2021-04-26T15:20:54.997Z,,,,,,,,,,,,,,,,,53,,,,,,,,,,,,,,295.820000000007,,response,,,,99,,,,,,,Space,keypress(Space),,,,,,,,---- -- ----- -- ------ - ------- --- ----------<br>------------- ------ ------ ---- ---- ------- ----- -- ----<br>-------- ------- -- paramount. --- - --- ----- ----- ----<br>---- --- --- ----- --- ---- ---- ------- ----- ---- -------<br>--- --- -- ----- -- --- ---- -- --- ---- -- ------ ------<br>--- ----- -- ----,87952,87950,87618.42,87618,87654.18,87988.82,,21,paramount.
screen,html.Screen,2_1_0_1_22,2021-04-26T15:20:55.335Z,,,,,,,,,,,,,,,,,53,,,,,,,,,,,,,,296.179999999993,,response,,,,99,,,,,,,Space,keypress(Space),,,,,,,,---- -- ----- -- ------ - ------- --- ----------<br>------------- ------ ------ ---- ---- ------- ----- -- ----<br>-------- ------- -- ---------- But - --- ----- ----- ----<br>---- --- --- ----- --- ---- ---- ------- ----- ---- -------<br>--- --- -- ----- -- --- ---- -- --- ---- -- ------ ------<br>--- ----- -- ----,88289,88285,87952.52,87952,87988.82,88323.84,,22,But
screen,html.Screen,2_1_0_1_23,2021-04-26T15:20:55.669Z,,,,,,,,,,,,,,,,,53,,,,,,,,,,,,,,298.1600000000035,,response,,,,99,,,,,,,Space,keypress(Space),,,,,,,,---- -- ----- -- ------ - ------- --- ----------<br>------------- ------ ------ ---- ---- ------- ----- -- ----<br>-------- ------- -- ---------- --- a --- ----- ----- ----<br>---- --- --- ----- --- ---- ---- ------- ----- ---- -------<br>--- --- -- ----- -- --- ---- -- --- ---- -- ------ ------<br>--- ----- -- ----,88623,88622,88290.48,88290,88323.84,88658.02,,23,a
screen,html.Screen,2_1_0_1_24,2021-04-26T15:20:55.991Z,,,,,,,,,,,,,,,,,53,,,,,,,,,,,,,,282.9799999999959,,response,,,,99,,,,,,,Space,keypress(Space),,,,,,,,---- -- ----- -- ------ - ------- --- ----------<br>------------- ------ ------ ---- ---- ------- ----- -- ----<br>-------- ------- -- ---------- --- - new ----- ----- ----<br>---- --- --- ----- --- ---- ---- ------- ----- ---- -------<br>--- --- -- ----- -- --- ---- -- --- ---- -- ------ ------<br>--- ----- -- ----,88945,88941,88624.42,88624,88658.02,88975.08,,24,new
screen,html.Screen,2_1_0_1_25,2021-04-26T15:20:56.317Z,,,,,,,,,,,,,,,,,53,,,,,,,,,,,,,,294.91999999999825,,response,,,,99,,,,,,,Space,keypress(Space),,,,,,,,---- -- ----- -- ------ - ------- --- ----------<br>------------- ------ ------ ---- ---- ------- ----- -- ----<br>-------- ------- -- ---------- --- - --- study ----- ----<br>---- --- --- ----- --- ---- ---- ------- ----- ---- -------<br>--- --- -- ----- -- --- ---- -- --- ---- -- ------ ------<br>--- ----- -- ----,89271,89270,88946.36,88945,88975.08,89309.34,,25,study
screen,html.Screen,2_1_0_1_26,2021-04-26T15:20:56.663Z,,,,,,,,,,,,,,,,,53,,,,,,,,,,,,,,304.6600000000035,,response,,,,99,,,,,,,Space,keypress(Space),,,,,,,,---- -- ----- -- ------ - ------- --- ----------<br>------------- ------ ------ ---- ---- ------- ----- -- ----<br>-------- ------- -- ---------- --- - --- ----- finds ----<br>---- --- --- ----- --- ---- ---- ------- ----- ---- -------<br>--- --- -- ----- -- --- ---- -- --- ---- -- ------ ------<br>--- ----- -- ----,89617,89614,89272.5,89272,89309.34,89644.72,,26,finds
screen,html.Screen,2_1_0_1_27,2021-04-26T15:20:56.997Z,,,,,,,,,,,,,,,,,53,,,,,,,,,,,,,,305.27999999999884,,response,,,,99,,,,,,,Space,keypress(Space),,,,,,,,---- -- ----- -- ------ - ------- --- ----------<br>------------- ------ ------ ---- ---- ------- ----- -- ----<br>-------- ------- -- ---------- --- - --- ----- ----- that<br>---- --- --- ----- --- ---- ---- ------- ----- ---- -------<br>--- --- -- ----- -- --- ---- -- --- ---- -- ------ ------<br>--- ----- -- ----,89952,89950,89618.22,89617,89644.72,89979.08,,27,that
screen,html.Screen,2_1_0_1_28,2021-04-26T15:20:57.318Z,,,,,,,,,,,,,,,,,53,,,,,,,,,,,,,,290.91999999999825,,response,,,,99,,,,,,,Space,keypress(Space),,,,,,,,---- -- ----- -- ------ - ------- --- ----------<br>------------- ------ ------ ---- ---- ------- ----- -- ----<br>-------- ------- -- ---------- --- - --- ----- ----- ----<br>it's --- --- ----- --- ---- ---- ------- ----- ---- -------<br>--- --- -- ----- -- --- ---- -- --- ---- -- ------ ------<br>--- ----- -- ----,90273,90270,89952.66,89952,89979.08,90312.9,,28,it's
screen,html.Screen,2_1_0_1_29,2021-04-26T15:20:57.645Z,,,,,,,,,,,,,,,,,53,,,,,,,,,,,,,,284.1000000000058,,response,,,,99,,,,,,,Space,keypress(Space),,,,,,,,---- -- ----- -- ------ - ------- --- ----------<br>------------- ------ ------ ---- ---- ------- ----- -- ----<br>-------- ------- -- ---------- --- - --- ----- ----- ----<br>---- not --- ----- --- ---- ---- ------- ----- ---- -------<br>--- --- -- ----- -- --- ---- -- --- ---- -- ------ ------<br>--- ----- -- ----,90600,90597,90274.12,90273,90312.9,90631.16,,29,not
screen,html.Screen,2_1_0_1_30,2021-04-26T15:20:57.959Z,,,,,,,,,,,,,,,,,53,,,,,,,,,,,,,,277.8399999999965,,response,,,,99,,,,,,,Space,keypress(Space),,,,,,,,---- -- ----- -- ------ - ------- --- ----------<br>------------- ------ ------ ---- ---- ------- ----- -- ----<br>-------- ------- -- ---------- --- - --- ----- ----- ----<br>---- --- how ----- --- ---- ---- ------- ----- ---- -------<br>--- --- -- ----- -- --- ---- -- --- ---- -- ------ ------<br>--- ----- -- ----,90914,90909,90600.4,90600,90631.16,90948.54,,30,how
screen,html.Screen,2_1_0_1_31,2021-04-26T15:20:58.261Z,,,,,,,,,,,,,,,,,53,,,,,,,,,,,,,,265.4600000000064,,response,,,,99,,,,,,,Space,keypress(Space),,,,,,,,---- -- ----- -- ------ - ------- --- ----------<br>------------- ------ ------ ---- ---- ------- ----- -- ----<br>-------- ------- -- ---------- --- - --- ----- ----- ----<br>---- --- --- close --- ---- ---- ------- ----- ---- -------<br>--- --- -- ----- -- --- ---- -- --- ---- -- ------ ------<br>--- ----- -- ----,91216,91214,90914.48,90914,90948.54,91249.14,,31,close
screen,html.Screen,2_1_0_1_32,2021-04-26T15:20:58.567Z,,,,,,,,,,,,,,,,,53,,,,,,,,,,,,,,267.8600000000006,,response,,,,99,,,,,,,Space,keypress(Space),,,,,,,,---- -- ----- -- ------ - ------- --- ----------<br>------------- ------ ------ ---- ---- ------- ----- -- ----<br>-------- ------- -- ---------- --- - --- ----- ----- ----<br>---- --- --- ----- you ---- ---- ------- ----- ---- -------<br>--- --- -- ----- -- --- ---- -- --- ---- -- ------ ------<br>--- ----- -- ----,91521,91517,91216.56,91216,91249.14,91550.06,,32,you
screen,html.Screen,2_1_0_1_33,2021-04-26T15:20:58.885Z,,,,,,,,,,,,,,,,,53,,,,,,,,,,,,,,286.9400000000023,,response,,,,99,,,,,,,Space,keypress(Space),,,,,,,,---- -- ----- -- ------ - ------- --- ----------<br>------------- ------ ------ ---- ---- ------- ----- -- ----<br>-------- ------- -- ---------- --- - --- ----- ----- ----<br>---- --- --- ----- --- feel ---- ------- ----- ---- -------<br>--- --- -- ----- -- --- ---- -- --- ---- -- ------ ------<br>--- ----- -- ----,91839,91837,91522.22,91522,91550.06,91868.18,,33,feel
screen,html.Screen,2_1_0_1_34,2021-04-26T15:20:59.167Z,,,,,,,,,,,,,,,,,53,,,,,,,,,,,,,,248.82000000000698,,response,,,,99,,,,,,,Space,keypress(Space),,,,,,,,---- -- ----- -- ------ - ------- --- ----------<br>------------- ------ ------ ---- ---- ------- ----- -- ----<br>-------- ------- -- ---------- --- - --- ----- ----- ----<br>---- --- --- ----- --- ---- that ------- ----- ---- -------<br>--- --- -- ----- -- --- ---- -- --- ---- -- ------ ------<br>--- ----- -- ----,92122,92117,91840.3,91840,91868.18,92152.62,,34,that
screen,html.Screen,2_1_0_1_35,2021-04-26T15:20:59.421Z,,,,,,,,,,,,,,,,,53,,,,,,,,,,,,,,220.38000000000466,,response,,,,99,,,,,,,Space,keypress(Space),,,,,,,,---- -- ----- -- ------ - ------- --- ----------<br>------------- ------ ------ ---- ---- ------- ----- -- ----<br>-------- ------- -- ---------- --- - --- ----- ----- ----<br>---- --- --- ----- --- ---- ---- matters ----- ---- -------<br>--- --- -- ----- -- --- ---- -- --- ---- -- ------ ------<br>--- ----- -- ----,92376,92373,92122.46,92122,92152.62,92402.78,,35,matters
screen,html.Screen,2_1_0_1_36,2021-04-26T15:20:59.759Z,,,,,,,,,,,,,,,,,53,,,,,,,,,,,,,,306.22000000000116,,response,,,,99,,,,,,,Space,keypress(Space),,,,,,,,"---- -- ----- -- ------ - ------- --- ----------<br>------------- ------ ------ ---- ---- ------- ----- -- ----<br>-------- ------- -- ---------- --- - --- ----- ----- ----<br>---- --- --- ----- --- ---- ---- ------- most, ---- -------<br>--- --- -- ----- -- --- ---- -- --- ---- -- ------ ------<br>--- ----- -- ----",92714,92709,92376.46,92376,92402.78,92754.12,,36,"most,"
screen,html.Screen,2_1_0_1_37,2021-04-26T15:21:00.045Z,,,,,,,,,,,,,,,,,53,,,,,,,,,,,,,,243.88000000000466,,response,,,,99,,,,,,,Space,keypress(Space),,,,,,,,---- -- ----- -- ------ - ------- --- ----------<br>------------- ------ ------ ---- ---- ------- ----- -- ----<br>-------- ------- -- ---------- --- - --- ----- ----- ----<br>---- --- --- ----- --- ---- ---- ------- ----- it's -------<br>--- --- -- ----- -- --- ---- -- --- ---- -- ------ ------<br>--- ----- -- ----,92999,92998,92714.38,92714,92754.12,93038.32,,37,it's
screen,html.Screen,2_1_0_1_38,2021-04-26T15:21:00.352Z,,,,,,,,,,,,,,,,,53,,,,,,,,,,,,,,263.679999999993,,response,,,,99,,,,,,,Space,keypress(Space),,,,,,,,---- -- ----- -- ------ - ------- --- ----------<br>------------- ------ ------ ---- ---- ------- ----- -- ----<br>-------- ------- -- ---------- --- - --- ----- ----- ----<br>---- --- --- ----- --- ---- ---- ------- ----- ---- whether<br>--- --- -- ----- -- --- ---- -- --- ---- -- ------ ------<br>--- ----- -- ----,93306,93302,93000.48,93000,93038.32,93339.76,,38,whether
screen,html.Screen,2_1_0_1_39,2021-04-26T15:21:00.637Z,,,,,,,,,,,,,,,,,53,,,,,,,,,,,,,,249.24000000000524,,response,,,,99,,,,,,,Space,keypress(Space),,,,,,,,---- -- ----- -- ------ - ------- --- ----------<br>------------- ------ ------ ---- ---- ------- ----- -- ----<br>-------- ------- -- ---------- --- - --- ----- ----- ----<br>---- --- --- ----- --- ---- ---- ------- ----- ---- -------<br>you --- -- ----- -- --- ---- -- --- ---- -- ------ ------<br>--- ----- -- ----,93592,93589,93307.18,93306,93339.76,93624.18,,39,you
screen,html.Screen,2_1_0_1_40,2021-04-26T15:21:00.959Z,,,,,,,,,,,,,,,,,53,,,,,,,,,,,,,,284.820000000007,,response,,,,99,,,,,,,Space,keypress(Space),,,,,,,,---- -- ----- -- ------ - ------- --- ----------<br>------------- ------ ------ ---- ---- ------- ----- -- ----<br>-------- ------- -- ---------- --- - --- ----- ----- ----<br>---- --- --- ----- --- ---- ---- ------- ----- ---- -------<br>--- are -- ----- -- --- ---- -- --- ---- -- ------ ------<br>--- ----- -- ----,93914,93909,93592.46,93592,93624.18,93941.22,,40,are
screen,html.Screen,2_1_0_1_41,2021-04-26T15:21:01.269Z,,,,,,,,,,,,,,,,,53,,,,,,,,,,,,,,279.77999999999884,,response,,,,99,,,,,,,Space,keypress(Space),,,,,,,,---- -- ----- -- ------ - ------- --- ----------<br>------------- ------ ------ ---- ---- ------- ----- -- ----<br>-------- ------- -- ---------- --- - --- ----- ----- ----<br>---- --- --- ----- --- ---- ---- ------- ----- ---- -------<br>--- --- as ----- -- --- ---- -- --- ---- -- ------ ------<br>--- ----- -- ----,94223,94221,93914.14,93914,93941.22,94259.76,,41,as
screen,html.Screen,2_1_0_1_42,2021-04-26T15:21:01.591Z,,,,,,,,,,,,,,,,,53,,,,,,,,,,,,,,281.24000000000524,,response,,,,99,,,,,,,Space,keypress(Space),,,,,,,,---- -- ----- -- ------ - ------- --- ----------<br>------------- ------ ------ ---- ---- ------- ----- -- ----<br>-------- ------- -- ---------- --- - --- ----- ----- ----<br>---- --- --- ----- --- ---- ---- ------- ----- ---- -------<br>--- --- -- close -- --- ---- -- --- ---- -- ------ ------<br>--- ----- -- ----,94546,94541,94224.46,94224,94259.76,94576.64,,42,close
screen,html.Screen,2_1_0_1_43,2021-04-26T15:21:01.853Z,,,,,,,,,,,,,,,,,53,,,,,,,,,,,,,,228.36000000000058,,response,,,,99,,,,,,,Space,keypress(Space),,,,,,,,---- -- ----- -- ------ - ------- --- ----------<br>------------- ------ ------ ---- ---- ------- ----- -- ----<br>-------- ------- -- ---------- --- - --- ----- ----- ----<br>---- --- --- ----- --- ---- ---- ------- ----- ---- -------<br>--- --- -- ----- as --- ---- -- --- ---- -- ------ ------<br>--- ----- -- ----,94808,94805,94546.54,94546,94576.64,94844.42,,43,as
screen,html.Screen,2_1_0_1_44,2021-04-26T15:21:02.055Z,,,,,,,,,,,,,,,,,53,,,,,,,,,,,,,,160.58000000000175,,response,,,,99,,,,,,,Space,keypress(Space),,,,,,,,---- -- ----- -- ------ - ------- --- ----------<br>------------- ------ ------ ---- ---- ------- ----- -- ----<br>-------- ------- -- ---------- --- - --- ----- ----- ----<br>---- --- --- ----- --- ---- ---- ------- ----- ---- -------<br>--- --- -- ----- -- you ---- -- --- ---- -- ------ ------<br>--- ----- -- ----,95010,95005,94808.54,94808,94844.42,95028.88,,44,you
screen,html.Screen,2_1_0_1_45,2021-04-26T15:21:02.300Z,,,,,,,,,,,,,,,,,53,,,,,,,,,,,,,,224.11999999999534,,response,,,,99,,,,,,,Space,keypress(Space),,,,,,,,---- -- ----- -- ------ - ------- --- ----------<br>------------- ------ ------ ---- ---- ------- ----- -- ----<br>-------- ------- -- ---------- --- - --- ----- ----- ----<br>---- --- --- ----- --- ---- ---- ------- ----- ---- -------<br>--- --- -- ----- -- --- want -- --- ---- -- ------ ------<br>--- ----- -- ----,95256,95253,95012.02,95010,95028.88,95296.04,,45,want
screen,html.Screen,2_1_0_1_46,2021-04-26T15:21:02.551Z,,,,,,,,,,,,,,,,,53,,,,,,,,,,,,,,205.9600000000064,,response,,,,99,,,,,,,Space,keypress(Space),,,,,,,,---- -- ----- -- ------ - ------- --- ----------<br>------------- ------ ------ ---- ---- ------- ----- -- ----<br>-------- ------- -- ---------- --- - --- ----- ----- ----<br>---- --- --- ----- --- ---- ---- ------- ----- ---- -------<br>--- --- -- ----- -- --- ---- to --- ---- -- ------ ------<br>--- ----- -- ----,95506,95502,95256.44,95256,95296.04,95546.3,,46,to
screen,html.Screen,2_1_0_1_47,2021-04-26T15:21:02.781Z,,,,,,,,,,,,,,,,,53,,,,,,,,,,,,,,186.6999999999971,,response,,,,99,,,,,,,Space,keypress(Space),,,,,,,,"---- -- ----- -- ------ - ------- --- ----------<br>------------- ------ ------ ---- ---- ------- ----- -- ----<br>-------- ------- -- ---------- --- - --- ----- ----- ----<br>---- --- --- ----- --- ---- ---- ------- ----- ---- -------<br>--- --- -- ----- -- --- ---- -- be, ---- -- ------ ------<br>--- ----- -- ----",95736,95733,95506.46,95506,95546.3,95763.76,,47,"be,"
screen,html.Screen,2_1_0_1_48,2021-04-26T15:21:03.023Z,,,,,,,,,,,,,,,,,53,,,,,,,,,,,,,,209.24000000000524,,response,,,,99,,,,,,,Space,keypress(Space),,,,,,,,---- -- ----- -- ------ - ------- --- ----------<br>------------- ------ ------ ---- ---- ------- ----- -- ----<br>-------- ------- -- ---------- --- - --- ----- ----- ----<br>---- --- --- ----- --- ---- ---- ------- ----- ---- -------<br>--- --- -- ----- -- --- ---- -- --- even -- ------ ------<br>--- ----- -- ----,95978,95973,95736.68,95736,95763.76,96015.4,,48,even
screen,html.Screen,2_1_0_1_49,2021-04-26T15:21:03.285Z,,,,,,,,,,,,,,,,,53,,,,,,,,,,,,,,221.60000000000582,,response,,,,99,,,,,,,Space,keypress(Space),,,,,,,,---- -- ----- -- ------ - ------- --- ----------<br>------------- ------ ------ ---- ---- ------- ----- -- ----<br>-------- ------- -- ---------- --- - --- ----- ----- ----<br>---- --- --- ----- --- ---- ---- ------- ----- ---- -------<br>--- --- -- ----- -- --- ---- -- --- ---- if ------ ------<br>--- ----- -- ----,96240,96237,95979.08,95979,96015.4,96282.88,,49,if
screen,html.Screen,2_1_0_1_50,2021-04-26T15:21:03.559Z,,,,,,,,,,,,,,,,,53,,,,,,,,,,,,,,227.11999999999534,,response,,,,99,,,,,,,Space,keypress(Space),,,,,,,,---- -- ----- -- ------ - ------- --- ----------<br>------------- ------ ------ ---- ---- ------- ----- -- ----<br>-------- ------- -- ---------- --- - --- ----- ----- ----<br>---- --- --- ----- --- ---- ---- ------- ----- ---- -------<br>--- --- -- ----- -- --- ---- -- --- ---- -- that's ------<br>--- ----- -- ----,96513,96510,96240.74,96240,96282.88,96550.34,,50,that's
screen,html.Screen,2_1_0_1_51,2021-04-26T15:21:03.836Z,,,,,,,,,,,,,,,,,53,,,,,,,,,,,,,,238.6600000000035,,response,,,,99,,,,,,,Space,keypress(Space),,,,,,,,---- -- ----- -- ------ - ------- --- ----------<br>------------- ------ ------ ---- ---- ------- ----- -- ----<br>-------- ------- -- ---------- --- - --- ----- ----- ----<br>---- --- --- ----- --- ---- ---- ------- ----- ---- -------<br>--- --- -- ----- -- --- ---- -- --- ---- -- ------ really<br>--- ----- -- ----,96792,96789,96514.54,96513,96550.34,96834.36,,51,really
screen,html.Screen,2_1_0_1_52,2021-04-26T15:21:04.183Z,,,,,,,,,,,,,,,,,53,,,,,,,,,,,,,,299.6399999999994,,response,,,,99,,,,,,,Space,keypress(Space),,,,,,,,---- -- ----- -- ------ - ------- --- ----------<br>------------- ------ ------ ---- ---- ------- ----- -- ----<br>-------- ------- -- ---------- --- - --- ----- ----- ----<br>---- --- --- ----- --- ---- ---- ------- ----- ---- -------<br>--- --- -- ----- -- --- ---- -- --- ---- -- ------ ------<br>not ----- -- ----,97138,97134,96792.48,96792,96834.36,97168.56,,52,not
screen,html.Screen,2_1_0_1_53,2021-04-26T15:21:04.413Z,,,,,,,,,,,,,,,,,53,,,,,,,,,,,,,,196.44000000000233,,response,,,,99,,,,,,,Space,keypress(Space),,,,,,,,---- -- ----- -- ------ - ------- --- ----------<br>------------- ------ ------ ---- ---- ------- ----- -- ----<br>-------- ------- -- ---------- --- - --- ----- ----- ----<br>---- --- --- ----- --- ---- ---- ------- ----- ---- -------<br>--- --- -- ----- -- --- ---- -- --- ---- -- ------ ------<br>--- close -- ----,97368,97365,97138.46,97138,97168.56,97402.38,,53,close
screen,html.Screen,2_1_0_1_54,2021-04-26T15:21:04.686Z,,,,,,,,,,,,,,,,,53,,,,,,,,,,,,,,234.61999999999534,,response,,,,99,,,,,,,Space,keypress(Space),,,,,,,,---- -- ----- -- ------ - ------- --- ----------<br>------------- ------ ------ ---- ---- ------- ----- -- ----<br>-------- ------- -- ---------- --- - --- ----- ----- ----<br>---- --- --- ----- --- ---- ---- ------- ----- ---- -------<br>--- --- -- ----- -- --- ---- -- --- ---- -- ------ ------<br>--- ----- at ----,97642,97637,97368.66,97368,97402.38,97670.7,,54,at
screen,html.Screen,2_1_0_1_55,2021-04-26T15:21:05.205Z,,,,,,,,,,,,,,,,,53,,,,,,,,,,,,,,487.3000000000029,,response,,,,99,,,,,,,Space,keypress(Space),,,,,,,,---- -- ----- -- ------ - ------- --- ----------<br>------------- ------ ------ ---- ---- ------- ----- -- ----<br>-------- ------- -- ---------- --- - --- ----- ----- ----<br>---- --- --- ----- --- ---- ---- ------- ----- ---- -------<br>--- --- -- ----- -- --- ---- -- --- ---- -- ------ ------<br>--- ----- -- all.,98160,98158,97642.58,97642,97670.7,98189.16,,55,all.
Item 99,flow.Loop,2_1_0_1,2021-04-26T15:21:05.205Z,,,,,,,,,,,,,,,,,,,,,,,,,,,,,,,19800.5,,completion,,,,,C,,,,,,,,,,,silence,,,,,98160,98158,78340.86,78342,78357.5,98189.16,,,
Question 1,html.Screen,2_1_0_2,2021-04-26T15:21:10.746Z,,,,,,,,,,,,,,,,,,,,,,,,,,,,true,FALSE,,5509.8399999999965,,response,,,,99,C,,,,,,FALSE,click #choice-2,,,,silence,,,,,103701,103699,98161.08,98161,98189.16,103722.62,,,
Question 2,html.Screen,2_1_0_3,2021-04-26T15:21:13.379Z,,,,,,,,,,,,,,,,,,,,,,,,,,,,true,TRUE,,2608.3800000000047,,response,,,,99,C,,,,,,TRUE,click #choice-1,,,,silence,,,,,106333,106331,103694.36,103701,103722.62,106364.6,,,
Item 99,flow.Sequence,2_1_0,2021-04-26T15:21:13.379Z,,,,,,,,,,,,,,,,,,,,,,,,,,,,,,,37972.58,,completion,,,,,,,,,,,,,,,,,,,,,106334,106331,68318.6,68327,68358.42,106364.6,,,
Holding screen,html.Screen,2_1_1_0,2021-04-26T15:21:23.393Z,,,,,,,,,,,,,,,,,,,,,,,,,,,,,,,9999.979999999996,,timeout,,,,,,,,,,,,,,,,,,,,,116348,116347.84,106326.4,106334,106364.6,116364.58,,,
screen,html.Screen,2_1_1_1_0,2021-04-26T15:21:25.192Z,,,,,,,,,,,,,,,,,54,,,,,,,,,,,,,,1778.4199999999983,,response,,,,100,,,,,,,Space,keypress(Space),,,,,,,,At --- ---- --- ------ ----- ------- ---- -- --- ------- --<br>------- ---------- ------ -- ----- -- ----- -- ---- ------<br>--- ----- --- --- ------ -------- ----- --- ------ ----- --<br>----- ----- ---------- --- --- ------ ------ ---- -- ------<br>------- --- ------ ----- --- ---- ------- -- ---- --- --<br>------- ------,118147,118143,116347.84,116348,116364.58,118186.28,,0,At
screen,html.Screen,2_1_1_1_1,2021-04-26T15:21:26.894Z,,,,,,,,,,,,,,,,,54,,,,,,,,,,,,,,1660.7200000000012,,response,,,,100,,,,,,,Space,keypress(Space),,,,,,,,-- the ---- --- ------ ----- ------- ---- -- --- ------- --<br>------- ---------- ------ -- ----- -- ----- -- ---- ------<br>--- ----- --- --- ------ -------- ----- --- ------ ----- --<br>----- ----- ---------- --- --- ------ ------ ---- -- ------<br>------- --- ------ ----- --- ---- ------- -- ---- --- --<br>------- ------,119850,119847,118148.2,118147,118186.28,119892.22,,1,the
screen,html.Screen,2_1_1_1_2,2021-04-26T15:21:27.183Z,,,,,,,,,,,,,,,,,54,,,,,,,,,,,,,,242.77999999999884,,response,,,,100,,,,,,,Space,keypress(Space),,,,,,,,-- --- time --- ------ ----- ------- ---- -- --- ------- --<br>------- ---------- ------ -- ----- -- ----- -- ---- ------<br>--- ----- --- --- ------ -------- ----- --- ------ ----- --<br>----- ----- ---------- --- --- ------ ------ ---- -- ------<br>------- --- ------ ----- --- ---- ------- -- ---- --- --<br>------- ------,120139,120135,119850.02,119850,119892.22,120176.62,,2,time
screen,html.Screen,2_1_1_1_3,2021-04-26T15:21:27.421Z,,,,,,,,,,,,,,,,,54,,,,,,,,,,,,,,198.38000000000466,,response,,,,100,,,,,,,Space,keypress(Space),,,,,,,,-- --- ---- the ------ ----- ------- ---- -- --- ------- --<br>------- ---------- ------ -- ----- -- ----- -- ---- ------<br>--- ----- --- --- ------ -------- ----- --- ------ ----- --<br>----- ----- ---------- --- --- ------ ------ ---- -- ------<br>------- --- ------ ----- --- ---- ------- -- ---- --- --<br>------- ------,120377,120375,120139.68,120139,120176.62,120411,,3,the
screen,html.Screen,2_1_1_1_4,2021-04-26T15:21:27.608Z,,,,,,,,,,,,,,,,,54,,,,,,,,,,,,,,148,,response,,,,100,,,,,,,Space,keypress(Space),,,,,,,,-- --- ---- --- French ----- ------- ---- -- --- ------- --<br>------- ---------- ------ -- ----- -- ----- -- ---- ------<br>--- ----- --- --- ------ -------- ----- --- ------ ----- --<br>----- ----- ---------- --- --- ------ ------ ---- -- ------<br>------- --- ------ ----- --- ---- ------- -- ---- --- --<br>------- ------,120563,120559,120377.7,120377,120411,120594.58,,4,French
screen,html.Screen,2_1_1_1_5,2021-04-26T15:21:27.861Z,,,,,,,,,,,,,,,,,54,,,,,,,,,,,,,,220.41999999999825,,response,,,,100,,,,,,,Space,keypress(Space),,,,,,,,-- --- ---- --- ------ crown ------- ---- -- --- ------- --<br>------- ---------- ------ -- ----- -- ----- -- ---- ------<br>--- ----- --- --- ------ -------- ----- --- ------ ----- --<br>----- ----- ---------- --- --- ------ ------ ---- -- ------<br>------- --- ------ ----- --- ---- ------- -- ---- --- --<br>------- ------,120817,120815,120577.28,120563,120594.58,120844.94,,5,crown
screen,html.Screen,2_1_1_1_6,2021-04-26T15:21:28.183Z,,,,,,,,,,,,,,,,,54,,,,,,,,,,,,,,290.0599999999977,,response,,,,100,,,,,,,Space,keypress(Space),,,,,,,,-- --- ---- --- ------ ----- secured ---- -- --- ------- --<br>------- ---------- ------ -- ----- -- ----- -- ---- ------<br>--- ----- --- --- ------ -------- ----- --- ------ ----- --<br>----- ----- ---------- --- --- ------ ------ ---- -- ------<br>------- --- ------ ----- --- ---- ------- -- ---- --- --<br>------- ------,121139,121135,120818.16,120817,120844.94,121180.12,,6,secured
screen,html.Screen,2_1_1_1_7,2021-04-26T15:21:28.541Z,,,,,,,,,,,,,,,,,54,,,,,,,,,,,,,,314.88000000000466,,response,,,,100,,,,,,,Space,keypress(Space),,,,,,,,-- --- ---- --- ------ ----- ------- much -- --- ------- --<br>------- ---------- ------ -- ----- -- ----- -- ---- ------<br>--- ----- --- --- ------ -------- ----- --- ------ ----- --<br>----- ----- ---------- --- --- ------ ------ ---- -- ------<br>------- --- ------ ----- --- ---- ------- -- ---- --- --<br>------- ------,121497,121495,121139.46,121139,121180.12,121530.3,,7,much
screen,html.Screen,2_1_1_1_8,2021-04-26T15:21:28.799Z,,,,,,,,,,,,,,,,,54,,,,,,,,,,,,,,220.6999999999971,,response,,,,100,,,,,,,Space,keypress(Space),,,,,,,,-- --- ---- --- ------ ----- ------- ---- of --- ------- --<br>------- ---------- ------ -- ----- -- ----- -- ---- ------<br>--- ----- --- --- ------ -------- ----- --- ------ ----- --<br>----- ----- ---------- --- --- ------ ------ ---- -- ------<br>------- --- ------ ----- --- ---- ------- -- ---- --- --<br>------- ------,121755,121751,121497.84,121497,121530.3,121781.72,,8,of
screen,html.Screen,2_1_1_1_9,2021-04-26T15:21:29.046Z,,,,,,,,,,,,,,,,,54,,,,,,,,,,,,,,217.27999999999884,,response,,,,100,,,,,,,Space,keypress(Space),,,,,,,,-- --- ---- --- ------ ----- ------- ---- -- its ------- --<br>------- ---------- ------ -- ----- -- ----- -- ---- ------<br>--- ----- --- --- ------ -------- ----- --- ------ ----- --<br>----- ----- ---------- --- --- ------ ------ ---- -- ------<br>------- --- ------ ----- --- ---- ------- -- ---- --- --<br>------- ------,122001,121999,121755.62,121755,121781.72,122032.08,,9,its
screen,html.Screen,2_1_1_1_10,2021-04-26T15:21:29.288Z,,,,,,,,,,,,,,,,,54,,,,,,,,,,,,,,206.91999999999825,,response,,,,100,,,,,,,Space,keypress(Space),,,,,,,,-- --- ---- --- ------ ----- ------- ---- -- --- revenue --<br>------- ---------- ------ -- ----- -- ----- -- ---- ------<br>--- ----- --- --- ------ -------- ----- --- ------ ----- --<br>----- ----- ---------- --- --- ------ ------ ---- -- ------<br>------- --- ------ ----- --- ---- ------- -- ---- --- --<br>------- ------,122243,122239,122002.04,122001,122032.08,122283.4,,10,revenue
screen,html.Screen,2_1_1_1_11,2021-04-26T15:21:29.574Z,,,,,,,,,,,,,,,,,54,,,,,,,,,,,,,,243.60000000000582,,response,,,,100,,,,,,,Space,keypress(Space),,,,,,,,-- --- ---- --- ------ ----- ------- ---- -- --- ------- by<br>------- ---------- ------ -- ----- -- ----- -- ---- ------<br>--- ----- --- --- ------ -------- ----- --- ------ ----- --<br>----- ----- ---------- --- --- ------ ------ ---- -- ------<br>------- --- ------ ----- --- ---- ------- -- ---- --- --<br>------- ------,122529,122527,122244.1,122243,122283.4,122567.82,,11,by
screen,html.Screen,2_1_1_1_12,2021-04-26T15:21:29.831Z,,,,,,,,,,,,,,,,,54,,,,,,,,,,,,,,215.17999999999302,,response,,,,100,,,,,,,Space,keypress(Space),,,,,,,,-- --- ---- --- ------ ----- ------- ---- -- --- ------- --<br>issuing ---------- ------ -- ----- -- ----- -- ---- ------<br>--- ----- --- --- ------ -------- ----- --- ------ ----- --<br>----- ----- ---------- --- --- ------ ------ ---- -- ------<br>------- --- ------ ----- --- ---- ------- -- ---- --- --<br>------- ------,122787,122783,122530,122529,122567.82,122817.9,,12,issuing
screen,html.Screen,2_1_1_1_13,2021-04-26T15:21:30.045Z,,,,,,,,,,,,,,,,,54,,,,,,,,,,,,,,181.10000000000582,,response,,,,100,,,,,,,Space,keypress(Space),,,,,,,,-- --- ---- --- ------ ----- ------- ---- -- --- ------- --<br>------- government ------ -- ----- -- ----- -- ---- ------<br>--- ----- --- --- ------ -------- ----- --- ------ ----- --<br>----- ----- ---------- --- --- ------ ------ ---- -- ------<br>------- --- ------ ----- --- ---- ------- -- ---- --- --<br>------- ------,123001,122999,122787.76,122787,122817.9,123019.48,,13,government
screen,html.Screen,2_1_1_1_14,2021-04-26T15:21:30.240Z,,,,,,,,,,,,,,,,,54,,,,,,,,,,,,,,171.52000000000407,,response,,,,100,,,,,,,Space,keypress(Space),,,,,,,,-- --- ---- --- ------ ----- ------- ---- -- --- ------- --<br>------- ---------- bonds. -- ----- -- ----- -- ---- ------<br>--- ----- --- --- ------ -------- ----- --- ------ ----- --<br>----- ----- ---------- --- --- ------ ------ ---- -- ------<br>------- --- ------ ----- --- ---- ------- -- ---- --- --<br>------- ------,123195,123191,123002.08,123001,123019.48,123220.14,,14,bonds.
screen,html.Screen,2_1_1_1_15,2021-04-26T15:21:30.413Z,,,,,,,,,,,,,,,,,54,,,,,,,,,,,,,,145.86000000000058,,response,,,,100,,,,,,,Space,keypress(Space),,,,,,,,-- --- ---- --- ------ ----- ------- ---- -- --- ------- --<br>------- ---------- ------ In ----- -- ----- -- ---- ------<br>--- ----- --- --- ------ -------- ----- --- ------ ----- --<br>----- ----- ---------- --- --- ------ ------ ---- -- ------<br>------- --- ------ ----- --- ---- ------- -- ---- --- --<br>------- ------,123369,123366,123203.42,123195,123220.14,123386.8,,15,In
screen,html.Screen,2_1_1_1_16,2021-04-26T15:21:30.664Z,,,,,,,,,,,,,,,,,54,,,,,,,,,,,,,,228.1999999999971,,response,,,,100,,,,,,,Space,keypress(Space),,,,,,,,"-- --- ---- --- ------ ----- ------- ---- -- --- ------- --<br>------- ---------- ------ -- 1727, -- ----- -- ---- ------<br>--- ----- --- --- ------ -------- ----- --- ------ ----- --<br>----- ----- ---------- --- --- ------ ------ ---- -- ------<br>------- --- ------ ----- --- ---- ------- -- ---- --- --<br>------- ------",123619,123615,123369.66,123369,123386.8,123653.86,,16,"1727,"
screen,html.Screen,2_1_1_1_17,2021-04-26T15:21:30.901Z,,,,,,,,,,,,,,,,,54,,,,,,,,,,,,,,200.13999999999942,,response,,,,100,,,,,,,Space,keypress(Space),,,,,,,,-- --- ---- --- ------ ----- ------- ---- -- --- ------- --<br>------- ---------- ------ -- ----- in ----- -- ---- ------<br>--- ----- --- --- ------ -------- ----- --- ------ ----- --<br>----- ----- ---------- --- --- ------ ------ ---- -- ------<br>------- --- ------ ----- --- ---- ------- -- ---- --- --<br>------- ------,123857,123854,123619.86,123619,123653.86,123888.94,,17,in
screen,html.Screen,2_1_1_1_18,2021-04-26T15:21:31.111Z,,,,,,,,,,,,,,,,,54,,,,,,,,,,,,,,174.05999999999767,,response,,,,100,,,,,,,Space,keypress(Space),,,,,,,,-- --- ---- --- ------ ----- ------- ---- -- --- ------- --<br>------- ---------- ------ -- ----- -- order -- ---- ------<br>--- ----- --- --- ------ -------- ----- --- ------ ----- --<br>----- ----- ---------- --- --- ------ ------ ---- -- ------<br>------- --- ------ ----- --- ---- ------- -- ---- --- --<br>------- ------,124066,124063,123857.72,123857,123888.94,124089.22,,18,order
screen,html.Screen,2_1_1_1_19,2021-04-26T15:21:31.318Z,,,,,,,,,,,,,,,,,54,,,,,,,,,,,,,,181.77999999999884,,response,,,,100,,,,,,,Space,keypress(Space),,,,,,,,-- --- ---- --- ------ ----- ------- ---- -- --- ------- --<br>------- ---------- ------ -- ----- -- ----- to ---- ------<br>--- ----- --- --- ------ -------- ----- --- ------ ----- --<br>----- ----- ---------- --- --- ------ ------ ---- -- ------<br>------- --- ------ ----- --- ---- ------- -- ---- --- --<br>------- ------,124274,124271,124071.98,124067,124089.22,124306.94,,19,to
screen,html.Screen,2_1_1_1_20,2021-04-26T15:21:31.655Z,,,,,,,,,,,,,,,,,54,,,,,,,,,,,,,,299.0599999999977,,response,,,,100,,,,,,,Space,keypress(Space),,,,,,,,-- --- ---- --- ------ ----- ------- ---- -- --- ------- --<br>------- ---------- ------ -- ----- -- ----- -- save ------<br>--- ----- --- --- ------ -------- ----- --- ------ ----- --<br>----- ----- ---------- --- --- ------ ------ ---- -- ------<br>------- --- ------ ----- --- ---- ------- -- ---- --- --<br>------- ------,124611,124606,124274.12,124274,124306.94,124640.66,,20,save
screen,html.Screen,2_1_1_1_21,2021-04-26T15:21:31.966Z,,,,,,,,,,,,,,,,,54,,,,,,,,,,,,,,278.3399999999965,,response,,,,100,,,,,,,Space,keypress(Space),,,,,,,,"-- --- ---- --- ------ ----- ------- ---- -- --- ------- --<br>------- ---------- ------ -- ----- -- ----- -- ---- money,<br>--- ----- --- --- ------ -------- ----- --- ------ ----- --<br>----- ----- ---------- --- --- ------ ------ ---- -- ------<br>------- --- ------ ----- --- ---- ------- -- ---- --- --<br>------- ------",124921,124919,124611.72,124611,124640.66,124959.04,,21,"money,"
screen,html.Screen,2_1_1_1_22,2021-04-26T15:21:32.256Z,,,,,,,,,,,,,,,,,54,,,,,,,,,,,,,,247.9600000000064,,response,,,,100,,,,,,,Space,keypress(Space),,,,,,,,-- --- ---- --- ------ ----- ------- ---- -- --- ------- --<br>------- ---------- ------ -- ----- -- ----- -- ---- ------<br>the ----- --- --- ------ -------- ----- --- ------ ----- --<br>----- ----- ---------- --- --- ------ ------ ---- -- ------<br>------- --- ------ ----- --- ---- ------- -- ---- --- --<br>------- ------,125211,125207,124922.16,124921,124959.04,125243.28,,22,the
screen,html.Screen,2_1_1_1_23,2021-04-26T15:21:32.446Z,,,,,,,,,,,,,,,,,54,,,,,,,,,,,,,,155.72000000000116,,response,,,,100,,,,,,,Space,keypress(Space),,,,,,,,-- --- ---- --- ------ ----- ------- ---- -- --- ------- --<br>------- ---------- ------ -- ----- -- ----- -- ---- ------<br>--- state --- --- ------ -------- ----- --- ------ ----- --<br>----- ----- ---------- --- --- ------ ------ ---- -- ------<br>------- --- ------ ----- --- ---- ------- -- ---- --- --<br>------- ------,125401,125399,125211.68,125211,125243.28,125426.82,,23,state
screen,html.Screen,2_1_1_1_24,2021-04-26T15:21:32.632Z,,,,,,,,,,,,,,,,,54,,,,,,,,,,,,,,155.17999999999302,,response,,,,100,,,,,,,Space,keypress(Space),,,,,,,,-- --- ---- --- ------ ----- ------- ---- -- --- ------- --<br>------- ---------- ------ -- ----- -- ----- -- ---- ------<br>--- ----- cut --- ------ -------- ----- --- ------ ----- --<br>----- ----- ---------- --- --- ------ ------ ---- -- ------<br>------- --- ------ ----- --- ---- ------- -- ---- --- --<br>------- ------,125587,125582,125410.44,125401,125426.82,125610.2,,24,cut
screen,html.Screen,2_1_1_1_25,2021-04-26T15:21:32.758Z,,,,,,,,,,,,,,,,,54,,,,,,,,,,,,,,100.80000000000291,,response,,,,100,,,,,,,Space,keypress(Space),,,,,,,,-- --- ---- --- ------ ----- ------- ---- -- --- ------- --<br>------- ---------- ------ -- ----- -- ----- -- ---- ------<br>--- ----- --- the ------ -------- ----- --- ------ ----- --<br>----- ----- ---------- --- --- ------ ------ ---- -- ------<br>------- --- ------ ----- --- ---- ------- -- ---- --- --<br>------- ------,125713,125711,125593.42,125588,125610.2,125743.86,,25,the
screen,html.Screen,2_1_1_1_26,2021-04-26T15:21:32.968Z,,,,,,,,,,,,,,,,,54,,,,,,,,,,,,,,174.13999999999942,,response,,,,100,,,,,,,Space,keypress(Space),,,,,,,,-- --- ---- --- ------ ----- ------- ---- -- --- ------- --<br>------- ---------- ------ -- ----- -- ----- -- ---- ------<br>--- ----- --- --- bonds' -------- ----- --- ------ ----- --<br>----- ----- ---------- --- --- ------ ------ ---- -- ------<br>------- --- ------ ----- --- ---- ------- -- ---- --- --<br>------- ------,125923,125918,125727.16,125713,125743.86,125944.62,,26,bonds'
screen,html.Screen,2_1_1_1_27,2021-04-26T15:21:33.158Z,,,,,,,,,,,,,,,,,54,,,,,,,,,,,,,,166.38000000000466,,response,,,,100,,,,,,,Space,keypress(Space),,,,,,,,-- --- ---- --- ------ ----- ------- ---- -- --- ------- --<br>------- ---------- ------ -- ----- -- ----- -- ---- ------<br>--- ----- --- --- ------ interest ----- --- ------ ----- --<br>----- ----- ---------- --- --- ------ ------ ---- -- ------<br>------- --- ------ ----- --- ---- ------- -- ---- --- --<br>------- ------,126113,126111,125928.8,125923,125944.62,126146.18,,27,interest
screen,html.Screen,2_1_1_1_28,2021-04-26T15:21:33.367Z,,,,,,,,,,,,,,,,,54,,,,,,,,,,,,,,172.82000000000698,,response,,,,100,,,,,,,Space,keypress(Space),,,,,,,,-- --- ---- --- ------ ----- ------- ---- -- --- ------- --<br>------- ---------- ------ -- ----- -- ----- -- ---- ------<br>--- ----- --- --- ------ -------- rate. --- ------ ----- --<br>----- ----- ---------- --- --- ------ ------ ---- -- ------<br>------- --- ------ ----- --- ---- ------- -- ---- --- --<br>------- ------,126323,126319,126129.22,126113,126146.18,126346.82,,28,rate.
screen,html.Screen,2_1_1_1_29,2021-04-26T15:21:33.589Z,,,,,,,,,,,,,,,,,54,,,,,,,,,,,,,,195.17999999999302,,response,,,,100,,,,,,,Space,keypress(Space),,,,,,,,-- --- ---- --- ------ ----- ------- ---- -- --- ------- --<br>------- ---------- ------ -- ----- -- ----- -- ---- ------<br>--- ----- --- --- ------ -------- ----- The ------ ----- --<br>----- ----- ---------- --- --- ------ ------ ---- -- ------<br>------- --- ------ ----- --- ---- ------- -- ---- --- --<br>------- ------,126545,126542,126329.9,126323,126346.82,126564.16,,29,The
screen,html.Screen,2_1_1_1_30,2021-04-26T15:21:33.847Z,,,,,,,,,,,,,,,,,54,,,,,,,,,,,,,,234.8399999999965,,response,,,,100,,,,,,,Space,keypress(Space),,,,,,,,-- --- ---- --- ------ ----- ------- ---- -- --- ------- --<br>------- ---------- ------ -- ----- -- ----- -- ---- ------<br>--- ----- --- --- ------ -------- ----- --- market ----- --<br>----- ----- ---------- --- --- ------ ------ ---- -- ------<br>------- --- ------ ----- --- ---- ------- -- ---- --- --<br>------- ------,126803,126799,126547.14,126545,126564.16,126831.62,,30,market
screen,html.Screen,2_1_1_1_31,2021-04-26T15:21:34.070Z,,,,,,,,,,,,,,,,,54,,,,,,,,,,,,,,190.38000000000466,,response,,,,100,,,,,,,Space,keypress(Space),,,,,,,,-- --- ---- --- ------ ----- ------- ---- -- --- ------- --<br>------- ---------- ------ -- ----- -- ----- -- ---- ------<br>--- ----- --- --- ------ -------- ----- --- ------ value --<br>----- ----- ---------- --- --- ------ ------ ---- -- ------<br>------- --- ------ ----- --- ---- ------- -- ---- --- --<br>------- ------,127025,127022,126803.76,126803,126831.62,127065.78,,31,value
screen,html.Screen,2_1_1_1_32,2021-04-26T15:21:34.279Z,,,,,,,,,,,,,,,,,54,,,,,,,,,,,,,,164.22000000000116,,response,,,,100,,,,,,,Space,keypress(Space),,,,,,,,-- --- ---- --- ------ ----- ------- ---- -- --- ------- --<br>------- ---------- ------ -- ----- -- ----- -- ---- ------<br>--- ----- --- --- ------ -------- ----- --- ------ ----- of<br>----- ----- ---------- --- --- ------ ------ ---- -- ------<br>------- --- ------ ----- --- ---- ------- -- ---- --- --<br>------- ------,127235,127230,127026.04,127025,127065.78,127266.42,,32,of
screen,html.Screen,2_1_1_1_33,2021-04-26T15:21:34.477Z,,,,,,,,,,,,,,,,,54,,,,,,,,,,,,,,164.58000000000175,,response,,,,100,,,,,,,Space,keypress(Space),,,,,,,,-- --- ---- --- ------ ----- ------- ---- -- --- ------- --<br>------- ---------- ------ -- ----- -- ----- -- ---- ------<br>--- ----- --- --- ------ -------- ----- --- ------ ----- --<br>these ----- ---------- --- --- ------ ------ ---- -- ------<br>------- --- ------ ----- --- ---- ------- -- ---- --- --<br>------- ------,127433,127431,127249.58,127235,127266.42,127467.28,,33,these
screen,html.Screen,2_1_1_1_34,2021-04-26T15:21:34.672Z,,,,,,,,,,,,,,,,,54,,,,,,,,,,,,,,155.72000000000116,,response,,,,100,,,,,,,Space,keypress(Space),,,,,,,,-- --- ---- --- ------ ----- ------- ---- -- --- ------- --<br>------- ---------- ------ -- ----- -- ----- -- ---- ------<br>--- ----- --- --- ------ -------- ----- --- ------ ----- --<br>----- bonds ---------- --- --- ------ ------ ---- -- ------<br>------- --- ------ ----- --- ---- ------- -- ---- --- --<br>------- ------,127627,127623,127450.28,127433,127467.28,127650.56,,34,bonds
screen,html.Screen,2_1_1_1_35,2021-04-26T15:21:34.854Z,,,,,,,,,,,,,,,,,54,,,,,,,,,,,,,,156.44000000000233,,response,,,,100,,,,,,,Space,keypress(Space),,,,,,,,"-- --- ---- --- ------ ----- ------- ---- -- --- ------- --<br>------- ---------- ------ -- ----- -- ----- -- ---- ------<br>--- ----- --- --- ------ -------- ----- --- ------ ----- --<br>----- ----- plummeted, --- --- ------ ------ ---- -- ------<br>------- --- ------ ----- --- ---- ------- -- ---- --- --<br>------- ------",127809,127807,127633.92,127627,127650.56,127835.22,,35,"plummeted,"
screen,html.Screen,2_1_1_1_36,2021-04-26T15:21:35.056Z,,,,,,,,,,,,,,,,,54,,,,,,,,,,,,,,171.77999999999884,,response,,,,100,,,,,,,Space,keypress(Space),,,,,,,,-- --- ---- --- ------ ----- ------- ---- -- --- ------- --<br>------- ---------- ------ -- ----- -- ----- -- ---- ------<br>--- ----- --- --- ------ -------- ----- --- ------ ----- --<br>----- ----- ---------- and --- ------ ------ ---- -- ------<br>------- --- ------ ----- --- ---- ------- -- ---- --- --<br>------- ------,128011,128007,127818.46,127810,127835.22,128035.84,,36,and
screen,html.Screen,2_1_1_1_37,2021-04-26T15:21:35.245Z,,,,,,,,,,,,,,,,,54,,,,,,,,,,,,,,163.1600000000035,,response,,,,100,,,,,,,Space,keypress(Space),,,,,,,,-- --- ---- --- ------ ----- ------- ---- -- --- ------- --<br>------- ---------- ------ -- ----- -- ----- -- ---- ------<br>--- ----- --- --- ------ -------- ----- --- ------ ----- --<br>----- ----- ---------- --- the ------ ------ ---- -- ------<br>------- --- ------ ----- --- ---- ------- -- ---- --- --<br>------- ------,128201,128199,128018.76,128011,128035.84,128219.48,,37,the
screen,html.Screen,2_1_1_1_38,2021-04-26T15:21:35.423Z,,,,,,,,,,,,,,,,,54,,,,,,,,,,,,,,154.52000000000407,,response,,,,100,,,,,,,Space,keypress(Space),,,,,,,,-- --- ---- --- ------ ----- ------- ---- -- --- ------- --<br>------- ---------- ------ -- ----- -- ----- -- ---- ------<br>--- ----- --- --- ------ -------- ----- --- ------ ----- --<br>----- ----- ---------- --- --- market ------ ---- -- ------<br>------- --- ------ ----- --- ---- ------- -- ---- --- --<br>------- ------,128379,128374,128202.66,128201,128219.48,128403.04,,38,market
screen,html.Screen,2_1_1_1_39,2021-04-26T15:21:35.629Z,,,,,,,,,,,,,,,,,54,,,,,,,,,,,,,,178.9600000000064,,response,,,,100,,,,,,,Space,keypress(Space),,,,,,,,-- --- ---- --- ------ ----- ------- ---- -- --- ------- --<br>------- ---------- ------ -- ----- -- ----- -- ---- ------<br>--- ----- --- --- ------ -------- ----- --- ------ ----- --<br>----- ----- ---------- --- --- ------ became ---- -- ------<br>------- --- ------ ----- --- ---- ------- -- ---- --- --<br>------- ------,128585,128582,128386.98,128379,128403.04,128604.28,,39,became
screen,html.Screen,2_1_1_1_40,2021-04-26T15:21:35.871Z,,,,,,,,,,,,,,,,,54,,,,,,,,,,,,,,217.72000000000116,,response,,,,100,,,,,,,Space,keypress(Space),,,,,,,,-- --- ---- --- ------ ----- ------- ---- -- --- ------- --<br>------- ---------- ------ -- ----- -- ----- -- ---- ------<br>--- ----- --- --- ------ -------- ----- --- ------ ----- --<br>----- ----- ---------- --- --- ------ ------ wary -- ------<br>------- --- ------ ----- --- ---- ------- -- ---- --- --<br>------- ------,128827,128822,128587.56,128585,128604.28,128855.08,,40,wary
screen,html.Screen,2_1_1_1_41,2021-04-26T15:21:36.117Z,,,,,,,,,,,,,,,,,54,,,,,,,,,,,,,,215.91999999999825,,response,,,,100,,,,,,,Space,keypress(Space),,,,,,,,-- --- ---- --- ------ ----- ------- ---- -- --- ------- --<br>------- ---------- ------ -- ----- -- ----- -- ---- ------<br>--- ----- --- --- ------ -------- ----- --- ------ ----- --<br>----- ----- ---------- --- --- ------ ------ ---- of ------<br>------- --- ------ ----- --- ---- ------- -- ---- --- --<br>------- ------,129073,129071,128827.58,128827,128855.08,129104.88,,41,of
screen,html.Screen,2_1_1_1_42,2021-04-26T15:21:36.343Z,,,,,,,,,,,,,,,,,54,,,,,,,,,,,,,,189.11999999999534,,response,,,,100,,,,,,,Space,keypress(Space),,,,,,,,-- --- ---- --- ------ ----- ------- ---- -- --- ------- --<br>------- ---------- ------ -- ----- -- ----- -- ---- ------<br>--- ----- --- --- ------ -------- ----- --- ------ ----- --<br>----- ----- ---------- --- --- ------ ------ ---- -- French<br>------- --- ------ ----- --- ---- ------- -- ---- --- --<br>------- ------,129299,129294,129073.8,129073,129104.88,129339.8,,42,French
screen,html.Screen,2_1_1_1_43,2021-04-26T15:21:36.573Z,,,,,,,,,,,,,,,,,54,,,,,,,,,,,,,,186.1999999999971,,response,,,,100,,,,,,,Space,keypress(Space),,,,,,,,-- --- ---- --- ------ ----- ------- ---- -- --- ------- --<br>------- ---------- ------ -- ----- -- ----- -- ---- ------<br>--- ----- --- --- ------ -------- ----- --- ------ ----- --<br>----- ----- ---------- --- --- ------ ------ ---- -- ------<br>credit. --- ------ ----- --- ---- ------- -- ---- --- --<br>------- ------,129529,129526,129299.76,129299,129339.8,129557.06,,43,credit.
screen,html.Screen,2_1_1_1_44,2021-04-26T15:21:36.775Z,,,,,,,,,,,,,,,,,54,,,,,,,,,,,,,,169.94000000000233,,response,,,,100,,,,,,,Space,keypress(Space),,,,,,,,-- --- ---- --- ------ ----- ------- ---- -- --- ------- --<br>------- ---------- ------ -- ----- -- ----- -- ---- ------<br>--- ----- --- --- ------ -------- ----- --- ------ ----- --<br>----- ----- ---------- --- --- ------ ------ ---- -- ------<br>------- The ------ ----- --- ---- ------- -- ---- --- --<br>------- ------,129731,129727,129529.94,129529,129557.06,129757.74,,44,The
screen,html.Screen,2_1_1_1_45,2021-04-26T15:21:36.949Z,,,,,,,,,,,,,,,,,54,,,,,,,,,,,,,,145.25999999999476,,response,,,,100,,,,,,,Space,keypress(Space),,,,,,,,-- --- ---- --- ------ ----- ------- ---- -- --- ------- --<br>------- ---------- ------ -- ----- -- ----- -- ---- ------<br>--- ----- --- --- ------ -------- ----- --- ------ ----- --<br>----- ----- ---------- --- --- ------ ------ ---- -- ------<br>------- --- French ----- --- ---- ------- -- ---- --- --<br>------- ------,129905,129903,129740.34,129731,129757.74,129925.2,,45,French
screen,html.Screen,2_1_1_1_46,2021-04-26T15:21:37.151Z,,,,,,,,,,,,,,,,,54,,,,,,,,,,,,,,177.8000000000029,,response,,,,100,,,,,,,Space,keypress(Space),,,,,,,,-- --- ---- --- ------ ----- ------- ---- -- --- ------- --<br>------- ---------- ------ -- ----- -- ----- -- ---- ------<br>--- ----- --- --- ------ -------- ----- --- ------ ----- --<br>----- ----- ---------- --- --- ------ ------ ---- -- ------<br>------- --- ------ state --- ---- ------- -- ---- --- --<br>------- ------,130107,130103,129908.28,129905,129925.2,130125.86,,46,state
screen,html.Screen,2_1_1_1_47,2021-04-26T15:21:37.365Z,,,,,,,,,,,,,,,,,54,,,,,,,,,,,,,,192.13999999999942,,response,,,,100,,,,,,,Space,keypress(Space),,,,,,,,-- --- ---- --- ------ ----- ------- ---- -- --- ------- --<br>------- ---------- ------ -- ----- -- ----- -- ---- ------<br>--- ----- --- --- ------ -------- ----- --- ------ ----- --<br>----- ----- ---------- --- --- ------ ------ ---- -- ------<br>------- --- ------ ----- was ---- ------- -- ---- --- --<br>------- ------,130320,130318,130108.94,130107,130125.86,130343.2,,47,was
screen,html.Screen,2_1_1_1_48,2021-04-26T15:21:37.623Z,,,,,,,,,,,,,,,,,54,,,,,,,,,,,,,,230.8000000000029,,response,,,,100,,,,,,,Space,keypress(Space),,,,,,,,-- --- ---- --- ------ ----- ------- ---- -- --- ------- --<br>------- ---------- ------ -- ----- -- ----- -- ---- ------<br>--- ----- --- --- ------ -------- ----- --- ------ ----- --<br>----- ----- ---------- --- --- ------ ------ ---- -- ------<br>------- --- ------ ----- --- left ------- -- ---- --- --<br>------- ------,130579,130574,130326.36,130321,130343.2,130610.7,,48,left
screen,html.Screen,2_1_1_1_49,2021-04-26T15:21:37.829Z,,,,,,,,,,,,,,,,,54,,,,,,,,,,,,,,172.3000000000029,,response,,,,100,,,,,,,Space,keypress(Space),,,,,,,,-- --- ---- --- ------ ----- ------- ---- -- --- ------- --<br>------- ---------- ------ -- ----- -- ----- -- ---- ------<br>--- ----- --- --- ------ -------- ----- --- ------ ----- --<br>----- ----- ---------- --- --- ------ ------ ---- -- ------<br>------- --- ------ ----- --- ---- without -- ---- --- --<br>------- ------,130785,130783,130579.94,130579,130610.7,130810.98,,49,without
screen,html.Screen,2_1_1_1_50,2021-04-26T15:21:38.063Z,,,,,,,,,,,,,,,,,54,,,,,,,,,,,,,,203.02000000000407,,response,,,,100,,,,,,,Space,keypress(Space),,,,,,,,-- --- ---- --- ------ ----- ------- ---- -- --- ------- --<br>------- ---------- ------ -- ----- -- ----- -- ---- ------<br>--- ----- --- --- ------ -------- ----- --- ------ ----- --<br>----- ----- ---------- --- --- ------ ------ ---- -- ------<br>------- --- ------ ----- --- ---- ------- an ---- --- --<br>------- ------,131019,131014,130793.98,130785,130810.98,131061.3,,50,an
screen,html.Screen,2_1_1_1_51,2021-04-26T15:21:38.269Z,,,,,,,,,,,,,,,,,54,,,,,,,,,,,,,,161.6999999999971,,response,,,,100,,,,,,,Space,keypress(Space),,,,,,,,-- --- ---- --- ------ ----- ------- ---- -- --- ------- --<br>------- ---------- ------ -- ----- -- ----- -- ---- ------<br>--- ----- --- --- ------ -------- ----- --- ------ ----- --<br>----- ----- ---------- --- --- ------ ------ ---- -- ------<br>------- --- ------ ----- --- ---- ------- -- easy --- --<br>------- ------,131225,131223,131019.46,131019,131061.3,131245.64,,51,easy
screen,html.Screen,2_1_1_1_52,2021-04-26T15:21:38.503Z,,,,,,,,,,,,,,,,,54,,,,,,,,,,,,,,209.35999999998603,,response,,,,100,,,,,,,Space,keypress(Space),,,,,,,,-- --- ---- --- ------ ----- ------- ---- -- --- ------- --<br>------- ---------- ------ -- ----- -- ----- -- ---- ------<br>--- ----- --- --- ------ -------- ----- --- ------ ----- --<br>----- ----- ---------- --- --- ------ ------ ---- -- ------<br>------- --- ------ ----- --- ---- ------- -- ---- way --<br>------- ------,131459,131455,131229.4,131226,131245.64,131496.36,,52,way
screen,html.Screen,2_1_1_1_53,2021-04-26T15:21:38.725Z,,,,,,,,,,,,,,,,,54,,,,,,,,,,,,,,182.64000000001397,,response,,,,100,,,,,,,Space,keypress(Space),,,,,,,,-- --- ---- --- ------ ----- ------- ---- -- --- ------- --<br>------- ---------- ------ -- ----- -- ----- -- ---- ------<br>--- ----- --- --- ------ -------- ----- --- ------ ----- --<br>----- ----- ---------- --- --- ------ ------ ---- -- ------<br>------- --- ------ ----- --- ---- ------- -- ---- --- of<br>------- ------,131681,131679,131459.62,131459,131496.36,131714.06,,53,of
screen,html.Screen,2_1_1_1_54,2021-04-26T15:21:38.927Z,,,,,,,,,,,,,,,,,54,,,,,,,,,,,,,,163.94000000000233,,response,,,,100,,,,,,,Space,keypress(Space),,,,,,,,-- --- ---- --- ------ ----- ------- ---- -- --- ------- --<br>------- ---------- ------ -- ----- -- ----- -- ---- ------<br>--- ----- --- --- ------ -------- ----- --- ------ ----- --<br>----- ----- ---------- --- --- ------ ------ ---- -- ------<br>------- --- ------ ----- --- ---- ------- -- ---- --- --<br>raising ------,131883,131878,131681.98,131681,131714.06,131914.32,,54,raising
screen,html.Screen,2_1_1_1_55,2021-04-26T15:21:39.573Z,,,,,,,,,,,,,,,,,54,,,,,,,,,,,,,,612.679999999993,,response,,,,100,,,,,,,Space,keypress(Space),,,,,,,,-- --- ---- --- ------ ----- ------- ---- -- --- ------- --<br>------- ---------- ------ -- ----- -- ----- -- ---- ------<br>--- ----- --- --- ------ -------- ----- --- ------ ----- --<br>----- ----- ---------- --- --- ------ ------ ---- -- ------<br>------- --- ------ ----- --- ---- ------- -- ---- --- --<br>------- money.,132529,132527,131897.64,131883,131914.32,132566.94,,55,money.
Item 100,flow.Loop,2_1_1_1,2021-04-26T15:21:39.574Z,,,,,,,,,,,,,,,,,,,,,,,,,,,,,,,16162.419999999998,,completion,,,,,C,,,,,,,,,,,silence,,,,,132529,132527,116347.84,116348,116364.58,132566.94,,,
Question 1,html.Screen,2_1_1_2,2021-04-26T15:21:41.379Z,,,,,,,,,,,,,,,,,,,,,,,,,,,,true,TRUE,,1765.0599999999977,,response,,,,100,C,,,,,,TRUE,click #choice-1,,,,silence,,,,,134334,134332,132529.82,132529,132566.94,134355.34,,,
Question 2,html.Screen,2_1_1_3,2021-04-26T15:21:42.862Z,,,,,,,,,,,,,,,,,,,,,,,,,,,,true,FALSE,,1460.6600000000035,,response,,,,100,C,,,,,,FALSE,click #choice-2,,,,silence,,,,,135818,135816,134327.84,134334,134355.34,135844.32,,,
Item 100,flow.Sequence,2_1_1,2021-04-26T15:21:42.863Z,,,,,,,,,,,,,,,,,,,,,,,,,,,,,,,29451.399999999994,,completion,,,,,,,,,,,,,,,,,,,,,135818,135816,106326.4,106334,106364.6,135844.32,,,
End of Practice,html.Page,2_1_2,2021-04-26T15:21:45.624Z,,,,,,,,,,,,,,,,,,,,,,,,,,,,,,,2734.679999999993,,form submission,,,,,,,,,,,,,,,,,,,,,138579,138579,135811.62,135818,135844.32,138602.42,,,
Practice,flow.Sequence,2_1,2021-04-26T15:21:45.624Z,,,,,,,,,,,,,,,,,,,,,,,,,,,,,,,70220.58,,completion,,,,,,,,,,,,,,,,,,,,,138579,138579,68318.6,68327,68358.42,138602.42,,,
Trap_instruction,html.Page,2_2_0,2021-04-26T15:21:48.698Z,,,,,,,,,,,,,,,,,,,,,,,,,,,,,,,3050.579999999987,,form submission,,,,,,,,,,,,,,,,,,,,,141654,141653,138571.48,138580,138602.42,141695.72,,,
trap_trial,html.Screen,2_2_1,2021-04-26T15:21:51.077Z,,,,,,,,,,,,,,,,,,,,,,,,,,,,true,1,,2335.279999999999,,response,,,,,,,,,,,1,click #choice-1,,,,,,,,,144033,144031,141679.2,141654,141695.72,144053.44,,,
end of trap trial,html.Page,2_2_2,2021-04-26T15:21:52.475Z,,,,,,,,,,,,,,,,,,,,,,,,,,,,,,,1377.5599999999977,,form submission,,,,,,,,,,,,,,,,,,,,,145432,145431,144025.6,144033,144053.44,145458.1,,,
Trap 1,flow.Sequence,2_2,2021-04-26T15:21:52.475Z,,,,,,,,,,,,,,,,,,,,,,,,,,,,,,,6828.579999999987,,completion,,,,,,,,,,,,,,,,,,,,,145432,145431,138571.48,138580,138602.42,145458.1,,,
Standby,html.Page,2_3_0,2021-04-26T15:22:00.478Z,,,,,,,,,,,,,,,,,,,,,,,,,,,,,,,7992.720000000001,,timeout,,,,,,,,,,,,,,,,,,,,,153435,153434.02,145442.02,145432,145458.1,153450.82,,,
Holding screen,html.Screen,2_3_1_0_0,2021-04-26T15:22:07.485Z,,,,,,,,,,,,,,,,,,,,,,,,,,,,,,,7006.1999999999825,,timeout,,,,,,,,,,,,,,,,,,,,,160441,160440.04,153434.02,153435,153450.82,160457.02,,,
screen,html.Screen,2_3_1_0_1_0,2021-04-26T15:22:08.736Z,,,,,,,,,,,,,,,,,48,,,,,,,,,,,,,,1229.9800000000105,,response,,,,10,C,,,,,,Space,keypress(Space),,,,instrumental,,,,As -- --- ------ ------- --------- ----------- --------<br>--------- -------- --- ------- -- ------- ---- -- ------<br>-- --- -------- -------- ---------- ---- ---- ---- ------<br>-- --------- -- ---- -- --- -- --- ------- -- - -----<br>---------- -- -- -- ---- ----- -- ------ -- --- ------<br>-------,161693,161687,160440.04,160441,160457.02,161728.06,,0,As
screen,html.Screen,2_3_1_0_1_1,2021-04-26T15:22:09.109Z,,,,,,,,,,,,,,,,,48,,,,,,,,,,,,,,335.9400000000023,,response,,,,10,C,,,,,,Space,keypress(Space),,,,instrumental,,,,-- in --- ------ ------- --------- ----------- --------<br>--------- -------- --- ------- -- ------- ---- -- ------<br>-- --- -------- -------- ---------- ---- ---- ---- ------<br>-- --------- -- ---- -- --- -- --- ------- -- - -----<br>---------- -- -- -- ---- ----- -- ------ -- --- ------<br>-------,162066,162064,161693.3,161693,161728.06,162095.22,,1,in
screen,html.Screen,2_3_1_0_1_2,2021-04-26T15:22:09.391Z,,,,,,,,,,,,,,,,,48,,,,,,,,,,,,,,248.77999999999884,,response,,,,10,C,,,,,,Space,keypress(Space),,,,instrumental,,,,-- -- the ------ ------- --------- ----------- --------<br>--------- -------- --- ------- -- ------- ---- -- ------<br>-- --- -------- -------- ---------- ---- ---- ---- ------<br>-- --------- -- ---- -- --- -- --- ------- -- - -----<br>---------- -- -- -- ---- ----- -- ------ -- --- ------<br>-------,162348,162344,162066.86,162066,162095.22,162379.12,,2,the
screen,html.Screen,2_3_1_0_1_3,2021-04-26T15:22:09.686Z,,,,,,,,,,,,,,,,,48,,,,,,,,,,,,,,260.88000000000466,,response,,,,10,C,,,,,,Space,keypress(Space),,,,instrumental,,,,-- -- --- United ------- --------- ----------- --------<br>--------- -------- --- ------- -- ------- ---- -- ------<br>-- --- -------- -------- ---------- ---- ---- ---- ------<br>-- --------- -- ---- -- --- -- --- ------- -- - -----<br>---------- -- -- -- ---- ----- -- ------ -- --- ------<br>-------,162642,162640,162348.72,162348,162379.12,162680.78,,3,United
screen,html.Screen,2_3_1_0_1_4,2021-04-26T15:22:09.967Z,,,,,,,,,,,,,,,,,48,,,,,,,,,,,,,,239.22000000000116,,response,,,,10,C,,,,,,Space,keypress(Space),,,,instrumental,,,,"-- -- --- ------ States, --------- ----------- --------<br>--------- -------- --- ------- -- ------- ---- -- ------<br>-- --- -------- -------- ---------- ---- ---- ---- ------<br>-- --------- -- ---- -- --- -- --- ------- -- - -----<br>---------- -- -- -- ---- ----- -- ------ -- --- ------<br>-------",162924,162920,162642.86,162642,162680.78,162965.24,,4,"States,"
screen,html.Screen,2_3_1_0_1_5,2021-04-26T15:22:10.278Z,,,,,,,,,,,,,,,,,48,,,,,,,,,,,,,,266.7600000000093,,response,,,,10,C,,,,,,Space,keypress(Space),,,,instrumental,,,,-- -- --- ------ ------- Colombian ----------- --------<br>--------- -------- --- ------- -- ------- ---- -- ------<br>-- --- -------- -------- ---------- ---- ---- ---- ------<br>-- --------- -- ---- -- --- -- --- ------- -- - -----<br>---------- -- -- -- ---- ----- -- ------ -- --- ------<br>-------,163234,163232,162924.82,162925,162965.24,163266.46,,5,Colombian
screen,html.Screen,2_3_1_0_1_6,2021-04-26T15:22:10.576Z,,,,,,,,,,,,,,,,,48,,,,,,,,,,,,,,261.54000000000815,,response,,,,10,C,,,,,,Space,keypress(Space),,,,instrumental,,,,-- -- --- ------ ------- --------- legislation --------<br>--------- -------- --- ------- -- ------- ---- -- ------<br>-- --- -------- -------- ---------- ---- ---- ---- ------<br>-- --------- -- ---- -- --- -- --- ------- -- - -----<br>---------- -- -- -- ---- ----- -- ------ -- --- ------<br>-------,163532,163528,163235,163234,163266.46,163567.46,,6,legislation
screen,html.Screen,2_3_1_0_1_7,2021-04-26T15:22:10.934Z,,,,,,,,,,,,,,,,,48,,,,,,,,,,,,,,320.54000000000815,,response,,,,10,C,,,,,,Space,keypress(Space),,,,instrumental,,,,-- -- --- ------ ------- --------- ----------- requires<br>--------- -------- --- ------- -- ------- ---- -- ------<br>-- --- -------- -------- ---------- ---- ---- ---- ------<br>-- --------- -- ---- -- --- -- --- ------- -- - -----<br>---------- -- -- -- ---- ----- -- ------ -- --- ------<br>-------,163891,163888,163532.96,163532,163567.46,163918,,7,requires
screen,html.Screen,2_3_1_0_1_8,2021-04-26T15:22:11.247Z,,,,,,,,,,,,,,,,,48,,,,,,,,,,,,,,282,,response,,,,10,C,,,,,,Space,keypress(Space),,,,instrumental,,,,-- -- --- ------ ------- --------- ----------- --------<br>travelers -------- --- ------- -- ------- ---- -- ------<br>-- --- -------- -------- ---------- ---- ---- ---- ------<br>-- --------- -- ---- -- --- -- --- ------- -- - -----<br>---------- -- -- -- ---- ----- -- ------ -- --- ------<br>-------,164204,164200,163890.98,163891,163918,164236.08,,8,travelers
screen,html.Screen,2_3_1_0_1_9,2021-04-26T15:22:11.517Z,,,,,,,,,,,,,,,,,48,,,,,,,,,,,,,,235.9200000000128,,response,,,,10,C,,,,,,Space,keypress(Space),,,,instrumental,,,,-- -- --- ------ ------- --------- ----------- --------<br>--------- entering --- ------- -- ------- ---- -- ------<br>-- --- -------- -------- ---------- ---- ---- ---- ------<br>-- --------- -- ---- -- --- -- --- ------- -- - -----<br>---------- -- -- -- ---- ----- -- ------ -- --- ------<br>-------,164474,164472,164204.86,164204,164236.08,164503.54,,9,entering
screen,html.Screen,2_3_1_0_1_10,2021-04-26T15:22:11.807Z,,,,,,,,,,,,,,,,,48,,,,,,,,,,,,,,255.45999999999185,,response,,,,10,C,,,,,,Space,keypress(Space),,,,instrumental,,,,-- -- --- ------ ------- --------- ----------- --------<br>--------- -------- the ------- -- ------- ---- -- ------<br>-- --- -------- -------- ---------- ---- ---- ---- ------<br>-- --------- -- ---- -- --- -- --- ------- -- - -----<br>---------- -- -- -- ---- ----- -- ------ -- --- ------<br>-------,164764,164759,164474.76,164474,164503.54,164804.76,,10,the
screen,html.Screen,2_3_1_0_1_11,2021-04-26T15:22:12.069Z,,,,,,,,,,,,,,,,,48,,,,,,,,,,,,,,219.2399999999907,,response,,,,10,C,,,,,,Space,keypress(Space),,,,instrumental,,,,-- -- --- ------ ------- --------- ----------- --------<br>--------- -------- --- country -- ------- ---- -- ------<br>-- --- -------- -------- ---------- ---- ---- ---- ------<br>-- --------- -- ---- -- --- -- --- ------- -- - -----<br>---------- -- -- -- ---- ----- -- ------ -- --- ------<br>-------,165026,165024,164764.72,164764,164804.76,165055.02,,11,country
screen,html.Screen,2_3_1_0_1_12,2021-04-26T15:22:12.335Z,,,,,,,,,,,,,,,,,48,,,,,,,,,,,,,,231.98000000001048,,response,,,,10,C,,,,,,Space,keypress(Space),,,,instrumental,,,,-- -- --- ------ ------- --------- ----------- --------<br>--------- -------- --- ------- to ------- ---- -- ------<br>-- --- -------- -------- ---------- ---- ---- ---- ------<br>-- --------- -- ---- -- --- -- --- ------- -- - -----<br>---------- -- -- -- ---- ----- -- ------ -- --- ------<br>-------,165292,165287,165026.92,165026,165055.02,165322.1,,12,to
screen,html.Screen,2_3_1_0_1_13,2021-04-26T15:22:12.606Z,,,,,,,,,,,,,,,,,48,,,,,,,,,,,,,,237.89999999999418,,response,,,,10,C,,,,,,Space,keypress(Space),,,,instrumental,,,,-- -- --- ------ ------- --------- ----------- --------<br>--------- -------- --- ------- -- declare ---- -- ------<br>-- --- -------- -------- ---------- ---- ---- ---- ------<br>-- --------- -- ---- -- --- -- --- ------- -- - -----<br>---------- -- -- -- ---- ----- -- ------ -- --- ------<br>-------,165563,165560,165292.68,165292,165322.1,165589.82,,13,declare
screen,html.Screen,2_3_1_0_1_14,2021-04-26T15:22:12.904Z,,,,,,,,,,,,,,,,,48,,,,,,,,,,,,,,266.179999999993,,response,,,,10,C,,,,,,Space,keypress(Space),,,,instrumental,,,,-- -- --- ------ ------- --------- ----------- --------<br>--------- -------- --- ------- -- ------- cash -- ------<br>-- --- -------- -------- ---------- ---- ---- ---- ------<br>-- --------- -- ---- -- --- -- --- ------- -- - -----<br>---------- -- -- -- ---- ----- -- ------ -- --- ------<br>-------,165860,165856,165562.88,165563,165589.82,165890.9,,14,cash
screen,html.Screen,2_3_1_0_1_15,2021-04-26T15:22:13.166Z,,,,,,,,,,,,,,,,,48,,,,,,,,,,,,,,229.10000000000582,,response,,,,10,C,,,,,,Space,keypress(Space),,,,instrumental,,,,-- -- --- ------ ------- --------- ----------- --------<br>--------- -------- --- ------- -- ------- ---- in ------<br>-- --- -------- -------- ---------- ---- ---- ---- ------<br>-- --------- -- ---- -- --- -- --- ------- -- - -----<br>---------- -- -- -- ---- ----- -- ------ -- --- ------<br>-------,166122,166120,165860.92,165860,165890.9,166158.22,,15,in
screen,html.Screen,2_3_1_0_1_16,2021-04-26T15:22:13.440Z,,,,,,,,,,,,,,,,,48,,,,,,,,,,,,,,233.77999999999884,,response,,,,10,C,,,,,,Space,keypress(Space),,,,instrumental,,,,-- -- --- ------ ------- --------- ----------- --------<br>--------- -------- --- ------- -- ------- ---- -- excess<br>-- --- -------- -------- ---------- ---- ---- ---- ------<br>-- --------- -- ---- -- --- -- --- ------- -- - -----<br>---------- -- -- -- ---- ----- -- ------ -- --- ------<br>-------,166396,166392,166123.1,166122,166158.22,166425.72,,16,excess
screen,html.Screen,2_3_1_0_1_17,2021-04-26T15:22:13.726Z,,,,,,,,,,,,,,,,,48,,,,,,,,,,,,,,254.27999999999884,,response,,,,10,C,,,,,,Space,keypress(Space),,,,instrumental,,,,-- -- --- ------ ------- --------- ----------- --------<br>--------- -------- --- ------- -- ------- ---- -- ------<br>of --- -------- -------- ---------- ---- ---- ---- ------<br>-- --------- -- ---- -- --- -- --- ------- -- - -----<br>---------- -- -- -- ---- ----- -- ------ -- --- ------<br>-------,166682,166680,166396.98,166396,166425.72,166710.2,,17,of
screen,html.Screen,2_3_1_0_1_18,2021-04-26T15:22:13.992Z,,,,,,,,,,,,,,,,,48,,,,,,,,,,,,,,233.79999999998836,,response,,,,10,C,,,,,,Space,keypress(Space),,,,instrumental,,,,-- -- --- ------ ------- --------- ----------- --------<br>--------- -------- --- ------- -- ------- ---- -- ------<br>-- ten -------- -------- ---------- ---- ---- ---- ------<br>-- --------- -- ---- -- --- -- --- ------- -- - -----<br>---------- -- -- -- ---- ----- -- ------ -- --- ------<br>-------,166948,166944,166683.08,166683,166710.2,166978.38,,18,ten
screen,html.Screen,2_3_1_0_1_19,2021-04-26T15:22:14.245Z,,,,,,,,,,,,,,,,,48,,,,,,,,,,,,,,221.61999999999534,,response,,,,10,C,,,,,,Space,keypress(Space),,,,instrumental,,,,-- -- --- ------ ------- --------- ----------- --------<br>--------- -------- --- ------- -- ------- ---- -- ------<br>-- --- thousand -------- ---------- ---- ---- ---- ------<br>-- --------- -- ---- -- --- -- --- ------- -- - -----<br>---------- -- -- -- ---- ----- -- ------ -- --- ------<br>-------,167202,167200,166948.84,166948,166978.38,167228.98,,19,thousand
screen,html.Screen,2_3_1_0_1_20,2021-04-26T15:22:14.448Z,,,,,,,,,,,,,,,,,48,,,,,,,,,,,,,,171.01999999998952,,response,,,,10,C,,,,,,Space,keypress(Space),,,,instrumental,,,,-- -- --- ------ ------- --------- ----------- --------<br>--------- -------- --- ------- -- ------- ---- -- ------<br>-- --- -------- dollars. ---------- ---- ---- ---- ------<br>-- --------- -- ---- -- --- -- --- ------- -- - -----<br>---------- -- -- -- ---- ----- -- ------ -- --- ------<br>-------,167405,167400,167202.9,167202,167228.98,167429.24,,20,dollars.
screen,html.Screen,2_3_1_0_1_21,2021-04-26T15:22:14.646Z,,,,,,,,,,,,,,,,,48,,,,,,,,,,,,,,170.7600000000093,,response,,,,10,C,,,,,,Space,keypress(Space),,,,instrumental,,,,-- -- --- ------ ------- --------- ----------- --------<br>--------- -------- --- ------- -- ------- ---- -- ------<br>-- --- -------- -------- Concealing ---- ---- ---- ------<br>-- --------- -- ---- -- --- -- --- ------- -- - -----<br>---------- -- -- -- ---- ----- -- ------ -- --- ------<br>-------,167603,167600,167412.12,167405,167429.24,167629.72,,21,Concealing
screen,html.Screen,2_3_1_0_1_22,2021-04-26T15:22:15.184Z,,,,,,,,,,,,,,,,,48,,,,,,,,,,,,,,506.27999999999884,,response,,,,10,C,,,,,,Space,keypress(Space),,,,instrumental,,,,-- -- --- ------ ------- --------- ----------- --------<br>--------- -------- --- ------- -- ------- ---- -- ------<br>-- --- -------- -------- ---------- more ---- ---- ------<br>-- --------- -- ---- -- --- -- --- ------- -- - -----<br>---------- -- -- -- ---- ----- -- ------ -- --- ------<br>-------,168140,168136,167613.94,167603,167629.72,168182.44,,22,more
screen,html.Screen,2_3_1_0_1_23,2021-04-26T15:22:15.454Z,,,,,,,,,,,,,,,,,48,,,,,,,,,,,,,,225.55999999999767,,response,,,,10,C,,,,,,Space,keypress(Space),,,,instrumental,,,,-- -- --- ------ ------- --------- ----------- --------<br>--------- -------- --- ------- -- ------- ---- -- ------<br>-- --- -------- -------- ---------- ---- than ---- ------<br>-- --------- -- ---- -- --- -- --- ------- -- - -----<br>---------- -- -- -- ---- ----- -- ------ -- --- ------<br>-------,168410,168408,168140.98,168140,168182.44,168449.96,,23,than
screen,html.Screen,2_3_1_0_1_24,2021-04-26T15:22:15.704Z,,,,,,,,,,,,,,,,,48,,,,,,,,,,,,,,206.04000000000815,,response,,,,10,C,,,,,,Space,keypress(Space),,,,instrumental,,,,-- -- --- ------ ------- --------- ----------- --------<br>--------- -------- --- ------- -- ------- ---- -- ------<br>-- --- -------- -------- ---------- ---- ---- that ------<br>-- --------- -- ---- -- --- -- --- ------- -- - -----<br>---------- -- -- -- ---- ----- -- ------ -- --- ------<br>-------,168661,168656,168410.86,168410,168449.96,168700.54,,24,that
screen,html.Screen,2_3_1_0_1_25,2021-04-26T15:22:15.990Z,,,,,,,,,,,,,,,,,48,,,,,,,,,,,,,,243.45999999999185,,response,,,,10,C,,,,,,Space,keypress(Space),,,,instrumental,,,,-- -- --- ------ ------- --------- ----------- --------<br>--------- -------- --- ------- -- ------- ---- -- ------<br>-- --- -------- -------- ---------- ---- ---- ---- amount<br>-- --------- -- ---- -- --- -- --- ------- -- - -----<br>---------- -- -- -- ---- ----- -- ------ -- --- ------<br>-------,168946,168944,168660.98,168661,168700.54,168984.98,,25,amount
screen,html.Screen,2_3_1_0_1_26,2021-04-26T15:22:16.264Z,,,,,,,,,,,,,,,,,48,,,,,,,,,,,,,,231.01999999998952,,response,,,,10,C,,,,,,Space,keypress(Space),,,,instrumental,,,,-- -- --- ------ ------- --------- ----------- --------<br>--------- -------- --- ------- -- ------- ---- -- ------<br>-- --- -------- -------- ---------- ---- ---- ---- ------<br>to --------- -- ---- -- --- -- --- ------- -- - -----<br>---------- -- -- -- ---- ----- -- ------ -- --- ------<br>-------,169220,169216,168946.96,168946,168984.98,169252.02,,26,to
screen,html.Screen,2_3_1_0_1_27,2021-04-26T15:22:16.534Z,,,,,,,,,,,,,,,,,48,,,,,,,,,,,,,,235.98000000001048,,response,,,,10,C,,,,,,Space,keypress(Space),,,,instrumental,,,,-- -- --- ------ ------- --------- ----------- --------<br>--------- -------- --- ------- -- ------- ---- -- ------<br>-- --- -------- -------- ---------- ---- ---- ---- ------<br>-- transport -- ---- -- --- -- --- ------- -- - -----<br>---------- -- -- -- ---- ----- -- ------ -- --- ------<br>-------,169490,169488,169220.86,169220,169252.02,169519.04,,27,transport
screen,html.Screen,2_3_1_0_1_28,2021-04-26T15:22:16.791Z,,,,,,,,,,,,,,,,,48,,,,,,,,,,,,,,224.95999999999185,,response,,,,10,C,,,,,,Space,keypress(Space),,,,instrumental,,,,-- -- --- ------ ------- --------- ----------- --------<br>--------- -------- --- ------- -- ------- ---- -- ------<br>-- --- -------- -------- ---------- ---- ---- ---- ------<br>-- --------- it ---- -- --- -- --- ------- -- - -----<br>---------- -- -- -- ---- ----- -- ------ -- --- ------<br>-------,169749,169744,169490.9,169490,169519.04,169787.56,,28,it
screen,html.Screen,2_3_1_0_1_29,2021-04-26T15:22:17.086Z,,,,,,,,,,,,,,,,,48,,,,,,,,,,,,,,251.44000000000233,,response,,,,10,C,,,,,,Space,keypress(Space),,,,instrumental,,,,-- -- --- ------ ------- --------- ----------- --------<br>--------- -------- --- ------- -- ------- ---- -- ------<br>-- --- -------- -------- ---------- ---- ---- ---- ------<br>-- --------- -- into -- --- -- --- ------- -- - -----<br>---------- -- -- -- ---- ----- -- ------ -- --- ------<br>-------,170043,170039,169748.94,169749,169787.56,170071.06,,29,into
screen,html.Screen,2_3_1_0_1_30,2021-04-26T15:22:17.360Z,,,,,,,,,,,,,,,,,48,,,,,,,,,,,,,,240.94000000000233,,response,,,,10,C,,,,,,Space,keypress(Space),,,,instrumental,,,,-- -- --- ------ ------- --------- ----------- --------<br>--------- -------- --- ------- -- ------- ---- -- ------<br>-- --- -------- -------- ---------- ---- ---- ---- ------<br>-- --------- -- ---- or --- -- --- ------- -- - -----<br>---------- -- -- -- ---- ----- -- ------ -- --- ------<br>-------,170316,170312,170043.04,170043,170071.06,170355.16,,30,or
screen,html.Screen,2_3_1_0_1_31,2021-04-26T15:22:17.606Z,,,,,,,,,,,,,,,,,48,,,,,,,,,,,,,,203.8399999999965,,response,,,,10,C,,,,,,Space,keypress(Space),,,,instrumental,,,,-- -- --- ------ ------- --------- ----------- --------<br>--------- -------- --- ------- -- ------- ---- -- ------<br>-- --- -------- -------- ---------- ---- ---- ---- ------<br>-- --------- -- ---- -- out -- --- ------- -- - -----<br>---------- -- -- -- ---- ----- -- ------ -- --- ------<br>-------,170562,170559,170316.58,170316,170355.16,170590.06,,31,out
screen,html.Screen,2_3_1_0_1_32,2021-04-26T15:22:17.872Z,,,,,,,,,,,,,,,,,48,,,,,,,,,,,,,,233.94000000000233,,response,,,,10,C,,,,,,Space,keypress(Space),,,,instrumental,,,,-- -- --- ------ ------- --------- ----------- --------<br>--------- -------- --- ------- -- ------- ---- -- ------<br>-- --- -------- -------- ---------- ---- ---- ---- ------<br>-- --------- -- ---- -- --- of --- ------- -- - -----<br>---------- -- -- -- ---- ----- -- ------ -- --- ------<br>-------,170829,170824,170563,170563,170590.06,170857.08,,32,of
screen,html.Screen,2_3_1_0_1_33,2021-04-26T15:22:18.109Z,,,,,,,,,,,,,,,,,48,,,,,,,,,,,,,,205.9200000000128,,response,,,,10,C,,,,,,Space,keypress(Space),,,,instrumental,,,,-- -- --- ------ ------- --------- ----------- --------<br>--------- -------- --- ------- -- ------- ---- -- ------<br>-- --- -------- -------- ---------- ---- ---- ---- ------<br>-- --------- -- ---- -- --- -- the ------- -- - -----<br>---------- -- -- -- ---- ----- -- ------ -- --- ------<br>-------,171066,171063,170829.06,170829,170857.08,171107.56,,33,the
screen,html.Screen,2_3_1_0_1_34,2021-04-26T15:22:18.375Z,,,,,,,,,,,,,,,,,48,,,,,,,,,,,,,,220.44000000000233,,response,,,,10,C,,,,,,Space,keypress(Space),,,,instrumental,,,,-- -- --- ------ ------- --------- ----------- --------<br>--------- -------- --- ------- -- ------- ---- -- ------<br>-- --- -------- -------- ---------- ---- ---- ---- ------<br>-- --------- -- ---- -- --- -- --- country -- - -----<br>---------- -- -- -- ---- ----- -- ------ -- --- ------<br>-------,171332,171328,171066.82,171066,171107.56,171359.22,,34,country
screen,html.Screen,2_3_1_0_1_35,2021-04-26T15:22:18.646Z,,,,,,,,,,,,,,,,,48,,,,,,,,,,,,,,240.77999999999884,,response,,,,10,C,,,,,,Space,keypress(Space),,,,instrumental,,,,-- -- --- ------ ------- --------- ----------- --------<br>--------- -------- --- ------- -- ------- ---- -- ------<br>-- --- -------- -------- ---------- ---- ---- ---- ------<br>-- --------- -- ---- -- --- -- --- ------- is - -----<br>---------- -- -- -- ---- ----- -- ------ -- --- ------<br>-------,171602,171600,171332.62,171332,171359.22,171643.24,,35,is
screen,html.Screen,2_3_1_0_1_36,2021-04-26T15:22:18.936Z,,,,,,,,,,,,,,,,,48,,,,,,,,,,,,,,244.7600000000093,,response,,,,10,C,,,,,,Space,keypress(Space),,,,instrumental,,,,-- -- --- ------ ------- --------- ----------- --------<br>--------- -------- --- ------- -- ------- ---- -- ------<br>-- --- -------- -------- ---------- ---- ---- ---- ------<br>-- --------- -- ---- -- --- -- --- ------- -- a -----<br>---------- -- -- -- ---- ----- -- ------ -- --- ------<br>-------,171892,171888,171603.14,171602,171643.24,171927.68,,36,a
screen,html.Screen,2_3_1_0_1_37,2021-04-26T15:22:19.206Z,,,,,,,,,,,,,,,,,48,,,,,,,,,,,,,,231.32000000000698,,response,,,,10,C,,,,,,Space,keypress(Space),,,,instrumental,,,,-- -- --- ------ ------- --------- ----------- --------<br>--------- -------- --- ------- -- ------- ---- -- ------<br>-- --- -------- -------- ---------- ---- ---- ---- ------<br>-- --------- -- ---- -- --- -- --- ------- -- - crime<br>---------- -- -- -- ---- ----- -- ------ -- --- ------<br>-------,172162,172159,171892.58,171892,171927.68,172195.14,,37,crime
screen,html.Screen,2_3_1_0_1_38,2021-04-26T15:22:19.479Z,,,,,,,,,,,,,,,,,48,,,,,,,,,,,,,,236.85999999998603,,response,,,,10,C,,,,,,Space,keypress(Space),,,,instrumental,,,,-- -- --- ------ ------- --------- ----------- --------<br>--------- -------- --- ------- -- ------- ---- -- ------<br>-- --- -------- -------- ---------- ---- ---- ---- ------<br>-- --------- -- ---- -- --- -- --- ------- -- - -----<br>punishable -- -- -- ---- ----- -- ------ -- --- ------<br>-------,172436,172432,172162.96,172162,172195.14,172479.2,,38,punishable
screen,html.Screen,2_3_1_0_1_39,2021-04-26T15:22:19.749Z,,,,,,,,,,,,,,,,,48,,,,,,,,,,,,,,224.79999999998836,,response,,,,10,C,,,,,,Space,keypress(Space),,,,instrumental,,,,-- -- --- ------ ------- --------- ----------- --------<br>--------- -------- --- ------- -- ------- ---- -- ------<br>-- --- -------- -------- ---------- ---- ---- ---- ------<br>-- --------- -- ---- -- --- -- --- ------- -- - -----<br>---------- by -- -- ---- ----- -- ------ -- --- ------<br>-------,172706,172704,172437.06,172436,172479.2,172746.62,,39,by
screen,html.Screen,2_3_1_0_1_40,2021-04-26T15:22:20.015Z,,,,,,,,,,,,,,,,,48,,,,,,,,,,,,,,221.38000000000466,,response,,,,10,C,,,,,,Space,keypress(Space),,,,instrumental,,,,-- -- --- ------ ------- --------- ----------- --------<br>--------- -------- --- ------- -- ------- ---- -- ------<br>-- --- -------- -------- ---------- ---- ---- ---- ------<br>-- --------- -- ---- -- --- -- --- ------- -- - -----<br>---------- -- up -- ---- ----- -- ------ -- --- ------<br>-------,172972,172968,172706.92,172707,172746.62,173013.94,,40,up
screen,html.Screen,2_3_1_0_1_41,2021-04-26T15:22:20.262Z,,,,,,,,,,,,,,,,,48,,,,,,,,,,,,,,202.05999999999767,,response,,,,10,C,,,,,,Space,keypress(Space),,,,instrumental,,,,-- -- --- ------ ------- --------- ----------- --------<br>--------- -------- --- ------- -- ------- ---- -- ------<br>-- --- -------- -------- ---------- ---- ---- ---- ------<br>-- --------- -- ---- -- --- -- --- ------- -- - -----<br>---------- -- -- to ---- ----- -- ------ -- --- ------<br>-------,173218,173216,172972.5,172972,173013.94,173248.74,,41,to
screen,html.Screen,2_3_1_0_1_42,2021-04-26T15:22:20.527Z,,,,,,,,,,,,,,,,,48,,,,,,,,,,,,,,231.2600000000093,,response,,,,10,C,,,,,,Space,keypress(Space),,,,instrumental,,,,-- -- --- ------ ------- --------- ----------- --------<br>--------- -------- --- ------- -- ------- ---- -- ------<br>-- --- -------- -------- ---------- ---- ---- ---- ------<br>-- --------- -- ---- -- --- -- --- ------- -- - -----<br>---------- -- -- -- five ----- -- ------ -- --- ------<br>-------,173484,173480,173219.06,173218,173248.74,173515.78,,42,five
screen,html.Screen,2_3_1_0_1_43,2021-04-26T15:22:20.813Z,,,,,,,,,,,,,,,,,48,,,,,,,,,,,,,,252.22000000000116,,response,,,,10,C,,,,,,Space,keypress(Space),,,,instrumental,,,,-- -- --- ------ ------- --------- ----------- --------<br>--------- -------- --- ------- -- ------- ---- -- ------<br>-- --- -------- -------- ---------- ---- ---- ---- ------<br>-- --------- -- ---- -- --- -- --- ------- -- - -----<br>---------- -- -- -- ---- years -- ------ -- --- ------<br>-------,173770,173768,173484.86,173484,173515.78,173800.22,,43,years
screen,html.Screen,2_3_1_0_1_44,2021-04-26T15:22:21.080Z,,,,,,,,,,,,,,,,,48,,,,,,,,,,,,,,231.77999999999884,,response,,,,10,C,,,,,,Space,keypress(Space),,,,instrumental,,,,-- -- --- ------ ------- --------- ----------- --------<br>--------- -------- --- ------- -- ------- ---- -- ------<br>-- --- -------- -------- ---------- ---- ---- ---- ------<br>-- --------- -- ---- -- --- -- --- ------- -- - -----<br>---------- -- -- -- ---- ----- in ------ -- --- ------<br>-------,174036,174032,173771.12,173770,173800.22,174067.24,,44,in
screen,html.Screen,2_3_1_0_1_45,2021-04-26T15:22:21.333Z,,,,,,,,,,,,,,,,,48,,,,,,,,,,,,,,220.7600000000093,,response,,,,10,C,,,,,,Space,keypress(Space),,,,instrumental,,,,-- -- --- ------ ------- --------- ----------- --------<br>--------- -------- --- ------- -- ------- ---- -- ------<br>-- --- -------- -------- ---------- ---- ---- ---- ------<br>-- --------- -- ---- -- --- -- --- ------- -- - -----<br>---------- -- -- -- ---- ----- -- prison -- --- ------<br>-------,174290,174288,174036.78,174036,174067.24,174319.02,,45,prison
screen,html.Screen,2_3_1_0_1_46,2021-04-26T15:22:21.583Z,,,,,,,,,,,,,,,,,48,,,,,,,,,,,,,,216.98000000001048,,response,,,,10,C,,,,,,Space,keypress(Space),,,,instrumental,,,,-- -- --- ------ ------- --------- ----------- --------<br>--------- -------- --- ------- -- ------- ---- -- ------<br>-- --- -------- -------- ---------- ---- ---- ---- ------<br>-- --------- -- ---- -- --- -- --- ------- -- - -----<br>---------- -- -- -- ---- ----- -- ------ in --- ------<br>-------,174540,174536,174290.82,174290,174319.02,174569.4,,46,in
screen,html.Screen,2_3_1_0_1_47,2021-04-26T15:22:21.853Z,,,,,,,,,,,,,,,,,48,,,,,,,,,,,,,,238.60000000000582,,response,,,,10,C,,,,,,Space,keypress(Space),,,,instrumental,,,,-- -- --- ------ ------- --------- ----------- --------<br>--------- -------- --- ------- -- ------- ---- -- ------<br>-- --- -------- -------- ---------- ---- ---- ---- ------<br>-- --------- -- ---- -- --- -- --- ------- -- - -----<br>---------- -- -- -- ---- ----- -- ------ -- the ------<br>-------,174810,174808,174540.96,174540,174569.4,174836.42,,47,the
screen,html.Screen,2_3_1_0_1_48,2021-04-26T15:22:22.111Z,,,,,,,,,,,,,,,,,48,,,,,,,,,,,,,,227.5799999999872,,response,,,,10,C,,,,,,Space,keypress(Space),,,,instrumental,,,,-- -- --- ------ ------- --------- ----------- --------<br>--------- -------- --- ------- -- ------- ---- -- ------<br>-- --- -------- -------- ---------- ---- ---- ---- ------<br>-- --------- -- ---- -- --- -- --- ------- -- - -----<br>---------- -- -- -- ---- ----- -- ------ -- --- United<br>-------,175068,175064,174810.8,174810,174836.42,175104.22,,48,United
screen,html.Screen,2_3_1_0_1_49,2021-04-26T15:22:22.725Z,,,,,,,,,,,,,,,,,48,,,,,,,,,,,,,,574.7799999999988,,response,,,,10,C,,,,,,Space,keypress(Space),,,,instrumental,,,,-- -- --- ------ ------- --------- ----------- --------<br>--------- -------- --- ------- -- ------- ---- -- ------<br>-- --- -------- -------- ---------- ---- ---- ---- ------<br>-- --------- -- ---- -- --- -- --- ------- -- - -----<br>---------- -- -- -- ---- ----- -- ------ -- --- ------<br>States.,175682,175679,175068.98,175068,175104.22,175723.52,,49,States.
Item 10,flow.Loop,2_3_1_0_1,2021-04-26T15:22:22.726Z,,,,,,,,,,,,,,,,,,,,,,,,,,,,,,,15221.98000000001,,completion,,,,,,,,,,,,,,,,,,,,,175683,175679,160440.04,160441,160457.02,175723.52,,,
Question 1,html.Screen,2_3_1_0_2,2021-04-26T15:22:25.855Z,,,,,,,,,,,,,,,,,,,,,,,,,,,,true,TRUE,,3086.4800000000105,,response,,,,10,C,,,,,,TRUE,click #choice-1,,,,instrumental,,,,,178812,178810,175683.16,175683,175723.52,178833.16,,,
Question 2,html.Screen,2_3_1_0_3,2021-04-26T15:22:27.763Z,,,,,,,,,,,,,,,,,,,,,,,,,,,,true,TRUE,,1883.8399999999965,,response,,,,10,C,,,,,,TRUE,click #choice-1,,,,instrumental,,,,,180719,180717,178815.94,178812,178833.16,180739.66,,,
Item 10,flow.Sequence,2_3_1_0,2021-04-26T15:22:27.763Z,,,,,,,,,,,,,,,,,,,,,,,,,,,,,,,27266.179999999993,,completion,,,,,,,,,,,,,,,,,,,,,180719,180717,153434.02,153435,153450.82,180739.66,,,
Holding screen,html.Screen,2_3_1_1_0,2021-04-26T15:22:34.772Z,,,,,,,,,,,,,,,,,,,,,,,,,,,,,,,7006.260000000009,,timeout,,,,,,,,,,,,,,,,,,,,,187730,187728.86,180712.76,180719,180739.66,187745.92,,,
screen,html.Screen,2_3_1_1_1_0,2021-04-26T15:22:35.728Z,,,,,,,,,,,,,,,,,15,,,,,,,,,,,,,,934.0799999999872,,response,,,,7,C,,,,,,Space,keypress(Space),,,,instrumental,,,,Greg --------- ---------- - --- ------- -- --- ------------<br>----- -- -------- ------- ---- ------ - -------- ---- -----<br>--- ------- ---- -- --- -------- --- - ----- ------ ---- --<br>-------- --- -------- -------- --- -------- ---- -- ----- -<br>-------- ---- --- ---------- --------- -- ------- ------ -<br>--------- ----- -----,188685,188680,187728.86,187730,187745.92,188715.66,,0,Greg
screen,html.Screen,2_3_1_1_1_1,2021-04-26T15:22:35.909Z,,,,,,,,,,,,,,,,,15,,,,,,,,,,,,,,148.3399999999965,,response,,,,7,C,,,,,,Space,keypress(Space),,,,instrumental,,,,"---- Anderson, ---------- - --- ------- -- --- ------------<br>----- -- -------- ------- ---- ------ - -------- ---- -----<br>--- ------- ---- -- --- -------- --- - ----- ------ ---- --<br>-------- --- -------- -------- --- -------- ---- -- ----- -<br>-------- ---- --- ---------- --------- -- ------- ------ -<br>--------- ----- -----",188867,188864,188685.5,188685,188715.66,188899,,1,"Anderson,"
screen,html.Screen,2_3_1_1_1_2,2021-04-26T15:22:36.071Z,,,,,,,,,,,,,,,,,15,,,,,,,,,,,,,,125,,response,,,,7,C,,,,,,Space,keypress(Space),,,,instrumental,,,,---- --------- considered - --- ------- -- --- ------------<br>----- -- -------- ------- ---- ------ - -------- ---- -----<br>--- ------- ---- -- --- -------- --- - ----- ------ ---- --<br>-------- --- -------- -------- --- -------- ---- -- ----- -<br>-------- ---- --- ---------- --------- -- ------- ------ -<br>--------- ----- -----,189027,189024,188881.82,188867,188899,189049.92,,2,considered
screen,html.Screen,2_3_1_1_1_3,2021-04-26T15:22:36.533Z,,,,,,,,,,,,,,,,,15,,,,,,,,,,,,,,438.0799999999872,,response,,,,7,C,,,,,,Space,keypress(Space),,,,instrumental,,,,---- --------- ---------- a --- ------- -- --- ------------<br>----- -- -------- ------- ---- ------ - -------- ---- -----<br>--- ------- ---- -- --- -------- --- - ----- ------ ---- --<br>-------- --- -------- -------- --- -------- ---- -- ----- -<br>-------- ---- --- ---------- --------- -- ------- ------ -<br>--------- ----- -----,189490,189488,189032.52,189027,189049.92,189517.24,,3,a
