sender,sender_type,sender_id,timestamp,meta,,Blues,Classical,Country,Dance,Electronic,Folk,Gospel,Hip-Hop,Jazz,Latin,Musical/Film,New-age,Pop,Prolific_id,Provo_ID,R&B,Rap,Reggae,Religious,Rock,Soul,Swing,Traditional,age,artist_name,correct,correctResponse,distraction,duration,education,ended_on,familiarity,gender,headphone_check_performance,item,list,music_frequency,offensiveness,pleasantness,position_correct,preference,response,response_action,snippet_file,song_name,song_rating,sound,stimulus_1,stimulus_2,stimulus_3,text,time_commit,time_end,time_render,time_run,time_show,time_switch,url,word,word_ID
Prolific ID,html.Form,0,2021-04-26T14:26:26.979Z,"{""labjs_version"":""20.2.2"",""labjs_build"":{""flavor"":""production"",""commit"":""a25486e0c714a0ae2ce03ff94b7bb6896854dcfa""},""location"":""https://run.pavlovia.org/mvasilev/prolific_music_c/"",""userAgent"":""Mozilla/5.0 (Macintosh; Intel Mac OS X 10_11_6) AppleWebKit/537.36 (KHTML, like Gecko) Chrome/90.0.4430.85 Safari/537.36"",""platform"":""MacIntel"",""language"":""en-US"",""locale"":""en-US"",""timeZone"":""Europe/London"",""timezoneOffset"":-60,""screen_width"":1280,""screen_height"":800,""scroll_width"":1280,""scroll_height"":588,""window_innerWidth"":1280,""window_innerHeight"":588,""devicePixelRatio"":1}",,,,,,,,,,,,,,,601c277aabe00c6bc759bf69,,,,,,,,,,,,,,,2997.4610000014536,,form submission,,,,,,,,,,,,,,,,,,,,,8821.655000003375,8821.155000001454,5790.442,5803.12000000049,5823.694,8833.829,{},,
Introduction,html.Screen,1_0,2021-04-26T14:26:30.636Z,,,,,,,,,,,,,,,,,,,,,,,,,,,,,,,3642.5760000012506,,response,,,,,,,,,,,continue,click button,,,,,,,,,12478.320000001986,12476.40500000125,8817.203,8822.355000000243,8833.829,12491.549,,,
Volume calibration,html.Screen,1_1,2021-04-26T14:27:28.397Z,,,,,,,,,,,,,,,,,,,,,,,,,,,,,,,57743.80600000071,,response,,,,,,,,,,,continue,click button,,,,,,,,,70241.40500000067,70235.35500000071,12474.923,12478.5600000032,12491.549,70255.016,,,
Task instructions,html.Screen,1_2,2021-04-26T14:28:10.610Z,,,,,,,,,,,,,,,,,,,,,,,,,,,,,,,42198.674000002095,,response,,,,,,,,,,,continue,click button,,,,,,,,,112455.48500000223,112453.6900000021,70238.39,70241.64000000019,70255.016,112469.301,,,
Sounds,html.Screen,1_3_0_0,2021-04-26T14:28:14.898Z,,,,,,,,,,,,,,,,,,,,,,,,,,,,,,,4276.742999999988,,timeout,,,,,,,,,3,,,,,,,,O,I,S,,116743.6400000006,116696.166,112452.675,112455.85500000016,112469.301,116746.044,,,
Judgement,html.Screen,1_3_0_1,2021-04-26T14:28:16.025Z,,,,,,,,,,,,,,,,,,,,,,,,,,,,true,3,,1122.6010000022943,,response,,,,,,,,,3,,3,click #choice-3,,,,,O,I,S,,117870.61499999982,117868.64500000229,116696.166,116743.88499999986,116746.044,117893.238,,,
Trial,flow.Sequence,1_3_0,2021-04-26T14:28:16.026Z,,,,,,,,,,,,,,,,,,,,,,,,,,,,,,,5399.344000002282,,completion,,,,,,,,,3,,,,,,,,O,I,S,,117871.11999999979,117868.64500000229,112452.675,112455.76500000243,112469.301,117893.238,,,
Sounds,html.Screen,1_3_1_0,2021-04-26T14:28:20.289Z,,,,,,,,,,,,,,,,,,,,,,,,,,,,,,,4256.2560000000085,,timeout,,,,,,,,,1,,,,,,,,S,I,O,,122134.66000000335,122132.868,117876.612,117871.37000000075,117893.238,122149.494,,,
Judgement,html.Screen,1_3_1_1,2021-04-26T14:28:25.037Z,,,,,,,,,,,,,,,,,,,,,,,,,,,,true,1,,4731.04100000023,,response,,,,,,,,,1,,1,click #choice-1,,,,,S,I,O,,126882.39000000249,126880.53500000024,122132.868,122134.86499999999,122149.494,126905.432,,,
Trial,flow.Sequence,1_3_1,2021-04-26T14:28:25.037Z,,,,,,,,,,,,,,,,,,,,,,,,,,,,,,,8987.297000000239,,completion,,,,,,,,,1,,,,,,,,S,I,O,,126882.69000000219,126880.53500000024,117876.612,117871.28500000108,117893.238,126905.432,,,
Sounds,html.Screen,1_3_2_0,2021-04-26T14:28:29.301Z,,,,,,,,,,,,,,,,,,,,,,,,,,,,,,,4256.255999999994,,timeout,,,,,,,,,2,,,,,,,,I,S,O,,131147.01500000228,131145.062,126888.806,126882.90500000221,126905.432,131161.688,,,
Judgement,html.Screen,1_3_2_1,2021-04-26T14:28:29.887Z,,,,,,,,,,,,,,,,,,,,,,,,,,,,true,2,,569.5220000017434,,response,,,,,,,,,2,,2,click #choice-2,,,,,I,S,O,,131733.02500000136,131731.21000000174,131145.062,131147.19000000332,131161.688,131760.224,,,
Trial,flow.Sequence,1_3_2,2021-04-26T14:28:29.888Z,,,,,,,,,,,,,,,,,,,,,,,,,,,,,,,4825.778000001737,,completion,,,,,,,,,2,,,,,,,,I,S,O,,131733.29000000012,131731.21000000174,126888.806,126882.83000000229,126905.432,131760.224,,,
Sounds,html.Screen,1_3_3_0,2021-04-26T14:28:34.157Z,,,,,,,,,,,,,,,,,,,,,,,,,,,,,,,4256.256000000023,,timeout,,,,,,,,,1,,,,,,,,S,O,I,,136002.3250000013,135999.854,131743.598,131733.4950000004,131760.224,136016.48,,,
Judgement,html.Screen,1_3_3_1,2021-04-26T14:28:35.465Z,,,,,,,,,,,,,,,,,,,,,,,,,,,,false,1,,1292.6300000019546,,response,,,,,,,,,1,,3,click #choice-3,,,,,S,O,I,,137310.59500000265,137309.11000000197,135999.854,136002.52000000182,136016.48,137331.127,,,
Trial,flow.Sequence,1_3_3,2021-04-26T14:28:35.465Z,,,,,,,,,,,,,,,,,,,,,,,,,,,,,,,5548.886000001978,,completion,,,,,,,,,1,,,,,,,,S,O,I,,137310.8600000014,137309.11000000197,131743.598,131733.41500000242,131760.224,137331.127,,,
Sounds,html.Screen,1_3_4_0,2021-04-26T14:28:39.726Z,,,,,,,,,,,,,,,,,,,,,,,,,,,,,,,4256.255999999994,,timeout,,,,,,,,,2,,,,,,,,O,S,I,,141572.325000001,141570.757,137314.501,137311.05000000025,137331.127,141587.383,,,
Judgement,html.Screen,1_3_4_1,2021-04-26T14:28:40.365Z,,,,,,,,,,,,,,,,,,,,,,,,,,,,true,2,,621.8420000023325,,response,,,,,,,,,2,,2,click #choice-2,,,,,O,S,I,,142211.13500000138,142209.22500000233,141570.757,141572.50000000204,141587.383,142235.797,,,
Trial,flow.Sequence,1_3_4,2021-04-26T14:28:40.366Z,,,,,,,,,,,,,,,,,,,,,,,,,,,,,,,4878.098000002326,,completion,,,,,,,,,2,,,,,,,,O,S,I,,142211.470000002,142209.22500000233,137314.501,137310.99000000177,137331.127,142235.797,,,
Sounds,html.Screen,1_3_5_0,2021-04-26T14:28:44.632Z,,,,,,,,,,,,,,,,,,,,,,,,,,,,,,,4256.256000000023,,timeout,,,,,,,,,3,,,,,,,,I,O,S,,146477.93000000092,146475.427,142219.171,142211.66000000085,142235.797,146492.053,,,
Judgement,html.Screen,1_3_5_1,2021-04-26T14:28:45.392Z,,,,,,,,,,,,,,,,,,,,,,,,,,,,true,3,,744.4570000024396,,response,,,,,,,,,3,,3,click #choice-3,,,,,I,O,S,,147238.400000002,147236.51000000245,146475.427,146478.1150000017,146492.053,147256.849,,,
Trial,flow.Sequence,1_3_5,2021-04-26T14:28:45.393Z,,,,,,,,,,,,,,,,,,,,,,,,,,,,,,,5000.713000002463,,completion,,,,,,,,,3,,,,,,,,I,O,S,,147238.6750000005,147236.51000000245,142219.171,142211.60000000236,142235.797,147256.849,,,
Task,flow.Loop,1_3,2021-04-26T14:28:45.399Z,,,,,,,,,,,,,,,,,,,,,,,,,,,,,,,34767.20900000245,,completion,,,0.8333333333333334,,,,,,,,,,,,,,,,,,147244.9000000015,147236.51000000245,112452.675,112455.67000000301,112469.301,147256.849,,,
Trap,html.Screen,1_4,2021-04-26T14:28:45.401Z,,,,,,,,,,,,,,,,,,,,,,,,,,,,,,,NaN,,skipped,,,,,,,,,,,,,,,,,,,,,147246.5400000001,147236.51000000245,,147246.37500000244,,147256.849,,,
Thanks,html.Screen,1_5,2021-04-26T14:28:48.507Z,,,,,,,,,,,,,,,,,,,,,,,,,,,,,,,3094.456000000151,,response,,,,,,,,,,,continue,click button,,,,,,,,,150352.76500000327,150351.30500000014,147240.223,147246.68999999994,147256.849,159943.371,,,
Headphone screening,flow.Sequence,1,2021-04-26T14:28:48.507Z,,,,,,,,,,,,,,,,,,,,,,,,,,,,,,,141517.47600000014,,completion,,,,,,,,,,,,,,,,,,,,,150353.01000000254,150351.30500000014,8817.203,8822.190000002593,8833.829,159943.371,,,
Instructions,html.Page,2_0,2021-04-26T14:29:12.623Z,,,,,,,,,,,,,,,,,,,,,,,,,,,,,,,14525.914000002842,,form submission,,,,,,,,,,,,,,,,,,,,,174469.70500000316,174469.28500000286,159743.859,159947.3500000022,159943.371,174492.217,,,
Holding screen,html.Screen,2_1_0_0,2021-04-26T14:29:22.626Z,,,,,,,,,,,,,,,,,,,,,,,,,,,,,,,9994.329999999987,,timeout,,,,,,,,,,,,,,,,,,,,,184472.56500000003,184469.921,174475.591,174470.02000000066,174492.217,184486.547,,,
screen,html.Screen,2_1_0_1_0,2021-04-26T14:29:24.554Z,,,,,,,,,,,,,,,,,53,,,,,,,,,,,,,,1909.6630000026198,,response,,,,99,,,,,,,Space,keypress(Space),,,,,,,,When -- ----- -- ------ - ------- --- ----------<br>------------- ------ ------ ---- ---- ------- ----- -- ----<br>-------- ------- -- ---------- --- - --- ----- ----- ----<br>---- --- --- ----- --- ---- ---- ------- ----- ---- -------<br>--- --- -- ----- -- --- ---- -- --- ---- -- ------ ------<br>--- ----- -- ----,186400.97000000242,186396.2100000026,184469.921,184472.84500000023,184486.547,186398.537,,0,When
screen,html.Screen,2_1_0_1_1,2021-04-26T14:29:25.855Z,,,,,,,,,,,,,,,,,53,,,,,,,,,,,,,,1301.6080000025104,,response,,,,99,,,,,,,Space,keypress(Space),,,,,,,,---- it ----- -- ------ - ------- --- ----------<br>------------- ------ ------ ---- ---- ------- ----- -- ----<br>-------- ------- -- ---------- --- - --- ----- ----- ----<br>---- --- --- ----- --- ---- ---- ------- ----- ---- -------<br>--- --- -- ----- -- --- ---- -- --- ---- -- ------ ------<br>--- ----- -- ----,187702.06000000326,187700.14500000252,186381.911,186401.16000000125,186398.537,187711.991,,1,it
screen,html.Screen,2_1_0_1_2,2021-04-26T14:29:26.767Z,,,,,,,,,,,,,,,,,53,,,,,,,,,,,,,,900.2240000010061,,response,,,,99,,,,,,,Space,keypress(Space),,,,,,,,---- -- comes -- ------ - ------- --- ----------<br>------------- ------ ------ ---- ---- ------- ----- -- ----<br>-------- ------- -- ---------- --- - --- ----- ----- ----<br>---- --- --- ----- --- ---- ---- ------- ----- ---- -------<br>--- --- -- ----- -- --- ---- -- --- ---- -- ------ ------<br>--- ----- -- ----,188614.25000000236,188612.21500000102,187695.365,187702.2450000004,187711.991,188626.421,,2,comes
screen,html.Screen,2_1_0_1_3,2021-04-26T14:29:27.391Z,,,,,,,,,,,,,,,,,53,,,,,,,,,,,,,,609.8590000009863,,response,,,,99,,,,,,,Space,keypress(Space),,,,,,,,---- -- ----- to ------ - ------- --- ----------<br>------------- ------ ------ ---- ---- ------- ----- -- ----<br>-------- ------- -- ---------- --- - --- ----- ----- ----<br>---- --- --- ----- --- ---- ---- ------- ----- ---- -------<br>--- --- -- ----- -- --- ---- -- --- ---- -- ------ ------<br>--- ----- -- ----,189238.10500000036,189236.280000001,188609.795,188614.4400000012,188626.421,189241.583,,3,to
screen,html.Screen,2_1_0_1_4,2021-04-26T14:29:27.999Z,,,,,,,,,,,,,,,,,53,,,,,,,,,,,,,,602.6220000012254,,response,,,,99,,,,,,,Space,keypress(Space),,,,,,,,---- -- ----- -- having - ------- --- ----------<br>------------- ------ ------ ---- ---- ------- ----- -- ----<br>-------- ------- -- ---------- --- - --- ----- ----- ----<br>---- --- --- ----- --- ---- ---- ------- ----- ---- -------<br>--- --- -- ----- -- --- ---- -- --- ---- -- ------ ------<br>--- ----- -- ----,189846.2350000009,189844.20500000124,189224.957,189238.2850000031,189241.583,189856.745,,4,having
screen,html.Screen,2_1_0_1_5,2021-04-26T14:29:28.591Z,,,,,,,,,,,,,,,,,53,,,,,,,,,,,,,,579.3550000026298,,response,,,,99,,,,,,,Space,keypress(Space),,,,,,,,---- -- ----- -- ------ a ------- --- ----------<br>------------- ------ ------ ---- ---- ------- ----- -- ----<br>-------- ------- -- ---------- --- - --- ----- ----- ----<br>---- --- --- ----- --- ---- ---- ------- ----- ---- -------<br>--- --- -- ----- -- --- ---- -- --- ---- -- ------ ------<br>--- ----- -- ----,190437.80000000334,190436.10000000263,189840.119,189846.43000000142,189856.745,190438.655,,5,a
screen,html.Screen,2_1_0_1_6,2021-04-26T14:29:29.567Z,,,,,,,,,,,,,,,,,53,,,,,,,,,,,,,,973.5500000005413,,response,,,,99,,,,,,,Space,keypress(Space),,,,,,,,---- -- ----- -- ------ - lasting --- ----------<br>------------- ------ ------ ---- ---- ------- ----- -- ----<br>-------- ------- -- ---------- --- - --- ----- ----- ----<br>---- --- --- ----- --- ---- ---- ------- ----- ---- -------<br>--- --- -- ----- -- --- ---- -- --- ---- -- ------ ------<br>--- ----- -- ----,191414.0550000011,191412.20500000054,190422.029,190437.99000000217,190438.655,191419.589,,6,lasting
screen,html.Screen,2_1_0_1_7,2021-04-26T14:29:30.230Z,,,,,,,,,,,,,,,,,53,,,,,,,,,,,,,,656.4509999999136,,response,,,,99,,,,,,,Space,keypress(Space),,,,,,,,---- -- ----- -- ------ - ------- and ----------<br>------------- ------ ------ ---- ---- ------- ----- -- ----<br>-------- ------- -- ---------- --- - --- ----- ----- ----<br>---- --- --- ----- --- ---- ---- ------- ----- ---- -------<br>--- --- -- ----- -- --- ---- -- --- ---- -- ------ ------<br>--- ----- -- ----,192077.65500000096,192076.03999999992,191402.963,191414.25500000332,191419.589,192084.629,,7,and
screen,html.Screen,2_1_0_1_8,2021-04-26T14:29:30.751Z,,,,,,,,,,,,,,,,,53,,,,,,,,,,,,,,511.4710000024934,,response,,,,99,,,,,,,Space,keypress(Space),,,,,,,,---- -- ----- -- ------ - ------- --- fulfilling<br>------------- ------ ------ ---- ---- ------- ----- -- ----<br>-------- ------- -- ---------- --- - --- ----- ----- ----<br>---- --- --- ----- --- ---- ---- ------- ----- ---- -------<br>--- --- -- ----- -- --- ---- -- --- ---- -- ------ ------<br>--- ----- -- ----,192597.84500000023,192596.10000000248,192068.003,192077.88000000073,192084.629,192600.035,,8,fulfilling
screen,html.Screen,2_1_0_1_9,2021-04-26T14:29:31.439Z,,,,,,,,,,,,,,,,,53,,,,,,,,,,,,,,684.1250000028813,,response,,,,99,,,,,,,Space,keypress(Space),,,,,,,,"---- -- ----- -- ------ - ------- --- ----------<br>relationship, ------ ------ ---- ---- ------- ----- -- ----<br>-------- ------- -- ---------- --- - --- ----- ----- ----<br>---- --- --- ----- --- ---- ---- ------- ----- ---- -------<br>--- --- -- ----- -- --- ---- -- --- ---- -- ------ ------<br>--- ----- -- ----",193286.0150000015,193284.16000000288,192583.409,192598.02500000296,192600.035,193299.255,,9,"relationship,"
screen,html.Screen,2_1_0_1_10,2021-04-26T14:29:32.262Z,,,,,,,,,,,,,,,,,53,,,,,,,,,,,,,,808.8450000012817,,response,,,,99,,,,,,,Space,keypress(Space),,,,,,,,---- -- ----- -- ------ - ------- --- ----------<br>------------- common ------ ---- ---- ------- ----- -- ----<br>-------- ------- -- ---------- --- - --- ----- ----- ----<br>---- --- --- ----- --- ---- ---- ------- ----- ---- -------<br>--- --- -- ----- -- --- ---- -- --- ---- -- ------ ------<br>--- ----- -- ----,194109.74500000157,194108.1000000013,193282.629,193286.1950000006,193299.255,194113.929,,10,common
screen,html.Screen,2_1_0_1_11,2021-04-26T14:29:32.879Z,,,,,,,,,,,,,,,,,53,,,,,,,,,,,,,,610.1960000006366,,response,,,,99,,,,,,,Space,keypress(Space),,,,,,,,---- -- ----- -- ------ - ------- --- ----------<br>------------- ------ wisdom ---- ---- ------- ----- -- ----<br>-------- ------- -- ---------- --- - --- ----- ----- ----<br>---- --- --- ----- --- ---- ---- ------- ----- ---- -------<br>--- --- -- ----- -- --- ---- -- --- ---- -- ------ ------<br>--- ----- -- ----,194725.8099999999,194724.12500000064,194097.303,194109.9350000004,194113.929,194729.091,,11,wisdom
screen,html.Screen,2_1_0_1_12,2021-04-26T14:29:33.239Z,,,,,,,,,,,,,,,,,53,,,,,,,,,,,,,,355.0740000002261,,response,,,,99,,,,,,,Space,keypress(Space),,,,,,,,---- -- ----- -- ------ - ------- --- ----------<br>------------- ------ ------ says ---- ------- ----- -- ----<br>-------- ------- -- ---------- --- - --- ----- ----- ----<br>---- --- --- ----- --- ---- ---- ------- ----- ---- -------<br>--- --- -- ----- -- --- ---- -- --- ---- -- ------ ------<br>--- ----- -- ----,195086.0700000012,195084.1650000002,194712.465,194726.0000000024,194729.091,195094.863,,12,says
screen,html.Screen,2_1_0_1_13,2021-04-26T14:29:33.647Z,,,,,,,,,,,,,,,,,53,,,,,,,,,,,,,,397.2420000011625,,response,,,,99,,,,,,,Space,keypress(Space),,,,,,,,---- -- ----- -- ------ - ------- --- ----------<br>------------- ------ ------ ---- that ------- ----- -- ----<br>-------- ------- -- ---------- --- - --- ----- ----- ----<br>---- --- --- ----- --- ---- ---- ------- ----- ---- -------<br>--- --- -- ----- -- --- ---- -- --- ---- -- ------ ------<br>--- ----- -- ----,195493.8600000023,195492.10500000117,195078.237,195086.25500000198,195094.863,195510.513,,13,that
screen,html.Screen,2_1_0_1_14,2021-04-26T14:29:34.063Z,,,,,,,,,,,,,,,,,53,,,,,,,,,,,,,,397.6420000009821,,response,,,,99,,,,,,,Space,keypress(Space),,,,,,,,---- -- ----- -- ------ - ------- --- ----------<br>------------- ------ ------ ---- ---- feeling ----- -- ----<br>-------- ------- -- ---------- --- - --- ----- ----- ----<br>---- --- --- ----- --- ---- ---- ------- ----- ---- -------<br>--- --- -- ----- -- --- ---- -- --- ---- -- ------ ------<br>--- ----- -- ----,195910.07000000172,195908.155000001,195493.887,195494.0400000014,195510.513,195926.163,,14,feeling
screen,html.Screen,2_1_0_1_15,2021-04-26T14:29:34.430Z,,,,,,,,,,,,,,,,,53,,,,,,,,,,,,,,349.88700000039535,,response,,,,99,,,,,,,Space,keypress(Space),,,,,,,,---- -- ----- -- ------ - ------- --- ----------<br>------------- ------ ------ ---- ---- ------- close -- ----<br>-------- ------- -- ---------- --- - --- ----- ----- ----<br>---- --- --- ----- --- ---- ---- ------- ----- ---- -------<br>--- --- -- ----- -- --- ---- -- --- ---- -- ------ ------<br>--- ----- -- ----,196277.76000000085,196276.0500000004,195909.537,195910.2550000025,195926.163,196291.935,,15,close
screen,html.Screen,2_1_0_1_16,2021-04-26T14:29:34.903Z,,,,,,,,,,,,,,,,,53,,,,,,,,,,,,,,456.11000000027707,,response,,,,99,,,,,,,Space,keypress(Space),,,,,,,,---- -- ----- -- ------ - ------- --- ----------<br>------------- ------ ------ ---- ---- ------- ----- to ----<br>-------- ------- -- ---------- --- - --- ----- ----- ----<br>---- --- --- ----- --- ---- ---- ------- ----- ---- -------<br>--- --- -- ----- -- --- ---- -- --- ---- -- ------ ------<br>--- ----- -- ----,196750.20500000028,196748.04500000027,196275.309,196277.95000000333,196291.935,196757.463,,16,to
screen,html.Screen,2_1_0_1_17,2021-04-26T14:29:35.239Z,,,,,,,,,,,,,,,,,53,,,,,,,,,,,,,,326.7570000006526,,response,,,,99,,,,,,,Space,keypress(Space),,,,,,,,---- -- ----- -- ------ - ------- --- ----------<br>------------- ------ ------ ---- ---- ------- ----- -- your<br>-------- ------- -- ---------- --- - --- ----- ----- ----<br>---- --- --- ----- --- ---- ---- ------- ----- ---- -------<br>--- --- -- ----- -- --- ---- -- --- ---- -- ------ ------<br>--- ----- -- ----,197085.92000000135,197084.22000000064,196740.837,196750.465000001,196757.463,197089.983,,17,your
screen,html.Screen,2_1_0_1_18,2021-04-26T14:29:35.791Z,,,,,,,,,,,,,,,,,53,,,,,,,,,,,,,,546.2920000007434,,response,,,,99,,,,,,,Space,keypress(Space),,,,,,,,---- -- ----- -- ------ - ------- --- ----------<br>------------- ------ ------ ---- ---- ------- ----- -- ----<br>romantic ------- -- ---------- --- - --- ----- ----- ----<br>---- --- --- ----- --- ---- ---- ------- ----- ---- -------<br>--- --- -- ----- -- --- ---- -- --- ---- -- ------ ------<br>--- ----- -- ----,197638.00000000265,197636.27500000075,197073.357,197086.11500000188,197089.983,197638.641,,18,romantic
screen,html.Screen,2_1_0_1_19,2021-04-26T14:29:36.207Z,,,,,,,,,,,,,,,,,53,,,,,,,,,,,,,,413.529000002658,,response,,,,99,,,,,,,Space,keypress(Space),,,,,,,,---- -- ----- -- ------ - ------- --- ----------<br>------------- ------ ------ ---- ---- ------- ----- -- ----<br>-------- partner -- ---------- --- - --- ----- ----- ----<br>---- --- --- ----- --- ---- ---- ------- ----- ---- -------<br>--- --- -- ----- -- --- ---- -- --- ---- -- ------ ------<br>--- ----- -- ----,198054.09000000145,198052.17000000266,197622.015,197638.1849999998,197638.641,198070.917,,19,partner
screen,html.Screen,2_1_0_1_20,2021-04-26T14:29:36.622Z,,,,,,,,,,,,,,,,,53,,,,,,,,,,,,,,397.18799999993644,,response,,,,99,,,,,,,Space,keypress(Space),,,,,,,,---- -- ----- -- ------ - ------- --- ----------<br>------------- ------ ------ ---- ---- ------- ----- -- ----<br>-------- ------- is ---------- --- - --- ----- ----- ----<br>---- --- --- ----- --- ---- ---- ------- ----- ---- -------<br>--- --- -- ----- -- --- ---- -- --- ---- -- ------ ------<br>--- ----- -- ----,198469.82000000207,198468.10499999992,198054.291,198054.27500000224,198070.917,198486.567,,20,is
screen,html.Screen,2_1_0_1_21,2021-04-26T14:29:37.118Z,,,,,,,,,,,,,,,,,53,,,,,,,,,,,,,,477.5480000024836,,response,,,,99,,,,,,,Space,keypress(Space),,,,,,,,---- -- ----- -- ------ - ------- --- ----------<br>------------- ------ ------ ---- ---- ------- ----- -- ----<br>-------- ------- -- paramount. --- - --- ----- ----- ----<br>---- --- --- ----- --- ---- ---- ------- ----- ---- -------<br>--- --- -- ----- -- --- ---- -- --- ---- -- ------ ------<br>--- ----- -- ----,198965.87,198964.1150000025,198469.941,198470.0100000009,198486.567,198968.721,,21,paramount.
screen,html.Screen,2_1_0_1_22,2021-04-26T14:29:37.598Z,,,,,,,,,,,,,,,,,53,,,,,,,,,,,,,,475.37900000062655,,response,,,,99,,,,,,,Space,keypress(Space),,,,,,,,---- -- ----- -- ------ - ------- --- ----------<br>------------- ------ ------ ---- ---- ------- ----- -- ----<br>-------- ------- -- ---------- But - --- ----- ----- ----<br>---- --- --- ----- --- ---- ---- ------- ----- ---- -------<br>--- --- -- ----- -- --- ---- -- --- ---- -- ------ ------<br>--- ----- -- ----,199445.77500000014,199444.10000000062,198952.095,198966.05500000078,198968.721,199450.875,,22,But
screen,html.Screen,2_1_0_1_23,2021-04-26T14:29:38.126Z,,,,,,,,,,,,,,,,,53,,,,,,,,,,,,,,521.2300000007381,,response,,,,99,,,,,,,Space,keypress(Space),,,,,,,,---- -- ----- -- ------ - ------- --- ----------<br>------------- ------ ------ ---- ---- ------- ----- -- ----<br>-------- ------- -- ---------- --- a --- ----- ----- ----<br>---- --- --- ----- --- ---- ---- ------- ----- ---- -------<br>--- --- -- ----- -- --- ---- -- --- ---- -- ------ ------<br>--- ----- -- ----,199973.79,199972.10500000074,199434.249,199445.96500000262,199450.875,199982.907,,23,a
screen,html.Screen,2_1_0_1_24,2021-04-26T14:29:38.631Z,,,,,,,,,,,,,,,,,53,,,,,,,,,,,,,,493.2980000026582,,response,,,,99,,,,,,,Space,keypress(Space),,,,,,,,---- -- ----- -- ------ - ------- --- ----------<br>------------- ------ ------ ---- ---- ------- ----- -- ----<br>-------- ------- -- ---------- --- - new ----- ----- ----<br>---- --- --- ----- --- ---- ---- ------- ----- ---- -------<br>--- --- -- ----- -- --- ---- -- --- ---- -- ------ ------<br>--- ----- -- ----,200478.21500000282,200476.20500000266,199966.281,199973.96500000104,199982.907,200481.687,,24,new
screen,html.Screen,2_1_0_1_25,2021-04-26T14:29:39.062Z,,,,,,,,,,,,,,,,,53,,,,,,,,,,,,,,426.41300000055344,,response,,,,99,,,,,,,Space,keypress(Space),,,,,,,,---- -- ----- -- ------ - ------- --- ----------<br>------------- ------ ------ ---- ---- ------- ----- -- ----<br>-------- ------- -- ---------- --- - --- study ----- ----<br>---- --- --- ----- --- ---- ---- ------- ----- ---- -------<br>--- --- -- ----- -- --- ---- -- --- ---- -- ------ ------<br>--- ----- -- ----,200909.84500000195,200908.10000000056,200465.061,200478.41000000335,200481.687,200913.963,,25,study
screen,html.Screen,2_1_0_1_26,2021-04-26T14:29:39.543Z,,,,,,,,,,,,,,,,,53,,,,,,,,,,,,,,474.25200000268524,,response,,,,99,,,,,,,Space,keypress(Space),,,,,,,,---- -- ----- -- ------ - ------- --- ----------<br>------------- ------ ------ ---- ---- ------- ----- -- ----<br>-------- ------- -- ---------- --- - --- ----- finds ----<br>---- --- --- ----- --- ---- ---- ------- ----- ---- -------<br>--- --- -- ----- -- --- ---- -- --- ---- -- ------ ------<br>--- ----- -- ----,201390.1850000002,201388.21500000267,200897.337,200910.020000003,200913.963,201396.117,,26,finds
screen,html.Screen,2_1_0_1_27,2021-04-26T14:29:40.047Z,,,,,,,,,,,,,,,,,53,,,,,,,,,,,,,,496.08800000010524,,response,,,,99,,,,,,,Space,keypress(Space),,,,,,,,---- -- ----- -- ------ - ------- --- ----------<br>------------- ------ ------ ---- ---- ------- ----- -- ----<br>-------- ------- -- ---------- --- - --- ----- ----- that<br>---- --- --- ----- --- ---- ---- ------- ----- ---- -------<br>--- --- -- ----- -- --- ---- -- --- ---- -- ------ ------<br>--- ----- -- ----,201894.0900000016,201892.2050000001,201379.491,201390.36500000293,201396.117,201894.897,,27,that
screen,html.Screen,2_1_0_1_28,2021-04-26T14:29:40.454Z,,,,,,,,,,,,,,,,,53,,,,,,,,,,,,,,405.20300000038696,,response,,,,99,,,,,,,Space,keypress(Space),,,,,,,,---- -- ----- -- ------ - ------- --- ----------<br>------------- ------ ------ ---- ---- ------- ----- -- ----<br>-------- ------- -- ---------- --- - --- ----- ----- ----<br>it's --- --- ----- --- ---- ---- ------- ----- ---- -------<br>--- --- -- ----- -- --- ---- -- --- ---- -- ------ ------<br>--- ----- -- ----,202301.81000000084,202300.10000000038,201878.271,201894.28500000213,201894.897,202310.547,,28,it's
screen,html.Screen,2_1_0_1_29,2021-04-26T14:29:40.830Z,,,,,,,,,,,,,,,,,53,,,,,,,,,,,,,,365.3830000012531,,response,,,,99,,,,,,,Space,keypress(Space),,,,,,,,---- -- ----- -- ------ - ------- --- ----------<br>------------- ------ ------ ---- ---- ------- ----- -- ----<br>-------- ------- -- ---------- --- - --- ----- ----- ----<br>---- not --- ----- --- ---- ---- ------- ----- ---- -------<br>--- --- -- ----- -- --- ---- -- --- ---- -- ------ ------<br>--- ----- -- ----,202677.47000000236,202675.93000000124,202293.921,202301.99500000163,202310.547,202692.945,,29,not
screen,html.Screen,2_1_0_1_30,2021-04-26T14:29:41.742Z,,,,,,,,,,,,,,,,,53,,,,,,,,,,,,,,895.1600000025355,,response,,,,99,,,,,,,Space,keypress(Space),,,,,,,,---- -- ----- -- ------ - ------- --- ----------<br>------------- ------ ------ ---- ---- ------- ----- -- ----<br>-------- ------- -- ---------- --- - --- ----- ----- ----<br>---- --- how ----- --- ---- ---- ------- ----- ---- -------<br>--- --- -- ----- -- --- ---- -- --- ---- -- ------ ------<br>--- ----- -- ----,203589.86000000004,203588.10500000254,202676.319,202677.63000000195,202692.945,203591.548,,30,how
screen,html.Screen,2_1_0_1_31,2021-04-26T14:29:42.342Z,,,,,,,,,,,,,,,,,53,,,,,,,,,,,,,,596.6470000024419,,response,,,,99,,,,,,,Space,keypress(Space),,,,,,,,---- -- ----- -- ------ - ------- --- ----------<br>------------- ------ ------ ---- ---- ------- ----- -- ----<br>-------- ------- -- ---------- --- - --- ----- ----- ----<br>---- --- --- close --- ---- ---- ------- ----- ---- -------<br>--- --- -- ----- -- --- ---- -- --- ---- -- ------ ------<br>--- ----- -- ----,204190.03500000326,204188.19500000245,203574.922,203590.0150000016,203591.548,204206.71,,31,close
screen,html.Screen,2_1_0_1_32,2021-04-26T14:29:42.550Z,,,,,,,,,,,,,,,,,53,,,,,,,,,,,,,,189.40500000320026,,response,,,,99,,,,,,,Space,keypress(Space),,,,,,,,---- -- ----- -- ------ - ------- --- ----------<br>------------- ------ ------ ---- ---- ------- ----- -- ----<br>-------- ------- -- ---------- --- - --- ----- ----- ----<br>---- --- --- ----- you ---- ---- ------- ----- ---- -------<br>--- --- -- ----- -- --- ---- -- --- ---- -- ------ ------<br>--- ----- -- ----,204397.80000000246,204396.1150000032,204190.084,204190.19000000117,204206.71,204406.222,,32,you
screen,html.Screen,2_1_0_1_33,2021-04-26T14:29:42.862Z,,,,,,,,,,,,,,,,,53,,,,,,,,,,,,,,301.87799999982235,,response,,,,99,,,,,,,Space,keypress(Space),,,,,,,,---- -- ----- -- ------ - ------- --- ----------<br>------------- ------ ------ ---- ---- ------- ----- -- ----<br>-------- ------- -- ---------- --- - --- ----- ----- ----<br>---- --- --- ----- --- feel ---- ------- ----- ---- -------<br>--- --- -- ----- -- --- ---- -- --- ---- -- ------ ------<br>--- ----- -- ----,204709.75499999986,204708.09999999983,204389.596,204397.9650000001,204406.222,204722.116,,33,feel
screen,html.Screen,2_1_0_1_34,2021-04-26T14:29:43.102Z,,,,,,,,,,,,,,,,,53,,,,,,,,,,,,,,226.0390000018524,,response,,,,99,,,,,,,Space,keypress(Space),,,,,,,,---- -- ----- -- ------ - ------- --- ----------<br>------------- ------ ------ ---- ---- ------- ----- -- ----<br>-------- ------- -- ---------- --- - --- ----- ----- ----<br>---- --- --- ----- --- ---- that ------- ----- ---- -------<br>--- --- -- ----- -- --- ---- -- --- ---- -- ------ ------<br>--- ----- -- ----,204949.99500000267,204948.15500000186,204705.49,204711.04000000196,204722.116,204954.88,,34,that
screen,html.Screen,2_1_0_1_35,2021-04-26T14:29:43.478Z,,,,,,,,,,,,,,,,,53,,,,,,,,,,,,,,369.2600000006205,,response,,,,99,,,,,,,Space,keypress(Space),,,,,,,,---- -- ----- -- ------ - ------- --- ----------<br>------------- ------ ------ ---- ---- ------- ----- -- ----<br>-------- ------- -- ---------- --- - --- ----- ----- ----<br>---- --- --- ----- --- ---- ---- matters ----- ---- -------<br>--- --- -- ----- -- --- ---- -- --- ---- -- ------ ------<br>--- ----- -- ----,205325.98000000144,205324.14000000063,204938.254,204950.15000000058,204954.88,205337.278,,35,matters
screen,html.Screen,2_1_0_1_36,2021-04-26T14:29:43.942Z,,,,,,,,,,,,,,,,,53,,,,,,,,,,,,,,450.8169999998936,,response,,,,99,,,,,,,Space,keypress(Space),,,,,,,,"---- -- ----- -- ------ - ------- --- ----------<br>------------- ------ ------ ---- ---- ------- ----- -- ----<br>-------- ------- -- ---------- --- - --- ----- ----- ----<br>---- --- --- ----- --- ---- ---- ------- most, ---- -------<br>--- --- -- ----- -- --- ---- -- --- ---- -- ------ ------<br>--- ----- -- ----",205789.73000000042,205788.09499999988,205320.652,205326.90999999977,205337.278,205802.806,,36,"most,"
screen,html.Screen,2_1_0_1_37,2021-04-26T14:29:44.414Z,,,,,,,,,,,,,,,,,53,,,,,,,,,,,,,,457.2990000011923,,response,,,,99,,,,,,,Space,keypress(Space),,,,,,,,---- -- ----- -- ------ - ------- --- ----------<br>------------- ------ ------ ---- ---- ------- ----- -- ----<br>-------- ------- -- ---------- --- - --- ----- ----- ----<br>---- --- --- ----- --- ---- ---- ------- ----- it's -------<br>--- --- -- ----- -- --- ---- -- --- ---- -- ------ ------<br>--- ----- -- ----,206261.74000000174,206260.1050000012,205786.18,205789.88000000027,205802.806,206268.334,,37,it's
screen,html.Screen,2_1_0_1_38,2021-04-26T14:29:44.919Z,,,,,,,,,,,,,,,,,53,,,,,,,,,,,,,,495.78599999981816,,response,,,,99,,,,,,,Space,keypress(Space),,,,,,,,---- -- ----- -- ------ - ------- --- ----------<br>------------- ------ ------ ---- ---- ------- ----- -- ----<br>-------- ------- -- ---------- --- - --- ----- ----- ----<br>---- --- --- ----- --- ---- ---- ------- ----- ---- whether<br>--- --- -- ----- -- --- ---- -- --- ---- -- ------ ------<br>--- ----- -- ----,206766.12000000023,206764.11999999982,206251.708,206261.8900000016,206268.334,206767.114,,38,whether
screen,html.Screen,2_1_0_1_39,2021-04-26T14:29:45.302Z,,,,,,,,,,,,,,,,,53,,,,,,,,,,,,,,381.036000000895,,response,,,,99,,,,,,,Space,keypress(Space),,,,,,,,---- -- ----- -- ------ - ------- --- ----------<br>------------- ------ ------ ---- ---- ------- ----- -- ----<br>-------- ------- -- ---------- --- - --- ----- ----- ----<br>---- --- --- ----- --- ---- ---- ------- ----- ---- -------<br>you --- -- ----- -- --- ---- -- --- ---- -- ------ ------<br>--- ----- -- ----,207149.96500000052,207148.1500000009,206750.488,206766.26500000202,206767.114,207166.138,,39,you
screen,html.Screen,2_1_0_1_40,2021-04-26T14:29:45.519Z,,,,,,,,,,,,,,,,,53,,,,,,,,,,,,,,198.05200000022887,,response,,,,99,,,,,,,Space,keypress(Space),,,,,,,,---- -- ----- -- ------ - ------- --- ----------<br>------------- ------ ------ ---- ---- ------- ----- -- ----<br>-------- ------- -- ---------- --- - --- ----- ----- ----<br>---- --- --- ----- --- ---- ---- ------- ----- ---- -------<br>--- are -- ----- -- --- ---- -- --- ---- -- ------ ------<br>--- ----- -- ----,207366.7600000008,207364.19000000024,207149.512,207150.1500000013,207166.138,207382.276,,40,are
screen,html.Screen,2_1_0_1_41,2021-04-26T14:29:45.711Z,,,,,,,,,,,,,,,,,53,,,,,,,,,,,,,,173.8490000027814,,response,,,,99,,,,,,,Space,keypress(Space),,,,,,,,---- -- ----- -- ------ - ------- --- ----------<br>------------- ------ ------ ---- ---- ------- ----- -- ----<br>-------- ------- -- ---------- --- - --- ----- ----- ----<br>---- --- --- ----- --- ---- ---- ------- ----- ---- -------<br>--- --- as ----- -- --- ---- -- --- ---- -- ------ ------<br>--- ----- -- ----,207558.19000000338,207556.1250000028,207365.65,207366.9050000026,207382.276,207565.162,,41,as
screen,html.Screen,2_1_0_1_42,2021-04-26T14:29:46.006Z,,,,,,,,,,,,,,,,,53,,,,,,,,,,,,,,286.94300000174553,,response,,,,99,,,,,,,Space,keypress(Space),,,,,,,,---- -- ----- -- ------ - ------- --- ----------<br>------------- ------ ------ ---- ---- ------- ----- -- ----<br>-------- ------- -- ---------- --- - --- ----- ----- ----<br>---- --- --- ----- --- ---- ---- ------- ----- ---- -------<br>--- --- -- close -- --- ---- -- --- ---- -- ------ ------<br>--- ----- -- ----,207853.8800000024,207852.10500000176,207548.536,207558.34000000323,207565.162,207864.43,,42,close
screen,html.Screen,2_1_0_1_43,2021-04-26T14:29:46.270Z,,,,,,,,,,,,,,,,,53,,,,,,,,,,,,,,251.6300000002957,,response,,,,99,,,,,,,Space,keypress(Space),,,,,,,,---- -- ----- -- ------ - ------- --- ----------<br>------------- ------ ------ ---- ---- ------- ----- -- ----<br>-------- ------- -- ---------- --- - --- ----- ----- ----<br>---- --- --- ----- --- ---- ---- ------- ----- ---- -------<br>--- --- -- ----- as --- ---- -- --- ---- -- ------ ------<br>--- ----- -- ----,208117.85500000042,208116.0600000003,207847.804,207854.03000000224,207864.43,208130.446,,43,as
screen,html.Screen,2_1_0_1_44,2021-04-26T14:29:46.478Z,,,,,,,,,,,,,,,,,53,,,,,,,,,,,,,,193.5840000034077,,response,,,,99,,,,,,,Space,keypress(Space),,,,,,,,---- -- ----- -- ------ - ------- --- ----------<br>------------- ------ ------ ---- ---- ------- ----- -- ----<br>-------- ------- -- ---------- --- - --- ----- ----- ----<br>---- --- --- ----- --- ---- ---- ------- ----- ---- -------<br>--- --- -- ----- -- you ---- -- --- ---- -- ------ ------<br>--- ----- -- ----,208325.6900000015,208324.0300000034,208113.82,208118.00500000027,208130.446,208329.958,,44,you
screen,html.Screen,2_1_0_1_45,2021-04-26T14:29:46.702Z,,,,,,,,,,,,,,,,,53,,,,,,,,,,,,,,218.1570000014035,,response,,,,99,,,,,,,Space,keypress(Space),,,,,,,,---- -- ----- -- ------ - ------- --- ----------<br>------------- ------ ------ ---- ---- ------- ----- -- ----<br>-------- ------- -- ---------- --- - --- ----- ----- ----<br>---- --- --- ----- --- ---- ---- ------- ----- ---- -------<br>--- --- -- ----- -- --- want -- --- ---- -- ------ ------<br>--- ----- -- ----,208549.97999999978,208548.11500000142,208313.332,208327.20000000336,208329.958,208562.722,,45,want
screen,html.Screen,2_1_0_1_46,2021-04-26T14:29:46.926Z,,,,,,,,,,,,,,,,,53,,,,,,,,,,,,,,209.44300000212388,,response,,,,99,,,,,,,Space,keypress(Space),,,,,,,,---- -- ----- -- ------ - ------- --- ----------<br>------------- ------ ------ ---- ---- ------- ----- -- ----<br>-------- ------- -- ---------- --- - --- ----- ----- ----<br>---- --- --- ----- --- ---- ---- ------- ----- ---- -------<br>--- --- -- ----- -- --- ---- to --- ---- -- ------ ------<br>--- ----- -- ----,208774.1100000021,208772.16500000213,208546.096,208550.13000000326,208562.722,208778.86,,46,to
screen,html.Screen,2_1_0_1_47,2021-04-26T14:29:47.278Z,,,,,,,,,,,,,,,,,53,,,,,,,,,,,,,,345.43000000339816,,response,,,,99,,,,,,,Space,keypress(Space),,,,,,,,"---- -- ----- -- ------ - ------- --- ----------<br>------------- ------ ------ ---- ---- ------- ----- -- ----<br>-------- ------- -- ---------- --- - --- ----- ----- ----<br>---- --- --- ----- --- ---- ---- ------- ----- ---- -------<br>--- --- -- ----- -- --- ---- -- be, ---- -- ------ ------<br>--- ----- -- ----",209125.93500000003,209124.29000000338,208762.234,208774.2750000034,208778.86,209128.006,,47,"be,"
screen,html.Screen,2_1_0_1_48,2021-04-26T14:29:47.494Z,,,,,,,,,,,,,,,,,53,,,,,,,,,,,,,,212.20900000017718,,response,,,,99,,,,,,,Space,keypress(Space),,,,,,,,---- -- ----- -- ------ - ------- --- ----------<br>------------- ------ ------ ---- ---- ------- ----- -- ----<br>-------- ------- -- ---------- --- - --- ----- ----- ----<br>---- --- --- ----- --- ---- ---- ------- ----- ---- -------<br>--- --- -- ----- -- --- ---- -- --- even -- ------ ------<br>--- ----- -- ----,209342.04000000318,209340.21500000017,209111.38,209126.07500000013,209128.006,209344.144,,48,even
screen,html.Screen,2_1_0_1_49,2021-04-26T14:29:47.798Z,,,,,,,,,,,,,,,,,53,,,,,,,,,,,,,,299.96600000109174,,response,,,,99,,,,,,,Space,keypress(Space),,,,,,,,---- -- ----- -- ------ - ------- --- ----------<br>------------- ------ ------ ---- ---- ------- ----- -- ----<br>-------- ------- -- ---------- --- - --- ----- ----- ----<br>---- --- --- ----- --- ---- ---- ------- ----- ---- -------<br>--- --- -- ----- -- --- ---- -- --- ---- if ------ ------<br>--- ----- -- ----,209645.84000000104,209644.1100000011,209327.518,209342.18500000134,209344.144,209660.038,,49,if
screen,html.Screen,2_1_0_1_50,2021-04-26T14:29:48.046Z,,,,,,,,,,,,,,,,,53,,,,,,,,,,,,,,232.1019999999262,,response,,,,99,,,,,,,Space,keypress(Space),,,,,,,,---- -- ----- -- ------ - ------- --- ----------<br>------------- ------ ------ ---- ---- ------- ----- -- ----<br>-------- ------- -- ---------- --- - --- ----- ----- ----<br>---- --- --- ----- --- ---- ---- ------- ----- ---- -------<br>--- --- -- ----- -- --- ---- -- --- ---- -- that's ------<br>--- ----- -- ----,209893.9449999998,209892.13999999993,209643.412,209645.98000000115,209660.038,209909.428,,50,that's
screen,html.Screen,2_1_0_1_51,2021-04-26T14:29:48.534Z,,,,,,,,,,,,,,,,,53,,,,,,,,,,,,,,470.68200000186334,,response,,,,99,,,,,,,Space,keypress(Space),,,,,,,,---- -- ----- -- ------ - ------- --- ----------<br>------------- ------ ------ ---- ---- ------- ----- -- ----<br>-------- ------- -- ---------- --- - --- ----- ----- ----<br>---- --- --- ----- --- ---- ---- ------- ----- ---- -------<br>--- --- -- ----- -- --- ---- -- --- ---- -- ------ really<br>--- ----- -- ----,210381.78000000335,210380.11000000188,209892.802,209894.0900000016,209909.428,210391.582,,51,really
screen,html.Screen,2_1_0_1_52,2021-04-26T14:29:48.942Z,,,,,,,,,,,,,,,,,53,,,,,,,,,,,,,,396.52800000132993,,response,,,,99,,,,,,,Space,keypress(Space),,,,,,,,---- -- ----- -- ------ - ------- --- ----------<br>------------- ------ ------ ---- ---- ------- ----- -- ----<br>-------- ------- -- ---------- --- - --- ----- ----- ----<br>---- --- --- ----- --- ---- ---- ------- ----- ---- -------<br>--- --- -- ----- -- --- ---- -- --- ---- -- ------ ------<br>not ----- -- ----,210789.7600000033,210788.11000000132,210374.956,210381.9250000015,210391.582,210790.606,,52,not
screen,html.Screen,2_1_0_1_53,2021-04-26T14:29:49.286Z,,,,,,,,,,,,,,,,,53,,,,,,,,,,,,,,341.5690000024624,,response,,,,99,,,,,,,Space,keypress(Space),,,,,,,,---- -- ----- -- ------ - ------- --- ----------<br>------------- ------ ------ ---- ---- ------- ----- -- ----<br>-------- ------- -- ---------- --- - --- ----- ----- ----<br>---- --- --- ----- --- ---- ---- ------- ----- ---- -------<br>--- --- -- ----- -- --- ---- -- --- ---- -- ------ ------<br>--- close -- ----,211133.82000000274,211132.17500000246,210773.98,210789.90500000145,210790.606,211139.752,,53,close
screen,html.Screen,2_1_0_1_54,2021-04-26T14:29:49.790Z,,,,,,,,,,,,,,,,,53,,,,,,,,,,,,,,496.4680000003136,,response,,,,99,,,,,,,Space,keypress(Space),,,,,,,,---- -- ----- -- ------ - ------- --- ----------<br>------------- ------ ------ ---- ---- ------- ----- -- ----<br>-------- ------- -- ---------- --- - --- ----- ----- ----<br>---- --- --- ----- --- ---- ---- ------- ----- ---- -------<br>--- --- -- ----- -- --- ---- -- --- ---- -- ------ ------<br>--- ----- at ----,211638.06500000283,211636.22000000032,211123.126,211133.9650000009,211139.752,211655.158,,54,at
screen,html.Screen,2_1_0_1_55,2021-04-26T14:29:50.518Z,,,,,,,,,,,,,,,,,53,,,,,,,,,,,,,,708.9470000005676,,response,,,,99,,,,,,,Space,keypress(Space),,,,,,,,---- -- ----- -- ------ - ------- --- ----------<br>------------- ------ ------ ---- ---- ------- ----- -- ----<br>-------- ------- -- ---------- --- - --- ----- ----- ----<br>---- --- --- ----- --- ---- ---- ------- ----- ---- -------<br>--- --- -- ----- -- --- ---- -- --- ---- -- ------ ------<br>--- ----- -- all.,212365.80500000127,212364.10500000056,211638.532,211638.20500000293,211655.158,212370.076,,55,all.
Item 99,flow.Loop,2_1_0_1,2021-04-26T14:29:50.518Z,,,,,,,,,,,,,,,,,,,,,,,,,,,,,,,27877.558000000572,,completion,,,,,C,,,,,,,,,,,silence,,,,,212366.10000000292,212364.10500000056,184469.921,184472.76000000056,184486.547,212370.076,,,
Question 1,html.Screen,2_1_0_2,2021-04-26T14:29:54.555Z,,,,,,,,,,,,,,,,,,,,,,,,,,,,true,FALSE,,4030.9790000020876,,response,,,,99,C,,,,,,FALSE,click #choice-2,,,,silence,,,,,216402.78000000035,216401.0550000021,212353.45,212366.24000000302,212370.076,216427.803,,,
Question 2,html.Screen,2_1_0_3,2021-04-26T14:30:00.305Z,,,,,,,,,,,,,,,,,,,,,,,,,,,,true,TRUE,,5723.032000000356,,response,,,,99,C,,,,,,TRUE,click #choice-1,,,,silence,,,,,222152.610000001,222150.83500000037,216411.177,216402.92000000045,216427.803,222163.773,,,
Item 99,flow.Sequence,2_1_0,2021-04-26T14:30:00.305Z,,,,,,,,,,,,,,,,,,,,,,,,,,,,,,,47658.618000000366,,completion,,,,,,,,,,,,,,,,,,,,,222152.82000000298,222150.83500000037,174475.591,174469.96000000217,174492.217,222163.773,,,
Holding screen,html.Screen,2_1_1_0,2021-04-26T14:30:10.294Z,,,,,,,,,,,,,,,,,,,,,,,,,,,,,,,9993.165000000008,,timeout,,,,,,,,,,,,,,,,,,,,,232141.81500000268,232140.312,222147.147,222152.96000000308,222163.773,232156.938,,,
screen,html.Screen,2_1_1_1_0,2021-04-26T14:30:12.094Z,,,,,,,,,,,,,,,,,54,,,,,,,,,,,,,,1783.1820000029402,,response,,,,100,,,,,,,Space,keypress(Space),,,,,,,,At --- ---- --- ------ ----- ------- ---- -- --- ------- --<br>------- ---------- ------ -- ----- -- ----- -- ---- ------<br>--- ----- --- --- ------ -------- ----- --- ------ ----- --<br>----- ----- ---------- --- --- ------ ------ ---- -- ------<br>------- --- ------ ----- --- ---- ------- -- ---- --- --<br>------- ------,233942.35000000117,233940.12000000293,232140.312,232142.00500000152,232156.938,233952.546,,0,At
screen,html.Screen,2_1_1_1_1,2021-04-26T14:30:12.582Z,,,,,,,,,,,,,,,,,54,,,,,,,,,,,,,,475.6640000018524,,response,,,,100,,,,,,,Space,keypress(Space),,,,,,,,-- the ---- --- ------ ----- ------- ---- -- --- ------- --<br>------- ---------- ------ -- ----- -- ----- -- ---- ------<br>--- ----- --- --- ------ -------- ----- --- ------ ----- --<br>----- ----- ---------- --- --- ------ ------ ---- -- ------<br>------- --- ------ ----- --- ---- ------- -- ---- --- --<br>------- ------,234429.87500000163,234428.21000000185,233935.92,233942.50000000102,233952.546,234434.7,,1,the
screen,html.Screen,2_1_1_1_2,2021-04-26T14:30:13.189Z,,,,,,,,,,,,,,,,,54,,,,,,,,,,,,,,601.405000002851,,response,,,,100,,,,,,,Space,keypress(Space),,,,,,,,-- --- time --- ------ ----- ------- ---- -- --- ------- --<br>------- ---------- ------ -- ----- -- ----- -- ---- ------<br>--- ----- --- --- ------ -------- ----- --- ------ ----- --<br>----- ----- ---------- --- --- ------ ------ ---- -- ------<br>------- --- ------ ----- --- ---- ------- -- ---- --- --<br>------- ------,235037.76500000095,235036.10500000286,234418.074,234430.0199999998,234434.7,235050.688,,2,time
screen,html.Screen,2_1_1_1_3,2021-04-26T14:30:13.541Z,,,,,,,,,,,,,,,,,54,,,,,,,,,,,,,,337.42199999987497,,response,,,,100,,,,,,,Space,keypress(Space),,,,,,,,-- --- ---- the ------ ----- ------- ---- -- --- ------- --<br>------- ---------- ------ -- ----- -- ----- -- ---- ------<br>--- ----- --- --- ------ -------- ----- --- ------ ----- --<br>----- ----- ---------- --- --- ------ ------ ---- -- ------<br>------- --- ------ ----- --- ---- ------- -- ---- --- --<br>------- ------,235389.76000000184,235388.10999999987,235034.062,235037.900000003,235050.688,235399.834,,3,the
screen,html.Screen,2_1_1_1_4,2021-04-26T14:30:13.830Z,,,,,,,,,,,,,,,,,54,,,,,,,,,,,,,,276.3660000016971,,response,,,,100,,,,,,,Space,keypress(Space),,,,,,,,-- --- ---- --- French ----- ------- ---- -- --- ------- --<br>------- ---------- ------ -- ----- -- ----- -- ---- ------<br>--- ----- --- --- ------ -------- ----- --- ------ ----- --<br>----- ----- ---------- --- --- ------ ------ ---- -- ------<br>------- --- ------ ----- --- ---- ------- -- ---- --- --<br>------- ------,235677.91000000216,235676.2000000017,235383.208,235389.89500000025,235399.834,235682.476,,4,French
screen,html.Screen,2_1_1_1_5,2021-04-26T14:30:14.053Z,,,,,,,,,,,,,,,,,54,,,,,,,,,,,,,,217.63400000231923,,response,,,,100,,,,,,,Space,keypress(Space),,,,,,,,-- --- ---- --- ------ crown ------- ---- -- --- ------- --<br>------- ---------- ------ -- ----- -- ----- -- ---- ------<br>--- ----- --- --- ------ -------- ----- --- ------ ----- --<br>----- ----- ---------- --- --- ------ ------ ---- -- ------<br>------- --- ------ ----- --- ---- ------- -- ---- --- --<br>------- ------,235901.76500000234,235900.1100000023,235665.85,235678.060000002,235682.476,235915.24,,5,crown
screen,html.Screen,2_1_1_1_6,2021-04-26T14:30:14.389Z,,,,,,,,,,,,,,,,,54,,,,,,,,,,,,,,320.87000000165426,,response,,,,100,,,,,,,Space,keypress(Space),,,,,,,,-- --- ---- --- ------ ----- secured ---- -- --- ------- --<br>------- ---------- ------ -- ----- -- ----- -- ---- ------<br>--- ----- --- --- ------ -------- ----- --- ------ ----- --<br>----- ----- ---------- --- --- ------ ------ ---- -- ------<br>------- --- ------ ----- --- ---- ------- -- ---- --- --<br>------- ------,236237.75999999998,236236.11000000164,235898.614,235901.9100000005,235915.24,236247.76,,6,secured
screen,html.Screen,2_1_1_1_7,2021-04-26T14:30:14.781Z,,,,,,,,,,,,,,,,,54,,,,,,,,,,,,,,380.5000000013097,,response,,,,100,,,,,,,Space,keypress(Space),,,,,,,,-- --- ---- --- ------ ----- ------- much -- --- ------- --<br>------- ---------- ------ -- ----- -- ----- -- ---- ------<br>--- ----- --- --- ------ -------- ----- --- ------ ----- --<br>----- ----- ---------- --- --- ------ ------ ---- -- ------<br>------- --- ------ ----- --- ---- ------- -- ---- --- --<br>------- ------,236629.85000000117,236628.26000000132,236231.134,236237.90999999983,236247.76,236646.784,,7,much
screen,html.Screen,2_1_1_1_8,2021-04-26T14:30:15.101Z,,,,,,,,,,,,,,,,,54,,,,,,,,,,,,,,301.21100000225124,,response,,,,100,,,,,,,Space,keypress(Space),,,,,,,,-- --- ---- --- ------ ----- ------- ---- of --- ------- --<br>------- ---------- ------ -- ----- -- ----- -- ---- ------<br>--- ----- --- --- ------ -------- ----- --- ------ ----- --<br>----- ----- ---------- --- --- ------ ------ ---- -- ------<br>------- --- ------ ----- --- ---- ------- -- ---- --- --<br>------- ------,236949.6050000016,236947.99500000227,236630.158,236629.98500000322,236646.784,236962.678,,8,of
screen,html.Screen,2_1_1_1_9,2021-04-26T14:30:15.389Z,,,,,,,,,,,,,,,,,54,,,,,,,,,,,,,,273.4870000020601,,response,,,,100,,,,,,,Space,keypress(Space),,,,,,,,-- --- ---- --- ------ ----- ------- ---- -- its ------- --<br>------- ---------- ------ -- ----- -- ----- -- ---- ------<br>--- ----- --- --- ------ -------- ----- --- ------ ----- --<br>----- ----- ---------- --- --- ------ ------ ---- -- ------<br>------- --- ------ ----- --- ---- ------- -- ---- --- --<br>------- ------,237237.92500000127,237236.16500000207,236946.052,236949.7500000034,236962.678,237245.32,,9,its
screen,html.Screen,2_1_1_1_10,2021-04-26T14:30:15.701Z,,,,,,,,,,,,,,,,,54,,,,,,,,,,,,,,302.7950000014098,,response,,,,100,,,,,,,Space,keypress(Space),,,,,,,,-- --- ---- --- ------ ----- ------- ---- -- --- revenue --<br>------- ---------- ------ -- ----- -- ----- -- ---- ------<br>--- ----- --- --- ------ -------- ----- --- ------ ----- --<br>----- ----- ---------- --- --- ------ ------ ---- -- ------<br>------- --- ------ ----- --- ---- ------- -- ---- --- --<br>------- ------,237549.83500000162,237548.11500000142,237228.694,237238.06500000137,237245.32,237561.214,,10,revenue
screen,html.Screen,2_1_1_1_11,2021-04-26T14:30:16.061Z,,,,,,,,,,,,,,,,,54,,,,,,,,,,,,,,346.89600000029895,,response,,,,100,,,,,,,Space,keypress(Space),,,,,,,,-- --- ---- --- ------ ----- ------- ---- -- --- ------- by<br>------- ---------- ------ -- ----- -- ----- -- ---- ------<br>--- ----- --- --- ------ -------- ----- --- ------ ----- --<br>----- ----- ---------- --- --- ------ ------ ---- -- ------<br>------- --- ------ ----- --- ---- ------- -- ---- --- --<br>------- ------,237909.84500000195,237908.1100000003,237544.588,237550.0150000007,237561.214,237926.986,,11,by
screen,html.Screen,2_1_1_1_12,2021-04-26T14:30:16.357Z,,,,,,,,,,,,,,,,,54,,,,,,,,,,,,,,277.1240000023972,,response,,,,100,,,,,,,Space,keypress(Space),,,,,,,,-- --- ---- --- ------ ----- ------- ---- -- --- ------- --<br>issuing ---------- ------ -- ----- -- ----- -- ---- ------<br>--- ----- --- --- ------ -------- ----- --- ------ ----- --<br>----- ----- ---------- --- --- ------ ------ ---- -- ------<br>------- --- ------ ----- --- ---- ------- -- ---- --- --<br>------- ------,238205.82000000286,238204.1100000024,237910.36,237909.9900000001,237926.986,238209.628,,12,issuing
screen,html.Screen,2_1_1_1_13,2021-04-26T14:30:16.645Z,,,,,,,,,,,,,,,,,54,,,,,,,,,,,,,,282.42700000244076,,response,,,,100,,,,,,,Space,keypress(Space),,,,,,,,-- --- ---- --- ------ ----- ------- ---- -- --- ------- --<br>------- government ------ -- ----- -- ----- -- ---- ------<br>--- ----- --- --- ------ -------- ----- --- ------ ----- --<br>----- ----- ---------- --- --- ------ ------ ---- -- ------<br>------- --- ------ ----- --- ---- ------- -- ---- --- --<br>------- ------,238493.67500000153,238492.05500000244,238193.002,238205.96000000296,238209.628,238508.896,,13,government
screen,html.Screen,2_1_1_1_14,2021-04-26T14:30:17.061Z,,,,,,,,,,,,,,,,,54,,,,,,,,,,,,,,399.21400000029826,,response,,,,100,,,,,,,Space,keypress(Space),,,,,,,,-- --- ---- --- ------ ----- ------- ---- -- --- ------- --<br>------- ---------- bonds. -- ----- -- ----- -- ---- ------<br>--- ----- --- --- ------ -------- ----- --- ------ ----- --<br>----- ----- ---------- --- --- ------ ------ ---- -- ------<br>------- --- ------ ----- --- ---- ------- -- ---- --- --<br>------- ------,238909.8600000034,238908.1100000003,238492.27,238493.81500000163,238508.896,238924.546,,14,bonds.
screen,html.Screen,2_1_1_1_15,2021-04-26T14:30:17.645Z,,,,,,,,,,,,,,,,,54,,,,,,,,,,,,,,567.5540000031178,,response,,,,100,,,,,,,Space,keypress(Space),,,,,,,,-- --- ---- --- ------ ----- ------- ---- -- --- ------- --<br>------- ---------- ------ In ----- -- ----- -- ---- ------<br>--- ----- --- --- ------ -------- ----- --- ------ ----- --<br>----- ----- ---------- --- --- ------ ------ ---- -- ------<br>------- --- ------ ----- --- ---- ------- -- ---- --- --<br>------- ------,239493.75000000146,239492.10000000312,238907.92,238910.06500000003,238924.546,239506.456,,15,In
screen,html.Screen,2_1_1_1_16,2021-04-26T14:30:18.053Z,,,,,,,,,,,,,,,,,54,,,,,,,,,,,,,,393.64400000256137,,response,,,,100,,,,,,,Space,keypress(Space),,,,,,,,"-- --- ---- --- ------ ----- ------- ---- -- --- ------- --<br>------- ---------- ------ -- 1727, -- ----- -- ---- ------<br>--- ----- --- --- ------ -------- ----- --- ------ ----- --<br>----- ----- ---------- --- --- ------ ------ ---- -- ------<br>------- --- ------ ----- --- ---- ------- -- ---- --- --<br>------- ------",239901.7300000014,239900.10000000257,239489.83,239493.89500000325,239506.456,239905.48,,16,"1727,"
screen,html.Screen,2_1_1_1_17,2021-04-26T14:30:18.373Z,,,,,,,,,,,,,,,,,54,,,,,,,,,,,,,,314.6300000020128,,response,,,,100,,,,,,,Space,keypress(Space),,,,,,,,-- --- ---- --- ------ ----- ------- ---- -- --- ------- --<br>------- ---------- ------ -- ----- in ----- -- ---- ------<br>--- ----- --- --- ------ -------- ----- --- ------ ----- --<br>----- ----- ---------- --- --- ------ ------ ---- -- ------<br>------- --- ------ ----- --- ---- ------- -- ---- --- --<br>------- ------,240221.93000000334,240220.11000000202,239888.854,239901.8750000032,239905.48,240238,,17,in
screen,html.Screen,2_1_1_1_18,2021-04-26T14:30:18.621Z,,,,,,,,,,,,,,,,,54,,,,,,,,,,,,,,230.11000000161584,,response,,,,100,,,,,,,Space,keypress(Space),,,,,,,,-- --- ---- --- ------ ----- ------- ---- -- --- ------- --<br>------- ---------- ------ -- ----- -- order -- ---- ------<br>--- ----- --- --- ------ -------- ----- --- ------ ----- --<br>----- ----- ---------- --- --- ------ ------ ---- -- ------<br>------- --- ------ ----- --- ---- ------- -- ---- --- --<br>------- ------,240469.82000000207,240468.11000000162,240221.374,240222.0699999998,240238,240470.764,,18,order
screen,html.Screen,2_1_1_1_19,2021-04-26T14:30:18.885Z,,,,,,,,,,,,,,,,,54,,,,,,,,,,,,,,261.48100000288105,,response,,,,100,,,,,,,Space,keypress(Space),,,,,,,,-- --- ---- --- ------ ----- ------- ---- -- --- ------- --<br>------- ---------- ------ -- ----- -- ----- to ---- ------<br>--- ----- --- --- ------ -------- ----- --- ------ ----- --<br>----- ----- ---------- --- --- ------ ------ ---- -- ------<br>------- --- ------ ----- --- ---- ------- -- ---- --- --<br>------- ------,240733.9400000019,240732.24500000288,240454.138,240469.96000000217,240470.764,240736.78,,19,to
screen,html.Screen,2_1_1_1_20,2021-04-26T14:30:19.141Z,,,,,,,,,,,,,,,,,54,,,,,,,,,,,,,,251.3150000006135,,response,,,,100,,,,,,,Space,keypress(Space),,,,,,,,-- --- ---- --- ------ ----- ------- ---- -- --- ------- --<br>------- ---------- ------ -- ----- -- ----- -- save ------<br>--- ----- --- --- ------ -------- ----- --- ------ ----- --<br>----- ----- ---------- --- --- ------ ------ ---- -- ------<br>------- --- ------ ----- --- ---- ------- -- ---- --- --<br>------- ------,240989.77999999988,240988.0950000006,240720.154,240734.080000002,240736.78,241002.796,,20,save
screen,html.Screen,2_1_1_1_21,2021-04-26T14:30:19.597Z,,,,,,,,,,,,,,,,,54,,,,,,,,,,,,,,441.3140000003623,,response,,,,100,,,,,,,Space,keypress(Space),,,,,,,,"-- --- ---- --- ------ ----- ------- ---- -- --- ------- --<br>------- ---------- ------ -- ----- -- ----- -- ---- money,<br>--- ----- --- --- ------ -------- ----- --- ------ ----- --<br>----- ----- ---------- --- --- ------ ------ ---- -- ------<br>------- --- ------ ----- --- ---- ------- -- ---- --- --<br>------- ------",241445.79000000158,241444.11000000036,240986.17,240989.91500000193,241002.796,241451.698,,21,"money,"
screen,html.Screen,2_1_1_1_22,2021-04-26T14:30:20.061Z,,,,,,,,,,,,,,,,,54,,,,,,,,,,,,,,456.39700000250014,,response,,,,100,,,,,,,Space,keypress(Space),,,,,,,,-- --- ---- --- ------ ----- ------- ---- -- --- ------- --<br>------- ---------- ------ -- ----- -- ----- -- ---- ------<br>the ----- --- --- ------ -------- ----- --- ------ ----- --<br>----- ----- ---------- --- --- ------ ------ ---- -- ------<br>------- --- ------ ----- --- ---- ------- -- ---- --- --<br>------- ------,241909.73000000304,241908.0950000025,241435.072,241445.94500000312,241451.698,241917.226,,22,the
screen,html.Screen,2_1_1_1_23,2021-04-26T14:30:20.342Z,,,,,,,,,,,,,,,,,54,,,,,,,,,,,,,,270.9840000002587,,response,,,,100,,,,,,,Space,keypress(Space),,,,,,,,-- --- ---- --- ------ ----- ------- ---- -- --- ------- --<br>------- ---------- ------ -- ----- -- ----- -- ---- ------<br>--- state --- --- ------ -------- ----- --- ------ ----- --<br>----- ----- ---------- --- --- ------ ------ ---- -- ------<br>------- --- ------ ----- --- ---- ------- -- ---- --- --<br>------- ------,242190.11500000124,242188.21000000025,241900.6,241909.87000000314,241917.226,242199.868,,23,state
screen,html.Screen,2_1_1_1_24,2021-04-26T14:30:20.645Z,,,,,,,,,,,,,,,,,54,,,,,,,,,,,,,,292.17200000101,,response,,,,100,,,,,,,Space,keypress(Space),,,,,,,,-- --- ---- --- ------ ----- ------- ---- -- --- ------- --<br>------- ---------- ------ -- ----- -- ----- -- ---- ------<br>--- ----- cut --- ------ -------- ----- --- ------ ----- --<br>----- ----- ---------- --- --- ------ ------ ---- -- ------<br>------- --- ------ ----- --- ---- ------- -- ---- --- --<br>------- ------,242493.87000000206,242492.040000001,242183.242,242190.26000000304,242199.868,242499.136,,24,cut
screen,html.Screen,2_1_1_1_25,2021-04-26T14:30:20.950Z,,,,,,,,,,,,,,,,,54,,,,,,,,,,,,,,297.0790000021225,,response,,,,100,,,,,,,Space,keypress(Space),,,,,,,,-- --- ---- --- ------ ----- ------- ---- -- --- ------- --<br>------- ---------- ------ -- ----- -- ----- -- ---- ------<br>--- ----- --- the ------ -------- ----- --- ------ ----- --<br>----- ----- ---------- --- --- ------ ------ ---- -- ------<br>------- --- ------ ----- --- ---- ------- -- ---- --- --<br>------- ------,242798.13000000286,242796.21500000212,242482.51,242494.01000000216,242499.136,242815.03,,25,the
screen,html.Screen,2_1_1_1_26,2021-04-26T14:30:21.237Z,,,,,,,,,,,,,,,,,54,,,,,,,,,,,,,,268.9700000025623,,response,,,,100,,,,,,,Space,keypress(Space),,,,,,,,-- --- ---- --- ------ ----- ------- ---- -- --- ------- --<br>------- ---------- ------ -- ----- -- ----- -- ---- ------<br>--- ----- --- --- bonds' -------- ----- --- ------ ----- --<br>----- ----- ---------- --- --- ------ ------ ---- -- ------<br>------- --- ------ ----- --- ---- ------- -- ---- --- --<br>------- ------,243085.6550000026,243084.00000000256,242798.404,242798.275000001,242815.03,243097.672,,26,bonds'
screen,html.Screen,2_1_1_1_27,2021-04-26T14:30:21.533Z,,,,,,,,,,,,,,,,,54,,,,,,,,,,,,,,282.3029999998398,,response,,,,100,,,,,,,Space,keypress(Space),,,,,,,,-- --- ---- --- ------ ----- ------- ---- -- --- ------- --<br>------- ---------- ------ -- ----- -- ----- -- ---- ------<br>--- ----- --- --- ------ interest ----- --- ------ ----- --<br>----- ----- ---------- --- --- ------ ------ ---- -- ------<br>------- --- ------ ----- --- ---- ------- -- ---- --- --<br>------- ------,243381.6200000001,243379.97499999983,243081.046,243085.8100000005,243097.672,243396.94,,27,interest
screen,html.Screen,2_1_1_1_28,2021-04-26T14:30:21.757Z,,,,,,,,,,,,,,,,,54,,,,,,,,,,,,,,207.23500000039348,,response,,,,100,,,,,,,Space,keypress(Space),,,,,,,,-- --- ---- --- ------ ----- ------- ---- -- --- ------- --<br>------- ---------- ------ -- ----- -- ----- -- ---- ------<br>--- ----- --- --- ------ -------- rate. --- ------ ----- --<br>----- ----- ---------- --- --- ------ ------ ---- -- ------<br>------- --- ------ ----- --- ---- ------- -- ---- --- --<br>------- ------,243606.07500000333,243604.1750000004,243380.314,243381.7650000019,243396.94,243613.078,,28,rate.
screen,html.Screen,2_1_1_1_29,2021-04-26T14:30:22.037Z,,,,,,,,,,,,,,,,,54,,,,,,,,,,,,,,271.1520000032906,,response,,,,100,,,,,,,Space,keypress(Space),,,,,,,,-- --- ---- --- ------ ----- ------- ---- -- --- ------- --<br>------- ---------- ------ -- ----- -- ----- -- ---- ------<br>--- ----- --- --- ------ -------- ----- The ------ ----- --<br>----- ----- ---------- --- --- ------ ------ ---- -- ------<br>------- --- ------ ----- --- ---- ------- -- ---- --- --<br>------- ------,243885.98000000275,243884.2300000033,243596.452,243606.22500000318,243613.078,243895.72,,29,The
screen,html.Screen,2_1_1_1_30,2021-04-26T14:30:22.478Z,,,,,,,,,,,,,,,,,54,,,,,,,,,,,,,,428.4900000024936,,response,,,,100,,,,,,,Space,keypress(Space),,,,,,,,-- --- ---- --- ------ ----- ------- ---- -- --- ------- --<br>------- ---------- ------ -- ----- -- ----- -- ---- ------<br>--- ----- --- --- ------ -------- ----- --- market ----- --<br>----- ----- ---------- --- --- ------ ------ ---- -- ------<br>------- --- ------ ----- --- ---- ------- -- ---- --- --<br>------- ------,244326.46500000192,244324.2100000025,243879.094,243886.1250000009,243895.72,244327.996,,30,market
screen,html.Screen,2_1_1_1_31,2021-04-26T14:30:22.829Z,,,,,,,,,,,,,,,,,54,,,,,,,,,,,,,,348.15400000294903,,response,,,,100,,,,,,,Space,keypress(Space),,,,,,,,-- --- ---- --- ------ ----- ------- ---- -- --- ------- --<br>------- ---------- ------ -- ----- -- ----- -- ---- ------<br>--- ----- --- --- ------ -------- ----- --- ------ value --<br>----- ----- ---------- --- --- ------ ------ ---- -- ------<br>------- --- ------ ----- --- ---- ------- -- ---- --- --<br>------- ------,244677.92499999996,244676.15000000296,244311.37,244326.61500000177,244327.996,244693.768,,31,value
screen,html.Screen,2_1_1_1_32,2021-04-26T14:30:23.421Z,,,,,,,,,,,,,,,,,54,,,,,,,,,,,,,,574.3570000023174,,response,,,,100,,,,,,,Space,keypress(Space),,,,,,,,-- --- ---- --- ------ ----- ------- ---- -- --- ------- --<br>------- ---------- ------ -- ----- -- ----- -- ---- ------<br>--- ----- --- --- ------ -------- ----- --- ------ ----- of<br>----- ----- ---------- --- --- ------ ------ ---- -- ------<br>------- --- ------ ----- --- ---- ------- -- ---- --- --<br>------- ------,245269.75500000117,245268.12500000233,244677.142,244678.07000000175,244693.768,245276.67,,32,of
screen,html.Screen,2_1_1_1_33,2021-04-26T14:30:23.725Z,,,,,,,,,,,,,,,,,54,,,,,,,,,,,,,,295.44000000096275,,response,,,,100,,,,,,,Space,keypress(Space),,,,,,,,-- --- ---- --- ------ ----- ------- ---- -- --- ------- --<br>------- ---------- ------ -- ----- -- ----- -- ---- ------<br>--- ----- --- --- ------ -------- ----- --- ------ ----- --<br>these ----- ---------- --- --- ------ ------ ---- -- ------<br>------- --- ------ ----- --- ---- ------- -- ---- --- --<br>------- ------,245573.7700000027,245572.11000000098,245260.044,245269.90000000296,245276.67,245575.938,,33,these
screen,html.Screen,2_1_1_1_34,2021-04-26T14:30:24.005Z,,,,,,,,,,,,,,,,,54,,,,,,,,,,,,,,276.30200000017066,,response,,,,100,,,,,,,Space,keypress(Space),,,,,,,,-- --- ---- --- ------ ----- ------- ---- -- --- ------- --<br>------- ---------- ------ -- ----- -- ----- -- ---- ------<br>--- ----- --- --- ------ -------- ----- --- ------ ----- --<br>----- bonds ---------- --- --- ------ ------ ---- -- ------<br>------- --- ------ ----- --- ---- ------- -- ---- --- --<br>------- ------,245853.8750000007,245852.24000000017,245559.312,245573.9100000028,245575.938,245858.58,,34,bonds
screen,html.Screen,2_1_1_1_35,2021-04-26T14:30:24.285Z,,,,,,,,,,,,,,,,,54,,,,,,,,,,,,,,273.45000000068103,,response,,,,100,,,,,,,Space,keypress(Space),,,,,,,,"-- --- ---- --- ------ ----- ------- ---- -- --- ------- --<br>------- ---------- ------ -- ----- -- ----- -- ---- ------<br>--- ----- --- --- ------ -------- ----- --- ------ ----- --<br>----- ----- plummeted, --- --- ------ ------ ---- -- ------<br>------- --- ------ ----- --- ---- ------- -- ---- --- --<br>------- ------",246133.61000000077,246132.03000000067,245841.954,245854.0150000008,245858.58,246141.222,,35,"plummeted,"
screen,html.Screen,2_1_1_1_36,2021-04-26T14:30:24.733Z,,,,,,,,,,,,,,,,,54,,,,,,,,,,,,,,438.87800000284915,,response,,,,100,,,,,,,Space,keypress(Space),,,,,,,,-- --- ---- --- ------ ----- ------- ---- -- --- ------- --<br>------- ---------- ------ -- ----- -- ----- -- ---- ------<br>--- ----- --- --- ------ -------- ----- --- ------ ----- --<br>----- ----- ---------- and --- ------ ------ ---- -- ------<br>------- --- ------ ----- --- ---- ------- -- ---- --- --<br>------- ------,246581.81000000332,246580.10000000286,246124.596,246133.75500000257,246141.222,246590.124,,36,and
screen,html.Screen,2_1_1_1_37,2021-04-26T14:30:24.981Z,,,,,,,,,,,,,,,,,54,,,,,,,,,,,,,,237.92600000006496,,response,,,,100,,,,,,,Space,keypress(Space),,,,,,,,-- --- ---- --- ------ ----- ------- ---- -- --- ------- --<br>------- ---------- ------ -- ----- -- ----- -- ---- ------<br>--- ----- --- --- ------ -------- ----- --- ------ ----- --<br>----- ----- ---------- --- the ------ ------ ---- -- ------<br>------- --- ------ ----- --- ---- ------- -- ---- --- --<br>------- ------,246829.62500000212,246828.05000000008,246573.498,246581.94999999978,246590.124,246839.514,,37,the
screen,html.Screen,2_1_1_1_38,2021-04-26T14:30:25.245Z,,,,,,,,,,,,,,,,,54,,,,,,,,,,,,,,252.59100000336184,,response,,,,100,,,,,,,Space,keypress(Space),,,,,,,,-- --- ---- --- ------ ----- ------- ---- -- --- ------- --<br>------- ---------- ------ -- ----- -- ----- -- ---- ------<br>--- ----- --- --- ------ -------- ----- --- ------ ----- --<br>----- ----- ---------- --- --- market ------ ---- -- ------<br>------- --- ------ ----- --- ---- ------- -- ---- --- --<br>------- ------,247093.76000000339,247092.10500000336,246822.888,246829.76000000053,246839.514,247105.53,,38,market
screen,html.Screen,2_1_1_1_39,2021-04-26T14:30:25.613Z,,,,,,,,,,,,,,,,,54,,,,,,,,,,,,,,354.64000000210945,,response,,,,100,,,,,,,Space,keypress(Space),,,,,,,,-- --- ---- --- ------ ----- ------- ---- -- --- ------- --<br>------- ---------- ------ -- ----- -- ----- -- ---- ------<br>--- ----- --- --- ------ -------- ----- --- ------ ----- --<br>----- ----- ---------- --- --- ------ became ---- -- ------<br>------- --- ------ ----- --- ---- ------- -- ---- --- --<br>------- ------,247462.02500000072,247460.1700000021,247088.904,247093.91000000323,247105.53,247471.302,,39,became
screen,html.Screen,2_1_1_1_40,2021-04-26T14:30:25.861Z,,,,,,,,,,,,,,,,,54,,,,,,,,,,,,,,236.96300000112387,,response,,,,100,,,,,,,Space,keypress(Space),,,,,,,,-- --- ---- --- ------ ----- ------- ---- -- --- ------- --<br>------- ---------- ------ -- ----- -- ----- -- ---- ------<br>--- ----- --- --- ------ -------- ----- --- ------ ----- --<br>----- ----- ---------- --- --- ------ ------ wary -- ------<br>------- --- ------ ----- --- ---- ------- -- ---- --- --<br>------- ------,247710.070000001,247708.26500000112,247454.676,247462.16500000082,247471.302,247720.692,,40,wary
screen,html.Screen,2_1_1_1_41,2021-04-26T14:30:26.173Z,,,,,,,,,,,,,,,,,54,,,,,,,,,,,,,,299.48300000146264,,response,,,,100,,,,,,,Space,keypress(Space),,,,,,,,-- --- ---- --- ------ ----- ------- ---- -- --- ------- --<br>------- ---------- ------ -- ----- -- ----- -- ---- ------<br>--- ----- --- --- ------ -------- ----- --- ------ ----- --<br>----- ----- ---------- --- --- ------ ------ ---- of ------<br>------- --- ------ ----- --- ---- ------- -- ---- --- --<br>------- ------,248021.88000000024,248020.17500000147,247704.066,247710.2100000011,247720.692,248036.586,,41,of
screen,html.Screen,2_1_1_1_42,2021-04-26T14:30:26.485Z,,,,,,,,,,,,,,,,,54,,,,,,,,,,,,,,295.45400000113295,,response,,,,100,,,,,,,Space,keypress(Space),,,,,,,,-- --- ---- --- ------ ----- ------- ---- -- --- ------- --<br>------- ---------- ------ -- ----- -- ----- -- ---- ------<br>--- ----- --- --- ------ -------- ----- --- ------ ----- --<br>----- ----- ---------- --- --- ------ ------ ---- -- French<br>------- --- ------ ----- --- ---- ------- -- ---- --- --<br>------- ------,248333.64000000074,248332.04000000114,248019.96,248022.0300000001,248036.586,248335.854,,42,French
screen,html.Screen,2_1_1_1_43,2021-04-26T14:30:26.885Z,,,,,,,,,,,,,,,,,54,,,,,,,,,,,,,,396.1810000009136,,response,,,,100,,,,,,,Space,keypress(Space),,,,,,,,-- --- ---- --- ------ ----- ------- ---- -- --- ------- --<br>------- ---------- ------ -- ----- -- ----- -- ---- ------<br>--- ----- --- --- ------ -------- ----- --- ------ ----- --<br>----- ----- ---------- --- --- ------ ------ ---- -- ------<br>credit. --- ------ ----- --- ---- ------- -- ---- --- --<br>------- ------,248733.69500000263,248732.0350000009,248319.228,248333.78000000084,248335.854,248734.878,,43,credit.
screen,html.Screen,2_1_1_1_44,2021-04-26T14:30:27.357Z,,,,,,,,,,,,,,,,,54,,,,,,,,,,,,,,469.227000000712,,response,,,,100,,,,,,,Space,keypress(Space),,,,,,,,-- --- ---- --- ------ ----- ------- ---- -- --- ------- --<br>------- ---------- ------ -- ----- -- ----- -- ---- ------<br>--- ----- --- --- ------ -------- ----- --- ------ ----- --<br>----- ----- ---------- --- --- ------ ------ ---- -- ------<br>------- The ------ ----- --- ---- ------- -- ---- --- --<br>------- ------,249205.8100000031,249204.1050000007,248718.252,248733.84000000078,248734.878,249217.032,,44,The
screen,html.Screen,2_1_1_1_45,2021-04-26T14:30:27.877Z,,,,,,,,,,,,,,,,,54,,,,,,,,,,,,,,507.0830000008864,,response,,,,100,,,,,,,Space,keypress(Space),,,,,,,,-- --- ---- --- ------ ----- ------- ---- -- --- ------- --<br>------- ---------- ------ -- ----- -- ----- -- ---- ------<br>--- ----- --- --- ------ -------- ----- --- ------ ----- --<br>----- ----- ---------- --- --- ------ ------ ---- -- ------<br>------- --- French ----- --- ---- ------- -- ---- --- --<br>------- ------,249725.74000000168,249724.1150000009,249200.406,249205.9500000032,249217.032,249732.438,,45,French
screen,html.Screen,2_1_1_1_46,2021-04-26T14:30:28.269Z,,,,,,,,,,,,,,,,,54,,,,,,,,,,,,,,383.6570000012289,,response,,,,100,,,,,,,Space,keypress(Space),,,,,,,,-- --- ---- --- ------ ----- ------- ---- -- --- ------- --<br>------- ---------- ------ -- ----- -- ----- -- ---- ------<br>--- ----- --- --- ------ -------- ----- --- ------ ----- --<br>----- ----- ---------- --- --- ------ ------ ---- -- ------<br>------- --- ------ state --- ---- ------- -- ---- --- --<br>------- ------,250117.75500000294,250116.09500000122,249715.812,249725.88499999983,249732.438,250131.462,,46,state
screen,html.Screen,2_1_1_1_47,2021-04-26T14:30:28.461Z,,,,,,,,,,,,,,,,,54,,,,,,,,,,,,,,176.64300000006915,,response,,,,100,,,,,,,Space,keypress(Space),,,,,,,,-- --- ---- --- ------ ----- ------- ---- -- --- ------- --<br>------- ---------- ------ -- ----- -- ----- -- ---- ------<br>--- ----- --- --- ------ -------- ----- --- ------ ----- --<br>----- ----- ---------- --- --- ------ ------ ---- -- ------<br>------- --- ------ ----- was ---- ------- -- ---- --- --<br>------- ------,250309.7600000001,250308.10500000007,250114.836,250117.9000000011,250131.462,250314.348,,47,was
screen,html.Screen,2_1_1_1_48,2021-04-26T14:30:28.773Z,,,,,,,,,,,,,,,,,54,,,,,,,,,,,,,,305.76700000153505,,response,,,,100,,,,,,,Space,keypress(Space),,,,,,,,-- --- ---- --- ------ ----- ------- ---- -- --- ------- --<br>------- ---------- ------ -- ----- -- ----- -- ---- ------<br>--- ----- --- --- ------ -------- ----- --- ------ ----- --<br>----- ----- ---------- --- --- ------ ------ ---- -- ------<br>------- --- ------ ----- --- left ------- -- ---- --- --<br>------- ------,250621.825000002,250620.11500000153,250297.722,250309.9000000002,250314.348,250630.242,,48,left
screen,html.Screen,2_1_1_1_49,2021-04-26T14:30:29.277Z,,,,,,,,,,,,,,,,,54,,,,,,,,,,,,,,493.77300000123796,,response,,,,100,,,,,,,Space,keypress(Space),,,,,,,,-- --- ---- --- ------ ----- ------- ---- -- --- ------- --<br>------- ---------- ------ -- ----- -- ----- -- ---- ------<br>--- ----- --- --- ------ -------- ----- --- ------ ----- --<br>----- ----- ---------- --- --- ------ ------ ---- -- ------<br>------- --- ------ ----- --- ---- without -- ---- --- --<br>------- ------,251125.63500000033,251124.01500000124,250613.616,250621.97000000015,250630.242,251129.022,,49,without
screen,html.Screen,2_1_1_1_50,2021-04-26T14:30:29.613Z,,,,,,,,,,,,,,,,,54,,,,,,,,,,,,,,331.2230000020354,,response,,,,100,,,,,,,Space,keypress(Space),,,,,,,,-- --- ---- --- ------ ----- ------- ---- -- --- ------- --<br>------- ---------- ------ -- ----- -- ----- -- ---- ------<br>--- ----- --- --- ------ -------- ----- --- ------ ----- --<br>----- ----- ---------- --- --- ------ ------ ---- -- ------<br>------- --- ------ ----- --- ---- ------- an ---- --- --<br>------- ------,251462.00000000317,251460.24500000203,251112.396,251125.78000000212,251129.022,251478.168,,50,an
screen,html.Screen,2_1_1_1_51,2021-04-26T14:30:29.933Z,,,,,,,,,,,,,,,,,54,,,,,,,,,,,,,,301.8720000014582,,response,,,,100,,,,,,,Space,keypress(Space),,,,,,,,-- --- ---- --- ------ ----- ------- ---- -- --- ------- --<br>------- ---------- ------ -- ----- -- ----- -- ---- ------<br>--- ----- --- --- ------ -------- ----- --- ------ ----- --<br>----- ----- ---------- --- --- ------ ------ ---- -- ------<br>------- --- ------ ----- --- ---- ------- -- easy --- --<br>------- ------,251781.73500000048,251780.04000000146,251461.542,251462.14500000133,251478.168,251794.062,,51,easy
screen,html.Screen,2_1_1_1_52,2021-04-26T14:30:30.165Z,,,,,,,,,,,,,,,,,54,,,,,,,,,,,,,,218.0480000032985,,response,,,,100,,,,,,,Space,keypress(Space),,,,,,,,-- --- ---- --- ------ ----- ------- ---- -- --- ------- --<br>------- ---------- ------ -- ----- -- ----- -- ---- ------<br>--- ----- --- --- ------ -------- ----- --- ------ ----- --<br>----- ----- ---------- --- --- ------ ------ ---- -- ------<br>------- --- ------ ----- --- ---- ------- -- ---- way --<br>------- ------,252013.91500000318,252012.1100000033,251777.436,251781.88000000227,251794.062,252026.826,,52,way
screen,html.Screen,2_1_1_1_53,2021-04-26T14:30:30.517Z,,,,,,,,,,,,,,,,,54,,,,,,,,,,,,,,337.3340000009921,,response,,,,100,,,,,,,Space,keypress(Space),,,,,,,,-- --- ---- --- ------ ----- ------- ---- -- --- ------- --<br>------- ---------- ------ -- ----- -- ----- -- ---- ------<br>--- ----- --- --- ------ -------- ----- --- ------ ----- --<br>----- ----- ---------- --- --- ------ ------ ---- -- ------<br>------- --- ------ ----- --- ---- ------- -- ---- --- of<br>------- ------,252366.0000000018,252364.160000001,252010.2,252014.06000000134,252026.826,252375.972,,53,of
screen,html.Screen,2_1_1_1_54,2021-04-26T14:30:30.877Z,,,,,,,,,,,,,,,,,54,,,,,,,,,,,,,,348.18800000156625,,response,,,,100,,,,,,,Space,keypress(Space),,,,,,,,-- --- ---- --- ------ ----- ------- ---- -- --- ------- --<br>------- ---------- ------ -- ----- -- ----- -- ---- ------<br>--- ----- --- --- ------ -------- ----- --- ------ ----- --<br>----- ----- ---------- --- --- ------ ------ ---- -- ------<br>------- --- ------ ----- --- ---- ------- -- ---- --- --<br>raising ------,252725.9800000029,252724.16000000158,252359.346,252366.1400000019,252375.972,252741.744,,54,raising
screen,html.Screen,2_1_1_1_55,2021-04-26T14:30:31.317Z,,,,,,,,,,,,,,,,,54,,,,,,,,,,,,,,422.3660000015225,,response,,,,100,,,,,,,Space,keypress(Space),,,,,,,,-- --- ---- --- ------ ----- ------- ---- -- --- ------- --<br>------- ---------- ------ -- ----- -- ----- -- ---- ------<br>--- ----- --- --- ------ -------- ----- --- ------ ----- --<br>----- ----- ---------- --- --- ------ ------ ---- -- ------<br>------- --- ------ ----- --- ---- ------- -- ---- --- --<br>------- money.,253165.7550000018,253164.11000000153,252725.118,252726.12500000105,252741.744,253174.02,,55,money.
Item 100,flow.Loop,2_1_1_1,2021-04-26T14:30:31.317Z,,,,,,,,,,,,,,,,,,,,,,,,,,,,,,,21007.172000001534,,completion,,,,,C,,,,,,,,,,,silence,,,,,253166.00000000108,253164.11000000153,232140.312,232141.95500000278,232156.938,253174.02,,,
Question 1,html.Screen,2_1_1_2,2021-04-26T14:30:33.478Z,,,,,,,,,,,,,,,,,,,,,,,,,,,,true,TRUE,,2151.170000003214,,response,,,,100,C,,,,,,TRUE,click #choice-1,,,,silence,,,,,255326.87000000078,255325.1900000032,253157.394,253166.115,253174.02,255352.956,,,
Question 2,html.Screen,2_1_1_3,2021-04-26T14:30:35.150Z,,,,,,,,,,,,,,,,,,,,,,,,,,,,true,FALSE,,1644.304000000091,,response,,,,100,C,,,,,,FALSE,click #choice-2,,,,silence,,,,,256999.02500000098,256997.2600000001,255336.33,255327.00500000283,255352.956,257015.556,,,
Item 100,flow.Sequence,2_1_1,2021-04-26T14:30:35.150Z,,,,,,,,,,,,,,,,,,,,,,,,,,,,,,,34833.48700000011,,completion,,,,,,,,,,,,,,,,,,,,,256999.2650000022,256997.2600000001,222147.147,222152.9150000024,222163.773,257015.556,,,
End of Practice,html.Page,2_1_2,2021-04-26T14:30:38.478Z,,,,,,,,,,,,,,,,,,,,,,,,,,,,,,,3311.2090000016033,,form submission,,,,,,,,,,,,,,,,,,,,,260327.01500000258,260326.76500000161,256998.93,256999.3800000011,257015.556,260340.756,,,
Practice,flow.Sequence,2_1,2021-04-26T14:30:38.478Z,,,,,,,,,,,,,,,,,,,,,,,,,,,,,,,85834.54800000161,,completion,,,,,,,,,,,,,,,,,,,,,260327.2050000014,260326.76500000161,174475.591,174469.90000000005,174492.217,260340.756,,,
Trap_instruction,html.Page,2_2_0,2021-04-26T14:30:44.149Z,,,,,,,,,,,,,,,,,,,,,,,,,,,,,,,5656.919000002381,,form submission,,,,,,,,,,,,,,,,,,,,,265998.0350000005,265997.6750000024,260324.13,260327.34500000151,260340.756,266060.1,,,
trap_trial,html.Screen,2_2_1,2021-04-26T14:30:47.539Z,,,,,,,,,,,,,,,,,,,,,,,,,,,,true,1,,3326.900000002468,,response,,,,,,,,,,,1,click #choice-1,,,,,,,,,269388.75000000186,269387.00000000244,265993.596,265998.2100000016,266060.1,269402.925,,,
end of trap trial,html.Page,2_2_2,2021-04-26T14:30:49.120Z,,,,,,,,,,,,,,,,,,,,,,,,,,,,,,,1566.6450000011246,,form submission,,,,,,,,,,,,,,,,,,,,,270969.83499999985,270969.5700000011,269386.299,269388.895,269402.925,270982.395,,,
Trap 1,flow.Sequence,2_2,2021-04-26T14:30:49.121Z,,,,,,,,,,,,,,,,,,,,,,,,,,,,,,,10628.814000001119,,completion,,,,,,,,,,,,,,,,,,,,,270970.04500000185,270969.5700000011,260324.13,260327.30500000253,260340.756,270982.395,,,
Standby,html.Page,2_3_0,2021-04-26T14:30:57.116Z,,,,,,,,,,,,,,,,,,,,,,,,,,,,,,,7997.105999999971,,timeout,,,,,,,,,,,,,,,,,,,,,278965.41500000237,278962.875,270965.769,270970.2000000034,270982.395,278979.501,,,
Holding screen,html.Screen,2_3_1_0_0,2021-04-26T14:31:04.116Z,,,,,,,,,,,,,,,,,,,,,,,,,,,,,,,7000.635000000009,,timeout,,,,,,,,,,,,,,,,,,,,,285965.575000002,285963.51,278962.875,278965.65499999997,278979.501,285980.136,,,
screen,html.Screen,2_3_1_0_1_0,2021-04-26T14:31:05.765Z,,,,,,,,,,,,,,,,,2,,,,,,,,,,,,,,1631.989000003261,,response,,,,1,C,,,,,,Space,keypress(Space),,,,instrumental,,,,Two ---- ------ --- ------- ---------- ------- ----------<br>--- --------- --- ----------- ------- ----- ------- ---<br>--------- ---- -- --- ---- -- --------- -- ---- -------<br>-- --------- ------ --- ----- ------ ---- --- --------- --<br>------ - ---- -- --- ----------- ------- ---- ----- -----<br>--- -------- - ------ ---- -- ----- ---- --- --- -----------<br>-- -------,287614.43500000314,287612.12500000326,285963.51,285965.8049999998,285980.136,287626.11,,0,Two
screen,html.Screen,2_3_1_0_1_1,2021-04-26T14:31:06.100Z,,,,,,,,,,,,,,,,,2,,,,,,,,,,,,,,322.2050000014715,,response,,,,1,C,,,,,,Space,keypress(Space),,,,instrumental,,,,--- days ------ --- ------- ---------- ------- ----------<br>--- --------- --- ----------- ------- ----- ------- ---<br>--------- ---- -- --- ---- -- --------- -- ---- -------<br>-- --------- ------ --- ----- ------ ---- --- --------- --<br>------ - ---- -- --- ----------- ------- ---- ----- -----<br>--- -------- - ------ ---- -- ----- ---- --- --- -----------<br>-- -------,287950.1850000015,287948.31500000146,287609.484,287614.61000000057,287626.11,287958.63,,1,days
screen,html.Screen,2_3_1_0_1_2,2021-04-26T14:31:06.628Z,,,,,,,,,,,,,,,,,2,,,,,,,,,,,,,,517.609999999986,,response,,,,1,C,,,,,,Space,keypress(Space),,,,instrumental,,,,"--- ---- later, --- ------- ---------- ------- ----------<br>--- --------- --- ----------- ------- ----- ------- ---<br>--------- ---- -- --- ---- -- --------- -- ---- -------<br>-- --------- ------ --- ----- ------ ---- --- --------- --<br>------ - ---- -- --- ----------- ------- ---- ----- -----<br>--- -------- - ------ ---- -- ----- ---- --- --- -----------<br>-- -------",288478.19000000163,288476.24,287942.004,287950.3250000016,287958.63,288490.662,,2,"later,"
screen,html.Screen,2_3_1_0_1_3,2021-04-26T14:31:06.996Z,,,,,,,,,,,,,,,,,2,,,,,,,,,,,,,,353.50800000026356,,response,,,,1,C,,,,,,Space,keypress(Space),,,,instrumental,,,,--- ---- ------ the ------- ---------- ------- ----------<br>--- --------- --- ----------- ------- ----- ------- ---<br>--------- ---- -- --- ---- -- --------- -- ---- -------<br>-- --------- ------ --- ----- ------ ---- --- --------- --<br>------ - ---- -- --- ----------- ------- ---- ----- -----<br>--- -------- - ------ ---- -- ----- ---- --- --- -----------<br>-- -------,288846.0400000004,288844.1700000003,288474.036,288478.3300000017,288490.662,288856.434,,3,the
screen,html.Screen,2_3_1_0_1_4,2021-04-26T14:31:07.332Z,,,,,,,,,,,,,,,,,2,,,,,,,,,,,,,,323.7760000022827,,response,,,,1,C,,,,,,Space,keypress(Space),,,,instrumental,,,,--- ---- ------ --- British ---------- ------- ----------<br>--- --------- --- ----------- ------- ----- ------- ---<br>--------- ---- -- --- ---- -- --------- -- ---- -------<br>-- --------- ------ --- ----- ------ ---- --- --------- --<br>------ - ---- -- --- ----------- ------- ---- ----- -----<br>--- -------- - ------ ---- -- ----- ---- --- --- -----------<br>-- -------,289182.13500000275,289180.2100000023,288839.808,288846.1750000024,288856.434,289188.954,,4,British
screen,html.Screen,2_3_1_0_1_5,2021-04-26T14:31:07.716Z,,,,,,,,,,,,,,,,,2,,,,,,,,,,,,,,375.2610000021523,,response,,,,1,C,,,,,,Space,keypress(Space),,,,instrumental,,,,--- ---- ------ --- ------- astronomer ------- ----------<br>--- --------- --- ----------- ------- ----- ------- ---<br>--------- ---- -- --- ---- -- --------- -- ---- -------<br>-- --------- ------ --- ----- ------ ---- --- --------- --<br>------ - ---- -- --- ----------- ------- ---- ----- -----<br>--- -------- - ------ ---- -- ----- ---- --- --- -----------<br>-- -------,289566.1700000019,289564.2150000022,289172.328,289182.2850000026,289188.954,289571.352,,5,astronomer
screen,html.Screen,2_3_1_0_1_6,2021-04-26T14:31:08.148Z,,,,,,,,,,,,,,,,,2,,,,,,,,,,,,,,424.8580000011134,,response,,,,1,C,,,,,,Space,keypress(Space),,,,instrumental,,,,--- ---- ------ --- ------- ---------- Richard ----------<br>--- --------- --- ----------- ------- ----- ------- ---<br>--------- ---- -- --- ---- -- --------- -- ---- -------<br>-- --------- ------ --- ----- ------ ---- --- --------- --<br>------ - ---- -- --- ----------- ------- ---- ----- -----<br>--- -------- - ------ ---- -- ----- ---- --- --- -----------<br>-- -------,289998.2950000012,289996.2100000011,289554.726,289566.31500000006,289571.352,290004.601,,6,Richard
screen,html.Screen,2_3_1_0_1_7,2021-04-26T14:31:08.492Z,,,,,,,,,,,,,,,,,2,,,,,,,,,,,,,,335.5590000033844,,response,,,,1,C,,,,,,Space,keypress(Space),,,,instrumental,,,,--- ---- ------ --- ------- ---------- ------- Carrington<br>--- --------- --- ----------- ------- ----- ------- ---<br>--------- ---- -- --- ---- -- --------- -- ---- -------<br>-- --------- ------ --- ----- ------ ---- --- --------- --<br>------ - ---- -- --- ----------- ------- ---- ----- -----<br>--- -------- - ------ ---- -- ----- ---- --- --- -----------<br>-- -------,290341.7750000008,290340.1600000034,289987.975,289998.43500000134,290004.601,290353.747,,7,Carrington
screen,html.Screen,2_3_1_0_1_8,2021-04-26T14:31:08.828Z,,,,,,,,,,,,,,,,,2,,,,,,,,,,,,,,322.48800000268966,,response,,,,1,C,,,,,,Space,keypress(Space),,,,instrumental,,,,--- ---- ------ --- ------- ---------- ------- ----------<br>was --------- --- ----------- ------- ----- ------- ---<br>--------- ---- -- --- ---- -- --------- -- ---- -------<br>-- --------- ------ --- ----- ------ ---- --- --------- --<br>------ - ---- -- --- ----------- ------- ---- ----- -----<br>--- -------- - ------ ---- -- ----- ---- --- --- -----------<br>-- -------,290678.09000000125,290676.23500000266,290337.121,290341.91500000085,290353.747,290686.267,,8,was
screen,html.Screen,2_3_1_0_1_9,2021-04-26T14:31:09.044Z,,,,,,,,,,,,,,,,,2,,,,,,,,,,,,,,205.872999999905,,response,,,,1,C,,,,,,Space,keypress(Space),,,,instrumental,,,,--- ---- ------ --- ------- ---------- ------- ----------<br>--- observing --- ----------- ------- ----- ------- ---<br>--------- ---- -- --- ---- -- --------- -- ---- -------<br>-- --------- ------ --- ----- ------ ---- --- --------- --<br>------ - ---- -- --- ----------- ------- ---- ----- -----<br>--- -------- - ------ ---- -- ----- ---- --- --- -----------<br>-- -------,290893.86500000185,290892.1399999999,290669.641,290678.235000003,290686.267,290902.405,,9,observing
screen,html.Screen,2_3_1_0_1_10,2021-04-26T14:31:09.404Z,,,,,,,,,,,,,,,,,2,,,,,,,,,,,,,,349.8150000020978,,response,,,,1,C,,,,,,Space,keypress(Space),,,,instrumental,,,,--- ---- ------ --- ------- ---------- ------- ----------<br>--- --------- the ----------- ------- ----- ------- ---<br>--------- ---- -- --- ---- -- --------- -- ---- -------<br>-- --------- ------ --- ----- ------ ---- --- --------- --<br>------ - ---- -- --- ----------- ------- ---- ----- -----<br>--- -------- - ------ ---- -- ----- ---- --- --- -----------<br>-- -------,291254.17000000016,291252.2200000021,290885.779,290894.01,290902.405,291268.177,,10,the
screen,html.Screen,2_3_1_0_1_11,2021-04-26T14:31:09.724Z,,,,,,,,,,,,,,,,,2,,,,,,,,,,,,,,304.0630000013043,,response,,,,1,C,,,,,,Space,keypress(Space),,,,instrumental,,,,--- ---- ------ --- ------- ---------- ------- ----------<br>--- --------- --- interesting ------- ----- ------- ---<br>--------- ---- -- --- ---- -- --------- -- ---- -------<br>-- --------- ------ --- ----- ------ ---- --- --------- --<br>------ - ---- -- --- ----------- ------- ---- ----- -----<br>--- -------- - ------ ---- -- ----- ---- --- --- -----------<br>-- -------,291574.03500000143,291572.24000000133,291251.551,291254.3100000003,291268.177,291584.071,,11,interesting
screen,html.Screen,2_3_1_0_1_12,2021-04-26T14:31:10.052Z,,,,,,,,,,,,,,,,,2,,,,,,,,,,,,,,316.0340000006254,,response,,,,1,C,,,,,,Space,keypress(Space),,,,instrumental,,,,--- ---- ------ --- ------- ---------- ------- ----------<br>--- --------- --- ----------- sunspot ----- ------- ---<br>--------- ---- -- --- ---- -- --------- -- ---- -------<br>-- --------- ------ --- ----- ------ ---- --- --------- --<br>------ - ---- -- --- ----------- ------- ---- ----- -----<br>--- -------- - ------ ---- -- ----- ---- --- --- -----------<br>-- -------,291901.93,291900.1050000006,291567.445,291574.18000000325,291584.071,291916.591,,12,sunspot
screen,html.Screen,2_3_1_0_1_13,2021-04-26T14:31:10.412Z,,,,,,,,,,,,,,,,,2,,,,,,,,,,,,,,343.5240000009071,,response,,,,1,C,,,,,,Space,keypress(Space),,,,instrumental,,,,--- ---- ------ --- ------- ---------- ------- ----------<br>--- --------- --- ----------- ------- group ------- ---<br>--------- ---- -- --- ---- -- --------- -- ---- -------<br>-- --------- ------ --- ----- ------ ---- --- --------- --<br>------ - ---- -- --- ----------- ------- ---- ----- -----<br>--- -------- - ------ ---- -- ----- ---- --- --- -----------<br>-- -------,292261.8650000004,292260.1150000009,291899.965,291902.0750000018,291916.591,292265.737,,13,group
screen,html.Screen,2_3_1_0_1_14,2021-04-26T14:31:10.988Z,,,,,,,,,,,,,,,,,2,,,,,,,,,,,,,,570.4980000024661,,response,,,,1,C,,,,,,Space,keypress(Space),,,,instrumental,,,,--- ---- ------ --- ------- ---------- ------- ----------<br>--- --------- --- ----------- ------- ----- through ---<br>--------- ---- -- --- ---- -- --------- -- ---- -------<br>-- --------- ------ --- ----- ------ ---- --- --------- --<br>------ - ---- -- --- ----------- ------- ---- ----- -----<br>--- -------- - ------ ---- -- ----- ---- --- --- -----------<br>-- -------,292838.0300000026,292836.2350000025,292249.111,292262.0100000022,292265.737,292847.647,,14,through
screen,html.Screen,2_3_1_0_1_15,2021-04-26T14:31:11.372Z,,,,,,,,,,,,,,,,,2,,,,,,,,,,,,,,372.5580000014743,,response,,,,1,C,,,,,,Space,keypress(Space),,,,instrumental,,,,--- ---- ------ --- ------- ---------- ------- ----------<br>--- --------- --- ----------- ------- ----- ------- his<br>--------- ---- -- --- ---- -- --------- -- ---- -------<br>-- --------- ------ --- ----- ------ ---- --- --------- --<br>------ - ---- -- --- ----------- ------- ---- ----- -----<br>--- -------- - ------ ---- -- ----- ---- --- --- -----------<br>-- -------,293222.135,293220.2050000015,292831.021,292838.1700000027,292847.647,293230.045,,15,his
screen,html.Screen,2_3_1_0_1_16,2021-04-26T14:31:11.644Z,,,,,,,,,,,,,,,,,2,,,,,,,,,,,,,,262.1099999999278,,response,,,,1,C,,,,,,Space,keypress(Space),,,,instrumental,,,,--- ---- ------ --- ------- ---------- ------- ----------<br>--- --------- --- ----------- ------- ----- ------- ---<br>telescope ---- -- --- ---- -- --------- -- ---- -------<br>-- --------- ------ --- ----- ------ ---- --- --------- --<br>------ - ---- -- --- ----------- ------- ---- ----- -----<br>--- -------- - ------ ---- -- ----- ---- --- --- -----------<br>-- -------,293494.08500000206,293492.1549999999,293213.419,293222.2750000001,293230.045,293496.061,,16,telescope
screen,html.Screen,2_3_1_0_1_17,2021-04-26T14:31:12.020Z,,,,,,,,,,,,,,,,,2,,,,,,,,,,,,,,372.15900000033434,,response,,,,1,C,,,,,,Space,keypress(Space),,,,instrumental,,,,--- ---- ------ --- ------- ---------- ------- ----------<br>--- --------- --- ----------- ------- ----- ------- ---<br>--------- when -- --- ---- -- --------- -- ---- -------<br>-- --------- ------ --- ----- ------ ---- --- --------- --<br>------ - ---- -- --- ----------- ------- ---- ----- -----<br>--- -------- - ------ ---- -- ----- ---- --- --- -----------<br>-- -------,293870.2950000006,293868.2200000003,293479.435,293494.2300000002,293496.061,293878.459,,17,when
screen,html.Screen,2_3_1_0_1_18,2021-04-26T14:31:12.356Z,,,,,,,,,,,,,,,,,2,,,,,,,,,,,,,,325.6510000024573,,response,,,,1,C,,,,,,Space,keypress(Space),,,,instrumental,,,,--- ---- ------ --- ------- ---------- ------- ----------<br>--- --------- --- ----------- ------- ----- ------- ---<br>--------- ---- he --- ---- -- --------- -- ---- -------<br>-- --------- ------ --- ----- ------ ---- --- --------- --<br>------ - ---- -- --- ----------- ------- ---- ----- -----<br>--- -------- - ------ ---- -- ----- ---- --- --- -----------<br>-- -------,294205.9399999998,294204.11000000243,293861.833,293870.4450000005,293878.459,294210.979,,18,he
screen,html.Screen,2_3_1_0_1_19,2021-04-26T14:31:12.660Z,,,,,,,,,,,,,,,,,2,,,,,,,,,,,,,,297.241000003356,,response,,,,1,C,,,,,,Space,keypress(Space),,,,instrumental,,,,--- ---- ------ --- ------- ---------- ------- ----------<br>--- --------- --- ----------- ------- ----- ------- ---<br>--------- ---- -- saw ---- -- --------- -- ---- -------<br>-- --------- ------ --- ----- ------ ---- --- --------- --<br>------ - ---- -- --- ----------- ------- ---- ----- -----<br>--- -------- - ------ ---- -- ----- ---- --- --- -----------<br>-- -------,294510.0600000005,294508.22000000335,294194.353,294206.09000000334,294210.979,294526.873,,19,saw
screen,html.Screen,2_3_1_0_1_20,2021-04-26T14:31:12.876Z,,,,,,,,,,,,,,,,,2,,,,,,,,,,,,,,197.2320000011241,,response,,,,1,C,,,,,,Space,keypress(Space),,,,instrumental,,,,--- ---- ------ --- ------- ---------- ------- ----------<br>--- --------- --- ----------- ------- ----- ------- ---<br>--------- ---- -- --- what -- --------- -- ---- -------<br>-- --------- ------ --- ----- ------ ---- --- --------- --<br>------ - ---- -- --- ----------- ------- ---- ----- -----<br>--- -------- - ------ ---- -- ----- ---- --- --- -----------<br>-- -------,294725.83000000304,294724.10500000115,294510.247,294510.2050000023,294526.873,294743.011,,20,what
screen,html.Screen,2_3_1_0_1_21,2021-04-26T14:31:13.219Z,,,,,,,,,,,,,,,,,2,,,,,,,,,,,,,,324.87900000211084,,response,,,,1,C,,,,,,Space,keypress(Space),,,,instrumental,,,,--- ---- ------ --- ------- ---------- ------- ----------<br>--- --------- --- ----------- ------- ----- ------- ---<br>--------- ---- -- --- ---- he --------- -- ---- -------<br>-- --------- ------ --- ----- ------ ---- --- --------- --<br>------ - ---- -- --- ----------- ------- ---- ----- -----<br>--- -------- - ------ ---- -- ----- ---- --- --- -----------<br>-- -------,295069.3250000004,295067.8900000021,294726.385,294725.9750000012,294743.011,295075.531,,21,he
screen,html.Screen,2_3_1_0_1_22,2021-04-26T14:31:13.452Z,,,,,,,,,,,,,,,,,2,,,,,,,,,,,,,,224.6340000005439,,response,,,,1,C,,,,,,Space,keypress(Space),,,,instrumental,,,,--- ---- ------ --- ------- ---------- ------- ----------<br>--- --------- --- ----------- ------- ----- ------- ---<br>--------- ---- -- --- ---- -- described -- ---- -------<br>-- --------- ------ --- ----- ------ ---- --- --------- --<br>------ - ---- -- --- ----------- ------- ---- ----- -----<br>--- -------- - ------ ---- -- ----- ---- --- --- -----------<br>-- -------,295302.0350000006,295300.16500000056,295058.905,295069.485,295075.531,295308.295,,22,described
screen,html.Screen,2_3_1_0_1_23,2021-04-26T14:31:13.860Z,,,,,,,,,,,,,,,,,2,,,,,,,,,,,,,,399.8049999998766,,response,,,,1,C,,,,,,Space,keypress(Space),,,,instrumental,,,,--- ---- ------ --- ------- ---------- ------- ----------<br>--- --------- --- ----------- ------- ----- ------- ---<br>--------- ---- -- --- ---- -- --------- as ---- -------<br>-- --------- ------ --- ----- ------ ---- --- --------- --<br>------ - ---- -- --- ----------- ------- ---- ----- -----<br>--- -------- - ------ ---- -- ----- ---- --- --- -----------<br>-- -------,295709.8900000019,295708.09999999986,295291.669,295302.18500000046,295308.295,295723.945,,23,as
screen,html.Screen,2_3_1_0_1_24,2021-04-26T14:31:14.292Z,,,,,,,,,,,,,,,,,2,,,,,,,,,,,,,,416.1550000005518,,response,,,,1,C,,,,,,Space,keypress(Space),,,,instrumental,,,,"--- ---- ------ --- ------- ---------- ------- ----------<br>--- --------- --- ----------- ------- ----- ------- ---<br>--------- ---- -- --- ---- -- --------- -- ""two -------<br>-- --------- ------ --- ----- ------ ---- --- --------- --<br>------ - ---- -- --- ----------- ------- ---- ----- -----<br>--- -------- - ------ ---- -- ----- ---- --- --- -----------<br>-- -------",296141.7900000015,296140.10000000056,295707.319,295710.030000002,295723.945,296156.221,,24,"""two"
screen,html.Screen,2_3_1_0_1_25,2021-04-26T14:31:14.660Z,,,,,,,,,,,,,,,,,2,,,,,,,,,,,,,,351.9889999999432,,response,,,,1,C,,,,,,Space,keypress(Space),,,,instrumental,,,,--- ---- ------ --- ------- ---------- ------- ----------<br>--- --------- --- ----------- ------- ----- ------- ---<br>--------- ---- -- --- ---- -- --------- -- ---- patches<br>-- --------- ------ --- ----- ------ ---- --- --------- --<br>------ - ---- -- --- ----------- ------- ---- ----- -----<br>--- -------- - ------ ---- -- ----- ---- --- --- -----------<br>-- -------,296510.16000000166,296508.20999999996,296139.595,296141.92499999993,296156.221,296521.993,,25,patches
screen,html.Screen,2_3_1_0_1_26,2021-04-26T14:31:15.108Z,,,,,,,,,,,,,,,,,2,,,,,,,,,,,,,,434.2220000019297,,response,,,,1,C,,,,,,Space,keypress(Space),,,,instrumental,,,,--- ---- ------ --- ------- ---------- ------- ----------<br>--- --------- --- ----------- ------- ----- ------- ---<br>--------- ---- -- --- ---- -- --------- -- ---- -------<br>of --------- ------ --- ----- ------ ---- --- --------- --<br>------ - ---- -- --- ----------- ------- ---- ----- -----<br>--- -------- - ------ ---- -- ----- ---- --- --- -----------<br>-- -------,296958.2550000014,296956.21500000195,296505.367,296510.3600000002,296521.993,296970.895,,26,of
screen,html.Screen,2_3_1_0_1_27,2021-04-26T14:31:15.412Z,,,,,,,,,,,,,,,,,2,,,,,,,,,,,,,,289.3150000003516,,response,,,,1,C,,,,,,Space,keypress(Space),,,,instrumental,,,,--- ---- ------ --- ------- ---------- ------- ----------<br>--- --------- --- ----------- ------- ----- ------- ---<br>--------- ---- -- --- ---- -- --------- -- ---- -------<br>-- intensely ------ --- ----- ------ ---- --- --------- --<br>------ - ---- -- --- ----------- ------- ---- ----- -----<br>--- -------- - ------ ---- -- ----- ---- --- --- -----------<br>-- -------,297261.97500000126,297260.21000000037,296954.269,296958.3950000015,296970.895,297270.163,,27,intensely
screen,html.Screen,2_3_1_0_1_28,2021-04-26T14:31:15.756Z,,,,,,,,,,,,,,,,,2,,,,,,,,,,,,,,334.04200000327546,,response,,,,1,C,,,,,,Space,keypress(Space),,,,instrumental,,,,--- ---- ------ --- ------- ---------- ------- ----------<br>--- --------- --- ----------- ------- ----- ------- ---<br>--------- ---- -- --- ---- -- --------- -- ---- -------<br>-- --------- bright --- ----- ------ ---- --- --------- --<br>------ - ---- -- --- ----------- ------- ---- ----- -----<br>--- -------- - ------ ---- -- ----- ---- --- --- -----------<br>-- -------,297606.2149999998,297604.2050000033,297253.537,297262.1250000011,297270.163,297619.309,,28,bright
screen,html.Screen,2_3_1_0_1_29,2021-04-26T14:31:16.093Z,,,,,,,,,,,,,,,,,2,,,,,,,,,,,,,,320.89600000262726,,response,,,,1,C,,,,,,Space,keypress(Space),,,,instrumental,,,,--- ---- ------ --- ------- ---------- ------- ----------<br>--- --------- --- ----------- ------- ----- ------- ---<br>--------- ---- -- --- ---- -- --------- -- ---- -------<br>-- --------- ------ and ----- ------ ---- --- --------- --<br>------ - ---- -- --- ----------- ------- ---- ----- -----<br>--- -------- - ------ ---- -- ----- ---- --- --- -----------<br>-- -------,297942.65000000084,297940.20500000264,297602.683,297606.35499999986,297619.309,297951.829,,29,and
screen,html.Screen,2_3_1_0_1_30,2021-04-26T14:31:16.356Z,,,,,,,,,,,,,,,,,2,,,,,,,,,,,,,,252.3860000015702,,response,,,,1,C,,,,,,Space,keypress(Space),,,,instrumental,,,,--- ---- ------ --- ------- ---------- ------- ----------<br>--- --------- --- ----------- ------- ----- ------- ---<br>--------- ---- -- --- ---- -- --------- -- ---- -------<br>-- --------- ------ --- white ------ ---- --- --------- --<br>------ - ---- -- --- ----------- ------- ---- ----- -----<br>--- -------- - ------ ---- -- ----- ---- --- --- -----------<br>-- -------,298206.15499999985,298204.2150000016,297935.203,297942.79000000097,297951.829,298217.845,,30,white
screen,html.Screen,2_3_1_0_1_31,2021-04-26T14:31:16.644Z,,,,,,,,,,,,,,,,,2,,,,,,,,,,,,,,274.3700000020908,,response,,,,1,C,,,,,,Space,keypress(Space),,,,instrumental,,,,"--- ---- ------ --- ------- ---------- ------- ----------<br>--- --------- --- ----------- ------- ----- ------- ---<br>--------- ---- -- --- ---- -- --------- -- ---- -------<br>-- --------- ------ --- ----- light"" ---- --- --------- --<br>------ - ---- -- --- ----------- ------- ---- ----- -----<br>--- -------- - ------ ---- -- ----- ---- --- --- -----------<br>-- -------",298494.06000000087,298492.21500000206,298201.219,298206.2949999999,298217.845,298500.487,,31,"light"""
screen,html.Screen,2_3_1_0_1_32,2021-04-26T14:31:16.892Z,,,,,,,,,,,,,,,,,2,,,,,,,,,,,,,,239.58800000150222,,response,,,,1,C,,,,,,Space,keypress(Space),,,,instrumental,,,,--- ---- ------ --- ------- ---------- ------- ----------<br>--- --------- --- ----------- ------- ----- ------- ---<br>--------- ---- -- --- ---- -- --------- -- ---- -------<br>-- --------- ------ --- ----- ------ over --- --------- --<br>------ - ---- -- --- ----------- ------- ---- ----- -----<br>--- -------- - ------ ---- -- ----- ---- --- --- -----------<br>-- -------,298741.8200000029,298740.0750000015,298483.861,298494.2050000027,298500.487,298749.877,,32,over
screen,html.Screen,2_3_1_0_1_33,2021-04-26T14:31:17.220Z,,,,,,,,,,,,,,,,,2,,,,,,,,,,,,,,318.21800000238,,response,,,,1,C,,,,,,Space,keypress(Space),,,,instrumental,,,,--- ---- ------ --- ------- ---------- ------- ----------<br>--- --------- --- ----------- ------- ----- ------- ---<br>--------- ---- -- --- ---- -- --------- -- ---- -------<br>-- --------- ------ --- ----- ------ ---- the --------- --<br>------ - ---- -- --- ----------- ------- ---- ----- -----<br>--- -------- - ------ ---- -- ----- ---- --- --- -----------<br>-- -------,299069.75500000047,299068.09500000236,298733.251,298741.97000000277,298749.877,299082.397,,33,the
screen,html.Screen,2_3_1_0_1_34,2021-04-26T14:31:17.524Z,,,,,,,,,,,,,,,,,2,,,,,,,,,,,,,,289.8729999998468,,response,,,,1,C,,,,,,Space,keypress(Space),,,,instrumental,,,,--- ---- ------ --- ------- ---------- ------- ----------<br>--- --------- --- ----------- ------- ----- ------- ---<br>--------- ---- -- --- ---- -- --------- -- ---- -------<br>-- --------- ------ --- ----- ------ ---- --- sunspots. --<br>------ - ---- -- --- ----------- ------- ---- ----- -----<br>--- -------- - ------ ---- -- ----- ---- --- --- -----------<br>-- -------,299374.1050000026,299372.26999999984,299065.771,299069.90000000224,299082.397,299381.665,,34,sunspots.
screen,html.Screen,2_3_1_0_1_35,2021-04-26T14:31:17.932Z,,,,,,,,,,,,,,,,,2,,,,,,,,,,,,,,398.5500000025495,,response,,,,1,C,,,,,,Space,keypress(Space),,,,instrumental,,,,--- ---- ------ --- ------- ---------- ------- ----------<br>--- --------- --- ----------- ------- ----- ------- ---<br>--------- ---- -- --- ---- -- --------- -- ---- -------<br>-- --------- ------ --- ----- ------ ---- --- --------- He<br>------ - ---- -- --- ----------- ------- ---- ----- -----<br>--- -------- - ------ ---- -- ----- ---- --- --- -----------<br>-- -------,299782.1199999999,299780.2150000025,299365.039,299374.25000000076,299381.665,299797.315,,35,He
