sender,sender_type,sender_id,timestamp,meta,,Blues,Classical,Country,Dance,Electronic,Folk,Gospel,Hip-Hop,Jazz,Latin,Musical/Film,New-age,Pop,Prolific_id,Provo_ID,R&B,Rap,Reggae,Religious,Rock,Soul,Swing,Traditional,age,artist_name,correct,correctResponse,distraction,duration,education,ended_on,familiarity,gender,headphone_check_performance,item,list,music_frequency,offensiveness,pleasantness,position_correct,preference,response,response_action,snippet_file,song_name,song_rating,sound,stimulus_1,stimulus_2,stimulus_3,text,time_commit,time_end,time_render,time_run,time_show,time_switch,url,word,word_ID
Prolific ID,html.Form,0,2021-04-27T08:38:09.222Z,"{""labjs_version"":""20.2.2"",""labjs_build"":{""flavor"":""production"",""commit"":""a25486e0c714a0ae2ce03ff94b7bb6896854dcfa""},""location"":""https://run.pavlovia.org/mvasilev/prolific_music_f/"",""userAgent"":""Mozilla/5.0 (Windows NT 10.0; Win64; x64) AppleWebKit/537.36 (KHTML, like Gecko) Chrome/90.0.4430.85 Safari/537.36"",""platform"":""Win32"",""language"":""en-US"",""locale"":""en-US"",""timeZone"":""Europe/London"",""timezoneOffset"":-60,""screen_width"":1366,""screen_height"":768,""scroll_width"":1366,""scroll_height"":577,""window_innerWidth"":1366,""window_innerHeight"":625,""devicePixelRatio"":1}",,,,,,,,,,,,,,,5d1a69d8f97a18001977e0d7,,,,,,,,,,,,,,,36158.5720000602,,form submission,,,,,,,,,,,,,,,,,,,,,49671.295000007376,49670.1400000602,13411.566,13419.16500008665,13511.568,49789.658,{},,
Introduction,html.Screen,1_0,2021-04-27T08:38:15.181Z,,,,,,,,,,,,,,,,,,,,,,,,,,,,,,,5837.712000118387,,response,,,,,,,,,,,continue,click button,,,,,,,,,55630.115000065416,55627.37000011839,49656.322,49672.40000003949,49789.658,55637.825,,,
Volume calibration,html.Screen,1_1,2021-04-27T08:38:35.103Z,,,,,,,,,,,,,,,,,,,,,,,,,,,,,,,19910.775000096488,,response,,,,,,,,,,,continue,click button,,,,,,,,,75552.29000002146,75548.60000009649,55621.158,55630.33000007272,55637.825,75555.441,,,
Task instructions,html.Screen,1_2,2021-04-27T08:38:49.833Z,,,,,,,,,,,,,,,,,,,,,,,,,,,,,,,14725.6539999839,,response,,,,,,,,,,,continue,click button,,,,,,,,,90282.12999994867,90281.0949999839,75538.774,75552.46499995701,75555.441,90284.979,,,
Sounds,html.Screen,1_3_0_0,2021-04-27T08:38:54.070Z,,,,,,,,,,,,,,,,,,,,,,,,,,,,,,,4245.930999999997,,timeout,,,,,,,,,3,,,,,,,,O,I,S,,94519.70000006258,94514.243,90268.312,90282.45500009507,90284.979,94530.91,,,
Judgement,html.Screen,1_3_0_1,2021-04-27T08:38:55.748Z,,,,,,,,,,,,,,,,,,,,,,,,,,,,true,3,,1665.1000000724162,,response,,,,,,,,,3,,3,click #choice-3,,,,,O,I,S,,96197.11500010453,96196.01000007242,94514.243,94520.1399999205,94530.91,96210.394,,,
Trial,flow.Sequence,1_3_0,2021-04-27T08:38:55.748Z,,,,,,,,,,,,,,,,,,,,,,,,,,,,,,,5911.031000072413,,completion,,,,,,,,,3,,,,,,,,O,I,S,,96197.52499996684,96196.01000007242,90268.312,90282.38500002772,90284.979,96210.394,,,
Sounds,html.Screen,1_3_1_0,2021-04-27T08:38:59.996Z,,,,,,,,,,,,,,,,,,,,,,,,,,,,,,,4250.695999999996,,timeout,,,,,,,,,2,,,,,,,,O,S,I,,100445.46500011347,100444.423,96193.727,96197.73499993607,96210.394,100461.09,,,
Judgement,html.Screen,1_3_1_1,2021-04-27T08:39:01.333Z,,,,,,,,,,,,,,,,,,,,,,,,,,,,true,2,,1319.9500000307744,,response,,,,,,,,,2,,2,click #choice-2,,,,,O,S,I,,101782.13499998674,101781.04000003077,100444.423,100445.8099999465,100461.09,101790.954,,,
Trial,flow.Sequence,1_3_1,2021-04-27T08:39:01.333Z,,,,,,,,,,,,,,,,,,,,,,,,,,,,,,,5570.646000030771,,completion,,,,,,,,,2,,,,,,,,O,S,I,,101782.4299999047,101781.04000003077,96193.727,96197.67499994487,96210.394,101790.954,,,
Sounds,html.Screen,1_3_2_0,2021-04-27T08:39:05.578Z,,,,,,,,,,,,,,,,,,,,,,,,,,,,,,,4251.740000000005,,timeout,,,,,,,,,1,,,,,,,,S,O,I,,106027.71500009112,106026.027,101774.287,101782.62499999255,101790.954,106042.694,,,
Judgement,html.Screen,1_3_2_1,2021-04-27T08:39:07.059Z,,,,,,,,,,,,,,,,,,,,,,,,,,,,true,1,,1464.5560000242112,,response,,,,,,,,,1,,1,click #choice-1,,,,,S,O,I,,107508.35000001825,107507.25000002421,106026.027,106028.02000008523,106042.694,107523.007,,,
Trial,flow.Sequence,1_3_2,2021-04-27T08:39:07.059Z,,,,,,,,,,,,,,,,,,,,,,,,,,,,,,,5716.2960000242165,,completion,,,,,,,,,1,,,,,,,,S,O,I,,107508.61999997869,107507.25000002421,101774.287,101782.55999996327,101790.954,107523.007,,,
Sounds,html.Screen,1_3_3_0,2021-04-27T08:39:11.315Z,,,,,,,,,,,,,,,,,,,,,,,,,,,,,,,4256.266000000003,,timeout,,,,,,,,,3,,,,,,,,I,O,S,,111764.25500004552,111762.606,107506.34,107508.82499990985,107523.007,111779.273,,,
Judgement,html.Screen,1_3_3_1,2021-04-27T08:39:12.170Z,,,,,,,,,,,,,,,,,,,,,,,,,,,,true,3,,839.4320000298758,,response,,,,,,,,,3,,3,click #choice-3,,,,,I,O,S,,112619.65000000782,112618.70500002988,111762.606,111764.54999996349,111779.273,112619.605,,,
Trial,flow.Sequence,1_3_3,2021-04-27T08:39:12.171Z,,,,,,,,,,,,,,,,,,,,,,,,,,,,,,,5095.698000029879,,completion,,,,,,,,,3,,,,,,,,I,O,S,,112619.91499993019,112618.70500002988,107506.34,107508.7600001134,107523.007,112619.605,,,
Sounds,html.Screen,1_3_4_0,2021-04-27T08:39:16.407Z,,,,,,,,,,,,,,,,,,,,,,,,,,,,,,,4251.396000000008,,timeout,,,,,,,,,1,,,,,,,,S,I,O,,116856.14000004716,116854.334,112602.938,112620.09499990381,112619.605,116871.001,,,
Judgement,html.Screen,1_3_4_1,2021-04-27T08:39:17.075Z,,,,,,,,,,,,,,,,,,,,,,,,,,,,true,1,,652.2440000476054,,response,,,,,,,,,1,,1,click #choice-1,,,,,S,I,O,,117524.2000001017,117523.24500004761,116854.334,116856.44500004128,116871.001,117532.09,,,
Trial,flow.Sequence,1_3_4,2021-04-27T08:39:17.075Z,,,,,,,,,,,,,,,,,,,,,,,,,,,,,,,4903.640000047613,,completion,,,,,,,,,1,,,,,,,,S,I,O,,117524.4450001046,117523.24500004761,112602.938,112620.03999995068,112619.605,117532.09,,,
Sounds,html.Screen,1_3_5_0,2021-04-27T08:39:21.319Z,,,,,,,,,,,,,,,,,,,,,,,,,,,,,,,4251.366000000009,,timeout,,,,,,,,,2,,,,,,,,I,S,O,,121768.03999999538,121766.789,117515.423,117524.61500000209,117532.09,121783.456,,,
Judgement,html.Screen,1_3_5_1,2021-04-27T08:39:21.864Z,,,,,,,,,,,,,,,,,,,,,,,,,,,,true,2,,528.7339999678079,,response,,,,,,,,,2,,2,click #choice-2,,,,,I,S,O,,122313.4349999018,122312.18999996781,121766.789,121768.3449999895,121783.456,122328.13,,,
Trial,flow.Sequence,1_3_5,2021-04-27T08:39:21.864Z,,,,,,,,,,,,,,,,,,,,,,,,,,,,,,,4780.099999967817,,completion,,,,,,,,,2,,,,,,,,I,S,O,,122313.70500009507,122312.18999996781,117515.423,117524.56000004895,117532.09,122328.13,,,
Task,flow.Loop,1_3,2021-04-27T08:39:21.869Z,,,,,,,,,,,,,,,,,,,,,,,,,,,,,,,32027.210999967807,,completion,,,1,,,,,,,,,,,,,,,,,,122318.75999993645,122312.18999996781,90268.312,90282.30999992229,90284.979,122328.13,,,
Trap,html.Screen,1_4,2021-04-27T08:39:21.872Z,,,,,,,,,,,,,,,,,,,,,,,,,,,,,,,NaN,,skipped,,,,,,,,,,,,,,,,,,,,,122321.37000001967,122312.18999996781,,122321.14499993622,,122328.13,,,
Thanks,html.Screen,1_5,2021-04-27T08:39:27.597Z,,,,,,,,,,,,,,,,,,,,,,,,,,,,,,,5716.899999921094,,response,,,,,,,,,,,continue,click button,,,,,,,,,128046.0149999708,128045.0299999211,122311.463,122321.51999999769,122328.13,132911.217,,,
Headphone screening,flow.Sequence,1,2021-04-27T08:39:27.597Z,,,,,,,,,,,,,,,,,,,,,,,,,,,,,,,78255.3719999211,,completion,,,,,,,,,,,,,,,,,,,,,128046.2599999737,128045.0299999211,49656.322,49672.31500009075,49789.658,132911.217,,,
Instructions,html.Page,2_0,2021-04-27T08:39:54.626Z,,,,,,,,,,,,,,,,,,,,,,,,,,,,,,,22163.897999897774,,form submission,,,,,,,,,,,,,,,,,,,,,155075.42499992996,155075.11499989778,132894.55,132911.28000011668,132911.217,155080.48,,,
Holding screen,html.Screen,2_1_0_0,2021-04-27T08:40:04.621Z,,,,,,,,,,,,,,,,,,,,,,,,,,,,,,,10005.493999999977,,timeout,,,,,,,,,,,,,,,,,,,,,165070.07999997586,165069.307,155063.813,155075.7150000427,155080.48,165085.974,,,
screen,html.Screen,2_1_0_1_0,2021-04-27T08:40:05.562Z,,,,,,,,,,,,,,,,,53,,,,,,,,,,,,,,920.2009999877191,,response,,,,99,,,,,,,Space,keypress(Space),,,,,,,,When -- ----- -- ------ - ------- --- ----------<br>------------- ------ ------ ---- ---- ------- ----- -- ----<br>-------- ------- -- ---------- --- - --- ----- ----- ----<br>---- --- --- ----- --- ---- ---- ------- ----- ---- -------<br>--- --- -- ----- -- --- ---- -- --- ---- -- ------ ------<br>--- ----- -- ----,166010.90999995358,166006.1749999877,165069.307,165070.534999948,165085.974,166021.863,,0,When
screen,html.Screen,2_1_0_1_1,2021-04-27T08:40:06.010Z,,,,,,,,,,,,,,,,,53,,,,,,,,,,,,,,436.6870000975905,,response,,,,99,,,,,,,Space,keypress(Space),,,,,,,,---- it ----- -- ------ - ------- --- ----------<br>------------- ------ ------ ---- ---- ------- ----- -- ----<br>-------- ------- -- ---------- --- - --- ----- ----- ----<br>---- --- --- ----- --- ---- ---- ------- ----- ---- -------<br>--- --- -- ----- -- --- ---- -- --- ---- -- ------ ------<br>--- ----- -- ----,166459.2399999965,166458.5500000976,166005.196,166011.26999990083,166021.863,166474.475,,1,it
screen,html.Screen,2_1_0_1_2,2021-04-27T08:40:06.497Z,,,,,,,,,,,,,,,,,53,,,,,,,,,,,,,,470.71000007688417,,response,,,,99,,,,,,,Space,keypress(Space),,,,,,,,---- -- comes -- ------ - ------- --- ----------<br>------------- ------ ------ ---- ---- ------- ----- -- ----<br>-------- ------- -- ---------- --- - --- ----- ----- ----<br>---- --- --- ----- --- ---- ---- ------- ----- ---- -------<br>--- --- -- ----- -- --- ---- -- --- ---- -- ------ ------<br>--- ----- -- ----,166946.60499994643,166945.1850000769,166457.808,166459.43000004627,166474.475,166960.228,,2,comes
screen,html.Screen,2_1_0_1_3,2021-04-27T08:40:06.938Z,,,,,,,,,,,,,,,,,53,,,,,,,,,,,,,,426.06200005311985,,response,,,,99,,,,,,,Space,keypress(Space),,,,,,,,---- -- ----- to ------ - ------- --- ----------<br>------------- ------ ------ ---- ---- ------- ----- -- ----<br>-------- ------- -- ---------- --- - --- ----- ----- ----<br>---- --- --- ----- --- ---- ---- ------- ----- ---- -------<br>--- --- -- ----- -- --- ---- -- --- ---- -- ------ ------<br>--- ----- -- ----,167387.3199999798,167386.29000005312,166943.561,166946.90000009723,166960.228,167394.741,,3,to
screen,html.Screen,2_1_0_1_4,2021-04-27T08:40:07.422Z,,,,,,,,,,,,,,,,,53,,,,,,,,,,,,,,474.9589999228774,,response,,,,99,,,,,,,Space,keypress(Space),,,,,,,,---- -- ----- -- having - ------- --- ----------<br>------------- ------ ------ ---- ---- ------- ----- -- ----<br>-------- ------- -- ---------- --- - --- ----- ----- ----<br>---- --- --- ----- --- ---- ---- ------- ----- ---- -------<br>--- --- -- ----- -- --- ---- -- --- ---- -- ------ ------<br>--- ----- -- ----,167870.72000000626,167869.6999999229,167378.074,167387.62499997392,167394.741,167879.33,,4,having
screen,html.Screen,2_1_0_1_5,2021-04-27T08:40:07.833Z,,,,,,,,,,,,,,,,,53,,,,,,,,,,,,,,402.2749999091902,,response,,,,99,,,,,,,Space,keypress(Space),,,,,,,,---- -- ----- -- ------ a ------- --- ----------<br>------------- ------ ------ ---- ---- ------- ----- -- ----<br>-------- ------- -- ---------- --- - --- ----- ----- ----<br>---- --- --- ----- --- ---- ---- ------- ----- ---- -------<br>--- --- -- ----- -- --- ---- -- --- ---- -- ------ ------<br>--- ----- -- ----,168282.6350000687,168281.60499990918,167862.663,167871.02500000037,167879.33,168298.362,,5,a
screen,html.Screen,2_1_0_1_6,2021-04-27T08:40:08.428Z,,,,,,,,,,,,,,,,,53,,,,,,,,,,,,,,577.3230000936601,,response,,,,99,,,,,,,Space,keypress(Space),,,,,,,,---- -- ----- -- ------ - lasting --- ----------<br>------------- ------ ------ ---- ---- ------- ----- -- ----<br>-------- ------- -- ---------- --- - --- ----- ----- ----<br>---- --- --- ----- --- ---- ---- ------- ----- ---- -------<br>--- --- -- ----- -- --- ---- -- --- ---- -- ------ ------<br>--- ----- -- ----,168876.794999931,168875.68500009365,168281.695,168282.94500010088,168298.362,168881.733,,6,lasting
screen,html.Screen,2_1_0_1_7,2021-04-27T08:40:08.975Z,,,,,,,,,,,,,,,,,53,,,,,,,,,,,,,,541.8070001052693,,response,,,,99,,,,,,,Space,keypress(Space),,,,,,,,---- -- ----- -- ------ - ------- and ----------<br>------------- ------ ------ ---- ---- ------- ----- -- ----<br>-------- ------- -- ---------- --- - --- ----- ----- ----<br>---- --- --- ----- --- ---- ---- ------- ----- ---- -------<br>--- --- -- ----- -- --- ---- -- --- ---- -- ------ ------<br>--- ----- -- ----,169424.57500007004,169423.54000010528,168865.066,168877.09500011988,168881.733,169432.842,,7,and
screen,html.Screen,2_1_0_1_8,2021-04-27T08:40:09.520Z,,,,,,,,,,,,,,,,,53,,,,,,,,,,,,,,535.5430000146735,,response,,,,99,,,,,,,Space,keypress(Space),,,,,,,,---- -- ----- -- ------ - ------- --- fulfilling<br>------------- ------ ------ ---- ---- ------- ----- -- ----<br>-------- ------- -- ---------- --- - --- ----- ----- ----<br>---- --- --- ----- --- ---- ---- ------- ----- ---- -------<br>--- --- -- ----- -- --- ---- -- --- ---- -- ------ ------<br>--- ----- -- ----,169969.37500010245,169968.38500001468,169416.175,169424.89499994554,169432.842,169985.738,,8,fulfilling
screen,html.Screen,2_1_0_1_9,2021-04-27T08:40:10.479Z,,,,,,,,,,,,,,,,,53,,,,,,,,,,,,,,941.3470000902889,,response,,,,99,,,,,,,Space,keypress(Space),,,,,,,,"---- -- ----- -- ------ - ------- --- ----------<br>relationship, ------ ------ ---- ---- ------- ----- -- ----<br>-------- ------- -- ---------- --- - --- ----- ----- ----<br>---- --- --- ----- --- ---- ---- ------- ----- ---- -------<br>--- --- -- ----- -- --- ---- -- --- ---- -- ------ ------<br>--- ----- -- ----",170928.12500009313,170927.0850000903,169969.071,169969.6849999018,169985.738,170935.794,,9,"relationship,"
screen,html.Screen,2_1_0_1_10,2021-04-27T08:40:11.028Z,,,,,,,,,,,,,,,,,53,,,,,,,,,,,,,,540.1810000666883,,response,,,,99,,,,,,,Space,keypress(Space),,,,,,,,---- -- ----- -- ------ - ------- --- ----------<br>------------- common ------ ---- ---- ------- ----- -- ----<br>-------- ------- -- ---------- --- - --- ----- ----- ----<br>---- --- --- ----- --- ---- ---- ------- ----- ---- -------<br>--- --- -- ----- -- --- ---- -- --- ---- -- ------ ------<br>--- ----- -- ----,171477.01000003144,171475.97500006668,170919.127,170928.43500012532,170935.794,171487.226,,10,common
screen,html.Screen,2_1_0_1_11,2021-04-27T08:40:11.502Z,,,,,,,,,,,,,,,,,53,,,,,,,,,,,,,,463.0590000280936,,response,,,,99,,,,,,,Space,keypress(Space),,,,,,,,---- -- ----- -- ------ - ------- --- ----------<br>------------- ------ wisdom ---- ---- ------- ----- -- ----<br>-------- ------- -- ---------- --- - --- ----- ----- ----<br>---- --- --- ----- --- ---- ---- ------- ----- ---- -------<br>--- --- -- ----- -- --- ---- -- --- ---- -- ------ ------<br>--- ----- -- ----,171951.330000069,171950.2850000281,171470.559,171477.32000006363,171487.226,171956.38,,11,wisdom
screen,html.Screen,2_1_0_1_12,2021-04-27T08:40:11.971Z,,,,,,,,,,,,,,,,,53,,,,,,,,,,,,,,463.19999998703133,,response,,,,99,,,,,,,Space,keypress(Space),,,,,,,,---- -- ----- -- ------ - ------- --- ----------<br>------------- ------ ------ says ---- ------- ----- -- ----<br>-------- ------- -- ---------- --- - --- ----- ----- ----<br>---- --- --- ----- --- ---- ---- ------- ----- ---- -------<br>--- --- -- ----- -- --- ---- -- --- ---- -- ------ ------<br>--- ----- -- ----,172420.630000066,172419.57999998704,171939.713,171951.6350000631,171956.38,172424.488,,12,says
screen,html.Screen,2_1_0_1_13,2021-04-27T08:40:12.387Z,,,,,,,,,,,,,,,,,53,,,,,,,,,,,,,,411.02699992607813,,response,,,,99,,,,,,,Space,keypress(Space),,,,,,,,---- -- ----- -- ------ - ------- --- ----------<br>------------- ------ ------ ---- that ------- ----- -- ----<br>-------- ------- -- ---------- --- - --- ----- ----- ----<br>---- --- --- ----- --- ---- ---- ------- ----- ---- -------<br>--- --- -- ----- -- --- ---- -- --- ---- -- ------ ------<br>--- ----- -- ----,172836.53500000946,172835.5149999261,172407.821,172420.93500006013,172424.488,172842.414,,13,that
screen,html.Screen,2_1_0_1_14,2021-04-27T08:40:12.842Z,,,,,,,,,,,,,,,,,53,,,,,,,,,,,,,,447.30099996260833,,response,,,,99,,,,,,,Space,keypress(Space),,,,,,,,---- -- ----- -- ------ - ------- --- ----------<br>------------- ------ ------ ---- ---- feeling ----- -- ----<br>-------- ------- -- ---------- --- - --- ----- ----- ----<br>---- --- --- ----- --- ---- ---- ------- ----- ---- -------<br>--- --- -- ----- -- --- ---- -- --- ---- -- ------ ------<br>--- ----- -- ----,173290.75499996543,173289.7149999626,172825.747,172836.84000000358,172842.414,173293.631,,14,feeling
screen,html.Screen,2_1_0_1_15,2021-04-27T08:40:13.448Z,,,,,,,,,,,,,,,,,53,,,,,,,,,,,,,,602.3089999585063,,response,,,,99,,,,,,,Space,keypress(Space),,,,,,,,---- -- ----- -- ------ - ------- --- ----------<br>------------- ------ ------ ---- ---- ------- close -- ----<br>-------- ------- -- ---------- --- - --- ----- ----- ----<br>---- --- --- ----- --- ---- ---- ------- ----- ---- -------<br>--- --- -- ----- -- --- ---- -- --- ---- -- ------ ------<br>--- ----- -- ----,173896.9849999994,173895.9399999585,173276.964,173291.15499998443,173293.631,173911.403,,15,close
screen,html.Screen,2_1_0_1_16,2021-04-27T08:40:13.803Z,,,,,,,,,,,,,,,,,53,,,,,,,,,,,,,,340.0319999837666,,response,,,,99,,,,,,,Space,keypress(Space),,,,,,,,---- -- ----- -- ------ - ------- --- ----------<br>------------- ------ ------ ---- ---- ------- ----- to ----<br>-------- ------- -- ---------- --- - --- ----- ----- ----<br>---- --- --- ----- --- ---- ---- ------- ----- ---- -------<br>--- --- -- ----- -- --- ---- -- --- ---- -- ------ ------<br>--- ----- -- ----,174252.4900001008,174251.43499998376,173894.736,173897.2950000316,173911.403,174262.566,,16,to
screen,html.Screen,2_1_0_1_17,2021-04-27T08:40:14.258Z,,,,,,,,,,,,,,,,,53,,,,,,,,,,,,,,443.16900008323137,,response,,,,99,,,,,,,Space,keypress(Space),,,,,,,,---- -- ----- -- ------ - ------- --- ----------<br>------------- ------ ------ ---- ---- ------- ----- -- your<br>-------- ------- -- ---------- --- - --- ----- ----- ----<br>---- --- --- ----- --- ---- ---- ------- ----- ---- -------<br>--- --- -- ----- -- --- ---- -- --- ---- -- ------ ------<br>--- ----- -- ----,174706.99000009336,174705.73500008322,174245.899,174252.91500007734,174262.566,174714.136,,17,your
screen,html.Screen,2_1_0_1_18,2021-04-27T08:40:14.758Z,,,,,,,,,,,,,,,,,53,,,,,,,,,,,,,,491.9539999924018,,response,,,,99,,,,,,,Space,keypress(Space),,,,,,,,---- -- ----- -- ------ - ------- --- ----------<br>------------- ------ ------ ---- ---- ------- ----- -- ----<br>romantic ------- -- ---------- --- - --- ----- ----- ----<br>---- --- --- ----- --- ---- ---- ------- ----- ---- -------<br>--- --- -- ----- -- --- ---- -- --- ---- -- ------ ------<br>--- ----- -- ----,175207.18999998644,175206.0899999924,174697.469,174707.33999996446,174714.136,175215.06,,18,romantic
screen,html.Screen,2_1_0_1_19,2021-04-27T08:40:15.200Z,,,,,,,,,,,,,,,,,53,,,,,,,,,,,,,,433.1149999802583,,response,,,,99,,,,,,,Space,keypress(Space),,,,,,,,---- -- ----- -- ------ - ------- --- ----------<br>------------- ------ ------ ---- ---- ------- ----- -- ----<br>-------- partner -- ---------- --- - --- ----- ----- ----<br>---- --- --- ----- --- ---- ---- ------- ----- ---- -------<br>--- --- -- ----- -- --- ---- -- --- ---- -- ------ ------<br>--- ----- -- ----,175649.2000001017,175648.17499998026,175198.393,175207.48999994248,175215.06,175666.273,,19,partner
screen,html.Screen,2_1_0_1_20,2021-04-27T08:40:15.645Z,,,,,,,,,,,,,,,,,53,,,,,,,,,,,,,,426.597000051348,,response,,,,99,,,,,,,Space,keypress(Space),,,,,,,,---- -- ----- -- ------ - ------- --- ----------<br>------------- ------ ------ ---- ---- ------- ----- -- ----<br>-------- ------- is ---------- --- - --- ----- ----- ----<br>---- --- --- ----- --- ---- ---- ------- ----- ---- -------<br>--- --- -- ----- -- --- ---- -- --- ---- -- ------ ------<br>--- ----- -- ----,176094.04000011273,176092.87000005133,175649.606,175649.50000005774,175666.273,176100.864,,20,is
screen,html.Screen,2_1_0_1_21,2021-04-27T08:40:17.089Z,,,,,,,,,,,,,,,,,53,,,,,,,,,,,,,,1436.5760001019225,,response,,,,99,,,,,,,Space,keypress(Space),,,,,,,,---- -- ----- -- ------ - ------- --- ----------<br>------------- ------ ------ ---- ---- ------- ----- -- ----<br>-------- ------- -- paramount. --- - --- ----- ----- ----<br>---- --- --- ----- --- ---- ---- ------- ----- ---- -------<br>--- --- -- ----- -- --- ---- -- --- ---- -- ------ ------<br>--- ----- -- ----,177538.69000007398,177537.44000010192,176084.197,176094.40500009805,176100.864,177552.069,,21,paramount.
screen,html.Screen,2_1_0_1_22,2021-04-27T08:40:17.543Z,,,,,,,,,,,,,,,,,53,,,,,,,,,,,,,,438.54099997892627,,response,,,,99,,,,,,,Space,keypress(Space),,,,,,,,---- -- ----- -- ------ - ------- --- ----------<br>------------- ------ ------ ---- ---- ------- ----- -- ----<br>-------- ------- -- ---------- But - --- ----- ----- ----<br>---- --- --- ----- --- ---- ---- ------- ----- ---- -------<br>--- --- -- ----- -- --- ---- -- --- ---- -- ------ ------<br>--- ----- -- ----,177991.7800000403,177990.60999997891,177535.402,177539.00999994949,177552.069,178003.243,,22,But
screen,html.Screen,2_1_0_1_23,2021-04-27T08:40:17.935Z,,,,,,,,,,,,,,,,,53,,,,,,,,,,,,,,380.121999899653,,response,,,,99,,,,,,,Space,keypress(Space),,,,,,,,---- -- ----- -- ------ - ------- --- ----------<br>------------- ------ ------ ---- ---- ------- ----- -- ----<br>-------- ------- -- ---------- --- a --- ----- ----- ----<br>---- --- --- ----- --- ---- ---- ------- ----- ---- -------<br>--- --- -- ----- -- --- ---- -- --- ---- -- ------ ------<br>--- ----- -- ----,178384.65999998152,178383.36499989964,177986.576,177992.24000005051,178003.243,178390.312,,23,a
screen,html.Screen,2_1_0_1_24,2021-04-27T08:40:18.344Z,,,,,,,,,,,,,,,,,53,,,,,,,,,,,,,,401.90799994478584,,response,,,,99,,,,,,,Space,keypress(Space),,,,,,,,---- -- ----- -- ------ - ------- --- ----------<br>------------- ------ ------ ---- ---- ------- ----- -- ----<br>-------- ------- -- ---------- --- - new ----- ----- ----<br>---- --- --- ----- --- ---- ---- ------- ----- ---- -------<br>--- --- -- ----- -- --- ---- -- --- ---- -- ------ ------<br>--- ----- -- ----,178793.2049999945,178792.2199999448,178373.645,178384.95999993756,178390.312,178808.144,,24,new
screen,html.Screen,2_1_0_1_25,2021-04-27T08:40:18.781Z,,,,,,,,,,,,,,,,,53,,,,,,,,,,,,,,421.13100004880107,,response,,,,99,,,,,,,Space,keypress(Space),,,,,,,,---- -- ----- -- ------ - ------- --- ----------<br>------------- ------ ------ ---- ---- ------- ----- -- ----<br>-------- ------- -- ---------- --- - --- study ----- ----<br>---- --- --- ----- --- ---- ---- ------- ----- ---- -------<br>--- --- -- ----- -- --- ---- -- --- ---- -- ------ ------<br>--- ----- -- ----,179230.41999991983,179229.2750000488,178791.477,178793.49999991246,178808.144,179243.453,,25,study
screen,html.Screen,2_1_0_1_26,2021-04-27T08:40:19.234Z,,,,,,,,,,,,,,,,,53,,,,,,,,,,,,,,439.0519999169919,,response,,,,99,,,,,,,Space,keypress(Space),,,,,,,,---- -- ----- -- ------ - ------- --- ----------<br>------------- ------ ------ ---- ---- ------- ----- -- ----<br>-------- ------- -- ---------- --- - --- ----- finds ----<br>---- --- --- ----- --- ---- ---- ------- ----- ---- -------<br>--- --- -- ----- -- --- ---- -- --- ---- -- ------ ------<br>--- ----- -- ----,179683.69499989785,179682.504999917,179226.786,179230.90999992564,179243.453,179693.508,,26,finds
screen,html.Screen,2_1_0_1_27,2021-04-27T08:40:19.749Z,,,,,,,,,,,,,,,,,53,,,,,,,,,,,,,,503.5819999141677,,response,,,,99,,,,,,,Space,keypress(Space),,,,,,,,---- -- ----- -- ------ - ------- --- ----------<br>------------- ------ ------ ---- ---- ------- ----- -- ----<br>-------- ------- -- ---------- --- - --- ----- ----- that<br>---- --- --- ----- --- ---- ---- ------- ----- ---- -------<br>--- --- -- ----- -- --- ---- -- --- ---- -- ------ ------<br>--- ----- -- ----,180198.10999999754,180197.08999991417,179676.841,179684.1349999886,179693.508,180211.368,,27,that
screen,html.Screen,2_1_0_1_28,2021-04-27T08:40:20.323Z,,,,,,,,,,,,,,,,,53,,,,,,,,,,,,,,559.75699997021,,response,,,,99,,,,,,,Space,keypress(Space),,,,,,,,---- -- ----- -- ------ - ------- --- ----------<br>------------- ------ ------ ---- ---- ------- ----- -- ----<br>-------- ------- -- ---------- --- - --- ----- ----- ----<br>it's --- --- ----- --- ---- ---- ------- ----- ---- -------<br>--- --- -- ----- -- --- ---- -- --- ---- -- ------ ------<br>--- ----- -- ----,180772.1700000111,180771.1249999702,180194.701,180198.40999995358,180211.368,180779.212,,28,it's
screen,html.Screen,2_1_0_1_29,2021-04-27T08:40:20.719Z,,,,,,,,,,,,,,,,,53,,,,,,,,,,,,,,387.667999917001,,response,,,,99,,,,,,,Space,keypress(Space),,,,,,,,---- -- ----- -- ------ - ------- --- ----------<br>------------- ------ ------ ---- ---- ------- ----- -- ----<br>-------- ------- -- ---------- --- - --- ----- ----- ----<br>---- not --- ----- --- ---- ---- ------- ----- ---- -------<br>--- --- -- ----- -- --- ---- -- --- ---- -- ------ ------<br>--- ----- -- ----,181168.25499990955,181166.879999917,180762.545,180772.46999996714,180779.212,181180.574,,29,not
screen,html.Screen,2_1_0_1_30,2021-04-27T08:40:21.355Z,,,,,,,,,,,,,,,,,53,,,,,,,,,,,,,,622.7910000579723,,response,,,,99,,,,,,,Space,keypress(Space),,,,,,,,---- -- ----- -- ------ - ------- --- ----------<br>------------- ------ ------ ---- ---- ------- ----- -- ----<br>-------- ------- -- ---------- --- - --- ----- ----- ----<br>---- --- how ----- --- ---- ---- ------- ----- ---- -------<br>--- --- -- ----- -- --- ---- -- --- ---- -- ------ ------<br>--- ----- -- ----,181804.44499989972,181803.36500005797,181163.907,181168.55999990366,181180.574,181815.391,,30,how
screen,html.Screen,2_1_0_1_31,2021-04-27T08:40:22.195Z,,,,,,,,,,,,,,,,,53,,,,,,,,,,,,,,827.8740000788239,,response,,,,99,,,,,,,Space,keypress(Space),,,,,,,,---- -- ----- -- ------ - ------- --- ----------<br>------------- ------ ------ ---- ---- ------- ----- -- ----<br>-------- ------- -- ---------- --- - --- ----- ----- ----<br>---- --- --- close --- ---- ---- ------- ----- ---- -------<br>--- --- -- ----- -- --- ---- -- --- ---- -- ------ ------<br>--- ----- -- ----,182644.31499992497,182643.26500007883,181798.724,181804.7450000886,181815.391,182649.784,,31,close
screen,html.Screen,2_1_0_1_32,2021-04-27T08:40:22.647Z,,,,,,,,,,,,,,,,,53,,,,,,,,,,,,,,445.5960000715859,,response,,,,99,,,,,,,Space,keypress(Space),,,,,,,,---- -- ----- -- ------ - ------- --- ----------<br>------------- ------ ------ ---- ---- ------- ----- -- ----<br>-------- ------- -- ---------- --- - --- ----- ----- ----<br>---- --- --- ----- you ---- ---- ------- ----- ---- -------<br>--- --- -- ----- -- --- ---- -- --- ---- -- ------ ------<br>--- ----- -- ----,183096.39999992214,183095.3800000716,182633.117,182644.6199999191,182649.784,183101.421,,32,you
screen,html.Screen,2_1_0_1_33,2021-04-27T08:40:23.037Z,,,,,,,,,,,,,,,,,53,,,,,,,,,,,,,,383.73899992377847,,response,,,,99,,,,,,,Space,keypress(Space),,,,,,,,---- -- ----- -- ------ - ------- --- ----------<br>------------- ------ ------ ---- ---- ------- ----- -- ----<br>-------- ------- -- ---------- --- - --- ----- ----- ----<br>---- --- --- ----- --- feel ---- ------- ----- ---- -------<br>--- --- -- ----- -- --- ---- -- --- ---- -- ------ ------<br>--- ----- -- ----,183486.18500004523,183485.15999992378,183084.754,183096.744999988,183101.421,183503.642,,33,feel
screen,html.Screen,2_1_0_1_34,2021-04-27T08:40:23.484Z,,,,,,,,,,,,,,,,,53,,,,,,,,,,,,,,428.57300003711134,,response,,,,99,,,,,,,Space,keypress(Space),,,,,,,,---- -- ----- -- ------ - ------- --- ----------<br>------------- ------ ------ ---- ---- ------- ----- -- ----<br>-------- ------- -- ---------- --- - --- ----- ----- ----<br>---- --- --- ----- --- ---- that ------- ----- ---- -------<br>--- --- -- ----- -- --- ---- -- --- ---- -- ------ ------<br>--- ----- -- ----,183933.59000002965,183932.2150000371,183486.975,183488.65499999374,183503.642,183938.153,,34,that
screen,html.Screen,2_1_0_1_35,2021-04-27T08:40:23.892Z,,,,,,,,,,,,,,,,,53,,,,,,,,,,,,,,401.9670000662445,,response,,,,99,,,,,,,Space,keypress(Space),,,,,,,,---- -- ----- -- ------ - ------- --- ----------<br>------------- ------ ------ ---- ---- ------- ----- -- ----<br>-------- ------- -- ---------- --- - --- ----- ----- ----<br>---- --- --- ----- --- ---- ---- matters ----- ---- -------<br>--- --- -- ----- -- --- ---- -- --- ---- -- ------ ------<br>--- ----- -- ----,184341.22500009835,184340.12000006624,183921.486,183933.97499993443,183938.153,184355.811,,35,matters
screen,html.Screen,2_1_0_1_36,2021-04-27T08:40:24.755Z,,,,,,,,,,,,,,,,,53,,,,,,,,,,,,,,847.3639999150764,,response,,,,99,,,,,,,Space,keypress(Space),,,,,,,,"---- -- ----- -- ------ - ------- --- ----------<br>------------- ------ ------ ---- ---- ------- ----- -- ----<br>-------- ------- -- ---------- --- - --- ----- ----- ----<br>---- --- --- ----- --- ---- ---- ------- most, ---- -------<br>--- --- -- ----- -- --- ---- -- --- ---- -- ------ ------<br>--- ----- -- ----",185204.22499999404,185203.17499991506,184339.144,184342.85499993712,184355.811,185207.952,,36,"most,"
screen,html.Screen,2_1_0_1_37,2021-04-27T08:40:25.149Z,,,,,,,,,,,,,,,,,53,,,,,,,,,,,,,,388.8980000890442,,response,,,,99,,,,,,,Space,keypress(Space),,,,,,,,---- -- ----- -- ------ - ------- --- ----------<br>------------- ------ ------ ---- ---- ------- ----- -- ----<br>-------- ------- -- ---------- --- - --- ----- ----- ----<br>---- --- --- ----- --- ---- ---- ------- ----- it's -------<br>--- --- -- ----- -- --- ---- -- --- ---- -- ------ ------<br>--- ----- -- ----,185597.85000002012,185596.85000008903,185191.285,185204.60999989882,185207.952,185608.056,,37,it's
screen,html.Screen,2_1_0_1_38,2021-04-27T08:40:25.608Z,,,,,,,,,,,,,,,,,53,,,,,,,,,,,,,,448.048999966908,,response,,,,99,,,,,,,Space,keypress(Space),,,,,,,,---- -- ----- -- ------ - ------- --- ----------<br>------------- ------ ------ ---- ---- ------- ----- -- ----<br>-------- ------- -- ---------- --- - --- ----- ----- ----<br>---- --- --- ----- --- ---- ---- ------- ----- ---- whether<br>--- --- -- ----- -- --- ---- -- --- ---- -- ------ ------<br>--- ----- -- ----,186057.13000008836,186056.10499996692,185591.389,185598.1449999381,185608.056,186060.314,,38,whether
screen,html.Screen,2_1_0_1_39,2021-04-27T08:40:26.019Z,,,,,,,,,,,,,,,,,53,,,,,,,,,,,,,,406.30600007926114,,response,,,,99,,,,,,,Space,keypress(Space),,,,,,,,---- -- ----- -- ------ - ------- --- ----------<br>------------- ------ ------ ---- ---- ------- ----- -- ----<br>-------- ------- -- ---------- --- - --- ----- ----- ----<br>---- --- --- ----- --- ---- ---- ------- ----- ---- -------<br>you --- -- ----- -- --- ---- -- --- ---- -- ------ ------<br>--- ----- -- ----,186467.62500004843,186466.62000007927,186043.647,186057.41999996826,186060.314,186479.096,,39,you
screen,html.Screen,2_1_0_1_40,2021-04-27T08:40:26.483Z,,,,,,,,,,,,,,,,,53,,,,,,,,,,,,,,452.22399997423054,,response,,,,99,,,,,,,Space,keypress(Space),,,,,,,,---- -- ----- -- ------ - ------- --- ----------<br>------------- ------ ------ ---- ---- ------- ----- -- ----<br>-------- ------- -- ---------- --- - --- ----- ----- ----<br>---- --- --- ----- --- ---- ---- ------- ----- ---- -------<br>--- are -- ----- -- --- ---- -- --- ---- -- ------ ------<br>--- ----- -- ----,186932.35499993898,186931.31999997422,186462.429,186467.91499992833,186479.096,186945.874,,40,are
screen,html.Screen,2_1_0_1_41,2021-04-27T08:40:26.899Z,,,,,,,,,,,,,,,,,53,,,,,,,,,,,,,,401.37100006995024,,response,,,,99,,,,,,,Space,keypress(Space),,,,,,,,---- -- ----- -- ------ - ------- --- ----------<br>------------- ------ ------ ---- ---- ------- ----- -- ----<br>-------- ------- -- ---------- --- - --- ----- ----- ----<br>---- --- --- ----- --- ---- ---- ------- ----- ---- -------<br>--- --- as ----- -- --- ---- -- --- ---- -- ------ ------<br>--- ----- -- ----,187348.26000011526,187347.24500006996,186929.207,186932.6450000517,186945.874,187364.737,,41,as
screen,html.Screen,2_1_0_1_42,2021-04-27T08:40:27.352Z,,,,,,,,,,,,,,,,,53,,,,,,,,,,,,,,435.65800002749893,,response,,,,99,,,,,,,Space,keypress(Space),,,,,,,,---- -- ----- -- ------ - ------- --- ----------<br>------------- ------ ------ ---- ---- ------- ----- -- ----<br>-------- ------- -- ---------- --- - --- ----- ----- ----<br>---- --- --- ----- --- ---- ---- ------- ----- ---- -------<br>--- --- -- close -- --- ---- -- --- ---- -- ------ ------<br>--- ----- -- ----,187801.514999941,187800.3950000275,187348.07,187348.54499995708,187364.737,187814.794,,42,close
screen,html.Screen,2_1_0_1_43,2021-04-27T08:40:27.700Z,,,,,,,,,,,,,,,,,53,,,,,,,,,,,,,,333.04599999054335,,response,,,,99,,,,,,,Space,keypress(Space),,,,,,,,---- -- ----- -- ------ - ------- --- ----------<br>------------- ------ ------ ---- ---- ------- ----- -- ----<br>-------- ------- -- ---------- --- - --- ----- ----- ----<br>---- --- --- ----- --- ---- ---- ------- ----- ---- -------<br>--- --- -- ----- as --- ---- -- --- ---- -- ------ ------<br>--- ----- -- ----,188148.84999999776,188147.83999999054,187798.127,187801.8849999644,187814.794,188165.822,,43,as
screen,html.Screen,2_1_0_1_44,2021-04-27T08:40:28.099Z,,,,,,,,,,,,,,,,,53,,,,,,,,,,,,,,381.74299989891006,,response,,,,99,,,,,,,Space,keypress(Space),,,,,,,,---- -- ----- -- ------ - ------- --- ----------<br>------------- ------ ------ ---- ---- ------- ----- -- ----<br>-------- ------- -- ---------- --- - --- ----- ----- ----<br>---- --- --- ----- --- ---- ---- ------- ----- ---- -------<br>--- --- -- ----- -- you ---- -- --- ---- -- ------ ------<br>--- ----- -- ----,188548.58499998227,188547.5649998989,188149.155,188149.13500007242,188165.822,188550.403,,44,you
screen,html.Screen,2_1_0_1_45,2021-04-27T08:40:28.514Z,,,,,,,,,,,,,,,,,53,,,,,,,,,,,,,,411.0420000226586,,response,,,,99,,,,,,,Space,keypress(Space),,,,,,,,---- -- ----- -- ------ - ------- --- ----------<br>------------- ------ ------ ---- ---- ------- ----- -- ----<br>-------- ------- -- ---------- --- - --- ----- ----- ----<br>---- --- --- ----- --- ---- ---- ------- ----- ---- -------<br>--- --- -- ----- -- --- want -- --- ---- -- ------ ------<br>--- ----- -- ----,188963.08499993756,188961.44500002265,188533.736,188548.87999990024,188550.403,188967.991,,45,want
screen,html.Screen,2_1_0_1_46,2021-04-27T08:40:29.011Z,,,,,,,,,,,,,,,,,53,,,,,,,,,,,,,,491.0039999935834,,response,,,,99,,,,,,,Space,keypress(Space),,,,,,,,---- -- ----- -- ------ - ------- --- ----------<br>------------- ------ ------ ---- ---- ------- ----- -- ----<br>-------- ------- -- ---------- --- - --- ----- ----- ----<br>---- --- --- ----- --- ---- ---- ------- ----- ---- -------<br>--- --- -- ----- -- --- ---- to --- ---- -- ------ ------<br>--- ----- -- ----,189460.00500000082,189458.9949999936,188951.324,188963.45999999903,188967.991,189469.036,,46,to
screen,html.Screen,2_1_0_1_47,2021-04-27T08:40:30.415Z,,,,,,,,,,,,,,,,,53,,,,,,,,,,,,,,1393.8539999894274,,response,,,,99,,,,,,,Space,keypress(Space),,,,,,,,"---- -- ----- -- ------ - ------- --- ----------<br>------------- ------ ------ ---- ---- ------- ----- -- ----<br>-------- ------- -- ---------- --- - --- ----- ----- ----<br>---- --- --- ----- --- ---- ---- ------- ----- ---- -------<br>--- --- -- ----- -- --- ---- -- be, ---- -- ------ ------<br>--- ----- -- ----",190863.9849999454,190862.88999998942,189452.369,189460.29000007547,189469.036,190871.351,,47,"be,"
screen,html.Screen,2_1_0_1_48,2021-04-27T08:40:30.866Z,,,,,,,,,,,,,,,,,53,,,,,,,,,,,,,,442.50900011116755,,response,,,,99,,,,,,,Space,keypress(Space),,,,,,,,---- -- ----- -- ------ - ------- --- ----------<br>------------- ------ ------ ---- ---- ------- ----- -- ----<br>-------- ------- -- ---------- --- - --- ----- ----- ----<br>---- --- --- ----- --- ---- ---- ------- ----- ---- -------<br>--- --- -- ----- -- --- ---- -- --- even -- ------ ------<br>--- ----- -- ----,191314.88499999978,191313.86000011116,190854.684,190864.2450000625,190871.351,191324.993,,48,even
screen,html.Screen,2_1_0_1_49,2021-04-27T08:40:31.287Z,,,,,,,,,,,,,,,,,53,,,,,,,,,,,,,,409.9319999970321,,response,,,,99,,,,,,,Space,keypress(Space),,,,,,,,---- -- ----- -- ------ - ------- --- ----------<br>------------- ------ ------ ---- ---- ------- ----- -- ----<br>-------- ------- -- ---------- --- - --- ----- ----- ----<br>---- --- --- ----- --- ---- ---- ------- ----- ---- -------<br>--- --- -- ----- -- --- ---- -- --- ---- if ------ ------<br>--- ----- -- ----,191736.12500005402,191734.92499999702,191308.326,191315.2199999895,191324.993,191741.703,,49,if
screen,html.Screen,2_1_0_1_50,2021-04-27T08:40:31.668Z,,,,,,,,,,,,,,,,,53,,,,,,,,,,,,,,374.88699999052915,,response,,,,99,,,,,,,Space,keypress(Space),,,,,,,,---- -- ----- -- ------ - ------- --- ----------<br>------------- ------ ------ ---- ---- ------- ----- -- ----<br>-------- ------- -- ---------- --- - --- ----- ----- ----<br>---- --- --- ----- --- ---- ---- ------- ----- ---- -------<br>--- --- -- ----- -- --- ---- -- --- ---- -- that's ------<br>--- ----- -- ----,192117.57500004023,192116.58999999054,191725.036,191736.4650000818,191741.703,192126.214,,50,that's
screen,html.Screen,2_1_0_1_51,2021-04-27T08:40:32.101Z,,,,,,,,,,,,,,,,,53,,,,,,,,,,,,,,422.4309999734687,,response,,,,99,,,,,,,Space,keypress(Space),,,,,,,,---- -- ----- -- ------ - ------- --- ----------<br>------------- ------ ------ ---- ---- ------- ----- -- ----<br>-------- ------- -- ---------- --- - --- ----- ----- ----<br>---- --- --- ----- --- ---- ---- ------- ----- ---- -------<br>--- --- -- ----- -- --- ---- -- --- ---- -- ------ really<br>--- ----- -- ----,192549.63500006124,192548.64499997348,192109.547,192117.83000011928,192126.214,192561.592,,51,really
screen,html.Screen,2_1_0_1_52,2021-04-27T08:40:32.548Z,,,,,,,,,,,,,,,,,53,,,,,,,,,,,,,,434.2129999549943,,response,,,,99,,,,,,,Space,keypress(Space),,,,,,,,---- -- ----- -- ------ - ------- --- ----------<br>------------- ------ ------ ---- ---- ------- ----- -- ----<br>-------- ------- -- ---------- --- - --- ----- ----- ----<br>---- --- --- ----- --- ---- ---- ------- ----- ---- -------<br>--- --- -- ----- -- --- ---- -- --- ---- -- ------ ------<br>not ----- -- ----,192996.78499996662,192995.804999955,192544.925,192549.91500009783,192561.592,193011.633,,52,not
screen,html.Screen,2_1_0_1_53,2021-04-27T08:40:32.971Z,,,,,,,,,,,,,,,,,53,,,,,,,,,,,,,,407.1219999915047,,response,,,,99,,,,,,,Space,keypress(Space),,,,,,,,---- -- ----- -- ------ - ------- --- ----------<br>------------- ------ ------ ---- ---- ------- ----- -- ----<br>-------- ------- -- ---------- --- - --- ----- ----- ----<br>---- --- --- ----- --- ---- ---- ------- ----- ---- -------<br>--- --- -- ----- -- --- ---- -- --- ---- -- ------ ------<br>--- close -- ----,193419.9049999006,193418.7549999915,192994.966,192997.0650000032,193011.633,193429.39,,53,close
screen,html.Screen,2_1_0_1_54,2021-04-27T08:40:33.356Z,,,,,,,,,,,,,,,,,53,,,,,,,,,,,,,,374.9699999509612,,response,,,,99,,,,,,,Space,keypress(Space),,,,,,,,---- -- ----- -- ------ - ------- --- ----------<br>------------- ------ ------ ---- ---- ------- ----- -- ----<br>-------- ------- -- ---------- --- - --- ----- ----- ----<br>---- --- --- ----- --- ---- ---- ------- ----- ---- -------<br>--- --- -- ----- -- --- ---- -- --- ---- -- ------ ------<br>--- ----- at ----,193805.36499992013,193804.35999995098,193412.723,193420.2350000851,193429.39,193814.969,,54,at
screen,html.Screen,2_1_0_1_55,2021-04-27T08:40:35.202Z,,,,,,,,,,,,,,,,,53,,,,,,,,,,,,,,1835.4210000825406,,response,,,,99,,,,,,,Space,keypress(Space),,,,,,,,---- -- ----- -- ------ - ------- --- ----------<br>------------- ------ ------ ---- ---- ------- ----- -- ----<br>-------- ------- -- ---------- --- - --- ----- ----- ----<br>---- --- --- ----- --- ---- ---- ------- ----- ---- -------<br>--- --- -- ----- -- --- ---- -- --- ---- -- ------ ------<br>--- ----- -- all.,195651.4099999331,195650.39000008255,193798.302,193805.63000007533,193814.969,195665.074,,55,all.
Item 99,flow.Loop,2_1_0_1,2021-04-27T08:40:35.203Z,,,,,,,,,,,,,,,,,,,,,,,,,,,,,,,30564.416000082565,,completion,,,,,F,,,,,,,,,,,silence,,,,,195651.9800000824,195650.39000008255,165069.307,165070.42000000365,165085.974,195665.074,,,
Question 1,html.Screen,2_1_0_2,2021-04-27T08:40:42.118Z,,,,,,,,,,,,,,,,,,,,,,,,,,,,true,FALSE,,6900.655999914772,,response,,,,99,F,,,,,,FALSE,click #choice-2,,,,silence,,,,,202566.7850000318,202565.72999991477,195648.407,195652.2900001146,195665.074,202569.485,,,
Question 2,html.Screen,2_1_0_3,2021-04-27T08:40:53.433Z,,,,,,,,,,,,,,,,,,,,,,,,,,,,true,TRUE,,11311.790000050678,,response,,,,99,F,,,,,,TRUE,click #choice-1,,,,silence,,,,,213882.23999994807,213881.27500005066,202552.818,202566.92999997176,202569.485,213898.339,,,
Item 99,flow.Sequence,2_1_0,2021-04-27T08:40:53.433Z,,,,,,,,,,,,,,,,,,,,,,,,,,,,,,,58800.79500005065,,completion,,,,,,,,,,,,,,,,,,,,,213882.4799999129,213881.27500005066,155063.813,155075.66500012763,155080.48,213898.339,,,
Holding screen,html.Screen,2_1_1_0,2021-04-27T08:41:03.445Z,,,,,,,,,,,,,,,,,,,,,,,,,,,,,,,10007.657999999996,,timeout,,,,,,,,,,,,,,,,,,,,,223894.34000011533,223889.33,213881.672,213882.63000012375,213898.339,223905.997,,,
screen,html.Screen,2_1_1_1_0,2021-04-27T08:41:04.313Z,,,,,,,,,,,,,,,,,54,,,,,,,,,,,,,,854.5779999638617,,response,,,,100,,,,,,,Space,keypress(Space),,,,,,,,At --- ---- --- ------ ----- ------- ---- -- --- ------- --<br>------- ---------- ------ -- ----- -- ----- -- ---- ------<br>--- ----- --- --- ------ -------- ----- --- ------ ----- --<br>----- ----- ---------- --- --- ------ ------ ---- -- ------<br>------- --- ------ ----- --- ---- ------- -- ---- --- --<br>------- ------,224761.75999990664,224760.57499996386,223889.33,223894.68499994837,223905.997,224775.274,,0,At
screen,html.Screen,2_1_1_1_1,2021-04-27T08:41:04.716Z,,,,,,,,,,,,,,,,,54,,,,,,,,,,,,,,388.5760001281451,,response,,,,100,,,,,,,Space,keypress(Space),,,,,,,,-- the ---- --- ------ ----- ------- ---- -- --- ------- --<br>------- ---------- ------ -- ----- -- ----- -- ---- ------<br>--- ----- --- --- ------ -------- ----- --- ------ ----- --<br>----- ----- ---------- --- --- ------ ------ ---- -- ------<br>------- --- ------ ----- --- ---- ------- -- ---- --- --<br>------- ------,225164.81500002556,225163.85000012815,224758.607,224762.00999994762,224775.274,225177.884,,1,the
screen,html.Screen,2_1_1_1_2,2021-04-27T08:41:05.187Z,,,,,,,,,,,,,,,,,54,,,,,,,,,,,,,,457.29599998294725,,response,,,,100,,,,,,,Space,keypress(Space),,,,,,,,-- --- time --- ------ ----- ------- ---- -- --- ------- --<br>------- ---------- ------ -- ----- -- ----- -- ---- ------<br>--- ----- --- --- ------ -------- ----- --- ------ ----- --<br>----- ----- ---------- --- --- ------ ------ ---- -- ------<br>------- --- ------ ----- --- ---- ------- -- ---- --- --<br>------- ------,225636.1549999565,225635.17999998294,225161.217,225165.06000002846,225177.884,225647.774,,2,time
screen,html.Screen,2_1_1_1_3,2021-04-27T08:41:05.814Z,,,,,,,,,,,,,,,,,54,,,,,,,,,,,,,,614.1809999944817,,response,,,,100,,,,,,,Space,keypress(Space),,,,,,,,-- --- ---- the ------ ----- ------- ---- -- --- ------- --<br>------- ---------- ------ -- ----- -- ----- -- ---- ------<br>--- ----- --- --- ------ -------- ----- --- ------ ----- --<br>----- ----- ---------- --- --- ------ ------ ---- -- ------<br>------- --- ------ ----- --- ---- ------- -- ---- --- --<br>------- ------,226263.04000010714,226261.9549999945,225631.107,225636.41000003554,225647.774,226264.534,,3,the
screen,html.Screen,2_1_1_1_4,2021-04-27T08:41:06.283Z,,,,,,,,,,,,,,,,,54,,,,,,,,,,,,,,466.30100005303393,,response,,,,100,,,,,,,Space,keypress(Space),,,,,,,,-- --- ---- --- French ----- ------- ---- -- --- ------- --<br>------- ---------- ------ -- ----- -- ----- -- ---- ------<br>--- ----- --- --- ------ -------- ----- --- ------ ----- --<br>----- ----- ---------- --- --- ------ ------ ---- -- ------<br>------- --- ------ ----- --- ---- ------- -- ---- --- --<br>------- ------,226731.8100000266,226730.83500005305,226247.867,226263.3050000295,226264.534,226749.016,,4,French
screen,html.Screen,2_1_1_1_5,2021-04-27T08:41:06.814Z,,,,,,,,,,,,,,,,,54,,,,,,,,,,,,,,513.6089999739197,,response,,,,100,,,,,,,Space,keypress(Space),,,,,,,,-- --- ---- --- ------ crown ------- ---- -- --- ------- --<br>------- ---------- ------ -- ----- -- ----- -- ---- ------<br>--- ----- --- --- ------ -------- ----- --- ------ ----- --<br>----- ----- ---------- --- --- ------ ------ ---- -- ------<br>------- --- ------ ----- --- ---- ------- -- ---- --- --<br>------- ------,227263.56000010855,227262.62499997392,226732.349,226732.06500010565,226749.016,227267.411,,5,crown
screen,html.Screen,2_1_1_1_6,2021-04-27T08:41:07.603Z,,,,,,,,,,,,,,,,,54,,,,,,,,,,,,,,783.7339999176038,,response,,,,100,,,,,,,Space,keypress(Space),,,,,,,,-- --- ---- --- ------ ----- secured ---- -- --- ------- --<br>------- ---------- ------ -- ----- -- ----- -- ---- ------<br>--- ----- --- --- ------ -------- ----- --- ------ ----- --<br>----- ----- ---------- --- --- ------ ------ ---- -- ------<br>------- --- ------ ----- --- ---- ------- -- ---- --- --<br>------- ------,228052.05000005662,228051.1449999176,227250.744,227263.81999999285,227267.411,228068.638,,6,secured
screen,html.Screen,2_1_1_1_7,2021-04-27T08:41:08.206Z,,,,,,,,,,,,,,,,,54,,,,,,,,,,,,,,585.7470000016328,,response,,,,100,,,,,,,Space,keypress(Space),,,,,,,,-- --- ---- --- ------ ----- ------- much -- --- ------- --<br>------- ---------- ------ -- ----- -- ----- -- ---- ------<br>--- ----- --- --- ------ -------- ----- --- ------ ----- --<br>----- ----- ---------- --- --- ------ ------ ---- -- ------<br>------- --- ------ ----- --- ---- ------- -- ---- --- --<br>------- ------,228655.39500000887,228654.38500000164,228051.971,228052.32500005513,228068.638,228669.988,,7,much
screen,html.Screen,2_1_1_1_8,2021-04-27T08:41:08.666Z,,,,,,,,,,,,,,,,,54,,,,,,,,,,,,,,443.6669999937294,,response,,,,100,,,,,,,Space,keypress(Space),,,,,,,,-- --- ---- --- ------ ----- ------- ---- of --- ------- --<br>------- ---------- ------ -- ----- -- ----- -- ---- ------<br>--- ----- --- --- ------ -------- ----- --- ------ ----- --<br>----- ----- ---------- --- --- ------ ------ ---- -- ------<br>------- --- ------ ----- --- ---- ------- -- ---- --- --<br>------- ------,229114.67000003904,229113.65499999374,228653.321,228655.6949999649,228669.988,229122.07,,8,of
screen,html.Screen,2_1_1_1_9,2021-04-27T08:41:09.037Z,,,,,,,,,,,,,,,,,54,,,,,,,,,,,,,,363.14500010974007,,response,,,,100,,,,,,,Space,keypress(Space),,,,,,,,-- --- ---- --- ------ ----- ------- ---- -- its ------- --<br>------- ---------- ------ -- ----- -- ----- -- ---- ------<br>--- ----- --- --- ------ -------- ----- --- ------ ----- --<br>----- ----- ---------- --- --- ------ ------ ---- -- ------<br>------- --- ------ ----- --- ---- ------- -- ---- --- --<br>------- ------,229486.22500011697,229485.21500010975,229105.403,229114.92999992333,229122.07,229490.299,,9,its
screen,html.Screen,2_1_1_1_10,2021-04-27T08:41:09.525Z,,,,,,,,,,,,,,,,,54,,,,,,,,,,,,,,482.34600008896086,,response,,,,100,,,,,,,Space,keypress(Space),,,,,,,,-- --- ---- --- ------ ----- ------- ---- -- --- revenue --<br>------- ---------- ------ -- ----- -- ----- -- ---- ------<br>--- ----- --- --- ------ -------- ----- --- ------ ----- --<br>----- ----- ---------- --- --- ------ ------ ---- -- ------<br>------- --- ------ ----- --- ---- ------- -- ---- --- --<br>------- ------,229973.6500000581,229972.64500008896,229473.632,229486.48500000127,229490.299,229974.806,,10,revenue
screen,html.Screen,2_1_1_1_11,2021-04-27T08:41:10.068Z,,,,,,,,,,,,,,,,,54,,,,,,,,,,,,,,541.5990001185273,,response,,,,100,,,,,,,Space,keypress(Space),,,,,,,,-- --- ---- --- ------ ----- ------- ---- -- --- ------- by<br>------- ---------- ------ -- ----- -- ----- -- ---- ------<br>--- ----- --- --- ------ -------- ----- --- ------ ----- --<br>----- ----- ---------- --- --- ------ ------ ---- -- ------<br>------- --- ------ ----- --- ---- ------- -- ---- --- --<br>------- ------,230517.5000000745,230516.40500011854,229958.139,229973.9749999717,229974.806,230525.798,,11,by
screen,html.Screen,2_1_1_1_12,2021-04-27T08:41:10.671Z,,,,,,,,,,,,,,,,,54,,,,,,,,,,,,,,593.0370000884286,,response,,,,100,,,,,,,Space,keypress(Space),,,,,,,,-- --- ---- --- ------ ----- ------- ---- -- --- ------- --<br>issuing ---------- ------ -- ----- -- ----- -- ---- ------<br>--- ----- --- --- ------ -------- ----- --- ------ ----- --<br>----- ----- ---------- --- --- ------ ------ ---- -- ------<br>------- --- ------ ----- --- ---- ------- -- ---- --- --<br>------- ------,231119.9950000737,231118.83500008844,230509.131,230517.85499998368,230525.798,231128.43,,12,issuing
screen,html.Screen,2_1_1_1_13,2021-04-27T08:41:11.320Z,,,,,,,,,,,,,,,,,54,,,,,,,,,,,,,,639.7400000539492,,response,,,,100,,,,,,,Space,keypress(Space),,,,,,,,-- --- ---- --- ------ ----- ------- ---- -- --- ------- --<br>------- government ------ -- ----- -- ----- -- ---- ------<br>--- ----- --- --- ------ -------- ----- --- ------ ----- --<br>----- ----- ---------- --- --- ------ ------ ---- -- ------<br>------- --- ------ ----- --- ---- ------- -- ---- --- --<br>------- ------,231769.15500010364,231768.17000005394,231111.763,231120.3149999492,231128.43,231779.957,,13,government
screen,html.Screen,2_1_1_1_14,2021-04-27T08:41:13.286Z,,,,,,,,,,,,,,,,,54,,,,,,,,,,,,,,1953.987999985402,,response,,,,100,,,,,,,Space,keypress(Space),,,,,,,,-- --- ---- --- ------ ----- ------- ---- -- --- ------- --<br>------- ---------- bonds. -- ----- -- ----- -- ---- ------<br>--- ----- --- --- ------ -------- ----- --- ------ ----- --<br>----- ----- ---------- --- --- ------ ------ ---- -- ------<br>------- --- ------ ----- --- ---- ------- -- ---- --- --<br>------- ------,233734.9000000395,233733.9449999854,231763.29,231769.420000026,231779.957,233746.677,,14,bonds.
screen,html.Screen,2_1_1_1_15,2021-04-27T08:41:13.725Z,,,,,,,,,,,,,,,,,54,,,,,,,,,,,,,,426.4630000862817,,response,,,,100,,,,,,,Space,keypress(Space),,,,,,,,-- --- ---- --- ------ ----- ------- ---- -- --- ------- --<br>------- ---------- ------ In ----- -- ----- -- ---- ------<br>--- ----- --- --- ------ -------- ----- --- ------ ----- --<br>----- ----- ---------- --- --- ------ ------ ---- -- ------<br>------- --- ------ ----- --- ---- ------- -- ---- --- --<br>------- ------,234174.25999999978,234173.14000008628,233730.01,233735.18000007607,233746.677,234181.777,,15,In
screen,html.Screen,2_1_1_1_16,2021-04-27T08:41:15.769Z,,,,,,,,,,,,,,,,,54,,,,,,,,,,,,,,2035.1679999928456,,response,,,,100,,,,,,,Space,keypress(Space),,,,,,,,"-- --- ---- --- ------ ----- ------- ---- -- --- ------- --<br>------- ---------- ------ -- 1727, -- ----- -- ---- ------<br>--- ----- --- --- ------ -------- ----- --- ------ ----- --<br>----- ----- ---------- --- --- ------ ------ ---- -- ------<br>------- --- ------ ----- --- ---- ------- -- ---- --- --<br>------- ------",236218.1049999781,236216.94499999285,234165.11,234174.5800001081,234181.777,236221.359,,16,"1727,"
screen,html.Screen,2_1_1_1_17,2021-04-27T08:41:16.293Z,,,,,,,,,,,,,,,,,54,,,,,,,,,,,,,,519.7009999129805,,response,,,,100,,,,,,,Space,keypress(Space),,,,,,,,-- --- ---- --- ------ ----- ------- ---- -- --- ------- --<br>------- ---------- ------ -- ----- in ----- -- ---- ------<br>--- ----- --- --- ------ -------- ----- --- ------ ----- --<br>----- ----- ---------- --- --- ------ ------ ---- -- ------<br>------- --- ------ ----- --- ---- ------- -- ---- --- --<br>------- ------,236742.07499995828,236741.05999991298,236204.692,236218.36500009522,236221.359,236754.77,,17,in
screen,html.Screen,2_1_1_1_18,2021-04-27T08:41:16.824Z,,,,,,,,,,,,,,,,,54,,,,,,,,,,,,,,517.029999987717,,response,,,,100,,,,,,,Space,keypress(Space),,,,,,,,-- --- ---- --- ------ ----- ------- ---- -- --- ------- --<br>------- ---------- ------ -- ----- -- order -- ---- ------<br>--- ----- --- --- ------ -------- ----- --- ------ ----- --<br>----- ----- ---------- --- --- ------ ------ ---- -- ------<br>------- --- ------ ----- --- ---- ------- -- ---- --- --<br>------- ------,237272.89499994367,237271.7999999877,236738.103,236742.33000003733,236754.77,237276.768,,18,order
screen,html.Screen,2_1_1_1_19,2021-04-27T08:41:17.207Z,,,,,,,,,,,,,,,,,54,,,,,,,,,,,,,,378.3469999722729,,response,,,,100,,,,,,,Space,keypress(Space),,,,,,,,-- --- ---- --- ------ ----- ------- ---- -- --- ------- --<br>------- ---------- ------ -- ----- -- ----- to ---- ------<br>--- ----- --- --- ------ -------- ----- --- ------ ----- --<br>----- ----- ---------- --- --- ------ ------ ---- -- ------<br>------- --- ------ ----- --- ---- ------- -- ---- --- --<br>------- ------,237655.80999990925,237655.11499997228,237260.101,237273.25000008568,237276.768,237661.393,,19,to
screen,html.Screen,2_1_1_1_20,2021-04-27T08:41:17.595Z,,,,,,,,,,,,,,,,,54,,,,,,,,,,,,,,381.87199998568394,,response,,,,100,,,,,,,Space,keypress(Space),,,,,,,,-- --- ---- --- ------ ----- ------- ---- -- --- ------- --<br>------- ---------- ------ -- ----- -- ----- -- save ------<br>--- ----- --- --- ------ -------- ----- --- ------ ----- --<br>----- ----- ---------- --- --- ------ ------ ---- -- ------<br>------- --- ------ ----- --- ---- ------- -- ---- --- --<br>------- ------,238044.26499991678,238043.2649999857,237644.726,237655.96499992535,237661.393,238047.005,,20,save
screen,html.Screen,2_1_1_1_21,2021-04-27T08:41:18.264Z,,,,,,,,,,,,,,,,,54,,,,,,,,,,,,,,664.9749999054475,,response,,,,100,,,,,,,Space,keypress(Space),,,,,,,,"-- --- ---- --- ------ ----- ------- ---- -- --- ------- --<br>------- ---------- ------ -- ----- -- ----- -- ---- money,<br>--- ----- --- --- ------ -------- ----- --- ------ ----- --<br>----- ----- ---------- --- --- ------ ------ ---- -- ------<br>------- --- ------ ----- --- ---- ------- -- ---- --- --<br>------- ------",238713.10000005178,238711.97999990545,238030.338,238044.51999999583,238047.005,238730.43,,21,"money,"
screen,html.Screen,2_1_1_1_22,2021-04-27T08:41:18.712Z,,,,,,,,,,,,,,,,,54,,,,,,,,,,,,,,429.63499994546873,,response,,,,100,,,,,,,Space,keypress(Space),,,,,,,,-- --- ---- --- ------ ----- ------- ---- -- --- ------- --<br>------- ---------- ------ -- ----- -- ----- -- ---- ------<br>the ----- --- --- ------ -------- ----- --- ------ ----- --<br>----- ----- ---------- --- --- ------ ------ ---- -- ------<br>------- --- ------ ----- --- ---- ------- -- ---- --- --<br>------- ------,239161.22999996878,239160.06499994546,238713.763,238713.35999993607,238730.43,239164.775,,22,the
screen,html.Screen,2_1_1_1_23,2021-04-27T08:41:19.211Z,,,,,,,,,,,,,,,,,54,,,,,,,,,,,,,,493.7599999368249,,response,,,,100,,,,,,,Space,keypress(Space),,,,,,,,-- --- ---- --- ------ ----- ------- ---- -- --- ------- --<br>------- ---------- ------ -- ----- -- ----- -- ---- ------<br>--- state --- --- ------ -------- ----- --- ------ ----- --<br>----- ----- ---------- --- --- ------ ------ ---- -- ------<br>------- --- ------ ----- --- ---- ------- -- ---- --- --<br>------- ------,239659.8000000231,239658.53499993682,239148.108,239161.54500003904,239164.775,239667.636,,23,state
screen,html.Screen,2_1_1_1_24,2021-04-27T08:41:19.556Z,,,,,,,,,,,,,,,,,54,,,,,,,,,,,,,,336.2290000933572,,response,,,,100,,,,,,,Space,keypress(Space),,,,,,,,-- --- ---- --- ------ ----- ------- ---- -- --- ------- --<br>------- ---------- ------ -- ----- -- ----- -- ---- ------<br>--- ----- cut --- ------ -------- ----- --- ------ ----- --<br>----- ----- ---------- --- --- ------ ------ ---- -- ------<br>------- --- ------ ----- --- ---- ------- -- ---- --- --<br>------- ------,240005.0550000742,240003.86500009336,239650.969,239660.2300000377,239667.636,240017.652,,24,cut
screen,html.Screen,2_1_1_1_25,2021-04-27T08:41:20.228Z,,,,,,,,,,,,,,,,,54,,,,,,,,,,,,,,658.0029999117833,,response,,,,100,,,,,,,Space,keypress(Space),,,,,,,,-- --- ---- --- ------ ----- ------- ---- -- --- ------- --<br>------- ---------- ------ -- ----- -- ----- -- ---- ------<br>--- ----- --- the ------ -------- ----- --- ------ ----- --<br>----- ----- ---------- --- --- ------ ------ ---- -- ------<br>------- --- ------ ----- --- ---- ------- -- ---- --- --<br>------- ------,240676.63000011817,240675.65499991179,240000.985,240005.36000006832,240017.652,240685.684,,25,the
screen,html.Screen,2_1_1_1_26,2021-04-27T08:41:21.013Z,,,,,,,,,,,,,,,,,54,,,,,,,,,,,,,,775.4509999904549,,response,,,,100,,,,,,,Space,keypress(Space),,,,,,,,-- --- ---- --- ------ ----- ------- ---- -- --- ------- --<br>------- ---------- ------ -- ----- -- ----- -- ---- ------<br>--- ----- --- --- bonds' -------- ----- --- ------ ----- --<br>----- ----- ---------- --- --- ------ ------ ---- -- ------<br>------- --- ------ ----- --- ---- ------- -- ---- --- --<br>------- ------,241462.2649999801,241461.13499999046,240669.017,240676.89500004053,240685.684,241469.898,,26,bonds'
screen,html.Screen,2_1_1_1_27,2021-04-27T08:41:21.686Z,,,,,,,,,,,,,,,,,54,,,,,,,,,,,,,,663.9470000621513,,response,,,,100,,,,,,,Space,keypress(Space),,,,,,,,-- --- ---- --- ------ ----- ------- ---- -- --- ------- --<br>------- ---------- ------ -- ----- -- ----- -- ---- ------<br>--- ----- --- --- ------ interest ----- --- ------ ----- --<br>----- ----- ---------- --- --- ------ ------ ---- -- ------<br>------- --- ------ ----- --- ---- ------- -- ---- --- --<br>------- ------,242134.83499991708,242133.84500006214,241453.231,241462.5900001265,241469.898,242138.234,,27,interest
screen,html.Screen,2_1_1_1_28,2021-04-27T08:41:23.649Z,,,,,,,,,,,,,,,,,54,,,,,,,,,,,,,,1958.371000086132,,response,,,,100,,,,,,,Space,keypress(Space),,,,,,,,-- --- ---- --- ------ ----- ------- ---- -- --- ------- --<br>------- ---------- ------ -- ----- -- ----- -- ---- ------<br>--- ----- --- --- ------ -------- rate. --- ------ ----- --<br>----- ----- ---------- --- --- ------ ------ ---- -- ------<br>------- --- ------ ----- --- ---- ------- -- ---- --- --<br>------- ------,244097.71000011824,244096.60500008613,242121.567,242135.10000007227,242138.234,244107.074,,28,rate.
screen,html.Screen,2_1_1_1_29,2021-04-27T08:41:24.087Z,,,,,,,,,,,,,,,,,54,,,,,,,,,,,,,,427.55600012562354,,response,,,,100,,,,,,,Space,keypress(Space),,,,,,,,-- --- ---- --- ------ ----- ------- ---- -- --- ------- --<br>------- ---------- ------ -- ----- -- ----- -- ---- ------<br>--- ----- --- --- ------ -------- ----- The ------ ----- --<br>----- ----- ---------- --- --- ------ ------ ---- -- ------<br>------- --- ------ ----- --- ---- ------- -- ---- --- --<br>------- ------,244535.64999997616,244534.63000012562,244090.407,244097.98000007868,244107.074,244542.109,,29,The
screen,html.Screen,2_1_1_1_30,2021-04-27T08:41:24.462Z,,,,,,,,,,,,,,,,,54,,,,,,,,,,,,,,368.1810000289115,,response,,,,100,,,,,,,Space,keypress(Space),,,,,,,,-- --- ---- --- ------ ----- ------- ---- -- --- ------- --<br>------- ---------- ------ -- ----- -- ----- -- ---- ------<br>--- ----- --- --- ------ -------- ----- --- market ----- --<br>----- ----- ---------- --- --- ------ ------ ---- -- ------<br>------- --- ------ ----- --- ---- ------- -- ---- --- --<br>------- ------,244911.28999996,244910.2900000289,244525.442,244535.91499989852,244542.109,244914.983,,30,market
screen,html.Screen,2_1_1_1_31,2021-04-27T08:41:24.900Z,,,,,,,,,,,,,,,,,54,,,,,,,,,,,,,,433.4170000171289,,response,,,,100,,,,,,,Space,keypress(Space),,,,,,,,-- --- ---- --- ------ ----- ------- ---- -- --- ------- --<br>------- ---------- ------ -- ----- -- ----- -- ---- ------<br>--- ----- --- --- ------ -------- ----- --- ------ value --<br>----- ----- ---------- --- --- ------ ------ ---- -- ------<br>------- --- ------ ----- --- ---- ------- -- ---- --- --<br>------- ------,245349.45999993943,245348.40000001714,244898.316,244911.5500000771,244914.983,245365.051,,31,value
screen,html.Screen,2_1_1_1_32,2021-04-27T08:41:25.317Z,,,,,,,,,,,,,,,,,54,,,,,,,,,,,,,,400.2440000483475,,response,,,,100,,,,,,,Space,keypress(Space),,,,,,,,-- --- ---- --- ------ ----- ------- ---- -- --- ------- --<br>------- ---------- ------ -- ----- -- ----- -- ---- ------<br>--- ----- --- --- ------ -------- ----- --- ------ ----- of<br>----- ----- ---------- --- --- ------ ------ ---- -- ------<br>------- --- ------ ----- --- ---- ------- -- ---- --- --<br>------- ------,245766.40500011854,245765.29500004835,245348.384,245349.73499993794,245365.051,245782.699,,32,of
screen,html.Screen,2_1_1_1_33,2021-04-27T08:41:25.732Z,,,,,,,,,,,,,,,,,54,,,,,,,,,,,,,,397.4710000651248,,response,,,,100,,,,,,,Space,keypress(Space),,,,,,,,-- --- ---- --- ------ ----- ------- ---- -- --- ------- --<br>------- ---------- ------ -- ----- -- ----- -- ---- ------<br>--- ----- --- --- ------ -------- ----- --- ------ ----- --<br>these ----- ---------- --- --- ------ ------ ---- -- ------<br>------- --- ------ ----- --- ---- ------- -- ---- --- --<br>------- ------,246181.1699999962,246180.17000006512,245766.032,245766.73500007018,245782.699,246183.833,,33,these
screen,html.Screen,2_1_1_1_34,2021-04-27T08:41:26.082Z,,,,,,,,,,,,,,,,,54,,,,,,,,,,,,,,346.5219999371038,,response,,,,100,,,,,,,Space,keypress(Space),,,,,,,,-- --- ---- --- ------ ----- ------- ---- -- --- ------- --<br>------- ---------- ------ -- ----- -- ----- -- ---- ------<br>--- ----- --- --- ------ -------- ----- --- ------ ----- --<br>----- bonds ---------- --- --- ------ ------ ---- -- ------<br>------- --- ------ ----- --- ---- ------- -- ---- --- --<br>------- ------,246531.3399999868,246530.35499993712,246167.166,246181.46999995224,246183.833,246535.938,,34,bonds
screen,html.Screen,2_1_1_1_35,2021-04-27T08:41:27.179Z,,,,,,,,,,,,,,,,,54,,,,,,,,,,,,,,1091.4620001139992,,response,,,,100,,,,,,,Space,keypress(Space),,,,,,,,"-- --- ---- --- ------ ----- ------- ---- -- --- ------- --<br>------- ---------- ------ -- ----- -- ----- -- ---- ------<br>--- ----- --- --- ------ -------- ----- --- ------ ----- --<br>----- ----- plummeted, --- --- ------ ------ ---- -- ------<br>------- --- ------ ----- --- ---- ------- -- ---- --- --<br>------- ------",247628.47499991767,247627.400000114,246519.271,246531.59500006586,246535.938,247636.03,,35,"plummeted,"
screen,html.Screen,2_1_1_1_36,2021-04-27T08:41:27.544Z,,,,,,,,,,,,,,,,,54,,,,,,,,,,,,,,355.8849999041122,,response,,,,100,,,,,,,Space,keypress(Space),,,,,,,,-- --- ---- --- ------ ----- ------- ---- -- --- ------- --<br>------- ---------- ------ -- ----- -- ----- -- ---- ------<br>--- ----- --- --- ------ -------- ----- --- ------ ----- --<br>----- ----- ---------- and --- ------ ------ ---- -- ------<br>------- --- ------ ----- --- ---- ------- -- ---- --- --<br>------- ------,247993.0249999743,247991.9149999041,247619.363,247628.74000007287,247636.03,248003.612,,36,and
screen,html.Screen,2_1_1_1_37,2021-04-27T08:41:27.769Z,,,,,,,,,,,,,,,,,54,,,,,,,,,,,,,,213.90299990933272,,response,,,,100,,,,,,,Space,keypress(Space),,,,,,,,-- --- ---- --- ------ ----- ------- ---- -- --- ------- --<br>------- ---------- ------ -- ----- -- ----- -- ---- ------<br>--- ----- --- --- ------ -------- ----- --- ------ ----- --<br>----- ----- ---------- --- the ------ ------ ---- -- ------<br>------- --- ------ ----- --- ---- ------- -- ---- --- --<br>------- ------,248218.61000009812,248217.51499990933,247986.945,247993.44499991275,248003.612,248223.111,,37,the
screen,html.Screen,2_1_1_1_38,2021-04-27T08:41:27.975Z,,,,,,,,,,,,,,,,,54,,,,,,,,,,,,,,199.75400008776342,,response,,,,100,,,,,,,Space,keypress(Space),,,,,,,,-- --- ---- --- ------ ----- ------- ---- -- --- ------- --<br>------- ---------- ------ -- ----- -- ----- -- ---- ------<br>--- ----- --- --- ------ -------- ----- --- ------ ----- --<br>----- ----- ---------- --- --- market ------ ---- -- ------<br>------- --- ------ ----- --- ---- ------- -- ---- --- --<br>------- ------,248423.9499999676,248422.86500008777,248206.444,248218.95000012591,248223.111,248440.678,,38,market
screen,html.Screen,2_1_1_1_39,2021-04-27T08:41:28.463Z,,,,,,,,,,,,,,,,,54,,,,,,,,,,,,,,470.67699998925673,,response,,,,100,,,,,,,Space,keypress(Space),,,,,,,,-- --- ---- --- ------ ----- ------- ---- -- --- ------- --<br>------- ---------- ------ -- ----- -- ----- -- ---- ------<br>--- ----- --- --- ------ -------- ----- --- ------ ----- --<br>----- ----- ---------- --- --- ------ became ---- -- ------<br>------- --- ------ ----- --- ---- ------- -- ---- --- --<br>------- ------,248912.50999993645,248911.35499998927,248424.011,248424.2249999661,248440.678,248925.105,,39,became
screen,html.Screen,2_1_1_1_40,2021-04-27T08:41:28.809Z,,,,,,,,,,,,,,,,,54,,,,,,,,,,,,,,331.6099999085709,,response,,,,100,,,,,,,Space,keypress(Space),,,,,,,,-- --- ---- --- ------ ----- ------- ---- -- --- ------- --<br>------- ---------- ------ -- ----- -- ----- -- ---- ------<br>--- ----- --- --- ------ -------- ----- --- ------ ----- --<br>----- ----- ---------- --- --- ------ ------ wary -- ------<br>------- --- ------ ----- --- ---- ------- -- ---- --- --<br>------- ------,249257.90500012226,249256.71499990858,248908.438,248912.87999995984,248925.105,249259.703,,40,wary
screen,html.Screen,2_1_1_1_41,2021-04-27T08:41:29.203Z,,,,,,,,,,,,,,,,,54,,,,,,,,,,,,,,391.7820000385109,,response,,,,100,,,,,,,Space,keypress(Space),,,,,,,,-- --- ---- --- ------ ----- ------- ---- -- --- ------- --<br>------- ---------- ------ -- ----- -- ----- -- ---- ------<br>--- ----- --- --- ------ -------- ----- --- ------ ----- --<br>----- ----- ---------- --- --- ------ ------ ---- of ------<br>------- --- ------ ----- --- ---- ------- -- ---- --- --<br>------- ------,249652.59000007063,249651.48500003852,249243.036,249258.24000011198,249259.703,249659.728,,41,of
screen,html.Screen,2_1_1_1_42,2021-04-27T08:41:29.649Z,,,,,,,,,,,,,,,,,54,,,,,,,,,,,,,,437.91700008895714,,response,,,,100,,,,,,,Space,keypress(Space),,,,,,,,-- --- ---- --- ------ ----- ------- ---- -- --- ------- --<br>------- ---------- ------ -- ----- -- ----- -- ---- ------<br>--- ----- --- --- ------ -------- ----- --- ------ ----- --<br>----- ----- ---------- --- --- ------ ------ ---- -- French<br>------- --- ------ ----- --- ---- ------- -- ---- --- --<br>------- ------,250098.68000005372,250097.64500008896,249643.061,249652.93499990366,249659.728,250110.638,,42,French
screen,html.Screen,2_1_1_1_43,2021-04-27T08:41:31.571Z,,,,,,,,,,,,,,,,,54,,,,,,,,,,,,,,1908.5070000274864,,response,,,,100,,,,,,,Space,keypress(Space),,,,,,,,-- --- ---- --- ------ ----- ------- ---- -- --- ------- --<br>------- ---------- ------ -- ----- -- ----- -- ---- ------<br>--- ----- --- --- ------ -------- ----- --- ------ ----- --<br>----- ----- ---------- --- --- ------ ------ ---- -- ------<br>credit. --- ------ ----- --- ---- ------- -- ---- --- --<br>------- ------,252020.1399999205,252019.1450000275,250093.971,250098.939999938,250110.638,252028.429,,43,credit.
screen,html.Screen,2_1_1_1_44,2021-04-27T08:41:31.984Z,,,,,,,,,,,,,,,,,54,,,,,,,,,,,,,,403.5909999492578,,response,,,,100,,,,,,,Space,keypress(Space),,,,,,,,-- --- ---- --- ------ ----- ------- ---- -- --- ------- --<br>------- ---------- ------ -- ----- -- ----- -- ---- ------<br>--- ----- --- --- ------ -------- ----- --- ------ ----- --<br>----- ----- ---------- --- --- ------ ------ ---- -- ------<br>------- The ------ ----- --- ---- ------- -- ---- --- --<br>------- ------,252433.12499998137,252432.01999994926,252011.762,252020.38999996148,252028.429,252446.263,,44,The
screen,html.Screen,2_1_1_1_45,2021-04-27T08:41:32.317Z,,,,,,,,,,,,,,,,,54,,,,,,,,,,,,,,319.0720001200971,,response,,,,100,,,,,,,Space,keypress(Space),,,,,,,,-- --- ---- --- ------ ----- ------- ---- -- --- ------- --<br>------- ---------- ------ -- ----- -- ----- -- ---- ------<br>--- ----- --- --- ------ -------- ----- --- ------ ----- --<br>----- ----- ---------- --- --- ------ ------ ---- -- ------<br>------- --- French ----- --- ---- ------- -- ---- --- --<br>------- ------,252766.34999993257,252765.3350001201,252429.596,252433.3949999418,252446.263,252767.815,,45,French
screen,html.Screen,2_1_1_1_46,2021-04-27T08:41:32.700Z,,,,,,,,,,,,,,,,,54,,,,,,,,,,,,,,380.1900000827736,,response,,,,100,,,,,,,Space,keypress(Space),,,,,,,,-- --- ---- --- ------ ----- ------- ---- -- --- ------- --<br>------- ---------- ------ -- ----- -- ----- -- ---- ------<br>--- ----- --- --- ------ -------- ----- --- ------ ----- --<br>----- ----- ---------- --- --- ------ ------ ---- -- ------<br>------- --- ------ state --- ---- ------- -- ---- --- --<br>------- ------,253149.09500000067,253148.00500008278,252751.148,252766.61500008777,252767.815,253153.139,,46,state
screen,html.Screen,2_1_1_1_47,2021-04-27T08:41:33.243Z,,,,,,,,,,,,,,,,,54,,,,,,,,,,,,,,537.6760000963404,,response,,,,100,,,,,,,Space,keypress(Space),,,,,,,,-- --- ---- --- ------ ----- ------- ---- -- --- ------- --<br>------- ---------- ------ -- ----- -- ----- -- ---- ------<br>--- ----- --- --- ------ -------- ----- --- ------ ----- --<br>----- ----- ---------- --- --- ------ ------ ---- -- ------<br>------- --- ------ ----- was ---- ------- -- ---- --- --<br>------- ------,253691.8800000567,253690.81500009634,253136.472,253149.43500002846,253153.139,253703.19,,47,was
screen,html.Screen,2_1_1_1_48,2021-04-27T08:41:33.658Z,,,,,,,,,,,,,,,,,54,,,,,,,,,,,,,,402.5200000325567,,response,,,,100,,,,,,,Space,keypress(Space),,,,,,,,-- --- ---- --- ------ ----- ------- ---- -- --- ------- --<br>------- ---------- ------ -- ----- -- ----- -- ---- ------<br>--- ----- --- --- ------ -------- ----- --- ------ ----- --<br>----- ----- ---------- --- --- ------ ------ ---- -- ------<br>------- --- ------ ----- --- left ------- -- ---- --- --<br>------- ------,254106.73999995925,254105.71000003256,253686.523,253692.1550000552,253703.19,254120.86,,48,left
screen,html.Screen,2_1_1_1_49,2021-04-27T08:41:34.032Z,,,,,,,,,,,,,,,,,54,,,,,,,,,,,,,,359.5150000428548,,response,,,,100,,,,,,,Space,keypress(Space),,,,,,,,-- --- ---- --- ------ ----- ------- ---- -- --- ------- --<br>------- ---------- ------ -- ----- -- ----- -- ---- ------<br>--- ----- --- --- ------ -------- ----- --- ------ ----- --<br>----- ----- ---------- --- --- ------ ------ ---- -- ------<br>------- --- ------ ----- --- ---- without -- ---- --- --<br>------- ------,254481.45500011742,254480.37500004284,254104.193,254107.00999991968,254120.86,254488.918,,49,without
screen,html.Screen,2_1_1_1_50,2021-04-27T08:41:34.368Z,,,,,,,,,,,,,,,,,54,,,,,,,,,,,,,,326.82199999090517,,response,,,,100,,,,,,,Space,keypress(Space),,,,,,,,-- --- ---- --- ------ ----- ------- ---- -- --- ------- --<br>------- ---------- ------ -- ----- -- ----- -- ---- ------<br>--- ----- --- --- ------ -------- ----- --- ------ ----- --<br>----- ----- ---------- --- --- ------ ------ ---- -- ------<br>------- --- ------ ----- --- ---- ------- an ---- --- --<br>------- ------,254816.82500010356,254815.7399999909,254472.251,254481.7200000398,254488.918,254824.193,,50,an
screen,html.Screen,2_1_1_1_51,2021-04-27T08:41:34.743Z,,,,,,,,,,,,,,,,,54,,,,,,,,,,,,,,367.2070001270331,,response,,,,100,,,,,,,Space,keypress(Space),,,,,,,,-- --- ---- --- ------ ----- ------- ---- -- --- ------- --<br>------- ---------- ------ -- ----- -- ----- -- ---- ------<br>--- ----- --- --- ------ -------- ----- --- ------ ----- --<br>----- ----- ---------- --- --- ------ ------ ---- -- ------<br>------- --- ------ ----- --- ---- ------- -- easy --- --<br>------- ------,255192.4050000962,255191.40000012703,254807.526,254817.17499997467,254824.193,255207.642,,51,easy
screen,html.Screen,2_1_1_1_52,2021-04-27T08:41:35.124Z,,,,,,,,,,,,,,,,,54,,,,,,,,,,,,,,364.42299995664507,,response,,,,100,,,,,,,Space,keypress(Space),,,,,,,,-- --- ---- --- ------ ----- ------- ---- -- --- ------- --<br>------- ---------- ------ -- ----- -- ----- -- ---- ------<br>--- ----- --- --- ------ -------- ----- --- ------ ----- --<br>----- ----- ---------- --- --- ------ ------ ---- -- ------<br>------- --- ------ ----- --- ---- ------- -- ---- way --<br>------- ------,255573.0699999258,255572.06499995664,255190.975,255192.689999938,255207.642,255575.151,,52,way
screen,html.Screen,2_1_1_1_53,2021-04-27T08:41:35.576Z,,,,,,,,,,,,,,,,,54,,,,,,,,,,,,,,449.028999949398,,response,,,,100,,,,,,,Space,keypress(Space),,,,,,,,-- --- ---- --- ------ ----- ------- ---- -- --- ------- --<br>------- ---------- ------ -- ----- -- ----- -- ---- ------<br>--- ----- --- --- ------ -------- ----- --- ------ ----- --<br>----- ----- ---------- --- --- ------ ------ ---- -- ------<br>------- --- ------ ----- --- ---- ------- -- ---- --- of<br>------- ------,256025.20000003278,256024.1799999494,255558.484,255573.4049999155,255575.151,256027.13,,53,of
screen,html.Screen,2_1_1_1_54,2021-04-27T08:41:36.272Z,,,,,,,,,,,,,,,,,54,,,,,,,,,,,,,,693.465000078897,,response,,,,100,,,,,,,Space,keypress(Space),,,,,,,,-- --- ---- --- ------ ----- ------- ---- -- --- ------- --<br>------- ---------- ------ -- ----- -- ----- -- ---- ------<br>--- ----- --- --- ------ -------- ----- --- ------ ----- --<br>----- ----- ---------- --- --- ------ ------ ---- -- ------<br>------- --- ------ ----- --- ---- ------- -- ---- --- --<br>raising ------,256721.6250000056,256720.5950000789,256010.463,256025.46499995515,256027.13,256728.312,,54,raising
screen,html.Screen,2_1_1_1_55,2021-04-27T08:41:36.869Z,,,,,,,,,,,,,,,,,54,,,,,,,,,,,,,,588.9080000844842,,response,,,,100,,,,,,,Space,keypress(Space),,,,,,,,-- --- ---- --- ------ ----- ------- ---- -- --- ------- --<br>------- ---------- ------ -- ----- -- ----- -- ---- ------<br>--- ----- --- --- ------ -------- ----- --- ------ ----- --<br>----- ----- ---------- --- --- ------ ------ ---- -- ------<br>------- --- ------ ----- --- ---- ------- -- ---- --- --<br>------- money.,257318.22500005364,257317.2200000845,256711.645,256721.8850001227,256728.312,257328.33,,55,money.
Item 100,flow.Loop,2_1_1_1,2021-04-27T08:41:36.869Z,,,,,,,,,,,,,,,,,,,,,,,,,,,,,,,33411.22300008449,,completion,,,,,F,,,,,,,,,,,silence,,,,,257318.68500006385,257317.2200000845,223889.33,223894.58500011824,223905.997,257328.33,,,
Question 1,html.Screen,2_1_1_2,2021-04-27T08:41:42.382Z,,,,,,,,,,,,,,,,,,,,,,,,,,,,true,TRUE,,5502.299999982206,,response,,,,100,F,,,,,,TRUE,click #choice-1,,,,silence,,,,,262831.6750000231,262830.6299999822,257311.663,257318.91499995254,257328.33,262842.186,,,
Question 2,html.Screen,2_1_1_3,2021-04-27T08:41:45.181Z,,,,,,,,,,,,,,,,,,,,,,,,,,,,true,FALSE,,2787.014000083087,,response,,,,100,F,,,,,,FALSE,click #choice-2,,,,silence,,,,,265630.2150001284,265629.2000000831,262825.519,262831.87999995425,262842.186,265634.643,,,
Item 100,flow.Sequence,2_1_1,2021-04-27T08:41:45.181Z,,,,,,,,,,,,,,,,,,,,,,,,,,,,,,,51730.86100008307,,completion,,,,,,,,,,,,,,,,,,,,,265630.54500008,265629.2000000831,213881.672,213882.58500001393,213898.339,265634.643,,,
End of Practice,html.Page,2_1_2,2021-04-27T08:41:50.124Z,,,,,,,,,,,,,,,,,,,,,,,,,,,,,,,4938.477000073704,,form submission,,,,,,,,,,,,,,,,,,,,,270573.3499999624,270573.1200000737,265617.976,265630.73999993503,265634.643,270579.84,,,
Practice,flow.Sequence,2_1,2021-04-27T08:41:50.124Z,,,,,,,,,,,,,,,,,,,,,,,,,,,,,,,115492.64000007368,,completion,,,,,,,,,,,,,,,,,,,,,270573.5649999697,270573.1200000737,155063.813,155075.6049999036,155080.48,270579.84,,,
Trap_instruction,html.Page,2_2_0,2021-04-27T08:41:55.112Z,,,,,,,,,,,,,,,,,,,,,,,,,,,,,,,4980.934999903489,,form submission,,,,,,,,,,,,,,,,,,,,,275561.11000012606,275560.7749999035,270563.173,270573.7050001044,270579.84,275583.008,,,
trap_trial,html.Screen,2_2_1,2021-04-27T08:41:58.263Z,,,,,,,,,,,,,,,,,,,,,,,,,,,,true,1,,3127.9019999070442,,response,,,,,,,,,,,1,click #choice-1,,,,,,,,,278711.97999990545,278710.909999907,275549.674,275561.299999943,275583.008,278712.979,,,
end of trap trial,html.Page,2_2_2,2021-04-27T08:42:01.139Z,,,,,,,,,,,,,,,,,,,,,,,,,,,,,,,2875.255999915593,,form submission,,,,,,,,,,,,,,,,,,,,,281588.57999998145,281588.2349999156,278696.312,278712.2200001031,278712.979,281593.038,,,
Trap 1,flow.Sequence,2_2,2021-04-27T08:42:01.140Z,,,,,,,,,,,,,,,,,,,,,,,,,,,,,,,11008.39499991556,,completion,,,,,,,,,,,,,,,,,,,,,281588.89000001363,281588.2349999156,270563.173,270573.66500003263,270579.84,281593.038,,,
Standby,html.Page,2_3_0,2021-04-27T08:42:09.131Z,,,,,,,,,,,,,,,,,,,,,,,,,,,,,,,8002.074000000022,,timeout,,,,,,,,,,,,,,,,,,,,,289579.80499998666,289578.445,281576.371,281589.1400000546,281593.038,289595.112,,,
Holding screen,html.Screen,2_3_1_0_0,2021-04-27T08:42:16.131Z,,,,,,,,,,,,,,,,,,,,,,,,,,,,,,,7000.514999999956,,timeout,,,,,,,,,,,,,,,,,,,,,296580.33000002615,296578.96,289578.445,289580.2150000818,289595.112,296595.627,,,
screen,html.Screen,2_3_1_0_1_0,2021-04-27T08:42:17.108Z,,,,,,,,,,,,,,,,,15,,,,,,,,,,,,,,960.5729999918258,,response,,,,7,F,,,,,,Space,keypress(Space),,,,instrumental,,,,Greg --------- ---------- - --- ------- -- --- ------------<br>----- -- -------- ------- ---- ------ - -------- ---- -----<br>--- ------- ---- -- --- -------- --- - ----- ------ ---- --<br>-------- --- -------- -------- --- -------- ---- -- ----- -<br>-------- ---- --- ---------- --------- -- ------- ------ -<br>--------- ----- -----,297557.4950000737,297556.1999999918,296578.96,296580.7650000788,296595.627,297564.976,,0,Greg
screen,html.Screen,2_3_1_0_1_1,2021-04-27T08:42:17.581Z,,,,,,,,,,,,,,,,,15,,,,,,,,,,,,,,463.8440001232084,,response,,,,7,F,,,,,,Space,keypress(Space),,,,instrumental,,,,"---- Anderson, ---------- - --- ------- -- --- ------------<br>----- -- -------- ------- ---- ------ - -------- ---- -----<br>--- ------- ---- -- --- -------- --- - ----- ------ ---- --<br>-------- --- -------- -------- --- -------- ---- -- ----- -<br>-------- ---- --- ---------- --------- -- ------- ------ -<br>--------- ----- -----",298029.7350001056,298028.82000012323,297548.309,297557.7849999536,297564.976,298034.191,,1,"Anderson,"
screen,html.Screen,2_3_1_0_1_2,2021-04-27T08:42:18.094Z,,,,,,,,,,,,,,,,,15,,,,,,,,,,,,,,508.2789999857778,,response,,,,7,F,,,,,,Space,keypress(Space),,,,instrumental,,,,---- --------- considered - --- ------- -- --- ------------<br>----- -- -------- ------- ---- ------ - -------- ---- -----<br>--- ------- ---- -- --- -------- --- - ----- ------ ---- --<br>-------- --- -------- -------- --- -------- ---- -- ----- -<br>-------- ---- --- ---------- --------- -- ------- ------ -<br>--------- ----- -----,298543.68499992415,298542.46999998577,298017.524,298029.9899999518,298034.191,298553.262,,2,considered
screen,html.Screen,2_3_1_0_1_3,2021-04-27T08:42:18.630Z,,,,,,,,,,,,,,,,,15,,,,,,,,,,,,,,524.9280000292929,,response,,,,7,F,,,,,,Space,keypress(Space),,,,instrumental,,,,---- --------- ---------- a --- ------- -- --- ------------<br>----- -- -------- ------- ---- ------ - -------- ---- -----<br>--- ------- ---- -- --- -------- --- - ----- ------ ---- --<br>-------- --- -------- -------- --- -------- ---- -- ----- -<br>-------- ---- --- ---------- --------- -- ------- ------ -<br>--------- ----- -----,299079.11500008777,299078.1900000293,298536.595,298544.1099999007,298553.262,299089.129,,3,a
screen,html.Screen,2_3_1_0_1_4,2021-04-27T08:42:19.016Z,,,,,,,,,,,,,,,,,15,,,,,,,,,,,,,,374.7760001278366,,response,,,,7,F,,,,,,Space,keypress(Space),,,,instrumental,,,,---- --------- ---------- - key ------- -- --- ------------<br>----- -- -------- ------- ---- ------ - -------- ---- -----<br>--- ------- ---- -- --- -------- --- - ----- ------ ---- --<br>-------- --- -------- -------- --- -------- ---- -- ----- -<br>-------- ---- --- ---------- --------- -- ------- ------ -<br>--------- ----- -----,299464.9499999359,299463.90500012785,299072.462,299079.38000001013,299089.129,299472.575,,4,key
screen,html.Screen,2_3_1_0_1_5,2021-04-27T08:42:19.437Z,,,,,,,,,,,,,,,,,15,,,,,,,,,,,,,,412.2999999888125,,response,,,,7,F,,,,,,Space,keypress(Space),,,,instrumental,,,,---- --------- ---------- - --- witness -- --- ------------<br>----- -- -------- ------- ---- ------ - -------- ---- -----<br>--- ------- ---- -- --- -------- --- - ----- ------ ---- --<br>-------- --- -------- -------- --- -------- ---- -- ----- -<br>-------- ---- --- ---------- --------- -- ------- ------ -<br>--------- ----- -----,299885.9600001015,299884.8749999888,299455.908,299465.205000015,299472.575,299890.553,,5,witness
screen,html.Screen,2_3_1_0_1_6,2021-04-27T08:42:20.773Z,,,,,,,,,,,,,,,,,15,,,,,,,,,,,,,,1330.6470000290428,,response,,,,7,F,,,,,,Space,keypress(Space),,,,instrumental,,,,---- --------- ---------- - --- ------- by --- ------------<br>----- -- -------- ------- ---- ------ - -------- ---- -----<br>--- ------- ---- -- --- -------- --- - ----- ------ ---- --<br>-------- --- -------- -------- --- -------- ---- -- ----- -<br>-------- ---- --- ---------- --------- -- ------- ------ -<br>--------- ----- -----,301222.09000005387,301221.20000002906,299873.886,299886.31500001065,299890.553,301225.002,,6,by
screen,html.Screen,2_3_1_0_1_7,2021-04-27T08:42:21.161Z,,,,,,,,,,,,,,,,,15,,,,,,,,,,,,,,383.88800003228243,,response,,,,7,F,,,,,,Space,keypress(Space),,,,instrumental,,,,---- --------- ---------- - --- ------- -- the ------------<br>----- -- -------- ------- ---- ------ - -------- ---- -----<br>--- ------- ---- -- --- -------- --- - ----- ------ ---- --<br>-------- --- -------- -------- --- -------- ---- -- ----- -<br>-------- ---- --- ---------- --------- -- ------- ------ -<br>--------- ----- -----,301609.97999995016,301608.89000003226,301208.335,301222.3350000568,301225.002,301626.045,,7,the
screen,html.Screen,2_3_1_0_1_8,2021-04-27T08:42:22.020Z,,,,,,,,,,,,,,,,,15,,,,,,,,,,,,,,841.8749999664142,,response,,,,7,F,,,,,,Space,keypress(Space),,,,instrumental,,,,"---- --------- ---------- - --- ------- -- --- prosecution,<br>----- -- -------- ------- ---- ------ - -------- ---- -----<br>--- ------- ---- -- --- -------- --- - ----- ------ ---- --<br>-------- --- -------- -------- --- -------- ---- -- ----- -<br>-------- ---- --- ---------- --------- -- ------- ------ -<br>--------- ----- -----",302469.000000041,302467.9199999664,301609.378,301610.22499995306,301626.045,302479.603,,8,"prosecution,"
screen,html.Screen,2_3_1_0_1_9,2021-04-27T08:42:22.818Z,,,,,,,,,,,,,,,,,15,,,,,,,,,,,,,,786.961999939871,,response,,,,7,F,,,,,,Space,keypress(Space),,,,instrumental,,,,---- --------- ---------- - --- ------- -- --- ------------<br>vowed -- -------- ------- ---- ------ - -------- ---- -----<br>--- ------- ---- -- --- -------- --- - ----- ------ ---- --<br>-------- --- -------- -------- --- -------- ---- -- ----- -<br>-------- ---- --- ---------- --------- -- ------- ------ -<br>--------- ----- -----,303267.5449999515,303266.5649999399,302462.936,302469.2400000058,302479.603,303280.585,,9,vowed
screen,html.Screen,2_3_1_0_1_10,2021-04-27T08:42:23.248Z,,,,,,,,,,,,,,,,,15,,,,,,,,,,,,,,415.87500000646105,,response,,,,7,F,,,,,,Space,keypress(Space),,,,instrumental,,,,---- --------- ---------- - --- ------- -- --- ------------<br>----- he -------- ------- ---- ------ - -------- ---- -----<br>--- ------- ---- -- --- -------- --- - ----- ------ ---- --<br>-------- --- -------- -------- --- -------- ---- -- ----- -<br>-------- ---- --- ---------- --------- -- ------- ------ -<br>--------- ----- -----,303697.4750000518,303696.4600000065,303263.918,303267.80000003055,303280.585,303699.497,,10,he
screen,html.Screen,2_3_1_0_1_11,2021-04-27T08:42:23.603Z,,,,,,,,,,,,,,,,,15,,,,,,,,,,,,,,351.55300012556836,,response,,,,7,F,,,,,,Space,keypress(Space),,,,instrumental,,,,---- --------- ---------- - --- ------- -- --- ------------<br>----- -- wouldn't ------- ---- ------ - -------- ---- -----<br>--- ------- ---- -- --- -------- --- - ----- ------ ---- --<br>-------- --- -------- -------- --- -------- ---- -- ----- -<br>-------- ---- --- ---------- --------- -- ------- ------ -<br>--------- ----- -----,304052.3749999702,304051.05000012554,303682.83,303697.729999898,303699.497,304068.239,,11,wouldn't
screen,html.Screen,2_3_1_0_1_12,2021-04-27T08:42:23.952Z,,,,,,,,,,,,,,,,,15,,,,,,,,,,,,,,332.2410000693635,,response,,,,7,F,,,,,,Space,keypress(Space),,,,instrumental,,,,---- --------- ---------- - --- ------- -- --- ------------<br>----- -- -------- testify ---- ------ - -------- ---- -----<br>--- ------- ---- -- --- -------- --- - ----- ------ ---- --<br>-------- --- -------- -------- --- -------- ---- -- ----- -<br>-------- ---- --- ---------- --------- -- ------- ------ -<br>--------- ----- -----,304401.53999999166,304400.48000006936,304051.572,304052.63000004925,304068.239,304403.561,,12,testify
screen,html.Screen,2_3_1_0_1_13,2021-04-27T08:42:24.436Z,,,,,,,,,,,,,,,,,15,,,,,,,,,,,,,,480.28900010022335,,response,,,,7,F,,,,,,Space,keypress(Space),,,,instrumental,,,,---- --------- ---------- - --- ------- -- --- ------------<br>----- -- -------- ------- when ------ - -------- ---- -----<br>--- ------- ---- -- --- -------- --- - ----- ------ ---- --<br>-------- --- -------- -------- --- -------- ---- -- ----- -<br>-------- ---- --- ---------- --------- -- ------- ------ -<br>--------- ----- -----,304885.01500012353,304883.8500001002,304386.894,304401.8099999521,304403.561,304886.929,,13,when
screen,html.Screen,2_3_1_0_1_14,2021-04-27T08:42:24.858Z,,,,,,,,,,,,,,,,,15,,,,,,,,,,,,,,418.9609999596141,,response,,,,7,F,,,,,,Space,keypress(Space),,,,instrumental,,,,---- --------- ---------- - --- ------- -- --- ------------<br>----- -- -------- ------- ---- served - -------- ---- -----<br>--- ------- ---- -- --- -------- --- - ----- ------ ---- --<br>-------- --- -------- -------- --- -------- ---- -- ----- -<br>-------- ---- --- ---------- --------- -- ------- ------ -<br>--------- ----- -----,305307.32999998145,305305.8899999596,304870.262,304885.3249999229,304886.929,305321.134,,14,served
screen,html.Screen,2_3_1_0_1_15,2021-04-27T08:42:25.409Z,,,,,,,,,,,,,,,,,15,,,,,,,,,,,,,,535.5510000060895,,response,,,,7,F,,,,,,Space,keypress(Space),,,,instrumental,,,,---- --------- ---------- - --- ------- -- --- ------------<br>----- -- -------- ------- ---- ------ a -------- ---- -----<br>--- ------- ---- -- --- -------- --- - ----- ------ ---- --<br>-------- --- -------- -------- --- -------- ---- -- ----- -<br>-------- ---- --- ---------- --------- -- ------- ------ -<br>--------- ----- -----,305857.7350000851,305856.6850000061,305304.467,305307.5999999419,305321.134,305873.45,,15,a
screen,html.Screen,2_3_1_0_1_16,2021-04-27T08:42:26.076Z,,,,,,,,,,,,,,,,,15,,,,,,,,,,,,,,658.0200000453624,,response,,,,7,F,,,,,,Space,keypress(Space),,,,instrumental,,,,---- --------- ---------- - --- ------- -- --- ------------<br>----- -- -------- ------- ---- ------ - subpoena ---- -----<br>--- ------- ---- -- --- -------- --- - ----- ------ ---- --<br>-------- --- -------- -------- --- -------- ---- -- ----- -<br>-------- ---- --- ---------- --------- -- ------- ------ -<br>--------- ----- -----,306532.52999996766,306531.4700000454,305856.783,305857.9949999694,305873.45,306540.24,,16,subpoena
screen,html.Screen,2_3_1_0_1_17,2021-04-27T08:42:26.548Z,,,,,,,,,,,,,,,,,15,,,,,,,,,,,,,,462.4999999089632,,response,,,,7,F,,,,,,Space,keypress(Space),,,,instrumental,,,,---- --------- ---------- - --- ------- -- --- ------------<br>----- -- -------- ------- ---- ------ - -------- last -----<br>--- ------- ---- -- --- -------- --- - ----- ------ ---- --<br>-------- --- -------- -------- --- -------- ---- -- ----- -<br>-------- ---- --- ---------- --------- -- ------- ------ -<br>--------- ----- -----,307003.83500009775,307002.73999990895,306523.573,306532.79500012286,306540.24,307008.331,,17,last
screen,html.Screen,2_3_1_0_1_18,2021-04-27T08:42:28.078Z,,,,,,,,,,,,,,,,,15,,,,,,,,,,,,,,1524.734000083292,,response,,,,7,F,,,,,,Space,keypress(Space),,,,instrumental,,,,---- --------- ---------- - --- ------- -- --- ------------<br>----- -- -------- ------- ---- ------ - -------- ---- week.<br>--- ------- ---- -- --- -------- --- - ----- ------ ---- --<br>-------- --- -------- -------- --- -------- ---- -- ----- -<br>-------- ---- --- ---------- --------- -- ------- ------ -<br>--------- ----- -----,308534.31500005536,308533.0650000833,306991.664,307004.1350000538,307008.331,308543.416,,18,week.
screen,html.Screen,2_3_1_0_1_19,2021-04-27T08:42:28.507Z,,,,,,,,,,,,,,,,,15,,,,,,,,,,,,,,418.81899998447625,,response,,,,7,F,,,,,,Space,keypress(Space),,,,instrumental,,,,---- --------- ---------- - --- ------- -- --- ------------<br>----- -- -------- ------- ---- ------ - -------- ---- -----<br>His ------- ---- -- --- -------- --- - ----- ------ ---- --<br>-------- --- -------- -------- --- -------- ---- -- ----- -<br>-------- ---- --- ---------- --------- -- ------- ------ -<br>--------- ----- -----,308963.0299999844,308962.2349999845,308526.749,308534.63499993086,308543.416,308978.027,,19,His
screen,html.Screen,2_3_1_0_1_20,2021-04-27T08:42:28.898Z,,,,,,,,,,,,,,,,,15,,,,,,,,,,,,,,375.1929999317508,,response,,,,7,F,,,,,,Space,keypress(Space),,,,instrumental,,,,---- --------- ---------- - --- ------- -- --- ------------<br>----- -- -------- ------- ---- ------ - -------- ---- -----<br>--- lawyers ---- -- --- -------- --- - ----- ------ ---- --<br>-------- --- -------- -------- --- -------- ---- -- ----- -<br>-------- ---- --- ---------- --------- -- ------- ------ -<br>--------- ----- -----,309354.3499999214,309353.21999993175,308961.36,308963.20499992,308978.027,309365.234,,20,lawyers
screen,html.Screen,2_3_1_0_1_21,2021-04-27T08:42:29.372Z,,,,,,,,,,,,,,,,,15,,,,,,,,,,,,,,462.19600006303517,,response,,,,7,F,,,,,,Space,keypress(Space),,,,instrumental,,,,---- --------- ---------- - --- ------- -- --- ------------<br>----- -- -------- ------- ---- ------ - -------- ---- -----<br>--- ------- said -- --- -------- --- - ----- ------ ---- --<br>-------- --- -------- -------- --- -------- ---- -- ----- -<br>-------- ---- --- ---------- --------- -- ------- ------ -<br>--------- ----- -----,309828.50500009954,309827.43000006303,309348.567,309354.6150000766,309365.234,309833.093,,21,said
screen,html.Screen,2_3_1_0_1_22,2021-04-27T08:42:29.808Z,,,,,,,,,,,,,,,,,15,,,,,,,,,,,,,,429.4870000969386,,response,,,,7,F,,,,,,Space,keypress(Space),,,,instrumental,,,,---- --------- ---------- - --- ------- -- --- ------------<br>----- -- -------- ------- ---- ------ - -------- ---- -----<br>--- ------- ---- he --- -------- --- - ----- ------ ---- --<br>-------- --- -------- -------- --- -------- ---- -- ----- -<br>-------- ---- --- ---------- --------- -- ------- ------ -<br>--------- ----- -----,310263.63499998115,310262.58000009693,309816.426,309828.75999994576,309833.093,310268.633,,22,he
screen,html.Screen,2_3_1_0_1_23,2021-04-27T08:42:30.200Z,,,,,,,,,,,,,,,,,15,,,,,,,,,,,,,,386.76200000889366,,response,,,,7,F,,,,,,Space,keypress(Space),,,,instrumental,,,,---- --------- ---------- - --- ------- -- --- ------------<br>----- -- -------- ------- ---- ------ - -------- ---- -----<br>--- ------- ---- -- was -------- --- - ----- ------ ---- --<br>-------- --- -------- -------- --- -------- ---- -- ----- -<br>-------- ---- --- ---------- --------- -- ------- ------ -<br>--------- ----- -----,310656.57999995165,310655.39500000887,310251.966,310263.90999997966,310268.633,310668.636,,23,was
screen,html.Screen,2_3_1_0_1_24,2021-04-27T08:42:30.741Z,,,,,,,,,,,,,,,,,15,,,,,,,,,,,,,,527.459000021161,,response,,,,7,F,,,,,,Space,keypress(Space),,,,instrumental,,,,---- --------- ---------- - --- ------- -- --- ------------<br>----- -- -------- ------- ---- ------ - -------- ---- -----<br>--- ------- ---- -- --- prepared --- - ----- ------ ---- --<br>-------- --- -------- -------- --- -------- ---- -- ----- -<br>-------- ---- --- ---------- --------- -- ------- ------ -<br>--------- ----- -----,311197.30999995954,311196.09500002116,310651.969,310656.8350000307,310668.636,311204.057,,24,prepared
screen,html.Screen,2_3_1_0_1_25,2021-04-27T08:42:31.396Z,,,,,,,,,,,,,,,,,15,,,,,,,,,,,,,,646.6229999159114,,response,,,,7,F,,,,,,Space,keypress(Space),,,,instrumental,,,,---- --------- ---------- - --- ------- -- --- ------------<br>----- -- -------- ------- ---- ------ - -------- ---- -----<br>--- ------- ---- -- --- -------- for - ----- ------ ---- --<br>-------- --- -------- -------- --- -------- ---- -- ----- -<br>-------- ---- --- ---------- --------- -- ------- ------ -<br>--------- ----- -----,311851.76500002854,311850.6799999159,311187.39,311197.57999992,311204.057,311854.175,,25,for
screen,html.Screen,2_3_1_0_1_26,2021-04-27T08:42:31.711Z,,,,,,,,,,,,,,,,,15,,,,,,,,,,,,,,311.72000010014744,,response,,,,7,F,,,,,,Space,keypress(Space),,,,instrumental,,,,---- --------- ---------- - --- ------- -- --- ------------<br>----- -- -------- ------- ---- ------ - -------- ---- -----<br>--- ------- ---- -- --- -------- --- a ----- ------ ---- --<br>-------- --- -------- -------- --- -------- ---- -- ----- -<br>-------- ---- --- ---------- --------- -- ------- ------ -<br>--------- ----- -----,312167.1700000297,312165.89500010014,311837.508,311852.0150000695,311854.175,312172.281,,26,a
screen,html.Screen,2_3_1_0_1_27,2021-04-27T08:42:32.234Z,,,,,,,,,,,,,,,,,15,,,,,,,,,,,,,,516.2940000364906,,response,,,,7,F,,,,,,Space,keypress(Space),,,,instrumental,,,,---- --------- ---------- - --- ------- -- --- ------------<br>----- -- -------- ------- ---- ------ - -------- ---- -----<br>--- ------- ---- -- --- -------- --- - third ------ ---- --<br>-------- --- -------- -------- --- -------- ---- -- ----- -<br>-------- ---- --- ---------- --------- -- ------- ------ -<br>--------- ----- -----,312689.7400000598,312688.5750000365,312155.614,312167.4349999521,312172.281,312707.302,,27,third
screen,html.Screen,2_3_1_0_1_28,2021-04-27T08:42:32.683Z,,,,,,,,,,,,,,,,,15,,,,,,,,,,,,,,430.41799999878276,,response,,,,7,F,,,,,,Space,keypress(Space),,,,instrumental,,,,---- --------- ---------- - --- ------- -- --- ------------<br>----- -- -------- ------- ---- ------ - -------- ---- -----<br>--- ------- ---- -- --- -------- --- - ----- prison ---- --<br>-------- --- -------- -------- --- -------- ---- -- ----- -<br>-------- ---- --- ---------- --------- -- ------- ------ -<br>--------- ----- -----,313138.7650000397,313137.7199999988,312690.635,312690.050000092,312707.302,313141.462,,28,prison
screen,html.Screen,2_3_1_0_1_29,2021-04-27T08:42:33.117Z,,,,,,,,,,,,,,,,,15,,,,,,,,,,,,,,430.3030000005965,,response,,,,7,F,,,,,,Space,keypress(Space),,,,instrumental,,,,---- --------- ---------- - --- ------- -- --- ------------<br>----- -- -------- ------- ---- ------ - -------- ---- -----<br>--- ------- ---- -- --- -------- --- - ----- ------ stay --<br>-------- --- -------- -------- --- -------- ---- -- ----- -<br>-------- ---- --- ---------- --------- -- ------- ------ -<br>--------- ----- -----,313572.9199999478,313571.7650000006,313124.795,313139.02000011876,313141.462,313576.089,,29,stay
screen,html.Screen,2_3_1_0_1_30,2021-04-27T08:42:33.866Z,,,,,,,,,,,,,,,,,15,,,,,,,,,,,,,,744.9959999450366,,response,,,,7,F,,,,,,Space,keypress(Space),,,,instrumental,,,,---- --------- ---------- - --- ------- -- --- ------------<br>----- -- -------- ------- ---- ------ - -------- ---- -----<br>--- ------- ---- -- --- -------- --- - ----- ------ ---- to<br>-------- --- -------- -------- --- -------- ---- -- ----- -<br>-------- ---- --- ---------- --------- -- ------- ------ -<br>--------- ----- -----,314322.21999997273,314321.084999945,313559.422,313573.2249999419,313576.089,314328.347,,30,to
screen,html.Screen,2_3_1_0_1_31,2021-04-27T08:42:34.444Z,,,,,,,,,,,,,,,,,15,,,,,,,,,,,,,,570.72300004313,,response,,,,7,F,,,,,,Space,keypress(Space),,,,instrumental,,,,---- --------- ---------- - --- ------- -- --- ------------<br>----- -- -------- ------- ---- ------ - -------- ---- -----<br>--- ------- ---- -- --- -------- --- - ----- ------ ---- --<br>maintain --- -------- -------- --- -------- ---- -- ----- -<br>-------- ---- --- ---------- --------- -- ------- ------ -<br>--------- ----- -----,314900.12499992736,314899.07000004314,314311.68,314322.49499997124,314328.347,314911.818,,31,maintain
screen,html.Screen,2_3_1_0_1_32,2021-04-27T08:42:34.702Z,,,,,,,,,,,,,,,,,15,,,,,,,,,,,,,,244.98199999699136,,response,,,,7,F,,,,,,Space,keypress(Space),,,,instrumental,,,,---- --------- ---------- - --- ------- -- --- ------------<br>----- -- -------- ------- ---- ------ - -------- ---- -----<br>--- ------- ---- -- --- -------- --- - ----- ------ ---- --<br>-------- his -------- -------- --- -------- ---- -- ----- -<br>-------- ---- --- ---------- --------- -- ------- ------ -<br>--------- ----- -----,315157.8299999237,315156.799999997,314895.151,314900.3800000064,314911.818,315163.759,,32,his
screen,html.Screen,2_3_1_0_1_33,2021-04-27T08:42:36.983Z,,,,,,,,,,,,,,,,,15,,,,,,,,,,,,,,2274.0910001039156,,response,,,,7,F,,,,,,Space,keypress(Space),,,,instrumental,,,,---- --------- ---------- - --- ------- -- --- ------------<br>----- -- -------- ------- ---- ------ - -------- ---- -----<br>--- ------- ---- -- --- -------- --- - ----- ------ ---- --<br>-------- --- silence. -------- --- -------- ---- -- ----- -<br>-------- ---- --- ---------- --------- -- ------- ------ -<br>--------- ----- -----,317438.9750000555,317437.85000010394,315147.092,315158.100000117,315163.759,317448.604,,33,silence.
screen,html.Screen,2_3_1_0_1_34,2021-04-27T08:42:37.795Z,,,,,,,,,,,,,,,,,15,,,,,,,,,,,,,,800.9210001084139,,response,,,,7,F,,,,,,Space,keypress(Space),,,,instrumental,,,,---- --------- ---------- - --- ------- -- --- ------------<br>----- -- -------- ------- ---- ------ - -------- ---- -----<br>--- ------- ---- -- --- -------- --- - ----- ------ ---- --<br>-------- --- -------- Anderson --- -------- ---- -- ----- -<br>-------- ---- --- ---------- --------- -- ------- ------ -<br>--------- ----- -----,318250.66499994136,318249.5250001084,317431.937,317439.2299999017,317448.604,318265.907,,34,Anderson
screen,html.Screen,2_3_1_0_1_35,2021-04-27T08:42:38.122Z,,,,,,,,,,,,,,,,,15,,,,,,,,,,,,,,311.3730000850046,,response,,,,7,F,,,,,,Space,keypress(Space),,,,instrumental,,,,---- --------- ---------- - --- ------- -- --- ------------<br>----- -- -------- ------- ---- ------ - -------- ---- -----<br>--- ------- ---- -- --- -------- --- - ----- ------ ---- --<br>-------- --- -------- -------- was -------- ---- -- ----- -<br>-------- ---- --- ---------- --------- -- ------- ------ -<br>--------- ----- -----,318578.35999992676,318577.280000085,318249.24,318250.99000008777,318265.907,318588.559,,35,was
screen,html.Screen,2_3_1_0_1_36,2021-04-27T08:42:38.555Z,,,,,,,,,,,,,,,,,15,,,,,,,,,,,,,,421.3059999126708,,response,,,,7,F,,,,,,Space,keypress(Space),,,,instrumental,,,,---- --------- ---------- - --- ------- -- --- ------------<br>----- -- -------- ------- ---- ------ - -------- ---- -----<br>--- ------- ---- -- --- -------- --- - ----- ------ ---- --<br>-------- --- -------- -------- --- released ---- -- ----- -<br>-------- ---- --- ---------- --------- -- ------- ------ -<br>--------- ----- -----,319011.0249998979,319009.8649999127,318571.892,318578.6200000439,318588.559,319024.706,,36,released
screen,html.Screen,2_3_1_0_1_37,2021-04-27T08:42:38.943Z,,,,,,,,,,,,,,,,,15,,,,,,,,,,,,,,372.8539999539498,,response,,,,7,F,,,,,,Space,keypress(Space),,,,instrumental,,,,---- --------- ---------- - --- ------- -- --- ------------<br>----- -- -------- ------- ---- ------ - -------- ---- -----<br>--- ------- ---- -- --- -------- --- - ----- ------ ---- --<br>-------- --- -------- -------- --- -------- July -- ----- -<br>-------- ---- --- ---------- --------- -- ------- ------ -<br>--------- ----- -----,319398.615000071,319397.55999995396,319008.039,319011.3399999682,319024.706,319408.159,,37,July
screen,html.Screen,2_3_1_0_1_38,2021-04-27T08:42:39.390Z,,,,,,,,,,,,,,,,,15,,,,,,,,,,,,,,436.46599991060793,,response,,,,7,F,,,,,,Space,keypress(Space),,,,instrumental,,,,---- --------- ---------- - --- ------- -- --- ------------<br>----- -- -------- ------- ---- ------ - -------- ---- -----<br>--- ------- ---- -- --- -------- --- - ----- ------ ---- --<br>-------- --- -------- -------- --- -------- ---- 20 ----- -<br>-------- ---- --- ---------- --------- -- ------- ------ -<br>--------- ----- -----,319845.8799999207,319844.6249999106,319391.492,319398.865000112,319408.159,319859.317,,38,20
