sender,sender_type,sender_id,timestamp,meta,,Blues,Classical,Country,Dance,Electronic,Folk,Gospel,Hip-Hop,Jazz,Latin,Musical/Film,New-age,Pop,Prolific_id,Provo_ID,R&B,Rap,Reggae,Religious,Rock,Soul,Swing,Traditional,age,artist_name,correct,correctResponse,distraction,duration,education,ended_on,familiarity,gender,headphone_check_performance,item,list,music_frequency,offensiveness,pleasantness,position_correct,preference,response,response_action,snippet_file,song_name,song_rating,sound,stimulus_1,stimulus_2,stimulus_3,text,time_commit,time_end,time_render,time_run,time_show,time_switch,url,word,word_ID
Prolific ID,html.Form,0,2021-04-26T14:23:25.720Z,"{""labjs_version"":""20.2.2"",""labjs_build"":{""flavor"":""production"",""commit"":""a25486e0c714a0ae2ce03ff94b7bb6896854dcfa""},""location"":""https://run.pavlovia.org/mvasilev/prolific_music_c/"",""userAgent"":""Mozilla/5.0 (Macintosh; Intel Mac OS X 10_15_7) AppleWebKit/537.36 (KHTML, like Gecko) Chrome/90.0.4430.85 Safari/537.36"",""platform"":""MacIntel"",""language"":""en-GB"",""locale"":""en-GB"",""timeZone"":""Europe/London"",""timezoneOffset"":-60,""screen_width"":1440,""screen_height"":900,""scroll_width"":835,""scroll_height"":614,""window_innerWidth"":835,""window_innerHeight"":662,""devicePixelRatio"":2}",,,,,,,,,,,,,,,5e9375259c9687000b26ec11,,,,,,,,,,,,,,,5032.508999976297,,form submission,,,,,,,,,,,,,,,,,,,,,30622.594999993453,30622.049999976298,25356.217,25556.870000000345,25589.541,30650.616,{},,
Introduction,html.Screen,1_0,2021-04-26T14:23:32.906Z,,,,,,,,,,,,,,,,,,,,,,,,,,,,,,,7151.9089999773205,,response,,,,,,,,,,,continue,click button,,,,,,,,,37808.26999997953,37802.52499997732,30633.95,30622.969999996712,30650.616,37833.662,,,
Volume calibration,html.Screen,1_1,2021-04-26T14:23:57.091Z,,,,,,,,,,,,,,,,,,,,,,,,,,,,,,,24152.89299998131,,response,,,,,,,,,,,continue,click button,,,,,,,,,61993.11499999021,61986.55499998131,37816.996,37808.78500000108,37833.662,62011.691,,,
Task instructions,html.Screen,1_2,2021-04-26T14:24:20.915Z,,,,,,,,,,,,,,,,,,,,,,,,,,,,,,,23801.41899998823,,response,,,,,,,,,,,continue,click button,,,,,,,,,85816.50499999523,85813.10999998823,61995.025,61993.27999999514,62011.691,85839.112,,,
Sounds,html.Screen,1_3_0_0,2021-04-26T14:24:25.176Z,,,,,,,,,,,,,,,,,,,,,,,,,,,,,,,4249.830000000002,,timeout,,,,,,,,,3,,,,,,,,O,I,S,,90077.00999997905,90072.276,85822.446,85816.91500000306,85839.112,90088.942,,,
Judgement,html.Screen,1_3_0_1,2021-04-26T14:24:26.895Z,,,,,,,,,,,,,,,,,,,,,,,,,,,,true,3,,1703.977999978044,,response,,,,,,,,,3,,3,click #choice-3,,,,,O,I,S,,91795.61999998987,91792.91999997804,90072.276,90077.27499998873,90088.942,91822.206,,,
Trial,flow.Sequence,1_3_0,2021-04-26T14:24:26.895Z,,,,,,,,,,,,,,,,,,,,,,,,,,,,,,,5953.807999978046,,completion,,,,,,,,,3,,,,,,,,O,I,S,,91796.03499997756,91792.91999997804,85822.446,85816.83999998495,85839.112,91822.206,,,
Sounds,html.Screen,1_3_1_0,2021-04-26T14:24:31.156Z,,,,,,,,,,,,,,,,,,,,,,,,,,,,,,,4249.829999999987,,timeout,,,,,,,,,2,,,,,,,,O,S,I,,96057.37999998382,96055.37,91805.54,91796.21999998926,91822.206,96072.036,,,
Judgement,html.Screen,1_3_1_1,2021-04-26T14:24:31.691Z,,,,,,,,,,,,,,,,,,,,,,,,,,,,true,2,,516.258999994112,,response,,,,,,,,,2,,2,click #choice-2,,,,,O,S,I,,96591.53999999398,96588.2949999941,96055.37,96057.59499999112,96072.036,96616.506,,,
Trial,flow.Sequence,1_3_1,2021-04-26T14:24:31.691Z,,,,,,,,,,,,,,,,,,,,,,,,,,,,,,,4766.088999994099,,completion,,,,,,,,,2,,,,,,,,O,S,I,,96591.91999997711,96588.2949999941,91805.54,91796.15999999805,91822.206,96616.506,,,
Sounds,html.Screen,1_3_2_0,2021-04-26T14:24:35.951Z,,,,,,,,,,,,,,,,,,,,,,,,,,,,,,,4249.830000000002,,timeout,,,,,,,,,2,,,,,,,,I,S,O,,100852.23999997834,100849.67,96599.84,96592.16000000015,96616.506,100866.336,,,
Judgement,html.Screen,1_3_2_1,2021-04-26T14:24:36.474Z,,,,,,,,,,,,,,,,,,,,,,,,,,,,true,2,,505.04399999686575,,response,,,,,,,,,2,,2,click #choice-2,,,,,I,S,O,,101374.7549999971,101371.37999999686,100849.67,100852.38999998546,100866.336,101399.648,,,
Trial,flow.Sequence,1_3_2,2021-04-26T14:24:36.474Z,,,,,,,,,,,,,,,,,,,,,,,,,,,,,,,4754.8739999968675,,completion,,,,,,,,,2,,,,,,,,I,S,O,,101375.08999998681,101371.37999999686,96599.84,96592.0749999932,96616.506,101399.648,,,
Sounds,html.Screen,1_3_3_0,2021-04-26T14:24:40.735Z,,,,,,,,,,,,,,,,,,,,,,,,,,,,,,,4249.830000000002,,timeout,,,,,,,,,3,,,,,,,,I,O,S,,105635.37499998347,105632.812,101382.982,101375.32999998075,101399.648,105649.478,,,
Judgement,html.Screen,1_3_3_1,2021-04-26T14:24:41.648Z,,,,,,,,,,,,,,,,,,,,,,,,,,,,true,3,,896.5519999976968,,response,,,,,,,,,3,,3,click #choice-3,,,,,I,O,S,,106549.19999997946,106546.0299999977,105632.812,105635.57499999297,105649.478,106566.108,,,
Trial,flow.Sequence,1_3_3,2021-04-26T14:24:41.649Z,,,,,,,,,,,,,,,,,,,,,,,,,,,,,,,5146.381999997699,,completion,,,,,,,,,3,,,,,,,,I,O,S,,106549.54999999609,106546.0299999977,101382.982,101375.23499998497,101399.648,106566.108,,,
Sounds,html.Screen,1_3_4_0,2021-04-26T14:24:45.901Z,,,,,,,,,,,,,,,,,,,,,,,,,,,,,,,4249.830000000002,,timeout,,,,,,,,,1,,,,,,,,S,I,O,,110801.49499999243,110799.272,106549.442,106549.85999999917,106566.108,110815.938,,,
Judgement,html.Screen,1_3_4_1,2021-04-26T14:24:46.537Z,,,,,,,,,,,,,,,,,,,,,,,,,,,,true,1,,618.6019999874698,,response,,,,,,,,,1,,1,click #choice-1,,,,,S,I,O,,111438.06499999482,111434.53999998746,110799.272,110801.68999999296,110815.938,111465.424,,,
Trial,flow.Sequence,1_3_4,2021-04-26T14:24:46.538Z,,,,,,,,,,,,,,,,,,,,,,,,,,,,,,,4868.4319999874715,,completion,,,,,,,,,1,,,,,,,,S,I,O,,111438.37999997777,111434.53999998746,106549.442,106549.79999997886,106566.108,111465.424,,,
Sounds,html.Screen,1_3_5_0,2021-04-26T14:24:50.801Z,,,,,,,,,,,,,,,,,,,,,,,,,,,,,,,4249.830000000002,,timeout,,,,,,,,,1,,,,,,,,S,O,I,,115701.16499997675,115698.588,111448.758,111438.57999998727,111465.424,115715.254,,,
Judgement,html.Screen,1_3_5_1,2021-04-26T14:24:51.385Z,,,,,,,,,,,,,,,,,,,,,,,,,,,,true,1,,566.9759999825183,,response,,,,,,,,,1,,1,click #choice-1,,,,,S,O,I,,116285.78499998548,116282.22999998252,115698.588,115701.96999999462,115715.254,116315.23,,,
Trial,flow.Sequence,1_3_5,2021-04-26T14:24:51.386Z,,,,,,,,,,,,,,,,,,,,,,,,,,,,,,,4816.80599998252,,completion,,,,,,,,,1,,,,,,,,S,O,I,,116286.0899999796,116282.22999998252,111448.758,111438.5299999849,111465.424,116315.23,,,
Task,flow.Loop,1_3,2021-04-26T14:24:51.396Z,,,,,,,,,,,,,,,,,,,,,,,,,,,,,,,30443.117999982525,,completion,,,1,,,,,,,,,,,,,,,,,,116296.0749999911,116282.22999998252,85822.446,85816.73500000034,85839.112,116315.23,,,
Trap,html.Screen,1_4,2021-04-26T14:24:51.397Z,,,,,,,,,,,,,,,,,,,,,,,,,,,,,,,NaN,,skipped,,,,,,,,,,,,,,,,,,,,,116297.55499999737,116282.22999998252,,116297.39999998128,,116315.23,,,
Thanks,html.Screen,1_5,2021-04-26T14:24:55.850Z,,,,,,,,,,,,,,,,,,,,,,,,,,,,,,,4432.045000001541,,response,,,,,,,,,,,continue,click button,,,,,,,,,120750.3999999899,120747.27500000154,116298.564,116297.67499997979,116315.23,137694.657,,,
Headphone screening,flow.Sequence,1,2021-04-26T14:24:55.850Z,,,,,,,,,,,,,,,,,,,,,,,,,,,,,,,90096.65900000153,,completion,,,,,,,,,,,,,,,,,,,,,120750.72499999078,120747.27500000154,30633.95,30622.924999974202,30650.616,137694.657,,,
Instructions,html.Page,2_0,2021-04-26T14:25:43.870Z,,,,,,,,,,,,,,,,,,,,,,,,,,,,,,,31074.80299998133,,form submission,,,,,,,,,,,,,,,,,,,,,168769.79999998002,168769.45999998134,137677.991,137673.21499998798,137694.657,168796.489,,,
Holding screen,html.Screen,2_1_0_0,2021-04-26T14:25:53.887Z,,,,,,,,,,,,,,,,,,,,,,,,,,,,,,,10001.081000000006,,timeout,,,,,,,,,,,,,,,,,,,,,178786.09499998856,178780.904,168779.823,168770.0949999853,168796.489,178797.57,,,
screen,html.Screen,2_1_0_1_0,2021-04-26T14:25:54.774Z,,,,,,,,,,,,,,,,,53,,,,,,,,,,,,,,867.3649999788613,,response,,,,99,,,,,,,Space,keypress(Space),,,,,,,,When -- ----- -- ------ - ------- --- ----------<br>------------- ------ ------ ---- ---- ------- ----- -- ----<br>-------- ------- -- ---------- --- - --- ----- ----- ----<br>---- --- --- ----- --- ---- ---- ------- ----- ---- -------<br>--- --- -- ----- -- --- ---- -- --- ---- -- ------ ------<br>--- ----- -- ----,179673.209999979,179664.93499997887,178780.904,178786.30999999586,178797.57,179697.534,,0,When
screen,html.Screen,2_1_0_1_1,2021-04-26T14:25:55.325Z,,,,,,,,,,,,,,,,,53,,,,,,,,,,,,,,522.2959999872546,,response,,,,99,,,,,,,Space,keypress(Space),,,,,,,,---- it ----- -- ------ - ------- --- ----------<br>------------- ------ ------ ---- ---- ------- ----- -- ----<br>-------- ------- -- ---------- --- - --- ----- ----- ----<br>---- --- --- ----- --- ---- ---- ------- ----- ---- -------<br>--- --- -- ----- -- --- ---- -- --- ---- -- ------ ------<br>--- ----- -- ----,180223.82499999367,180219.82999998727,179680.868,179673.38999998174,179697.534,180250.355,,1,it
screen,html.Screen,2_1_0_1_2,2021-04-26T14:25:55.836Z,,,,,,,,,,,,,,,,,53,,,,,,,,,,,,,,480.70999999993364,,response,,,,99,,,,,,,Space,keypress(Space),,,,,,,,---- -- comes -- ------ - ------- --- ----------<br>------------- ------ ------ ---- ---- ------- ----- -- ----<br>-------- ------- -- ---------- --- - --- ----- ----- ----<br>---- --- --- ----- --- ---- ---- ------- ----- ---- -------<br>--- --- -- ----- -- --- ---- -- --- ---- -- ------ ------<br>--- ----- -- ----,180735.4499999783,180731.06499999994,180233.689,180224.02500000317,180250.355,180750.335,,2,comes
screen,html.Screen,2_1_0_1_3,2021-04-26T14:25:56.294Z,,,,,,,,,,,,,,,,,53,,,,,,,,,,,,,,438.57999997699517,,response,,,,99,,,,,,,Space,keypress(Space),,,,,,,,---- -- ----- to ------ - ------- --- ----------<br>------------- ------ ------ ---- ---- ------- ----- -- ----<br>-------- ------- -- ---------- --- - --- ----- ----- ----<br>---- --- --- ----- --- ---- ---- ------- ----- ---- -------<br>--- --- -- ----- -- --- ---- -- --- ---- -- ------ ------<br>--- ----- -- ----,181193.34499997785,181188.914999977,180733.669,180735.6499999878,180750.335,181216.983,,3,to
screen,html.Screen,2_1_0_1_4,2021-04-26T14:25:56.860Z,,,,,,,,,,,,,,,,,53,,,,,,,,,,,,,,537.9619999933057,,response,,,,99,,,,,,,Space,keypress(Space),,,,,,,,---- -- ----- -- having - ------- --- ----------<br>------------- ------ ------ ---- ---- ------- ----- -- ----<br>-------- ------- -- ---------- --- - --- ----- ----- ----<br>---- --- --- ----- --- ---- ---- ------- ----- ---- -------<br>--- --- -- ----- -- --- ---- -- --- ---- -- ------ ------<br>--- ----- -- ----,181759.37499999418,181754.9449999933,181200.317,181193.53999997838,181216.983,181783.627,,4,having
screen,html.Screen,2_1_0_1_5,2021-04-26T14:25:57.337Z,,,,,,,,,,,,,,,,,53,,,,,,,,,,,,,,448.4130000025907,,response,,,,99,,,,,,,Space,keypress(Space),,,,,,,,---- -- ----- -- ------ a ------- --- ----------<br>------------- ------ ------ ---- ---- ------- ----- -- ----<br>-------- ------- -- ---------- --- - --- ----- ----- ----<br>---- --- --- ----- --- ---- ---- ------- ----- ---- -------<br>--- --- -- ----- -- --- ---- -- --- ---- -- ------ ------<br>--- ----- -- ----,182236.29999998957,182232.0400000026,181766.961,181759.5699999947,181783.627,182250.275,,5,a
screen,html.Screen,2_1_0_1_6,2021-04-26T14:25:58.005Z,,,,,,,,,,,,,,,,,53,,,,,,,,,,,,,,649.6599999940081,,response,,,,99,,,,,,,Space,keypress(Space),,,,,,,,---- -- ----- -- ------ - lasting --- ----------<br>------------- ------ ------ ---- ---- ------- ----- -- ----<br>-------- ------- -- ---------- --- - --- ----- ----- ----<br>---- --- --- ----- --- ---- ---- ------- ----- ---- -------<br>--- --- -- ----- -- --- ---- -- --- ---- -- ------ ------<br>--- ----- -- ----,182904.28999997675,182899.934999994,182233.609,182236.49999999907,182250.275,182933.581,,6,lasting
screen,html.Screen,2_1_0_1_7,2021-04-26T14:25:58.645Z,,,,,,,,,,,,,,,,,53,,,,,,,,,,,,,,606.3689999766648,,response,,,,99,,,,,,,Space,keypress(Space),,,,,,,,---- -- ----- -- ------ - ------- and ----------<br>------------- ------ ------ ---- ---- ------- ----- -- ----<br>-------- ------- -- ---------- --- - --- ----- ----- ----<br>---- --- --- ----- --- ---- ---- ------- ----- ---- -------<br>--- --- -- ----- -- --- ---- -- --- ---- -- ------ ------<br>--- ----- -- ----,183544.1399999836,183539.94999997667,182916.915,182904.49499999522,182933.581,183566.889,,7,and
screen,html.Screen,2_1_0_1_8,2021-04-26T14:25:59.150Z,,,,,,,,,,,,,,,,,53,,,,,,,,,,,,,,477.9459999787796,,response,,,,99,,,,,,,Space,keypress(Space),,,,,,,,---- -- ----- -- ------ - ------- --- fulfilling<br>------------- ------ ------ ---- ---- ------- ----- -- ----<br>-------- ------- -- ---------- --- - --- ----- ----- ----<br>---- --- --- ----- --- ---- ---- ------- ----- ---- -------<br>--- --- -- ----- -- --- ---- -- --- ---- -- ------ ------<br>--- ----- -- ----,184049.21499997727,184044.83499997878,183550.223,183544.3399999931,183566.889,184066.869,,8,fulfilling
screen,html.Screen,2_1_0_1_9,2021-04-26T14:25:59.827Z,,,,,,,,,,,,,,,,,53,,,,,,,,,,,,,,654.9459999971441,,response,,,,99,,,,,,,Space,keypress(Space),,,,,,,,"---- -- ----- -- ------ - ------- --- ----------<br>relationship, ------ ------ ---- ---- ------- ----- -- ----<br>-------- ------- -- ---------- --- - --- ----- ----- ----<br>---- --- --- ----- --- ---- ---- ------- ----- ---- -------<br>--- --- -- ----- -- --- ---- -- --- ---- -- ------ ------<br>--- ----- -- ----",184726.2800000026,184721.81499999715,184050.203,184049.4099999778,184066.869,184750.175,,9,"relationship,"
screen,html.Screen,2_1_0_1_10,2021-04-26T14:26:00.487Z,,,,,,,,,,,,,,,,,53,,,,,,,,,,,,,,631.7050000008312,,response,,,,99,,,,,,,Space,keypress(Space),,,,,,,,---- -- ----- -- ------ - ------- --- ----------<br>------------- common ------ ---- ---- ------- ----- -- ----<br>-------- ------- -- ---------- --- - --- ----- ----- ----<br>---- --- --- ----- --- ---- ---- ------- ----- ---- -------<br>--- --- -- ----- -- --- ---- -- --- ---- -- ------ ------<br>--- ----- -- ----,185386.23499998357,185381.88000000082,184733.509,184726.47500000312,184750.175,185400.149,,10,common
screen,html.Screen,2_1_0_1_11,2021-04-26T14:26:01.065Z,,,,,,,,,,,,,,,,,53,,,,,,,,,,,,,,559.6460000024817,,response,,,,99,,,,,,,Space,keypress(Space),,,,,,,,---- -- ----- -- ------ - ------- --- ----------<br>------------- ------ wisdom ---- ---- ------- ----- -- ----<br>-------- ------- -- ---------- --- - --- ----- ----- ----<br>---- --- --- ----- --- ---- ---- ------- ----- ---- -------<br>--- --- -- ----- -- --- ---- -- --- ---- -- ------ ------<br>--- ----- -- ----,185964.11499998067,185959.7950000025,185383.483,185386.43499999307,185400.149,185983.459,,11,wisdom
screen,html.Screen,2_1_0_1_12,2021-04-26T14:26:01.805Z,,,,,,,,,,,,,,,,,53,,,,,,,,,,,,,,716.4710000024934,,response,,,,99,,,,,,,Space,keypress(Space),,,,,,,,---- -- ----- -- ------ - ------- --- ----------<br>------------- ------ ------ says ---- ------- ----- -- ----<br>-------- ------- -- ---------- --- - --- ----- ----- ----<br>---- --- --- ----- --- ---- ---- ------- ----- ---- -------<br>--- --- -- ----- -- --- ---- -- --- ---- -- ------ ------<br>--- ----- -- ----,186703.41999997618,186699.9300000025,185966.793,185964.31499999017,185983.459,186733.429,,12,says
screen,html.Screen,2_1_0_1_13,2021-04-26T14:26:02.506Z,,,,,,,,,,,,,,,,,53,,,,,,,,,,,,,,667.3909999807365,,response,,,,99,,,,,,,Space,keypress(Space),,,,,,,,---- -- ----- -- ------ - ------- --- ----------<br>------------- ------ ------ ---- that ------- ----- -- ----<br>-------- ------- -- ---------- --- - --- ----- ----- ----<br>---- --- --- ----- --- ---- ---- ------- ----- ---- -------<br>--- --- -- ----- -- --- ---- -- --- ---- -- ------ ------<br>--- ----- -- ----,187405.33499998855,187400.81999998074,186716.763,186703.57499999227,186733.429,187433.401,,13,that
screen,html.Screen,2_1_0_1_14,2021-04-26T14:26:03.134Z,,,,,,,,,,,,,,,,,53,,,,,,,,,,,,,,595.3589999864926,,response,,,,99,,,,,,,Space,keypress(Space),,,,,,,,---- -- ----- -- ------ - ------- --- ----------<br>------------- ------ ------ ---- ---- feeling ----- -- ----<br>-------- ------- -- ---------- --- - --- ----- ----- ----<br>---- --- --- ----- --- ---- ---- ------- ----- ---- -------<br>--- --- -- ----- -- --- ---- -- --- ---- -- ------ ------<br>--- ----- -- ----,188033.0799999938,188028.7599999865,187416.735,187405.53999997792,187433.401,188050.043,,14,feeling
screen,html.Screen,2_1_0_1_15,2021-04-26T14:26:03.720Z,,,,,,,,,,,,,,,,,53,,,,,,,,,,,,,,564.7569999811822,,response,,,,99,,,,,,,Space,keypress(Space),,,,,,,,---- -- ----- -- ------ - ------- --- ----------<br>------------- ------ ------ ---- ---- ------- close -- ----<br>-------- ------- -- ---------- --- - --- ----- ----- ----<br>---- --- --- ----- --- ---- ---- ------- ----- ---- -------<br>--- --- -- ----- -- --- ---- -- --- ---- -- ------ ------<br>--- ----- -- ----,188619.18499998865,188614.7999999812,188033.377,188033.27999997418,188050.043,188633.353,,15,close
screen,html.Screen,2_1_0_1_16,2021-04-26T14:26:04.250Z,,,,,,,,,,,,,,,,,53,,,,,,,,,,,,,,511.3769999999786,,response,,,,99,,,,,,,Space,keypress(Space),,,,,,,,---- -- ----- -- ------ - ------- --- ----------<br>------------- ------ ------ ---- ---- ------- ----- to ----<br>-------- ------- -- ---------- --- - --- ----- ----- ----<br>---- --- --- ----- --- ---- ---- ------- ----- ---- -------<br>--- --- -- ----- -- --- ---- -- --- ---- -- ------ ------<br>--- ----- -- ----,189149.15499999188,189144.72999999998,188616.687,188619.389999978,188633.353,189166.665,,16,to
screen,html.Screen,2_1_0_1_17,2021-04-26T14:26:04.808Z,,,,,,,,,,,,,,,,,53,,,,,,,,,,,,,,534.0549999934447,,response,,,,99,,,,,,,Space,keypress(Space),,,,,,,,---- -- ----- -- ------ - ------- --- ----------<br>------------- ------ ------ ---- ---- ------- ----- -- your<br>-------- ------- -- ---------- --- - --- ----- ----- ----<br>---- --- --- ----- --- ---- ---- ------- ----- ---- -------<br>--- --- -- ----- -- --- ---- -- --- ---- -- ------ ------<br>--- ----- -- ----,189706.93999997457,189700.71999999345,189149.999,189149.35999998124,189166.665,189733.309,,17,your
screen,html.Screen,2_1_0_1_18,2021-04-26T14:26:05.347Z,,,,,,,,,,,,,,,,,53,,,,,,,,,,,,,,508.4359999775188,,response,,,,99,,,,,,,Space,keypress(Space),,,,,,,,---- -- ----- -- ------ - ------- --- ----------<br>------------- ------ ------ ---- ---- ------- ----- -- ----<br>romantic ------- -- ---------- --- - --- ----- ----- ----<br>---- --- --- ----- --- ---- ---- ------- ----- ---- -------<br>--- --- -- ----- -- --- ---- -- --- ---- -- ------ ------<br>--- ----- -- ----,190246.08499999158,190241.74499997753,189716.643,189707.14499999303,189733.309,190260.588,,18,romantic
screen,html.Screen,2_1_0_1_19,2021-04-26T14:26:05.943Z,,,,,,,,,,,,,,,,,53,,,,,,,,,,,,,,576.1269999830984,,response,,,,99,,,,,,,Space,keypress(Space),,,,,,,,---- -- ----- -- ------ - ------- --- ----------<br>------------- ------ ------ ---- ---- ------- ----- -- ----<br>-------- partner -- ---------- --- - --- ----- ----- ----<br>---- --- --- ----- --- ---- ---- ------- ----- ---- -------<br>--- --- -- ----- -- --- ---- -- --- ---- -- ------ ------<br>--- ----- -- ----,190842.21000000252,190836.7149999831,190243.922,190246.28500000108,190260.588,190860.564,,19,partner
screen,html.Screen,2_1_0_1_20,2021-04-26T14:26:06.535Z,,,,,,,,,,,,,,,,,53,,,,,,,,,,,,,,569.0159999963362,,response,,,,99,,,,,,,Space,keypress(Space),,,,,,,,---- -- ----- -- ------ - ------- --- ----------<br>------------- ------ ------ ---- ---- ------- ----- -- ----<br>-------- ------- is ---------- --- - --- ----- ----- ----<br>---- --- --- ----- --- ---- ---- ------- ----- ---- -------<br>--- --- -- ----- -- --- ---- -- --- ---- -- ------ ------<br>--- ----- -- ----,191433.81499999668,191429.57999999635,190843.898,190842.40999998292,190860.564,191460.54,,20,is
screen,html.Screen,2_1_0_1_21,2021-04-26T14:26:07.886Z,,,,,,,,,,,,,,,,,53,,,,,,,,,,,,,,1320.2799999853887,,response,,,,99,,,,,,,Space,keypress(Space),,,,,,,,---- -- ----- -- ------ - ------- --- ----------<br>------------- ------ ------ ---- ---- ------- ----- -- ----<br>-------- ------- -- paramount. --- - --- ----- ----- ----<br>---- --- --- ----- --- ---- ---- ------- ----- ---- -------<br>--- --- -- ----- -- --- ---- -- --- ---- -- ------ ------<br>--- ----- -- ----,192785.01999998116,192780.8199999854,191443.874,191434.00999999722,191460.54,192810.486,,21,paramount.
screen,html.Screen,2_1_0_1_22,2021-04-26T14:26:08.727Z,,,,,,,,,,,,,,,,,53,,,,,,,,,,,,,,812.0339999753342,,response,,,,99,,,,,,,Space,keypress(Space),,,,,,,,---- -- ----- -- ------ - ------- --- ----------<br>------------- ------ ------ ---- ---- ------- ----- -- ----<br>-------- ------- -- ---------- But - --- ----- ----- ----<br>---- --- --- ----- --- ---- ---- ------- ----- ---- -------<br>--- --- -- ----- -- --- ---- -- --- ---- -- ------ ------<br>--- ----- -- ----,193626.12499998068,193622.51999997534,192793.82,192785.2149999817,192810.486,193643.786,,22,But
screen,html.Screen,2_1_0_1_23,2021-04-26T14:26:09.192Z,,,,,,,,,,,,,,,,,53,,,,,,,,,,,,,,442.88399998968816,,response,,,,99,,,,,,,Space,keypress(Space),,,,,,,,---- -- ----- -- ------ - ------- --- ----------<br>------------- ------ ------ ---- ---- ------- ----- -- ----<br>-------- ------- -- ---------- --- a --- ----- ----- ----<br>---- --- --- ----- --- ---- ---- ------- ----- ---- -------<br>--- --- -- ----- -- --- ---- -- --- ---- -- ------ ------<br>--- ----- -- ----,194090.8749999944,194086.66999998968,193627.12,193626.26499999897,193643.786,194110.434,,23,a
screen,html.Screen,2_1_0_1_24,2021-04-26T14:26:09.734Z,,,,,,,,,,,,,,,,,53,,,,,,,,,,,,,,518.1459999895887,,response,,,,99,,,,,,,Space,keypress(Space),,,,,,,,---- -- ----- -- ------ - ------- --- ----------<br>------------- ------ ------ ---- ---- ------- ----- -- ----<br>-------- ------- -- ---------- --- - new ----- ----- ----<br>---- --- --- ----- --- ---- ---- ------- ----- ---- -------<br>--- --- -- ----- -- --- ---- -- --- ---- -- ------ ------<br>--- ----- -- ----,194633.08999998844,194628.5799999896,194093.768,194091.06999999494,194110.434,194660.412,,24,new
screen,html.Screen,2_1_0_1_25,2021-04-26T14:26:10.144Z,,,,,,,,,,,,,,,,,53,,,,,,,,,,,,,,378.0779999771621,,response,,,,99,,,,,,,Space,keypress(Space),,,,,,,,---- -- ----- -- ------ - ------- --- ----------<br>------------- ------ ------ ---- ---- ------- ----- -- ----<br>-------- ------- -- ---------- --- - --- study ----- ----<br>---- --- --- ----- --- ---- ---- ------- ----- ---- -------<br>--- --- -- ----- -- --- ---- -- --- ---- -- ------ ------<br>--- ----- -- ----,195042.70499999984,195038.48999997717,194643.746,194633.28999999794,194660.412,195060.396,,25,study
screen,html.Screen,2_1_0_1_26,2021-04-26T14:26:10.647Z,,,,,,,,,,,,,,,,,53,,,,,,,,,,,,,,481.23399999242974,,response,,,,99,,,,,,,Space,keypress(Space),,,,,,,,---- -- ----- -- ------ - ------- --- ----------<br>------------- ------ ------ ---- ---- ------- ----- -- ----<br>-------- ------- -- ---------- --- - --- ----- finds ----<br>---- --- --- ----- --- ---- ---- ------- ----- ---- -------<br>--- --- -- ----- -- --- ---- -- --- ---- -- ------ ------<br>--- ----- -- ----,195546.0000000021,195541.62999999244,195043.73,195042.90499998024,195060.396,195560.376,,26,finds
screen,html.Screen,2_1_0_1_27,2021-04-26T14:26:11.117Z,,,,,,,,,,,,,,,,,53,,,,,,,,,,,,,,451.11399997532135,,response,,,,99,,,,,,,Space,keypress(Space),,,,,,,,---- -- ----- -- ------ - ------- --- ----------<br>------------- ------ ------ ---- ---- ------- ----- -- ----<br>-------- ------- -- ---------- --- - --- ----- ----- that<br>---- --- --- ----- --- ---- ---- ------- ----- ---- -------<br>--- --- -- ----- -- --- ---- -- --- ---- -- ------ ------<br>--- ----- -- ----,196015.91999997618,196011.4899999753,195543.71,195546.1999999825,195560.376,196043.69,,27,that
screen,html.Screen,2_1_0_1_28,2021-04-26T14:26:11.618Z,,,,,,,,,,,,,,,,,53,,,,,,,,,,,,,,468.7749999779626,,response,,,,99,,,,,,,Space,keypress(Space),,,,,,,,---- -- ----- -- ------ - ------- --- ----------<br>------------- ------ ------ ---- ---- ------- ----- -- ----<br>-------- ------- -- ---------- --- - --- ----- ----- ----<br>it's --- --- ----- --- ---- ---- ------- ----- ---- -------<br>--- --- -- ----- -- --- ---- -- --- ---- -- ------ ------<br>--- ----- -- ----,196516.82999997865,196512.46499997796,196027.024,196016.1149999767,196043.69,196543.67,,28,it's
screen,html.Screen,2_1_0_1_29,2021-04-26T14:26:12.050Z,,,,,,,,,,,,,,,,,53,,,,,,,,,,,,,,400.92999998797313,,response,,,,99,,,,,,,Space,keypress(Space),,,,,,,,---- -- ----- -- ------ - ------- --- ----------<br>------------- ------ ------ ---- ---- ------- ----- -- ----<br>-------- ------- -- ---------- --- - --- ----- ----- ----<br>---- not --- ----- --- ---- ---- ------- ----- ---- -------<br>--- --- -- ----- -- --- ---- -- --- ---- -- ------ ------<br>--- ----- -- ----,196948.96499998868,196944.599999988,196527.004,196517.02499997918,196543.67,196976.986,,29,not
screen,html.Screen,2_1_0_1_30,2021-04-26T14:26:12.655Z,,,,,,,,,,,,,,,,,53,,,,,,,,,,,,,,572.5389999803447,,response,,,,99,,,,,,,Space,keypress(Space),,,,,,,,---- -- ----- -- ------ - ------- --- ----------<br>------------- ------ ------ ---- ---- ------- ----- -- ----<br>-------- ------- -- ---------- --- - --- ----- ----- ----<br>---- --- how ----- --- ---- ---- ------- ----- ---- -------<br>--- --- -- ----- -- --- ---- -- --- ---- -- ------ ------<br>--- ----- -- ----,197553.85999998543,197549.52499998035,196960.32,196949.254999985,196976.986,197576.962,,30,how
screen,html.Screen,2_1_0_1_31,2021-04-26T14:26:13.107Z,,,,,,,,,,,,,,,,,53,,,,,,,,,,,,,,424.5279999951017,,response,,,,99,,,,,,,Space,keypress(Space),,,,,,,,---- -- ----- -- ------ - ------- --- ----------<br>------------- ------ ------ ---- ---- ------- ----- -- ----<br>-------- ------- -- ---------- --- - --- ----- ----- ----<br>---- --- --- close --- ---- ---- ------- ----- ---- -------<br>--- --- -- ----- -- --- ---- -- --- ---- -- ------ ------<br>--- ----- -- ----,198005.7149999775,198001.4899999951,197560.296,197554.05499998596,197576.962,198026.944,,31,close
screen,html.Screen,2_1_0_1_32,2021-04-26T14:26:13.600Z,,,,,,,,,,,,,,,,,53,,,,,,,,,,,,,,467.60099999411614,,response,,,,99,,,,,,,Space,keypress(Space),,,,,,,,---- -- ----- -- ------ - ------- --- ----------<br>------------- ------ ------ ---- ---- ------- ----- -- ----<br>-------- ------- -- ---------- --- - --- ----- ----- ----<br>---- --- --- ----- you ---- ---- ------- ----- ---- -------<br>--- --- -- ----- -- --- ---- -- --- ---- -- ------ ------<br>--- ----- -- ----,198498.87499999022,198494.5449999941,198010.278,198005.914999987,198026.944,198526.924,,32,you
screen,html.Screen,2_1_0_1_33,2021-04-26T14:26:13.984Z,,,,,,,,,,,,,,,,,53,,,,,,,,,,,,,,351.41599999566097,,response,,,,99,,,,,,,Space,keypress(Space),,,,,,,,---- -- ----- -- ------ - ------- --- ----------<br>------------- ------ ------ ---- ---- ------- ----- -- ----<br>-------- ------- -- ---------- --- - --- ----- ----- ----<br>---- --- --- ----- --- feel ---- ------- ----- ---- -------<br>--- --- -- ----- -- --- ---- -- --- ---- -- ------ ------<br>--- ----- -- ----,198882.8649999923,198878.33999999566,198510.258,198499.07999997959,198526.924,198910.242,,33,feel
screen,html.Screen,2_1_0_1_34,2021-04-26T14:26:14.683Z,,,,,,,,,,,,,,,,,53,,,,,,,,,,,,,,666.3629999801924,,response,,,,99,,,,,,,Space,keypress(Space),,,,,,,,---- -- ----- -- ------ - ------- --- ----------<br>------------- ------ ------ ---- ---- ------- ----- -- ----<br>-------- ------- -- ---------- --- - --- ----- ----- ----<br>---- --- --- ----- --- ---- that ------- ----- ---- -------<br>--- --- -- ----- -- --- ---- -- --- ---- -- ------ ------<br>--- ----- -- ----,199581.40999998432,199576.6049999802,198893.576,198883.06999998167,198910.242,199610.214,,34,that
screen,html.Screen,2_1_0_1_35,2021-04-26T14:26:15.150Z,,,,,,,,,,,,,,,,,53,,,,,,,,,,,,,,432.2609999947308,,response,,,,99,,,,,,,Space,keypress(Space),,,,,,,,---- -- ----- -- ------ - ------- --- ----------<br>------------- ------ ------ ---- ---- ------- ----- -- ----<br>-------- ------- -- ---------- --- - --- ----- ----- ----<br>---- --- --- ----- --- ---- ---- matters ----- ---- -------<br>--- --- -- ----- -- --- ---- -- --- ---- -- ------ ------<br>--- ----- -- ----,200048.30999998376,200042.47499999474,199593.548,199581.63499998045,199610.214,200076.862,,35,matters
screen,html.Screen,2_1_0_1_36,2021-04-26T14:26:15.719Z,,,,,,,,,,,,,,,,,53,,,,,,,,,,,,,,536.5029999974358,,response,,,,99,,,,,,,Space,keypress(Space),,,,,,,,"---- -- ----- -- ------ - ------- --- ----------<br>------------- ------ ------ ---- ---- ------- ----- -- ----<br>-------- ------- -- ---------- --- - --- ----- ----- ----<br>---- --- --- ----- --- ---- ---- ------- most, ---- -------<br>--- --- -- ----- -- --- ---- -- --- ---- -- ------ ------<br>--- ----- -- ----",200617.83499998273,200613.36499999743,200060.196,200049.73499997868,200076.862,200645.384,,36,"most,"
screen,html.Screen,2_1_0_1_37,2021-04-26T14:26:16.162Z,,,,,,,,,,,,,,,,,53,,,,,,,,,,,,,,411.2609999751148,,response,,,,99,,,,,,,Space,keypress(Space),,,,,,,,---- -- ----- -- ------ - ------- --- ----------<br>------------- ------ ------ ---- ---- ------- ----- -- ----<br>-------- ------- -- ---------- --- - --- ----- ----- ----<br>---- --- --- ----- --- ---- ---- ------- ----- it's -------<br>--- --- -- ----- -- --- ---- -- --- ---- -- ------ ------<br>--- ----- -- ----,201061.07499997597,201056.6449999751,200628.718,200618.04999999003,200645.384,201078.7,,37,it's
screen,html.Screen,2_1_0_1_38,2021-04-26T14:26:16.604Z,,,,,,,,,,,,,,,,,53,,,,,,,,,,,,,,419.72999997780425,,response,,,,99,,,,,,,Space,keypress(Space),,,,,,,,---- -- ----- -- ------ - ------- --- ----------<br>------------- ------ ------ ---- ---- ------- ----- -- ----<br>-------- ------- -- ---------- --- - --- ----- ----- ----<br>---- --- --- ----- --- ---- ---- ------- ----- ---- whether<br>--- --- -- ----- -- --- ---- -- --- ---- -- ------ ------<br>--- ----- -- ----,201502.63000000268,201498.42999997782,201062.034,201061.26499999664,201078.7,201528.682,,38,whether
screen,html.Screen,2_1_0_1_39,2021-04-26T14:26:17.047Z,,,,,,,,,,,,,,,,,53,,,,,,,,,,,,,,412.8779999774706,,response,,,,99,,,,,,,Space,keypress(Space),,,,,,,,---- -- ----- -- ------ - ------- --- ----------<br>------------- ------ ------ ---- ---- ------- ----- -- ----<br>-------- ------- -- ---------- --- - --- ----- ----- ----<br>---- --- --- ----- --- ---- ---- ------- ----- ---- -------<br>you --- -- ----- -- --- ---- -- --- ---- -- ------ ------<br>--- ----- -- ----,201945.76999999117,201941.55999997747,201512.016,201502.81999999424,201528.682,201961.998,,39,you
screen,html.Screen,2_1_0_1_40,2021-04-26T14:26:17.487Z,,,,,,,,,,,,,,,,,53,,,,,,,,,,,,,,419.4719999929948,,response,,,,99,,,,,,,Space,keypress(Space),,,,,,,,---- -- ----- -- ------ - ------- --- ----------<br>------------- ------ ------ ---- ---- ------- ----- -- ----<br>-------- ------- -- ---------- --- - --- ----- ----- ----<br>---- --- --- ----- --- ---- ---- ------- ----- ---- -------<br>--- are -- ----- -- --- ---- -- --- ---- -- ------ ------<br>--- ----- -- ----,202385.8299999847,202381.469999993,201945.332,201945.95999998273,201961.998,202411.98,,40,are
screen,html.Screen,2_1_0_1_41,2021-04-26T14:26:17.932Z,,,,,,,,,,,,,,,,,53,,,,,,,,,,,,,,414.3849999862432,,response,,,,99,,,,,,,Space,keypress(Space),,,,,,,,---- -- ----- -- ------ - ------- --- ----------<br>------------- ------ ------ ---- ---- ------- ----- -- ----<br>-------- ------- -- ---------- --- - --- ----- ----- ----<br>---- --- --- ----- --- ---- ---- ------- ----- ---- -------<br>--- --- as ----- -- --- ---- -- --- ---- -- ------ ------<br>--- ----- -- ----,202830.77499998035,202826.36499998625,202395.314,202386.01999997627,202411.98,202845.296,,41,as
screen,html.Screen,2_1_0_1_42,2021-04-26T14:26:18.343Z,,,,,,,,,,,,,,,,,53,,,,,,,,,,,,,,392.07399998800247,,response,,,,99,,,,,,,Space,keypress(Space),,,,,,,,---- -- ----- -- ------ - ------- --- ----------<br>------------- ------ ------ ---- ---- ------- ----- -- ----<br>-------- ------- -- ---------- --- - --- ----- ----- ----<br>---- --- --- ----- --- ---- ---- ------- ----- ---- -------<br>--- --- -- close -- --- ---- -- --- ---- -- ------ ------<br>--- ----- -- ----,203241.95999998483,203237.369999988,202828.63,202830.95999999205,202845.296,203261.946,,42,close
screen,html.Screen,2_1_0_1_43,2021-04-26T14:26:18.773Z,,,,,,,,,,,,,,,,,53,,,,,,,,,,,,,,405.40399997425266,,response,,,,99,,,,,,,Space,keypress(Space),,,,,,,,---- -- ----- -- ------ - ------- --- ----------<br>------------- ------ ------ ---- ---- ------- ----- -- ----<br>-------- ------- -- ---------- --- - --- ----- ----- ----<br>---- --- --- ----- --- ---- ---- ------- ----- ---- -------<br>--- --- -- ----- as --- ---- -- --- ---- -- ------ ------<br>--- ----- -- ----,203671.73000000184,203667.34999997425,203245.28,203242.25999999908,203261.946,203695.262,,43,as
screen,html.Screen,2_1_0_1_44,2021-04-26T14:26:19.199Z,,,,,,,,,,,,,,,,,53,,,,,,,,,,,,,,398.09299998998176,,response,,,,99,,,,,,,Space,keypress(Space),,,,,,,,---- -- ----- -- ------ - ------- --- ----------<br>------------- ------ ------ ---- ---- ------- ----- -- ----<br>-------- ------- -- ---------- --- - --- ----- ----- ----<br>---- --- --- ----- --- ---- ---- ------- ----- ---- -------<br>--- --- -- ----- -- you ---- -- --- ---- -- ------ ------<br>--- ----- -- ----,204097.82499997527,204093.35499998997,203678.596,203671.91499998444,203695.262,204111.912,,44,you
screen,html.Screen,2_1_0_1_45,2021-04-26T14:26:19.624Z,,,,,,,,,,,,,,,,,53,,,,,,,,,,,,,,406.29300000029616,,response,,,,99,,,,,,,Space,keypress(Space),,,,,,,,---- -- ----- -- ------ - ------- --- ----------<br>------------- ------ ------ ---- ---- ------- ----- -- ----<br>-------- ------- -- ---------- --- - --- ----- ----- ----<br>---- --- --- ----- --- ---- ---- ------- ----- ---- -------<br>--- --- -- ----- -- --- want -- --- ---- -- ------ ------<br>--- ----- -- ----,204522.44000000064,204518.2050000003,204095.246,204100.35999998217,204111.912,204545.228,,45,want
screen,html.Screen,2_1_0_1_46,2021-04-26T14:26:20.104Z,,,,,,,,,,,,,,,,,53,,,,,,,,,,,,,,453.0119999862509,,response,,,,99,,,,,,,Space,keypress(Space),,,,,,,,---- -- ----- -- ------ - ------- --- ----------<br>------------- ------ ------ ---- ---- ------- ----- -- ----<br>-------- ------- -- ---------- --- - --- ----- ----- ----<br>---- --- --- ----- --- ---- ---- ------- ----- ---- -------<br>--- --- -- ----- -- --- ---- to --- ---- -- ------ ------<br>--- ----- -- ----,205002.1949999791,204998.23999998625,204528.562,204522.62499998324,204545.228,205028.542,,46,to
screen,html.Screen,2_1_0_1_47,2021-04-26T14:26:20.640Z,,,,,,,,,,,,,,,,,53,,,,,,,,,,,,,,505.77799997702823,,response,,,,99,,,,,,,Space,keypress(Space),,,,,,,,"---- -- ----- -- ------ - ------- --- ----------<br>------------- ------ ------ ---- ---- ------- ----- -- ----<br>-------- ------- -- ---------- --- - --- ----- ----- ----<br>---- --- --- ----- --- ---- ---- ------- ----- ---- -------<br>--- --- -- ----- -- --- ---- -- be, ---- -- ------ ------<br>--- ----- -- ----",205538.44499998377,205534.31999997701,205011.876,205002.37499998184,205028.542,205561.854,,47,"be,"
screen,html.Screen,2_1_0_1_48,2021-04-26T14:26:21.197Z,,,,,,,,,,,,,,,,,53,,,,,,,,,,,,,,529.47099998669,,response,,,,99,,,,,,,Space,keypress(Space),,,,,,,,---- -- ----- -- ------ - ------- --- ----------<br>------------- ------ ------ ---- ---- ------- ----- -- ----<br>-------- ------- -- ---------- --- - --- ----- ----- ----<br>---- --- --- ----- --- ---- ---- ------- ----- ---- -------<br>--- --- -- ----- -- --- ---- -- --- even -- ------ ------<br>--- ----- -- ----,206095.52000000258,206091.32499998668,205545.188,205538.6249999865,205561.854,206111.832,,48,even
screen,html.Screen,2_1_0_1_49,2021-04-26T14:26:21.681Z,,,,,,,,,,,,,,,,,53,,,,,,,,,,,,,,463.4380000011879,,response,,,,99,,,,,,,Space,keypress(Space),,,,,,,,---- -- ----- -- ------ - ------- --- ----------<br>------------- ------ ------ ---- ---- ------- ----- -- ----<br>-------- ------- -- ---------- --- - --- ----- ----- ----<br>---- --- --- ----- --- ---- ---- ------- ----- ---- -------<br>--- --- -- ----- -- --- ---- -- --- ---- if ------ ------<br>--- ----- -- ----,206579.60999998613,206575.27000000118,206095.166,206095.6999999762,206111.832,206595.146,,49,if
screen,html.Screen,2_1_0_1_50,2021-04-26T14:26:22.109Z,,,,,,,,,,,,,,,,,53,,,,,,,,,,,,,,408.1589999910793,,response,,,,99,,,,,,,Space,keypress(Space),,,,,,,,---- -- ----- -- ------ - ------- --- ----------<br>------------- ------ ------ ---- ---- ------- ----- -- ----<br>-------- ------- -- ---------- --- - --- ----- ----- ----<br>---- --- --- ----- --- ---- ---- ------- ----- ---- -------<br>--- --- -- ----- -- --- ---- -- --- ---- -- that's ------<br>--- ----- -- ----,207007.44499999564,207003.3049999911,206578.48,206579.78999998886,206595.146,207028.462,,50,that's
screen,html.Screen,2_1_0_1_51,2021-04-26T14:26:22.598Z,,,,,,,,,,,,,,,,,53,,,,,,,,,,,,,,463.677999987558,,response,,,,99,,,,,,,Space,keypress(Space),,,,,,,,---- -- ----- -- ------ - ------- --- ----------<br>------------- ------ ------ ---- ---- ------- ----- -- ----<br>-------- ------- -- ---------- --- - --- ----- ----- ----<br>---- --- --- ----- --- ---- ---- ------- ----- ---- -------<br>--- --- -- ----- -- --- ---- -- --- ---- -- ------ really<br>--- ----- -- ----,207496.0949999804,207492.13999998756,207011.796,207007.62499999837,207028.462,207511.776,,51,really
screen,html.Screen,2_1_0_1_52,2021-04-26T14:26:23.077Z,,,,,,,,,,,,,,,,,53,,,,,,,,,,,,,,459.5439999823575,,response,,,,99,,,,,,,Space,keypress(Space),,,,,,,,---- -- ----- -- ------ - ------- --- ----------<br>------------- ------ ------ ---- ---- ------- ----- -- ----<br>-------- ------- -- ---------- --- - --- ----- ----- ----<br>---- --- --- ----- --- ---- ---- ------- ----- ---- -------<br>--- --- -- ----- -- --- ---- -- --- ---- -- ------ ------<br>not ----- -- ----,207975.65499998746,207971.31999998237,207495.11,207496.28999998095,207511.776,207995.09,,52,not
screen,html.Screen,2_1_0_1_53,2021-04-26T14:26:23.493Z,,,,,,,,,,,,,,,,,53,,,,,,,,,,,,,,392.2299999798124,,response,,,,99,,,,,,,Space,keypress(Space),,,,,,,,---- -- ----- -- ------ - ------- --- ----------<br>------------- ------ ------ ---- ---- ------- ----- -- ----<br>-------- ------- -- ---------- --- - --- ----- ----- ----<br>---- --- --- ----- --- ---- ---- ------- ----- ---- -------<br>--- --- -- ----- -- --- ---- -- --- ---- -- ------ ------<br>--- close -- ----,208391.47999999113,208387.3199999798,207978.424,207975.82999998122,207995.09,208411.74,,53,close
screen,html.Screen,2_1_0_1_54,2021-04-26T14:26:24.027Z,,,,,,,,,,,,,,,,,53,,,,,,,,,,,,,,509.4899999781046,,response,,,,99,,,,,,,Space,keypress(Space),,,,,,,,---- -- ----- -- ------ - ------- --- ----------<br>------------- ------ ------ ---- ---- ------- ----- -- ----<br>-------- ------- -- ---------- --- - --- ----- ----- ----<br>---- --- --- ----- --- ---- ---- ------- ----- ---- -------<br>--- --- -- ----- -- --- ---- -- --- ---- -- ------ ------<br>--- ----- at ----,208925.61999999452,208921.2299999781,208395.074,208391.6549999849,208411.74,208945.052,,54,at
screen,html.Screen,2_1_0_1_55,2021-04-26T14:26:24.831Z,,,,,,,,,,,,,,,,,53,,,,,,,,,,,,,,780.1579999750538,,response,,,,99,,,,,,,Space,keypress(Space),,,,,,,,---- -- ----- -- ------ - ------- --- ----------<br>------------- ------ ------ ---- ---- ------- ----- -- ----<br>-------- ------- -- ---------- --- - --- ----- ----- ----<br>---- --- --- ----- --- ---- ---- ------- ----- ---- -------<br>--- --- -- ----- -- --- ---- -- --- ---- -- ------ ------<br>--- ----- -- all.,209729.4899999979,209725.20999997505,208928.386,208925.79999999725,208945.052,209745.02,,55,all.
Item 99,flow.Loop,2_1_0_1,2021-04-26T14:26:24.831Z,,,,,,,,,,,,,,,,,,,,,,,,,,,,,,,30927.639999975043,,completion,,,,,C,,,,,,,,,,,silence,,,,,209729.87999999896,209725.20999997505,178780.904,178786.24999997555,178797.57,209745.02,,,
Question 1,html.Screen,2_1_0_2,2021-04-26T14:26:32.692Z,,,,,,,,,,,,,,,,,,,,,,,,,,,,false,FALSE,,7841.430000002525,,response,,,,99,C,,,,,,TRUE,click #choice-1,,,,silence,,,,,217590.07499998552,217586.45000000251,209728.354,209730.03999999491,209745.02,217612.109,,,
Question 2,html.Screen,2_1_0_3,2021-04-26T14:26:38.700Z,,,,,,,,,,,,,,,,,,,,,,,,,,,,false,TRUE,,5982.685999982699,,response,,,,99,C,,,,,,FALSE,click #choice-2,,,,silence,,,,,223598.2799999765,223594.7949999827,217595.443,217590.2950000018,217612.109,223617.101,,,
Item 99,flow.Sequence,2_1_0,2021-04-26T14:26:38.701Z,,,,,,,,,,,,,,,,,,,,,,,,,,,,,,,54798.305999982695,,completion,,,,,,,,,,,,,,,,,,,,,223598.6049999774,223594.7949999827,168779.823,168770.05999998073,168796.489,223617.101,,,
Holding screen,html.Screen,2_1_1_0,2021-04-26T14:26:48.707Z,,,,,,,,,,,,,,,,,,,,,,,,,,,,,,,10002.097000000009,,timeout,,,,,,,,,,,,,,,,,,,,,233605.18499999307,233602.532,223600.435,223598.8049999869,223617.101,233619.198,,,
screen,html.Screen,2_1_1_1_0,2021-04-26T14:26:50.465Z,,,,,,,,,,,,,,,,,54,,,,,,,,,,,,,,1736.6719999994093,,response,,,,100,,,,,,,Space,keypress(Space),,,,,,,,At --- ---- --- ------ ----- ------- ---- -- --- ------- --<br>------- ---------- ------ -- ----- -- ----- -- ---- ------<br>--- ----- --- --- ------ -------- ----- --- ------ ----- --<br>----- ----- ---------- --- --- ------ ------ ---- -- ------<br>------- --- ------ ----- --- ---- ------- -- ---- --- --<br>------- ------,235363.1400000013,235355.8699999994,233602.532,233605.43499997584,233619.198,235385.794,,0,At
screen,html.Screen,2_1_1_1_1,2021-04-26T14:26:51.013Z,,,,,,,,,,,,,,,,,54,,,,,,,,,,,,,,520.7859999807552,,response,,,,100,,,,,,,Space,keypress(Space),,,,,,,,-- the ---- --- ------ ----- ------- ---- -- --- ------- --<br>------- ---------- ------ -- ----- -- ----- -- ---- ------<br>--- ----- --- --- ------ -------- ----- --- ------ ----- --<br>----- ----- ---------- --- --- ------ ------ ---- -- ------<br>------- --- ------ ----- --- ---- ------- -- ---- --- --<br>------- ------,235910.8750000014,235906.57999998075,235369.128,235363.27999999048,235385.794,235935.772,,1,the
screen,html.Screen,2_1_1_1_2,2021-04-26T14:26:51.437Z,,,,,,,,,,,,,,,,,54,,,,,,,,,,,,,,394.75299999758136,,response,,,,100,,,,,,,Space,keypress(Space),,,,,,,,-- --- time --- ------ ----- ------- ---- -- --- ------- --<br>------- ---------- ------ -- ----- -- ----- -- ---- ------<br>--- ----- --- --- ------ -------- ----- --- ------ ----- --<br>----- ----- ---------- --- --- ------ ------ ---- -- ------<br>------- --- ------ ----- --- ---- ------- -- ---- --- --<br>------- ------,236334.74999997998,236330.52499999758,235919.106,235911.059999984,235935.772,236352.422,,2,time
screen,html.Screen,2_1_1_1_3,2021-04-26T14:26:51.967Z,,,,,,,,,,,,,,,,,54,,,,,,,,,,,,,,507.95799999826704,,response,,,,100,,,,,,,Space,keypress(Space),,,,,,,,-- --- ---- the ------ ----- ------- ---- -- --- ------- --<br>------- ---------- ------ -- ----- -- ----- -- ---- ------<br>--- ----- --- --- ------ -------- ----- --- ------ ----- --<br>----- ----- ---------- --- --- ------ ------ ---- -- ------<br>------- --- ------ ----- --- ---- ------- -- ---- --- --<br>------- ------,236864.63499997626,236860.37999999826,236335.756,236334.9299999827,236352.422,236885.734,,3,the
screen,html.Screen,2_1_1_1_4,2021-04-26T14:26:52.554Z,,,,,,,,,,,,,,,,,54,,,,,,,,,,,,,,561.7509999824106,,response,,,,100,,,,,,,Space,keypress(Space),,,,,,,,-- --- ---- --- French ----- ------- ---- -- --- ------- --<br>------- ---------- ------ -- ----- -- ----- -- ---- ------<br>--- ----- --- --- ------ -------- ----- --- ------ ----- --<br>----- ----- ---------- --- --- ------ ------ ---- -- ------<br>------- --- ------ ----- --- ---- ------- -- ---- --- --<br>------- ------,237451.71999998274,237447.4849999824,236869.068,236864.80499999016,236885.734,237469.044,,4,French
screen,html.Screen,2_1_1_1_5,2021-04-26T14:26:53.029Z,,,,,,,,,,,,,,,,,54,,,,,,,,,,,,,,453.4509999770671,,response,,,,100,,,,,,,Space,keypress(Space),,,,,,,,-- --- ---- --- ------ crown ------- ---- -- --- ------- --<br>------- ---------- ------ -- ----- -- ----- -- ---- ------<br>--- ----- --- --- ------ -------- ----- --- ------ ----- --<br>----- ----- ---------- --- --- ------ ------ ---- -- ------<br>------- --- ------ ----- --- ---- ------- -- ---- --- --<br>------- ------,237926.73999999533,237922.49499997706,237452.378,237451.90499999444,237469.044,237952.358,,5,crown
screen,html.Screen,2_1_1_1_6,2021-04-26T14:26:54.303Z,,,,,,,,,,,,,,,,,54,,,,,,,,,,,,,,1244.1469999998808,,response,,,,100,,,,,,,Space,keypress(Space),,,,,,,,-- --- ---- --- ------ ----- secured ---- -- --- ------- --<br>------- ---------- ------ -- ----- -- ----- -- ---- ------<br>--- ----- --- --- ------ -------- ----- --- ------ ----- --<br>----- ----- ---------- --- --- ------ ------ ---- -- ------<br>------- --- ------ ----- --- ---- ------- -- ---- --- --<br>------- ------,239200.87499998044,239196.5049999999,237935.692,237926.92499997793,237952.358,239218.974,,6,secured
screen,html.Screen,2_1_1_1_7,2021-04-26T14:26:55.170Z,,,,,,,,,,,,,,,,,54,,,,,,,,,,,,,,844.4959999936982,,response,,,,100,,,,,,,Space,keypress(Space),,,,,,,,-- --- ---- --- ------ ----- ------- much -- --- ------- --<br>------- ---------- ------ -- ----- -- ----- -- ---- ------<br>--- ----- --- --- ------ -------- ----- --- ------ ----- --<br>----- ----- ---------- --- --- ------ ------ ---- -- ------<br>------- --- ------ ----- --- ---- ------- -- ---- --- --<br>------- ------,240067.8149999876,240063.4699999937,239202.308,239201.0650000011,239218.974,240085.606,,7,much
screen,html.Screen,2_1_1_1_8,2021-04-26T14:26:55.614Z,,,,,,,,,,,,,,,,,54,,,,,,,,,,,,,,421.80399999106885,,response,,,,100,,,,,,,Space,keypress(Space),,,,,,,,-- --- ---- --- ------ ----- ------- ---- of --- ------- --<br>------- ---------- ------ -- ----- -- ----- -- ---- ------<br>--- ----- --- --- ------ -------- ----- --- ------ ----- --<br>----- ----- ---------- --- --- ------ ------ ---- -- ------<br>------- --- ------ ----- --- ---- ------- -- ---- --- --<br>------- ------,240511.67999999598,240507.40999999107,240068.94,240067.99499999033,240085.606,240535.588,,8,of
screen,html.Screen,2_1_1_1_9,2021-04-26T14:26:56.031Z,,,,,,,,,,,,,,,,,54,,,,,,,,,,,,,,388.85699998238124,,response,,,,100,,,,,,,Space,keypress(Space),,,,,,,,-- --- ---- --- ------ ----- ------- ---- -- its ------- --<br>------- ---------- ------ -- ----- -- ----- -- ---- ------<br>--- ----- --- --- ------ -------- ----- --- ------ ----- --<br>----- ----- ---------- --- --- ------ ------ ---- -- ------<br>------- --- ------ ----- --- ---- ------- -- ---- --- --<br>------- ------,240928.74499998288,240924.44499998237,240518.922,240511.8599999987,240535.588,240952.238,,9,its
screen,html.Screen,2_1_1_1_10,2021-04-26T14:26:56.603Z,,,,,,,,,,,,,,,,,54,,,,,,,,,,,,,,544.1569999946514,,response,,,,100,,,,,,,Space,keypress(Space),,,,,,,,-- --- ---- --- ------ ----- ------- ---- -- --- revenue --<br>------- ---------- ------ -- ----- -- ----- -- ---- ------<br>--- ----- --- --- ------ -------- ----- --- ------ ----- --<br>----- ----- ---------- --- --- ------ ------ ---- -- ------<br>------- --- ------ ----- --- ---- ------- -- ---- --- --<br>------- ------,241500.60999998823,241496.39499999466,240935.572,240928.92999999458,240952.238,241518.882,,10,revenue
screen,html.Screen,2_1_1_1_11,2021-04-26T14:26:57.101Z,,,,,,,,,,,,,,,,,54,,,,,,,,,,,,,,475.3879999955825,,response,,,,100,,,,,,,Space,keypress(Space),,,,,,,,-- --- ---- --- ------ ----- ------- ---- -- --- ------- by<br>------- ---------- ------ -- ----- -- ----- -- ---- ------<br>--- ----- --- --- ------ -------- ----- --- ------ ----- --<br>----- ----- ---------- --- --- ------ ------ ---- -- ------<br>------- --- ------ ----- --- ---- ------- -- ---- --- --<br>------- ------,241998.28999998863,241994.2699999956,241502.216,241500.784999982,241518.882,242018.862,,11,by
screen,html.Screen,2_1_1_1_12,2021-04-26T14:26:57.660Z,,,,,,,,,,,,,,,,,54,,,,,,,,,,,,,,534.5129999885976,,response,,,,100,,,,,,,Space,keypress(Space),,,,,,,,-- --- ---- --- ------ ----- ------- ---- -- --- ------- --<br>issuing ---------- ------ -- ----- -- ----- -- ---- ------<br>--- ----- --- --- ------ -------- ----- --- ------ ----- --<br>----- ----- ---------- --- --- ------ ------ ---- -- ------<br>------- --- ------ ----- --- ---- ------- -- ---- --- --<br>------- ------,242557.75499998708,242553.3749999886,242002.196,241998.46999999136,242018.862,242585.506,,12,issuing
screen,html.Screen,2_1_1_1_13,2021-04-26T14:26:58.296Z,,,,,,,,,,,,,,,,,54,,,,,,,,,,,,,,603.9090000007418,,response,,,,100,,,,,,,Space,keypress(Space),,,,,,,,-- --- ---- --- ------ ----- ------- ---- -- --- ------- --<br>------- government ------ -- ----- -- ----- -- ---- ------<br>--- ----- --- --- ------ -------- ----- --- ------ ----- --<br>----- ----- ---------- --- --- ------ ------ ---- -- ------<br>------- --- ------ ----- --- ---- ------- -- ---- --- --<br>------- ------,243193.5999999987,243189.41500000074,242568.84,242557.92999998084,242585.506,243213.351,,13,government
screen,html.Screen,2_1_1_1_14,2021-04-26T14:26:58.873Z,,,,,,,,,,,,,,,,,54,,,,,,,,,,,,,,552.9839999929827,,response,,,,100,,,,,,,Space,keypress(Space),,,,,,,,-- --- ---- --- ------ ----- ------- ---- -- --- ------- --<br>------- ---------- bonds. -- ----- -- ----- -- ---- ------<br>--- ----- --- --- ------ -------- ----- --- ------ ----- --<br>----- ----- ---------- --- --- ------ ------ ---- -- ------<br>------- --- ------ ----- --- ---- ------- -- ---- --- --<br>------- ------,243770.65999998013,243766.33499999298,243196.685,243193.7849999813,243213.351,243796.661,,14,bonds.
screen,html.Screen,2_1_1_1_15,2021-04-26T14:26:59.496Z,,,,,,,,,,,,,,,,,54,,,,,,,,,,,,,,592.73399997651,,response,,,,100,,,,,,,Space,keypress(Space),,,,,,,,-- --- ---- --- ------ ----- ------- ---- -- --- ------- --<br>------- ---------- ------ In ----- -- ----- -- ---- ------<br>--- ----- --- --- ------ -------- ----- --- ------ ----- --<br>----- ----- ---------- --- --- ------ ------ ---- -- ------<br>------- --- ------ ----- --- ---- ------- -- ---- --- --<br>------- ------,244393.64499997464,244389.3949999765,243779.995,243770.83999998285,243796.661,244413.303,,15,In
screen,html.Screen,2_1_1_1_16,2021-04-26T14:27:01.018Z,,,,,,,,,,,,,,,,,54,,,,,,,,,,,,,,1496.8669999882695,,response,,,,100,,,,,,,Space,keypress(Space),,,,,,,,"-- --- ---- --- ------ ----- ------- ---- -- --- ------- --<br>------- ---------- ------ -- 1727, -- ----- -- ---- ------<br>--- ----- --- --- ------ -------- ----- --- ------ ----- --<br>----- ----- ---------- --- --- ------ ------ ---- -- ------<br>------- --- ------ ----- --- ---- ------- -- ---- --- --<br>------- ------",245915.97000000183,245910.16999998828,244396.637,244393.82499997737,244413.303,245929.909,,16,"1727,"
screen,html.Screen,2_1_1_1_17,2021-04-26T14:27:01.416Z,,,,,,,,,,,,,,,,,54,,,,,,,,,,,,,,379.3509999799717,,response,,,,100,,,,,,,Space,keypress(Space),,,,,,,,-- --- ---- --- ------ ----- ------- ---- -- --- ------- --<br>------- ---------- ------ -- ----- in ----- -- ---- ------<br>--- ----- --- --- ------ -------- ----- --- ------ ----- --<br>----- ----- ---------- --- --- ------ ------ ---- -- ------<br>------- --- ------ ----- --- ---- ------- -- ---- --- --<br>------- ------,246313.61499999184,246309.25999998,245913.243,245916.15499998443,245929.909,246329.893,,17,in
screen,html.Screen,2_1_1_1_18,2021-04-26T14:27:02.061Z,,,,,,,,,,,,,,,,,54,,,,,,,,,,,,,,623.376999998145,,response,,,,100,,,,,,,Space,keypress(Space),,,,,,,,-- --- ---- --- ------ ----- ------- ---- -- --- ------- --<br>------- ---------- ------ -- ----- -- order -- ---- ------<br>--- ----- --- --- ------ -------- ----- --- ------ ----- --<br>----- ----- ---------- --- --- ------ ------ ---- -- ------<br>------- --- ------ ----- --- ---- ------- -- ---- --- --<br>------- ------,246958.90999998664,246953.26999999816,246313.227,246313.79999997444,246329.893,246979.867,,18,order
screen,html.Screen,2_1_1_1_19,2021-04-26T14:27:02.543Z,,,,,,,,,,,,,,,,,54,,,,,,,,,,,,,,456.3729999809002,,response,,,,100,,,,,,,Space,keypress(Space),,,,,,,,-- --- ---- --- ------ ----- ------- ---- -- --- ------- --<br>------- ---------- ------ -- ----- -- ----- to ---- ------<br>--- ----- --- --- ------ -------- ----- --- ------ ----- --<br>----- ----- ---------- --- --- ------ ------ ---- -- ------<br>------- --- ------ ----- --- ---- ------- -- ---- --- --<br>------- ------,247440.50499997684,247436.2399999809,246963.201,246959.09499999834,246979.867,247463.181,,19,to
screen,html.Screen,2_1_1_1_20,2021-04-26T14:27:02.960Z,,,,,,,,,,,,,,,,,54,,,,,,,,,,,,,,390.1239999968966,,response,,,,100,,,,,,,Space,keypress(Space),,,,,,,,-- --- ---- --- ------ ----- ------- ---- -- --- ------- --<br>------- ---------- ------ -- ----- -- ----- -- save ------<br>--- ----- --- --- ------ -------- ----- --- ------ ----- --<br>----- ----- ---------- --- --- ------ ------ ---- -- ------<br>------- --- ------ ----- --- ---- ------- -- ---- --- --<br>------- ------,247857.6249999751,247853.3049999969,247446.515,247440.6949999975,247463.181,247879.831,,20,save
screen,html.Screen,2_1_1_1_21,2021-04-26T14:27:03.430Z,,,,,,,,,,,,,,,,,54,,,,,,,,,,,,,,443.403999988921,,response,,,,100,,,,,,,Space,keypress(Space),,,,,,,,"-- --- ---- --- ------ ----- ------- ---- -- --- ------- --<br>------- ---------- ------ -- ----- -- ----- -- ---- money,<br>--- ----- --- --- ------ -------- ----- --- ------ ----- --<br>----- ----- ---------- --- --- ------ ------ ---- -- ------<br>------- --- ------ ----- --- ---- ------- -- ---- --- --<br>------- ------",248327.37499999348,248323.23499998893,247863.165,247857.80499997782,247879.831,248346.479,,21,"money,"
screen,html.Screen,2_1_1_1_22,2021-04-26T14:27:03.931Z,,,,,,,,,,,,,,,,,54,,,,,,,,,,,,,,477.7210000027553,,response,,,,100,,,,,,,Space,keypress(Space),,,,,,,,-- --- ---- --- ------ ----- ------- ---- -- --- ------- --<br>------- ---------- ------ -- ----- -- ----- -- ---- ------<br>the ----- --- --- ------ -------- ----- --- ------ ----- --<br>----- ----- ---------- --- --- ------ ------ ---- -- ------<br>------- --- ------ ----- --- ---- ------- -- ---- --- --<br>------- ------,248828.7100000016,248824.20000000275,248329.813,248327.5549999962,248346.479,248846.459,,22,the
screen,html.Screen,2_1_1_1_23,2021-04-26T14:27:04.508Z,,,,,,,,,,,,,,,,,54,,,,,,,,,,,,,,554.7309999750287,,response,,,,100,,,,,,,Space,keypress(Space),,,,,,,,-- --- ---- --- ------ ----- ------- ---- -- --- ------- --<br>------- ---------- ------ -- ----- -- ----- -- ---- ------<br>--- state --- --- ------ -------- ----- --- ------ ----- --<br>----- ----- ---------- --- --- ------ ------ ---- -- ------<br>------- --- ------ ----- --- ---- ------- -- ---- --- --<br>------- ------,249405.5099999823,249401.18999997503,248829.793,248828.8949999842,248846.459,249429.769,,23,state
screen,html.Screen,2_1_1_1_24,2021-04-26T14:27:04.942Z,,,,,,,,,,,,,,,,,54,,,,,,,,,,,,,,405.50099998139194,,response,,,,100,,,,,,,Space,keypress(Space),,,,,,,,-- --- ---- --- ------ ----- ------- ---- -- --- ------- --<br>------- ---------- ------ -- ----- -- ----- -- ---- ------<br>--- ----- cut --- ------ -------- ----- --- ------ ----- --<br>----- ----- ---------- --- --- ------ ------ ---- -- ------<br>------- --- ------ ----- --- ---- ------- -- ---- --- --<br>------- ------,249839.62499999325,249835.2699999814,249413.103,249405.68999998504,249429.769,249863.085,,24,cut
screen,html.Screen,2_1_1_1_25,2021-04-26T14:27:05.533Z,,,,,,,,,,,,,,,,,54,,,,,,,,,,,,,,563.0949999803852,,response,,,,100,,,,,,,Space,keypress(Space),,,,,,,,-- --- ---- --- ------ ----- ------- ---- -- --- ------- --<br>------- ---------- ------ -- ----- -- ----- -- ---- ------<br>--- ----- --- the ------ -------- ----- --- ------ ----- --<br>----- ----- ---------- --- --- ------ ------ ---- -- ------<br>------- --- ------ ----- --- ---- ------- -- ---- --- --<br>------- ------,250430.4649999831,250426.17999998038,249846.419,249839.799999987,249863.085,250446.395,,25,the
screen,html.Screen,2_1_1_1_26,2021-04-26T14:27:05.952Z,,,,,,,,,,,,,,,,,54,,,,,,,,,,,,,,398.79499999273685,,response,,,,100,,,,,,,Space,keypress(Space),,,,,,,,-- --- ---- --- ------ ----- ------- ---- -- --- ------- --<br>------- ---------- ------ -- ----- -- ----- -- ---- ------<br>--- ----- --- --- bonds' -------- ----- --- ------ ----- --<br>----- ----- ---------- --- --- ------ ------ ---- -- ------<br>------- --- ------ ----- --- ---- ------- -- ---- --- --<br>------- ------,250849.45999999763,250845.18999999273,250429.729,250430.64499998582,250446.395,250879.711,,26,bonds'
screen,html.Screen,2_1_1_1_27,2021-04-26T14:27:06.419Z,,,,,,,,,,,,,,,,,54,,,,,,,,,,,,,,432.52899999928195,,response,,,,100,,,,,,,Space,keypress(Space),,,,,,,,-- --- ---- --- ------ ----- ------- ---- -- --- ------- --<br>------- ---------- ------ -- ----- -- ----- -- ---- ------<br>--- ----- --- --- ------ interest ----- --- ------ ----- --<br>----- ----- ---------- --- --- ------ ------ ---- -- ------<br>------- --- ------ ----- --- ---- ------- -- ---- --- --<br>------- ------,251316.68499999796,251312.2399999993,250863.045,250849.64000000036,250879.711,251346.359,,27,interest
screen,html.Screen,2_1_1_1_28,2021-04-26T14:27:06.899Z,,,,,,,,,,,,,,,,,54,,,,,,,,,,,,,,445.79099999385653,,response,,,,100,,,,,,,Space,keypress(Space),,,,,,,,-- --- ---- --- ------ ----- ------- ---- -- --- ------- --<br>------- ---------- ------ -- ----- -- ----- -- ---- ------<br>--- ----- --- --- ------ -------- rate. --- ------ ----- --<br>----- ----- ---------- --- --- ------ ------ ---- -- ------<br>------- --- ------ ----- --- ---- ------- -- ---- --- --<br>------- ------,251796.37499997625,251792.14999999385,251329.693,251316.8650000007,251346.359,251813.007,,28,rate.
screen,html.Screen,2_1_1_1_29,2021-04-26T14:27:07.778Z,,,,,,,,,,,,,,,,,54,,,,,,,,,,,,,,858.1129999844998,,response,,,,100,,,,,,,Space,keypress(Space),,,,,,,,-- --- ---- --- ------ ----- ------- ---- -- --- ------- --<br>------- ---------- ------ -- ----- -- ----- -- ---- ------<br>--- ----- --- --- ------ -------- ----- The ------ ----- --<br>----- ----- ---------- --- --- ------ ------ ---- -- ------<br>------- --- ------ ----- --- ---- ------- -- ---- --- --<br>------- ------,252675.5299999786,252671.1199999845,251796.341,251796.55499997898,251813.007,252696.305,,29,The
screen,html.Screen,2_1_1_1_30,2021-04-26T14:27:08.233Z,,,,,,,,,,,,,,,,,54,,,,,,,,,,,,,,429.72499998490093,,response,,,,100,,,,,,,Space,keypress(Space),,,,,,,,-- --- ---- --- ------ ----- ------- ---- -- --- ------- --<br>------- ---------- ------ -- ----- -- ----- -- ---- ------<br>--- ----- --- --- ------ -------- ----- --- market ----- --<br>----- ----- ---------- --- --- ------ ------ ---- -- ------<br>------- --- ------ ----- --- ---- ------- -- ---- --- --<br>------- ------,253130.2699999942,253126.0299999849,252679.639,252675.70999998134,252696.305,253146.287,,30,market
screen,html.Screen,2_1_1_1_31,2021-04-26T14:27:08.752Z,,,,,,,,,,,,,,,,,54,,,,,,,,,,,,,,498.8029999763239,,response,,,,100,,,,,,,Space,keypress(Space),,,,,,,,-- --- ---- --- ------ ----- ------- ---- -- --- ------- --<br>------- ---------- ------ -- ----- -- ----- -- ---- ------<br>--- ----- --- --- ------ -------- ----- --- ------ value --<br>----- ----- ---------- --- --- ------ ------ ---- -- ------<br>------- --- ------ ----- --- ---- ------- -- ---- --- --<br>------- ------,253649.40999998362,253645.08999997634,253129.621,253130.44999999693,253146.287,253679.724,,31,value
screen,html.Screen,2_1_1_1_32,2021-04-26T14:27:09.247Z,,,,,,,,,,,,,,,,,54,,,,,,,,,,,,,,460.3559999828576,,response,,,,100,,,,,,,Space,keypress(Space),,,,,,,,-- --- ---- --- ------ ----- ------- ---- -- --- ------- --<br>------- ---------- ------ -- ----- -- ----- -- ---- ------<br>--- ----- --- --- ------ -------- ----- --- ------ ----- of<br>----- ----- ---------- --- --- ------ ------ ---- -- ------<br>------- --- ------ ----- --- ---- ------- -- ---- --- --<br>------- ------,254144.20999999857,254140.07999998285,253663.058,253649.59499999532,253679.724,254163.038,,32,of
screen,html.Screen,2_1_1_1_33,2021-04-26T14:27:09.679Z,,,,,,,,,,,,,,,,,54,,,,,,,,,,,,,,409.0319999947096,,response,,,,100,,,,,,,Space,keypress(Space),,,,,,,,-- --- ---- --- ------ ----- ------- ---- -- --- ------- --<br>------- ---------- ------ -- ----- -- ----- -- ---- ------<br>--- ----- --- --- ------ -------- ----- --- ------ ----- --<br>these ----- ---------- --- --- ------ ------ ---- -- ------<br>------- --- ------ ----- --- ---- ------- -- ---- --- --<br>------- ------,254576.42499997746,254572.0699999947,254146.372,254144.39499998116,254163.038,254596.354,,33,these
screen,html.Screen,2_1_1_1_34,2021-04-26T14:27:10.116Z,,,,,,,,,,,,,,,,,54,,,,,,,,,,,,,,412.590999979584,,response,,,,100,,,,,,,Space,keypress(Space),,,,,,,,-- --- ---- --- ------ ----- ------- ---- -- --- ------- --<br>------- ---------- ------ -- ----- -- ----- -- ---- ------<br>--- ----- --- --- ------ -------- ----- --- ------ ----- --<br>----- bonds ---------- --- --- ------ ------ ---- -- ------<br>------- --- ------ ----- --- ---- ------- -- ---- --- --<br>------- ------,255013.25499999803,255008.94499997958,254579.688,254576.60999998916,254596.354,255029.67,,34,bonds
screen,html.Screen,2_1_1_1_35,2021-04-26T14:27:10.578Z,,,,,,,,,,,,,,,,,54,,,,,,,,,,,,,,441.40499997945153,,response,,,,100,,,,,,,Space,keypress(Space),,,,,,,,"-- --- ---- --- ------ ----- ------- ---- -- --- ------- --<br>------- ---------- ------ -- ----- -- ----- -- ---- ------<br>--- ----- --- --- ------ -------- ----- --- ------ ----- --<br>----- ----- plummeted, --- --- ------ ------ ---- -- ------<br>------- --- ------ ----- --- ---- ------- -- ---- --- --<br>------- ------",255475.45999998692,255471.07499997946,255013.004,255013.4449999896,255029.67,255496.318,,35,"plummeted,"
screen,html.Screen,2_1_1_1_36,2021-04-26T14:27:11.053Z,,,,,,,,,,,,,,,,,54,,,,,,,,,,,,,,447.7220000021334,,response,,,,100,,,,,,,Space,keypress(Space),,,,,,,,-- --- ---- --- ------ ----- ------- ---- -- --- ------- --<br>------- ---------- ------ -- ----- -- ----- -- ---- ------<br>--- ----- --- --- ------ -------- ----- --- ------ ----- --<br>----- ----- ---------- and --- ------ ------ ---- -- ------<br>------- --- ------ ----- --- ---- ------- -- ---- --- --<br>------- ------,255950.0049999915,255944.04000000213,255479.652,255475.64499999862,255496.318,255979.632,,36,and
screen,html.Screen,2_1_1_1_37,2021-04-26T14:27:11.439Z,,,,,,,,,,,,,,,,,54,,,,,,,,,,,,,,352.2779999789491,,response,,,,100,,,,,,,Space,keypress(Space),,,,,,,,-- --- ---- --- ------ ----- ------- ---- -- --- ------- --<br>------- ---------- ------ -- ----- -- ----- -- ---- ------<br>--- ----- --- --- ------ -------- ----- --- ------ ----- --<br>----- ----- ---------- --- the ------ ------ ---- -- ------<br>------- --- ------ ----- --- ---- ------- -- ---- --- --<br>------- ------,256336.07999997912,256331.90999997896,255962.966,255950.18499999424,255979.632,256362.95,,37,the
screen,html.Screen,2_1_1_1_38,2021-04-26T14:27:11.879Z,,,,,,,,,,,,,,,,,54,,,,,,,,,,,,,,409.0549999770592,,response,,,,100,,,,,,,Space,keypress(Space),,,,,,,,-- --- ---- --- ------ ----- ------- ---- -- --- ------- --<br>------- ---------- ------ -- ----- -- ----- -- ---- ------<br>--- ----- --- --- ------ -------- ----- --- ------ ----- --<br>----- ----- ---------- --- --- market ------ ---- -- ------<br>------- --- ------ ----- --- ---- ------- -- ---- --- --<br>------- ------,256776.24499998637,256772.00499997707,256346.284,256336.28999997745,256362.95,256796.266,,38,market
screen,html.Screen,2_1_1_1_39,2021-04-26T14:27:12.321Z,,,,,,,,,,,,,,,,,54,,,,,,,,,,,,,,417.7539999848814,,response,,,,100,,,,,,,Space,keypress(Space),,,,,,,,-- --- ---- --- ------ ----- ------- ---- -- --- ------- --<br>------- ---------- ------ -- ----- -- ----- -- ---- ------<br>--- ----- --- --- ------ -------- ----- --- ------ ----- --<br>----- ----- ---------- --- --- ------ became ---- -- ------<br>------- --- ------ ----- --- ---- ------- -- ---- --- --<br>------- ------,257218.46499998355,257214.01999998488,256779.6,256776.44499999587,256796.266,257246.248,,39,became
screen,html.Screen,2_1_1_1_40,2021-04-26T14:27:12.893Z,,,,,,,,,,,,,,,,,54,,,,,,,,,,,,,,539.6169999834674,,response,,,,100,,,,,,,Space,keypress(Space),,,,,,,,-- --- ---- --- ------ ----- ------- ---- -- --- ------- --<br>------- ---------- ------ -- ----- -- ----- -- ---- ------<br>--- ----- --- --- ------ -------- ----- --- ------ ----- --<br>----- ----- ---------- --- --- ------ ------ wary -- ------<br>------- --- ------ ----- --- ---- ------- -- ---- --- --<br>------- ------,257790.13499998837,257785.86499998346,257229.582,257218.66499999305,257246.248,257812.892,,40,wary
screen,html.Screen,2_1_1_1_41,2021-04-26T14:27:13.460Z,,,,,,,,,,,,,,,,,54,,,,,,,,,,,,,,540.0179999868851,,response,,,,100,,,,,,,Space,keypress(Space),,,,,,,,-- --- ---- --- ------ ----- ------- ---- -- --- ------- --<br>------- ---------- ------ -- ----- -- ----- -- ---- ------<br>--- ----- --- --- ------ -------- ----- --- ------ ----- --<br>----- ----- ---------- --- --- ------ ------ ---- of ------<br>------- --- ------ ----- --- ---- ------- -- ---- --- --<br>------- ------,258357.26499999873,258352.90999998688,257796.226,257790.3149999911,257812.892,258379.536,,41,of
screen,html.Screen,2_1_1_1_42,2021-04-26T14:27:13.893Z,,,,,,,,,,,,,,,,,54,,,,,,,,,,,,,,406.4339999971853,,response,,,,100,,,,,,,Space,keypress(Space),,,,,,,,-- --- ---- --- ------ ----- ------- ---- -- --- ------- --<br>------- ---------- ------ -- ----- -- ----- -- ---- ------<br>--- ----- --- --- ------ -------- ----- --- ------ ----- --<br>----- ----- ---------- --- --- ------ ------ ---- -- French<br>------- --- ------ ----- --- ---- ------- -- ---- --- --<br>------- ------,258790.24999999092,258785.96999999718,258362.87,258357.44500000146,258379.536,258812.852,,42,French
screen,html.Screen,2_1_1_1_43,2021-04-26T14:27:14.408Z,,,,,,,,,,,,,,,,,54,,,,,,,,,,,,,,488.18299998220755,,response,,,,100,,,,,,,Space,keypress(Space),,,,,,,,-- --- ---- --- ------ ----- ------- ---- -- --- ------- --<br>------- ---------- ------ -- ----- -- ----- -- ---- ------<br>--- ----- --- --- ------ -------- ----- --- ------ ----- --<br>----- ----- ---------- --- --- ------ ------ ---- -- ------<br>credit. --- ------ ----- --- ---- ------- -- ---- --- --<br>------- ------,259305.34500000067,259301.03499998222,258796.186,258790.42999999365,258812.852,259329.498,,43,credit.
screen,html.Screen,2_1_1_1_44,2021-04-26T14:27:14.959Z,,,,,,,,,,,,,,,,,54,,,,,,,,,,,,,,511.3019999763055,,response,,,,100,,,,,,,Space,keypress(Space),,,,,,,,-- --- ---- --- ------ ----- ------- ---- -- --- ------- --<br>------- ---------- ------ -- ----- -- ----- -- ---- ------<br>--- ----- --- --- ------ -------- ----- --- ------ ----- --<br>----- ----- ---------- --- --- ------ ------ ---- -- ------<br>------- The ------ ----- --- ---- ------- -- ---- --- --<br>------- ------,259856.6399999836,259840.7999999763,259312.832,259305.5249999743,259329.498,259862.81,,44,The
screen,html.Screen,2_1_1_1_45,2021-04-26T14:27:15.405Z,,,,,,,,,,,,,,,,,54,,,,,,,,,,,,,,435.1399999783025,,response,,,,100,,,,,,,Space,keypress(Space),,,,,,,,-- --- ---- --- ------ ----- ------- ---- -- --- ------- --<br>------- ---------- ------ -- ----- -- ----- -- ---- ------<br>--- ----- --- --- ------ -------- ----- --- ------ ----- --<br>----- ----- ---------- --- --- ------ ------ ---- -- ------<br>------- --- French ----- --- ---- ------- -- ---- --- --<br>------- ------,260302.3449999746,260297.9499999783,259846.144,259856.76499997498,259862.81,260329.458,,45,French
screen,html.Screen,2_1_1_1_46,2021-04-26T14:27:15.862Z,,,,,,,,,,,,,,,,,54,,,,,,,,,,,,,,425.45199998872704,,response,,,,100,,,,,,,Space,keypress(Space),,,,,,,,-- --- ---- --- ------ ----- ------- ---- -- --- ------- --<br>------- ---------- ------ -- ----- -- ----- -- ---- ------<br>--- ----- --- --- ------ -------- ----- --- ------ ----- --<br>----- ----- ---------- --- --- ------ ------ ---- -- ------<br>------- --- ------ state --- ---- ------- -- ---- --- --<br>------- ------,260759.28499997826,260754.90999998874,260312.792,260302.52499997732,260329.458,260779.44,,46,state
screen,html.Screen,2_1_1_1_47,2021-04-26T14:27:16.328Z,,,,,,,,,,,,,,,,,54,,,,,,,,,,,,,,443.37999999540625,,response,,,,100,,,,,,,Space,keypress(Space),,,,,,,,-- --- ---- --- ------ ----- ------- ---- -- --- ------- --<br>------- ---------- ------ -- ----- -- ----- -- ---- ------<br>--- ----- --- --- ------ -------- ----- --- ------ ----- --<br>----- ----- ---------- --- --- ------ ------ ---- -- ------<br>------- --- ------ ----- was ---- ------- -- ---- --- --<br>------- ------,261225.70499998983,261222.8199999954,260762.774,260759.464999981,260779.44,261246.088,,47,was
screen,html.Screen,2_1_1_1_48,2021-04-26T14:27:16.772Z,,,,,,,,,,,,,,,,,54,,,,,,,,,,,,,,418.6719999851193,,response,,,,100,,,,,,,Space,keypress(Space),,,,,,,,-- --- ---- --- ------ ----- ------- ---- -- --- ------- --<br>------- ---------- ------ -- ----- -- ----- -- ---- ------<br>--- ----- --- --- ------ -------- ----- --- ------ ----- --<br>----- ----- ---------- --- --- ------ ------ ---- -- ------<br>------- --- ------ ----- --- left ------- -- ---- --- --<br>------- ------,261668.8799999829,261664.7599999851,261229.422,261225.7999999856,261246.088,261696.07,,48,left
screen,html.Screen,2_1_1_1_49,2021-04-26T14:27:17.179Z,,,,,,,,,,,,,,,,,54,,,,,,,,,,,,,,375.8100000031409,,response,,,,100,,,,,,,Space,keypress(Space),,,,,,,,-- --- ---- --- ------ ----- ------- ---- -- --- ------- --<br>------- ---------- ------ -- ----- -- ----- -- ---- ------<br>--- ----- --- --- ------ -------- ----- --- ------ ----- --<br>----- ----- ---------- --- --- ------ ------ ---- -- ------<br>------- --- ------ ----- --- ---- without -- ---- --- --<br>------- ------,262076.22499999707,262071.88000000315,261679.404,261669.0649999946,261696.07,262096.054,,49,without
screen,html.Screen,2_1_1_1_50,2021-04-26T14:27:17.596Z,,,,,,,,,,,,,,,,,54,,,,,,,,,,,,,,392.8509999765083,,response,,,,100,,,,,,,Space,keypress(Space),,,,,,,,-- --- ---- --- ------ ----- ------- ---- -- --- ------- --<br>------- ---------- ------ -- ----- -- ----- -- ---- ------<br>--- ----- --- --- ------ -------- ----- --- ------ ----- --<br>----- ----- ---------- --- --- ------ ------ ---- -- ------<br>------- --- ------ ----- --- ---- ------- an ---- --- --<br>------- ------,262493.1899999792,262488.9049999765,262079.388,262076.40999997966,262096.054,262512.704,,50,an
screen,html.Screen,2_1_1_1_51,2021-04-26T14:27:18.018Z,,,,,,,,,,,,,,,,,54,,,,,,,,,,,,,,398.17100000137,,response,,,,100,,,,,,,Space,keypress(Space),,,,,,,,-- --- ---- --- ------ ----- ------- ---- -- --- ------- --<br>------- ---------- ------ -- ----- -- ----- -- ---- ------<br>--- ----- --- --- ------ -------- ----- --- ------ ----- --<br>----- ----- ---------- --- --- ------ ------ ---- -- ------<br>------- --- ------ ----- --- ---- ------- -- easy --- --<br>------- ------,262915.2649999887,262910.8750000014,262496.038,262493.36999998195,262512.704,262929.354,,51,easy
screen,html.Screen,2_1_1_1_52,2021-04-26T14:27:18.503Z,,,,,,,,,,,,,,,,,54,,,,,,,,,,,,,,466.6059999943827,,response,,,,100,,,,,,,Space,keypress(Space),,,,,,,,-- --- ---- --- ------ ----- ------- ---- -- --- ------- --<br>------- ---------- ------ -- ----- -- ----- -- ---- ------<br>--- ----- --- --- ------ -------- ----- --- ------ ----- --<br>----- ----- ---------- --- --- ------ ------ ---- -- ------<br>------- --- ------ ----- --- ---- ------- -- ---- way --<br>------- ------,263400.33999999287,263395.9599999944,262912.688,262915.4500000004,262929.354,263429.334,,52,way
screen,html.Screen,2_1_1_1_53,2021-04-26T14:27:18.961Z,,,,,,,,,,,,,,,,,54,,,,,,,,,,,,,,424.5159999849857,,response,,,,100,,,,,,,Space,keypress(Space),,,,,,,,-- --- ---- --- ------ ----- ------- ---- -- --- ------- --<br>------- ---------- ------ -- ----- -- ----- -- ---- ------<br>--- ----- --- --- ------ -------- ----- --- ------ ----- --<br>----- ----- ---------- --- --- ------ ------ ---- -- ------<br>------- --- ------ ----- --- ---- ------- -- ---- --- of<br>------- ------,263858.13499998767,263853.84999998496,263412.668,263400.5149999866,263429.334,263883.92,,53,of
screen,html.Screen,2_1_1_1_54,2021-04-26T14:27:19.571Z,,,,,,,,,,,,,,,,,54,,,,,,,,,,,,,,579.8999999754014,,response,,,,100,,,,,,,Space,keypress(Space),,,,,,,,-- --- ---- --- ------ ----- ------- ---- -- --- ------- --<br>------- ---------- ------ -- ----- -- ----- -- ---- ------<br>--- ----- --- --- ------ -------- ----- --- ------ ----- --<br>----- ----- ---------- --- --- ------ ------ ---- -- ------<br>------- --- ------ ----- --- ---- ------- -- ---- --- --<br>raising ------,264468.1849999761,264463.8199999754,263867.254,263858.32499997923,263883.92,264483.896,,54,raising
screen,html.Screen,2_1_1_1_55,2021-04-26T14:27:20.140Z,,,,,,,,,,,,,,,,,54,,,,,,,,,,,,,,548.8289999972912,,response,,,,100,,,,,,,Space,keypress(Space),,,,,,,,-- --- ---- --- ------ ----- ------- ---- -- --- ------- --<br>------- ---------- ------ -- ----- -- ----- -- ---- ------<br>--- ----- --- --- ------ -------- ----- --- ------ ----- --<br>----- ----- ---------- --- --- ------ ------ ---- -- ------<br>------- --- ------ ----- --- ---- ------- -- ---- --- --<br>------- money.,265037.06499998225,265032.7249999973,264467.23,264468.35999999894,264483.896,265067.206,,55,money.
Item 100,flow.Loop,2_1_1_1,2021-04-26T14:27:20.140Z,,,,,,,,,,,,,,,,,,,,,,,,,,,,,,,31413.526999997295,,completion,,,,,C,,,,,,,,,,,silence,,,,,265037.38999998313,265032.7249999973,233602.532,233605.3649999958,233619.198,265067.206,,,
Question 1,html.Screen,2_1_1_2,2021-04-26T14:27:23.901Z,,,,,,,,,,,,,,,,,,,,,,,,,,,,true,TRUE,,3727.5689999875613,,response,,,,100,C,,,,,,TRUE,click #choice-1,,,,silence,,,,,268797.9199999827,268794.77499998757,265050.54,265037.52499999246,265067.206,268817.056,,,
Question 2,html.Screen,2_1_1_3,2021-04-26T14:27:27.515Z,,,,,,,,,,,,,,,,,,,,,,,,,,,,true,FALSE,,3591.5889999886276,,response,,,,100,C,,,,,,FALSE,click #choice-2,,,,silence,,,,,272412.3049999762,272408.6449999886,268800.39,268798.04999998305,268817.056,272433.578,,,
Item 100,flow.Sequence,2_1_1,2021-04-26T14:27:27.516Z,,,,,,,,,,,,,,,,,,,,,,,,,,,,,,,48791.543999988615,,completion,,,,,,,,,,,,,,,,,,,,,272412.58499998366,272408.6449999886,223600.435,223598.7449999957,223617.101,272433.578,,,
End of Practice,html.Page,2_1_2,2021-04-26T14:27:35.841Z,,,,,,,,,,,,,,,,,,,,,,,,,,,,,,,8304.23700000043,,form submission,,,,,,,,,,,,,,,,,,,,,280738.14499998116,280737.8150000004,272416.912,272412.719999993,272433.578,280766.578,,,
Practice,flow.Sequence,2_1,2021-04-26T14:27:35.842Z,,,,,,,,,,,,,,,,,,,,,,,,,,,,,,,111941.32600000041,,completion,,,,,,,,,,,,,,,,,,,,,280738.42499998864,280737.8150000004,168779.823,168770.00999997836,168796.489,280766.578,,,
Trap_instruction,html.Page,2_2_0,2021-04-26T14:27:40.286Z,,,,,,,,,,,,,,,,,,,,,,,,,,,,,,,4416.031999988947,,form submission,,,,,,,,,,,,,,,,,,,,,285182.9349999898,285182.6099999889,280749.912,280738.5999999824,280766.578,285207.083,,,
trap_trial,html.Screen,2_2_1,2021-04-26T14:27:43.826Z,,,,,,,,,,,,,,,,,,,,,,,,,,,,true,1,,3511.3869999925373,,response,,,,,,,,,,,1,click #choice-1,,,,,,,,,288722.1599999757,288718.4699999925,285190.417,285183.1099999836,285207.083,288740.275,,,
end of trap trial,html.Page,2_2_2,2021-04-26T14:27:45.333Z,,,,,,,,,,,,,,,,,,,,,,,,,,,,,,,1489.0749999795808,,form submission,,,,,,,,,,,,,,,,,,,,,290229.66499999166,290229.3499999796,288723.609,288722.35499997623,288740.275,290256.881,,,
Trap 1,flow.Sequence,2_2,2021-04-26T14:27:45.333Z,,,,,,,,,,,,,,,,,,,,,,,,,,,,,,,9462.771999979625,,completion,,,,,,,,,,,,,,,,,,,,,290229.9199999834,290229.3499999796,280749.912,280738.54999998,280766.578,290256.881,,,
Standby,html.Page,2_3_0,2021-04-26T14:27:53.346Z,,,,,,,,,,,,,,,,,,,,,,,,,,,,,,,7999.679999999993,,timeout,,,,,,,,,,,,,,,,,,,,,298242.65000000014,298239.895,290240.215,290230.1199999929,290256.881,298256.561,,,
Holding screen,html.Screen,2_3_1_0_0,2021-04-26T14:28:00.348Z,,,,,,,,,,,,,,,,,,,,,,,,,,,,,,,7002.632000000041,,timeout,,,,,,,,,,,,,,,,,,,,,305244.7149999789,305242.527,298239.895,298243.04499998107,298256.561,305259.193,,,
screen,html.Screen,2_3_1_0_1_0,2021-04-26T14:28:00.870Z,,,,,,,,,,,,,,,,,48,,,,,,,,,,,,,,500.8769999893266,,response,,,,10,C,,,,,,Space,keypress(Space),,,,instrumental,,,,As -- --- ------ ------- --------- ----------- --------<br>--------- -------- --- ------- -- ------- ---- -- ------<br>-- --- -------- -------- ---------- ---- ---- ---- ------<br>-- --------- -- ---- -- --- -- --- ------- -- - -----<br>---------- -- -- -- ---- ----- -- ------ -- --- ------<br>-------,305766.53999998234,305760.06999998935,305242.527,305244.9899999774,305259.193,305792.505,,0,As
screen,html.Screen,2_3_1_0_1_1,2021-04-26T14:28:01.286Z,,,,,,,,,,,,,,,,,48,,,,,,,,,,,,,,385.5549999765353,,response,,,,10,C,,,,,,Space,keypress(Space),,,,instrumental,,,,-- in --- ------ ------- --------- ----------- --------<br>--------- -------- --- ------- -- ------- ---- -- ------<br>-- --- -------- -------- ---------- ---- ---- ---- ------<br>-- --------- -- ---- -- --- -- --- ------- -- - -----<br>---------- -- -- -- ---- ----- -- ------ -- --- ------<br>-------,306182.3799999838,306178.05999997654,305775.839,305766.68999998947,305792.505,306209.155,,1,in
screen,html.Screen,2_3_1_0_1_2,2021-04-26T14:28:01.720Z,,,,,,,,,,,,,,,,,48,,,,,,,,,,,,,,402.9800000030082,,response,,,,10,C,,,,,,Space,keypress(Space),,,,instrumental,,,,-- -- the ------ ------- --------- ----------- --------<br>--------- -------- --- ------- -- ------- ---- -- ------<br>-- --- -------- -------- ---------- ---- ---- ---- ------<br>-- --------- -- ---- -- --- -- --- ------- -- - -----<br>---------- -- -- -- ---- ----- -- ------ -- --- ------<br>-------,306616.5049999836,306612.13500000304,306192.489,306182.55999998655,306209.155,306642.471,,2,the
screen,html.Screen,2_3_1_0_1_3,2021-04-26T14:28:02.188Z,,,,,,,,,,,,,,,,,48,,,,,,,,,,,,,,437.59899999632034,,response,,,,10,C,,,,,,Space,keypress(Space),,,,instrumental,,,,-- -- --- United ------- --------- ----------- --------<br>--------- -------- --- ------- -- ------- ---- -- ------<br>-- --- -------- -------- ---------- ---- ---- ---- ------<br>-- --------- -- ---- -- --- -- --- ------- -- - -----<br>---------- -- -- -- ---- ----- -- ------ -- --- ------<br>-------,307084.4099999813,307080.06999999634,306625.805,306616.6749999975,306642.471,307109.119,,3,United
screen,html.Screen,2_3_1_0_1_4,2021-04-26T14:28:02.786Z,,,,,,,,,,,,,,,,,48,,,,,,,,,,,,,,568.8609999785549,,response,,,,10,C,,,,,,Space,keypress(Space),,,,instrumental,,,,"-- -- --- ------ States, --------- ----------- --------<br>--------- -------- --- ------- -- ------- ---- -- ------<br>-- --- -------- -------- ---------- ---- ---- ---- ------<br>-- --------- -- ---- -- --- -- --- ------- -- - -----<br>---------- -- -- -- ---- ----- -- ------ -- --- ------<br>-------",307682.5499999977,307677.97999997856,307092.453,307084.58499997505,307109.119,307709.095,,4,"States,"
screen,html.Screen,2_3_1_0_1_5,2021-04-26T14:28:03.301Z,,,,,,,,,,,,,,,,,48,,,,,,,,,,,,,,483.05499998806044,,response,,,,10,C,,,,,,Space,keypress(Space),,,,instrumental,,,,-- -- --- ------ ------- Colombian ----------- --------<br>--------- -------- --- ------- -- ------- ---- -- ------<br>-- --- -------- -------- ---------- ---- ---- ---- ------<br>-- --------- -- ---- -- --- -- --- ------- -- - -----<br>---------- -- -- -- ---- ----- -- ------ -- --- ------<br>-------,308196.86499997624,308192.14999998803,307692.429,307682.7349999803,307709.095,308225.741,,5,Colombian
screen,html.Screen,2_3_1_0_1_6,2021-04-26T14:28:03.914Z,,,,,,,,,,,,,,,,,48,,,,,,,,,,,,,,580.3439999892726,,response,,,,10,C,,,,,,Space,keypress(Space),,,,instrumental,,,,-- -- --- ------ ------- --------- legislation --------<br>--------- -------- --- ------- -- ------- ---- -- ------<br>-- --- -------- -------- ---------- ---- ---- ---- ------<br>-- --------- -- ---- -- --- -- --- ------- -- - -----<br>---------- -- -- -- ---- ----- -- ------ -- --- ------<br>-------,308810.5799999903,308806.08499998925,308209.075,308197.04499997897,308225.741,308825.717,,6,legislation
screen,html.Screen,2_3_1_0_1_7,2021-04-26T14:28:04.542Z,,,,,,,,,,,,,,,,,48,,,,,,,,,,,,,,608.2429999948363,,response,,,,10,C,,,,,,Space,keypress(Space),,,,instrumental,,,,-- -- --- ------ ------- --------- ----------- requires<br>--------- -------- --- ------- -- ------- ---- -- ------<br>-- --- -------- -------- ---------- ---- ---- ---- ------<br>-- --------- -- ---- -- --- -- --- ------- -- - -----<br>---------- -- -- -- ---- ----- -- ------ -- --- ------<br>-------,309438.12499998603,309433.95999999484,308809.051,308810.759999993,308825.717,309459.025,,7,requires
screen,html.Screen,2_3_1_0_1_8,2021-04-26T14:28:05.090Z,,,,,,,,,,,,,,,,,48,,,,,,,,,,,,,,523.0199999824399,,response,,,,10,C,,,,,,Space,keypress(Space),,,,instrumental,,,,-- -- --- ------ ------- --------- ----------- --------<br>travelers -------- --- ------- -- ------- ---- -- ------<br>-- --- -------- -------- ---------- ---- ---- ---- ------<br>-- --------- -- ---- -- --- -- --- ------- -- - -----<br>---------- -- -- -- ---- ----- -- ------ -- --- ------<br>-------,309986.51999997674,309982.04499998246,309442.359,309438.2999999798,309459.025,310014.95,,8,travelers
screen,html.Screen,2_3_1_0_1_9,2021-04-26T14:28:05.621Z,,,,,,,,,,,,,,,,,48,,,,,,,,,,,,,,497.0900000014226,,response,,,,10,C,,,,,,Space,keypress(Space),,,,instrumental,,,,-- -- --- ------ ------- --------- ----------- --------<br>--------- entering --- ------- -- ------- ---- -- ------<br>-- --- -------- -------- ---------- ---- ---- ---- ------<br>-- --------- -- ---- -- --- -- --- ------- -- - -----<br>---------- -- -- -- ---- ----- -- ------ -- --- ------<br>-------,310516.85999997426,310512.04000000143,309998.284,309986.6949999996,310014.95,310531.596,,9,entering
screen,html.Screen,2_3_1_0_1_10,2021-04-26T14:28:06.078Z,,,,,,,,,,,,,,,,,48,,,,,,,,,,,,,,438.3539999987697,,response,,,,10,C,,,,,,Space,keypress(Space),,,,instrumental,,,,-- -- --- ------ ------- --------- ----------- --------<br>--------- -------- the ------- -- ------- ---- -- ------<br>-- --- -------- -------- ---------- ---- ---- ---- ------<br>-- --------- -- ---- -- --- -- --- ------- -- - -----<br>---------- -- -- -- ---- ----- -- ------ -- --- ------<br>-------,310974.17999999016,310969.9499999988,310514.93,310517.039999977,310531.596,310998.244,,10,the
screen,html.Screen,2_3_1_0_1_11,2021-04-26T14:28:06.565Z,,,,,,,,,,,,,,,,,48,,,,,,,,,,,,,,458.75099998590304,,response,,,,10,C,,,,,,Space,keypress(Space),,,,instrumental,,,,-- -- --- ------ ------- --------- ----------- --------<br>--------- -------- --- country -- ------- ---- -- ------<br>-- --- -------- -------- ---------- ---- ---- ---- ------<br>-- --------- -- ---- -- --- -- --- ------- -- - -----<br>---------- -- -- -- ---- ----- -- ------ -- --- ------<br>-------,311461.5150000027,311456.9949999859,310981.578,310974.3749999907,310998.244,311481.558,,11,country
screen,html.Screen,2_3_1_0_1_12,2021-04-26T14:28:07.160Z,,,,,,,,,,,,,,,,,48,,,,,,,,,,,,,,570.4469999758876,,response,,,,10,C,,,,,,Space,keypress(Space),,,,instrumental,,,,-- -- --- ------ ------- --------- ----------- --------<br>--------- -------- --- ------- to ------- ---- -- ------<br>-- --- -------- -------- ---------- ---- ---- ---- ------<br>-- --------- -- ---- -- --- -- --- ------- -- - -----<br>---------- -- -- -- ---- ----- -- ------ -- --- ------<br>-------,312056.4299999969,312052.0049999759,311464.892,311461.71999999206,311481.558,312081.534,,12,to
screen,html.Screen,2_3_1_0_1_13,2021-04-26T14:28:07.709Z,,,,,,,,,,,,,,,,,48,,,,,,,,,,,,,,518.3059999807738,,response,,,,10,C,,,,,,Space,keypress(Space),,,,instrumental,,,,-- -- --- ------ ------- --------- ----------- --------<br>--------- -------- --- ------- -- declare ---- -- ------<br>-- --- -------- -------- ---------- ---- ---- ---- ------<br>-- --------- -- ---- -- --- -- --- ------- -- - -----<br>---------- -- -- -- ---- ----- -- ------ -- --- ------<br>-------,312604.8249999876,312599.83999998076,312064.868,312056.6349999863,312081.534,312631.512,,13,declare
screen,html.Screen,2_3_1_0_1_14,2021-04-26T14:28:08.327Z,,,,,,,,,,,,,,,,,48,,,,,,,,,,,,,,587.4429999893764,,response,,,,10,C,,,,,,Space,keypress(Space),,,,instrumental,,,,-- -- --- ------ ------- --------- ----------- --------<br>--------- -------- --- ------- -- ------- cash -- ------<br>-- --- -------- -------- ---------- ---- ---- ---- ------<br>-- --------- -- ---- -- --- -- --- ------- -- - -----<br>---------- -- -- -- ---- ----- -- ------ -- --- ------<br>-------,313223.30499999225,313218.95499998936,312614.846,312605.00499999034,312631.512,313248.154,,14,cash
screen,html.Screen,2_3_1_0_1_15,2021-04-26T14:28:08.790Z,,,,,,,,,,,,,,,,,48,,,,,,,,,,,,,,433.7509999758331,,response,,,,10,C,,,,,,Space,keypress(Space),,,,instrumental,,,,-- -- --- ------ ------- --------- ----------- --------<br>--------- -------- --- ------- -- ------- ---- in ------<br>-- --- -------- -------- ---------- ---- ---- ---- ------<br>-- --------- -- ---- -- --- -- --- ------- -- - -----<br>---------- -- -- -- ---- ----- -- ------ -- --- ------<br>-------,313686.4999999816,313681.9049999758,313231.488,313223.484999995,313248.154,313714.802,,15,in
screen,html.Screen,2_3_1_0_1_16,2021-04-26T14:28:09.335Z,,,,,,,,,,,,,,,,,48,,,,,,,,,,,,,,512.1179999863962,,response,,,,10,C,,,,,,Space,keypress(Space),,,,instrumental,,,,-- -- --- ------ ------- --------- ----------- --------<br>--------- -------- --- ------- -- ------- ---- -- excess<br>-- --- -------- -------- ---------- ---- ---- ---- ------<br>-- --------- -- ---- -- --- -- --- ------- -- - -----<br>---------- -- -- -- ---- ----- -- ------ -- --- ------<br>-------,314231.2899999961,314226.9199999864,313698.136,313686.67499997537,313714.802,314248.114,,16,excess
screen,html.Screen,2_3_1_0_1_17,2021-04-26T14:28:09.817Z,,,,,,,,,,,,,,,,,48,,,,,,,,,,,,,,459.8409999907599,,response,,,,10,C,,,,,,Space,keypress(Space),,,,instrumental,,,,-- -- --- ------ ------- --------- ----------- --------<br>--------- -------- --- ------- -- ------- ---- -- ------<br>of --- -------- -------- ---------- ---- ---- ---- ------<br>-- --------- -- ---- -- --- -- --- ------- -- - -----<br>---------- -- -- -- ---- ----- -- ------ -- --- ------<br>-------,314712.53499999875,314707.95499999076,314231.448,314231.4699999988,314248.114,314731.428,,17,of
screen,html.Screen,2_3_1_0_1_18,2021-04-26T14:28:10.343Z,,,,,,,,,,,,,,,,,48,,,,,,,,,,,,,,503.551999979245,,response,,,,10,C,,,,,,Space,keypress(Space),,,,instrumental,,,,-- -- --- ------ ------- --------- ----------- --------<br>--------- -------- --- ------- -- ------- ---- -- ------<br>-- ten -------- -------- ---------- ---- ---- ---- ------<br>-- --------- -- ---- -- --- -- --- ------- -- - -----<br>---------- -- -- -- ---- ----- -- ------ -- --- ------<br>-------,315239.35999997775,315234.97999997926,314714.762,314712.7099999925,314731.428,315264.74,,18,ten
screen,html.Screen,2_3_1_0_1_19,2021-04-26T14:28:10.807Z,,,,,,,,,,,,,,,,,48,,,,,,,,,,,,,,433.2349999882281,,response,,,,10,C,,,,,,Space,keypress(Space),,,,instrumental,,,,-- -- --- ------ ------- --------- ----------- --------<br>--------- -------- --- ------- -- ------- ---- -- ------<br>-- --- thousand -------- ---------- ---- ---- ---- ------<br>-- --------- -- ---- -- --- -- --- ------- -- - -----<br>---------- -- -- -- ---- ----- -- ------ -- --- ------<br>-------,315702.5849999918,315697.9749999882,315248.074,315239.54499998945,315264.74,315731.388,,19,thousand
screen,html.Screen,2_3_1_0_1_20,2021-04-26T14:28:11.338Z,,,,,,,,,,,,,,,,,48,,,,,,,,,,,,,,496.6120000028168,,response,,,,10,C,,,,,,Space,keypress(Space),,,,instrumental,,,,-- -- --- ------ ------- --------- ----------- --------<br>--------- -------- --- ------- -- ------- ---- -- ------<br>-- --- -------- dollars. ---------- ---- ---- ---- ------<br>-- --------- -- ---- -- --- -- --- ------- -- - -----<br>---------- -- -- -- ---- ----- -- ------ -- --- ------<br>-------,316234.2349999817,316228.0000000028,315714.722,315702.7599999856,315731.388,316264.7,,20,dollars.
screen,html.Screen,2_3_1_0_1_21,2021-04-26T14:28:12.006Z,,,,,,,,,,,,,,,,,48,,,,,,,,,,,,,,632.1449999811011,,response,,,,10,C,,,,,,Space,keypress(Space),,,,instrumental,,,,-- -- --- ------ ------- --------- ----------- --------<br>--------- -------- --- ------- -- ------- ---- -- ------<br>-- --- -------- -------- Concealing ---- ---- ---- ------<br>-- --------- -- ---- -- --- -- --- ------- -- - -----<br>---------- -- -- -- ---- ----- -- ------ -- --- ------<br>-------,316901.4599999937,316896.8449999811,316248.034,316234.41499998444,316264.7,316931.34,,21,Concealing
screen,html.Screen,2_3_1_0_1_22,2021-04-26T14:28:12.603Z,,,,,,,,,,,,,,,,,48,,,,,,,,,,,,,,562.6649999858928,,response,,,,10,C,,,,,,Space,keypress(Space),,,,instrumental,,,,-- -- --- ------ ------- --------- ----------- --------<br>--------- -------- --- ------- -- ------- ---- -- ------<br>-- --- -------- -------- ---------- more ---- ---- ------<br>-- --------- -- ---- -- --- -- --- ------- -- - -----<br>---------- -- -- -- ---- ----- -- ------ -- --- ------<br>-------,317498.4649999824,317494.0049999859,316914.674,316901.6399999964,316931.34,317514.65,,22,more
screen,html.Screen,2_3_1_0_1_23,2021-04-26T14:28:13.020Z,,,,,,,,,,,,,,,,,48,,,,,,,,,,,,,,397.18499997712206,,response,,,,10,C,,,,,,Space,keypress(Space),,,,instrumental,,,,-- -- --- ------ ------- --------- ----------- --------<br>--------- -------- --- ------- -- ------- ---- -- ------<br>-- --- -------- -------- ---------- ---- than ---- ------<br>-- --------- -- ---- -- --- -- --- ------- -- - -----<br>---------- -- -- -- ---- ----- -- ------ -- --- ------<br>-------,317916.2799999758,317911.83499997715,317497.984,317498.6449999851,317514.65,317931.3,,23,than
screen,html.Screen,2_3_1_0_1_24,2021-04-26T14:28:13.616Z,,,,,,,,,,,,,,,,,48,,,,,,,,,,,,,,576.4949999831733,,response,,,,10,C,,,,,,Space,keypress(Space),,,,instrumental,,,,-- -- --- ------ ------- --------- ----------- --------<br>--------- -------- --- ------- -- ------- ---- -- ------<br>-- --- -------- -------- ---------- ---- ---- that ------<br>-- --------- -- ---- -- --- -- --- ------- -- - -----<br>---------- -- -- -- ---- ----- -- ------ -- --- ------<br>-------,318512.38499998,318507.79499998316,317914.634,317916.45999997854,317931.3,318531.276,,24,that
screen,html.Screen,2_3_1_0_1_25,2021-04-26T14:28:14.069Z,,,,,,,,,,,,,,,,,48,,,,,,,,,,,,,,428.4690000000992,,response,,,,10,C,,,,,,Space,keypress(Space),,,,instrumental,,,,-- -- --- ------ ------- --------- ----------- --------<br>--------- -------- --- ------- -- ------- ---- -- ------<br>-- --- -------- -------- ---------- ---- ---- ---- amount<br>-- --------- -- ---- -- --- -- --- ------- -- - -----<br>---------- -- -- -- ---- ----- -- ------ -- --- ------<br>-------,318964.6749999956,318959.7450000001,318514.61,318512.57500000065,318531.276,318981.258,,25,amount
screen,html.Screen,2_3_1_0_1_26,2021-04-26T14:28:14.685Z,,,,,,,,,,,,,,,,,48,,,,,,,,,,,,,,595.6119999898947,,response,,,,10,C,,,,,,Space,keypress(Space),,,,instrumental,,,,-- -- --- ------ ------- --------- ----------- --------<br>--------- -------- --- ------- -- ------- ---- -- ------<br>-- --- -------- -------- ---------- ---- ---- ---- ------<br>to --------- -- ---- -- --- -- --- ------- -- - -----<br>---------- -- -- -- ---- ----- -- ------ -- --- ------<br>-------,319581.29999999073,319576.86999998987,318964.592,318964.8649999872,318981.258,319597.9,,26,to
screen,html.Screen,2_3_1_0_1_27,2021-04-26T14:28:15.143Z,,,,,,,,,,,,,,,,,48,,,,,,,,,,,,,,436.81999999599066,,response,,,,10,C,,,,,,Space,keypress(Space),,,,instrumental,,,,-- -- --- ------ ------- --------- ----------- --------<br>--------- -------- --- ------- -- ------- ---- -- ------<br>-- --- -------- -------- ---------- ---- ---- ---- ------<br>-- transport -- ---- -- --- -- --- ------- -- - -----<br>---------- -- -- -- ---- ----- -- ------ -- --- ------<br>-------,320039.04999999213,320034.719999996,319581.234,319581.47999999346,319597.9,320054.249,,27,transport
screen,html.Screen,2_3_1_0_1_28,2021-04-26T14:28:15.800Z,,,,,,,,,,,,,,,,,48,,,,,,,,,,,,,,637.5059999779915,,response,,,,10,C,,,,,,Space,keypress(Space),,,,instrumental,,,,-- -- --- ------ ------- --------- ----------- --------<br>--------- -------- --- ------- -- ------- ---- -- ------<br>-- --- -------- -------- ---------- ---- ---- ---- ------<br>-- --------- it ---- -- --- -- --- ------- -- - -----<br>---------- -- -- -- ---- ----- -- ------ -- --- ------<br>-------,320696.334999986,320691.754999978,320037.583,320039.24499999266,320054.249,320720.889,,28,it
screen,html.Screen,2_3_1_0_1_29,2021-04-26T14:28:16.281Z,,,,,,,,,,,,,,,,,48,,,,,,,,,,,,,,451.7010000019218,,response,,,,10,C,,,,,,Space,keypress(Space),,,,instrumental,,,,-- -- --- ------ ------- --------- ----------- --------<br>--------- -------- --- ------- -- ------- ---- -- ------<br>-- --- -------- -------- ---------- ---- ---- ---- ------<br>-- --------- -- into -- --- -- --- ------- -- - -----<br>---------- -- -- -- ---- ----- -- ------ -- --- ------<br>-------,321176.8049999955,321172.59000000195,320704.223,320696.5149999887,320720.889,321204.203,,29,into
screen,html.Screen,2_3_1_0_1_30,2021-04-26T14:28:16.739Z,,,,,,,,,,,,,,,,,48,,,,,,,,,,,,,,426.7019999981858,,response,,,,10,C,,,,,,Space,keypress(Space),,,,instrumental,,,,-- -- --- ------ ------- --------- ----------- --------<br>--------- -------- --- ------- -- ------- ---- -- ------<br>-- --- -------- -------- ---------- ---- ---- ---- ------<br>-- --------- -- ---- or --- -- --- ------- -- - -----<br>---------- -- -- -- ---- ----- -- ------ -- --- ------<br>-------,321635.14999998733,321630.90499999817,321187.537,321176.98499999824,321204.203,321654.185,,30,or
screen,html.Screen,2_3_1_0_1_31,2021-04-26T14:28:17.277Z,,,,,,,,,,,,,,,,,48,,,,,,,,,,,,,,513.5799999910523,,response,,,,10,C,,,,,,Space,keypress(Space),,,,instrumental,,,,-- -- --- ------ ------- --------- ----------- --------<br>--------- -------- --- ------- -- ------- ---- -- ------<br>-- --- -------- -------- ---------- ---- ---- ---- ------<br>-- --------- -- ---- -- out -- --- ------- -- - -----<br>---------- -- -- -- ---- ----- -- ------ -- --- ------<br>-------,322172.50999997486,322167.76499999105,321637.519,321635.33499999903,321654.185,322187.497,,31,out
screen,html.Screen,2_3_1_0_1_32,2021-04-26T14:28:17.626Z,,,,,,,,,,,,,,,,,48,,,,,,,,,,,,,,330.2279999833554,,response,,,,10,C,,,,,,Space,keypress(Space),,,,instrumental,,,,-- -- --- ------ ------- --------- ----------- --------<br>--------- -------- --- ------- -- ------- ---- -- ------<br>-- --- -------- -------- ---------- ---- ---- ---- ------<br>-- --------- -- ---- -- --- of --- ------- -- - -----<br>---------- -- -- -- ---- ----- -- ------ -- --- ------<br>-------,322522.1999999776,322517.72499998333,322170.831,322172.69499998656,322187.497,322537.483,,32,of
screen,html.Screen,2_3_1_0_1_33,2021-04-26T14:28:18.049Z,,,,,,,,,,,,,,,,,48,,,,,,,,,,,,,,403.18200000189245,,response,,,,10,C,,,,,,Space,keypress(Space),,,,instrumental,,,,-- -- --- ------ ------- --------- ----------- --------<br>--------- -------- --- ------- -- ------- ---- -- ------<br>-- --- -------- -------- ---------- ---- ---- ---- ------<br>-- --------- -- ---- -- --- -- the ------- -- - -----<br>---------- -- -- -- ---- ----- -- ------ -- --- ------<br>-------,322945.3050000011,322940.6650000019,322520.817,322522.37999998033,322537.483,322970.799,,33,the
screen,html.Screen,2_3_1_0_1_34,2021-04-26T14:28:18.474Z,,,,,,,,,,,,,,,,,48,,,,,,,,,,,,,,394.88599999703,,response,,,,10,C,,,,,,Space,keypress(Space),,,,instrumental,,,,-- -- --- ------ ------- --------- ----------- --------<br>--------- -------- --- ------- -- ------- ---- -- ------<br>-- --- -------- -------- ---------- ---- ---- ---- ------<br>-- --------- -- ---- -- --- -- --- country -- - -----<br>---------- -- -- -- ---- ----- -- ------ -- --- ------<br>-------,323370.1799999981,323365.684999997,322954.133,322945.4849999747,322970.799,323387.449,,34,country
screen,html.Screen,2_3_1_0_1_35,2021-04-26T14:28:18.954Z,,,,,,,,,,,,,,,,,48,,,,,,,,,,,,,,458.2409999873489,,response,,,,10,C,,,,,,Space,keypress(Space),,,,instrumental,,,,-- -- --- ------ ------- --------- ----------- --------<br>--------- -------- --- ------- -- ------- ---- -- ------<br>-- --- -------- -------- ---------- ---- ---- ---- ------<br>-- --------- -- ---- -- --- -- --- ------- is - -----<br>---------- -- -- -- ---- ----- -- ------ -- --- ------<br>-------,323850.1600000018,323845.6899999874,323370.783,323370.36499998067,323387.449,323870.763,,35,is
screen,html.Screen,2_3_1_0_1_36,2021-04-26T14:28:19.334Z,,,,,,,,,,,,,,,,,48,,,,,,,,,,,,,,354.88699997850927,,response,,,,10,C,,,,,,Space,keypress(Space),,,,instrumental,,,,-- -- --- ------ ------- --------- ----------- --------<br>--------- -------- --- ------- -- ------- ---- -- ------<br>-- --- -------- -------- ---------- ---- ---- ---- ------<br>-- --------- -- ---- -- --- -- --- ------- -- a -----<br>---------- -- -- -- ---- ----- -- ------ -- --- ------<br>-------,324230.1149999839,324225.6499999785,323854.097,323850.3399999754,323870.763,324254.081,,36,a
screen,html.Screen,2_3_1_0_1_37,2021-04-26T14:28:19.777Z,,,,,,,,,,,,,,,,,48,,,,,,,,,,,,,,414.5389999821782,,response,,,,10,C,,,,,,Space,keypress(Space),,,,instrumental,,,,-- -- --- ------ ------- --------- ----------- --------<br>--------- -------- --- ------- -- ------- ---- -- ------<br>-- --- -------- -------- ---------- ---- ---- ---- ------<br>-- --------- -- ---- -- --- -- --- ------- -- - crime<br>---------- -- -- -- ---- ----- -- ------ -- --- ------<br>-------,324673.2249999768,324668.6199999822,324237.415,324230.2999999956,324254.081,324687.397,,37,crime
screen,html.Screen,2_3_1_0_1_38,2021-04-26T14:28:20.298Z,,,,,,,,,,,,,,,,,48,,,,,,,,,,,,,,502.27800000144634,,response,,,,10,C,,,,,,Space,keypress(Space),,,,instrumental,,,,-- -- --- ------ ------- --------- ----------- --------<br>--------- -------- --- ------- -- ------- ---- -- ------<br>-- --- -------- -------- ---------- ---- ---- ---- ------<br>-- --------- -- ---- -- --- -- --- ------- -- - -----<br>punishable -- -- -- ---- ----- -- ------ -- --- ------<br>-------,325194.1399999778,325189.67500000144,324670.731,324673.40499997954,324687.397,325220.709,,38,punishable
screen,html.Screen,2_3_1_0_1_39,2021-04-26T14:28:20.723Z,,,,,,,,,,,,,,,,,48,,,,,,,,,,,,,,393.8609999761102,,response,,,,10,C,,,,,,Space,keypress(Space),,,,instrumental,,,,-- -- --- ------ ------- --------- ----------- --------<br>--------- -------- --- ------- -- ------- ---- -- ------<br>-- --- -------- -------- ---------- ---- ---- ---- ------<br>-- --------- -- ---- -- --- -- --- ------- -- - -----<br>---------- by -- -- ---- ----- -- ------ -- --- ------<br>-------,325618.9599999925,325614.5699999761,325204.043,325194.31500000064,325220.709,325637.359,,39,by
screen,html.Screen,2_3_1_0_1_40,2021-04-26T14:28:21.318Z,,,,,,,,,,,,,,,,,48,,,,,,,,,,,,,,572.2659999885946,,response,,,,10,C,,,,,,Space,keypress(Space),,,,instrumental,,,,-- -- --- ------ ------- --------- ----------- --------<br>--------- -------- --- ------- -- ------- ---- -- ------<br>-- --- -------- -------- ---------- ---- ---- ---- ------<br>-- --------- -- ---- -- --- -- --- ------- -- - -----<br>---------- -- up -- ---- ----- -- ------ -- --- ------<br>-------,326214.14499997627,326209.6249999886,325620.693,325619.1349999863,325637.359,326237.335,,40,up
