sender,sender_type,sender_id,timestamp,meta,,Blues,Classical,Country,Dance,Electronic,Folk,Gospel,Hip-Hop,Jazz,Latin,Musical/Film,New-age,Pop,Prolific_id,Provo_ID,R&B,Rap,Reggae,Religious,Rock,Soul,Swing,Traditional,age,artist_name,correct,correctResponse,distraction,duration,education,ended_on,familiarity,gender,headphone_check_performance,item,list,music_frequency,offensiveness,pleasantness,position_correct,preference,response,response_action,snippet_file,song_name,song_rating,sound,stimulus_1,stimulus_2,stimulus_3,text,time_commit,time_end,time_render,time_run,time_show,time_switch,url,word,word_ID
Prolific ID,html.Form,0,2021-04-27T08:40:44.803Z,"{""labjs_version"":""20.2.2"",""labjs_build"":{""flavor"":""production"",""commit"":""a25486e0c714a0ae2ce03ff94b7bb6896854dcfa""},""location"":""https://run.pavlovia.org/mvasilev/prolific_music_f/"",""userAgent"":""Mozilla/5.0 (Macintosh; Intel Mac OS X 10_15_7) AppleWebKit/537.36 (KHTML, like Gecko) Chrome/90.0.4430.85 Safari/537.36"",""platform"":""MacIntel"",""language"":""en-GB"",""locale"":""en-GB"",""timeZone"":""Europe/London"",""timezoneOffset"":-60,""screen_width"":1440,""screen_height"":900,""scroll_width"":1440,""scroll_height"":690,""window_innerWidth"":1440,""window_innerHeight"":738,""devicePixelRatio"":2}",,,,,,,,,,,,,,,5fe758aacb76975cfe7fd06d,,,,,,,,,,,,,,,6171.730999985127,,form submission,,,,,,,,,,,,,,,,,,,,,12145.859999989625,12145.029999985127,5939.967,5952.114999992773,5973.299,12150.586,{},,
Introduction,html.Screen,1_0,2021-04-27T08:41:48.660Z,,,,,,,,,,,,,,,,,,,,,,,,,,,,,,,63850.46900000064,,response,,,,,,,,,,,continue,click button,,,,,,,,,76004.97499998892,76001.05500000063,12133.92,12146.264999988489,12150.586,76014.698,,,
Volume calibration,html.Screen,1_1,2021-04-27T08:43:04.884Z,,,,,,,,,,,,,,,,,,,,,,,,,,,,,,,76211.27699997937,,response,,,,,,,,,,,continue,click button,,,,,,,,,152232.4699999881,152225.97499997937,75998.032,76005.16000000061,76014.698,152233.026,,,
Task instructions,html.Screen,1_2,2021-04-27T08:43:32.004Z,,,,,,,,,,,,,,,,,,,,,,,,,,,,,,,27117.193999992975,,response,,,,,,,,,,,continue,click button,,,,,,,,,179353.54499999085,179350.219999993,152216.36,152232.61999999522,152233.026,179365.274,,,
Sounds,html.Screen,1_3_0_0,2021-04-27T08:43:36.248Z,,,,,,,,,,,,,,,,,,,,,,,,,,,,,,,4243.036999999982,,timeout,,,,,,,,,2,,,,,,,,O,S,I,,183597.4199999764,183591.645,179348.608,179354.00500000105,179365.274,183608.311,,,
Judgement,html.Screen,1_3_0_1,2021-04-27T08:43:37.461Z,,,,,,,,,,,,,,,,,,,,,,,,,,,,true,2,,1198.7289999851491,,response,,,,,,,,,2,,2,click #choice-2,,,,,O,S,I,,184810.80499998643,184807.03999998514,183591.645,183597.62499999488,183608.311,184824.929,,,
Trial,flow.Sequence,1_3_0,2021-04-27T08:43:37.462Z,,,,,,,,,,,,,,,,,,,,,,,,,,,,,,,5441.765999985131,,completion,,,,,,,,,2,,,,,,,,O,S,I,,184811.39999997686,184807.03999998514,179348.608,179353.89499997837,179365.274,184824.929,,,
Sounds,html.Screen,1_3_1_0,2021-04-27T08:43:41.711Z,,,,,,,,,,,,,,,,,,,,,,,,,,,,,,,4249.829999999987,,timeout,,,,,,,,,3,,,,,,,,O,I,S,,189060.58999997913,189058.093,184808.263,184811.64499997976,184824.929,189074.759,,,
Judgement,html.Screen,1_3_1_1,2021-04-27T08:43:42.871Z,,,,,,,,,,,,,,,,,,,,,,,,,,,,true,3,,1142.7309999809077,,response,,,,,,,,,3,,3,click #choice-3,,,,,O,I,S,,190220.9449999791,190217.4899999809,189058.093,189061.1149999895,189074.759,190224.713,,,
Trial,flow.Sequence,1_3_1,2021-04-27T08:43:42.871Z,,,,,,,,,,,,,,,,,,,,,,,,,,,,,,,5392.560999980895,,completion,,,,,,,,,3,,,,,,,,O,I,S,,190221.21999997762,190217.4899999809,184808.263,184811.57999997959,184824.929,190224.713,,,
Sounds,html.Screen,1_3_2_0,2021-04-27T08:43:47.111Z,,,,,,,,,,,,,,,,,,,,,,,,,,,,,,,4249.830000000016,,timeout,,,,,,,,,2,,,,,,,,I,S,O,,194460.8049999806,194457.877,190208.047,190221.40499998932,190224.713,194474.543,,,
Judgement,html.Screen,1_3_2_1,2021-04-27T08:43:47.540Z,,,,,,,,,,,,,,,,,,,,,,,,,,,,true,2,,412.22699998278404,,response,,,,,,,,,2,,2,click #choice-2,,,,,I,S,O,,194890.1949999854,194886.7699999828,194457.877,194461.27499997965,194474.543,194905.047,,,
Trial,flow.Sequence,1_3_2,2021-04-27T08:43:47.540Z,,,,,,,,,,,,,,,,,,,,,,,,,,,,,,,4662.0569999828,,completion,,,,,,,,,2,,,,,,,,I,S,O,,194890.53499998408,194886.7699999828,190208.047,190221.3449999981,190224.713,194905.047,,,
Sounds,html.Screen,1_3_3_0,2021-04-27T08:43:51.790Z,,,,,,,,,,,,,,,,,,,,,,,,,,,,,,,4249.830000000016,,timeout,,,,,,,,,1,,,,,,,,S,O,I,,199140.79999999376,199138.211,194888.381,194890.779999987,194905.047,199154.877,,,
Judgement,html.Screen,1_3_3_1,2021-04-27T08:43:52.468Z,,,,,,,,,,,,,,,,,,,,,,,,,,,,true,1,,659.8029999813007,,response,,,,,,,,,1,,1,click #choice-1,,,,,S,O,I,,199818.1999999797,199814.6799999813,199138.211,199141.01500000106,199154.877,199821.517,,,
Trial,flow.Sequence,1_3_3,2021-04-27T08:43:52.468Z,,,,,,,,,,,,,,,,,,,,,,,,,,,,,,,4909.632999981317,,completion,,,,,,,,,1,,,,,,,,S,O,I,,199818.53999997838,199814.6799999813,194888.381,194890.6849999912,194905.047,199821.517,,,
Sounds,html.Screen,1_3_4_0,2021-04-27T08:43:56.707Z,,,,,,,,,,,,,,,,,,,,,,,,,,,,,,,4249.830000000016,,timeout,,,,,,,,,1,,,,,,,,S,I,O,,204057.2449999745,204054.681,199804.851,199818.7549999857,199821.517,204071.347,,,
Judgement,html.Screen,1_3_4_1,2021-04-27T08:43:57.327Z,,,,,,,,,,,,,,,,,,,,,,,,,,,,true,1,,603.0829999845591,,response,,,,,,,,,1,,1,click #choice-1,,,,,S,I,O,,204678.0199999921,204674.42999998457,204054.681,204057.46999999974,204071.347,204687.989,,,
Trial,flow.Sequence,1_3_4,2021-04-27T08:43:57.328Z,,,,,,,,,,,,,,,,,,,,,,,,,,,,,,,4852.912999984575,,completion,,,,,,,,,1,,,,,,,,S,I,O,,204678.25499997707,204674.42999998457,199804.851,199818.6899999855,199821.517,204687.989,,,
Sounds,html.Screen,1_3_5_0,2021-04-27T08:44:01.576Z,,,,,,,,,,,,,,,,,,,,,,,,,,,,,,,4252.315000000002,,timeout,,,,,,,,,3,,,,,,,,I,O,S,,208927.00999998488,208923.638,204671.323,204678.41500000213,204687.989,208940.304,,,
Judgement,html.Screen,1_3_5_1,2021-04-27T08:44:02.164Z,,,,,,,,,,,,,,,,,,,,,,,,,,,,true,3,,571.7059999767225,,response,,,,,,,,,3,,3,click #choice-3,,,,,I,O,S,,209515.10499999858,209512.00999997673,208923.638,208927.2199999832,208940.304,209523.614,,,
Trial,flow.Sequence,1_3_5,2021-04-27T08:44:02.165Z,,,,,,,,,,,,,,,,,,,,,,,,,,,,,,,4824.020999976725,,completion,,,,,,,,,3,,,,,,,,I,O,S,,209515.33999998355,209512.00999997673,204671.323,204678.36499999976,204687.989,209523.614,,,
Task,flow.Loop,1_3,2021-04-27T08:44:02.170Z,,,,,,,,,,,,,,,,,,,,,,,,,,,,,,,30146.73599997672,,completion,,,1,,,,,,,,,,,,,,,,,,209520.76499999384,209512.00999997673,179348.608,179353.7799999758,179365.274,209523.614,,,
Trap,html.Screen,1_4,2021-04-27T08:44:02.171Z,,,,,,,,,,,,,,,,,,,,,,,,,,,,,,,NaN,,skipped,,,,,,,,,,,,,,,,,,,,,209522.04999999958,209512.00999997673,,209521.93499999703,,209523.614,,,
Thanks,html.Screen,1_5,2021-04-27T08:44:05.281Z,,,,,,,,,,,,,,,,,,,,,,,,,,,,,,,3104.6759999932838,,response,,,,,,,,,,,continue,click button,,,,,,,,,212631.8349999783,212628.28999999329,209506.948,209522.1549999842,209523.614,216140.016,,,
Headphone screening,flow.Sequence,1,2021-04-27T08:44:05.281Z,,,,,,,,,,,,,,,,,,,,,,,,,,,,,,,200477.70399999327,,completion,,,,,,,,,,,,,,,,,,,,,212632.16499998816,212628.28999999329,12133.92,12146.229999983916,12150.586,216140.016,,,
Instructions,html.Page,2_0,2021-04-27T08:44:37.524Z,,,,,,,,,,,,,,,,,,,,,,,,,,,,,,,28735.488999974506,,form submission,,,,,,,,,,,,,,,,,,,,,244875.89499997557,244875.5049999745,216123.35,216126.90999999177,216140.016,244874.805,,,
Holding screen,html.Screen,2_1_0_0,2021-04-27T08:44:47.509Z,,,,,,,,,,,,,,,,,,,,,,,,,,,,,,,10001.300000000017,,timeout,,,,,,,,,,,,,,,,,,,,,254861.9999999937,254859.439,244858.139,244876.21999997646,244874.805,254876.105,,,
screen,html.Screen,2_1_0_1_0,2021-04-27T08:44:47.631Z,,,,,,,,,,,,,,,,,53,,,,,,,,,,,,,,97.40000000174041,,response,,,,99,,,,,,,Space,keypress(Space),,,,,,,,When -- ----- -- ------ - ------- --- ----------<br>------------- ------ ------ ---- ---- ------- ----- -- ----<br>-------- ------- -- ---------- --- - --- ----- ----- ----<br>---- --- --- ----- --- ---- ---- ------- ----- ---- -------<br>--- --- -- ----- -- --- ---- -- --- ---- -- ------ ------<br>--- ----- -- ----,254983.2999999926,254973.50500000175,254859.439,254862.32999997446,254876.105,254992.767,,0,When
screen,html.Screen,2_1_0_1_1,2021-04-27T08:44:48.946Z,,,,,,,,,,,,,,,,,53,,,,,,,,,,,,,,1297.6629999936558,,response,,,,99,,,,,,,Space,keypress(Space),,,,,,,,---- it ----- -- ------ - ------- --- ----------<br>------------- ------ ------ ---- ---- ------- ----- -- ----<br>-------- ------- -- ---------- --- - --- ----- ----- ----<br>---- --- --- ----- --- ---- ---- ------- ----- ---- -------<br>--- --- -- ----- -- --- ---- -- --- ---- -- ------ ------<br>--- ----- -- ----,256298.45000000205,256290.42999999365,254976.101,254983.42999999295,254992.767,256315.538,,1,it
screen,html.Screen,2_1_0_1_2,2021-04-27T08:44:49.537Z,,,,,,,,,,,,,,,,,53,,,,,,,,,,,,,,568.4819999976899,,response,,,,99,,,,,,,Space,keypress(Space),,,,,,,,---- -- comes -- ------ - ------- --- ----------<br>------------- ------ ------ ---- ---- ------- ----- -- ----<br>-------- ------- -- ---------- --- - --- ----- ----- ----<br>---- --- --- ----- --- ---- ---- ------- ----- ---- -------<br>--- --- -- ----- -- --- ---- -- --- ---- -- ------ ------<br>--- ----- -- ----,256889.97499999823,256884.0199999977,256298.872,256298.59999998007,256315.538,256898.848,,2,comes
screen,html.Screen,2_1_0_1_3,2021-04-27T08:44:49.977Z,,,,,,,,,,,,,,,,,53,,,,,,,,,,,,,,427.0619999850169,,response,,,,99,,,,,,,Space,keypress(Space),,,,,,,,---- -- ----- to ------ - ------- --- ----------<br>------------- ------ ------ ---- ---- ------- ----- -- ----<br>-------- ------- -- ---------- --- - --- ----- ----- ----<br>---- --- --- ----- --- ---- ---- ------- ----- ---- -------<br>--- --- -- ----- -- --- ---- -- --- ---- -- ------ ------<br>--- ----- -- ----,257329.9999999872,257325.90999998502,256882.182,256890.12499997625,256898.848,257332.164,,3,to
screen,html.Screen,2_1_0_1_4,2021-04-27T08:44:50.643Z,,,,,,,,,,,,,,,,,53,,,,,,,,,,,,,,656.8759999858448,,response,,,,99,,,,,,,Space,keypress(Space),,,,,,,,---- -- ----- -- having - ------- --- ----------<br>------------- ------ ------ ---- ---- ------- ----- -- ----<br>-------- ------- -- ---------- --- - --- ----- ----- ----<br>---- --- --- ----- --- ---- ---- ------- ----- ---- -------<br>--- --- -- ----- -- --- ---- -- --- ---- -- ------ ------<br>--- ----- -- ----,257995.93499998446,257989.03999998583,257315.498,257330.1050000009,257332.164,257998.804,,4,having
screen,html.Screen,2_1_0_1_5,2021-04-27T08:44:51.240Z,,,,,,,,,,,,,,,,,53,,,,,,,,,,,,,,587.2059999990743,,response,,,,99,,,,,,,Space,keypress(Space),,,,,,,,---- -- ----- -- ------ a ------- --- ----------<br>------------- ------ ------ ---- ---- ------- ----- -- ----<br>-------- ------- -- ---------- --- - --- ----- ----- ----<br>---- --- --- ----- --- ---- ---- ------- ----- ---- -------<br>--- --- -- ----- -- --- ---- -- --- ---- -- ------ ------<br>--- ----- -- ----,258592.42499998072,258586.00999999908,257982.138,257996.14000000292,257998.804,258598.78,,5,a
screen,html.Screen,2_1_0_1_6,2021-04-27T08:44:51.745Z,,,,,,,,,,,,,,,,,53,,,,,,,,,,,,,,493.17000000181724,,response,,,,99,,,,,,,Space,keypress(Space),,,,,,,,---- -- ----- -- ------ - lasting --- ----------<br>------------- ------ ------ ---- ---- ------- ----- -- ----<br>-------- ------- -- ---------- --- - --- ----- ----- ----<br>---- --- --- ----- --- ---- ---- ------- ----- ---- -------<br>--- --- -- ----- -- --- ---- -- --- ---- -- ------ ------<br>--- ----- -- ----,259098.11999998055,259091.95000000182,258582.114,258592.58999998565,258598.78,259098.76,,6,lasting
screen,html.Screen,2_1_0_1_7,2021-04-27T08:44:52.222Z,,,,,,,,,,,,,,,,,53,,,,,,,,,,,,,,469.1699999901466,,response,,,,99,,,,,,,Space,keypress(Space),,,,,,,,---- -- ----- -- ------ - ------- and ----------<br>------------- ------ ------ ---- ---- ------- ----- -- ----<br>-------- ------- -- ---------- --- - --- ----- ----- ----<br>---- --- --- ----- --- ---- ---- ------- ----- ---- -------<br>--- --- -- ----- -- --- ---- -- --- ---- -- ------ ------<br>--- ----- -- ----,259574.7749999864,259567.92999999016,259082.094,259098.27499999665,259098.76,259582.074,,7,and
screen,html.Screen,2_1_0_1_8,2021-04-27T08:44:52.766Z,,,,,,,,,,,,,,,,,53,,,,,,,,,,,,,,529.8859999801789,,response,,,,99,,,,,,,Space,keypress(Space),,,,,,,,---- -- ----- -- ------ - ------- --- fulfilling<br>------------- ------ ------ ---- ---- ------- ----- -- ----<br>-------- ------- -- ---------- --- - --- ----- ----- ----<br>---- --- --- ----- --- ---- ---- ------- ----- ---- -------<br>--- --- -- ----- -- --- ---- -- --- ---- -- ------ ------<br>--- ----- -- ----,260118.49500000244,260111.95999998017,259565.408,259574.9749999959,259582.074,260132.052,,8,fulfilling
screen,html.Screen,2_1_0_1_9,2021-04-27T08:44:53.228Z,,,,,,,,,,,,,,,,,53,,,,,,,,,,,,,,442.22299999176175,,response,,,,99,,,,,,,Space,keypress(Space),,,,,,,,"---- -- ----- -- ------ - ------- --- ----------<br>relationship, ------ ------ ---- ---- ------- ----- -- ----<br>-------- ------- -- ---------- --- - --- ----- ----- ----<br>---- --- --- ----- --- ---- ---- ------- ----- ---- -------<br>--- --- -- ----- -- --- ---- -- --- ---- -- ------ ------<br>--- ----- -- ----",260581.274999975,260574.27499999176,260115.386,260118.64999998943,260132.052,260598.7,,9,"relationship,"
screen,html.Screen,2_1_0_1_10,2021-04-27T08:44:53.701Z,,,,,,,,,,,,,,,,,53,,,,,,,,,,,,,,448.17499999998836,,response,,,,99,,,,,,,Space,keypress(Space),,,,,,,,---- -- ----- -- ------ - ------- --- ----------<br>------------- common ------ ---- ---- ------- ----- -- ----<br>-------- ------- -- ---------- --- - --- ----- ----- ----<br>---- --- --- ----- --- ---- ---- ------- ----- ---- -------<br>--- --- -- ----- -- --- ---- -- --- ---- -- ------ ------<br>--- ----- -- ----,261054.02499999036,261046.875,260582.034,260581.48500000243,260598.7,261065.348,,10,common
screen,html.Screen,2_1_0_1_11,2021-04-27T08:44:54.171Z,,,,,,,,,,,,,,,,,53,,,,,,,,,,,,,,451.62699997681193,,response,,,,99,,,,,,,Space,keypress(Space),,,,,,,,---- -- ----- -- ------ - ------- --- ----------<br>------------- ------ wisdom ---- ---- ------- ----- -- ----<br>-------- ------- -- ---------- --- - --- ----- ----- ----<br>---- --- --- ----- --- ---- ---- ------- ----- ---- -------<br>--- --- -- ----- -- --- ---- -- --- ---- -- ------ ------<br>--- ----- -- ----,261523.63499999046,261516.9749999768,261048.682,261054.17999997735,261065.348,261531.996,,11,wisdom
screen,html.Screen,2_1_0_1_12,2021-04-27T08:44:54.770Z,,,,,,,,,,,,,,,,,53,,,,,,,,,,,,,,583.823999977234,,response,,,,99,,,,,,,Space,keypress(Space),,,,,,,,---- -- ----- -- ------ - ------- --- ----------<br>------------- ------ ------ says ---- ------- ----- -- ----<br>-------- ------- -- ---------- --- - --- ----- ----- ----<br>---- --- --- ----- --- ---- ---- ------- ----- ---- -------<br>--- --- -- ----- -- --- ---- -- --- ---- -- ------ ------<br>--- ----- -- ----,262122.4799999909,262115.81999997725,261515.33,261523.78999997745,261531.996,262131.972,,12,says
screen,html.Screen,2_1_0_1_13,2021-04-27T08:44:55.167Z,,,,,,,,,,,,,,,,,53,,,,,,,,,,,,,,381.0779999795486,,response,,,,99,,,,,,,Space,keypress(Space),,,,,,,,---- -- ----- -- ------ - ------- --- ----------<br>------------- ------ ------ ---- that ------- ----- -- ----<br>-------- ------- -- ---------- --- - --- ----- ----- ----<br>---- --- --- ----- --- ---- ---- ------- ----- ---- -------<br>--- --- -- ----- -- --- ---- -- --- ---- -- ------ ------<br>--- ----- -- ----,262519.9100000027,262513.04999997956,262115.306,262122.6349999779,262131.972,262531.956,,13,that
screen,html.Screen,2_1_0_1_14,2021-04-27T08:44:55.562Z,,,,,,,,,,,,,,,,,53,,,,,,,,,,,,,,376.13399998261593,,response,,,,99,,,,,,,Space,keypress(Space),,,,,,,,---- -- ----- -- ------ - ------- --- ----------<br>------------- ------ ------ ---- ---- feeling ----- -- ----<br>-------- ------- -- ---------- --- - --- ----- ----- ----<br>---- --- --- ----- --- ---- ---- ------- ----- ---- -------<br>--- --- -- ----- -- --- ---- -- --- ---- -- ------ ------<br>--- ----- -- ----,262914.8649999988,262908.0899999826,262515.29,262520.06999999867,262531.956,262931.94,,14,feeling
screen,html.Screen,2_1_0_1_15,2021-04-27T08:44:55.980Z,,,,,,,,,,,,,,,,,53,,,,,,,,,,,,,,394.12500000110595,,response,,,,99,,,,,,,Space,keypress(Space),,,,,,,,---- -- ----- -- ------ - ------- --- ----------<br>------------- ------ ------ ---- ---- ------- close -- ----<br>-------- ------- -- ---------- --- - --- ----- ----- ----<br>---- --- --- ----- --- ---- ---- ------- ----- ---- -------<br>--- --- -- ----- -- --- ---- -- --- ---- -- ------ ------<br>--- ----- -- ----,263333.22000000044,263326.0650000011,262915.274,262915.01499997685,262931.94,263348.59,,15,close
screen,html.Screen,2_1_0_1_16,2021-04-27T08:44:56.079Z,,,,,,,,,,,,,,,,,53,,,,,,,,,,,,,,77.16499997471692,,response,,,,99,,,,,,,Space,keypress(Space),,,,,,,,---- -- ----- -- ------ - ------- --- ----------<br>------------- ------ ------ ---- ---- ------- ----- to ----<br>-------- ------- -- ---------- --- - --- ----- ----- ----<br>---- --- --- ----- --- ---- ---- ------- ----- ---- -------<br>--- --- -- ----- -- --- ---- -- --- ---- -- ------ ------<br>--- ----- -- ----,263432.2949999769,263425.75499997474,263331.924,263333.3749999874,263348.59,263448.586,,16,to
screen,html.Screen,2_1_0_1_17,2021-04-27T08:44:56.813Z,,,,,,,,,,,,,,,,,53,,,,,,,,,,,,,,711.1540000027744,,response,,,,99,,,,,,,Space,keypress(Space),,,,,,,,---- -- ----- -- ------ - ------- --- ----------<br>------------- ------ ------ ---- ---- ------- ----- -- your<br>-------- ------- -- ---------- --- - --- ----- ----- ----<br>---- --- --- ----- --- ---- ---- ------- ----- ---- -------<br>--- --- -- ----- -- --- ---- -- --- ---- -- ------ ------<br>--- ----- -- ----,264166.3750000007,264159.7400000028,263431.92,263432.444999984,263448.586,264181.89,,17,your
screen,html.Screen,2_1_0_1_18,2021-04-27T08:44:57.395Z,,,,,,,,,,,,,,,,,53,,,,,,,,,,,,,,559.2200000026496,,response,,,,99,,,,,,,Space,keypress(Space),,,,,,,,---- -- ----- -- ------ - ------- --- ----------<br>------------- ------ ------ ---- ---- ------- ----- -- ----<br>romantic ------- -- ---------- --- - --- ----- ----- ----<br>---- --- --- ----- --- ---- ---- ------- ----- ---- -------<br>--- --- -- ----- -- --- ---- -- --- ---- -- ------ ------<br>--- ----- -- ----,264748.1599999883,264741.11000000266,264165.224,264166.5299999877,264181.89,264765.2,,18,romantic
screen,html.Screen,2_1_0_1_19,2021-04-27T08:44:58.068Z,,,,,,,,,,,,,,,,,53,,,,,,,,,,,,,,648.829999985348,,response,,,,99,,,,,,,Space,keypress(Space),,,,,,,,---- -- ----- -- ------ - ------- --- ----------<br>------------- ------ ------ ---- ---- ------- ----- -- ----<br>-------- partner -- ---------- --- - --- ----- ----- ----<br>---- --- --- ----- --- ---- ---- ------- ----- ---- -------<br>--- --- -- ----- -- --- ---- -- --- ---- -- ------ ------<br>--- ----- -- ----,265420.5849999853,265414.02999998536,264748.534,264748.31999998423,264765.2,265431.84,,19,partner
screen,html.Screen,2_1_0_1_20,2021-04-27T08:44:58.733Z,,,,,,,,,,,,,,,,,53,,,,,,,,,,,,,,646.8149999902234,,response,,,,99,,,,,,,Space,keypress(Space),,,,,,,,---- -- ----- -- ------ - ------- --- ----------<br>------------- ------ ------ ---- ---- ------- ----- -- ----<br>-------- ------- is ---------- --- - --- ----- ----- ----<br>---- --- --- ----- --- ---- ---- ------- ----- ---- -------<br>--- --- -- ----- -- --- ---- -- --- ---- -- ------ ------<br>--- ----- -- ----,266085.6550000026,266078.65499999025,265415.174,265420.7499999902,265431.84,266098.48,,20,is
screen,html.Screen,2_1_0_1_21,2021-04-27T08:44:59.674Z,,,,,,,,,,,,,,,,,53,,,,,,,,,,,,,,922.5749999901745,,response,,,,99,,,,,,,Space,keypress(Space),,,,,,,,---- -- ----- -- ------ - ------- --- ----------<br>------------- ------ ------ ---- ---- ------- ----- -- ----<br>-------- ------- -- paramount. --- - --- ----- ----- ----<br>---- --- --- ----- --- ---- ---- ------- ----- ---- -------<br>--- --- -- ----- -- --- ---- -- --- ---- -- ------ ------<br>--- ----- -- ----,267027.07999999984,267021.05499999016,266081.814,266085.779999994,266098.48,267028.62,,21,paramount.
screen,html.Screen,2_1_0_1_22,2021-04-27T08:45:00.125Z,,,,,,,,,,,,,,,,,53,,,,,,,,,,,,,,443.0899999834364,,response,,,,99,,,,,,,Space,keypress(Space),,,,,,,,---- -- ----- -- ------ - ------- --- ----------<br>------------- ------ ------ ---- ---- ------- ----- -- ----<br>-------- ------- -- ---------- But - --- ----- ----- ----<br>---- --- --- ----- --- ---- ---- ------- ----- ---- -------<br>--- --- -- ----- -- --- ---- -- --- ---- -- ------ ------<br>--- ----- -- ----,267478.134999983,267471.70999998343,267011.954,267027.23499998683,267028.62,267495.268,,22,But
screen,html.Screen,2_1_0_1_23,2021-04-27T08:45:00.500Z,,,,,,,,,,,,,,,,,53,,,,,,,,,,,,,,350.6169999879203,,response,,,,99,,,,,,,Space,keypress(Space),,,,,,,,---- -- ----- -- ------ - ------- --- ----------<br>------------- ------ ------ ---- ---- ------- ----- -- ----<br>-------- ------- -- ---------- --- a --- ----- ----- ----<br>---- --- --- ----- --- ---- ---- ------- ----- ---- -------<br>--- --- -- ----- -- --- ---- -- --- ---- -- ------ ------<br>--- ----- -- ----,267852.82499997993,267845.8849999879,267478.602,267478.26499998337,267495.268,267861.92,,23,a
screen,html.Screen,2_1_0_1_24,2021-04-27T08:45:00.910Z,,,,,,,,,,,,,,,,,53,,,,,,,,,,,,,,394.734999975597,,response,,,,99,,,,,,,Space,keypress(Space),,,,,,,,---- -- ----- -- ------ - ------- --- ----------<br>------------- ------ ------ ---- ---- ------- ----- -- ----<br>-------- ------- -- ---------- --- - new ----- ----- ----<br>---- --- --- ----- --- ---- ---- ------- ----- ---- -------<br>--- --- -- ----- -- --- ---- -- --- ---- -- ------ ------<br>--- ----- -- ----,268263.32999998704,268256.6549999756,267845.254,267852.979999996,267861.92,268278.57,,24,new
screen,html.Screen,2_1_0_1_25,2021-04-27T08:45:01.340Z,,,,,,,,,,,,,,,,,53,,,,,,,,,,,,,,407.2799999798299,,response,,,,99,,,,,,,Space,keypress(Space),,,,,,,,---- -- ----- -- ------ - ------- --- ----------<br>------------- ------ ------ ---- ---- ------- ----- -- ----<br>-------- ------- -- ---------- --- - --- study ----- ----<br>---- --- --- ----- --- ---- ---- ------- ----- ---- -------<br>--- --- -- ----- -- --- ---- -- --- ---- -- ------ ------<br>--- ----- -- ----,268693.1199999817,268685.84999997984,268261.904,268263.484999974,268278.57,268695.22,,25,study
screen,html.Screen,2_1_0_1_26,2021-04-27T08:45:01.792Z,,,,,,,,,,,,,,,,,53,,,,,,,,,,,,,,443.28499998082407,,response,,,,99,,,,,,,Space,keypress(Space),,,,,,,,---- -- ----- -- ------ - ------- --- ----------<br>------------- ------ ------ ---- ---- ------- ----- -- ----<br>-------- ------- -- ---------- --- - --- ----- finds ----<br>---- --- --- ----- --- ---- ---- ------- ----- ---- -------<br>--- --- -- ----- -- --- ---- -- --- ---- -- ------ ------<br>--- ----- -- ----,269145.29999997467,269138.5049999808,268678.554,268693.26999998884,268695.22,269161.868,,26,finds
screen,html.Screen,2_1_0_1_27,2021-04-27T08:45:02.326Z,,,,,,,,,,,,,,,,,53,,,,,,,,,,,,,,510.9069999845233,,response,,,,99,,,,,,,Space,keypress(Space),,,,,,,,---- -- ----- -- ------ - ------- --- ----------<br>------------- ------ ------ ---- ---- ------- ----- -- ----<br>-------- ------- -- ---------- --- - --- ----- ----- that<br>---- --- --- ----- --- ---- ---- ------- ----- ---- -------<br>--- --- -- ----- -- --- ---- -- --- ---- -- ------ ------<br>--- ----- -- ----,269679.5099999872,269672.77499998454,269145.202,269145.45499999076,269161.868,269695.18,,27,that
screen,html.Screen,2_1_0_1_28,2021-04-27T08:45:02.394Z,,,,,,,,,,,,,,,,,53,,,,,,,,,,,,,,45.25999999413034,,response,,,,99,,,,,,,Space,keypress(Space),,,,,,,,---- -- ----- -- ------ - ------- --- ----------<br>------------- ------ ------ ---- ---- ------- ----- -- ----<br>-------- ------- -- ---------- --- - --- ----- ----- ----<br>it's --- --- ----- --- ---- ---- ------- ----- ---- -------<br>--- --- -- ----- -- --- ---- -- --- ---- -- ------ ------<br>--- ----- -- ----,269747.0199999807,269740.4399999941,269678.514,269679.6649999742,269695.18,269761.844,,28,it's
screen,html.Screen,2_1_0_1_29,2021-04-27T08:45:03.122Z,,,,,,,,,,,,,,,,,53,,,,,,,,,,,,,,706.540999985591,,response,,,,99,,,,,,,Space,keypress(Space),,,,,,,,---- -- ----- -- ------ - ------- --- ----------<br>------------- ------ ------ ---- ---- ------- ----- -- ----<br>-------- ------- -- ---------- --- - --- ----- ----- ----<br>---- not --- ----- --- ---- ---- ------- ----- ---- -------<br>--- --- -- ----- -- --- ---- -- --- ---- -- ------ ------<br>--- ----- -- ----,270474.94999997434,270468.3849999856,269745.178,269747.1749999968,269761.844,270478.482,,29,not
screen,html.Screen,2_1_0_1_30,2021-04-27T08:45:03.878Z,,,,,,,,,,,,,,,,,53,,,,,,,,,,,,,,746.0179999820539,,response,,,,99,,,,,,,Space,keypress(Space),,,,,,,,---- -- ----- -- ------ - ------- --- ----------<br>------------- ------ ------ ---- ---- ------- ----- -- ----<br>-------- ------- -- ---------- --- - --- ----- ----- ----<br>---- --- how ----- --- ---- ---- ------- ----- ---- -------<br>--- --- -- ----- -- --- ---- -- --- ---- -- ------ ------<br>--- ----- -- ----,271231.2699999893,271224.4999999821,270461.816,270475.09999998147,270478.482,271245.118,,30,how
screen,html.Screen,2_1_0_1_31,2021-04-27T08:45:04.609Z,,,,,,,,,,,,,,,,,53,,,,,,,,,,,,,,709.7219999912195,,response,,,,99,,,,,,,Space,keypress(Space),,,,,,,,---- -- ----- -- ------ - ------- --- ----------<br>------------- ------ ------ ---- ---- ------- ----- -- ----<br>-------- ------- -- ---------- --- - --- ----- ----- ----<br>---- --- --- close --- ---- ---- ------- ----- ---- -------<br>--- --- -- ----- -- --- ---- -- --- ---- -- ------ ------<br>--- ----- -- ----,271962.7849999815,271954.83999999124,271228.452,271231.41999999643,271245.118,271978.422,,31,close
screen,html.Screen,2_1_0_1_32,2021-04-27T08:45:05.148Z,,,,,,,,,,,,,,,,,53,,,,,,,,,,,,,,516.0529999849387,,response,,,,99,,,,,,,Space,keypress(Space),,,,,,,,---- -- ----- -- ------ - ------- --- ----------<br>------------- ------ ------ ---- ---- ------- ----- -- ----<br>-------- ------- -- ---------- --- - --- ----- ----- ----<br>---- --- --- ----- you ---- ---- ------- ----- ---- -------<br>--- --- -- ----- -- --- ---- -- --- ---- -- ------ ------<br>--- ----- -- ----,272501.1249999807,272494.47499998496,271961.756,271962.9999999888,271978.422,272511.734,,32,you
screen,html.Screen,2_1_0_1_33,2021-04-27T08:45:05.905Z,,,,,,,,,,,,,,,,,53,,,,,,,,,,,,,,739.8509999908856,,response,,,,99,,,,,,,Space,keypress(Space),,,,,,,,---- -- ----- -- ------ - ------- --- ----------<br>------------- ------ ------ ---- ---- ------- ----- -- ----<br>-------- ------- -- ---------- --- - --- ----- ----- ----<br>---- --- --- ----- --- feel ---- ------- ----- ---- -------<br>--- --- -- ----- -- --- ---- -- --- ---- -- ------ ------<br>--- ----- -- ----,273258.17999997525,273251.5849999909,272495.068,272501.2749999878,272511.734,273261.704,,33,feel
screen,html.Screen,2_1_0_1_34,2021-04-27T08:45:06.433Z,,,,,,,,,,,,,,,,,53,,,,,,,,,,,,,,517.7359999838518,,response,,,,99,,,,,,,Space,keypress(Space),,,,,,,,---- -- ----- -- ------ - ------- --- ----------<br>------------- ------ ------ ---- ---- ------- ----- -- ----<br>-------- ------- -- ---------- --- - --- ----- ----- ----<br>---- --- --- ----- --- ---- that ------- ----- ---- -------<br>--- --- -- ----- -- --- ---- -- --- ---- -- ------ ------<br>--- ----- -- ----,273786.3849999849,273779.4399999839,273245.038,273259.3549999874,273261.704,273795.016,,34,that
screen,html.Screen,2_1_0_1_35,2021-04-27T08:45:06.927Z,,,,,,,,,,,,,,,,,53,,,,,,,,,,,,,,478.3589999897522,,response,,,,99,,,,,,,Space,keypress(Space),,,,,,,,---- -- ----- -- ------ - ------- --- ----------<br>------------- ------ ------ ---- ---- ------- ----- -- ----<br>-------- ------- -- ---------- --- - --- ----- ----- ----<br>---- --- --- ----- --- ---- ---- matters ----- ---- -------<br>--- --- -- ----- -- --- ---- -- --- ---- -- ------ ------<br>--- ----- -- ----,274280.1299999992,274273.37499998976,273778.35,273786.5999999922,273795.016,274294.996,,35,matters
screen,html.Screen,2_1_0_1_36,2021-04-27T08:45:07.298Z,,,,,,,,,,,,,,,,,53,,,,,,,,,,,,,,350.69899998471374,,response,,,,99,,,,,,,Space,keypress(Space),,,,,,,,"---- -- ----- -- ------ - ------- --- ----------<br>------------- ------ ------ ---- ---- ------- ----- -- ----<br>-------- ------- -- ---------- --- - --- ----- ----- ----<br>---- --- --- ----- --- ---- ---- ------- most, ---- -------<br>--- --- -- ----- -- --- ---- -- --- ---- -- ------ ------<br>--- ----- -- ----",274651.66499998304,274645.6949999847,274278.33,274281.0699999973,274294.996,274661.648,,36,"most,"
screen,html.Screen,2_1_0_1_37,2021-04-27T08:45:07.667Z,,,,,,,,,,,,,,,,,53,,,,,,,,,,,,,,351.97199998336146,,response,,,,99,,,,,,,Space,keypress(Space),,,,,,,,---- -- ----- -- ------ - ------- --- ----------<br>------------- ------ ------ ---- ---- ------- ----- -- ----<br>-------- ------- -- ---------- --- - --- ----- ----- ----<br>---- --- --- ----- --- ---- ---- ------- ----- it's -------<br>--- --- -- ----- -- --- ---- -- --- ---- -- ------ ------<br>--- ----- -- ----,275020.30499998364,275013.61999998335,274644.982,274651.81999999913,274661.648,275028.3,,37,it's
screen,html.Screen,2_1_0_1_38,2021-04-27T08:45:08.100Z,,,,,,,,,,,,,,,,,53,,,,,,,,,,,,,,418.0049999904004,,response,,,,99,,,,,,,Space,keypress(Space),,,,,,,,---- -- ----- -- ------ - ------- --- ----------<br>------------- ------ ------ ---- ---- ------- ----- -- ----<br>-------- ------- -- ---------- --- - --- ----- ----- ----<br>---- --- --- ----- --- ---- ---- ------- ----- ---- whether<br>--- --- -- ----- -- --- ---- -- --- ---- -- ------ ------<br>--- ----- -- ----,275453.354999976,275446.3049999904,275011.634,275020.4450000019,275028.3,275461.616,,38,whether
screen,html.Screen,2_1_0_1_39,2021-04-27T08:45:08.512Z,,,,,,,,,,,,,,,,,53,,,,,,,,,,,,,,396.7739999794285,,response,,,,99,,,,,,,Space,keypress(Space),,,,,,,,---- -- ----- -- ------ - ------- --- ----------<br>------------- ------ ------ ---- ---- ------- ----- -- ----<br>-------- ------- -- ---------- --- - --- ----- ----- ----<br>---- --- --- ----- --- ---- ---- ------- ----- ---- -------<br>you --- -- ----- -- --- ---- -- --- ---- -- ------ ------<br>--- ----- -- ----,275865.0899999775,275858.3899999794,275444.95,275453.5049999831,275461.616,275878.266,,39,you
screen,html.Screen,2_1_0_1_40,2021-04-27T08:45:08.870Z,,,,,,,,,,,,,,,,,53,,,,,,,,,,,,,,339.0890000006766,,response,,,,99,,,,,,,Space,keypress(Space),,,,,,,,---- -- ----- -- ------ - ------- --- ----------<br>------------- ------ ------ ---- ---- ------- ----- -- ----<br>-------- ------- -- ---------- --- - --- ----- ----- ----<br>---- --- --- ----- --- ---- ---- ------- ----- ---- -------<br>--- are -- ----- -- --- ---- -- --- ---- -- ------ ------<br>--- ----- -- ----,276223.99499997846,276217.3550000007,275861.6,275865.289999987,275878.266,276235.56,,40,are
screen,html.Screen,2_1_0_1_41,2021-04-27T08:45:09.306Z,,,,,,,,,,,,,,,,,53,,,,,,,,,,,,,,416.744999995979,,response,,,,99,,,,,,,Space,keypress(Space),,,,,,,,---- -- ----- -- ------ - ------- --- ----------<br>------------- ------ ------ ---- ---- ------- ----- -- ----<br>-------- ------- -- ---------- --- - --- ----- ----- ----<br>---- --- --- ----- --- ---- ---- ------- ----- ---- -------<br>--- --- as ----- -- --- ---- -- --- ---- -- ------ ------<br>--- ----- -- ----,276659.1349999944,276652.304999996,276218.894,276224.13499999675,276235.56,276668.876,,41,as
screen,html.Screen,2_1_0_1_42,2021-04-27T08:45:09.714Z,,,,,,,,,,,,,,,,,53,,,,,,,,,,,,,,392.3339999853051,,response,,,,99,,,,,,,Space,keypress(Space),,,,,,,,---- -- ----- -- ------ - ------- --- ----------<br>------------- ------ ------ ---- ---- ------- ----- -- ----<br>-------- ------- -- ---------- --- - --- ----- ----- ----<br>---- --- --- ----- --- ---- ---- ------- ----- ---- -------<br>--- --- -- close -- --- ---- -- --- ---- -- ------ ------<br>--- ----- -- ----,277067.89999999455,277061.2099999853,276652.21,276659.2799999926,276668.876,277068.86,,42,close
screen,html.Screen,2_1_0_1_43,2021-04-27T08:45:10.120Z,,,,,,,,,,,,,,,,,53,,,,,,,,,,,,,,398.6399999988498,,response,,,,99,,,,,,,Space,keypress(Space),,,,,,,,---- -- ----- -- ------ - ------- --- ----------<br>------------- ------ ------ ---- ---- ------- ----- -- ----<br>-------- ------- -- ---------- --- - --- ----- ----- ----<br>---- --- --- ----- --- ---- ---- ------- ----- ---- -------<br>--- --- -- ----- as --- ---- -- --- ---- -- ------ ------<br>--- ----- -- ----,277473.59499998856,277467.49999999884,277052.194,277068.0449999927,277068.86,277485.51,,43,as
screen,html.Screen,2_1_0_1_44,2021-04-27T08:45:10.494Z,,,,,,,,,,,,,,,,,53,,,,,,,,,,,,,,354.9849999821745,,response,,,,99,,,,,,,Space,keypress(Space),,,,,,,,---- -- ----- -- ------ - ------- --- ----------<br>------------- ------ ------ ---- ---- ------- ----- -- ----<br>-------- ------- -- ---------- --- - --- ----- ----- ----<br>---- --- --- ----- --- ---- ---- ------- ----- ---- -------<br>--- --- -- ----- -- you ---- -- --- ---- -- ------ ------<br>--- ----- -- ----,277847.2699999984,277840.4949999822,277468.844,277473.7449999957,277485.51,277852.162,,44,you
screen,html.Screen,2_1_0_1_45,2021-04-27T08:45:10.854Z,,,,,,,,,,,,,,,,,53,,,,,,,,,,,,,,349.1630000018049,,response,,,,99,,,,,,,Space,keypress(Space),,,,,,,,---- -- ----- -- ------ - ------- --- ----------<br>------------- ------ ------ ---- ---- ------- ----- -- ----<br>-------- ------- -- ---------- --- - --- ----- ----- ----<br>---- --- --- ----- --- ---- ---- ------- ----- ---- -------<br>--- --- -- ----- -- --- want -- --- ---- -- ------ ------<br>--- ----- -- ----,278207.2899999912,278201.3250000018,277835.496,277849.07499997644,277852.162,278218.814,,45,want
screen,html.Screen,2_1_0_1_46,2021-04-27T08:45:11.226Z,,,,,,,,,,,,,,,,,53,,,,,,,,,,,,,,354.34599999990314,,response,,,,99,,,,,,,Space,keypress(Space),,,,,,,,---- -- ----- -- ------ - ------- --- ----------<br>------------- ------ ------ ---- ---- ------- ----- -- ----<br>-------- ------- -- ---------- --- - --- ----- ----- ----<br>---- --- --- ----- --- ---- ---- ------- ----- ---- -------<br>--- --- -- ----- -- --- ---- to --- ---- -- ------ ------<br>--- ----- -- ----,278580.02500000293,278573.1599999999,278202.148,278207.4449999782,278218.814,278585.466,,46,to
screen,html.Screen,2_1_0_1_47,2021-04-27T08:45:11.570Z,,,,,,,,,,,,,,,,,53,,,,,,,,,,,,,,331.7139999894425,,response,,,,99,,,,,,,Space,keypress(Space),,,,,,,,"---- -- ----- -- ------ - ------- --- ----------<br>------------- ------ ------ ---- ---- ------- ----- -- ----<br>-------- ------- -- ---------- --- - --- ----- ----- ----<br>---- --- --- ----- --- ---- ---- ------- ----- ---- -------<br>--- --- -- ----- -- --- ---- -- be, ---- -- ------ ------<br>--- ----- -- ----",278924.0849999769,278917.17999998946,278568.8,278580.20499997656,278585.466,278935.452,,47,"be,"
screen,html.Screen,2_1_0_1_48,2021-04-27T08:45:11.983Z,,,,,,,,,,,,,,,,,53,,,,,,,,,,,,,,394.37299999344395,,response,,,,99,,,,,,,Space,keypress(Space),,,,,,,,---- -- ----- -- ------ - ------- --- ----------<br>------------- ------ ------ ---- ---- ------- ----- -- ----<br>-------- ------- -- ---------- --- - --- ----- ----- ----<br>---- --- --- ----- --- ---- ---- ------- ----- ---- -------<br>--- --- -- ----- -- --- ---- -- --- even -- ------ ------<br>--- ----- -- ----,279336.77999998326,279329.82499999343,278918.786,278924.2249999952,278935.452,279352.102,,48,even
screen,html.Screen,2_1_0_1_49,2021-04-27T08:45:12.350Z,,,,,,,,,,,,,,,,,53,,,,,,,,,,,,,,346.0129999773926,,response,,,,99,,,,,,,Space,keypress(Space),,,,,,,,---- -- ----- -- ------ - ------- --- ----------<br>------------- ------ ------ ---- ---- ------- ----- -- ----<br>-------- ------- -- ---------- --- - --- ----- ----- ----<br>---- --- --- ----- --- ---- ---- ------- ----- ---- -------<br>--- --- -- ----- -- --- ---- -- --- ---- if ------ ------<br>--- ----- -- ----,279704.1399999871,279698.1149999774,279335.436,279336.9299999904,279352.102,279718.754,,49,if
screen,html.Screen,2_1_0_1_50,2021-04-27T08:45:12.709Z,,,,,,,,,,,,,,,,,53,,,,,,,,,,,,,,337.66099999909056,,response,,,,99,,,,,,,Space,keypress(Space),,,,,,,,---- -- ----- -- ------ - ------- --- ----------<br>------------- ------ ------ ---- ---- ------- ----- -- ----<br>-------- ------- -- ---------- --- - --- ----- ----- ----<br>---- --- --- ----- --- ---- ---- ------- ----- ---- -------<br>--- --- -- ----- -- --- ---- -- --- ---- -- that's ------<br>--- ----- -- ----,280062.48999998206,280056.4149999991,279702.088,279704.2799999763,279718.754,280068.74,,50,that's
screen,html.Screen,2_1_0_1_51,2021-04-27T08:45:13.091Z,,,,,,,,,,,,,,,,,53,,,,,,,,,,,,,,369.33999999263324,,response,,,,99,,,,,,,Space,keypress(Space),,,,,,,,---- -- ----- -- ------ - ------- --- ----------<br>------------- ------ ------ ---- ---- ------- ----- -- ----<br>-------- ------- -- ---------- --- - --- ----- ----- ----<br>---- --- --- ----- --- ---- ---- ------- ----- ---- -------<br>--- --- -- ----- -- --- ---- -- --- ---- -- ------ really<br>--- ----- -- ----,280444.3949999986,280438.0799999926,280052.074,280062.6249999914,280068.74,280452.058,,51,really
screen,html.Screen,2_1_0_1_52,2021-04-27T08:45:13.449Z,,,,,,,,,,,,,,,,,53,,,,,,,,,,,,,,344.33199997403426,,response,,,,99,,,,,,,Space,keypress(Space),,,,,,,,---- -- ----- -- ------ - ------- --- ----------<br>------------- ------ ------ ---- ---- ------- ----- -- ----<br>-------- ------- -- ---------- --- - --- ----- ----- ----<br>---- --- --- ----- --- ---- ---- ------- ----- ---- -------<br>--- --- -- ----- -- --- ---- -- --- ---- -- ------ ------<br>not ----- -- ----,280803.184999997,280796.38999997405,280435.392,280444.52999997884,280452.058,280818.71,,52,not
screen,html.Screen,2_1_0_1_53,2021-04-27T08:45:13.799Z,,,,,,,,,,,,,,,,,53,,,,,,,,,,,,,,327.4000000014785,,response,,,,99,,,,,,,Space,keypress(Space),,,,,,,,---- -- ----- -- ------ - ------- --- ----------<br>------------- ------ ------ ---- ---- ------- ----- -- ----<br>-------- ------- -- ---------- --- - --- ----- ----- ----<br>---- --- --- ----- --- ---- ---- ------- ----- ---- -------<br>--- --- -- ----- -- --- ---- -- --- ---- -- ------ ------<br>--- close -- ----,281152.7599999972,281146.1100000015,280802.044,280803.3249999862,280818.71,281168.696,,53,close
screen,html.Screen,2_1_0_1_54,2021-04-27T08:45:14.130Z,,,,,,,,,,,,,,,,,53,,,,,,,,,,,,,,308.62899998528883,,response,,,,99,,,,,,,Space,keypress(Space),,,,,,,,---- -- ----- -- ------ - ------- --- ----------<br>------------- ------ ------ ---- ---- ------- ----- -- ----<br>-------- ------- -- ---------- --- - --- ----- ----- ----<br>---- --- --- ----- --- ---- ---- ------- ----- ---- -------<br>--- --- -- ----- -- --- ---- -- --- ---- -- ------ ------<br>--- ----- at ----,281483.96499999217,281477.3249999853,281152.03,281152.90999997524,281168.696,281485.35,,54,at
screen,html.Screen,2_1_0_1_55,2021-04-27T08:45:14.512Z,,,,,,,,,,,,,,,,,53,,,,,,,,,,,,,,373.9799999775132,,response,,,,99,,,,,,,Space,keypress(Space),,,,,,,,---- -- ----- -- ------ - ------- --- ----------<br>------------- ------ ------ ---- ---- ------- ----- -- ----<br>-------- ------- -- ---------- --- - --- ----- ----- ----<br>---- --- --- ----- --- ---- ---- ------- ----- ---- -------<br>--- --- -- ----- -- --- ---- -- --- ---- -- ------ ------<br>--- ----- -- all.,281865.34499999834,281859.3299999775,281468.684,281484.1099999903,281485.35,281868.668,,55,all.
Item 99,flow.Loop,2_1_0_1,2021-04-27T08:45:14.512Z,,,,,,,,,,,,,,,,,,,,,,,,,,,,,,,26983.22499997748,,completion,,,,,F,,,,,,,,,,,silence,,,,,281865.6149999879,281859.3299999775,254859.439,254862.23999998765,254876.105,281868.668,,,
Question 1,html.Screen,2_1_0_2,2021-04-27T08:45:22.408Z,,,,,,,,,,,,,,,,,,,,,,,,,,,,true,FALSE,,7890.381999993289,,response,,,,99,F,,,,,,FALSE,click #choice-2,,,,silence,,,,,289762.3650000023,289759.0499999933,281852.002,281865.8249999862,281868.668,289771.252,,,
Question 2,html.Screen,2_1_0_3,2021-04-27T08:45:27.920Z,,,,,,,,,,,,,,,,,,,,,,,,,,,,true,TRUE,,5500.1379999798955,,response,,,,99,F,,,,,,TRUE,click #choice-1,,,,silence,,,,,295274.6849999821,295271.3899999799,289754.586,289762.5649999827,289771.252,295287.698,,,
Item 99,flow.Sequence,2_1_0,2021-04-27T08:45:27.921Z,,,,,,,,,,,,,,,,,,,,,,,,,,,,,,,50396.58499997988,,completion,,,,,,,,,,,,,,,,,,,,,295274.9699999986,295271.3899999799,244858.139,244876.17499998305,244874.805,295287.698,,,
Holding screen,html.Screen,2_1_1_0,2021-04-27T08:45:37.911Z,,,,,,,,,,,,,,,,,,,,,,,,,,,,,,,9992.823000000033,,timeout,,,,,,,,,,,,,,,,,,,,,305266.18499998585,305263.855,295271.032,295275.1500000013,295287.698,305280.521,,,
screen,html.Screen,2_1_1_1_0,2021-04-27T08:45:38.794Z,,,,,,,,,,,,,,,,,54,,,,,,,,,,,,,,860.98899998673,,response,,,,100,,,,,,,Space,keypress(Space),,,,,,,,At --- ---- --- ------ ----- ------- ---- -- --- ------- --<br>------- ---------- ------ -- ----- -- ----- -- ---- ------<br>--- ----- --- --- ------ -------- ----- --- ------ ----- --<br>----- ----- ---------- --- --- ------ ------ ---- -- ------<br>------- --- ------ ----- --- ---- ------- -- ---- --- --<br>------- ------,306148.9949999959,306141.50999998674,305263.855,305266.42999998876,305280.521,306163.819,,0,At
screen,html.Screen,2_1_1_1_1,2021-04-27T08:45:39.282Z,,,,,,,,,,,,,,,,,54,,,,,,,,,,,,,,466.15099997993093,,response,,,,100,,,,,,,Space,keypress(Space),,,,,,,,-- the ---- --- ------ ----- ------- ---- -- --- ------- --<br>------- ---------- ------ -- ----- -- ----- -- ---- ------<br>--- ----- --- --- ------ -------- ----- --- ------ ----- --<br>----- ----- ---------- --- --- ------ ------ ---- -- ------<br>------- --- ------ ----- --- ---- ------- -- ---- --- --<br>------- ------,306636.9049999921,306629.96999997995,306147.153,306149.1099999985,306163.819,306647.133,,1,the
screen,html.Screen,2_1_1_1_2,2021-04-27T08:45:40.009Z,,,,,,,,,,,,,,,,,54,,,,,,,,,,,,,,709.5719999838038,,response,,,,100,,,,,,,Space,keypress(Space),,,,,,,,-- --- time --- ------ ----- ------- ---- -- --- ------- --<br>------- ---------- ------ -- ----- -- ----- -- ---- ------<br>--- ----- --- --- ------ -------- ----- --- ------ ----- --<br>----- ----- ---------- --- --- ------ ------ ---- -- ------<br>------- --- ------ ----- --- ---- ------- -- ---- --- --<br>------- ------,307363.58999999356,307356.7049999838,306630.467,306637.0449999813,306647.133,307380.437,,2,time
screen,html.Screen,2_1_1_1_3,2021-04-27T08:45:40.476Z,,,,,,,,,,,,,,,,,54,,,,,,,,,,,,,,443.52799998869887,,response,,,,100,,,,,,,Space,keypress(Space),,,,,,,,-- --- ---- the ------ ----- ------- ---- -- --- ------- --<br>------- ---------- ------ -- ----- -- ----- -- ---- ------<br>--- ----- --- --- ------ -------- ----- --- ------ ----- --<br>----- ----- ---------- --- --- ------ ------ ---- -- ------<br>------- --- ------ ----- --- ---- ------- -- ---- --- --<br>------- ------,307830.58999999776,307823.9649999887,307363.771,307363.72999998275,307380.437,307847.792,,3,the
screen,html.Screen,2_1_1_1_4,2021-04-27T08:45:40.970Z,,,,,,,,,,,,,,,,,54,,,,,,,,,,,,,,471.4029999891063,,response,,,,100,,,,,,,Space,keypress(Space),,,,,,,,-- --- ---- --- French ----- ------- ---- -- --- ------- --<br>------- ---------- ------ -- ----- -- ----- -- ---- ------<br>--- ----- --- --- ------ -------- ----- --- ------ ----- --<br>----- ----- ---------- --- --- ------ ------ ---- -- ------<br>------- --- ------ ----- --- ---- ------- -- ---- --- --<br>------- ------,308325.3149999946,308319.1949999891,307831.126,307830.724999978,307847.792,308331.106,,4,French
screen,html.Screen,2_1_1_1_5,2021-04-27T08:45:41.321Z,,,,,,,,,,,,,,,,,54,,,,,,,,,,,,,,338.66399997856934,,response,,,,100,,,,,,,Space,keypress(Space),,,,,,,,-- --- ---- --- ------ crown ------- ---- -- --- ------- --<br>------- ---------- ------ -- ----- -- ----- -- ---- ------<br>--- ----- --- --- ------ -------- ----- --- ------ ----- --<br>----- ----- ---------- --- --- ------ ------ ---- -- ------<br>------- --- ------ ----- --- ---- ------- -- ---- --- --<br>------- ------,308676.0399999912,308669.7699999786,308314.44,308325.45999999274,308331.106,308681.092,,5,crown
screen,html.Screen,2_1_1_1_6,2021-04-27T08:45:41.779Z,,,,,,,,,,,,,,,,,54,,,,,,,,,,,,,,446.9279999746359,,response,,,,100,,,,,,,Space,keypress(Space),,,,,,,,-- --- ---- --- ------ ----- secured ---- -- --- ------- --<br>------- ---------- ------ -- ----- -- ----- -- ---- ------<br>--- ----- --- --- ------ -------- ----- --- ------ ----- --<br>----- ----- ---------- --- --- ------ ------ ---- -- ------<br>------- --- ------ ----- --- ---- ------- -- ---- --- --<br>------- ------,309134.07000000007,309128.01999997464,308664.426,308676.15499999374,308681.092,309147.74,,6,secured
screen,html.Screen,2_1_1_1_7,2021-04-27T08:45:42.231Z,,,,,,,,,,,,,,,,,54,,,,,,,,,,,,,,431.1949999977369,,response,,,,100,,,,,,,Space,keypress(Space),,,,,,,,-- --- ---- --- ------ ----- ------- much -- --- ------- --<br>------- ---------- ------ -- ----- -- ----- -- ---- ------<br>--- ----- --- --- ------ -------- ----- --- ------ ----- --<br>----- ----- ---------- --- --- ------ ------ ---- -- ------<br>------- --- ------ ----- --- ---- ------- -- ---- --- --<br>------- ------,309585.58499999344,309578.9349999977,309131.074,309134.2149999982,309147.74,309597.722,,7,much
screen,html.Screen,2_1_1_1_8,2021-04-27T08:45:42.683Z,,,,,,,,,,,,,,,,,54,,,,,,,,,,,,,,433.5130000021891,,response,,,,100,,,,,,,Space,keypress(Space),,,,,,,,-- --- ---- --- ------ ----- ------- ---- of --- ------- --<br>------- ---------- ------ -- ----- -- ----- -- ---- ------<br>--- ----- --- --- ------ -------- ----- --- ------ ----- --<br>----- ----- ---------- --- --- ------ ------ ---- -- ------<br>------- --- ------ ----- --- ---- ------- -- ---- --- --<br>------- ------,310038.38499999256,310031.2350000022,309581.056,309585.72499998263,309597.722,310047.704,,8,of
screen,html.Screen,2_1_1_1_9,2021-04-27T08:45:43.068Z,,,,,,,,,,,,,,,,,54,,,,,,,,,,,,,,370.02099997748155,,response,,,,100,,,,,,,Space,keypress(Space),,,,,,,,-- --- ---- --- ------ ----- ------- ---- -- its ------- --<br>------- ---------- ------ -- ----- -- ----- -- ---- ------<br>--- ----- --- --- ------ -------- ----- --- ------ ----- --<br>----- ----- ---------- --- --- ------ ------ ---- -- ------<br>------- --- ------ ----- --- ---- ------- -- ---- --- --<br>------- ------,310423.3499999973,310417.7249999775,310031.038,310038.5299999907,310047.704,310431.022,,9,its
screen,html.Screen,2_1_1_1_10,2021-04-27T08:45:43.485Z,,,,,,,,,,,,,,,,,54,,,,,,,,,,,,,,401.8479999838164,,response,,,,100,,,,,,,Space,keypress(Space),,,,,,,,-- --- ---- --- ------ ----- ------- ---- -- --- revenue --<br>------- ---------- ------ -- ----- -- ----- -- ---- ------<br>--- ----- --- --- ------ -------- ----- --- ------ ----- --<br>----- ----- ---------- --- --- ------ ------ ---- -- ------<br>------- --- ------ ----- --- ---- ------- -- ---- --- --<br>------- ------,310839.8900000029,310832.8699999838,310414.356,310423.46499999985,310431.022,310847.672,,10,revenue
screen,html.Screen,2_1_1_1_11,2021-04-27T08:45:43.951Z,,,,,,,,,,,,,,,,,54,,,,,,,,,,,,,,451.47299999720417,,response,,,,100,,,,,,,Space,keypress(Space),,,,,,,,-- --- ---- --- ------ ----- ------- ---- -- --- ------- by<br>------- ---------- ------ -- ----- -- ----- -- ---- ------<br>--- ----- --- --- ------ -------- ----- --- ------ ----- --<br>----- ----- ---------- --- --- ------ ------ ---- -- ------<br>------- --- ------ ----- --- ---- ------- -- ---- --- --<br>------- ------,311305.99500000244,311299.1449999972,310831.006,310840.0799999945,310847.672,311314.32,,11,by
screen,html.Screen,2_1_1_1_12,2021-04-27T08:45:44.397Z,,,,,,,,,,,,,,,,,54,,,,,,,,,,,,,,432.5699999803328,,response,,,,100,,,,,,,Space,keypress(Space),,,,,,,,-- --- ---- --- ------ ----- ------- ---- -- --- ------- --<br>issuing ---------- ------ -- ----- -- ----- -- ---- ------<br>--- ----- --- --- ------ -------- ----- --- ------ ----- --<br>----- ----- ---------- --- --- ------ ------ ---- -- ------<br>------- --- ------ ----- --- ---- ------- -- ---- --- --<br>------- ------,311752.30999998166,311746.88999998034,311297.654,311306.12999998266,311314.32,311764.302,,12,issuing
screen,html.Screen,2_1_1_1_13,2021-04-27T08:45:44.861Z,,,,,,,,,,,,,,,,,54,,,,,,,,,,,,,,445.5329999868991,,response,,,,100,,,,,,,Space,keypress(Space),,,,,,,,-- --- ---- --- ------ ----- ------- ---- -- --- ------- --<br>------- government ------ -- ----- -- ----- -- ---- ------<br>--- ----- --- --- ------ -------- ----- --- ------ ----- --<br>----- ----- ---------- --- --- ------ ------ ---- -- ------<br>------- --- ------ ----- --- ---- ------- -- ---- --- --<br>------- ------,312216.2299999909,312209.8349999869,311747.636,311752.41999997525,311764.302,312230.95,,13,government
screen,html.Screen,2_1_1_1_14,2021-04-27T08:45:45.291Z,,,,,,,,,,,,,,,,,54,,,,,,,,,,,,,,407.70999999687774,,response,,,,100,,,,,,,Space,keypress(Space),,,,,,,,-- --- ---- --- ------ ----- ------- ---- -- --- ------- --<br>------- ---------- bonds. -- ----- -- ----- -- ---- ------<br>--- ----- --- --- ------ -------- ----- --- ------ ----- --<br>----- ----- ---------- --- --- ------ ------ ---- -- ------<br>------- --- ------ ----- --- ---- ------- -- ---- --- --<br>------- ------,312645.73499999824,312638.6599999969,312214.284,312216.3699999801,312230.95,312647.6,,14,bonds.
screen,html.Screen,2_1_1_1_15,2021-04-27T08:45:46.232Z,,,,,,,,,,,,,,,,,54,,,,,,,,,,,,,,932.3449999758741,,response,,,,100,,,,,,,Space,keypress(Space),,,,,,,,-- --- ---- --- ------ ----- ------- ---- -- --- ------- --<br>------- ---------- ------ In ----- -- ----- -- ---- ------<br>--- ----- --- --- ------ -------- ----- --- ------ ----- --<br>----- ----- ---------- --- --- ------ ------ ---- -- ------<br>------- --- ------ ----- --- ---- ------- -- ---- --- --<br>------- ------,313586.6799999785,313579.94499997585,312630.934,312645.8749999874,312647.6,313597.562,,15,In
screen,html.Screen,2_1_1_1_16,2021-04-27T08:45:46.687Z,,,,,,,,,,,,,,,,,54,,,,,,,,,,,,,,438.1979999988689,,response,,,,100,,,,,,,Space,keypress(Space),,,,,,,,"-- --- ---- --- ------ ----- ------- ---- -- --- ------- --<br>------- ---------- ------ -- 1727, -- ----- -- ---- ------<br>--- ----- --- --- ------ -------- ----- --- ------ ----- --<br>----- ----- ---------- --- --- ------ ------ ---- -- ------<br>------- --- ------ ----- --- ---- ------- -- ---- --- --<br>------- ------",314042.1899999783,314035.75999999885,313580.896,313586.80999997887,313597.562,314047.544,,16,"1727,"
screen,html.Screen,2_1_1_1_17,2021-04-27T08:45:47.474Z,,,,,,,,,,,,,,,,,54,,,,,,,,,,,,,,775.2659999832977,,response,,,,100,,,,,,,Space,keypress(Space),,,,,,,,-- --- ---- --- ------ ----- ------- ---- -- --- ------- --<br>------- ---------- ------ -- ----- in ----- -- ---- ------<br>--- ----- --- --- ------ -------- ----- --- ------ ----- --<br>----- ----- ---------- --- --- ------ ------ ---- -- ------<br>------- --- ------ ----- --- ---- ------- -- ---- --- --<br>------- ------,314828.9249999798,314822.8099999833,314030.878,314042.3549999832,314047.544,314830.846,,17,in
screen,html.Screen,2_1_1_1_18,2021-04-27T08:45:47.991Z,,,,,,,,,,,,,,,,,54,,,,,,,,,,,,,,510.74399999633897,,response,,,,100,,,,,,,Space,keypress(Space),,,,,,,,-- --- ---- --- ------ ----- ------- ---- -- --- ------- --<br>------- ---------- ------ -- ----- -- order -- ---- ------<br>--- ----- --- --- ------ -------- ----- --- ------ ----- --<br>----- ----- ---------- --- --- ------ ------ ---- -- ------<br>------- --- ------ ----- --- ---- ------- -- ---- --- --<br>------- ------,315345.84499997436,315341.58999999636,314814.18,314829.0599999891,314830.846,315347.492,,18,order
screen,html.Screen,2_1_1_1_19,2021-04-27T08:45:48.450Z,,,,,,,,,,,,,,,,,54,,,,,,,,,,,,,,453.9329999832553,,response,,,,100,,,,,,,Space,keypress(Space),,,,,,,,-- --- ---- --- ------ ----- ------- ---- -- --- ------- --<br>------- ---------- ------ -- ----- -- ----- to ---- ------<br>--- ----- --- --- ------ -------- ----- --- ------ ----- --<br>----- ----- ---------- --- --- ------ ------ ---- -- ------<br>------- --- ------ ----- --- ---- ------- -- ---- --- --<br>------- ------,315805.08499999996,315801.4249999833,315330.826,315345.90999997454,315347.492,315814.14,,19,to
screen,html.Screen,2_1_1_1_20,2021-04-27T08:45:48.831Z,,,,,,,,,,,,,,,,,54,,,,,,,,,,,,,,364.8199999901699,,response,,,,100,,,,,,,Space,keypress(Space),,,,,,,,-- --- ---- --- ------ ----- ------- ---- -- --- ------- --<br>------- ---------- ------ -- ----- -- ----- -- save ------<br>--- ----- --- --- ------ -------- ----- --- ------ ----- --<br>----- ----- ---------- --- --- ------ ------ ---- -- ------<br>------- --- ------ ----- --- ---- ------- -- ---- --- --<br>------- ------,316185.8099999954,316178.9599999902,315797.474,315805.20999999135,315814.14,316197.458,,20,save
screen,html.Screen,2_1_1_1_21,2021-04-27T08:45:49.635Z,,,,,,,,,,,,,,,,,54,,,,,,,,,,,,,,785.5269999805605,,response,,,,100,,,,,,,Space,keypress(Space),,,,,,,,"-- --- ---- --- ------ ----- ------- ---- -- --- ------- --<br>------- ---------- ------ -- ----- -- ----- -- ---- money,<br>--- ----- --- --- ------ -------- ----- --- ------ ----- --<br>----- ----- ---------- --- --- ------ ------ ---- -- ------<br>------- --- ------ ----- --- ---- ------- -- ---- --- --<br>------- ------",316990.0099999795,316982.98499998054,316180.792,316185.9449999756,316197.458,316997.426,,21,"money,"
screen,html.Screen,2_1_1_1_22,2021-04-27T08:45:50.140Z,,,,,,,,,,,,,,,,,54,,,,,,,,,,,,,,491.1589999846183,,response,,,,100,,,,,,,Space,keypress(Space),,,,,,,,-- --- ---- --- ------ ----- ------- ---- -- --- ------- --<br>------- ---------- ------ -- ----- -- ----- -- ---- ------<br>the ----- --- --- ------ -------- ----- --- ------ ----- --<br>----- ----- ---------- --- --- ------ ------ ---- -- ------<br>------- --- ------ ----- --- ---- ------- -- ---- --- --<br>------- ------,317495.4799999832,317488.5849999846,316980.76,316990.1499999978,316997.426,317497.406,,22,the
screen,html.Screen,2_1_1_1_23,2021-04-27T08:45:50.576Z,,,,,,,,,,,,,,,,,54,,,,,,,,,,,,,,428.15399997419445,,response,,,,100,,,,,,,Space,keypress(Space),,,,,,,,-- --- ---- --- ------ ----- ------- ---- -- --- ------- --<br>------- ---------- ------ -- ----- -- ----- -- ---- ------<br>--- state --- --- ------ -------- ----- --- ------ ----- --<br>----- ----- ---------- --- --- ------ ------ ---- -- ------<br>------- --- ------ ----- --- ---- ------- -- ---- --- --<br>------- ------,317931.49999997695,317925.5599999742,317480.74,317495.61499999254,317497.406,317946.351,,23,state
screen,html.Screen,2_1_1_1_24,2021-04-27T08:45:50.943Z,,,,,,,,,,,,,,,,,54,,,,,,,,,,,,,,346.18899999489076,,response,,,,100,,,,,,,Space,keypress(Space),,,,,,,,-- --- ---- --- ------ ----- ------- ---- -- --- ------- --<br>------- ---------- ------ -- ----- -- ----- -- ---- ------<br>--- ----- cut --- ------ -------- ----- --- ------ ----- --<br>----- ----- ---------- --- --- ------ ------ ---- -- ------<br>------- --- ------ ----- --- ---- ------- -- ---- --- --<br>------- ------,318298.4849999775,318292.5399999949,317929.685,317931.63999999524,317946.351,318313.003,,24,cut
screen,html.Screen,2_1_1_1_25,2021-04-27T08:45:51.358Z,,,,,,,,,,,,,,,,,54,,,,,,,,,,,,,,394.64699999662116,,response,,,,100,,,,,,,Space,keypress(Space),,,,,,,,-- --- ---- --- ------ ----- ------- ---- -- --- ------- --<br>------- ---------- ------ -- ----- -- ----- -- ---- ------<br>--- ----- --- the ------ -------- ----- --- ------ ----- --<br>----- ----- ---------- --- --- ------ ------ ---- -- ------<br>------- --- ------ ----- --- ---- ------- -- ---- --- --<br>------- ------,318713.54999998584,318707.64999999665,318296.337,318298.60499998904,318313.003,318729.653,,25,the
screen,html.Screen,2_1_1_1_26,2021-04-27T08:45:52.367Z,,,,,,,,,,,,,,,,,54,,,,,,,,,,,,,,985.9670000026817,,response,,,,100,,,,,,,Space,keypress(Space),,,,,,,,-- --- ---- --- ------ ----- ------- ---- -- --- ------- --<br>------- ---------- ------ -- ----- -- ----- -- ---- ------<br>--- ----- --- --- bonds' -------- ----- --- ------ ----- --<br>----- ----- ---------- --- --- ------ ------ ---- -- ------<br>------- --- ------ ----- --- ---- ------- -- ---- --- --<br>------- ------,319722.5099999923,319715.6200000027,318712.987,318713.68999997503,318729.653,319729.613,,26,bonds'
screen,html.Screen,2_1_1_1_27,2021-04-27T08:45:52.487Z,,,,,,,,,,,,,,,,,54,,,,,,,,,,,,,,105.88199997751508,,response,,,,100,,,,,,,Space,keypress(Space),,,,,,,,-- --- ---- --- ------ ----- ------- ---- -- --- ------- --<br>------- ---------- ------ -- ----- -- ----- -- ---- ------<br>--- ----- --- --- ------ interest ----- --- ------ ----- --<br>----- ----- ---------- --- --- ------ ------ ---- -- ------<br>------- --- ------ ----- --- ---- ------- -- ---- --- --<br>------- ------,319842.32999998494,319835.4949999775,319712.947,319722.64500000165,319729.613,319846.275,,27,interest
screen,html.Screen,2_1_1_1_28,2021-04-27T08:45:53.384Z,,,,,,,,,,,,,,,,,54,,,,,,,,,,,,,,886.2249999836786,,response,,,,100,,,,,,,Space,keypress(Space),,,,,,,,-- --- ---- --- ------ ----- ------- ---- -- --- ------- --<br>------- ---------- ------ -- ----- -- ----- -- ---- ------<br>--- ----- --- --- ------ -------- rate. --- ------ ----- --<br>----- ----- ---------- --- --- ------ ------ ---- -- ------<br>------- --- ------ ----- --- ---- ------- -- ---- --- --<br>------- ------,320739.23499998637,320732.4999999837,319829.609,319842.52999999444,319846.275,320746.239,,28,rate.
screen,html.Screen,2_1_1_1_29,2021-04-27T08:45:53.929Z,,,,,,,,,,,,,,,,,54,,,,,,,,,,,,,,531.4809999836725,,response,,,,100,,,,,,,Space,keypress(Space),,,,,,,,-- --- ---- --- ------ ----- ------- ---- -- --- ------- --<br>------- ---------- ------ -- ----- -- ----- -- ---- ------<br>--- ----- --- --- ------ -------- ----- The ------ ----- --<br>----- ----- ---------- --- --- ------ ------ ---- -- ------<br>------- --- ------ ----- --- ---- ------- -- ---- --- --<br>------- ------,321284.5699999889,321277.7199999837,320729.573,320739.3699999957,320746.239,321296.217,,29,The
screen,html.Screen,2_1_1_1_30,2021-04-27T08:45:54.355Z,,,,,,,,,,,,,,,,,54,,,,,,,,,,,,,,407.7229999775882,,response,,,,100,,,,,,,Space,keypress(Space),,,,,,,,-- --- ---- --- ------ ----- ------- ---- -- --- ------- --<br>------- ---------- ------ -- ----- -- ----- -- ---- ------<br>--- ----- --- --- ------ -------- ----- --- market ----- --<br>----- ----- ---------- --- --- ------ ------ ---- -- ------<br>------- --- ------ ----- --- ---- ------- -- ---- --- --<br>------- ------,321710.854999983,321703.9399999776,321279.551,321284.7099999781,321296.217,321712.867,,30,market
screen,html.Screen,2_1_1_1_31,2021-04-27T08:45:54.765Z,,,,,,,,,,,,,,,,,54,,,,,,,,,,,,,,400.5379999818397,,response,,,,100,,,,,,,Space,keypress(Space),,,,,,,,-- --- ---- --- ------ ----- ------- ---- -- --- ------- --<br>------- ---------- ------ -- ----- -- ----- -- ---- ------<br>--- ----- --- --- ------ -------- ----- --- ------ value --<br>----- ----- ---------- --- --- ------ ------ ---- -- ------<br>------- --- ------ ----- --- ---- ------- -- ---- --- --<br>------- ------,322120.76499999966,322113.40499998187,321696.201,321711.0399999947,321712.867,322129.517,,31,value
screen,html.Screen,2_1_1_1_32,2021-04-27T08:45:55.187Z,,,,,,,,,,,,,,,,,54,,,,,,,,,,,,,,405.8579999776557,,response,,,,100,,,,,,,Space,keypress(Space),,,,,,,,-- --- ---- --- ------ ----- ------- ---- -- --- ------- --<br>------- ---------- ------ -- ----- -- ----- -- ---- ------<br>--- ----- --- --- ------ -------- ----- --- ------ ----- of<br>----- ----- ---------- --- --- ------ ------ ---- -- ------<br>------- --- ------ ----- --- ---- ------- -- ---- --- --<br>------- ------,322542.1249999781,322535.37499997765,322112.851,322120.9549999912,322129.517,322546.167,,32,of
screen,html.Screen,2_1_1_1_33,2021-04-27T08:45:55.659Z,,,,,,,,,,,,,,,,,54,,,,,,,,,,,,,,461.3729999914067,,response,,,,100,,,,,,,Space,keypress(Space),,,,,,,,-- --- ---- --- ------ ----- ------- ---- -- --- ------- --<br>------- ---------- ------ -- ----- -- ----- -- ---- ------<br>--- ----- --- --- ------ -------- ----- --- ------ ----- --<br>these ----- ---------- --- --- ------ ------ ---- -- ------<br>------- --- ------ ----- --- ---- ------- -- ---- --- --<br>------- ------,323014.3349999853,323007.5399999914,322529.501,322542.3149999988,322546.167,323029.481,,33,these
screen,html.Screen,2_1_1_1_34,2021-04-27T08:45:56.196Z,,,,,,,,,,,,,,,,,54,,,,,,,,,,,,,,515.148999989382,,response,,,,100,,,,,,,Space,keypress(Space),,,,,,,,-- --- ---- --- ------ ----- ------- ---- -- --- ------- --<br>------- ---------- ------ -- ----- -- ----- -- ---- ------<br>--- ----- --- --- ------ -------- ----- --- ------ ----- --<br>----- bonds ---------- --- --- ------ ------ ---- -- ------<br>------- --- ------ ----- --- ---- ------- -- ---- --- --<br>------- ------,323551.53499997687,323544.6299999894,323012.815,323014.519999997,323029.481,323562.793,,34,bonds
screen,html.Screen,2_1_1_1_35,2021-04-27T08:45:57.414Z,,,,,,,,,,,,,,,,,54,,,,,,,,,,,,,,1199.6069999777828,,response,,,,100,,,,,,,Space,keypress(Space),,,,,,,,"-- --- ---- --- ------ ----- ------- ---- -- --- ------- --<br>------- ---------- ------ -- ----- -- ----- -- ---- ------<br>--- ----- --- --- ------ -------- ----- --- ------ ----- --<br>----- ----- plummeted, --- --- ------ ------ ---- -- ------<br>------- --- ------ ----- --- ---- ------- -- ---- --- --<br>------- ------",324769.50499997474,324762.3999999778,323546.127,323551.67499999516,323562.793,324779.411,,35,"plummeted,"
screen,html.Screen,2_1_1_1_36,2021-04-27T08:45:57.958Z,,,,,,,,,,,,,,,,,54,,,,,,,,,,,,,,527.8389999834471,,response,,,,100,,,,,,,Space,keypress(Space),,,,,,,,-- --- ---- --- ------ ----- ------- ---- -- --- ------- --<br>------- ---------- ------ -- ----- -- ----- -- ---- ------<br>--- ----- --- --- ------ -------- ----- --- ------ ----- --<br>----- ----- ---------- and --- ------ ------ ---- -- ------<br>------- --- ------ ----- --- ---- ------- -- ---- --- --<br>------- ------,325313.2249999908,325307.24999998347,324762.745,324769.63999998407,324779.411,325329.389,,36,and
screen,html.Screen,2_1_1_1_37,2021-04-27T08:45:58.359Z,,,,,,,,,,,,,,,,,54,,,,,,,,,,,,,,379.2159999925061,,response,,,,100,,,,,,,Space,keypress(Space),,,,,,,,-- --- ---- --- ------ ----- ------- ---- -- --- ------- --<br>------- ---------- ------ -- ----- -- ----- -- ---- ------<br>--- ----- --- --- ------ -------- ----- --- ------ ----- --<br>----- ----- ---------- --- the ------ ------ ---- -- ------<br>------- --- ------ ----- --- ---- ------- -- ---- --- --<br>------- ------,325714.5699999819,325708.60499999253,325312.723,325313.36499997997,325329.389,325729.373,,37,the
screen,html.Screen,2_1_1_1_38,2021-04-27T08:45:58.869Z,,,,,,,,,,,,,,,,,54,,,,,,,,,,,,,,487.9319999982836,,response,,,,100,,,,,,,Space,keypress(Space),,,,,,,,-- --- ---- --- ------ ----- ------- ---- -- --- ------- --<br>------- ---------- ------ -- ----- -- ----- -- ---- ------<br>--- ----- --- --- ------ -------- ----- --- ------ ----- --<br>----- ----- ---------- --- --- market ------ ---- -- ------<br>------- --- ------ ----- --- ---- ------- -- ---- --- --<br>------- ------,326224.88499997417,326217.3049999983,325712.707,325714.7100000002,325729.373,326229.353,,38,market
screen,html.Screen,2_1_1_1_39,2021-04-27T08:45:59.430Z,,,,,,,,,,,,,,,,,54,,,,,,,,,,,,,,549.8419999809703,,response,,,,100,,,,,,,Space,keypress(Space),,,,,,,,-- --- ---- --- ------ ----- ------- ---- -- --- ------- --<br>------- ---------- ------ -- ----- -- ----- -- ---- ------<br>--- ----- --- --- ------ -------- ----- --- ------ ----- --<br>----- ----- ---------- --- --- ------ became ---- -- ------<br>------- --- ------ ----- --- ---- ------- -- ---- --- --<br>------- ------,326785.46499999356,326779.194999981,326212.687,326225.1099999994,326229.353,326795.997,,39,became
screen,html.Screen,2_1_1_1_40,2021-04-27T08:45:59.881Z,,,,,,,,,,,,,,,,,54,,,,,,,,,,,,,,434.22799997753464,,response,,,,100,,,,,,,Space,keypress(Space),,,,,,,,-- --- ---- --- ------ ----- ------- ---- -- --- ------- --<br>------- ---------- ------ -- ----- -- ----- -- ---- ------<br>--- ----- --- --- ------ -------- ----- --- ------ ----- --<br>----- ----- ---------- --- --- ------ ------ wary -- ------<br>------- --- ------ ----- --- ---- ------- -- ---- --- --<br>------- ------,327236.7549999908,327230.2249999775,326779.331,326785.60499998275,326795.997,327245.979,,40,wary
screen,html.Screen,2_1_1_1_41,2021-04-27T08:46:00.418Z,,,,,,,,,,,,,,,,,54,,,,,,,,,,,,,,520.5859999980894,,response,,,,100,,,,,,,Space,keypress(Space),,,,,,,,-- --- ---- --- ------ ----- ------- ---- -- --- ------- --<br>------- ---------- ------ -- ----- -- ----- -- ---- ------<br>--- ----- --- --- ------ -------- ----- --- ------ ----- --<br>----- ----- ---------- --- --- ------ ------ ---- of ------<br>------- --- ------ ----- --- ---- ------- -- ---- --- --<br>------- ------,327773.3999999764,327766.5649999981,327229.313,327236.89999998896,327245.979,327779.291,,41,of
screen,html.Screen,2_1_1_1_42,2021-04-27T08:46:00.830Z,,,,,,,,,,,,,,,,,54,,,,,,,,,,,,,,399.9439999886672,,response,,,,100,,,,,,,Space,keypress(Space),,,,,,,,-- --- ---- --- ------ ----- ------- ---- -- --- ------- --<br>------- ---------- ------ -- ----- -- ----- -- ---- ------<br>--- ----- --- --- ------ -------- ----- --- ------ ----- --<br>----- ----- ---------- --- --- ------ ------ ---- -- French<br>------- --- ------ ----- --- ---- ------- -- ---- --- --<br>------- ------,328185.91499998,328179.2349999887,327762.625,327773.5799999791,327779.291,328188.024,,42,French
screen,html.Screen,2_1_1_1_43,2021-04-27T08:46:02.474Z,,,,,,,,,,,,,,,,,54,,,,,,,,,,,,,,1635.0109999794513,,response,,,,100,,,,,,,Space,keypress(Space),,,,,,,,-- --- ---- --- ------ ----- ------- ---- -- --- ------- --<br>------- ---------- ------ -- ----- -- ----- -- ---- ------<br>--- ----- --- --- ------ -------- ----- --- ------ ----- --<br>----- ----- ---------- --- --- ------ ------ ---- -- ------<br>credit. --- ------ ----- --- ---- ------- -- ---- --- --<br>------- ------,329829.91499998025,329823.0349999794,328171.358,328186.0549999983,328188.024,329837.958,,43,credit.
screen,html.Screen,2_1_1_1_44,2021-04-27T08:46:03.086Z,,,,,,,,,,,,,,,,,54,,,,,,,,,,,,,,597.2019999936456,,response,,,,100,,,,,,,Space,keypress(Space),,,,,,,,-- --- ---- --- ------ ----- ------- ---- -- --- ------- --<br>------- ---------- ------ -- ----- -- ----- -- ---- ------<br>--- ----- --- --- ------ -------- ----- --- ------ ----- --<br>----- ----- ---------- --- --- ------ ------ ---- -- ------<br>------- The ------ ----- --- ---- ------- -- ---- --- --<br>------- ------,330441.42499999725,330435.15999999363,329821.292,329830.0799999852,329837.958,330454.6,,44,The
screen,html.Screen,2_1_1_1_45,2021-04-27T08:46:03.608Z,,,,,,,,,,,,,,,,,54,,,,,,,,,,,,,,502.51499999745283,,response,,,,100,,,,,,,Space,keypress(Space),,,,,,,,-- --- ---- --- ------ ----- ------- ---- -- --- ------- --<br>------- ---------- ------ -- ----- -- ----- -- ---- ------<br>--- ----- --- --- ------ -------- ----- --- ------ ----- --<br>----- ----- ---------- --- --- ------ ------ ---- -- ------<br>------- --- French ----- --- ---- ------- -- ---- --- --<br>------- ------,330963.9249999891,330957.11499999743,330437.934,330441.56499998644,330454.6,330971.246,,45,French
screen,html.Screen,2_1_1_1_46,2021-04-27T08:46:04.069Z,,,,,,,,,,,,,,,,,54,,,,,,,,,,,,,,446.6789999870234,,response,,,,100,,,,,,,Space,keypress(Space),,,,,,,,-- --- ---- --- ------ ----- ------- ---- -- --- ------- --<br>------- ---------- ------ -- ----- -- ----- -- ---- ------<br>--- ----- --- --- ------ -------- ----- --- ------ ----- --<br>----- ----- ---------- --- --- ------ ------ ---- -- ------<br>------- --- ------ state --- ---- ------- -- ---- --- --<br>------- ------,331424.33999999776,331417.924999987,330954.58,330964.0599999984,330971.246,331437.894,,46,state
screen,html.Screen,2_1_1_1_47,2021-04-27T08:46:04.539Z,,,,,,,,,,,,,,,,,54,,,,,,,,,,,,,,450.1659999975236,,response,,,,100,,,,,,,Space,keypress(Space),,,,,,,,-- --- ---- --- ------ ----- ------- ---- -- --- ------- --<br>------- ---------- ------ -- ----- -- ----- -- ---- ------<br>--- ----- --- --- ------ -------- ----- --- ------ ----- --<br>----- ----- ---------- --- --- ------ ------ ---- -- ------<br>------- --- ------ ----- was ---- ------- -- ---- --- --<br>------- ------,331894.9149999826,331888.0599999975,331421.228,331424.47999998694,331437.894,331904.542,,47,was
screen,html.Screen,2_1_1_1_48,2021-04-27T08:46:05.184Z,,,,,,,,,,,,,,,,,54,,,,,,,,,,,,,,628.7879999765428,,response,,,,100,,,,,,,Space,keypress(Space),,,,,,,,-- --- ---- --- ------ ----- ------- ---- -- --- ------- --<br>------- ---------- ------ -- ----- -- ----- -- ---- ------<br>--- ----- --- --- ------ -------- ----- --- ------ ----- --<br>----- ----- ---------- --- --- ------ ------ ---- -- ------<br>------- --- ------ ----- --- left ------- -- ---- --- --<br>------- ------,332539.72499998054,332533.32999997656,331887.876,331895.0999999943,331904.542,332554.516,,48,left
screen,html.Screen,2_1_1_1_49,2021-04-27T08:46:05.604Z,,,,,,,,,,,,,,,,,54,,,,,,,,,,,,,,398.5139999751118,,response,,,,100,,,,,,,Space,keypress(Space),,,,,,,,-- --- ---- --- ------ ----- ------- ---- -- --- ------- --<br>------- ---------- ------ -- ----- -- ----- -- ---- ------<br>--- ----- --- --- ------ -------- ----- --- ------ ----- --<br>----- ----- ---------- --- --- ------ ------ ---- -- ------<br>------- --- ------ ----- --- ---- without -- ---- --- --<br>------- ------,332959.7799999756,332953.0299999751,332537.85,332539.84499999206,332554.516,332971.166,,49,without
screen,html.Screen,2_1_1_1_50,2021-04-27T08:46:05.996Z,,,,,,,,,,,,,,,,,54,,,,,,,,,,,,,,373.8039999764296,,response,,,,100,,,,,,,Space,keypress(Space),,,,,,,,-- --- ---- --- ------ ----- ------- ---- -- --- ------- --<br>------- ---------- ------ -- ----- -- ----- -- ---- ------<br>--- ----- --- --- ------ -------- ----- --- ------ ----- --<br>----- ----- ---------- --- --- ------ ------ ---- -- ------<br>------- --- ------ ----- --- ---- ------- an ---- --- --<br>------- ------,333351.75999999046,333344.96999997646,332954.5,332959.9199999939,332971.166,333354.484,,50,an
screen,html.Screen,2_1_1_1_51,2021-04-27T08:46:06.395Z,,,,,,,,,,,,,,,,,54,,,,,,,,,,,,,,389.4559999857447,,response,,,,100,,,,,,,Space,keypress(Space),,,,,,,,-- --- ---- --- ------ ----- ------- ---- -- --- ------- --<br>------- ---------- ------ -- ----- -- ----- -- ---- ------<br>--- ----- --- --- ------ -------- ----- --- ------ ----- --<br>----- ----- ---------- --- --- ------ ------ ---- -- ------<br>------- --- ------ ----- --- ---- ------- -- easy --- --<br>------- ------,333750.7649999752,333743.93999998574,333337.818,333351.8949999998,333354.484,333754.468,,51,easy
screen,html.Screen,2_1_1_1_52,2021-04-27T08:46:06.766Z,,,,,,,,,,,,,,,,,54,,,,,,,,,,,,,,360.46699999051634,,response,,,,100,,,,,,,Space,keypress(Space),,,,,,,,-- --- ---- --- ------ ----- ------- ---- -- --- ------- --<br>------- ---------- ------ -- ----- -- ----- -- ---- ------<br>--- ----- --- --- ------ -------- ----- --- ------ ----- --<br>----- ----- ---------- --- --- ------ ------ ---- -- ------<br>------- --- ------ ----- --- ---- ------- -- ---- way --<br>------- ------,334121.88999998034,334114.9349999905,333737.802,333750.9100000025,333754.468,334137.786,,52,way
screen,html.Screen,2_1_1_1_53,2021-04-27T08:46:07.352Z,,,,,,,,,,,,,,,,,54,,,,,,,,,,,,,,564.0939999786788,,response,,,,100,,,,,,,Space,keypress(Space),,,,,,,,-- --- ---- --- ------ ----- ------- ---- -- --- ------- --<br>------- ---------- ------ -- ----- -- ----- -- ---- ------<br>--- ----- --- --- ------ -------- ----- --- ------ ----- --<br>----- ----- ---------- --- --- ------ ------ ---- -- ------<br>------- --- ------ ----- --- ---- ------- -- ---- --- of<br>------- ------,334707.6749999833,334701.8799999787,334121.12,334122.02999999863,334137.786,334721.096,,53,of
screen,html.Screen,2_1_1_1_54,2021-04-27T08:46:07.961Z,,,,,,,,,,,,,,,,,54,,,,,,,,,,,,,,588.8389999974752,,response,,,,100,,,,,,,Space,keypress(Space),,,,,,,,-- --- ---- --- ------ ----- ------- ---- -- --- ------- --<br>------- ---------- ------ -- ----- -- ----- -- ---- ------<br>--- ----- --- --- ------ -------- ----- --- ------ ----- --<br>----- ----- ---------- --- --- ------ ------ ---- -- ------<br>------- --- ------ ----- --- ---- ------- -- ---- --- --<br>raising ------,335316.7249999824,335309.9349999975,334704.43,334707.78499997687,334721.096,335321.072,,54,raising
screen,html.Screen,2_1_1_1_55,2021-04-27T08:46:08.537Z,,,,,,,,,,,,,,,,,54,,,,,,,,,,,,,,565.6829999850015,,response,,,,100,,,,,,,Space,keypress(Space),,,,,,,,-- --- ---- --- ------ ----- ------- ---- -- --- ------- --<br>------- ---------- ------ -- ----- -- ----- -- ---- ------<br>--- ----- --- --- ------ -------- ----- --- ------ ----- --<br>----- ----- ---------- --- --- ------ ------ ---- -- ------<br>------- --- ------ ----- --- ---- ------- -- ---- --- --<br>------- money.,335893.10499999556,335886.754999985,335304.406,335316.8650000007,335321.072,335904.382,,55,money.
Item 100,flow.Loop,2_1_1_1,2021-04-27T08:46:08.538Z,,,,,,,,,,,,,,,,,,,,,,,,,,,,,,,30606.23399998498,,completion,,,,,F,,,,,,,,,,,silence,,,,,335893.66000000155,335886.754999985,305263.855,305266.3649999886,305280.521,335904.382,,,
Question 1,html.Screen,2_1_1_2,2021-04-27T08:46:13.448Z,,,,,,,,,,,,,,,,,,,,,,,,,,,,true,TRUE,,4896.082999978447,,response,,,,100,F,,,,,,TRUE,click #choice-1,,,,silence,,,,,340803.82499998086,340800.46499997843,335887.716,335893.7599999772,335904.382,340819.973,,,
Question 2,html.Screen,2_1_1_3,2021-04-27T08:46:17.318Z,,,,,,,,,,,,,,,,,,,,,,,,,,,,true,FALSE,,3850.681999994442,,response,,,,100,F,,,,,,FALSE,click #choice-2,,,,silence,,,,,344674.0299999947,344670.65499999444,340803.307,340804.00999999256,340819.973,344686.485,,,
Item 100,flow.Sequence,2_1_1,2021-04-27T08:46:17.318Z,,,,,,,,,,,,,,,,,,,,,,,,,,,,,,,49382.956999994465,,completion,,,,,,,,,,,,,,,,,,,,,344674.3049999932,344670.65499999444,295271.032,295275.0999999989,295287.698,344686.485,,,
End of Practice,html.Page,2_1_2,2021-04-27T08:46:37.314Z,,,,,,,,,,,,,,,,,,,,,,,,,,,,,,,19999.20000000001,,timeout,,,,,,,,,,,,,,,,,,,,,364671.2449999759,364669.019,344669.819,344674.43499999354,344686.485,364685.685,,,
Practice,flow.Sequence,2_1,2021-04-27T08:46:37.314Z,,,,,,,,,,,,,,,,,,,,,,,,,,,,,,,119794.21399999998,,completion,,,,,,,,,,,,,,,,,,,,,364671.51499999454,364669.019,244858.139,244876.1200000008,244874.805,364685.685,,,
Trap_instruction,html.Page,2_2_0,2021-04-27T08:46:57.313Z,,,,,,,,,,,,,,,,,,,,,,,,,,,,,,,19999.20000000001,,timeout,,,,,,,,,,,,,,,,,,,,,384670.82499997923,384668.219,364669.019,364671.69999997714,364685.685,384684.885,,,
trap_trial,html.Screen,2_2_1,2021-04-27T08:47:00.472Z,,,,,,,,,,,,,,,,,,,,,,,,,,,,true,1,,3141.4799999862444,,response,,,,,,,,,,,1,click #choice-1,,,,,,,,,387829.86999998684,387826.36499998625,384668.219,384671.0449999955,384684.885,387844.551,,,
end of trap trial,html.Page,2_2_2,2021-04-27T08:47:05.715Z,,,,,,,,,,,,,,,,,,,,,,,,,,,,,,,5228.243999985512,,form submission,,,,,,,,,,,,,,,,,,,,,393073.04499999736,393072.7949999855,387827.885,387830.0599999784,387844.551,393077.675,,,
Trap 1,flow.Sequence,2_2,2021-04-27T08:47:05.715Z,,,,,,,,,,,,,,,,,,,,,,,,,,,,,,,28387.109999985492,,completion,,,,,,,,,,,,,,,,,,,,,393073.24499997776,393072.7949999855,364669.019,364671.6449999949,364685.685,393077.675,,,
Standby,html.Page,2_3_0,2021-04-27T08:47:13.704Z,,,,,,,,,,,,,,,,,,,,,,,,,,,,,,,7999.679999999993,,timeout,,,,,,,,,,,,,,,,,,,,,401062.76999998954,401060.689,393061.009,393073.3899999759,393077.675,401077.355,,,
Holding screen,html.Screen,2_3_1_0_0,2021-04-27T08:47:20.697Z,,,,,,,,,,,,,,,,,,,,,,,,,,,,,,,6994.34500000003,,timeout,,,,,,,,,,,,,,,,,,,,,408056.2749999808,408055.034,401060.689,401063.0549999769,401077.355,408071.7,,,
screen,html.Screen,2_3_1_0_1_0,2021-04-27T08:47:22.143Z,,,,,,,,,,,,,,,,,2,,,,,,,,,,,,,,1421.5849999749917,,response,,,,1,F,,,,,,Space,keypress(Space),,,,instrumental,,,,Two ---- ------ --- ------- ---------- ------- ----------<br>--- --------- --- ----------- ------- ----- ------- ---<br>--------- ---- -- --- ---- -- --------- -- ---- -------<br>-- --------- ------ --- ----- ------ ---- --- --------- --<br>------ - ---- -- --- ----------- ------- ---- ----- -----<br>--- -------- - ------ ---- -- ----- ---- --- --- -----------<br>-- -------,409501.55999997514,409493.284999975,408055.034,408056.51499997475,408071.7,409504.976,,0,Two
screen,html.Screen,2_3_1_0_1_1,2021-04-27T08:47:22.756Z,,,,,,,,,,,,,,,,,2,,,,,,,,,,,,,,603.3489999792073,,response,,,,1,F,,,,,,Space,keypress(Space),,,,instrumental,,,,--- days ------ --- ------- ---------- ------- ----------<br>--- --------- --- ----------- ------- ----- ------- ---<br>--------- ---- -- --- ---- -- --------- -- ---- -------<br>-- --------- ------ --- ----- ------ ---- --- --------- --<br>------ - ---- -- --- ----------- ------- ---- ----- -----<br>--- -------- - ------ ---- -- ----- ---- --- --- -----------<br>-- -------,410115.3950000007,410108.32499997923,409488.31,409501.71499999124,409504.976,410121.618,,1,days
screen,html.Screen,2_3_1_0_1_2,2021-04-27T08:47:23.734Z,,,,,,,,,,,,,,,,,2,,,,,,,,,,,,,,964.9569999938831,,response,,,,1,F,,,,,,Space,keypress(Space),,,,instrumental,,,,"--- ---- later, --- ------- ---------- ------- ----------<br>--- --------- --- ----------- ------- ----- ------- ---<br>--------- ---- -- --- ---- -- --------- -- ---- -------<br>-- --------- ------ --- ----- ------ ---- --- --------- --<br>------ - ---- -- --- ----------- ------- ---- ----- -----<br>--- -------- - ------ ---- -- ----- ---- --- --- -----------<br>-- -------",411093.349999981,411086.5749999939,410104.952,410115.5349999899,410121.618,411104.912,,2,"later,"
screen,html.Screen,2_3_1_0_1_3,2021-04-27T08:47:24.159Z,,,,,,,,,,,,,,,,,2,,,,,,,,,,,,,,406.2829999991227,,response,,,,1,F,,,,,,Space,keypress(Space),,,,instrumental,,,,--- ---- ------ the ------- ---------- ------- ----------<br>--- --------- --- ----------- ------- ----- ------- ---<br>--------- ---- -- --- ---- -- --------- -- ---- -------<br>-- --------- ------ --- ----- ------ ---- --- --------- --<br>------ - ---- -- --- ----------- ------- ---- ----- -----<br>--- -------- - ------ ---- -- ----- ---- --- --- -----------<br>-- -------,411517.6499999943,411511.19499999913,411088.246,411093.4849999903,411104.912,411521.562,,3,the
screen,html.Screen,2_3_1_0_1_4,2021-04-27T08:47:24.726Z,,,,,,,,,,,,,,,,,2,,,,,,,,,,,,,,556.6229999912321,,response,,,,1,F,,,,,,Space,keypress(Space),,,,instrumental,,,,--- ---- ------ --- British ---------- ------- ----------<br>--- --------- --- ----------- ------- ----- ------- ---<br>--------- ---- -- --- ---- -- --------- -- ---- -------<br>-- --------- ------ --- ----- ------ ---- --- --------- --<br>------ - ---- -- --- ----------- ------- ---- ----- -----<br>--- -------- - ------ ---- -- ----- ---- --- --- -----------<br>-- -------,412084.7899999935,412078.1849999912,411504.896,411517.7599999879,411521.562,412090.12,,4,British
screen,html.Screen,2_3_1_0_1_5,2021-04-27T08:47:25.472Z,,,,,,,,,,,,,,,,,2,,,,,,,,,,,,,,734.0399999892106,,response,,,,1,F,,,,,,Space,keypress(Space),,,,instrumental,,,,--- ---- ------ --- ------- astronomer ------- ----------<br>--- --------- --- ----------- ------- ----- ------- ---<br>--------- ---- -- --- ---- -- --------- -- ---- -------<br>-- --------- ------ --- ----- ------ ---- --- --------- --<br>------ - ---- -- --- ----------- ------- ---- ----- -----<br>--- -------- - ------ ---- -- ----- ---- --- --- -----------<br>-- -------,412831.16000000155,412824.1599999892,412073.454,412084.9299999827,412090.12,412840.09,,5,astronomer
screen,html.Screen,2_3_1_0_1_6,2021-04-27T08:47:26.474Z,,,,,,,,,,,,,,,,,2,,,,,,,,,,,,,,985.8450000007288,,response,,,,1,F,,,,,,Space,keypress(Space),,,,instrumental,,,,--- ---- ------ --- ------- ---------- Richard ----------<br>--- --------- --- ----------- ------- ----- ------- ---<br>--------- ---- -- --- ---- -- --------- -- ---- -------<br>-- --------- ------ --- ----- ------ ---- --- --------- --<br>------ - ---- -- --- ----------- ------- ---- ----- -----<br>--- -------- - ------ ---- -- ----- ---- --- --- -----------<br>-- -------,413832.7500000014,413825.93500000075,412823.424,412831.29999999073,412840.09,413840.05,,6,Richard
screen,html.Screen,2_3_1_0_1_7,2021-04-27T08:47:27.705Z,,,,,,,,,,,,,,,,,2,,,,,,,,,,,,,,1217.3099999770639,,response,,,,1,F,,,,,,Space,keypress(Space),,,,instrumental,,,,--- ---- ------ --- ------- ---------- ------- Carrington<br>--- --------- --- ----------- ------- ----- ------- ---<br>--------- ---- -- --- ---- -- --------- -- ---- -------<br>-- --------- ------ --- ----- ------ ---- --- --------- --<br>------ - ---- -- --- ----------- ------- ---- ----- -----<br>--- -------- - ------ ---- -- ----- ---- --- --- -----------<br>-- -------,415064.2799999914,415057.35999997705,413823.384,413832.8849999816,413840.05,415073.334,,7,Carrington
screen,html.Screen,2_3_1_0_1_8,2021-04-27T08:47:28.404Z,,,,,,,,,,,,,,,,,2,,,,,,,,,,,,,,684.4659999921569,,response,,,,1,F,,,,,,Space,keypress(Space),,,,instrumental,,,,--- ---- ------ --- ------- ---------- ------- ----------<br>was --------- --- ----------- ------- ----- ------- ---<br>--------- ---- -- --- ---- -- --------- -- ---- -------<br>-- --------- ------ --- ----- ------ ---- --- --------- --<br>------ - ---- -- --- ----------- ------- ---- ----- -----<br>--- -------- - ------ ---- -- ----- ---- --- --- -----------<br>-- -------,415762.8399999812,415757.79999999213,415056.668,415064.45999999414,415073.334,415773.306,,8,was
screen,html.Screen,2_3_1_0_1_9,2021-04-27T08:47:29.010Z,,,,,,,,,,,,,,,,,2,,,,,,,,,,,,,,588.6689999779919,,response,,,,1,F,,,,,,Space,keypress(Space),,,,instrumental,,,,--- ---- ------ --- ------- ---------- ------- ----------<br>--- observing --- ----------- ------- ----- ------- ---<br>--------- ---- -- --- ---- -- --------- -- ---- -------<br>-- --------- ------ --- ----- ------ ---- --- --------- --<br>------ - ---- -- --- ----------- ------- ---- ----- -----<br>--- -------- - ------ ---- -- ----- ---- --- --- -----------<br>-- -------,416369.29499998223,416361.974999978,415756.64,415762.9650000017,415773.306,416373.282,,9,observing
screen,html.Screen,2_3_1_0_1_10,2021-04-27T08:47:29.515Z,,,,,,,,,,,,,,,,,2,,,,,,,,,,,,,,494.5929999962682,,response,,,,1,F,,,,,,Space,keypress(Space),,,,instrumental,,,,--- ---- ------ --- ------- ---------- ------- ----------<br>--- --------- the ----------- ------- ----- ------- ---<br>--------- ---- -- --- ---- -- --------- -- ---- -------<br>-- --------- ------ --- ----- ------ ---- --- --------- --<br>------ - ---- -- --- ----------- ------- ---- ----- -----<br>--- -------- - ------ ---- -- ----- ---- --- --- -----------<br>-- -------,416874.74499997916,416867.8749999963,416356.616,416369.4399999804,416373.282,416889.928,,10,the
screen,html.Screen,2_3_1_0_1_11,2021-04-27T08:47:30.191Z,,,,,,,,,,,,,,,,,2,,,,,,,,,,,,,,652.9869999981602,,response,,,,1,F,,,,,,Space,keypress(Space),,,,instrumental,,,,--- ---- ------ --- ------- ---------- ------- ----------<br>--- --------- --- interesting ------- ----- ------- ---<br>--------- ---- -- --- ---- -- --------- -- ---- -------<br>-- --------- ------ --- ----- ------ ---- --- --------- --<br>------ - ---- -- --- ----------- ------- ---- ----- -----<br>--- -------- - ------ ---- -- ----- ---- --- --- -----------<br>-- -------,417550.1749999821,417542.9149999982,416873.262,416874.88499999745,416889.928,417556.568,,11,interesting
screen,html.Screen,2_3_1_0_1_12,2021-04-27T08:47:30.908Z,,,,,,,,,,,,,,,,,2,,,,,,,,,,,,,,704.3419999826583,,response,,,,1,F,,,,,,Space,keypress(Space),,,,instrumental,,,,--- ---- ------ --- ------- ---------- ------- ----------<br>--- --------- --- ----------- sunspot ----- ------- ---<br>--------- ---- -- --- ---- -- --------- -- ---- -------<br>-- --------- ------ --- ----- ------ ---- --- --------- --<br>------ - ---- -- --- ----------- ------- ---- ----- -----<br>--- -------- - ------ ---- -- ----- ---- --- --- -----------<br>-- -------,418267.75499997893,418260.9099999827,417539.902,417550.3199999803,417556.568,418273.206,,12,sunspot
screen,html.Screen,2_3_1_0_1_13,2021-04-27T08:47:31.043Z,,,,,,,,,,,,,,,,,2,,,,,,,,,,,,,,121.90399998310022,,response,,,,1,F,,,,,,Space,keypress(Space),,,,instrumental,,,,--- ---- ------ --- ------- ---------- ------- ----------<br>--- --------- --- ----------- ------- group ------- ---<br>--------- ---- -- --- ---- -- --------- -- ---- -------<br>-- --------- ------ --- ----- ------ ---- --- --------- --<br>------ - ---- -- --- ----------- ------- ---- ----- -----<br>--- -------- - ------ ---- -- ----- ---- --- --- -----------<br>-- -------,418401.9899999839,418395.1099999831,418256.54,418267.8949999972,418273.206,418406.534,,13,group
screen,html.Screen,2_3_1_0_1_14,2021-04-27T08:47:31.933Z,,,,,,,,,,,,,,,,,2,,,,,,,,,,,,,,878.3459999919869,,response,,,,1,F,,,,,,Space,keypress(Space),,,,instrumental,,,,--- ---- ------ --- ------- ---------- ------- ----------<br>--- --------- --- ----------- ------- ----- through ---<br>--------- ---- -- --- ---- -- --------- -- ---- -------<br>-- --------- ------ --- ----- ------ ---- --- --------- --<br>------ - ---- -- --- ----------- ------- ---- ----- -----<br>--- -------- - ------ ---- -- ----- ---- --- --- -----------<br>-- -------,419292.1099999803,419284.879999992,418389.868,418402.13999999105,418406.534,419306.498,,14,through
screen,html.Screen,2_3_1_0_1_15,2021-04-27T08:47:32.378Z,,,,,,,,,,,,,,,,,2,,,,,,,,,,,,,,423.30200000095647,,response,,,,1,F,,,,,,Space,keypress(Space),,,,instrumental,,,,--- ---- ------ --- ------- ---------- ------- ----------<br>--- --------- --- ----------- ------- ----- ------- his<br>--------- ---- -- --- ---- -- --------- -- ---- -------<br>-- --------- ------ --- ----- ------ ---- --- --------- --<br>------ - ---- -- --- ----------- ------- ---- ----- -----<br>--- -------- - ------ ---- -- ----- ---- --- --- -----------<br>-- -------,419737.0349999983,419729.800000001,419289.832,419292.2499999986,419306.498,419739.814,,15,his
screen,html.Screen,2_3_1_0_1_16,2021-04-27T08:47:33.060Z,,,,,,,,,,,,,,,,,2,,,,,,,,,,,,,,672.3260000003502,,response,,,,1,F,,,,,,Space,keypress(Space),,,,instrumental,,,,--- ---- ------ --- ------- ---------- ------- ----------<br>--- --------- --- ----------- ------- ----- ------- ---<br>telescope ---- -- --- ---- -- --------- -- ---- -------<br>-- --------- ------ --- ----- ------ ---- --- --------- --<br>------ - ---- -- --- ----------- ------- ---- ----- -----<br>--- -------- - ------ ---- -- ----- ---- --- --- -----------<br>-- -------,420419.4049999933,420412.14000000036,419723.148,419737.1749999875,419739.814,420423.12,,16,telescope
screen,html.Screen,2_3_1_0_1_17,2021-04-27T08:47:33.496Z,,,,,,,,,,,,,,,,,2,,,,,,,,,,,,,,426.57499998260755,,response,,,,1,F,,,,,,Space,keypress(Space),,,,instrumental,,,,--- ---- ------ --- ------- ---------- ------- ----------<br>--- --------- --- ----------- ------- ----- ------- ---<br>--------- when -- --- ---- -- --------- -- ---- -------<br>-- --------- ------ --- ----- ------ ---- --- --------- --<br>------ - ---- -- --- ----------- ------- ---- ----- -----<br>--- -------- - ------ ---- -- ----- ---- --- --- -----------<br>-- -------,420855.95499997726,420849.6949999826,420406.454,420419.54999999143,420423.12,420873.102,,17,when
screen,html.Screen,2_3_1_0_1_18,2021-04-27T08:47:33.927Z,,,,,,,,,,,,,,,,,2,,,,,,,,,,,,,,406.7779999873019,,response,,,,1,F,,,,,,Space,keypress(Space),,,,instrumental,,,,--- ---- ------ --- ------- ---------- ------- ----------<br>--- --------- --- ----------- ------- ----- ------- ---<br>--------- ---- he --- ---- -- --------- -- ---- -------<br>-- --------- ------ --- ----- ------ ---- --- --------- --<br>------ - ---- -- --- ----------- ------- ---- ----- -----<br>--- -------- - ------ ---- -- ----- ---- --- --- -----------<br>-- -------,421286.75499997917,421279.8799999873,420856.436,420856.09499999555,420873.102,421289.752,,18,he
screen,html.Screen,2_3_1_0_1_19,2021-04-27T08:47:34.644Z,,,,,,,,,,,,,,,,,2,,,,,,,,,,,,,,707.8879999868805,,response,,,,1,F,,,,,,Space,keypress(Space),,,,instrumental,,,,--- ---- ------ --- ------- ---------- ------- ----------<br>--- --------- --- ----------- ------- ----- ------- ---<br>--------- ---- -- saw ---- -- --------- -- ---- -------<br>-- --------- ------ --- ----- ------ ---- --- --------- --<br>------ - ---- -- --- ----------- ------- ---- ----- -----<br>--- -------- - ------ ---- -- ----- ---- --- --- -----------<br>-- -------,422003.3499999845,421997.63999998686,421273.086,421286.9349999819,421289.752,422006.39,,19,saw
screen,html.Screen,2_3_1_0_1_20,2021-04-27T08:47:35.116Z,,,,,,,,,,,,,,,,,2,,,,,,,,,,,,,,462.70499997853767,,response,,,,1,F,,,,,,Space,keypress(Space),,,,instrumental,,,,--- ---- ------ --- ------- ---------- ------- ----------<br>--- --------- --- ----------- ------- ----- ------- ---<br>--------- ---- -- --- what -- --------- -- ---- -------<br>-- --------- ------ --- ----- ------ ---- --- --------- --<br>------ - ---- -- --- ----------- ------- ---- ----- -----<br>--- -------- - ------ ---- -- ----- ---- --- --- -----------<br>-- -------,422475.8299999812,422469.09499997855,421989.724,422003.46499998705,422006.39,422484.369,,20,what
screen,html.Screen,2_3_1_0_1_21,2021-04-27T08:47:35.463Z,,,,,,,,,,,,,,,,,2,,,,,,,,,,,,,,331.33599998633144,,response,,,,1,F,,,,,,Space,keypress(Space),,,,instrumental,,,,--- ---- ------ --- ------- ---------- ------- ----------<br>--- --------- --- ----------- ------- ----- ------- ---<br>--------- ---- -- --- ---- he --------- -- ---- -------<br>-- --------- ------ --- ----- ------ ---- --- --------- --<br>------ - ---- -- --- ----------- ------- ---- ----- -----<br>--- -------- - ------ ---- -- ----- ---- --- --- -----------<br>-- -------,422822.6399999985,422815.70499998634,422467.703,422475.96499999054,422484.369,422834.355,,21,he
screen,html.Screen,2_3_1_0_1_22,2021-04-27T08:47:35.989Z,,,,,,,,,,,,,,,,,2,,,,,,,,,,,,,,507.3049999764189,,response,,,,1,F,,,,,,Space,keypress(Space),,,,instrumental,,,,--- ---- ------ --- ------- ---------- ------- ----------<br>--- --------- --- ----------- ------- ----- ------- ---<br>--------- ---- -- --- ---- -- described -- ---- -------<br>-- --------- ------ --- ----- ------ ---- --- --------- --<br>------ - ---- -- --- ----------- ------- ---- ----- -----<br>--- -------- - ------ ---- -- ----- ---- --- --- -----------<br>-- -------,423348.76500000246,423341.6599999764,422817.689,422822.8249999811,422834.355,423351.001,,22,described
screen,html.Screen,2_3_1_0_1_23,2021-04-27T08:47:36.393Z,,,,,,,,,,,,,,,,,2,,,,,,,,,,,,,,394.7589999907068,,response,,,,1,F,,,,,,Space,keypress(Space),,,,instrumental,,,,--- ---- ------ --- ------- ---------- ------- ----------<br>--- --------- --- ----------- ------- ----- ------- ---<br>--------- ---- -- --- ---- -- --------- as ---- -------<br>-- --------- ------ --- ----- ------ ---- --- --------- --<br>------ - ---- -- --- ----------- ------- ---- ----- -----<br>--- -------- - ------ ---- -- ----- ---- --- --- -----------<br>-- -------,423752.55999999354,423745.7599999907,423334.335,423348.8950000028,423351.001,423767.651,,23,as
screen,html.Screen,2_3_1_0_1_24,2021-04-27T08:47:36.921Z,,,,,,,,,,,,,,,,,2,,,,,,,,,,,,,,506.01399998605484,,response,,,,1,F,,,,,,Space,keypress(Space),,,,instrumental,,,,"--- ---- ------ --- ------- ---------- ------- ----------<br>--- --------- --- ----------- ------- ----- ------- ---<br>--------- ---- -- --- ---- -- --------- -- ""two -------<br>-- --------- ------ --- ----- ------ ---- --- --------- --<br>------ - ---- -- --- ----------- ------- ---- ----- -----<br>--- -------- - ------ ---- -- ----- ---- --- --- -----------<br>-- -------",424280.3750000021,424273.66499998607,423750.985,423752.69500000286,423767.651,424284.297,,24,"""two"
screen,html.Screen,2_3_1_0_1_25,2021-04-27T08:47:37.436Z,,,,,,,,,,,,,,,,,2,,,,,,,,,,,,,,505.2679999845568,,response,,,,1,F,,,,,,Space,keypress(Space),,,,instrumental,,,,--- ---- ------ --- ------- ---------- ------- ----------<br>--- --------- --- ----------- ------- ----- ------- ---<br>--------- ---- -- --- ---- -- --------- -- ---- patches<br>-- --------- ------ --- ----- ------ ---- --- --------- --<br>------ - ---- -- --- ----------- ------- ---- ----- -----<br>--- -------- - ------ ---- -- ----- ---- --- --- -----------<br>-- -------,424795.72999998345,424789.5649999846,424267.631,424280.5099999823,424284.297,424800.943,,25,patches
screen,html.Screen,2_3_1_0_1_26,2021-04-27T08:47:37.855Z,,,,,,,,,,,,,,,,,2,,,,,,,,,,,,,,406.5019999781507,,response,,,,1,F,,,,,,Space,keypress(Space),,,,instrumental,,,,--- ---- ------ --- ------- ---------- ------- ----------<br>--- --------- --- ----------- ------- ----- ------- ---<br>--------- ---- -- --- ---- -- --------- -- ---- -------<br>of --------- ------ --- ----- ------ ---- --- --------- --<br>------ - ---- -- --- ----------- ------- ---- ----- -----<br>--- -------- - ------ ---- -- ----- ---- --- --- -----------<br>-- -------,425214.2749999766,425207.4449999782,424784.277,424795.87000000174,424800.943,425217.593,,26,of
screen,html.Screen,2_3_1_0_1_27,2021-04-27T08:47:38.254Z,,,,,,,,,,,,,,,,,2,,,,,,,,,,,,,,388.9319999810541,,response,,,,1,F,,,,,,Space,keypress(Space),,,,instrumental,,,,--- ---- ------ --- ------- ---------- ------- ----------<br>--- --------- --- ----------- ------- ----- ------- ---<br>--------- ---- -- --- ---- -- --------- -- ---- -------<br>-- intensely ------ --- ----- ------ ---- --- --------- --<br>------ - ---- -- --- ----------- ------- ---- ----- -----<br>--- -------- - ------ ---- -- ----- ---- --- --- -----------<br>-- -------,425613.54500000016,425606.52499998105,425200.927,425214.4149999949,425217.593,425617.577,,27,intensely
screen,html.Screen,2_3_1_0_1_28,2021-04-27T08:47:38.879Z,,,,,,,,,,,,,,,,,2,,,,,,,,,,,,,,613.8679999830783,,response,,,,1,F,,,,,,Space,keypress(Space),,,,instrumental,,,,--- ---- ------ --- ------- ---------- ------- ----------<br>--- --------- --- ----------- ------- ----- ------- ---<br>--------- ---- -- --- ---- -- --------- -- ---- -------<br>-- --------- bright --- ----- ------ ---- --- --------- --<br>------ - ---- -- --- ----------- ------- ---- ----- -----<br>--- -------- - ------ ---- -- ----- ---- --- --- -----------<br>-- -------,426238.4650000022,426231.44499998307,425600.911,425613.6799999804,425617.577,426250.885,,28,bright
screen,html.Screen,2_3_1_0_1_29,2021-04-27T08:47:39.288Z,,,,,,,,,,,,,,,,,2,,,,,,,,,,,,,,389.67999997967854,,response,,,,1,F,,,,,,Space,keypress(Space),,,,instrumental,,,,--- ---- ------ --- ------- ---------- ------- ----------<br>--- --------- --- ----------- ------- ----- ------- ---<br>--------- ---- -- --- ---- -- --------- -- ---- -------<br>-- --------- ------ and ----- ------ ---- --- --------- --<br>------ - ---- -- --- ----------- ------- ---- ----- -----<br>--- -------- - ------ ---- -- ----- ---- --- --- -----------<br>-- -------,426647.4299999827,426640.5649999797,426234.219,426238.6449999758,426250.885,426650.869,,29,and
screen,html.Screen,2_3_1_0_1_30,2021-04-27T08:47:39.806Z,,,,,,,,,,,,,,,,,2,,,,,,,,,,,,,,508.5409999929252,,response,,,,1,F,,,,,,Space,keypress(Space),,,,instrumental,,,,--- ---- ------ --- ------- ---------- ------- ----------<br>--- --------- --- ----------- ------- ----- ------- ---<br>--------- ---- -- --- ---- -- --------- -- ---- -------<br>-- --------- ------ --- white ------ ---- --- --------- --<br>------ - ---- -- --- ----------- ------- ---- ----- -----<br>--- -------- - ------ ---- -- ----- ---- --- --- -----------<br>-- -------,427166.1249999888,427159.40999999293,426634.203,426647.58999997866,426650.869,427167.515,,30,white
screen,html.Screen,2_3_1_0_1_31,2021-04-27T08:47:40.869Z,,,,,,,,,,,,,,,,,2,,,,,,,,,,,,,,1054.9899999833433,,response,,,,1,F,,,,,,Space,keypress(Space),,,,instrumental,,,,"--- ---- ------ --- ------- ---------- ------- ----------<br>--- --------- --- ----------- ------- ----- ------- ---<br>--------- ---- -- --- ---- -- --------- -- ---- -------<br>-- --------- ------ --- ----- light"" ---- --- --------- --<br>------ - ---- -- --- ----------- ------- ---- ----- -----<br>--- -------- - ------ ---- -- ----- ---- --- --- -----------<br>-- -------",428229.0449999855,428222.50499998336,427150.849,427166.30499999155,427167.515,428234.139,,31,"light"""
screen,html.Screen,2_3_1_0_1_32,2021-04-27T08:47:41.226Z,,,,,,,,,,,,,,,,,2,,,,,,,,,,,,,,344.410999976506,,response,,,,1,F,,,,,,Space,keypress(Space),,,,instrumental,,,,--- ---- ------ --- ------- ---------- ------- ----------<br>--- --------- --- ----------- ------- ----- ------- ---<br>--------- ---- -- --- ---- -- --------- -- ---- -------<br>-- --------- ------ --- ----- ------ over --- --------- --<br>------ - ---- -- --- ----------- ------- ---- ----- -----<br>--- -------- - ------ ---- -- ----- ---- --- --- -----------<br>-- -------,428585.29499999713,428578.54999997653,428217.473,428229.1849999747,428234.139,428600.791,,32,over
screen,html.Screen,2_3_1_0_1_33,2021-04-27T08:47:41.571Z,,,,,,,,,,,,,,,,,2,,,,,,,,,,,,,,323.59900000010384,,response,,,,1,F,,,,,,Space,keypress(Space),,,,instrumental,,,,--- ---- ------ --- ------- ---------- ------- ----------<br>--- --------- --- ----------- ------- ----- ------- ---<br>--------- ---- -- --- ---- -- --------- -- ---- -------<br>-- --------- ------ --- ----- ------ ---- the --------- --<br>------ - ---- -- --- ----------- ------- ---- ----- -----<br>--- -------- - ------ ---- -- ----- ---- --- --- -----------<br>-- -------,428931.09999998705,428924.39000000013,428584.125,428585.42999997735,428600.791,428934.111,,33,the
screen,html.Screen,2_3_1_0_1_34,2021-04-27T08:47:41.900Z,,,,,,,,,,,,,,,,,2,,,,,,,,,,,,,,318.4739999801968,,response,,,,1,F,,,,,,Space,keypress(Space),,,,instrumental,,,,--- ---- ------ --- ------- ---------- ------- ----------<br>--- --------- --- ----------- ------- ----- ------- ---<br>--------- ---- -- --- ---- -- --------- -- ---- -------<br>-- --------- ------ --- ----- ------ ---- --- sunspots. --<br>------ - ---- -- --- ----------- ------- ---- ----- -----<br>--- -------- - ------ ---- -- ----- ---- --- --- -----------<br>-- -------,429259.36499997624,429252.5849999802,428917.445,428931.2349999964,428934.111,429267.431,,34,sunspots.
screen,html.Screen,2_3_1_0_1_35,2021-04-27T08:47:42.453Z,,,,,,,,,,,,,,,,,2,,,,,,,,,,,,,,538.8539999987697,,response,,,,1,F,,,,,,Space,keypress(Space),,,,instrumental,,,,--- ---- ------ --- ------- ---------- ------- ----------<br>--- --------- --- ----------- ------- ----- ------- ---<br>--------- ---- -- --- ---- -- --------- -- ---- -------<br>-- --------- ------ --- ----- ------ ---- --- --------- He<br>------ - ---- -- --- ----------- ------- ---- ----- -----<br>--- -------- - ------ ---- -- ----- ---- --- --- -----------<br>-- -------,429812.9799999879,429806.28499999875,429250.765,429259.54999998794,429267.431,429817.409,,35,He
screen,html.Screen,2_3_1_0_1_36,2021-04-27T08:47:42.885Z,,,,,,,,,,,,,,,,,2,,,,,,,,,,,,,,421.0359999954235,,response,,,,1,F,,,,,,Space,keypress(Space),,,,instrumental,,,,--- ---- ------ --- ------- ---------- ------- ----------<br>--- --------- --- ----------- ------- ----- ------- ---<br>--------- ---- -- --- ---- -- --------- -- ---- -------<br>-- --------- ------ --- ----- ------ ---- --- --------- --<br>jotted - ---- -- --- ----------- ------- ---- ----- -----<br>--- -------- - ------ ---- -- ----- ---- --- --- -----------<br>-- -------,430244.4249999826,430238.4449999954,429800.743,429813.11999997706,429817.409,430250.725,,36,jotted
