sender,sender_type,sender_id,timestamp,meta,,Blues,Classical,Country,Dance,Electronic,Folk,Gospel,Hip-Hop,Jazz,Latin,Musical/Film,New-age,Pop,Prolific_id,Provo_ID,R&B,Rap,Reggae,Religious,Rock,Soul,Swing,Traditional,age,artist_name,correct,correctResponse,distraction,duration,education,ended_on,familiarity,gender,headphone_check_performance,item,list,music_frequency,offensiveness,pleasantness,position_correct,preference,response,response_action,snippet_file,song_name,song_rating,sound,stimulus_1,stimulus_2,stimulus_3,text,time_commit,time_end,time_render,time_run,time_show,time_switch,url,word,word_ID
Prolific ID,html.Form,0,2021-04-27T08:29:28.826Z,"{""labjs_version"":""20.2.2"",""labjs_build"":{""flavor"":""production"",""commit"":""a25486e0c714a0ae2ce03ff94b7bb6896854dcfa""},""location"":""https://run.pavlovia.org/mvasilev/prolific_music_f/"",""userAgent"":""Mozilla/5.0 (Windows NT 10.0; Win64; x64) AppleWebKit/537.36 (KHTML, like Gecko) Chrome/90.0.4430.85 Safari/537.36"",""platform"":""Win32"",""language"":""en-GB"",""locale"":""en-GB"",""timeZone"":""Europe/London"",""timezoneOffset"":-60,""screen_width"":1366,""screen_height"":768,""scroll_width"":1366,""scroll_height"":615,""window_innerWidth"":1366,""window_innerHeight"":663,""devicePixelRatio"":1}",,,,,,,,,,,,,,,5f6f7f94d4b107514589d5b8,,,,,,,,,,,,,,,7164.278999998547,,form submission,,,,,,,,,,,,,,,,,,,,,31727.349999942817,31726.439999998547,24495.497,24501.509999972768,24562.161,31815.69,{},,
Introduction,html.Screen,1_0,2021-04-27T08:29:45.409Z,,,,,,,,,,,,,,,,,,,,,,,,,,,,,,,16491.284999955857,,response,,,,,,,,,,,continue,click button,,,,,,,,,48311.21499999426,48306.974999955855,31715.694,31728.039999958128,31815.69,48318.658,,,
Volume calibration,html.Screen,1_1,2021-04-27T08:30:18.187Z,,,,,,,,,,,,,,,,,,,,,,,,,,,,,,,32768.25699999258,,response,,,,,,,,,,,continue,click button,,,,,,,,,81091.38999995776,81086.91499999259,48301.992,48311.645000008866,48318.658,81091.222,,,
Task instructions,html.Screen,1_2,2021-04-27T08:30:23.906Z,,,,,,,,,,,,,,,,,,,,,,,,,,,,,,,5717.697999981305,,response,,,,,,,,,,,continue,click button,,,,,,,,,86810.25500001851,86808.9199999813,81074.556,81091.75000002142,81091.222,86825.62,,,
Sounds,html.Screen,1_3_0_0,2021-04-27T08:30:28.162Z,,,,,,,,,,,,,,,,,,,,,,,,,,,,,,,4266.691000000006,,timeout,,,,,,,,,2,,,,,,,,I,S,O,,91066.37999997474,91058.979,86808.954,86810.81499997526,86825.62,91092.311,,,
Judgement,html.Screen,1_3_0_1,2021-04-27T08:30:30.512Z,,,,,,,,,,,,,,,,,,,,,,,,,,,,true,2,,2322.658999925232,,response,,,,,,,,,2,,2,click #choice-2,,,,,I,S,O,,93416.53499996755,93414.96999992523,91058.979,91066.79499999154,91092.311,93426.86,,,
Trial,flow.Sequence,1_3_0,2021-04-27T08:30:30.513Z,,,,,,,,,,,,,,,,,,,,,,,,,,,,,,,6589.349999925238,,completion,,,,,,,,,2,,,,,,,,I,S,O,,93417.23000002094,93414.96999992523,86808.954,86810.67999999505,86825.62,93426.86,,,
Sounds,html.Screen,1_3_1_0,2021-04-27T08:30:34.759Z,,,,,,,,,,,,,,,,,,,,,,,,,,,,,,,4249.9909999999945,,timeout,,,,,,,,,2,,,,,,,,O,S,I,,97663.29499997664,97660.185,93410.194,93417.59500000626,93426.86,97676.851,,,
Judgement,html.Screen,1_3_1_1,2021-04-27T08:30:35.910Z,,,,,,,,,,,,,,,,,,,,,,,,,,,,false,2,,1136.1289999296714,,response,,,,,,,,,2,,1,click #choice-1,,,,,O,S,I,,98814.35999996029,98812.97999992967,97660.185,97663.63500000443,97676.851,98827.809,,,
Trial,flow.Sequence,1_3_1,2021-04-27T08:30:35.911Z,,,,,,,,,,,,,,,,,,,,,,,,,,,,,,,5386.119999929666,,completion,,,,,,,,,2,,,,,,,,O,S,I,,98814.8049999727,98812.97999992967,93410.194,93417.46999998577,93426.86,98827.809,,,
Sounds,html.Screen,1_3_2_0,2021-04-27T08:30:40.159Z,,,,,,,,,,,,,,,,,,,,,,,,,,,,,,,4249.8550000000105,,timeout,,,,,,,,,1,,,,,,,,S,I,O,,103063.20500001311,103060.998,98811.143,98815.12499996461,98827.809,103077.664,,,
Judgement,html.Screen,1_3_2_1,2021-04-27T08:30:40.519Z,,,,,,,,,,,,,,,,,,,,,,,,,,,,true,1,,343.63100000737177,,response,,,,,,,,,1,,1,click #choice-1,,,,,S,I,O,,103423.37500001304,103421.29500000738,103060.998,103063.48499993328,103077.664,103428.457,,,
Trial,flow.Sequence,1_3_2,2021-04-27T08:30:40.520Z,,,,,,,,,,,,,,,,,,,,,,,,,,,,,,,4593.486000007382,,completion,,,,,,,,,1,,,,,,,,S,I,O,,103423.8399999449,103421.29500000738,98811.143,98815.01499994192,98827.809,103428.457,,,
Sounds,html.Screen,1_3_3_0,2021-04-27T08:30:44.759Z,,,,,,,,,,,,,,,,,,,,,,,,,,,,,,,4250.090000000011,,timeout,,,,,,,,,3,,,,,,,,O,I,S,,107663.13000000082,107661.881,103411.791,103424.17000001296,103428.457,107678.547,,,
Judgement,html.Screen,1_3_3_1,2021-04-27T08:30:48.433Z,,,,,,,,,,,,,,,,,,,,,,,,,,,,true,3,,3657.0679999890417,,response,,,,,,,,,3,,3,click #choice-3,,,,,O,I,S,,111336.78000001237,111335.61499998905,107661.881,107663.43499999493,107678.547,111346.644,,,
Trial,flow.Sequence,1_3_3,2021-04-27T08:30:48.433Z,,,,,,,,,,,,,,,,,,,,,,,,,,,,,,,7907.157999989053,,completion,,,,,,,,,3,,,,,,,,O,I,S,,111337.18000003137,111335.61499998905,103411.791,103424.0549999522,103428.457,111346.644,,,
Sounds,html.Screen,1_3_4_0,2021-04-27T08:30:52.679Z,,,,,,,,,,,,,,,,,,,,,,,,,,,,,,,4250.062999999995,,timeout,,,,,,,,,1,,,,,,,,S,O,I,,115583.4099999629,115580.041,111329.978,111337.45999995153,111346.644,115596.707,,,
Judgement,html.Screen,1_3_4_1,2021-04-27T08:30:53.690Z,,,,,,,,,,,,,,,,,,,,,,,,,,,,true,1,,996.3179999510176,,response,,,,,,,,,1,,1,click #choice-1,,,,,S,O,I,,116594.45500001311,116593.02499995101,115580.041,115583.70499999728,115596.707,116597.614,,,
Trial,flow.Sequence,1_3_4,2021-04-27T08:30:53.691Z,,,,,,,,,,,,,,,,,,,,,,,,,,,,,,,5246.380999951012,,completion,,,,,,,,,1,,,,,,,,S,O,I,,116594.84499995597,116593.02499995101,111329.978,111337.36999996472,111346.644,116597.614,,,
Sounds,html.Screen,1_3_5_0,2021-04-27T08:30:57.928Z,,,,,,,,,,,,,,,,,,,,,,,,,,,,,,,4249.945999999996,,timeout,,,,,,,,,3,,,,,,,,I,O,S,,120832.54500001203,120830.894,116580.948,116595.12499999255,116597.614,120847.56,,,
Judgement,html.Screen,1_3_5_1,2021-04-27T08:30:58.858Z,,,,,,,,,,,,,,,,,,,,,,,,,,,,true,3,,913.4200000209385,,response,,,,,,,,,3,,3,click #choice-3,,,,,I,O,S,,121762.35500001349,121760.98000002094,120830.894,120832.8249999322,120847.56,121765.238,,,
Trial,flow.Sequence,1_3_5,2021-04-27T08:30:58.859Z,,,,,,,,,,,,,,,,,,,,,,,,,,,,,,,5163.366000020935,,completion,,,,,,,,,3,,,,,,,,I,O,S,,121762.78500002809,121760.98000002094,116580.948,116595.03500000574,116597.614,121765.238,,,
Task,flow.Loop,1_3,2021-04-27T08:30:58.866Z,,,,,,,,,,,,,,,,,,,,,,,,,,,,,,,34935.36000002094,,completion,,,0.8333333333333334,,,,,,,,,,,,,,,,,,121770.00499994028,121760.98000002094,86808.954,86810.53499993868,86825.62,121765.238,,,
Trap,html.Screen,1_4,2021-04-27T08:30:58.869Z,,,,,,,,,,,,,,,,,,,,,,,,,,,,,,,NaN,,skipped,,,,,,,,,,,,,,,,,,,,,121772.65499997884,121760.98000002094,,121772.30499999132,,121765.238,,,
Thanks,html.Screen,1_5,2021-04-27T08:31:16.323Z,,,,,,,,,,,,,,,,,,,,,,,,,,,,,,,17461.7619999553,,response,,,,,,,,,,,continue,click button,,,,,,,,,139228.37499994785,139226.9999999553,121748.572,121772.97499997076,121765.238,142401.691,,,
Headphone screening,flow.Sequence,1,2021-04-27T08:31:16.323Z,,,,,,,,,,,,,,,,,,,,,,,,,,,,,,,107411.3099999553,,completion,,,,,,,,,,,,,,,,,,,,,139228.91499998514,139226.9999999553,31715.694,31727.940000011586,31815.69,142401.691,,,
Instructions,html.Page,2_0,2021-04-27T08:31:47.131Z,,,,,,,,,,,,,,,,,,,,,,,,,,,,,,,27633.77399996447,,form submission,,,,,,,,,,,,,,,,,,,,,170036.08500002883,170035.46499996446,142368.359,142404.45000003092,142401.691,170040.672,,,
Holding screen,html.Screen,2_1_0_0,2021-04-27T08:31:57.125Z,,,,,,,,,,,,,,,,,,,,,,,,,,,,,,,10118.089000000007,,timeout,,,,,,,,,,,,,,,,,,,,,180030.36999993492,180025.433,170024.006,170036.58499999437,170040.672,180158.761,,,
screen,html.Screen,2_1_0_1_0,2021-04-27T08:31:58.221Z,,,,,,,,,,,,,,,,,53,,,,,,,,,,,,,,964.0090000163182,,response,,,,99,,,,,,,Space,keypress(Space),,,,,,,,When -- ----- -- ------ - ------- --- ----------<br>------------- ------ ------ ---- ---- ------- ----- -- ----<br>-------- ------- -- ---------- --- - --- ----- ----- ----<br>---- --- --- ----- --- ---- ---- ------- ----- ---- -------<br>--- --- -- ----- -- --- ---- -- --- ---- -- ------ ------<br>--- ----- -- ----,181126.9499999471,181122.77000001632,180025.433,180030.81499994732,180158.761,181142.294,,0,When
screen,html.Screen,2_1_0_1_1,2021-04-27T08:31:58.720Z,,,,,,,,,,,,,,,,,53,,,,,,,,,,,,,,481.6259999254253,,response,,,,99,,,,,,,Space,keypress(Space),,,,,,,,---- it ----- -- ------ - ------- --- ----------<br>------------- ------ ------ ---- ---- ------- ----- -- ----<br>-------- ------- -- ---------- --- - --- ----- ----- ----<br>---- --- --- ----- --- ---- ---- ------- ----- ---- -------<br>--- --- -- ----- -- --- ---- -- --- ---- -- ------ ------<br>--- ----- -- ----,181625.400000019,181623.91999992542,181125.628,181127.31000001077,181142.294,181642.492,,1,it
screen,html.Screen,2_1_0_1_2,2021-04-27T08:31:59.248Z,,,,,,,,,,,,,,,,,53,,,,,,,,,,,,,,510.04300000108196,,response,,,,99,,,,,,,Space,keypress(Space),,,,,,,,---- -- comes -- ------ - ------- --- ----------<br>------------- ------ ------ ---- ---- ------- ----- -- ----<br>-------- ------- -- ---------- --- - --- ----- ----- ----<br>---- --- --- ----- --- ---- ---- ------- ----- ---- -------<br>--- --- -- ----- -- --- ---- -- --- ---- -- ------ ------<br>--- ----- -- ----,182153.85499992408,182152.53500000108,181625.826,181625.69499993697,181642.492,182159.363,,2,comes
screen,html.Screen,2_1_0_1_3,2021-04-27T08:31:59.753Z,,,,,,,,,,,,,,,,,53,,,,,,,,,,,,,,497.97199999622535,,response,,,,99,,,,,,,Space,keypress(Space),,,,,,,,---- -- ----- to ------ - ------- --- ----------<br>------------- ------ ------ ---- ---- ------- ----- -- ----<br>-------- ------- -- ---------- --- - --- ----- ----- ----<br>---- --- --- ----- --- ---- ---- ------- ----- ---- -------<br>--- --- -- ----- -- --- ---- -- --- ---- -- ------ ------<br>--- ----- -- ----,182658.7049999507,182657.33499999624,182142.697,182154.1449999204,182159.363,182676.111,,3,to
screen,html.Screen,2_1_0_1_4,2021-04-27T08:32:00.141Z,,,,,,,,,,,,,,,,,53,,,,,,,,,,,,,,369.35399997376953,,response,,,,99,,,,,,,Space,keypress(Space),,,,,,,,---- -- ----- -- having - ------- --- ----------<br>------------- ------ ------ ---- ---- ------- ----- -- ----<br>-------- ------- -- ---------- --- - --- ----- ----- ----<br>---- --- --- ----- --- ---- ---- ------- ----- ---- -------<br>--- --- -- ----- -- --- ---- -- --- ---- -- ------ ------<br>--- ----- -- ----,183046.83999996632,183045.46499997377,182659.445,182660.36500001792,182676.111,183059.554,,4,having
screen,html.Screen,2_1_0_1_5,2021-04-27T08:32:00.542Z,,,,,,,,,,,,,,,,,53,,,,,,,,,,,,,,386.7009999589063,,response,,,,99,,,,,,,Space,keypress(Space),,,,,,,,---- -- ----- -- ------ a ------- --- ----------<br>------------- ------ ------ ---- ---- ------- ----- -- ----<br>-------- ------- -- ---------- --- - --- ----- ----- ----<br>---- --- --- ----- --- ---- ---- ------- ----- ---- -------<br>--- --- -- ----- -- --- ---- -- --- ---- -- ------ ------<br>--- ----- -- ----,183447.64499994926,183446.2549999589,183042.888,183047.12499992456,183059.554,183459.623,,5,a
screen,html.Screen,2_1_0_1_6,2021-04-27T08:32:00.996Z,,,,,,,,,,,,,,,,,53,,,,,,,,,,,,,,440.18699997352087,,response,,,,99,,,,,,,Space,keypress(Space),,,,,,,,---- -- ----- -- ------ - lasting --- ----------<br>------------- ------ ------ ---- ---- ------- ----- -- ----<br>-------- ------- -- ---------- --- - --- ----- ----- ----<br>---- --- --- ----- --- ---- ---- ------- ----- ---- -------<br>--- --- -- ----- -- --- ---- -- --- ---- -- ------ ------<br>--- ----- -- ----,183901.08999994118,183899.8099999735,183442.957,183447.93999998365,183459.623,183909.694,,6,lasting
screen,html.Screen,2_1_0_1_7,2021-04-27T08:32:01.400Z,,,,,,,,,,,,,,,,,53,,,,,,,,,,,,,,394.3210000015388,,response,,,,99,,,,,,,Space,keypress(Space),,,,,,,,---- -- ----- -- ------ - ------- and ----------<br>------------- ------ ------ ---- ---- ------- ----- -- ----<br>-------- ------- -- ---------- --- - --- ----- ----- ----<br>---- --- --- ----- --- ---- ---- ------- ----- ---- -------<br>--- --- -- ----- -- --- ---- -- --- ---- -- ------ ------<br>--- ----- -- ----,184305.28500000946,184304.01500000153,183893.028,183901.39000001363,183909.694,184309.905,,7,and
screen,html.Screen,2_1_0_1_8,2021-04-27T08:32:01.758Z,,,,,,,,,,,,,,,,,53,,,,,,,,,,,,,,352.4599999964994,,response,,,,99,,,,,,,Space,keypress(Space),,,,,,,,---- -- ----- -- ------ - ------- --- fulfilling<br>------------- ------ ------ ---- ---- ------- ----- -- ----<br>-------- ------- -- ---------- --- - --- ----- ----- ----<br>---- --- --- ----- --- ---- ---- ------- ----- ---- -------<br>--- --- -- ----- -- --- ---- -- --- ---- -- ------ ------<br>--- ----- -- ----,184663.66500000004,184662.3649999965,184293.239,184305.57999992743,184309.905,184676.536,,8,fulfilling
screen,html.Screen,2_1_0_1_9,2021-04-27T08:32:02.478Z,,,,,,,,,,,,,,,,,53,,,,,,,,,,,,,,707.1239999340323,,response,,,,99,,,,,,,Space,keypress(Space),,,,,,,,"---- -- ----- -- ------ - ------- --- ----------<br>relationship, ------ ------ ---- ---- ------- ----- -- ----<br>-------- ------- -- ---------- --- - --- ----- ----- ----<br>---- --- --- ----- --- ---- ---- ------- ----- ---- -------<br>--- --- -- ----- -- --- ---- -- --- ---- -- ------ ------<br>--- ----- -- ----",185384.94499993976,185383.65999993403,184659.87,184663.959999918,184676.536,185393.243,,9,"relationship,"
screen,html.Screen,2_1_0_1_10,2021-04-27T08:32:03.027Z,,,,,,,,,,,,,,,,,53,,,,,,,,,,,,,,539.2719999931578,,response,,,,99,,,,,,,Space,keypress(Space),,,,,,,,---- -- ----- -- ------ - ------- --- ----------<br>------------- common ------ ---- ---- ------- ----- -- ----<br>-------- ------- -- ---------- --- - --- ----- ----- ----<br>---- --- --- ----- --- ---- ---- ------- ----- ---- -------<br>--- --- -- ----- -- --- ---- -- --- ---- -- ------ ------<br>--- ----- -- ----,185933.83499991614,185932.51499999315,185376.577,185385.23999997415,185393.243,185943.314,,10,common
screen,html.Screen,2_1_0_1_11,2021-04-27T08:32:03.615Z,,,,,,,,,,,,,,,,,53,,,,,,,,,,,,,,576.9310000215191,,response,,,,99,,,,,,,Space,keypress(Space),,,,,,,,---- -- ----- -- ------ - ------- --- ----------<br>------------- ------ wisdom ---- ---- ------- ----- -- ----<br>-------- ------- -- ---------- --- - --- ----- ----- ----<br>---- --- --- ----- --- ---- ---- ------- ----- ---- -------<br>--- --- -- ----- -- --- ---- -- --- ---- -- ------ ------<br>--- ----- -- ----,186521.1549999658,186520.24500002153,185926.648,185934.12999995053,185943.314,186526.77,,11,wisdom
screen,html.Screen,2_1_0_1_12,2021-04-27T08:32:04.460Z,,,,,,,,,,,,,,,,,53,,,,,,,,,,,,,,838.6949999225617,,response,,,,99,,,,,,,Space,keypress(Space),,,,,,,,---- -- ----- -- ------ - ------- --- ----------<br>------------- ------ ------ says ---- ------- ----- -- ----<br>-------- ------- -- ---------- --- - --- ----- ----- ----<br>---- --- --- ----- --- ---- ---- ------- ----- ---- -------<br>--- --- -- ----- -- --- ---- -- --- ---- -- ------ ------<br>--- ----- -- ----,187366.76999996416,187365.46499992255,186510.104,186521.40999992844,186526.77,187376.874,,12,says
screen,html.Screen,2_1_0_1_13,2021-04-27T08:32:04.942Z,,,,,,,,,,,,,,,,,53,,,,,,,,,,,,,,471.0459999710438,,response,,,,99,,,,,,,Space,keypress(Space),,,,,,,,---- -- ----- -- ------ - ------- --- ----------<br>------------- ------ ------ ---- that ------- ----- -- ----<br>-------- ------- -- ---------- --- - --- ----- ----- ----<br>---- --- --- ----- --- ---- ---- ------- ----- ---- -------<br>--- --- -- ----- -- --- ---- -- --- ---- -- ------ ------<br>--- ----- -- ----,187848.85499998927,187847.91999997105,187360.208,187367.07999999635,187376.874,187860.312,,13,that
screen,html.Screen,2_1_0_1_14,2021-04-27T08:32:05.602Z,,,,,,,,,,,,,,,,,53,,,,,,,,,,,,,,646.5779999605438,,response,,,,99,,,,,,,Space,keypress(Space),,,,,,,,---- -- ----- -- ------ - ------- --- ----------<br>------------- ------ ------ ---- ---- feeling ----- -- ----<br>-------- ------- -- ---------- --- - --- ----- ----- ----<br>---- --- --- ----- --- ---- ---- ------- ----- ---- -------<br>--- --- -- ----- -- --- ---- -- --- ---- -- ------ ------<br>--- ----- -- ----,188508.22999991942,188506.88999996055,187843.646,187849.1099999519,187860.312,188510.523,,14,feeling
screen,html.Screen,2_1_0_1_15,2021-04-27T08:32:06.048Z,,,,,,,,,,,,,,,,,53,,,,,,,,,,,,,,442.291999967827,,response,,,,99,,,,,,,Space,keypress(Space),,,,,,,,---- -- ----- -- ------ - ------- --- ----------<br>------------- ------ ------ ---- ---- ------- close -- ----<br>-------- ------- -- ---------- --- - --- ----- ----- ----<br>---- --- --- ----- --- ---- ---- ------- ----- ---- -------<br>--- --- -- ----- -- --- ---- -- --- ---- -- ------ ------<br>--- ----- -- ----,188954.15999996476,188952.8149999678,188493.857,188508.5249999538,188510.523,188960.56,,15,close
screen,html.Screen,2_1_0_1_16,2021-04-27T08:32:06.445Z,,,,,,,,,,,,,,,,,53,,,,,,,,,,,,,,389.01999992184574,,response,,,,99,,,,,,,Space,keypress(Space),,,,,,,,---- -- ----- -- ------ - ------- --- ----------<br>------------- ------ ------ ---- ---- ------- ----- to ----<br>-------- ------- -- ---------- --- - --- ----- ----- ----<br>---- --- --- ----- --- ---- ---- ------- ----- ---- -------<br>--- --- -- ----- -- --- ---- -- --- ---- -- ------ ------<br>--- ----- -- ----,189351.09499993268,189349.57999992184,188943.894,188954.4599999208,188960.56,189360.702,,16,to
screen,html.Screen,2_1_0_1_17,2021-04-27T08:32:06.850Z,,,,,,,,,,,,,,,,,53,,,,,,,,,,,,,,394.5929999226355,,response,,,,99,,,,,,,Space,keypress(Space),,,,,,,,---- -- ----- -- ------ - ------- --- ----------<br>------------- ------ ------ ---- ---- ------- ----- -- your<br>-------- ------- -- ---------- --- - --- ----- ----- ----<br>---- --- --- ----- --- ---- ---- ------- ----- ---- -------<br>--- --- -- ----- -- --- ---- -- --- ---- -- ------ ------<br>--- ----- -- ----,189756.6850000294,189755.29499992263,189344.036,189351.3999999268,189360.702,189760.765,,17,your
screen,html.Screen,2_1_0_1_18,2021-04-27T08:32:07.739Z,,,,,,,,,,,,,,,,,53,,,,,,,,,,,,,,883.5749999989057,,response,,,,99,,,,,,,Space,keypress(Space),,,,,,,,---- -- ----- -- ------ - ------- --- ----------<br>------------- ------ ------ ---- ---- ------- ----- -- ----<br>romantic ------- -- ---------- --- - --- ----- ----- ----<br>---- --- --- ----- --- ---- ---- ------- ----- ---- -------<br>--- --- -- ----- -- --- ---- -- --- ---- -- ------ ------<br>--- ----- -- ----,190645.68999991752,190644.33999999892,189744.099,189756.9900000235,189760.765,190660.832,,18,romantic
screen,html.Screen,2_1_0_1_19,2021-04-27T08:32:08.119Z,,,,,,,,,,,,,,,,,53,,,,,,,,,,,,,,362.91799993481254,,response,,,,99,,,,,,,Space,keypress(Space),,,,,,,,---- -- ----- -- ------ - ------- --- ----------<br>------------- ------ ------ ---- ---- ------- ----- -- ----<br>-------- partner -- ---------- --- - --- ----- ----- ----<br>---- --- --- ----- --- ---- ---- ------- ----- ---- -------<br>--- --- -- ----- -- --- ---- -- --- ---- -- ------ ------<br>--- ----- -- ----,191025.06999997422,191023.7499999348,190644.166,190645.98999998998,190660.832,191027.586,,19,partner
screen,html.Screen,2_1_0_1_20,2021-04-27T08:32:08.585Z,,,,,,,,,,,,,,,,,53,,,,,,,,,,,,,,462.34899996139575,,response,,,,99,,,,,,,Space,keypress(Space),,,,,,,,---- -- ----- -- ------ - ------- --- ----------<br>------------- ------ ------ ---- ---- ------- ----- -- ----<br>-------- ------- is ---------- --- - --- ----- ----- ----<br>---- --- --- ----- --- ---- ---- ------- ----- ---- -------<br>--- --- -- ----- -- --- ---- -- --- ---- -- ------ ------<br>--- ----- -- ----,191491.27999995835,191489.9349999614,191010.92,191025.35999997053,191027.586,191494.43,,20,is
screen,html.Screen,2_1_0_1_21,2021-04-27T08:32:09.013Z,,,,,,,,,,,,,,,,,53,,,,,,,,,,,,,,423.92499997251434,,response,,,,99,,,,,,,Space,keypress(Space),,,,,,,,---- -- ----- -- ------ - ------- --- ----------<br>------------- ------ ------ ---- ---- ------- ----- -- ----<br>-------- ------- -- paramount. --- - --- ----- ----- ----<br>---- --- --- ----- --- ---- ---- ------- ----- ---- -------<br>--- --- -- ----- -- --- ---- -- --- ---- -- ------ ------<br>--- ----- -- ----,191919.23499992117,191918.3549999725,191477.764,191491.58499995247,191494.43,191927.805,,21,paramount.
screen,html.Screen,2_1_0_1_22,2021-04-27T08:32:09.440Z,,,,,,,,,,,,,,,,,53,,,,,,,,,,,,,,417.3949999815668,,response,,,,99,,,,,,,Space,keypress(Space),,,,,,,,---- -- ----- -- ------ - ------- --- ----------<br>------------- ------ ------ ---- ---- ------- ----- -- ----<br>-------- ------- -- ---------- But - --- ----- ----- ----<br>---- --- --- ----- --- ---- ---- ------- ----- ---- -------<br>--- --- -- ----- -- --- ---- -- --- ---- -- ------ ------<br>--- ----- -- ----,192346.53999994043,192345.19999998156,191911.139,191919.48499996215,191927.805,192361.227,,22,But
screen,html.Screen,2_1_0_1_23,2021-04-27T08:32:09.917Z,,,,,,,,,,,,,,,,,53,,,,,,,,,,,,,,461.3479999983101,,response,,,,99,,,,,,,Space,keypress(Space),,,,,,,,---- -- ----- -- ------ - ------- --- ----------<br>------------- ------ ------ ---- ---- ------- ----- -- ----<br>-------- ------- -- ---------- --- a --- ----- ----- ----<br>---- --- --- ----- --- ---- ---- ------- ----- ---- -------<br>--- --- -- ----- -- --- ---- -- --- ---- -- ------ ------<br>--- ----- -- ----,192823.87500000186,192822.57499999832,192344.561,192346.84499993455,192361.227,192827.979,,23,a
screen,html.Screen,2_1_0_1_24,2021-04-27T08:32:10.531Z,,,,,,,,,,,,,,,,,53,,,,,,,,,,,,,,608.0209999869694,,response,,,,99,,,,,,,Space,keypress(Space),,,,,,,,---- -- ----- -- ------ - ------- --- ----------<br>------------- ------ ------ ---- ---- ------- ----- -- ----<br>-------- ------- -- ---------- --- - new ----- ----- ----<br>---- --- --- ----- --- ---- ---- ------- ----- ---- -------<br>--- --- -- ----- -- --- ---- -- --- ---- -- ------ ------<br>--- ----- -- ----,193437.38000001758,193435.99999998696,192811.313,192824.18499991763,192827.979,193444.695,,24,new
screen,html.Screen,2_1_0_1_25,2021-04-27T08:32:10.991Z,,,,,,,,,,,,,,,,,53,,,,,,,,,,,,,,451.0199999914621,,response,,,,99,,,,,,,Space,keypress(Space),,,,,,,,---- -- ----- -- ------ - ------- --- ----------<br>------------- ------ ------ ---- ---- ------- ----- -- ----<br>-------- ------- -- ---------- --- - --- study ----- ----<br>---- --- --- ----- --- ---- ---- ------- ----- ---- -------<br>--- --- -- ----- -- --- ---- -- --- ---- -- ------ ------<br>--- ----- -- ----,193897.03500003088,193895.71499999147,193428.029,193437.6700000139,193444.695,193911.461,,25,study
screen,html.Screen,2_1_0_1_26,2021-04-27T08:32:11.354Z,,,,,,,,,,,,,,,,,53,,,,,,,,,,,,,,348.3839999932097,,response,,,,99,,,,,,,Space,keypress(Space),,,,,,,,---- -- ----- -- ------ - ------- --- ----------<br>------------- ------ ------ ---- ---- ------- ----- -- ----<br>-------- ------- -- ---------- --- - --- ----- finds ----<br>---- --- --- ----- --- ---- ---- ------- ----- ---- -------<br>--- --- -- ----- -- --- ---- -- --- ---- -- ------ ------<br>--- ----- -- ----,194260.75999997556,194259.84499999322,193894.795,193897.37499994226,193911.461,194261.58,,26,finds
screen,html.Screen,2_1_0_1_27,2021-04-27T08:32:11.881Z,,,,,,,,,,,,,,,,,53,,,,,,,,,,,,,,524.5599999819824,,response,,,,99,,,,,,,Space,keypress(Space),,,,,,,,---- -- ----- -- ------ - ------- --- ----------<br>------------- ------ ------ ---- ---- ------- ----- -- ----<br>-------- ------- -- ---------- --- - --- ----- ----- that<br>---- --- --- ----- --- ---- ---- ------- ----- ---- -------<br>--- --- -- ----- -- --- ---- -- --- ---- -- ------ ------<br>--- ----- -- ----,194787.06000000238,194786.13999998197,194244.914,194261.029999936,194261.58,194794.992,,27,that
screen,html.Screen,2_1_0_1_28,2021-04-27T08:32:12.321Z,,,,,,,,,,,,,,,,,53,,,,,,,,,,,,,,431.5679999809654,,response,,,,99,,,,,,,Space,keypress(Space),,,,,,,,---- -- ----- -- ------ - ------- --- ----------<br>------------- ------ ------ ---- ---- ------- ----- -- ----<br>-------- ------- -- ---------- --- - --- ----- ----- ----<br>it's --- --- ----- --- ---- ---- ------- ----- ---- -------<br>--- --- -- ----- -- --- ---- -- --- ---- -- ------ ------<br>--- ----- -- ----,195227.88000002038,195226.55999998096,194778.326,194787.33999992255,194794.992,195245.048,,28,it's
screen,html.Screen,2_1_0_1_29,2021-04-27T08:32:12.749Z,,,,,,,,,,,,,,,,,53,,,,,,,,,,,,,,409.42199995036935,,response,,,,99,,,,,,,Space,keypress(Space),,,,,,,,---- -- ----- -- ------ - ------- --- ----------<br>------------- ------ ------ ---- ---- ------- ----- -- ----<br>-------- ------- -- ---------- --- - --- ----- ----- ----<br>---- not --- ----- --- ---- ---- ------- ----- ---- -------<br>--- --- -- ----- -- --- ---- -- --- ---- -- ------ ------<br>--- ----- -- ----,195655.79500002787,195654.46999995038,195228.382,195228.20499993395,195245.048,195661.813,,29,not
screen,html.Screen,2_1_0_1_30,2021-04-27T08:32:13.167Z,,,,,,,,,,,,,,,,,53,,,,,,,,,,,,,,410.4270000086108,,response,,,,99,,,,,,,Space,keypress(Space),,,,,,,,---- -- ----- -- ------ - ------- --- ----------<br>------------- ------ ------ ---- ---- ------- ----- -- ----<br>-------- ------- -- ---------- --- - --- ----- ----- ----<br>---- --- how ----- --- ---- ---- ------- ----- ---- -------<br>--- --- -- ----- -- --- ---- -- --- ---- -- ------ ------<br>--- ----- -- ----,196073.5749999294,196072.2400000086,195645.147,195656.0949999839,195661.813,196078.586,,30,how
screen,html.Screen,2_1_0_1_31,2021-04-27T08:32:13.546Z,,,,,,,,,,,,,,,,,53,,,,,,,,,,,,,,372.9190000045346,,response,,,,99,,,,,,,Space,keypress(Space),,,,,,,,---- -- ----- -- ------ - ------- --- ----------<br>------------- ------ ------ ---- ---- ------- ----- -- ----<br>-------- ------- -- ---------- --- - --- ----- ----- ----<br>---- --- --- close --- ---- ---- ------- ----- ---- -------<br>--- --- -- ----- -- --- ---- -- --- ---- -- ------ ------<br>--- ----- -- ----,196452.82499992754,196451.50500000454,196061.92,196073.86499992572,196078.586,196461.985,,31,close
screen,html.Screen,2_1_0_1_32,2021-04-27T08:32:13.949Z,,,,,,,,,,,,,,,,,53,,,,,,,,,,,,,,392.0749999250984,,response,,,,99,,,,,,,Space,keypress(Space),,,,,,,,---- -- ----- -- ------ - ------- --- ----------<br>------------- ------ ------ ---- ---- ------- ----- -- ----<br>-------- ------- -- ---------- --- - --- ----- ----- ----<br>---- --- --- ----- you ---- ---- ------- ----- ---- -------<br>--- --- -- ----- -- --- ---- -- --- ---- -- ------ ------<br>--- ----- -- ----,196855.45999999158,196854.05999992508,196445.319,196453.11999996193,196461.985,196862.058,,32,you
screen,html.Screen,2_1_0_1_33,2021-04-27T08:32:14.334Z,,,,,,,,,,,,,,,,,53,,,,,,,,,,,,,,377.2669999731879,,response,,,,99,,,,,,,Space,keypress(Space),,,,,,,,---- -- ----- -- ------ - ------- --- ----------<br>------------- ------ ------ ---- ---- ------- ----- -- ----<br>-------- ------- -- ---------- --- - --- ----- ----- ----<br>---- --- --- ----- --- feel ---- ------- ----- ---- -------<br>--- --- -- ----- -- --- ---- -- --- ---- -- ------ ------<br>--- ----- -- ----,197240.6450000126,197239.32499997318,196845.392,196855.77000002377,196862.058,197245.478,,33,feel
screen,html.Screen,2_1_0_1_34,2021-04-27T08:32:14.704Z,,,,,,,,,,,,,,,,,53,,,,,,,,,,,,,,362.86199991882313,,response,,,,99,,,,,,,Space,keypress(Space),,,,,,,,---- -- ----- -- ------ - ------- --- ----------<br>------------- ------ ------ ---- ---- ------- ----- -- ----<br>-------- ------- -- ---------- --- - --- ----- ----- ----<br>---- --- --- ----- --- ---- that ------- ----- ---- -------<br>--- --- -- ----- -- --- ---- -- --- ---- -- ------ ------<br>--- ----- -- ----,197610.25499994867,197608.33999991883,197228.812,197240.9500000067,197245.478,197612.206,,34,that
screen,html.Screen,2_1_0_1_35,2021-04-27T08:32:15.061Z,,,,,,,,,,,,,,,,,53,,,,,,,,,,,,,,354.6340000082273,,response,,,,99,,,,,,,Space,keypress(Space),,,,,,,,---- -- ----- -- ------ - ------- --- ----------<br>------------- ------ ------ ---- ---- ------- ----- -- ----<br>-------- ------- -- ---------- --- - --- ----- ----- ----<br>---- --- --- ----- --- ---- ---- matters ----- ---- -------<br>--- --- -- ----- -- --- ---- -- --- ---- -- ------ ------<br>--- ----- -- ----,197967.81499998178,197966.84000000823,197595.54,197610.55999994278,197612.206,197978.941,,35,matters
screen,html.Screen,2_1_0_1_36,2021-04-27T08:32:15.564Z,,,,,,,,,,,,,,,,,53,,,,,,,,,,,,,,489.5939999927068,,response,,,,99,,,,,,,Space,keypress(Space),,,,,,,,"---- -- ----- -- ------ - ------- --- ----------<br>------------- ------ ------ ---- ---- ------- ----- -- ----<br>-------- ------- -- ---------- --- - --- ----- ----- ----<br>---- --- --- ----- --- ---- ---- ------- most, ---- -------<br>--- --- -- ----- -- --- ---- -- --- ---- -- ------ ------<br>--- ----- -- ----",198470.21499997936,198468.5349999927,197962.275,197969.52499996405,197978.941,198479.022,,36,"most,"
screen,html.Screen,2_1_0_1_37,2021-04-27T08:32:16.048Z,,,,,,,,,,,,,,,,,53,,,,,,,,,,,,,,474.20799998461735,,response,,,,99,,,,,,,Space,keypress(Space),,,,,,,,---- -- ----- -- ------ - ------- --- ----------<br>------------- ------ ------ ---- ---- ------- ----- -- ----<br>-------- ------- -- ---------- --- - --- ----- ----- ----<br>---- --- --- ----- --- ---- ---- ------- ----- it's -------<br>--- --- -- ----- -- --- ---- -- --- ---- -- ------ ------<br>--- ----- -- ----,198954.50999995228,198953.2299999846,198462.356,198470.49500001594,198479.022,198962.39,,37,it's
screen,html.Screen,2_1_0_1_38,2021-04-27T08:32:16.495Z,,,,,,,,,,,,,,,,,53,,,,,,,,,,,,,,437.6949999720091,,response,,,,99,,,,,,,Space,keypress(Space),,,,,,,,---- -- ----- -- ------ - ------- --- ----------<br>------------- ------ ------ ---- ---- ------- ----- -- ----<br>-------- ------- -- ---------- --- - --- ----- ----- ----<br>---- --- --- ----- --- ---- ---- ------- ----- ---- whether<br>--- --- -- ----- -- --- ---- -- --- ---- -- ------ ------<br>--- ----- -- ----,199401.3799999375,199400.08499997202,198945.724,198954.81000002474,198962.39,199412.481,,38,whether
screen,html.Screen,2_1_0_1_39,2021-04-27T08:32:16.949Z,,,,,,,,,,,,,,,,,53,,,,,,,,,,,,,,442.1439999199065,,response,,,,99,,,,,,,Space,keypress(Space),,,,,,,,---- -- ----- -- ------ - ------- --- ----------<br>------------- ------ ------ ---- ---- ------- ----- -- ----<br>-------- ------- -- ---------- --- - --- ----- ----- ----<br>---- --- --- ----- --- ---- ---- ------- ----- ---- -------<br>you --- -- ----- -- --- ---- -- --- ---- -- ------ ------<br>--- ----- -- ----,199855.90999992564,199854.6249999199,199395.815,199401.66500001214,199412.481,199862.57,,39,you
screen,html.Screen,2_1_0_1_40,2021-04-27T08:32:17.357Z,,,,,,,,,,,,,,,,,53,,,,,,,,,,,,,,399.13999999157386,,response,,,,99,,,,,,,Space,keypress(Space),,,,,,,,---- -- ----- -- ------ - ------- --- ----------<br>------------- ------ ------ ---- ---- ------- ----- -- ----<br>-------- ------- -- ---------- --- - --- ----- ----- ----<br>---- --- --- ----- --- ---- ---- ------- ----- ---- -------<br>--- are -- ----- -- --- ---- -- --- ---- -- ------ ------<br>--- ----- -- ----,200262.99499999732,200261.70999999158,199845.904,199856.17499996442,199862.57,200279.321,,40,are
screen,html.Screen,2_1_0_1_41,2021-04-27T08:32:17.777Z,,,,,,,,,,,,,,,,,53,,,,,,,,,,,,,,403.03899997705594,,response,,,,99,,,,,,,Space,keypress(Space),,,,,,,,---- -- ----- -- ------ - ------- --- ----------<br>------------- ------ ------ ---- ---- ------- ----- -- ----<br>-------- ------- -- ---------- --- - --- ----- ----- ----<br>---- --- --- ----- --- ---- ---- ------- ----- ---- -------<br>--- --- as ----- -- --- ---- -- --- ---- -- ------ ------<br>--- ----- -- ----,200683.22499992792,200682.35999997705,200262.655,200263.27499991748,200279.321,200696.072,,41,as
screen,html.Screen,2_1_0_1_42,2021-04-27T08:32:18.217Z,,,,,,,,,,,,,,,,,53,,,,,,,,,,,,,,426.48300000902964,,response,,,,99,,,,,,,Space,keypress(Space),,,,,,,,---- -- ----- -- ------ - ------- --- ----------<br>------------- ------ ------ ---- ---- ------- ----- -- ----<br>-------- ------- -- ---------- --- - --- ----- ----- ----<br>---- --- --- ----- --- ---- ---- ------- ----- ---- -------<br>--- --- -- close -- --- ---- -- --- ---- -- ------ ------<br>--- ----- -- ----,201123.88500000816,201122.55500000902,200679.406,200683.4599999711,200696.072,201129.474,,42,close
screen,html.Screen,2_1_0_1_43,2021-04-27T08:32:18.612Z,,,,,,,,,,,,,,,,,53,,,,,,,,,,,,,,387.33100002113497,,response,,,,99,,,,,,,Space,keypress(Space),,,,,,,,---- -- ----- -- ------ - ------- --- ----------<br>------------- ------ ------ ---- ---- ------- ----- -- ----<br>-------- ------- -- ---------- --- - --- ----- ----- ----<br>---- --- --- ----- --- ---- ---- ------- ----- ---- -------<br>--- --- -- ----- as --- ---- -- --- ---- -- ------ ------<br>--- ----- -- ----,201518.29499995802,201516.80500002112,201112.808,201124.1699999664,201129.474,201529.567,,43,as
screen,html.Screen,2_1_0_1_44,2021-04-27T08:32:19.009Z,,,,,,,,,,,,,,,,,53,,,,,,,,,,,,,,385.0579999757756,,response,,,,99,,,,,,,Space,keypress(Space),,,,,,,,---- -- ----- -- ------ - ------- --- ----------<br>------------- ------ ------ ---- ---- ------- ----- -- ----<br>-------- ------- -- ---------- --- - --- ----- ----- ----<br>---- --- --- ----- --- ---- ---- ------- ----- ---- -------<br>--- --- -- ----- -- you ---- -- --- ---- -- ------ ------<br>--- ----- -- ----,201915.5150000006,201914.6249999758,201512.901,201518.5749999946,201529.567,201929.627,,44,you
screen,html.Screen,2_1_0_1_45,2021-04-27T08:32:19.415Z,,,,,,,,,,,,,,,,,53,,,,,,,,,,,,,,390.3830000249145,,response,,,,99,,,,,,,Space,keypress(Space),,,,,,,,---- -- ----- -- ------ - ------- --- ----------<br>------------- ------ ------ ---- ---- ------- ----- -- ----<br>-------- ------- -- ---------- --- - --- ----- ----- ----<br>---- --- --- ----- --- ---- ---- ------- ----- ---- -------<br>--- --- -- ----- -- --- want -- --- ---- -- ------ ------<br>--- ----- -- ----,202321.31000002846,202320.01000002492,201912.961,201915.7600000035,201929.627,202329.698,,45,want
screen,html.Screen,2_1_0_1_46,2021-04-27T08:32:19.783Z,,,,,,,,,,,,,,,,,53,,,,,,,,,,,,,,357.75199996851734,,response,,,,99,,,,,,,Space,keypress(Space),,,,,,,,---- -- ----- -- ------ - ------- --- ----------<br>------------- ------ ------ ---- ---- ------- ----- -- ----<br>-------- ------- -- ---------- --- - --- ----- ----- ----<br>---- --- --- ----- --- ---- ---- ------- ----- ---- -------<br>--- --- -- ----- -- --- ---- to --- ---- -- ------ ------<br>--- ----- -- ----,202689.13499999326,202687.44999996852,202313.032,202324.21500002965,202329.698,202696.457,,46,to
screen,html.Screen,2_1_0_1_47,2021-04-27T08:32:20.114Z,,,,,,,,,,,,,,,,,53,,,,,,,,,,,,,,322.2829999704263,,response,,,,99,,,,,,,Space,keypress(Space),,,,,,,,"---- -- ----- -- ------ - ------- --- ----------<br>------------- ------ ------ ---- ---- ------- ----- -- ----<br>-------- ------- -- ---------- --- - --- ----- ----- ----<br>---- --- --- ----- --- ---- ---- ------- ----- ---- -------<br>--- --- -- ----- -- --- ---- -- be, ---- -- ------ ------<br>--- ----- -- ----",203019.98999994248,203018.73999997042,202679.791,202689.40000003204,202696.457,203029.864,,47,"be,"
screen,html.Screen,2_1_0_1_48,2021-04-27T08:32:20.674Z,,,,,,,,,,,,,,,,,53,,,,,,,,,,,,,,548.7309999699355,,response,,,,99,,,,,,,Space,keypress(Space),,,,,,,,---- -- ----- -- ------ - ------- --- ----------<br>------------- ------ ------ ---- ---- ------- ----- -- ----<br>-------- ------- -- ---------- --- - --- ----- ----- ----<br>---- --- --- ----- --- ---- ---- ------- ----- ---- -------<br>--- --- -- ----- -- --- ---- -- --- even -- ------ ------<br>--- ----- -- ----,203580.00499999616,203578.59499996994,203013.198,203020.25499998126,203029.864,203596.586,,48,even
screen,html.Screen,2_1_0_1_49,2021-04-27T08:32:21.085Z,,,,,,,,,,,,,,,,,53,,,,,,,,,,,,,,393.6389999577077,,response,,,,99,,,,,,,Space,keypress(Space),,,,,,,,---- -- ----- -- ------ - ------- --- ----------<br>------------- ------ ------ ---- ---- ------- ----- -- ----<br>-------- ------- -- ---------- --- - --- ----- ----- ----<br>---- --- --- ----- --- ---- ---- ------- ----- ---- -------<br>--- --- -- ----- -- --- ---- -- --- ---- if ------ ------<br>--- ----- -- ----,203991.64499994367,203990.22499995772,203579.92,203580.27999999467,203596.586,203996.648,,49,if
screen,html.Screen,2_1_0_1_50,2021-04-27T08:32:21.500Z,,,,,,,,,,,,,,,,,53,,,,,,,,,,,,,,408.7620000066818,,response,,,,99,,,,,,,Space,keypress(Space),,,,,,,,---- -- ----- -- ------ - ------- --- ----------<br>------------- ------ ------ ---- ---- ------- ----- -- ----<br>-------- ------- -- ---------- --- - --- ----- ----- ----<br>---- --- --- ----- --- ---- ---- ------- ----- ---- -------<br>--- --- -- ----- -- --- ---- -- --- ---- -- that's ------<br>--- ----- -- ----,204406.77000000142,204405.41000000667,203979.982,203991.93000001833,203996.648,204413.426,,50,that's
screen,html.Screen,2_1_0_1_51,2021-04-27T08:32:21.946Z,,,,,,,,,,,,,,,,,53,,,,,,,,,,,,,,437.8839999399788,,response,,,,99,,,,,,,Space,keypress(Space),,,,,,,,---- -- ----- -- ------ - ------- --- ----------<br>------------- ------ ------ ---- ---- ------- ----- -- ----<br>-------- ------- -- ---------- --- - --- ----- ----- ----<br>---- --- --- ----- --- ---- ---- ------- ----- ---- -------<br>--- --- -- ----- -- --- ---- -- --- ---- -- ------ really<br>--- ----- -- ----,204852.6149999816,204851.30999994,204396.76,204407.04499999993,204413.426,204863.477,,51,really
screen,html.Screen,2_1_0_1_52,2021-04-27T08:32:22.371Z,,,,,,,,,,,,,,,,,53,,,,,,,,,,,,,,412.65300001291325,,response,,,,99,,,,,,,Space,keypress(Space),,,,,,,,---- -- ----- -- ------ - ------- --- ----------<br>------------- ------ ------ ---- ---- ------- ----- -- ----<br>-------- ------- -- ---------- --- - --- ----- ----- ----<br>---- --- --- ----- --- ---- ---- ------- ----- ---- -------<br>--- --- -- ----- -- --- ---- -- --- ---- -- ------ ------<br>not ----- -- ----,205277.41500001866,205276.13000001293,204846.811,204852.88000002038,204863.477,205280.214,,52,not
screen,html.Screen,2_1_0_1_53,2021-04-27T08:32:22.764Z,,,,,,,,,,,,,,,,,53,,,,,,,,,,,,,,388.5460000295716,,response,,,,99,,,,,,,Space,keypress(Space),,,,,,,,---- -- ----- -- ------ - ------- --- ----------<br>------------- ------ ------ ---- ---- ------- ----- -- ----<br>-------- ------- -- ---------- --- - --- ----- ----- ----<br>---- --- --- ----- --- ---- ---- ------- ----- ---- -------<br>--- --- -- ----- -- --- ---- -- --- ---- -- ------ ------<br>--- close -- ----,205670.0299999211,205668.76000002958,205263.548,205277.69000001717,205280.214,205680.307,,53,close
screen,html.Screen,2_1_0_1_54,2021-04-27T08:32:23.126Z,,,,,,,,,,,,,,,,,53,,,,,,,,,,,,,,351.6480000131123,,response,,,,99,,,,,,,Space,keypress(Space),,,,,,,,---- -- ----- -- ------ - ------- --- ----------<br>------------- ------ ------ ---- ---- ------- ----- -- ----<br>-------- ------- -- ---------- --- - --- ----- ----- ----<br>---- --- --- ----- --- ---- ---- ------- ----- ---- -------<br>--- --- -- ----- -- --- ---- -- --- ---- -- ------ ------<br>--- ----- at ----,206032.8749999171,206031.9550000131,205663.641,205670.3049999196,205680.307,206047.065,,54,at
screen,html.Screen,2_1_0_1_55,2021-04-27T08:32:23.677Z,,,,,,,,,,,,,,,,,53,,,,,,,,,,,,,,535.1349999461672,,response,,,,99,,,,,,,Space,keypress(Space),,,,,,,,---- -- ----- -- ------ - ------- --- ----------<br>------------- ------ ------ ---- ---- ------- ----- -- ----<br>-------- ------- -- ---------- --- - --- ----- ----- ----<br>---- --- --- ----- --- ---- ---- ------- ----- ---- -------<br>--- --- -- ----- -- --- ---- -- --- ---- -- ------ ------<br>--- ----- -- all.,206583.51999998558,206582.19999994617,206030.399,206033.11499999836,206047.065,206597.114,,55,all.
Item 99,flow.Loop,2_1_0_1,2021-04-27T08:32:23.678Z,,,,,,,,,,,,,,,,,,,,,,,,,,,,,,,26423.43899994617,,completion,,,,,F,,,,,,,,,,,silence,,,,,206584.039999987,206582.19999994617,180025.433,180030.68999992684,180158.761,206597.114,,,
Question 1,html.Screen,2_1_0_2,2021-04-27T08:32:27.833Z,,,,,,,,,,,,,,,,,,,,,,,,,,,,false,FALSE,,4140.1360000055865,,response,,,,99,F,,,,,,TRUE,click #choice-1,,,,silence,,,,,210739.56000001635,210737.2500000056,206580.448,206584.26499995403,206597.114,210748.07,,,
Question 2,html.Screen,2_1_0_3,2021-04-27T08:32:32.027Z,,,,,,,,,,,,,,,,,,,,,,,,,,,,true,TRUE,,4183.2449999361415,,response,,,,99,F,,,,,,TRUE,click #choice-1,,,,silence,,,,,214933.65499994252,214931.31499993615,210731.404,210739.91499992553,210748.07,214948.777,,,
Item 99,flow.Sequence,2_1_0,2021-04-27T08:32:32.028Z,,,,,,,,,,,,,,,,,,,,,,,,,,,,,,,44890.64299993616,,completion,,,,,,,,,,,,,,,,,,,,,214934.23999997322,214931.31499993615,170024.006,170036.49500000756,170040.672,214948.777,,,
Holding screen,html.Screen,2_1_1_0,2021-04-27T08:32:42.034Z,,,,,,,,,,,,,,,,,,,,,,,,,,,,,,,10001.413,,timeout,,,,,,,,,,,,,,,,,,,,,224940.2799999807,224933.524,214932.111,214934.52499993145,214948.777,224950.19,,,
screen,html.Screen,2_1_1_1_0,2021-04-27T08:32:42.586Z,,,,,,,,,,,,,,,,,54,,,,,,,,,,,,,,540.5549999591312,,response,,,,100,,,,,,,Space,keypress(Space),,,,,,,,At --- ---- --- ------ ----- ------- ---- -- --- ------- --<br>------- ---------- ------ -- ----- -- ----- -- ---- ------<br>--- ----- --- --- ------ -------- ----- --- ------ ----- --<br>----- ----- ---------- --- --- ------ ------ ---- -- ------<br>------- --- ------ ----- --- ---- ------- -- ---- --- --<br>------- ------,225491.98499997146,225490.74499995913,224933.524,224940.6350000063,224950.19,225500.464,,0,At
screen,html.Screen,2_1_1_1_1,2021-04-27T08:32:42.937Z,,,,,,,,,,,,,,,,,54,,,,,,,,,,,,,,341.40099996575736,,response,,,,100,,,,,,,Space,keypress(Space),,,,,,,,-- the ---- --- ------ ----- ------- ---- -- --- ------- --<br>------- ---------- ------ -- ----- -- ----- -- ---- ------<br>--- ----- --- --- ------ -------- ----- --- ------ ----- --<br>----- ----- ---------- --- --- ------ ------ ---- -- ------<br>------- --- ------ ----- --- ---- ------- -- ---- --- --<br>------- ------,225843.17000000738,225841.86499996576,225483.798,225492.3149999231,225500.464,225850.618,,1,the
screen,html.Screen,2_1_1_1_2,2021-04-27T08:32:43.308Z,,,,,,,,,,,,,,,,,54,,,,,,,,,,,,,,362.71699997855467,,response,,,,100,,,,,,,Space,keypress(Space),,,,,,,,-- --- time --- ------ ----- ------- ---- -- --- ------- --<br>------- ---------- ------ -- ----- -- ----- -- ---- ------<br>--- ----- --- --- ------ -------- ----- --- ------ ----- --<br>----- ----- ---------- --- --- ------ ------ ---- -- ------<br>------- --- ------ ----- --- ---- ------- -- ---- --- --<br>------- ------,226214.1399999382,226213.33499997854,225833.952,225843.45499996562,225850.618,226217.397,,2,time
screen,html.Screen,2_1_1_1_3,2021-04-27T08:32:43.644Z,,,,,,,,,,,,,,,,,54,,,,,,,,,,,,,,331.61799999687355,,response,,,,100,,,,,,,Space,keypress(Space),,,,,,,,-- --- ---- the ------ ----- ------- ---- -- --- ------- --<br>------- ---------- ------ -- ----- -- ----- -- ---- ------<br>--- ----- --- --- ------ -------- ----- --- ------ ----- --<br>----- ----- ---------- --- --- ------ ------ ---- -- ------<br>------- --- ------ ----- --- ---- ------- -- ---- --- --<br>------- ------,226550.34999991767,226549.01499999687,226200.731,226214.34499998577,226217.397,226567.433,,3,the
screen,html.Screen,2_1_1_1_4,2021-04-27T08:32:43.990Z,,,,,,,,,,,,,,,,,54,,,,,,,,,,,,,,327.7619999900635,,response,,,,100,,,,,,,Space,keypress(Space),,,,,,,,-- --- ---- --- French ----- ------- ---- -- --- ------- --<br>------- ---------- ------ -- ----- -- ----- -- ---- ------<br>--- ----- --- --- ------ -------- ----- --- ------ ----- --<br>----- ----- ---------- --- --- ------ ------ ---- -- ------<br>------- --- ------ ----- --- ---- ------- -- ---- --- --<br>------- ------,226896.4500000002,226895.19499999005,226550.767,226550.61999999452,226567.433,226900.857,,4,French
screen,html.Screen,2_1_1_1_5,2021-04-27T08:32:44.335Z,,,,,,,,,,,,,,,,,54,,,,,,,,,,,,,,339.42300002728007,,response,,,,100,,,,,,,Space,keypress(Space),,,,,,,,-- --- ---- --- ------ crown ------- ---- -- --- ------- --<br>------- ---------- ------ -- ----- -- ----- -- ---- ------<br>--- ----- --- --- ------ -------- ----- --- ------ ----- --<br>----- ----- ---------- --- --- ------ ------ ---- -- ------<br>------- --- ------ ----- --- ---- ------- -- ---- --- --<br>------- ------,227241.67000001762,227240.28000002727,226884.191,226896.74999995623,226900.857,227250.889,,5,crown
screen,html.Screen,2_1_1_1_6,2021-04-27T08:32:44.722Z,,,,,,,,,,,,,,,,,54,,,,,,,,,,,,,,376.74100000268663,,response,,,,100,,,,,,,Space,keypress(Space),,,,,,,,-- --- ---- --- ------ ----- secured ---- -- --- ------- --<br>------- ---------- ------ -- ----- -- ----- -- ---- ------<br>--- ----- --- --- ------ -------- ----- --- ------ ----- --<br>----- ----- ---------- --- --- ------ ------ ---- -- ------<br>------- --- ------ ----- --- ---- ------- -- ---- --- --<br>------- ------,227628.44999996014,227627.63000000268,227234.223,227241.93999997806,227250.889,227634.294,,6,secured
screen,html.Screen,2_1_1_1_7,2021-04-27T08:32:45.167Z,,,,,,,,,,,,,,,,,54,,,,,,,,,,,,,,438.14099998003803,,response,,,,100,,,,,,,Space,keypress(Space),,,,,,,,-- --- ---- --- ------ ----- ------- much -- --- ------- --<br>------- ---------- ------ -- ----- -- ----- -- ---- ------<br>--- ----- --- --- ------ -------- ----- --- ------ ----- --<br>----- ----- ---------- --- --- ------ ------ ---- -- ------<br>------- --- ------ ----- --- ---- ------- -- ---- --- --<br>------- ------,228073.69500002824,228072.43499998003,227617.628,227628.67999996524,227634.294,228084.366,,7,much
screen,html.Screen,2_1_1_1_8,2021-04-27T08:32:45.679Z,,,,,,,,,,,,,,,,,54,,,,,,,,,,,,,,500.1789999906032,,response,,,,100,,,,,,,Space,keypress(Space),,,,,,,,-- --- ---- --- ------ ----- ------- ---- of --- ------- --<br>------- ---------- ------ -- ----- -- ----- -- ---- ------<br>--- ----- --- --- ------ -------- ----- --- ------ ----- --<br>----- ----- ---------- --- --- ------ ------ ---- -- ------<br>------- --- ------ ----- --- ---- ------- -- ---- --- --<br>------- ------,228585.80999996047,228584.5449999906,228067.7,228073.9599999506,228084.366,228601.093,,8,of
screen,html.Screen,2_1_1_1_9,2021-04-27T08:32:46.055Z,,,,,,,,,,,,,,,,,54,,,,,,,,,,,,,,358.89199996495154,,response,,,,100,,,,,,,Space,keypress(Space),,,,,,,,-- --- ---- --- ------ ----- ------- ---- -- its ------- --<br>------- ---------- ------ -- ----- -- ----- -- ---- ------<br>--- ----- --- --- ------ -------- ----- --- ------ ----- --<br>----- ----- ---------- --- --- ------ ------ ---- -- ------<br>------- --- ------ ----- --- ---- ------- -- ---- --- --<br>------- ------,228961.26000001095,228959.98499996495,228584.427,228586.07499999925,228601.093,228967.816,,9,its
screen,html.Screen,2_1_1_1_10,2021-04-27T08:32:46.466Z,,,,,,,,,,,,,,,,,54,,,,,,,,,,,,,,403.7039999278495,,response,,,,100,,,,,,,Space,keypress(Space),,,,,,,,-- --- ---- --- ------ ----- ------- ---- -- --- revenue --<br>------- ---------- ------ -- ----- -- ----- -- ---- ------<br>--- ----- --- --- ------ -------- ----- --- ------ ----- --<br>----- ----- ---------- --- --- ------ ------ ---- -- ------<br>------- --- ------ ----- --- ---- ------- -- ---- --- --<br>------- ------,229372.79499997385,229371.51999992784,228951.15,228961.53500000946,228967.816,229384.591,,10,revenue
screen,html.Screen,2_1_1_1_11,2021-04-27T08:32:46.882Z,,,,,,,,,,,,,,,,,54,,,,,,,,,,,,,,403.03399999722023,,response,,,,100,,,,,,,Space,keypress(Space),,,,,,,,-- --- ---- --- ------ ----- ------- ---- -- --- ------- by<br>------- ---------- ------ -- ----- -- ----- -- ---- ------<br>--- ----- --- --- ------ -------- ----- --- ------ ----- --<br>----- ----- ---------- --- --- ------ ------ ---- -- ------<br>------- --- ------ ----- --- ---- ------- -- ---- --- --<br>------- ------,229788.8999999268,229787.6249999972,229367.925,229373.06999997236,229384.591,229801.34,,11,by
screen,html.Screen,2_1_1_1_12,2021-04-27T08:32:47.334Z,,,,,,,,,,,,,,,,,54,,,,,,,,,,,,,,438.22499993801466,,response,,,,100,,,,,,,Space,keypress(Space),,,,,,,,-- --- ---- --- ------ ----- ------- ---- -- --- ------- --<br>issuing ---------- ------ -- ----- -- ----- -- ---- ------<br>--- ----- --- --- ------ -------- ----- --- ------ ----- --<br>----- ----- ---------- --- --- ------ ------ ---- -- ------<br>------- --- ------ ----- --- ---- ------- -- ---- --- --<br>------- ------,230240.86499994155,230239.564999938,229784.674,229789.16499996558,229801.34,230251.418,,12,issuing
screen,html.Screen,2_1_1_1_13,2021-04-27T08:32:47.774Z,,,,,,,,,,,,,,,,,54,,,,,,,,,,,,,,427.81699993048096,,response,,,,100,,,,,,,Space,keypress(Space),,,,,,,,-- --- ---- --- ------ ----- ------- ---- -- --- ------- --<br>------- government ------ -- ----- -- ----- -- ---- ------<br>--- ----- --- --- ------ -------- ----- --- ------ ----- --<br>----- ----- ---------- --- --- ------ ------ ---- -- ------<br>------- --- ------ ----- --- ---- ------- -- ---- --- --<br>------- ------,230680.51999993622,230679.2349999305,230234.752,230241.14499997813,230251.418,230684.801,,13,government
screen,html.Screen,2_1_1_1_14,2021-04-27T08:32:48.574Z,,,,,,,,,,,,,,,,,54,,,,,,,,,,,,,,794.3539999499626,,response,,,,100,,,,,,,Space,keypress(Space),,,,,,,,-- --- ---- --- ------ ----- ------- ---- -- --- ------- --<br>------- ---------- bonds. -- ----- -- ----- -- ---- ------<br>--- ----- --- --- ------ -------- ----- --- ------ ----- --<br>----- ----- ---------- --- --- ------ ------ ---- -- ------<br>------- --- ------ ----- --- ---- ------- -- ---- --- --<br>------- ------,231480.44499999378,231479.15499994997,230668.135,230680.77500001527,230684.801,231484.904,,14,bonds.
screen,html.Screen,2_1_1_1_15,2021-04-27T08:32:49.246Z,,,,,,,,,,,,,,,,,54,,,,,,,,,,,,,,666.0159999272728,,response,,,,100,,,,,,,Space,keypress(Space),,,,,,,,-- --- ---- --- ------ ----- ------- ---- -- --- ------- --<br>------- ---------- ------ In ----- -- ----- -- ---- ------<br>--- ----- --- --- ------ -------- ----- --- ------ ----- --<br>----- ----- ---------- --- --- ------ ------ ---- -- ------<br>------- --- ------ ----- --- ---- ------- -- ---- --- --<br>------- ------,232152.29499991983,232150.91999992728,231468.238,231480.72999995202,231484.904,232168.291,,15,In
screen,html.Screen,2_1_1_1_16,2021-04-27T08:32:49.619Z,,,,,,,,,,,,,,,,,54,,,,,,,,,,,,,,356.4040000291716,,response,,,,100,,,,,,,Space,keypress(Space),,,,,,,,"-- --- ---- --- ------ ----- ------- ---- -- --- ------- --<br>------- ---------- ------ -- 1727, -- ----- -- ---- ------<br>--- ----- --- --- ------ -------- ----- --- ------ ----- --<br>----- ----- ---------- --- --- ------ ------ ---- -- ------<br>------- --- ------ ----- --- ---- ------- -- ---- --- --<br>------- ------",232525.94500000123,232524.69500002917,232151.625,232152.5749999564,232168.291,232535.103,,16,"1727,"
screen,html.Screen,2_1_1_1_17,2021-04-27T08:32:50.610Z,,,,,,,,,,,,,,,,,54,,,,,,,,,,,,,,979.9369999693008,,response,,,,100,,,,,,,Space,keypress(Space),,,,,,,,-- --- ---- --- ------ ----- ------- ---- -- --- ------- --<br>------- ---------- ------ -- ----- in ----- -- ---- ------<br>--- ----- --- --- ------ -------- ----- --- ------ ----- --<br>----- ----- ---------- --- --- ------ ------ ---- -- ------<br>------- --- ------ ----- --- ---- ------- -- ---- --- --<br>------- ------,233516.73999999184,233515.0399999693,232518.437,232526.1649999302,232535.103,233535.237,,17,in
screen,html.Screen,2_1_1_1_18,2021-04-27T08:32:51.057Z,,,,,,,,,,,,,,,,,54,,,,,,,,,,,,,,427.01299998231116,,response,,,,100,,,,,,,Space,keypress(Space),,,,,,,,-- --- ---- --- ------ ----- ------- ---- -- --- ------- --<br>------- ---------- ------ -- ----- -- order -- ---- ------<br>--- ----- --- --- ------ -------- ----- --- ------ ----- --<br>----- ----- ---------- --- --- ------ ------ ---- -- ------<br>------- --- ------ ----- --- ---- ------- -- ---- --- --<br>------- ------,233963.51999999024,233962.2499999823,233518.571,233517.00999995228,233535.237,233968.623,,18,order
screen,html.Screen,2_1_1_1_19,2021-04-27T08:32:51.496Z,,,,,,,,,,,,,,,,,54,,,,,,,,,,,,,,432.9970000187459,,response,,,,100,,,,,,,Space,keypress(Space),,,,,,,,-- --- ---- --- ------ ----- ------- ---- -- --- ------- --<br>------- ---------- ------ -- ----- -- ----- to ---- ------<br>--- ----- --- --- ------ -------- ----- --- ------ ----- --<br>----- ----- ---------- --- --- ------ ------ ---- -- ------<br>------- --- ------ ----- --- ---- ------- -- ---- --- --<br>------- ------,234402.90500002448,234401.62000001874,233951.957,233963.79499998875,233968.623,234418.831,,19,to
screen,html.Screen,2_1_1_1_20,2021-04-27T08:32:52.078Z,,,,,,,,,,,,,,,,,54,,,,,,,,,,,,,,564.9889999649022,,response,,,,100,,,,,,,Space,keypress(Space),,,,,,,,-- --- ---- --- ------ ----- ------- ---- -- --- ------- --<br>------- ---------- ------ -- ----- -- ----- -- save ------<br>--- ----- --- --- ------ -------- ----- --- ------ ----- --<br>----- ----- ---------- --- --- ------ ------ ---- -- ------<br>------- --- ------ ----- --- ---- ------- -- ---- --- --<br>------- ------,234984.7600000212,234983.8199999649,234402.165,234403.1749999849,234418.831,234985.559,,20,save
screen,html.Screen,2_1_1_1_21,2021-04-27T08:32:52.419Z,,,,,,,,,,,,,,,,,54,,,,,,,,,,,,,,338.9059999542078,,response,,,,100,,,,,,,Space,keypress(Space),,,,,,,,"-- --- ---- --- ------ ----- ------- ---- -- --- ------- --<br>------- ---------- ------ -- ----- -- ----- -- ---- money,<br>--- ----- --- --- ------ -------- ----- --- ------ ----- --<br>----- ----- ---------- --- --- ------ ------ ---- -- ------<br>------- --- ------ ----- --- ---- ------- -- ---- --- --<br>------- ------",235325.92999993358,235324.46499995422,234968.893,234985.0200000219,234985.559,235335.668,,21,"money,"
screen,html.Screen,2_1_1_1_22,2021-04-27T08:32:52.863Z,,,,,,,,,,,,,,,,,54,,,,,,,,,,,,,,432.6719999514171,,response,,,,100,,,,,,,Space,keypress(Space),,,,,,,,-- --- ---- --- ------ ----- ------- ---- -- --- ------- --<br>------- ---------- ------ -- ----- -- ----- -- ---- ------<br>the ----- --- --- ------ -------- ----- --- ------ ----- --<br>----- ----- ---------- --- --- ------ ------ ---- -- ------<br>------- --- ------ ----- --- ---- ------- -- ---- --- --<br>------- ------,235769.68999998644,235768.33999995142,235319.002,235326.20999997016,235335.668,235785.761,,22,the
screen,html.Screen,2_1_1_1_23,2021-04-27T08:32:53.484Z,,,,,,,,,,,,,,,,,54,,,,,,,,,,,,,,603.4689999715774,,response,,,,100,,,,,,,Space,keypress(Space),,,,,,,,-- --- ---- --- ------ ----- ------- ---- -- --- ------- --<br>------- ---------- ------ -- ----- -- ----- -- ---- ------<br>--- state --- --- ------ -------- ----- --- ------ ----- --<br>----- ----- ---------- --- --- ------ ------ ---- -- ------<br>------- --- ------ ----- --- ---- ------- -- ---- --- --<br>------- ------,236390.54499997292,236389.22999997158,235769.095,235769.95999994688,235785.761,236402.463,,23,state
screen,html.Screen,2_1_1_1_24,2021-04-27T08:32:53.958Z,,,,,,,,,,,,,,,,,54,,,,,,,,,,,,,,460.5169999762438,,response,,,,100,,,,,,,Space,keypress(Space),,,,,,,,-- --- ---- --- ------ ----- ------- ---- -- --- ------- --<br>------- ---------- ------ -- ----- -- ----- -- ---- ------<br>--- ----- cut --- ------ -------- ----- --- ------ ----- --<br>----- ----- ---------- --- --- ------ ------ ---- -- ------<br>------- --- ------ ----- --- ---- ------- -- ---- --- --<br>------- ------,236864.26499998197,236862.97999997623,236385.797,236390.81999997143,236402.463,236869.214,,24,cut
screen,html.Screen,2_1_1_1_25,2021-04-27T08:32:54.355Z,,,,,,,,,,,,,,,,,54,,,,,,,,,,,,,,391.24099998144084,,response,,,,100,,,,,,,Space,keypress(Space),,,,,,,,-- --- ---- --- ------ ----- ------- ---- -- --- ------- --<br>------- ---------- ------ -- ----- -- ----- -- ---- ------<br>--- ----- --- the ------ -------- ----- --- ------ ----- --<br>----- ----- ---------- --- --- ------ ------ ---- -- ------<br>------- --- ------ ----- --- ---- ------- -- ---- --- --<br>------- ------,237261.74999994691,237260.45499998145,236852.548,236864.53999998048,236869.214,237269.35,,25,the
screen,html.Screen,2_1_1_1_26,2021-04-27T08:32:54.746Z,,,,,,,,,,,,,,,,,54,,,,,,,,,,,,,,382.24999998285784,,response,,,,100,,,,,,,Space,keypress(Space),,,,,,,,-- --- ---- --- ------ ----- ------- ---- -- --- ------- --<br>------- ---------- ------ -- ----- -- ----- -- ---- ------<br>--- ----- --- --- bonds' -------- ----- --- ------ ----- --<br>----- ----- ---------- --- --- ------ ------ ---- -- ------<br>------- --- ------ ----- --- ---- ------- -- ---- --- --<br>------- ------,237652.92499994393,237651.59999998286,237252.684,237262.02499994542,237269.35,237669.435,,26,bonds'
screen,html.Screen,2_1_1_1_27,2021-04-27T08:32:55.194Z,,,,,,,,,,,,,,,,,54,,,,,,,,,,,,,,429.8149999702,,response,,,,100,,,,,,,Space,keypress(Space),,,,,,,,-- --- ---- --- ------ ----- ------- ---- -- --- ------- --<br>------- ---------- ------ -- ----- -- ----- -- ---- ------<br>--- ----- --- --- ------ interest ----- --- ------ ----- --<br>----- ----- ---------- --- --- ------ ------ ---- -- ------<br>------- --- ------ ----- --- ---- ------- -- ---- --- --<br>------- ------,238100.60000000522,238099.2499999702,237652.769,237653.2100000186,237669.435,238102.821,,27,interest
screen,html.Screen,2_1_1_1_28,2021-04-27T08:32:55.692Z,,,,,,,,,,,,,,,,,54,,,,,,,,,,,,,,494.03899993235245,,response,,,,100,,,,,,,Space,keypress(Space),,,,,,,,-- --- ---- --- ------ ----- ------- ---- -- --- ------- --<br>------- ---------- ------ -- ----- -- ----- -- ---- ------<br>--- ----- --- --- ------ -------- rate. --- ------ ----- --<br>----- ----- ---------- --- --- ------ ------ ---- -- ------<br>------- --- ------ ----- --- ---- ------- -- ---- --- --<br>------- ------,238598.12999994028,238596.85999993235,238086.155,238100.87999992538,238102.821,238602.893,,28,rate.
screen,html.Screen,2_1_1_1_29,2021-04-27T08:32:56.163Z,,,,,,,,,,,,,,,,,54,,,,,,,,,,,,,,464.84699996947893,,response,,,,100,,,,,,,Space,keypress(Space),,,,,,,,-- --- ---- --- ------ ----- ------- ---- -- --- ------- --<br>------- ---------- ------ -- ----- -- ----- -- ---- ------<br>--- ----- --- --- ------ -------- ----- The ------ ----- --<br>----- ----- ---------- --- --- ------ ------ ---- -- ------<br>------- --- ------ ----- --- ---- ------- -- ---- --- --<br>------- ------,239069.02499997523,239067.7399999695,238586.227,238598.39499997906,238602.893,239086.312,,29,The
screen,html.Screen,2_1_1_1_30,2021-04-27T08:32:56.650Z,,,,,,,,,,,,,,,,,54,,,,,,,,,,,,,,468.2230000029376,,response,,,,100,,,,,,,Space,keypress(Space),,,,,,,,-- --- ---- --- ------ ----- ------- ---- -- --- ------- --<br>------- ---------- ------ -- ----- -- ----- -- ---- ------<br>--- ----- --- --- ------ -------- ----- --- market ----- --<br>----- ----- ---------- --- --- ------ ------ ---- -- ------<br>------- --- ------ ----- --- ---- ------- -- ---- --- --<br>------- ------,239555.9699999867,239554.53500000294,239069.646,239069.290000014,239086.312,239569.725,,30,market
screen,html.Screen,2_1_1_1_31,2021-04-27T08:32:57.084Z,,,,,,,,,,,,,,,,,54,,,,,,,,,,,,,,419.45499991680845,,response,,,,100,,,,,,,Space,keypress(Space),,,,,,,,-- --- ---- --- ------ ----- ------- ---- -- --- ------- --<br>------- ---------- ------ -- ----- -- ----- -- ---- ------<br>--- ----- --- --- ------ -------- ----- --- ------ value --<br>----- ----- ---------- --- --- ------ ------ ---- -- ------<br>------- --- ------ ----- --- ---- ------- -- ---- --- --<br>------- ------,239990.46999996062,239989.1799999168,239553.059,239556.259999983,239569.725,240003.178,,31,value
screen,html.Screen,2_1_1_1_32,2021-04-27T08:32:57.546Z,,,,,,,,,,,,,,,,,54,,,,,,,,,,,,,,448.031999970146,,response,,,,100,,,,,,,Space,keypress(Space),,,,,,,,-- --- ---- --- ------ ----- ------- ---- -- --- ------- --<br>------- ---------- ------ -- ----- -- ----- -- ---- ------<br>--- ----- --- --- ------ -------- ----- --- ------ ----- of<br>----- ----- ---------- --- --- ------ ------ ---- -- ------<br>------- --- ------ ----- --- ---- ------- -- ---- --- --<br>------- ------,240452.51500001177,240451.20999997016,239986.512,239990.73999992106,240003.178,240469.923,,32,of
screen,html.Screen,2_1_1_1_33,2021-04-27T08:32:57.978Z,,,,,,,,,,,,,,,,,54,,,,,,,,,,,,,,412.91699997655815,,response,,,,100,,,,,,,Space,keypress(Space),,,,,,,,-- --- ---- --- ------ ----- ------- ---- -- --- ------- --<br>------- ---------- ------ -- ----- -- ----- -- ---- ------<br>--- ----- --- --- ------ -------- ----- --- ------ ----- --<br>these ----- ---------- --- --- ------ ------ ---- -- ------<br>------- --- ------ ----- --- ---- ------- -- ---- --- --<br>------- ------,240884.13499994203,240882.83999997657,240453.257,240452.77999993414,240469.923,240886.646,,33,these
screen,html.Screen,2_1_1_1_34,2021-04-27T08:32:58.403Z,,,,,,,,,,,,,,,,,54,,,,,,,,,,,,,,421.3189999271999,,response,,,,100,,,,,,,Space,keypress(Space),,,,,,,,-- --- ---- --- ------ ----- ------- ---- -- --- ------- --<br>------- ---------- ------ -- ----- -- ----- -- ---- ------<br>--- ----- --- --- ------ -------- ----- --- ------ ----- --<br>----- bonds ---------- --- --- ------ ------ ---- -- ------<br>------- --- ------ ----- --- ---- ------- -- ---- --- --<br>------- ------,241309.2600000091,241307.9649999272,240869.98,240884.4050000189,240886.646,241320.06,,34,bonds
screen,html.Screen,2_1_1_1_35,2021-04-27T08:32:59.017Z,,,,,,,,,,,,,,,,,54,,,,,,,,,,,,,,601.6099999524304,,response,,,,100,,,,,,,Space,keypress(Space),,,,,,,,"-- --- ---- --- ------ ----- ------- ---- -- --- ------- --<br>------- ---------- ------ -- ----- -- ----- -- ---- ------<br>--- ----- --- --- ------ -------- ----- --- ------ ----- --<br>----- ----- plummeted, --- --- ------ ------ ---- -- ------<br>------- --- ------ ----- --- ---- ------- -- ---- --- --<br>------- ------",241922.96999995597,241921.66999995243,241303.394,241309.52499993145,241320.06,241936.805,,35,"plummeted,"
screen,html.Screen,2_1_1_1_36,2021-04-27T08:32:59.508Z,,,,,,,,,,,,,,,,,54,,,,,,,,,,,,,,476.5149999341811,,response,,,,100,,,,,,,Space,keypress(Space),,,,,,,,-- --- ---- --- ------ ----- ------- ---- -- --- ------- --<br>------- ---------- ------ -- ----- -- ----- -- ---- ------<br>--- ----- --- --- ------ -------- ----- --- ------ ----- --<br>----- ----- ---------- and --- ------ ------ ---- -- ------<br>------- --- ------ ----- --- ---- ------- -- ---- --- --<br>------- ------,242414.83000002336,242413.31999993417,241920.139,241923.23499999475,241936.805,242420.223,,36,and
screen,html.Screen,2_1_1_1_37,2021-04-27T08:32:59.929Z,,,,,,,,,,,,,,,,,54,,,,,,,,,,,,,,414.0369999159593,,response,,,,100,,,,,,,Space,keypress(Space),,,,,,,,-- --- ---- --- ------ ----- ------- ---- -- --- ------- --<br>------- ---------- ------ -- ----- -- ----- -- ---- ------<br>--- ----- --- --- ------ -------- ----- --- ------ ----- --<br>----- ----- ---------- --- the ------ ------ ---- -- ------<br>------- --- ------ ----- --- ---- ------- -- ---- --- --<br>------- ------,242835.82999999635,242834.25999991596,242403.557,242415.1449999772,242420.223,242836.998,,37,the
screen,html.Screen,2_1_1_1_38,2021-04-27T08:33:00.407Z,,,,,,,,,,,,,,,,,54,,,,,,,,,,,,,,475.3869999392482,,response,,,,100,,,,,,,Space,keypress(Space),,,,,,,,-- --- ---- --- ------ ----- ------- ---- -- --- ------- --<br>------- ---------- ------ -- ----- -- ----- -- ---- ------<br>--- ----- --- --- ------ -------- ----- --- ------ ----- --<br>----- ----- ---------- --- --- market ------ ---- -- ------<br>------- --- ------ ----- --- ---- ------- -- ---- --- --<br>------- ------,243313.66500002332,243312.38499993924,242820.332,242836.1299999524,242836.998,243320.449,,38,market
screen,html.Screen,2_1_1_1_39,2021-04-27T08:33:00.723Z,,,,,,,,,,,,,,,,,54,,,,,,,,,,,,,,307.7109999638342,,response,,,,100,,,,,,,Space,keypress(Space),,,,,,,,-- --- ---- --- ------ ----- ------- ---- -- --- ------- --<br>------- ---------- ------ -- ----- -- ----- -- ---- ------<br>--- ----- --- --- ------ -------- ----- --- ------ ----- --<br>----- ----- ---------- --- --- ------ became ---- -- ------<br>------- --- ------ ----- --- ---- ------- -- ---- --- --<br>------- ------,243629.63500001933,243628.15999996383,243303.783,243313.92999994569,243320.449,243637.178,,39,became
screen,html.Screen,2_1_1_1_40,2021-04-27T08:33:01.086Z,,,,,,,,,,,,,,,,,54,,,,,,,,,,,,,,354.13699999201344,,response,,,,100,,,,,,,Space,keypress(Space),,,,,,,,-- --- ---- --- ------ ----- ------- ---- -- --- ------- --<br>------- ---------- ------ -- ----- -- ----- -- ---- ------<br>--- ----- --- --- ------ -------- ----- --- ------ ----- --<br>----- ----- ---------- --- --- ------ ------ wary -- ------<br>------- --- ------ ----- --- ---- ------- -- ---- --- --<br>------- ------,243992.59999999776,243991.31499999203,243620.512,243629.91000001784,243637.178,244003.901,,40,wary
screen,html.Screen,2_1_1_1_41,2021-04-27T08:33:01.490Z,,,,,,,,,,,,,,,,,54,,,,,,,,,,,,,,390.9739999981248,,response,,,,100,,,,,,,Space,keypress(Space),,,,,,,,-- --- ---- --- ------ ----- ------- ---- -- --- ------- --<br>------- ---------- ------ -- ----- -- ----- -- ---- ------<br>--- ----- --- --- ------ -------- ----- --- ------ ----- --<br>----- ----- ---------- --- --- ------ ------ ---- of ------<br>------- --- ------ ----- --- ---- ------- -- ---- --- --<br>------- ------,244396.17500000168,244394.87499999814,243987.235,243992.86499992013,244003.901,244404.04,,41,of
screen,html.Screen,2_1_1_1_42,2021-04-27T08:33:01.903Z,,,,,,,,,,,,,,,,,54,,,,,,,,,,,,,,404.70000000766595,,response,,,,100,,,,,,,Space,keypress(Space),,,,,,,,-- --- ---- --- ------ ----- ------- ---- -- --- ------- --<br>------- ---------- ------ -- ----- -- ----- -- ---- ------<br>--- ----- --- --- ------ -------- ----- --- ------ ----- --<br>----- ----- ---------- --- --- ------ ------ ---- -- French<br>------- --- ------ ----- --- ---- ------- -- ---- --- --<br>------- ------,244809.56999992486,244808.74000000767,244387.374,244396.4299999643,244404.04,244820.757,,42,French
screen,html.Screen,2_1_1_1_43,2021-04-27T08:33:02.409Z,,,,,,,,,,,,,,,,,54,,,,,,,,,,,,,,493.93799994999426,,response,,,,100,,,,,,,Space,keypress(Space),,,,,,,,-- --- ---- --- ------ ----- ------- ---- -- --- ------- --<br>------- ---------- ------ -- ----- -- ----- -- ---- ------<br>--- ----- --- --- ------ -------- ----- --- ------ ----- --<br>----- ----- ---------- --- --- ------ ------ ---- -- ------<br>credit. --- ------ ----- --- ---- ------- -- ---- --- --<br>------- ------,245315.94499992207,245314.69499995,244804.091,244809.80499996804,244820.757,245320.786,,43,credit.
screen,html.Screen,2_1_1_1_44,2021-04-27T08:33:02.845Z,,,,,,,,,,,,,,,,,54,,,,,,,,,,,,,,427.0440000075323,,response,,,,100,,,,,,,Space,keypress(Space),,,,,,,,-- --- ---- --- ------ ----- ------- ---- -- --- ------- --<br>------- ---------- ------ -- ----- -- ----- -- ---- ------<br>--- ----- --- --- ------ -------- ----- --- ------ ----- --<br>----- ----- ---------- --- --- ------ ------ ---- -- ------<br>------- The ------ ----- --- ---- ------- -- ---- --- --<br>------- ------,245749.17999992613,245747.83000000753,245304.12,245316.20999996085,245320.786,245754.199,,44,The
screen,html.Screen,2_1_1_1_45,2021-04-27T08:33:03.202Z,,,,,,,,,,,,,,,,,54,,,,,,,,,,,,,,349.8909999206953,,response,,,,100,,,,,,,Space,keypress(Space),,,,,,,,-- --- ---- --- ------ ----- ------- ---- -- --- ------- --<br>------- ---------- ------ -- ----- -- ----- -- ---- ------<br>--- ----- --- --- ------ -------- ----- --- ------ ----- --<br>----- ----- ---------- --- --- ------ ------ ---- -- ------<br>------- --- French ----- --- ---- ------- -- ---- --- --<br>------- ------,246105.3799999645,246104.0899999207,245737.533,245749.49999991804,245754.199,246120.966,,45,French
screen,html.Screen,2_1_1_1_46,2021-04-27T08:33:03.631Z,,,,,,,,,,,,,,,,,54,,,,,,,,,,,,,,412.728999990999,,response,,,,100,,,,,,,Space,keypress(Space),,,,,,,,-- --- ---- --- ------ ----- ------- ---- -- --- ------- --<br>------- ---------- ------ -- ----- -- ----- -- ---- ------<br>--- ----- --- --- ------ -------- ----- --- ------ ----- --<br>----- ----- ---------- --- --- ------ ------ ---- -- ------<br>------- --- ------ state --- ---- ------- -- ---- --- --<br>------- ------,246534.98499991838,246533.69499999098,246104.3,246105.654999963,246120.966,246537.71,,46,state
screen,html.Screen,2_1_1_1_47,2021-04-27T08:33:04.199Z,,,,,,,,,,,,,,,,,54,,,,,,,,,,,,,,564.0149999567948,,response,,,,100,,,,,,,Space,keypress(Space),,,,,,,,-- --- ---- --- ------ ----- ------- ---- -- --- ------- --<br>------- ---------- ------ -- ----- -- ----- -- ---- ------<br>--- ----- --- --- ------ -------- ----- --- ------ ----- --<br>----- ----- ---------- --- --- ------ ------ ---- -- ------<br>------- --- ------ ----- was ---- ------- -- ---- --- --<br>------- ------,247103.00499992445,247101.7249999568,246521.044,246535.25499999523,246537.71,247104.457,,47,was
screen,html.Screen,2_1_1_1_48,2021-04-27T08:33:04.561Z,,,,,,,,,,,,,,,,,54,,,,,,,,,,,,,,358.48299999762094,,response,,,,100,,,,,,,Space,keypress(Space),,,,,,,,-- --- ---- --- ------ ----- ------- ---- -- --- ------- --<br>------- ---------- ------ -- ----- -- ----- -- ---- ------<br>--- ----- --- --- ------ -------- ----- --- ------ ----- --<br>----- ----- ---------- --- --- ------ ------ ---- -- ------<br>------- --- ------ ----- --- left ------- -- ---- --- --<br>------- ------,247464.2449999228,247462.93999999762,247087.791,247103.2750000013,247104.457,247471.175,,48,left
screen,html.Screen,2_1_1_1_49,2021-04-27T08:33:05.103Z,,,,,,,,,,,,,,,,,54,,,,,,,,,,,,,,534.1150000009802,,response,,,,100,,,,,,,Space,keypress(Space),,,,,,,,-- --- ---- --- ------ ----- ------- ---- -- --- ------- --<br>------- ---------- ------ -- ----- -- ----- -- ---- ------<br>--- ----- --- --- ------ -------- ----- --- ------ ----- --<br>----- ----- ---------- --- --- ------ ------ ---- -- ------<br>------- --- ------ ----- --- ---- without -- ---- --- --<br>------- ------,248006.6050000023,248005.29000000097,247454.509,247464.5249999594,247471.175,248021.284,,49,without
screen,html.Screen,2_1_1_1_50,2021-04-27T08:33:05.553Z,,,,,,,,,,,,,,,,,54,,,,,,,,,,,,,,434.1360000129498,,response,,,,100,,,,,,,Space,keypress(Space),,,,,,,,-- --- ---- --- ------ ----- ------- ---- -- --- ------- --<br>------- ---------- ------ -- ----- -- ----- -- ---- ------<br>--- ----- --- --- ------ -------- ----- --- ------ ----- --<br>----- ----- ---------- --- --- ------ ------ ---- -- ------<br>------- --- ------ ----- --- ---- ------- an ---- --- --<br>------- ------,248456.75499993376,248455.42000001296,248004.618,248006.87499996275,248021.284,248471.334,,50,an
screen,html.Screen,2_1_1_1_51,2021-04-27T08:33:05.907Z,,,,,,,,,,,,,,,,,54,,,,,,,,,,,,,,337.81099994832766,,response,,,,100,,,,,,,Space,keypress(Space),,,,,,,,-- --- ---- --- ------ ----- ------- ---- -- --- ------- --<br>------- ---------- ------ -- ----- -- ----- -- ---- ------<br>--- ----- --- --- ------ -------- ----- --- ------ ----- --<br>----- ----- ---------- --- --- ------ ------ ---- -- ------<br>------- --- ------ ----- --- ---- ------- -- easy --- --<br>------- ------,248810.455000028,248809.14499994833,248454.668,248457.04000000842,248471.334,248821.44,,51,easy
screen,html.Screen,2_1_1_1_52,2021-04-27T08:33:06.345Z,,,,,,,,,,,,,,,,,54,,,,,,,,,,,,,,426.00499998632586,,response,,,,100,,,,,,,Space,keypress(Space),,,,,,,,-- --- ---- --- ------ ----- ------- ---- -- --- ------- --<br>------- ---------- ------ -- ----- -- ----- -- ---- ------<br>--- ----- --- --- ------ -------- ----- --- ------ ----- --<br>----- ----- ---------- --- --- ------ ------ ---- -- ------<br>------- --- ------ ----- --- ---- ------- -- ---- way --<br>------- ------,249248.74499998987,249247.44499998633,248804.774,248810.73000002652,248821.44,249254.85,,52,way
screen,html.Screen,2_1_1_1_53,2021-04-27T08:33:07.074Z,,,,,,,,,,,,,,,,,54,,,,,,,,,,,,,,722.1149999216141,,response,,,,100,,,,,,,Space,keypress(Space),,,,,,,,-- --- ---- --- ------ ----- ------- ---- -- --- ------- --<br>------- ---------- ------ -- ----- -- ----- -- ---- ------<br>--- ----- --- --- ------ -------- ----- --- ------ ----- --<br>----- ----- ---------- --- --- ------ ------ ---- -- ------<br>------- --- ------ ----- --- ---- ------- -- ---- --- of<br>------- ------,249977.8299999889,249976.96499992162,249238.184,249249.01000002865,249254.85,249988.25,,53,of
screen,html.Screen,2_1_1_1_54,2021-04-27T08:33:07.841Z,,,,,,,,,,,,,,,,,54,,,,,,,,,,,,,,754.7999999318272,,response,,,,100,,,,,,,Space,keypress(Space),,,,,,,,-- --- ---- --- ------ ----- ------- ---- -- --- ------- --<br>------- ---------- ------ -- ----- -- ----- -- ---- ------<br>--- ----- --- --- ------ -------- ----- --- ------ ----- --<br>----- ----- ---------- --- --- ------ ------ ---- -- ------<br>------- --- ------ ----- --- ---- ------- -- ---- --- --<br>raising ------,250744.33999997564,250743.04999993183,249971.584,249978.04999991786,249988.25,250754.964,,54,raising
screen,html.Screen,2_1_1_1_55,2021-04-27T08:33:08.285Z,,,,,,,,,,,,,,,,,54,,,,,,,,,,,,,,432.4610000109824,,response,,,,100,,,,,,,Space,keypress(Space),,,,,,,,-- --- ---- --- ------ ----- ------- ---- -- --- ------- --<br>------- ---------- ------ -- ----- -- ----- -- ---- ------<br>--- ----- --- --- ------ -------- ----- --- ------ ----- --<br>----- ----- ---------- --- --- ------ ------ ---- -- ------<br>------- --- ------ ----- --- ---- ------- -- ---- --- --<br>------- money.,251188.76499996986,251187.425000011,250738.298,250744.61499997415,250754.964,251205.077,,55,money.
Item 100,flow.Loop,2_1_1_1,2021-04-27T08:33:08.285Z,,,,,,,,,,,,,,,,,,,,,,,,,,,,,,,26237.235000010987,,completion,,,,,F,,,,,,,,,,,silence,,,,,251189.22499998007,251187.425000011,224933.524,224940.5399999814,224950.19,251205.077,,,
Question 1,html.Screen,2_1_1_2,2021-04-27T08:33:12.480Z,,,,,,,,,,,,,,,,,,,,,,,,,,,,true,TRUE,,4176.25300000381,,response,,,,100,F,,,,,,TRUE,click #choice-1,,,,silence,,,,,255383.31499998458,255381.3300000038,251188.411,251189.42499998957,251205.077,255389.209,,,
Question 2,html.Screen,2_1_1_3,2021-04-27T08:33:14.826Z,,,,,,,,,,,,,,,,,,,,,,,,,,,,true,FALSE,,2338.1459999808867,,response,,,,100,F,,,,,,FALSE,click #choice-2,,,,silence,,,,,257729.33999996167,257727.3549999809,255372.543,255383.58499994501,255389.209,257739.846,,,
Item 100,flow.Sequence,2_1_1,2021-04-27T08:33:14.826Z,,,,,,,,,,,,,,,,,,,,,,,,,,,,,,,42778.57799998089,,completion,,,,,,,,,,,,,,,,,,,,,257729.70999998506,257727.3549999809,214932.111,214934.43999998271,214948.777,257739.846,,,
End of Practice,html.Page,2_1_2,2021-04-27T08:33:19.339Z,,,,,,,,,,,,,,,,,,,,,,,,,,,,,,,4502.228999958286,,form submission,,,,,,,,,,,,,,,,,,,,,262242.78500000946,262242.0749999583,257723.18,257729.89999991842,257739.846,262240.664,,,
Practice,flow.Sequence,2_1,2021-04-27T08:33:19.339Z,,,,,,,,,,,,,,,,,,,,,,,,,,,,,,,92201.40299995829,,completion,,,,,,,,,,,,,,,,,,,,,262243.20000002626,262242.0749999583,170024.006,170036.39999998268,170040.672,262240.664,,,
Trap_instruction,html.Page,2_2_0,2021-04-27T08:33:23.862Z,,,,,,,,,,,,,,,,,,,,,,,,,,,,,,,4524.880999972927,,form submission,,,,,,,,,,,,,,,,,,,,,266766.05999993626,266765.5449999729,262223.998,262243.4499999508,262240.664,266858.078,,,
trap_trial,html.Screen,2_2_1,2021-04-27T08:33:28.066Z,,,,,,,,,,,,,,,,,,,,,,,,,,,,true,1,,4109.3869999942835,,response,,,,,,,,,,,1,click #choice-1,,,,,,,,,270969.9000000255,270967.46499999426,266758.082,266766.30499993917,266858.078,270974.755,,,
end of trap trial,html.Page,2_2_2,2021-04-27T08:33:29.977Z,,,,,,,,,,,,,,,,,,,,,,,,,,,,,,,1904.95500000834,,form submission,,,,,,,,,,,,,,,,,,,,,272880.264999927,272879.71000000834,270958.089,270970.23500001524,270974.755,272892.555,,,
Trap 1,flow.Sequence,2_2,2021-04-27T08:33:29.977Z,,,,,,,,,,,,,,,,,,,,,,,,,,,,,,,10639.046000008355,,completion,,,,,,,,,,,,,,,,,,,,,272880.6249999907,272879.71000000834,262223.998,262243.36999992374,262240.664,272892.555,,,
Standby,html.Page,2_3_0,2021-04-27T08:33:37.983Z,,,,,,,,,,,,,,,,,,,,,,,,,,,,,,,7999.72000000003,,timeout,,,,,,,,,,,,,,,,,,,,,280887.1999999974,280875.609,272875.889,272880.8799999533,272892.555,280892.275,,,
Holding screen,html.Screen,2_3_1_0_0,2021-04-27T08:33:44.978Z,,,,,,,,,,,,,,,,,,,,,,,,,,,,,,,7002.650999999954,,timeout,,,,,,,,,,,,,,,,,,,,,287882.0650000125,287878.26,280875.609,280887.5400000252,280892.275,287894.926,,,
screen,html.Screen,2_3_1_0_1_0,2021-04-27T08:33:45.604Z,,,,,,,,,,,,,,,,,51,,,,,,,,,,,,,,611.8190000206232,,response,,,,13,F,,,,,,Space,keypress(Space),,,,instrumental,,,,American -------- --- --- ---- --- --- ------ -- --------<br>---- --------- --- ------- ------------ ---------- ---------<br>--- ---------- ------- ---------- ------- -- -------- ----<br>---- --- ------ ----- ------ -- ---- --- ----- -- - -------<br>-------- -- --- --- -- ----- ----------- ----- -----------<br>---- --- ---------- --- ---- --- -- ----------,288508.09000001755,288506.7450000206,287878.26,287882.4049999239,287894.926,288511.78,,0,American
screen,html.Screen,2_3_1_0_1_1,2021-04-27T08:33:46.349Z,,,,,,,,,,,,,,,,,51,,,,,,,,,,,,,,740.0149999309797,,response,,,,13,F,,,,,,Space,keypress(Space),,,,instrumental,,,,-------- industry --- --- ---- --- --- ------ -- --------<br>---- --------- --- ------- ------------ ---------- ---------<br>--- ---------- ------- ---------- ------- -- -------- ----<br>---- --- ------ ----- ------ -- ---- --- ----- -- - -------<br>-------- -- --- --- -- ----- ----------- ----- -----------<br>---- --- ---------- --- ---- --- -- ----------,289252.71000002977,289251.794999931,288495.114,288508.3449999802,288511.78,289261.965,,1,industry
screen,html.Screen,2_3_1_0_1_2,2021-04-27T08:33:46.809Z,,,,,,,,,,,,,,,,,51,,,,,,,,,,,,,,449.7700000189361,,response,,,,13,F,,,,,,Space,keypress(Space),,,,instrumental,,,,-------- -------- may --- ---- --- --- ------ -- --------<br>---- --------- --- ------- ------------ ---------- ---------<br>--- ---------- ------- ---------- ------- -- -------- ----<br>---- --- ------ ----- ------ -- ---- --- ----- -- - -------<br>-------- -- --- --- -- ----- ----------- ----- -----------<br>---- --- ---------- --- ---- --- -- ----------,289713.06999993976,289711.73500001896,289245.299,289252.9499999946,289261.965,289728.736,,2,may
screen,html.Screen,2_3_1_0_1_3,2021-04-27T08:33:47.243Z,,,,,,,,,,,,,,,,,51,,,,,,,,,,,,,,416.89399992633844,,response,,,,13,F,,,,,,Space,keypress(Space),,,,instrumental,,,,-------- -------- --- not ---- --- --- ------ -- --------<br>---- --------- --- ------- ------------ ---------- ---------<br>--- ---------- ------- ---------- ------- -- -------- ----<br>---- --- ------ ----- ------ -- ---- --- ----- -- - -------<br>-------- -- --- --- -- ----- ----------- ----- -----------<br>---- --- ---------- --- ---- --- -- ----------,290146.5600000229,290145.6299999263,289712.07,289713.32999994047,289728.736,290162.215,,3,not
screen,html.Screen,2_3_1_0_1_4,2021-04-27T08:33:47.705Z,,,,,,,,,,,,,,,,,51,,,,,,,,,,,,,,444.69499997311505,,response,,,,13,F,,,,,,Space,keypress(Space),,,,instrumental,,,,-------- -------- --- --- know --- --- ------ -- --------<br>---- --------- --- ------- ------------ ---------- ---------<br>--- ---------- ------- ---------- ------- -- -------- ----<br>---- --- ------ ----- ------ -- ---- --- ----- -- - -------<br>-------- -- --- --- -- ----- ----------- ----- -----------<br>---- --- ---------- --- ---- --- -- ----------,290608.4949999349,290606.90999997314,290145.549,290146.79499994963,290162.215,290612.315,,4,know
screen,html.Screen,2_3_1_0_1_5,2021-04-27T08:33:48.338Z,,,,,,,,,,,,,,,,,51,,,,,,,,,,,,,,629.0350000257022,,response,,,,13,F,,,,,,Space,keypress(Space),,,,instrumental,,,,"-------- -------- --- --- ---- it, --- ------ -- --------<br>---- --------- --- ------- ------------ ---------- ---------<br>--- ---------- ------- ---------- ------- -- -------- ----<br>---- --- ------ ----- ------ -- ---- --- ----- -- - -------<br>-------- -- --- --- -- ----- ----------- ----- -----------<br>---- --- ---------- --- ---- --- -- ----------",291242.1949999407,291241.3500000257,290595.649,290608.75000001397,290612.315,291245.717,,5,"it,"
screen,html.Screen,2_3_1_0_1_6,2021-04-27T08:33:48.935Z,,,,,,,,,,,,,,,,,51,,,,,,,,,,,,,,591.2429999859887,,response,,,,13,F,,,,,,Space,keypress(Space),,,,instrumental,,,,-------- -------- --- --- ---- --- but ------ -- --------<br>---- --------- --- ------- ------------ ---------- ---------<br>--- ---------- ------- ---------- ------- -- -------- ----<br>---- --- ------ ----- ------ -- ---- --- ----- -- - -------<br>-------- -- --- --- -- ----- ----------- ----- -----------<br>---- --- ---------- --- ---- --- -- ----------,291838.4150000056,291836.959999986,291229.051,291242.4249999458,291245.717,291845.833,,6,but
screen,html.Screen,2_3_1_0_1_7,2021-04-27T08:33:49.341Z,,,,,,,,,,,,,,,,,51,,,,,,,,,,,,,,397.62199998891447,,response,,,,13,F,,,,,,Space,keypress(Space),,,,instrumental,,,,-------- -------- --- --- ---- --- --- debate -- --------<br>---- --------- --- ------- ------------ ---------- ---------<br>--- ---------- ------- ---------- ------- -- -------- ----<br>---- --- ------ ----- ------ -- ---- --- ----- -- - -------<br>-------- -- --- --- -- ----- ----------- ----- -----------<br>---- --- ---------- --- ---- --- -- ----------,292244.7299999185,292243.4549999889,291829.167,291838.71499996167,291845.833,292245.938,,7,debate
screen,html.Screen,2_3_1_0_1_8,2021-04-27T08:33:49.782Z,,,,,,,,,,,,,,,,,51,,,,,,,,,,,,,,438.7269999497221,,response,,,,13,F,,,,,,Space,keypress(Space),,,,instrumental,,,,-------- -------- --- --- ---- --- --- ------ in --------<br>---- --------- --- ------- ------------ ---------- ---------<br>--- ---------- ------- ---------- ------- -- -------- ----<br>---- --- ------ ----- ------ -- ---- --- ----- -- - -------<br>-------- -- --- --- -- ----- ----------- ----- -----------<br>---- --- ---------- --- ---- --- -- ----------,292685.9799999511,292684.66499994975,292229.272,292244.9749999214,292245.938,292696.044,,8,in
screen,html.Screen,2_3_1_0_1_9,2021-04-27T08:33:50.342Z,,,,,,,,,,,,,,,,,51,,,,,,,,,,,,,,548.1859999529552,,response,,,,13,F,,,,,,Space,keypress(Space),,,,instrumental,,,,-------- -------- --- --- ---- --- --- ------ -- Congress<br>---- --------- --- ------- ------------ ---------- ---------<br>--- ---------- ------- ---------- ------- -- -------- ----<br>---- --- ------ ----- ------ -- ---- --- ----- -- - -------<br>-------- -- --- --- -- ----- ----------- ----- -----------<br>---- --- ---------- --- ---- --- -- ----------,293245.5149999587,293244.22999995295,292679.378,292686.25000002794,292696.044,293262.784,,9,Congress
screen,html.Screen,2_3_1_0_1_10,2021-04-27T08:33:50.799Z,,,,,,,,,,,,,,,,,51,,,,,,,,,,,,,,438.99600000306964,,response,,,,13,F,,,,,,Space,keypress(Space),,,,instrumental,,,,-------- -------- --- --- ---- --- --- ------ -- --------<br>over --------- --- ------- ------------ ---------- ---------<br>--- ---------- ------- ---------- ------- -- -------- ----<br>---- --- ------ ----- ------ -- ---- --- ----- -- - -------<br>-------- -- --- --- -- ----- ----------- ----- -----------<br>---- --- ---------- --- ---- --- -- ----------,293703.0350000132,293701.78000000305,293246.118,293245.7699999213,293262.784,293712.908,,10,over
screen,html.Screen,2_3_1_0_1_11,2021-04-27T08:33:51.203Z,,,,,,,,,,,,,,,,,51,,,,,,,,,,,,,,392.5319999557105,,response,,,,13,F,,,,,,Space,keypress(Space),,,,instrumental,,,,-------- -------- --- --- ---- --- --- ------ -- --------<br>---- reforming --- ------- ------------ ---------- ---------<br>--- ---------- ------- ---------- ------- -- -------- ----<br>---- --- ------ ----- ------ -- ---- --- ----- -- - -------<br>-------- -- --- --- -- ----- ----------- ----- -----------<br>---- --- ---------- --- ---- --- -- ----------,294106.3950000098,294105.4399999557,293696.242,293703.2899999758,293712.908,294112.995,,11,reforming
screen,html.Screen,2_3_1_0_1_12,2021-04-27T08:33:51.634Z,,,,,,,,,,,,,,,,,51,,,,,,,,,,,,,,423.6449999475153,,response,,,,13,F,,,,,,Space,keypress(Space),,,,instrumental,,,,-------- -------- --- --- ---- --- --- ------ -- --------<br>---- --------- the ------- ------------ ---------- ---------<br>--- ---------- ------- ---------- ------- -- -------- ----<br>---- --- ------ ----- ------ -- ---- --- ----- -- - -------<br>-------- -- --- --- -- ----- ----------- ----- -----------<br>---- --- ---------- --- ---- --- -- ----------,294537.58499992546,294536.6399999475,294096.329,294106.64499993436,294112.995,294546.357,,12,the
screen,html.Screen,2_3_1_0_1_13,2021-04-27T08:33:52.042Z,,,,,,,,,,,,,,,,,51,,,,,,,,,,,,,,398.8379999201861,,response,,,,13,F,,,,,,Space,keypress(Space),,,,instrumental,,,,-------- -------- --- --- ---- --- --- ------ -- --------<br>---- --------- --- federal ------------ ---------- ---------<br>--- ---------- ------- ---------- ------- -- -------- ----<br>---- --- ------ ----- ------ -- ---- --- ----- -- - -------<br>-------- -- --- --- -- ----- ----------- ----- -----------<br>---- --- ---------- --- ---- --- -- ----------,294946.12500001676,294945.1949999202,294529.691,294537.81999996863,294546.357,294963.114,,13,federal
screen,html.Screen,2_3_1_0_1_14,2021-04-27T08:33:52.435Z,,,,,,,,,,,,,,,,,51,,,,,,,,,,,,,,374.2310000071884,,response,,,,13,F,,,,,,Space,keypress(Space),,,,instrumental,,,,-------- -------- --- --- ---- --- --- ------ -- --------<br>---- --------- --- ------- government's ---------- ---------<br>--- ---------- ------- ---------- ------- -- -------- ----<br>---- --- ------ ----- ------ -- ---- --- ----- -- - -------<br>-------- -- --- --- -- ----- ----------- ----- -----------<br>---- --- ---------- --- ---- --- -- ----------,295338.2650000276,295337.3450000072,294946.448,294946.3850000175,294963.114,295346.6,,14,government's
screen,html.Screen,2_3_1_0_1_15,2021-04-27T08:33:52.910Z,,,,,,,,,,,,,,,,,51,,,,,,,,,,,,,,466.76000002922956,,response,,,,13,F,,,,,,Space,keypress(Space),,,,instrumental,,,,-------- -------- --- --- ---- --- --- ------ -- --------<br>---- --------- --- ------- ------------ regulatory ---------<br>--- ---------- ------- ---------- ------- -- -------- ----<br>---- --- ------ ----- ------ -- ---- --- ----- -- - -------<br>-------- -- --- --- -- ----- ----------- ----- -----------<br>---- --- ---------- --- ---- --- -- ----------,295814.21500002034,295813.3600000292,295329.934,295338.48999999464,295346.6,295829.95,,15,regulatory
screen,html.Screen,2_3_1_0_1_16,2021-04-27T08:33:53.493Z,,,,,,,,,,,,,,,,,51,,,,,,,,,,,,,,563.8749999191496,,response,,,,13,F,,,,,,Space,keypress(Space),,,,instrumental,,,,-------- -------- --- --- ---- --- --- ------ -- --------<br>---- --------- --- ------- ------------ ---------- apparatus<br>--- ---------- ------- ---------- ------- -- -------- ----<br>---- --- ------ ----- ------ -- ---- --- ----- -- - -------<br>-------- -- --- --- -- ----- ----------- ----- -----------<br>---- --- ---------- --- ---- --- -- ----------,296396.6200000141,296393.82499991916,295813.284,295814.4349999493,295829.95,296413.333,,16,apparatus
screen,html.Screen,2_3_1_0_1_17,2021-04-27T08:33:54.050Z,,,,,,,,,,,,,,,,,51,,,,,,,,,,,,,,539.1119999444345,,response,,,,13,F,,,,,,Space,keypress(Space),,,,instrumental,,,,-------- -------- --- --- ---- --- --- ------ -- --------<br>---- --------- --- ------- ------------ ---------- ---------<br>may ---------- ------- ---------- ------- -- -------- ----<br>---- --- ------ ----- ------ -- ---- --- ----- -- - -------<br>-------- -- --- --- -- ----- ----------- ----- -----------<br>---- --- ---------- --- ---- --- -- ----------,296953.5349999787,296952.4449999444,296396.667,296396.83999994304,296413.333,296963.411,,17,may
screen,html.Screen,2_3_1_0_1_18,2021-04-27T08:33:54.721Z,,,,,,,,,,,,,,,,,51,,,,,,,,,,,,,,660.3789999832516,,response,,,,13,F,,,,,,Space,keypress(Space),,,,instrumental,,,,-------- -------- --- --- ---- --- --- ------ -- --------<br>---- --------- --- ------- ------------ ---------- ---------<br>--- profoundly ------- ---------- ------- -- -------- ----<br>---- --- ------ ----- ------ -- ---- --- ----- -- - -------<br>-------- -- --- --- -- ----- ----------- ----- -----------<br>---- --- ---------- --- ---- --- -- ----------,297624.6899999678,297623.7899999833,296946.745,296953.75999994576,296963.411,297630.171,,18,profoundly
screen,html.Screen,2_3_1_0_1_19,2021-04-27T08:33:55.197Z,,,,,,,,,,,,,,,,,51,,,,,,,,,,,,,,469.43399999581743,,response,,,,13,F,,,,,,Space,keypress(Space),,,,instrumental,,,,-------- -------- --- --- ---- --- --- ------ -- --------<br>---- --------- --- ------- ------------ ---------- ---------<br>--- ---------- improve ---------- ------- -- -------- ----<br>---- --- ------ ----- ------ -- ---- --- ----- -- - -------<br>-------- -- --- --- -- ----- ----------- ----- -----------<br>---- --- ---------- --- ---- --- -- ----------,298100.57999996934,298099.6049999958,297613.505,297624.92999993265,297630.171,298113.644,,19,improve
screen,html.Screen,2_3_1_0_1_20,2021-04-27T08:33:55.846Z,,,,,,,,,,,,,,,,,51,,,,,,,,,,,,,,634.160999933607,,response,,,,13,F,,,,,,Space,keypress(Space),,,,instrumental,,,,-------- -------- --- --- ---- --- --- ------ -- --------<br>---- --------- --- ------- ------------ ---------- ---------<br>--- ---------- ------- companies' ------- -- -------- ----<br>---- --- ------ ----- ------ -- ---- --- ----- -- - -------<br>-------- -- --- --- -- ----- ----------- ----- -----------<br>---- --- ---------- --- ---- --- -- ----------,298749.3699999759,298747.8049999336,298096.978,298100.8150000125,298113.644,298763.741,,20,companies'
screen,html.Screen,2_3_1_0_1_21,2021-04-27T08:33:56.371Z,,,,,,,,,,,,,,,,,51,,,,,,,,,,,,,,509.8139999634004,,response,,,,13,F,,,,,,Space,keypress(Space),,,,instrumental,,,,-------- -------- --- --- ---- --- --- ------ -- --------<br>---- --------- --- ------- ------------ ---------- ---------<br>--- ---------- ------- ---------- ability -- -------- ----<br>---- --- ------ ----- ------ -- ---- --- ----- -- - -------<br>-------- -- --- --- -- ----- ----------- ----- -----------<br>---- --- ---------- --- ---- --- -- ----------,299274.9199999962,299273.5549999634,298747.075,298749.63999993633,298763.741,299280.487,,21,ability
screen,html.Screen,2_3_1_0_1_22,2021-04-27T08:33:56.923Z,,,,,,,,,,,,,,,,,51,,,,,,,,,,,,,,544.802999949723,,response,,,,13,F,,,,,,Space,keypress(Space),,,,instrumental,,,,-------- -------- --- --- ---- --- --- ------ -- --------<br>---- --------- --- ------- ------------ ---------- ---------<br>--- ---------- ------- ---------- ------- to -------- ----<br>---- --- ------ ----- ------ -- ---- --- ----- -- - -------<br>-------- -- --- --- -- ----- ----------- ----- -----------<br>---- --- ---------- --- ---- --- -- ----------,299826.8149999203,299825.28999994975,299263.821,299275.18499991857,299280.487,299830.594,,22,to
screen,html.Screen,2_3_1_0_1_23,2021-04-27T08:33:57.729Z,,,,,,,,,,,,,,,,,51,,,,,,,,,,,,,,800.5710000279942,,response,,,,13,F,,,,,,Space,keypress(Space),,,,instrumental,,,,-------- -------- --- --- ---- --- --- ------ -- --------<br>---- --------- --- ------- ------------ ---------- ---------<br>--- ---------- ------- ---------- ------- -- survive. ----<br>---- --- ------ ----- ------ -- ---- --- ----- -- - -------<br>-------- -- --- --- -- ----- ----------- ----- -----------<br>---- --- ---------- --- ---- --- -- ----------,300632.5250000227,300631.165000028,299813.928,299827.15000002645,299830.594,300647.359,,23,survive.
screen,html.Screen,2_3_1_0_1_24,2021-04-27T08:33:58.295Z,,,,,,,,,,,,,,,,,51,,,,,,,,,,,,,,550.0159999888274,,response,,,,13,F,,,,,,Space,keypress(Space),,,,instrumental,,,,-------- -------- --- --- ---- --- --- ------ -- --------<br>---- --------- --- ------- ------------ ---------- ---------<br>--- ---------- ------- ---------- ------- -- -------- This<br>---- --- ------ ----- ------ -- ---- --- ----- -- - -------<br>-------- -- --- --- -- ----- ----------- ----- -----------<br>---- --- ---------- --- ---- --- -- ----------,301198.41499999166,301197.3749999888,300630.693,300632.7899999451,300647.359,301214.154,,24,This
screen,html.Screen,2_3_1_0_1_25,2021-04-27T08:33:58.792Z,,,,,,,,,,,,,,,,,51,,,,,,,,,,,,,,480.8509999868693,,response,,,,13,F,,,,,,Space,keypress(Space),,,,instrumental,,,,-------- -------- --- --- ---- --- --- ------ -- --------<br>---- --------- --- ------- ------------ ---------- ---------<br>--- ---------- ------- ---------- ------- -- -------- ----<br>week --- ------ ----- ------ -- ---- --- ----- -- - -------<br>-------- -- --- --- -- ----- ----------- ----- -----------<br>---- --- ---------- --- ---- --- -- ----------,301695.8299999824,301695.00499998685,301197.488,301198.6699999543,301214.154,301697.626,,25,week
screen,html.Screen,2_3_1_0_1_26,2021-04-27T08:33:59.151Z,,,,,,,,,,,,,,,,,51,,,,,,,,,,,,,,355.48900001699803,,response,,,,13,F,,,,,,Space,keypress(Space),,,,instrumental,,,,-------- -------- --- --- ---- --- --- ------ -- --------<br>---- --------- --- ------- ------------ ---------- ---------<br>--- ---------- ------- ---------- ------- -- -------- ----<br>---- the ------ ----- ------ -- ---- --- ----- -- - -------<br>-------- -- --- --- -- ----- ----------- ----- -----------<br>---- --- ---------- --- ---- --- -- ----------,302054.46000001393,302053.115000017,301680.96,301696.0449999897,301697.626,302064.392,,26,the
screen,html.Screen,2_3_1_0_1_27,2021-04-27T08:33:59.501Z,,,,,,,,,,,,,,,,,51,,,,,,,,,,,,,,339.34799997974187,,response,,,,13,F,,,,,,Space,keypress(Space),,,,instrumental,,,,-------- -------- --- --- ---- --- --- ------ -- --------<br>---- --------- --- ------- ------------ ---------- ---------<br>--- ---------- ------- ---------- ------- -- -------- ----<br>---- --- Senate ----- ------ -- ---- --- ----- -- - -------<br>-------- -- --- --- -- ----- ----------- ----- -----------<br>---- --- ---------- --- ---- --- -- ----------,302404.61500000674,302403.73999997973,302047.726,302054.72999997437,302064.392,302414.49,,27,Senate
screen,html.Screen,2_3_1_0_1_28,2021-04-27T08:33:59.865Z,,,,,,,,,,,,,,,,,51,,,,,,,,,,,,,,353.6300000224728,,response,,,,13,F,,,,,,Space,keypress(Space),,,,instrumental,,,,-------- -------- --- --- ---- --- --- ------ -- --------<br>---- --------- --- ------- ------------ ---------- ---------<br>--- ---------- ------- ---------- ------- -- -------- ----<br>---- --- ------ seems ------ -- ---- --- ----- -- - -------<br>-------- -- --- --- -- ----- ----------- ----- -----------<br>---- --- ---------- --- ---- --- -- ----------,302769.1249999916,302768.12000002246,302397.824,302404.8349999357,302414.49,302781.215,,28,seems
screen,html.Screen,2_3_1_0_1_29,2021-04-27T08:34:00.239Z,,,,,,,,,,,,,,,,,51,,,,,,,,,,,,,,360.86500001960667,,response,,,,13,F,,,,,,Space,keypress(Space),,,,instrumental,,,,-------- -------- --- --- ---- --- --- ------ -- --------<br>---- --------- --- ------- ------------ ---------- ---------<br>--- ---------- ------- ---------- ------- -- -------- ----<br>---- --- ------ ----- poised -- ---- --- ----- -- - -------<br>-------- -- --- --- -- ----- ----------- ----- -----------<br>---- --- ---------- --- ---- --- -- ----------,303142.93500001077,303142.08000001963,302764.549,302769.3449999206,302781.215,303147.925,,29,poised
screen,html.Screen,2_3_1_0_1_30,2021-04-27T08:34:00.692Z,,,,,,,,,,,,,,,,,51,,,,,,,,,,,,,,446.67999999114545,,response,,,,13,F,,,,,,Space,keypress(Space),,,,instrumental,,,,-------- -------- --- --- ---- --- --- ------ -- --------<br>---- --------- --- ------- ------------ ---------- ---------<br>--- ---------- ------- ---------- ------- -- -------- ----<br>---- --- ------ ----- ------ to ---- --- ----- -- - -------<br>-------- -- --- --- -- ----- ----------- ----- -----------<br>---- --- ---------- --- ---- --- -- ----------,303595.469999942,303594.60499999113,303131.259,303143.15000001807,303147.925,303598.015,,30,to
screen,html.Screen,2_3_1_0_1_31,2021-04-27T08:34:01.056Z,,,,,,,,,,,,,,,,,51,,,,,,,,,,,,,,360.9099999262253,,response,,,,13,F,,,,,,Space,keypress(Space),,,,instrumental,,,,-------- -------- --- --- ---- --- --- ------ -- --------<br>---- --------- --- ------- ------------ ---------- ---------<br>--- ---------- ------- ---------- ------- -- -------- ----<br>---- --- ------ ----- ------ -- join --- ----- -- - -------<br>-------- -- --- --- -- ----- ----------- ----- -----------<br>---- --- ---------- --- ---- --- -- ----------,303959.78499995545,303958.92499992624,303581.349,303595.69500002544,303598.015,303964.763,,31,join
screen,html.Screen,2_3_1_0_1_32,2021-04-27T08:34:01.656Z,,,,,,,,,,,,,,,,,51,,,,,,,,,,,,,,593.8219999916037,,response,,,,13,F,,,,,,Space,keypress(Space),,,,instrumental,,,,-------- -------- --- --- ---- --- --- ------ -- --------<br>---- --------- --- ------- ------------ ---------- ---------<br>--- ---------- ------- ---------- ------- -- -------- ----<br>---- --- ------ ----- ------ -- ---- the ----- -- - -------<br>-------- -- --- --- -- ----- ----------- ----- -----------<br>---- --- ---------- --- ---- --- -- ----------,304559.44999994244,304558.5849999916,303948.097,303960.0099999225,303964.763,304564.901,,32,the
screen,html.Screen,2_3_1_0_1_33,2021-04-27T08:34:02.128Z,,,,,,,,,,,,,,,,,51,,,,,,,,,,,,,,465.5589999217191,,response,,,,13,F,,,,,,Space,keypress(Space),,,,instrumental,,,,-------- -------- --- --- ---- --- --- ------ -- --------<br>---- --------- --- ------- ------------ ---------- ---------<br>--- ---------- ------- ---------- ------- -- -------- ----<br>---- --- ------ ----- ------ -- ---- --- House -- - -------<br>-------- -- --- --- -- ----- ----------- ----- -----------<br>---- --- ---------- --- ---- --- -- ----------,305031.3699999824,305030.45999992173,304548.235,304559.6699999878,304564.901,305048.213,,33,House
screen,html.Screen,2_3_1_0_1_34,2021-04-27T08:34:02.548Z,,,,,,,,,,,,,,,,,51,,,,,,,,,,,,,,402.1669999365695,,response,,,,13,F,,,,,,Space,keypress(Space),,,,instrumental,,,,-------- -------- --- --- ---- --- --- ------ -- --------<br>---- --------- --- ------- ------------ ---------- ---------<br>--- ---------- ------- ---------- ------- -- -------- ----<br>---- --- ------ ----- ------ -- ---- --- ----- in - -------<br>-------- -- --- --- -- ----- ----------- ----- -----------<br>---- --- ---------- --- ---- --- -- ----------,305451.36499998625,305450.37999993656,305031.547,305031.59499994945,305048.213,305465.019,,34,in
screen,html.Screen,2_3_1_0_1_35,2021-04-27T08:34:03.037Z,,,,,,,,,,,,,,,,,51,,,,,,,,,,,,,,472.01100003009196,,response,,,,13,F,,,,,,Space,keypress(Space),,,,instrumental,,,,-------- -------- --- --- ---- --- --- ------ -- --------<br>---- --------- --- ------- ------------ ---------- ---------<br>--- ---------- ------- ---------- ------- -- -------- ----<br>---- --- ------ ----- ------ -- ---- --- ----- -- a -------<br>-------- -- --- --- -- ----- ----------- ----- -----------<br>---- --- ---------- --- ---- --- -- ----------,305938.57999995816,305937.03000003006,305448.353,305451.6349999467,305465.019,305948.433,,35,a
screen,html.Screen,2_3_1_0_1_36,2021-04-27T08:34:03.843Z,,,,,,,,,,,,,,,,,51,,,,,,,,,,,,,,794.9219999259221,,response,,,,13,F,,,,,,Space,keypress(Space),,,,instrumental,,,,-------- -------- --- --- ---- --- --- ------ -- --------<br>---- --------- --- ------- ------------ ---------- ---------<br>--- ---------- ------- ---------- ------- -- -------- ----<br>---- --- ------ ----- ------ -- ---- --- ----- -- - massive<br>-------- -- --- --- -- ----- ----------- ----- -----------<br>---- --- ---------- --- ---- --- -- ----------,306744.7600000305,306743.35499992594,305931.767,305938.8849999523,305948.433,306748.482,,36,massive
