sender,sender_type,sender_id,timestamp,meta,,Blues,Classical,Country,Dance,Electronic,Folk,Gospel,Hip-Hop,Jazz,Latin,Musical/Film,New-age,Pop,Prolific_id,Provo_ID,R&B,Rap,Reggae,Religious,Rock,Soul,Swing,Traditional,age,artist_name,correct,correctResponse,distraction,duration,education,ended_on,familiarity,gender,headphone_check_performance,item,list,music_frequency,offensiveness,pleasantness,position_correct,preference,response,response_action,snippet_file,song_name,song_rating,sound,stimulus_1,stimulus_2,stimulus_3,text,time_commit,time_end,time_render,time_run,time_show,time_switch,url,word,word_ID
Prolific ID,html.Form,0,2021-04-24T12:35:41.041Z,"{""labjs_version"":""20.2.2"",""labjs_build"":{""flavor"":""production"",""commit"":""a25486e0c714a0ae2ce03ff94b7bb6896854dcfa""},""location"":""https://run.pavlovia.org/mvasilev/prolific_music_a/"",""userAgent"":""Mozilla/5.0 (Windows NT 10.0; Win64; x64) AppleWebKit/537.36 (KHTML, like Gecko) Chrome/89.0.4389.128 Safari/537.36"",""platform"":""Win32"",""language"":""en-GB"",""locale"":""en-GB"",""timeZone"":""Europe/London"",""timezoneOffset"":-60,""screen_width"":1366,""screen_height"":768,""scroll_width"":1366,""scroll_height"":609,""window_innerWidth"":1366,""window_innerHeight"":657,""devicePixelRatio"":1}",,,,,,,,,,,,,,,5a52a04cacc75b000179cd4c,,,,,,,,,,,,,,,16053.612000023917,,form submission,,,,,,,,,,,,,,,,,,,,,93968.3049999876,93963.55500002392,77477.356,75646.85999997891,77909.943,94211.21,{},,
Introduction,html.Screen,1_0,2021-04-24T12:35:49.042Z,,,,,,,,,,,,,,,,,,,,,,,,,,,,,,,7751.335000016683,,response,,,,,,,,,,,continue,click button,,,,,,,,,101969.42999999737,101962.54500001669,93045.67,93973.91000000061,94211.21,102070.444,,,
Volume calibration,html.Screen,1_1,2021-04-24T12:36:18.169Z,,,,,,,,,,,,,,,,,,,,,,,,,,,,,,,29006.97100000702,,response,,,,,,,,,,,continue,click button,,,,,,,,,131092.17499999795,131077.41500000702,101953.903,101970.00500001013,102070.444,131142.945,,,
Task instructions,html.Screen,1_2,2021-04-24T12:36:28.037Z,,,,,,,,,,,,,,,,,,,,,,,,,,,,,,,9813.319999986154,,response,,,,,,,,,,,continue,click button,,,,,,,,,140959.86000000266,140956.26499998616,131076.351,131095.1800000039,131142.945,140983.648,,,
Sounds,html.Screen,1_3_0_0,2021-04-24T12:36:32.306Z,,,,,,,,,,,,,,,,,,,,,,,,,,,,,,,4262.581000000006,,timeout,,,,,,,,,1,,,,,,,,S,O,I,,145228.78000000492,145212.944,140950.328,140961.52000001166,140983.648,145246.229,,,
Judgement,html.Screen,1_3_0_1,2021-04-24T12:36:35.839Z,,,,,,,,,,,,,,,,,,,,,,,,,,,,true,1,,3511.160999984306,,response,,,,,,,,,1,,1,click #choice-1,,,,,S,O,I,,148762.0599999791,148757.3899999843,145212.944,145230.01499997918,145246.229,148790.818,,,
Trial,flow.Sequence,1_3_0,2021-04-24T12:36:35.840Z,,,,,,,,,,,,,,,,,,,,,,,,,,,,,,,7773.741999984311,,completion,,,,,,,,,1,,,,,,,,S,O,I,,148763.48000002326,148757.3899999843,140950.328,140961.07499999925,140983.648,148790.818,,,
Sounds,html.Screen,1_3_1_0,2021-04-24T12:36:40.101Z,,,,,,,,,,,,,,,,,,,,,,,,,,,,,,,4248.399000000005,,timeout,,,,,,,,,1,,,,,,,,S,I,O,,153023.97500001825,153022.207,148742.943,148764.45000001695,148790.818,153039.217,,,
Judgement,html.Screen,1_3_1_1,2021-04-24T12:36:41.142Z,,,,,,,,,,,,,,,,,,,,,,,,,,,,false,1,,1022.2680000129039,,response,,,,,,,,,1,,3,click #choice-3,,,,,S,I,O,,154065.28500001878,154061.4850000129,153022.207,153024.32999998564,153039.217,154071.215,,,
Trial,flow.Sequence,1_3_1,2021-04-24T12:36:41.143Z,,,,,,,,,,,,,,,,,,,,,,,,,,,,,,,5270.667000012909,,completion,,,,,,,,,1,,,,,,,,S,I,O,,154066.05500000296,154061.4850000129,148742.943,148764.2600000254,148790.818,154071.215,,,
Sounds,html.Screen,1_3_2_0,2021-04-24T12:36:45.379Z,,,,,,,,,,,,,,,,,,,,,,,,,,,,,,,4245.975000000006,,timeout,,,,,,,,,3,,,,,,,,I,O,S,,158302.1300000255,158300.539,154054.568,154066.48999999743,154071.215,158317.19,,,
Judgement,html.Screen,1_3_2_1,2021-04-24T12:36:45.953Z,,,,,,,,,,,,,,,,,,,,,,,,,,,,true,3,,554.6449999980978,,response,,,,,,,,,3,,3,click #choice-3,,,,,I,O,S,,158875.95499999588,158871.8349999981,158300.539,158302.47500003316,158317.19,158883.322,,,
Trial,flow.Sequence,1_3_2,2021-04-24T12:36:45.953Z,,,,,,,,,,,,,,,,,,,,,,,,,,,,,,,4800.619999998104,,completion,,,,,,,,,3,,,,,,,,I,O,S,,158876.70999998227,158871.8349999981,154054.568,154066.3400000194,154071.215,158883.322,,,
Sounds,html.Screen,1_3_3_0,2021-04-24T12:36:50.192Z,,,,,,,,,,,,,,,,,,,,,,,,,,,,,,,4247.493000000017,,timeout,,,,,,,,,3,,,,,,,,O,I,S,,163114.91499998374,163112.643,158867.236,158877.64999998035,158883.322,163130.815,,,
Judgement,html.Screen,1_3_3_1,2021-04-24T12:36:51.216Z,,,,,,,,,,,,,,,,,,,,,,,,,,,,true,3,,996.6650000246591,,response,,,,,,,,,3,,3,click #choice-3,,,,,O,I,S,,164139.44499997888,164127.48000002466,163112.643,163115.28500000713,163130.815,164145.81,,,
Trial,flow.Sequence,1_3_3,2021-04-24T12:36:51.217Z,,,,,,,,,,,,,,,,,,,,,,,,,,,,,,,5244.158000024676,,completion,,,,,,,,,3,,,,,,,,O,I,S,,164140.03000000957,164127.48000002466,158867.236,158877.11499998113,158883.322,164145.81,,,
Sounds,html.Screen,1_3_4_0,2021-04-24T12:36:55.454Z,,,,,,,,,,,,,,,,,,,,,,,,,,,,,,,4246.019,,timeout,,,,,,,,,2,,,,,,,,I,S,O,,168377.52999999793,168374.328,164129.176,164140.43500000844,164145.81,168391.829,,,
Judgement,html.Screen,1_3_4_1,2021-04-24T12:36:56.646Z,,,,,,,,,,,,,,,,,,,,,,,,,,,,true,2,,1174.411000014661,,response,,,,,,,,,2,,2,click #choice-2,,,,,I,S,O,,169569.16499999352,169566.24000001466,168374.328,168378.10999999056,168391.829,169574.368,,,
Trial,flow.Sequence,1_3_4,2021-04-24T12:36:56.646Z,,,,,,,,,,,,,,,,,,,,,,,,,,,,,,,5420.430000014661,,completion,,,,,,,,,2,,,,,,,,I,S,O,,169569.71499999054,169566.24000001466,164129.176,164140.30500000808,164145.81,169574.368,,,
Sounds,html.Screen,1_3_5_0,2021-04-24T12:37:00.881Z,,,,,,,,,,,,,,,,,,,,,,,,,,,,,,,4246.847999999998,,timeout,,,,,,,,,2,,,,,,,,O,S,I,,173804.2649999843,173802.575,169557.148,169570.1349999872,169574.368,173821.216,,,
Judgement,html.Screen,1_3_5_1,2021-04-24T12:37:02.124Z,,,,,,,,,,,,,,,,,,,,,,,,,,,,true,2,,1223.0889999885403,,response,,,,,,,,,2,,2,click #choice-2,,,,,O,S,I,,175047.0150000183,175044.30499998853,173802.575,173804.7849999857,173821.216,175251.552,,,
Trial,flow.Sequence,1_3_5,2021-04-24T12:37:02.124Z,,,,,,,,,,,,,,,,,,,,,,,,,,,,,,,5469.936999988538,,completion,,,,,,,,,2,,,,,,,,O,S,I,,175047.5350000197,175044.30499998853,169557.148,169570.01000002492,169574.368,175251.552,,,
Task,flow.Loop,1_3,2021-04-24T12:37:02.146Z,,,,,,,,,,,,,,,,,,,,,,,,,,,,,,,34060.65699998854,,completion,,,0.8333333333333334,,,,,,,,,,,,,,,,,,175069.34500002535,175044.30499998853,140950.328,140960.51000000443,140983.648,175251.552,,,
Trap,html.Screen,1_4,2021-04-24T12:37:02.298Z,,,,,,,,,,,,,,,,,,,,,,,,,,,,,,,NaN,,skipped,,,,,,,,,,,,,,,,,,,,,175221.13499999978,175044.30499998853,,175220.39999999106,,175251.552,,,
Thanks,html.Screen,1_5,2021-04-24T12:37:06.014Z,,,,,,,,,,,,,,,,,,,,,,,,,,,,,,,3683.2080000328424,,response,,,,,,,,,,,continue,click button,,,,,,,,,178937.46500002453,178934.76000003284,175034.955,175221.8700000085,175251.552,186074.286,,,
Headphone screening,flow.Sequence,1,2021-04-24T12:37:06.015Z,,,,,,,,,,,,,,,,,,,,,,,,,,,,,,,84723.55000003283,,completion,,,,,,,,,,,,,,,,,,,,,178938.25499998638,178934.76000003284,93045.67,93973.33000000799,94211.21,186074.286,,,
Instructions,html.Page,2_0,2021-04-24T12:37:31.901Z,,,,,,,,,,,,,,,,,,,,,,,,,,,,,,,18757.679000019416,,form submission,,,,,,,,,,,,,,,,,,,,,204833.74500001082,204831.9650000194,185777.875,186051.2849999941,186074.286,204889.825,,,
Holding screen,html.Screen,2_1_0_0,2021-04-24T12:37:41.971Z,,,,,,,,,,,,,,,,,,,,,,,,,,,,,,,10107.054999999993,,timeout,,,,,,,,,,,,,,,,,,,,,214903.47999997903,214880.324,204806.567,204836.26000001095,204889.825,214996.88,,,
screen,html.Screen,2_1_0_1_0,2021-04-24T12:37:43.271Z,,,,,,,,,,,,,,,,,53,,,,,,,,,,,,,,1194.3900000102585,,response,,,,99,,,,,,,Space,keypress(Space),,,,,,,,When -- ----- -- ------ - ------- --- ----------<br>------------- ------ ------ ---- ---- ------- ----- -- ----<br>-------- ------- -- ---------- --- - --- ----- ----- ----<br>---- --- --- ----- --- ---- ---- ------- ----- ---- -------<br>--- --- -- ----- -- --- ---- -- --- ---- -- ------ ------<br>--- ----- -- ----,216203.2500000205,216191.27000001026,214880.324,214905.36999999313,214996.88,216212.407,,0,When
screen,html.Screen,2_1_0_1_1,2021-04-24T12:37:43.840Z,,,,,,,,,,,,,,,,,53,,,,,,,,,,,,,,552.1629999993602,,response,,,,99,,,,,,,Space,keypress(Space),,,,,,,,---- it ----- -- ------ - ------- --- ----------<br>------------- ------ ------ ---- ---- ------- ----- -- ----<br>-------- ------- -- ---------- --- - --- ----- ----- ----<br>---- --- --- ----- --- ---- ---- ------- ----- ---- -------<br>--- --- -- ----- -- --- ---- -- --- ---- -- ------ ------<br>--- ----- -- ----,216772.0650000265,216764.56999999937,216195.675,216203.71500001056,216212.407,216795.18,,1,it
screen,html.Screen,2_1_0_1_2,2021-04-24T12:37:44.271Z,,,,,,,,,,,,,,,,,53,,,,,,,,,,,,,,405.4800000313553,,response,,,,99,,,,,,,Space,keypress(Space),,,,,,,,---- -- comes -- ------ - ------- --- ----------<br>------------- ------ ------ ---- ---- ------- ----- -- ----<br>-------- ------- -- ---------- --- - --- ----- ----- ----<br>---- --- --- ----- --- ---- ---- ------- ----- ---- -------<br>--- --- -- ----- -- --- ---- -- --- ---- -- ------ ------<br>--- ----- -- ----,217202.93000002857,217200.66000003135,216762.111,216772.4000000162,216795.18,217211.824,,2,comes
screen,html.Screen,2_1_0_1_3,2021-04-24T12:37:44.606Z,,,,,,,,,,,,,,,,,53,,,,,,,,,,,,,,324.17099998382037,,response,,,,99,,,,,,,Space,keypress(Space),,,,,,,,---- -- ----- to ------ - ------- --- ----------<br>------------- ------ ------ ---- ---- ------- ----- -- ----<br>-------- ------- -- ---------- --- - --- ----- ----- ----<br>---- --- --- ----- --- ---- ---- ------- ----- ---- -------<br>--- --- -- ----- -- --- ---- -- --- ---- -- ------ ------<br>--- ----- -- ----,217538.21500000777,217535.9949999838,217194.806,217203.39500001865,217211.824,217544.472,,3,to
screen,html.Screen,2_1_0_1_4,2021-04-24T12:37:44.961Z,,,,,,,,,,,,,,,,,53,,,,,,,,,,,,,,346.74300001055235,,response,,,,99,,,,,,,Space,keypress(Space),,,,,,,,---- -- ----- -- having - ------- --- ----------<br>------------- ------ ------ ---- ---- ------- ----- -- ----<br>-------- ------- -- ---------- --- - --- ----- ----- ----<br>---- --- --- ----- --- ---- ---- ------- ----- ---- -------<br>--- --- -- ----- -- --- ---- -- --- ---- -- ------ ------<br>--- ----- -- ----,217892.96999998624,217891.21500001056,217527.806,217538.64500002237,217544.472,217910.777,,4,having
screen,html.Screen,2_1_0_1_5,2021-04-24T12:37:45.303Z,,,,,,,,,,,,,,,,,53,,,,,,,,,,,,,,321.85800002212636,,response,,,,99,,,,,,,Space,keypress(Space),,,,,,,,---- -- ----- -- ------ a ------- --- ----------<br>------------- ------ ------ ---- ---- ------- ----- -- ----<br>-------- ------- -- ---------- --- - --- ----- ----- ----<br>---- --- --- ----- --- ---- ---- ------- ----- ---- -------<br>--- --- -- ----- -- --- ---- -- --- ---- -- ------ ------<br>--- ----- -- ----,218235.2050000336,218232.63500002213,217894.11,217893.32500001183,217910.777,218243.876,,5,a
screen,html.Screen,2_1_0_1_6,2021-04-24T12:37:45.655Z,,,,,,,,,,,,,,,,,53,,,,,,,,,,,,,,338.7339999831165,,response,,,,99,,,,,,,Space,keypress(Space),,,,,,,,---- -- ----- -- ------ - lasting --- ----------<br>------------- ------ ------ ---- ---- ------- ----- -- ----<br>-------- ------- -- ---------- --- - --- ----- ----- ----<br>---- --- --- ----- --- ---- ---- ------- ----- ---- -------<br>--- --- -- ----- -- --- ---- -- --- ---- -- ------ ------<br>--- ----- -- ----,218587.31000003172,218582.6099999831,218227.223,218235.57999997865,218243.876,218593.461,,6,lasting
screen,html.Screen,2_1_0_1_7,2021-04-24T12:37:46.031Z,,,,,,,,,,,,,,,,,53,,,,,,,,,,,,,,367.6640000307234,,response,,,,99,,,,,,,Space,keypress(Space),,,,,,,,---- -- ----- -- ------ - ------- and ----------<br>------------- ------ ------ ---- ---- ------- ----- -- ----<br>-------- ------- -- ---------- --- - --- ----- ----- ----<br>---- --- --- ----- --- ---- ---- ------- ----- ---- -------<br>--- --- -- ----- -- --- ---- -- --- ---- -- ------ ------<br>--- ----- -- ----,218963.48500001477,218961.12500003073,218576.811,218588.05999998003,218593.461,218976.427,,7,and
screen,html.Screen,2_1_0_1_8,2021-04-24T12:37:46.417Z,,,,,,,,,,,,,,,,,53,,,,,,,,,,,,,,370.3329999858106,,response,,,,99,,,,,,,Space,keypress(Space),,,,,,,,---- -- ----- -- ------ - ------- --- fulfilling<br>------------- ------ ------ ---- ---- ------- ----- -- ----<br>-------- ------- -- ---------- --- - --- ----- ----- ----<br>---- --- --- ----- --- ---- ---- ------- ----- ---- -------<br>--- --- -- ----- -- --- ---- -- --- ---- -- ------ ------<br>--- ----- -- ----,219349.664999987,219346.7599999858,218959.755,218964.09000002313,218976.427,219359.425,,8,fulfilling
screen,html.Screen,2_1_0_1_9,2021-04-24T12:37:46.784Z,,,,,,,,,,,,,,,,,53,,,,,,,,,,,,,,354.25499998620944,,response,,,,99,,,,,,,Space,keypress(Space),,,,,,,,"---- -- ----- -- ------ - ------- --- ----------<br>relationship, ------ ------ ---- ---- ------- ----- -- ----<br>-------- ------- -- ---------- --- - --- ----- ----- ----<br>---- --- --- ----- --- ---- ---- ------- ----- ---- -------<br>--- --- -- ----- -- --- ---- -- --- ---- -- ------ ------<br>--- ----- -- ----",219715.9700000193,219713.6799999862,219343.294,219350.42500001146,219359.425,219725.981,,9,"relationship,"
screen,html.Screen,2_1_0_1_10,2021-04-24T12:37:47.135Z,,,,,,,,,,,,,,,,,53,,,,,,,,,,,,,,339.0440000180679,,response,,,,99,,,,,,,Space,keypress(Space),,,,,,,,---- -- ----- -- ------ - ------- --- ----------<br>------------- common ------ ---- ---- ------- ----- -- ----<br>-------- ------- -- ---------- --- - --- ----- ----- ----<br>---- --- --- ----- --- ---- ---- ------- ----- ---- -------<br>--- --- -- ----- -- --- ---- -- --- ---- -- ------ ------<br>--- ----- -- ----,220067.4950000248,220065.02500001807,219709.125,219716.31500002695,219725.981,220075.448,,10,common
screen,html.Screen,2_1_0_1_11,2021-04-24T12:37:47.551Z,,,,,,,,,,,,,,,,,53,,,,,,,,,,,,,,406.16699999695993,,response,,,,99,,,,,,,Space,keypress(Space),,,,,,,,---- -- ----- -- ------ - ------- --- ----------<br>------------- ------ wisdom ---- ---- ------- ----- -- ----<br>-------- ------- -- ---------- --- - --- ----- ----- ----<br>---- --- --- ----- --- ---- ---- ------- ----- ---- -------<br>--- --- -- ----- -- --- ---- -- --- ---- -- ------ ------<br>--- ----- -- ----,220483.72499999823,220481.61499999696,220058.734,220068.10500001302,220075.448,220491.677,,11,wisdom
screen,html.Screen,2_1_0_1_12,2021-04-24T12:37:47.949Z,,,,,,,,,,,,,,,,,53,,,,,,,,,,,,,,383.45300000035786,,response,,,,99,,,,,,,Space,keypress(Space),,,,,,,,---- -- ----- -- ------ - ------- --- ----------<br>------------- ------ ------ says ---- ------- ----- -- ----<br>-------- ------- -- ---------- --- - --- ----- ----- ----<br>---- --- --- ----- --- ---- ---- ------- ----- ---- -------<br>--- --- -- ----- -- --- ---- -- --- ---- -- ------ ------<br>--- ----- -- ----,220880.86500001373,220875.13000000035,220475.016,220484.55500003183,220491.677,220891.303,,12,says
screen,html.Screen,2_1_0_1_13,2021-04-24T12:37:48.274Z,,,,,,,,,,,,,,,,,53,,,,,,,,,,,,,,312.3319999834639,,response,,,,99,,,,,,,Space,keypress(Space),,,,,,,,---- -- ----- -- ------ - ------- --- ----------<br>------------- ------ ------ ---- that ------- ----- -- ----<br>-------- ------- -- ---------- --- - --- ----- ----- ----<br>---- --- --- ----- --- ---- ---- ------- ----- ---- -------<br>--- --- -- ----- -- --- ---- -- --- ---- -- ------ ------<br>--- ----- -- ----,221206.5650000004,221203.63499998348,220874.629,220881.2199999811,220891.303,221224.361,,13,that
screen,html.Screen,2_1_0_1_14,2021-04-24T12:37:48.649Z,,,,,,,,,,,,,,,,,53,,,,,,,,,,,,,,352.4140000231855,,response,,,,99,,,,,,,Space,keypress(Space),,,,,,,,---- -- ----- -- ------ - ------- --- ----------<br>------------- ------ ------ ---- ---- feeling ----- -- ----<br>-------- ------- -- ---------- --- - --- ----- ----- ----<br>---- --- --- ----- --- ---- ---- ------- ----- ---- -------<br>--- --- -- ----- -- --- ---- -- --- ---- -- ------ ------<br>--- ----- -- ----,221581.17499999935,221576.7750000232,221207.687,221207.31500000693,221224.361,221590.727,,14,feeling
screen,html.Screen,2_1_0_1_15,2021-04-24T12:37:49.028Z,,,,,,,,,,,,,,,,,53,,,,,,,,,,,,,,364.53799999685725,,response,,,,99,,,,,,,Space,keypress(Space),,,,,,,,---- -- ----- -- ------ - ------- --- ----------<br>------------- ------ ------ ---- ---- ------- close -- ----<br>-------- ------- -- ---------- --- - --- ----- ----- ----<br>---- --- --- ----- --- ---- ---- ------- ----- ---- -------<br>--- --- -- ----- -- --- ---- -- --- ---- -- ------ ------<br>--- ----- -- ----,221960.23500000592,221955.26499999687,221573.976,221582.40499999374,221590.727,221973.707,,15,close
screen,html.Screen,2_1_0_1_16,2021-04-24T12:37:49.328Z,,,,,,,,,,,,,,,,,53,,,,,,,,,,,,,,283.038000020606,,response,,,,99,,,,,,,Space,keypress(Space),,,,,,,,---- -- ----- -- ------ - ------- --- ----------<br>------------- ------ ------ ---- ---- ------- ----- to ----<br>-------- ------- -- ---------- --- - --- ----- ----- ----<br>---- --- --- ----- --- ---- ---- ------- ----- ---- -------<br>--- --- -- ----- -- --- ---- -- --- ---- -- ------ ------<br>--- ----- -- ----,222260.20999997854,222256.7450000206,221956.927,221962.44500001194,221973.707,222273.478,,16,to
screen,html.Screen,2_1_0_1_17,2021-04-24T12:37:49.705Z,,,,,,,,,,,,,,,,,53,,,,,,,,,,,,,,356.3969999841647,,response,,,,99,,,,,,,Space,keypress(Space),,,,,,,,---- -- ----- -- ------ - ------- --- ----------<br>------------- ------ ------ ---- ---- ------- ----- -- your<br>-------- ------- -- ---------- --- - --- ----- ----- ----<br>---- --- --- ----- --- ---- ---- ------- ----- ---- -------<br>--- --- -- ----- -- --- ---- -- --- ---- -- ------ ------<br>--- ----- -- ----,222637.45500001824,222629.87499998417,222256.877,222261.445000011,222273.478,222689.651,,17,your
screen,html.Screen,2_1_0_1_18,2021-04-24T12:37:50.035Z,,,,,,,,,,,,,,,,,53,,,,,,,,,,,,,,274.65900001028785,,response,,,,99,,,,,,,Space,keypress(Space),,,,,,,,---- -- ----- -- ------ - ------- --- ----------<br>------------- ------ ------ ---- ---- ------- ----- -- ----<br>romantic ------- -- ---------- --- - --- ----- ----- ----<br>---- --- --- ----- --- ---- ---- ------- ----- ---- -------<br>--- --- -- ----- -- --- ---- -- --- ---- -- ------ ------<br>--- ----- -- ----,222967.13000000454,222964.3100000103,222656.286,222637.80999998562,222689.651,222972.709,,18,romantic
screen,html.Screen,2_1_0_1_19,2021-04-24T12:37:50.363Z,,,,,,,,,,,,,,,,,53,,,,,,,,,,,,,,320.59599999923375,,response,,,,99,,,,,,,Space,keypress(Space),,,,,,,,---- -- ----- -- ------ - ------- --- ----------<br>------------- ------ ------ ---- ---- ------- ----- -- ----<br>-------- partner -- ---------- --- - --- ----- ----- ----<br>---- --- --- ----- --- ---- ---- ------- ----- ---- -------<br>--- --- -- ----- -- --- ---- -- --- ---- -- ------ ------<br>--- ----- -- ----,223295.51999998512,223293.30499999924,222956.001,222968.06500002276,222972.709,223305.939,,19,partner
screen,html.Screen,2_1_0_1_20,2021-04-24T12:37:50.710Z,,,,,,,,,,,,,,,,,53,,,,,,,,,,,,,,334.5859999952372,,response,,,,99,,,,,,,Space,keypress(Space),,,,,,,,---- -- ----- -- ------ - ------- --- ----------<br>------------- ------ ------ ---- ---- ------- ----- -- ----<br>-------- ------- is ---------- --- - --- ----- ----- ----<br>---- --- --- ----- --- ---- ---- ------- ----- ---- -------<br>--- --- -- ----- -- --- ---- -- --- ---- -- ------ ------<br>--- ----- -- ----,223642.4100000295,223640.52499999525,223289.034,223295.9850000334,223305.939,223655.558,,20,is
screen,html.Screen,2_1_0_1_21,2021-04-24T12:37:51.020Z,,,,,,,,,,,,,,,,,53,,,,,,,,,,,,,,292.4519999928016,,response,,,,99,,,,,,,Space,keypress(Space),,,,,,,,---- -- ----- -- ------ - ------- --- ----------<br>------------- ------ ------ ---- ---- ------- ----- -- ----<br>-------- ------- -- paramount. --- - --- ----- ----- ----<br>---- --- --- ----- --- ---- ---- ------- ----- ---- -------<br>--- --- -- ----- -- --- ---- -- --- ---- -- ------ ------<br>--- ----- -- ----,223952.57999998285,223948.0099999928,223638.695,223642.75499997893,223655.558,223971.842,,21,paramount.
screen,html.Screen,2_1_0_1_22,2021-04-24T12:37:51.417Z,,,,,,,,,,,,,,,,,53,,,,,,,,,,,,,,375.1629999887082,,response,,,,99,,,,,,,Space,keypress(Space),,,,,,,,---- -- ----- -- ------ - ------- --- ----------<br>------------- ------ ------ ---- ---- ------- ----- -- ----<br>-------- ------- -- ---------- But - --- ----- ----- ----<br>---- --- --- ----- --- ---- ---- ------- ----- ---- -------<br>--- --- -- ----- -- --- ---- -- --- ---- -- ------ ------<br>--- ----- -- ----,224349.4349999819,224347.0049999887,223955.082,223954.00500000687,223971.842,224354.698,,22,But
screen,html.Screen,2_1_0_1_23,2021-04-24T12:37:51.771Z,,,,,,,,,,,,,,,,,53,,,,,,,,,,,,,,346.1469999848341,,response,,,,99,,,,,,,Space,keypress(Space),,,,,,,,---- -- ----- -- ------ - ------- --- ----------<br>------------- ------ ------ ---- ---- ------- ----- -- ----<br>-------- ------- -- ---------- --- a --- ----- ----- ----<br>---- --- --- ----- --- ---- ---- ------- ----- ---- -------<br>--- --- -- ----- -- --- ---- -- --- ---- -- ------ ------<br>--- ----- -- ----,224702.86999997916,224700.84499998484,224338.11,224349.7900000075,224354.698,224737.689,,23,a
screen,html.Screen,2_1_0_1_24,2021-04-24T12:37:52.112Z,,,,,,,,,,,,,,,,,53,,,,,,,,,,,,,,302.0310000006575,,response,,,,99,,,,,,,Space,keypress(Space),,,,,,,,---- -- ----- -- ------ - ------- --- ----------<br>------------- ------ ------ ---- ---- ------- ----- -- ----<br>-------- ------- -- ---------- --- - new ----- ----- ----<br>---- --- --- ----- --- ---- ---- ------- ----- ---- -------<br>--- --- -- ----- -- --- ---- -- --- ---- -- ------ ------<br>--- ----- -- ----,225044.7699999786,225039.72000000067,224721.005,224703.3999999985,224737.689,225054.037,,24,new
screen,html.Screen,2_1_0_1_25,2021-04-24T12:37:52.445Z,,,,,,,,,,,,,,,,,53,,,,,,,,,,,,,,319.1279999972321,,response,,,,99,,,,,,,Space,keypress(Space),,,,,,,,---- -- ----- -- ------ - ------- --- ----------<br>------------- ------ ------ ---- ---- ------- ----- -- ----<br>-------- ------- -- ---------- --- - --- study ----- ----<br>---- --- --- ----- --- ---- ---- ------- ----- ---- -------<br>--- --- -- ----- -- --- ---- -- --- ---- -- ------ ------<br>--- ----- -- ----,225376.88500003424,225373.16499999724,225037.356,225046.32000002312,225054.037,225388.164,,25,study
screen,html.Screen,2_1_0_1_26,2021-04-24T12:37:52.943Z,,,,,,,,,,,,,,,,,53,,,,,,,,,,,,,,484.66600000753533,,response,,,,99,,,,,,,Space,keypress(Space),,,,,,,,---- -- ----- -- ------ - ------- --- ----------<br>------------- ------ ------ ---- ---- ------- ----- -- ----<br>-------- ------- -- ---------- --- - --- ----- finds ----<br>---- --- --- ----- --- ---- ---- ------- ----- ---- -------<br>--- --- -- ----- -- --- ---- -- --- ---- -- ------ ------<br>--- ----- -- ----,225874.93500002893,225872.83000000753,225370.377,225377.25499999942,225388.164,225886.555,,26,finds
screen,html.Screen,2_1_0_1_27,2021-04-24T12:37:53.265Z,,,,,,,,,,,,,,,,,53,,,,,,,,,,,,,,309.1250000043656,,response,,,,99,,,,,,,Space,keypress(Space),,,,,,,,---- -- ----- -- ------ - ------- --- ----------<br>------------- ------ ------ ---- ---- ------- ----- -- ----<br>-------- ------- -- ---------- --- - --- ----- ----- that<br>---- --- --- ----- --- ---- ---- ------- ----- ---- -------<br>--- --- -- ----- -- --- ---- -- --- ---- -- ------ ------<br>--- ----- -- ----,226197.54999998258,226195.68000000436,225870.878,225875.26499998057,225886.555,226252.907,,27,that
screen,html.Screen,2_1_0_1_28,2021-04-24T12:37:53.655Z,,,,,,,,,,,,,,,,,53,,,,,,,,,,,,,,332.8630000051344,,response,,,,99,,,,,,,Space,keypress(Space),,,,,,,,---- -- ----- -- ------ - ------- --- ----------<br>------------- ------ ------ ---- ---- ------- ----- -- ----<br>-------- ------- -- ---------- --- - --- ----- ----- ----<br>it's --- --- ----- --- ---- ---- ------- ----- ---- -------<br>--- --- -- ----- -- --- ---- -- --- ---- -- ------ ------<br>--- ----- -- ----,226587.835000013,226585.77000000514,226236.232,226242.1350000077,226252.907,226602.525,,28,it's
screen,html.Screen,2_1_0_1_29,2021-04-24T12:37:53.971Z,,,,,,,,,,,,,,,,,53,,,,,,,,,,,,,,298.5150000261201,,response,,,,99,,,,,,,Space,keypress(Space),,,,,,,,---- -- ----- -- ------ - ------- --- ----------<br>------------- ------ ------ ---- ---- ------- ----- -- ----<br>-------- ------- -- ---------- --- - --- ----- ----- ----<br>---- not --- ----- --- ---- ---- ------- ----- ---- -------<br>--- --- -- ----- -- --- ---- -- --- ---- -- ------ ------<br>--- ----- -- ----,226903.34000001894,226901.0400000261,226585.958,226588.18500000052,226602.525,226918.951,,29,not
screen,html.Screen,2_1_0_1_30,2021-04-24T12:37:54.272Z,,,,,,,,,,,,,,,,,53,,,,,,,,,,,,,,283.57900000957306,,response,,,,99,,,,,,,Space,keypress(Space),,,,,,,,---- -- ----- -- ------ - ------- --- ----------<br>------------- ------ ------ ---- ---- ------- ----- -- ----<br>-------- ------- -- ---------- --- - --- ----- ----- ----<br>---- --- how ----- --- ---- ---- ------- ----- ---- -------<br>--- --- -- ----- -- --- ---- -- --- ---- -- ------ ------<br>--- ----- -- ----,227204.36000003247,227202.53000000957,226902.253,226903.78500003135,226918.951,227219.895,,30,how
screen,html.Screen,2_1_0_1_31,2021-04-24T12:37:54.716Z,,,,,,,,,,,,,,,,,53,,,,,,,,,,,,,,426.1200000057288,,response,,,,99,,,,,,,Space,keypress(Space),,,,,,,,---- -- ----- -- ------ - ------- --- ----------<br>------------- ------ ------ ---- ---- ------- ----- -- ----<br>-------- ------- -- ---------- --- - --- ----- ----- ----<br>---- --- --- close --- ---- ---- ------- ----- ---- -------<br>--- --- -- ----- -- --- ---- -- --- ---- -- ------ ------<br>--- ----- -- ----,227648.3850000077,227646.01500000572,227202.033,227206.56999998027,227219.895,227651.572,,31,close
screen,html.Screen,2_1_0_1_32,2021-04-24T12:37:54.991Z,,,,,,,,,,,,,,,,,53,,,,,,,,,,,,,,269.81800003227545,,response,,,,99,,,,,,,Space,keypress(Space),,,,,,,,---- -- ----- -- ------ - ------- --- ----------<br>------------- ------ ------ ---- ---- ------- ----- -- ----<br>-------- ------- -- ---------- --- - --- ----- ----- ----<br>---- --- --- ----- you ---- ---- ------- ----- ---- -------<br>--- --- -- ----- -- --- ---- -- --- ---- -- ------ ------<br>--- ----- -- ----,227923.40500000864,227921.39000003226,227634.905,227648.9350000047,227651.572,227934.628,,32,you
screen,html.Screen,2_1_0_1_33,2021-04-24T12:37:55.250Z,,,,,,,,,,,,,,,,,53,,,,,,,,,,,,,,244.34200000812416,,response,,,,99,,,,,,,Space,keypress(Space),,,,,,,,---- -- ----- -- ------ - ------- --- ----------<br>------------- ------ ------ ---- ---- ------- ----- -- ----<br>-------- ------- -- ---------- --- - --- ----- ----- ----<br>---- --- --- ----- --- feel ---- ------- ----- ---- -------<br>--- --- -- ----- -- --- ---- -- --- ---- -- ------ ------<br>--- ----- -- ----,228182.1549999877,228178.97000000812,227917.974,227923.72999998042,227934.628,228184.398,,33,feel
screen,html.Screen,2_1_0_1_34,2021-04-24T12:37:55.514Z,,,,,,,,,,,,,,,,,53,,,,,,,,,,,,,,256.63199998723576,,response,,,,99,,,,,,,Space,keypress(Space),,,,,,,,---- -- ----- -- ------ - ------- --- ----------<br>------------- ------ ------ ---- ---- ------- ----- -- ----<br>-------- ------- -- ---------- --- - --- ----- ----- ----<br>---- --- --- ----- --- ---- that ------- ----- ---- -------<br>--- --- -- ----- -- --- ---- -- --- ---- -- ------ ------<br>--- ----- -- ----,228446.40499999514,228441.02999998722,228167.951,228182.58000002243,228184.398,228450.862,,34,that
screen,html.Screen,2_1_0_1_35,2021-04-24T12:37:56.004Z,,,,,,,,,,,,,,,,,53,,,,,,,,,,,,,,483.42300002483535,,response,,,,99,,,,,,,Space,keypress(Space),,,,,,,,---- -- ----- -- ------ - ------- --- ----------<br>------------- ------ ------ ---- ---- ------- ----- -- ----<br>-------- ------- -- ---------- --- - --- ----- ----- ----<br>---- --- --- ----- --- ---- ---- matters ----- ---- -------<br>--- --- -- ----- -- --- ---- -- --- ---- -- ------ ------<br>--- ----- -- ----,228936.6550000268,228934.28500002483,228434.156,228446.98499998776,228450.862,228950.417,,35,matters
screen,html.Screen,2_1_0_1_36,2021-04-24T12:37:56.277Z,,,,,,,,,,,,,,,,,53,,,,,,,,,,,,,,257.0380000252335,,response,,,,99,,,,,,,Space,keypress(Space),,,,,,,,"---- -- ----- -- ------ - ------- --- ----------<br>------------- ------ ------ ---- ---- ------- ----- -- ----<br>-------- ------- -- ---------- --- - --- ----- ----- ----<br>---- --- --- ----- --- ---- ---- ------- most, ---- -------<br>--- --- -- ----- -- --- ---- -- --- ---- -- ------ ------<br>--- ----- -- ----",229209.55500000855,229207.45500002522,228933.683,228938.2050000131,228950.417,229216.754,,36,"most,"
screen,html.Screen,2_1_0_1_37,2021-04-24T12:37:56.581Z,,,,,,,,,,,,,,,,,53,,,,,,,,,,,,,,294.8259999912407,,response,,,,99,,,,,,,Space,keypress(Space),,,,,,,,---- -- ----- -- ------ - ------- --- ----------<br>------------- ------ ------ ---- ---- ------- ----- -- ----<br>-------- ------- -- ---------- --- - --- ----- ----- ----<br>---- --- --- ----- --- ---- ---- ------- ----- it's -------<br>--- --- -- ----- -- --- ---- -- --- ---- -- ------ ------<br>--- ----- -- ----,229513.84999998845,229511.57999999123,229200.103,229210.00500000082,229216.754,229516.536,,37,it's
screen,html.Screen,2_1_0_1_38,2021-04-24T12:37:56.935Z,,,,,,,,,,,,,,,,,53,,,,,,,,,,,,,,348.02899999622605,,response,,,,99,,,,,,,Space,keypress(Space),,,,,,,,---- -- ----- -- ------ - ------- --- ----------<br>------------- ------ ------ ---- ---- ------- ----- -- ----<br>-------- ------- -- ---------- --- - --- ----- ----- ----<br>---- --- --- ----- --- ---- ---- ------- ----- ---- whether<br>--- --- -- ----- -- --- ---- -- --- ---- -- ------ ------<br>--- ----- -- ----,229867.61499999557,229864.56499999622,229499.823,229514.28000000305,229516.536,229883.451,,38,whether
screen,html.Screen,2_1_0_1_39,2021-04-24T12:37:57.180Z,,,,,,,,,,,,,,,,,53,,,,,,,,,,,,,,227.37399998155888,,response,,,,99,,,,,,,Space,keypress(Space),,,,,,,,---- -- ----- -- ------ - ------- --- ----------<br>------------- ------ ------ ---- ---- ------- ----- -- ----<br>-------- ------- -- ---------- --- - --- ----- ----- ----<br>---- --- --- ----- --- ---- ---- ------- ----- ---- -------<br>you --- -- ----- -- --- ---- -- --- ---- -- ------ ------<br>--- ----- -- ----,230112.7550000092,230110.82499998156,229866.104,229868.2399999816,229883.451,230115.892,,39,you
screen,html.Screen,2_1_0_1_40,2021-04-24T12:37:57.451Z,,,,,,,,,,,,,,,,,53,,,,,,,,,,,,,,260.21300003211945,,response,,,,99,,,,,,,Space,keypress(Space),,,,,,,,---- -- ----- -- ------ - ------- --- ----------<br>------------- ------ ------ ---- ---- ------- ----- -- ----<br>-------- ------- -- ---------- --- - --- ----- ----- ----<br>---- --- --- ----- --- ---- ---- ------- ----- ---- -------<br>--- are -- ----- -- --- ---- -- --- ---- -- ------ ------<br>--- ----- -- ----,230383.38000001386,230376.1050000321,230099.299,230113.3700000355,230115.892,230398.939,,40,are
screen,html.Screen,2_1_0_1_41,2021-04-24T12:37:57.699Z,,,,,,,,,,,,,,,,,53,,,,,,,,,,,,,,230.06100001535378,,response,,,,99,,,,,,,Space,keypress(Space),,,,,,,,---- -- ----- -- ------ - ------- --- ----------<br>------------- ------ ------ ---- ---- ------- ----- -- ----<br>-------- ------- -- ---------- --- - --- ----- ----- ----<br>---- --- --- ----- --- ---- ---- ------- ----- ---- -------<br>--- --- as ----- -- --- ---- -- --- ---- -- ------ ------<br>--- ----- -- ----,230631.70500000706,230629.00000001537,230382.296,230384.00000002002,230398.939,230648.742,,41,as
screen,html.Screen,2_1_0_1_42,2021-04-24T12:37:58.004Z,,,,,,,,,,,,,,,,,53,,,,,,,,,,,,,,285.4030000065395,,response,,,,99,,,,,,,Space,keypress(Space),,,,,,,,---- -- ----- -- ------ - ------- --- ----------<br>------------- ------ ------ ---- ---- ------- ----- -- ----<br>-------- ------- -- ---------- --- - --- ----- ----- ----<br>---- --- --- ----- --- ---- ---- ------- ----- ---- -------<br>--- --- -- close -- --- ---- -- --- ---- -- ------ ------<br>--- ----- -- ----,230936.05000001844,230934.14500000654,230632.166,230632.04500003485,230648.742,230948.826,,42,close
screen,html.Screen,2_1_0_1_43,2021-04-24T12:37:58.335Z,,,,,,,,,,,,,,,,,53,,,,,,,,,,,,,,315.7640000352403,,response,,,,99,,,,,,,Space,keypress(Space),,,,,,,,---- -- ----- -- ------ - ------- --- ----------<br>------------- ------ ------ ---- ---- ------- ----- -- ----<br>-------- ------- -- ---------- --- - --- ----- ----- ----<br>---- --- --- ----- --- ---- ---- ------- ----- ---- -------<br>--- --- -- ----- as --- ---- -- --- ---- -- ------ ------<br>--- ----- -- ----,231266.94000000134,231264.59000003524,230931.835,230942.4449999933,230948.826,231281.469,,43,as
screen,html.Screen,2_1_0_1_44,2021-04-24T12:37:58.601Z,,,,,,,,,,,,,,,,,53,,,,,,,,,,,,,,249.98599998935242,,response,,,,99,,,,,,,Space,keypress(Space),,,,,,,,---- -- ----- -- ------ - ------- --- ----------<br>------------- ------ ------ ---- ---- ------- ----- -- ----<br>-------- ------- -- ---------- --- - --- ----- ----- ----<br>---- --- --- ----- --- ---- ---- ------- ----- ---- -------<br>--- --- -- ----- -- you ---- -- --- ---- -- ------ ------<br>--- ----- -- ----,231533.42500003055,231531.45499998936,231264.964,231267.2550000134,231281.469,231547.867,,44,you
screen,html.Screen,2_1_0_1_45,2021-04-24T12:37:58.900Z,,,,,,,,,,,,,,,,,53,,,,,,,,,,,,,,282.24299998077913,,response,,,,99,,,,,,,Space,keypress(Space),,,,,,,,---- -- ----- -- ------ - ------- --- ----------<br>------------- ------ ------ ---- ---- ------- ----- -- ----<br>-------- ------- -- ---------- --- - --- ----- ----- ----<br>---- --- --- ----- --- ---- ---- ------- ----- ---- -------<br>--- --- -- ----- -- --- want -- --- ---- -- ------ ------<br>--- ----- -- ----,231831.86999999452,231830.10999998078,231531.242,231544.4150000112,231547.867,231847.662,,45,want
screen,html.Screen,2_1_0_1_46,2021-04-24T12:37:59.186Z,,,,,,,,,,,,,,,,,53,,,,,,,,,,,,,,267.7930000210181,,response,,,,99,,,,,,,Space,keypress(Space),,,,,,,,---- -- ----- -- ------ - ------- --- ----------<br>------------- ------ ------ ---- ---- ------- ----- -- ----<br>-------- ------- -- ---------- --- - --- ----- ----- ----<br>---- --- --- ----- --- ---- ---- ------- ----- ---- -------<br>--- --- -- ----- -- --- ---- to --- ---- -- ------ ------<br>--- ----- -- ----,232118.6400000006,232115.45500002103,231830.928,231832.5649999897,231847.662,232164.003,,46,to
screen,html.Screen,2_1_0_1_47,2021-04-24T12:37:59.466Z,,,,,,,,,,,,,,,,,53,,,,,,,,,,,,,,230.19699998063152,,response,,,,99,,,,,,,Space,keypress(Space),,,,,,,,"---- -- ----- -- ------ - ------- --- ----------<br>------------- ------ ------ ---- ---- ------- ----- -- ----<br>-------- ------- -- ---------- --- - --- ----- ----- ----<br>---- --- --- ----- --- ---- ---- ------- ----- ---- -------<br>--- --- -- ----- -- --- ---- -- be, ---- -- ------ ------<br>--- ----- -- ----",232398.40499998536,232394.19999998063,232113.994,232119.34999999357,232164.003,232413.847,,47,"be,"
screen,html.Screen,2_1_0_1_48,2021-04-24T12:37:59.707Z,,,,,,,,,,,,,,,,,53,,,,,,,,,,,,,,223.7630000343197,,response,,,,99,,,,,,,Space,keypress(Space),,,,,,,,---- -- ----- -- ------ - ------- --- ----------<br>------------- ------ ------ ---- ---- ------- ----- -- ----<br>-------- ------- -- ---------- --- - --- ----- ----- ----<br>---- --- --- ----- --- ---- ---- ------- ----- ---- -------<br>--- --- -- ----- -- --- ---- -- --- even -- ------ ------<br>--- ----- -- ----,232639.74499999313,232637.61000003433,232397.091,232399.6599999955,232413.847,232646.857,,48,even
screen,html.Screen,2_1_0_1_49,2021-04-24T12:37:59.971Z,,,,,,,,,,,,,,,,,53,,,,,,,,,,,,,,254.36299999975017,,response,,,,99,,,,,,,Space,keypress(Space),,,,,,,,---- -- ----- -- ------ - ------- --- ----------<br>------------- ------ ------ ---- ---- ------- ----- -- ----<br>-------- ------- -- ---------- --- - --- ----- ----- ----<br>---- --- --- ----- --- ---- ---- ------- ----- ---- -------<br>--- --- -- ----- -- --- ---- -- --- ---- if ------ ------<br>--- ----- -- ----,232903.56499998597,232901.21999999974,232630.632,232643.25000002282,232646.857,232914.201,,49,if
screen,html.Screen,2_1_0_1_50,2021-04-24T12:38:00.221Z,,,,,,,,,,,,,,,,,53,,,,,,,,,,,,,,237.22900002717506,,response,,,,99,,,,,,,Space,keypress(Space),,,,,,,,---- -- ----- -- ------ - ------- --- ----------<br>------------- ------ ------ ---- ---- ------- ----- -- ----<br>-------- ------- -- ---------- --- - --- ----- ----- ----<br>---- --- --- ----- --- ---- ---- ------- ----- ---- -------<br>--- --- -- ----- -- --- ---- -- --- ---- -- that's ------<br>--- ----- -- ----,233153.32500002114,233151.43000002718,232896.584,232904.16999999434,232914.201,233163.017,,50,that's
screen,html.Screen,2_1_0_1_51,2021-04-24T12:38:00.460Z,,,,,,,,,,,,,,,,,53,,,,,,,,,,,,,,227.26800003042445,,response,,,,99,,,,,,,Space,keypress(Space),,,,,,,,---- -- ----- -- ------ - ------- --- ----------<br>------------- ------ ------ ---- ---- ------- ----- -- ----<br>-------- ------- -- ---------- --- - --- ----- ----- ----<br>---- --- --- ----- --- ---- ---- ------- ----- ---- -------<br>--- --- -- ----- -- --- ---- -- --- ---- -- ------ really<br>--- ----- -- ----,233392.18500000425,233390.28500003042,233146.835,233153.9000000339,233163.017,233396.138,,51,really
screen,html.Screen,2_1_0_1_52,2021-04-24T12:38:00.705Z,,,,,,,,,,,,,,,,,53,,,,,,,,,,,,,,239.08199999647331,,response,,,,99,,,,,,,Space,keypress(Space),,,,,,,,---- -- ----- -- ------ - ------- --- ----------<br>------------- ------ ------ ---- ---- ------- ----- -- ----<br>-------- ------- -- ---------- --- - --- ----- ----- ----<br>---- --- --- ----- --- ---- ---- ------- ----- ---- -------<br>--- --- -- ----- -- --- ---- -- --- ---- -- ------ ------<br>not ----- -- ----,233637.4899999937,233635.21999999648,233379.47,233392.53499999177,233396.138,233645.889,,52,not
screen,html.Screen,2_1_0_1_53,2021-04-24T12:38:00.948Z,,,,,,,,,,,,,,,,,53,,,,,,,,,,,,,,232.27100002203952,,response,,,,99,,,,,,,Space,keypress(Space),,,,,,,,---- -- ----- -- ------ - ------- --- ----------<br>------------- ------ ------ ---- ---- ------- ----- -- ----<br>-------- ------- -- ---------- --- - --- ----- ----- ----<br>---- --- --- ----- --- ---- ---- ------- ----- ---- -------<br>--- --- -- ----- -- --- ---- -- --- ---- -- ------ ------<br>--- close -- ----,233880.1000000094,233878.16000002204,233629.222,233637.79499998782,233645.889,233895.726,,53,close
screen,html.Screen,2_1_0_1_54,2021-04-24T12:38:01.189Z,,,,,,,,,,,,,,,,,53,,,,,,,,,,,,,,223.81900002321345,,response,,,,99,,,,,,,Space,keypress(Space),,,,,,,,---- -- ----- -- ------ - ------- --- ----------<br>------------- ------ ------ ---- ---- ------- ----- -- ----<br>-------- ------- -- ---------- --- - --- ----- ----- ----<br>---- --- --- ----- --- ---- ---- ------- ----- ---- -------<br>--- --- -- ----- -- --- ---- -- --- ---- -- ------ ------<br>--- ----- at ----,234121.5749999974,234119.5450000232,233879.038,233880.40500000352,233895.726,234129.296,,54,at
screen,html.Screen,2_1_0_1_55,2021-04-24T12:38:01.694Z,,,,,,,,,,,,,,,,,53,,,,,,,,,,,,,,491.0839999784657,,response,,,,99,,,,,,,Space,keypress(Space),,,,,,,,---- -- ----- -- ------ - ------- --- ----------<br>------------- ------ ------ ---- ---- ------- ----- -- ----<br>-------- ------- -- ---------- --- - --- ----- ----- ----<br>---- --- --- ----- --- ---- ---- ------- ----- ---- -------<br>--- --- -- ----- -- --- ---- -- --- ---- -- ------ ------<br>--- ----- -- all.,234626.15000002552,234620.37999997847,234112.127,234121.87500001164,234129.296,234678.256,,55,all.
Item 99,flow.Loop,2_1_0_1,2021-04-24T12:38:01.695Z,,,,,,,,,,,,,,,,,,,,,,,,,,,,,,,19623.499999978463,,completion,,,,,A,,,,,,,,,,,silence,,,,,234627.19000002835,234620.37999997847,214880.324,214903.9900000207,214996.88,234678.256,,,
Question 1,html.Screen,2_1_0_2,2021-04-24T12:38:19.764Z,,,,,,,,,,,,,,,,,,,,,,,,,,,,true,FALSE,,18001.04400001798,,response,,,,99,A,,,,,,FALSE,click #choice-2,,,,silence,,,,,252687.01500003226,252679.30000001797,234628.286,234634.26999998046,234678.256,252727.828,,,
Question 2,html.Screen,2_1_0_3,2021-04-24T12:38:27.806Z,,,,,,,,,,,,,,,,,,,,,,,,,,,,true,TRUE,,7998.871999999246,,response,,,,99,A,,,,,,TRUE,click #choice-1,,,,silence,,,,,260729.49500003597,260726.69999999925,252678.628,252687.5449999934,252727.828,261070.092,,,
Item 99,flow.Sequence,2_1_0,2021-04-24T12:38:27.838Z,,,,,,,,,,,,,,,,,,,,,,,,,,,,,,,55836.87499999924,,completion,,,,,,,,,,,,,,,,,,,,,260761.2450000015,260726.69999999925,204806.567,204836.01500000805,204889.825,261070.092,,,
Holding screen,html.Screen,2_1_1_0,2021-04-24T12:38:38.199Z,,,,,,,,,,,,,,,,,,,,,,,,,,,,,,,10223.511999999988,,timeout,,,,,,,,,,,,,,,,,,,,,271122.47000000207,271114.3349999911,260720.29,260793.7849999871,261070.092,271293.604,,,
screen,html.Screen,2_1_1_1_0,2021-04-24T12:38:39.640Z,,,,,,,,,,,,,,,,,54,,,,,,,,,,,,,,1266.5409999958356,,response,,,,100,,,,,,,Space,keypress(Space),,,,,,,,At --- ---- --- ------ ----- ------- ---- -- --- ------- --<br>------- ---------- ------ -- ----- -- ----- -- ---- ------<br>--- ----- --- --- ------ -------- ----- --- ------ ----- --<br>----- ----- ---------- --- --- ------ ------ ---- -- ------<br>------- --- ------ ----- --- ---- ------- -- ---- --- --<br>------- ------,272563.2050000131,272560.1449999958,271114.3349999911,271295.0299999793,271293.604,272575.748,,0,At
screen,html.Screen,2_1_1_1_1,2021-04-24T12:38:40.027Z,,,,,,,,,,,,,,,,,54,,,,,,,,,,,,,,371.236999987741,,response,,,,100,,,,,,,Space,keypress(Space),,,,,,,,-- the ---- --- ------ ----- ------- ---- -- --- ------- --<br>------- ---------- ------ -- ----- -- ----- -- ---- ------<br>--- ----- --- --- ------ -------- ----- --- ------ ----- --<br>----- ----- ---------- --- --- ------ ------ ---- -- ------<br>------- --- ------ ----- --- ---- ------- -- ---- --- --<br>------- ------,272950.3450000193,272946.98499998776,272559.025,272563.74000001233,272575.748,272958.703,,1,the
screen,html.Screen,2_1_1_1_2,2021-04-24T12:38:40.406Z,,,,,,,,,,,,,,,,,54,,,,,,,,,,,,,,367.8420000181068,,response,,,,100,,,,,,,Space,keypress(Space),,,,,,,,-- --- time --- ------ ----- ------- ---- -- --- ------- --<br>------- ---------- ------ -- ----- -- ----- -- ---- ------<br>--- ----- --- --- ------ -------- ----- --- ------ ----- --<br>----- ----- ---------- --- --- ------ ------ ---- -- ------<br>------- --- ------ ----- --- ---- ------- -- ---- --- --<br>------- ------,273329.1350000072,273326.5450000181,272942.003,272950.9550000075,272958.703,273341.781,,2,time
screen,html.Screen,2_1_1_1_3,2021-04-24T12:38:40.785Z,,,,,,,,,,,,,,,,,54,,,,,,,,,,,,,,364.2340000033728,,response,,,,100,,,,,,,Space,keypress(Space),,,,,,,,-- --- ---- the ------ ----- ------- ---- -- --- ------- --<br>------- ---------- ------ -- ----- -- ----- -- ---- ------<br>--- ----- --- --- ------ -------- ----- --- ------ ----- --<br>----- ----- ---------- --- --- ------ ------ ---- -- ------<br>------- --- ------ ----- --- ---- ------- -- ---- --- --<br>------- ------,273708.42999999877,273706.0150000034,273324.992,273329.9700000207,273341.781,273724.661,,3,the
screen,html.Screen,2_1_1_1_4,2021-04-24T12:38:41.157Z,,,,,,,,,,,,,,,,,54,,,,,,,,,,,,,,352.59899999090703,,response,,,,100,,,,,,,Space,keypress(Space),,,,,,,,-- --- ---- --- French ----- ------- ---- -- --- ------- --<br>------- ---------- ------ -- ----- -- ----- -- ---- ------<br>--- ----- --- --- ------ -------- ----- --- ------ ----- --<br>----- ----- ---------- --- --- ------ ------ ---- -- ------<br>------- --- ------ ----- --- ---- ------- -- ---- --- --<br>------- ------,274080.64499998,274077.2599999909,273707.956,273708.8750000112,273724.661,274090.946,,4,French
screen,html.Screen,2_1_1_1_5,2021-04-24T12:38:41.533Z,,,,,,,,,,,,,,,,,54,,,,,,,,,,,,,,363.39900003466755,,response,,,,100,,,,,,,Space,keypress(Space),,,,,,,,-- --- ---- --- ------ crown ------- ---- -- --- ------- --<br>------- ---------- ------ -- ----- -- ----- -- ---- ------<br>--- ----- --- --- ------ -------- ----- --- ------ ----- --<br>----- ----- ---------- --- --- ------ ------ ---- -- ------<br>------- --- ------ ----- --- ---- ------- -- ---- --- --<br>------- ------,274456.754999992,274454.34500003466,274074.273,274083.4400000167,274090.946,274473.926,,5,crown
screen,html.Screen,2_1_1_1_6,2021-04-24T12:38:41.956Z,,,,,,,,,,,,,,,,,54,,,,,,,,,,,,,,403.29400002397597,,response,,,,100,,,,,,,Space,keypress(Space),,,,,,,,-- --- ---- --- ------ ----- secured ---- -- --- ------- --<br>------- ---------- ------ -- ----- -- ----- -- ---- ------<br>--- ----- --- --- ------ -------- ----- --- ------ ----- --<br>----- ----- ---------- --- --- ------ ------ ---- -- ------<br>------- --- ------ ----- --- ---- ------- -- ---- --- --<br>------- ------,274879.3600000208,274877.22000002395,274457.304,274466.20999998413,274473.926,274890.157,,6,secured
screen,html.Screen,2_1_1_1_7,2021-04-24T12:38:42.272Z,,,,,,,,,,,,,,,,,54,,,,,,,,,,,,,,301.0680000168504,,response,,,,100,,,,,,,Space,keypress(Space),,,,,,,,-- --- ---- --- ------ ----- ------- much -- --- ------- --<br>------- ---------- ------ -- ----- -- ----- -- ---- ------<br>--- ----- --- --- ------ -------- ----- --- ------ ----- --<br>----- ----- ---------- --- --- ------ ------ ---- -- ------<br>------- --- ------ ----- --- ---- ------- -- ---- --- --<br>------- ------,275195.8600000362,275191.22500001686,274873.518,274879.8250000109,274890.157,275206.602,,7,much
screen,html.Screen,2_1_1_1_8,2021-04-24T12:38:42.625Z,,,,,,,,,,,,,,,,,54,,,,,,,,,,,,,,340.1980000109761,,response,,,,100,,,,,,,Space,keypress(Space),,,,,,,,-- --- ---- --- ------ ----- ------- ---- of --- ------- --<br>------- ---------- ------ -- ----- -- ----- -- ---- ------<br>--- ----- --- --- ------ -------- ----- --- ------ ----- --<br>----- ----- ---------- --- --- ------ ------ ---- -- ------<br>------- --- ------ ----- --- ---- ------- -- ---- --- --<br>------- ------,275548.6900000251,275546.800000011,275189.95,275203.10500002233,275206.602,275622.854,,8,of
screen,html.Screen,2_1_1_1_9,2021-04-24T12:38:42.969Z,,,,,,,,,,,,,,,,,54,,,,,,,,,,,,,,264.750999996264,,response,,,,100,,,,,,,Space,keypress(Space),,,,,,,,-- --- ---- --- ------ ----- ------- ---- -- its ------- --<br>------- ---------- ------ -- ----- -- ----- -- ---- ------<br>--- ----- --- --- ------ -------- ----- --- ------ ----- --<br>----- ----- ---------- --- --- ------ ------ ---- -- ------<br>------- --- ------ ----- --- ---- ------- -- ---- --- --<br>------- ------,275892.4199999892,275887.60499999626,275606.154,275549.010000017,275622.854,275906.277,,9,its
screen,html.Screen,2_1_1_1_10,2021-04-24T12:38:43.281Z,,,,,,,,,,,,,,,,,54,,,,,,,,,,,,,,292.8380000249017,,response,,,,100,,,,,,,Space,keypress(Space),,,,,,,,-- --- ---- --- ------ ----- ------- ---- -- --- revenue --<br>------- ---------- ------ -- ----- -- ----- -- ---- ------<br>--- ----- --- --- ------ -------- ----- --- ------ ----- --<br>----- ----- ---------- --- --- ------ ------ ---- -- ------<br>------- --- ------ ----- --- ---- ------- -- ---- --- --<br>------- ------,276204.16500000283,276199.1150000249,275889.237,275893.1900000316,275906.277,276222.461,,10,revenue
screen,html.Screen,2_1_1_1_11,2021-04-24T12:38:43.598Z,,,,,,,,,,,,,,,,,54,,,,,,,,,,,,,,295.7689999869326,,response,,,,100,,,,,,,Space,keypress(Space),,,,,,,,-- --- ---- --- ------ ----- ------- ---- -- --- ------- by<br>------- ---------- ------ -- ----- -- ----- -- ---- ------<br>--- ----- --- --- ------ -------- ----- --- ------ ----- --<br>----- ----- ---------- --- --- ------ ------ ---- -- ------<br>------- --- ------ ----- --- ---- ------- -- ---- --- --<br>------- ------,276521.16499998374,276518.22999998694,276205.587,276205.19000000786,276222.461,276538.641,,11,by
screen,html.Screen,2_1_1_1_12,2021-04-24T12:38:43.931Z,,,,,,,,,,,,,,,,,54,,,,,,,,,,,,,,312.82899999414803,,response,,,,100,,,,,,,Space,keypress(Space),,,,,,,,-- --- ---- --- ------ ----- ------- ---- -- --- ------- --<br>issuing ---------- ------ -- ----- -- ----- -- ---- ------<br>--- ----- --- --- ------ -------- ----- --- ------ ----- --<br>----- ----- ---------- --- --- ------ ------ ---- -- ------<br>------- --- ------ ----- --- ---- ------- -- ---- --- --<br>------- ------,276853.94499998074,276851.46999999415,276521.96,276530.91999999015,276538.641,276871.629,,12,issuing
screen,html.Screen,2_1_1_1_13,2021-04-24T12:38:44.238Z,,,,,,,,,,,,,,,,,54,,,,,,,,,,,,,,288.03100000479026,,response,,,,100,,,,,,,Space,keypress(Space),,,,,,,,-- --- ---- --- ------ ----- ------- ---- -- --- ------- --<br>------- government ------ -- ----- -- ----- -- ---- ------<br>--- ----- --- --- ------ -------- ----- --- ------ ----- --<br>----- ----- ---------- --- --- ------ ------ ---- -- ------<br>------- --- ------ ----- --- ---- ------- -- ---- --- --<br>------- ------,277161.61499999,277159.6600000048,276855.048,276854.49500003597,276871.629,277205.069,,13,government
screen,html.Screen,2_1_1_1_14,2021-04-24T12:38:44.595Z,,,,,,,,,,,,,,,,,54,,,,,,,,,,,,,,306.2560000285739,,response,,,,100,,,,,,,Space,keypress(Space),,,,,,,,-- --- ---- --- ------ ----- ------- ---- -- --- ------- --<br>------- ---------- bonds. -- ----- -- ----- -- ---- ------<br>--- ----- --- --- ------ -------- ----- --- ------ ----- --<br>----- ----- ---------- --- --- ------ ------ ---- -- ------<br>------- --- ------ ----- --- ---- ------- -- ---- --- --<br>------- ------,277518.55500001693,277511.3250000286,277154.697,277161.94000001997,277205.069,277554.341,,14,bonds.
screen,html.Screen,2_1_1_1_15,2021-04-24T12:38:44.947Z,,,,,,,,,,,,,,,,,54,,,,,,,,,,,,,,309.0290000354871,,response,,,,100,,,,,,,Space,keypress(Space),,,,,,,,-- --- ---- --- ------ ----- ------- ---- -- --- ------- --<br>------- ---------- ------ In ----- -- ----- -- ---- ------<br>--- ----- --- --- ------ -------- ----- --- ------ ----- --<br>----- ----- ---------- --- --- ------ ------ ---- -- ------<br>------- --- ------ ----- --- ---- ------- -- ---- --- --<br>------- ------,277869.95500000194,277863.3700000355,277521.794,277520.22499998566,277554.341,277905.133,,15,In
screen,html.Screen,2_1_1_1_16,2021-04-24T12:38:45.293Z,,,,,,,,,,,,,,,,,54,,,,,,,,,,,,,,301.0770000330522,,response,,,,100,,,,,,,Space,keypress(Space),,,,,,,,"-- --- ---- --- ------ ----- ------- ---- -- --- ------- --<br>------- ---------- ------ -- 1727, -- ----- -- ---- ------<br>--- ----- --- --- ------ -------- ----- --- ------ ----- --<br>----- ----- ---------- --- --- ------ ------ ---- -- ------<br>------- --- ------ ----- --- ---- ------- -- ---- --- --<br>------- ------",278216.23999997973,278206.210000033,277870.733,277871.3449999923,277905.133,278220.414,,16,"1727,"
screen,html.Screen,2_1_1_1_17,2021-04-24T12:38:46.621Z,,,,,,,,,,,,,,,,,54,,,,,,,,,,,,,,1318.546000034432,,response,,,,100,,,,,,,Space,keypress(Space),,,,,,,,-- --- ---- --- ------ ----- ------- ---- -- --- ------- --<br>------- ---------- ------ -- ----- in ----- -- ---- ------<br>--- ----- --- --- ------ -------- ----- --- ------ ----- --<br>----- ----- ---------- --- --- ------ ------ ---- -- ------<br>------- --- ------ ----- --- ---- ------- -- ---- --- --<br>------- ------,279543.9749999787,279538.9600000344,278203.833,278216.66999999434,278220.414,279552.534,,17,in
screen,html.Screen,2_1_1_1_18,2021-04-24T12:38:47.024Z,,,,,,,,,,,,,,,,,54,,,,,,,,,,,,,,389.48099997872487,,response,,,,100,,,,,,,Space,keypress(Space),,,,,,,,-- --- ---- --- ------ ----- ------- ---- -- --- ------- --<br>------- ---------- ------ -- ----- -- order -- ---- ------<br>--- ----- --- --- ------ -------- ----- --- ------ ----- --<br>----- ----- ---------- --- --- ------ ------ ---- -- ------<br>------- --- ------ ----- --- ---- ------- -- ---- --- --<br>------- ------,279947.44499999797,279942.0149999787,279535.702,279545.37499998696,279552.534,279952.153,,18,order
screen,html.Screen,2_1_1_1_19,2021-04-24T12:38:47.274Z,,,,,,,,,,,,,,,,,54,,,,,,,,,,,,,,240.71700002806028,,response,,,,100,,,,,,,Space,keypress(Space),,,,,,,,-- --- ---- --- ------ ----- ------- ---- -- --- ------- --<br>------- ---------- ------ -- ----- -- ----- to ---- ------<br>--- ----- --- --- ------ -------- ----- --- ------ ----- --<br>----- ----- ---------- --- --- ------ ------ ---- -- ------<br>------- --- ------ ----- --- ---- ------- -- ---- --- --<br>------- ------,280197.1749999793,280192.87000002805,279935.394,279949.0050000022,279952.153,280201.875,,19,to
screen,html.Screen,2_1_1_1_20,2021-04-24T12:38:47.620Z,,,,,,,,,,,,,,,,,54,,,,,,,,,,,,,,325.4850000073202,,response,,,,100,,,,,,,Space,keypress(Space),,,,,,,,-- --- ---- --- ------ ----- ------- ---- -- --- ------- --<br>------- ---------- ------ -- ----- -- ----- -- save ------<br>--- ----- --- --- ------ -------- ----- --- ------ ----- --<br>----- ----- ---------- --- --- ------ ------ ---- -- ------<br>------- --- ------ ----- --- ---- ------- -- ---- --- --<br>------- ------,280543.26000000583,280527.3600000073,280185.738,280198.89499997953,280201.875,280551.52,,20,save
screen,html.Screen,2_1_1_1_21,2021-04-24T12:38:47.936Z,,,,,,,,,,,,,,,,,54,,,,,,,,,,,,,,305.4599999822676,,response,,,,100,,,,,,,Space,keypress(Space),,,,,,,,"-- --- ---- --- ------ ----- ------- ---- -- --- ------- --<br>------- ---------- ------ -- ----- -- ----- -- ---- money,<br>--- ----- --- --- ------ -------- ----- --- ------ ----- --<br>----- ----- ---------- --- --- ------ ------ ---- -- ------<br>------- --- ------ ----- --- ---- ------- -- ---- --- --<br>------- ------",280859.63000002084,280856.9799999823,280534.859,280543.6050000135,280551.52,280867.863,,21,"money,"
screen,html.Screen,2_1_1_1_22,2021-04-24T12:38:48.313Z,,,,,,,,,,,,,,,,,54,,,,,,,,,,,,,,362.5870000318391,,response,,,,100,,,,,,,Space,keypress(Space),,,,,,,,-- --- ---- --- ------ ----- ------- ---- -- --- ------- --<br>------- ---------- ------ -- ----- -- ----- -- ---- ------<br>the ----- --- --- ------ -------- ----- --- ------ ----- --<br>----- ----- ---------- --- --- ------ ------ ---- -- ------<br>------- --- ------ ----- --- ---- ------- -- ---- --- --<br>------- ------,281236.13500001375,281230.45000003185,280851.201,280860.4550000164,280867.863,281250.871,,22,the
screen,html.Screen,2_1_1_1_23,2021-04-24T12:38:48.665Z,,,,,,,,,,,,,,,,,54,,,,,,,,,,,,,,335.8139999874984,,response,,,,100,,,,,,,Space,keypress(Space),,,,,,,,-- --- ---- --- ------ ----- ------- ---- -- --- ------- --<br>------- ---------- ------ -- ----- -- ----- -- ---- ------<br>--- state --- --- ------ -------- ----- --- ------ ----- --<br>----- ----- ---------- --- --- ------ ------ ---- -- ------<br>------- --- ------ ----- --- ---- ------- -- ---- --- --<br>------- ------,281588.6499999906,281586.6849999875,281234.177,281236.7400000221,281250.871,281600.936,,23,state
screen,html.Screen,2_1_1_1_24,2021-04-24T12:38:49.245Z,,,,,,,,,,,,,,,,,54,,,,,,,,,,,,,,565.2489999800455,,response,,,,100,,,,,,,Space,keypress(Space),,,,,,,,-- --- ---- --- ------ ----- ------- ---- -- --- ------- --<br>------- ---------- ------ -- ----- -- ----- -- ---- ------<br>--- ----- cut --- ------ -------- ----- --- ------ ----- --<br>----- ----- ---------- --- --- ------ ------ ---- -- ------<br>------- --- ------ ----- --- ---- ------- -- ---- --- --<br>------- ------,282168.1100000278,282166.18499998003,281583.846,281589.00999999605,281600.936,282183.315,,24,cut
screen,html.Screen,2_1_1_1_25,2021-04-24T12:38:49.592Z,,,,,,,,,,,,,,,,,54,,,,,,,,,,,,,,329.22500002518063,,response,,,,100,,,,,,,Space,keypress(Space),,,,,,,,-- --- ---- --- ------ ----- ------- ---- -- --- ------- --<br>------- ---------- ------ -- ----- -- ----- -- ---- ------<br>--- ----- --- the ------ -------- ----- --- ------ ----- --<br>----- ----- ---------- --- --- ------ ------ ---- -- ------<br>------- --- ------ ----- --- ---- ------- -- ---- --- --<br>------- ------,282515.10999997845,282512.5400000252,282166.613,282168.42499998165,282183.315,282549.659,,25,the
screen,html.Screen,2_1_1_1_26,2021-04-24T12:38:49.943Z,,,,,,,,,,,,,,,,,54,,,,,,,,,,,,,,314.6759999911301,,response,,,,100,,,,,,,Space,keypress(Space),,,,,,,,-- --- ---- --- ------ ----- ------- ---- -- --- ------- --<br>------- ---------- ------ -- ----- -- ----- -- ---- ------<br>--- ----- --- --- bonds' -------- ----- --- ------ ----- --<br>----- ----- ---------- --- --- ------ ------ ---- -- ------<br>------- --- ------ ----- --- ---- ------- -- ---- --- --<br>------- ------,282866.34000000777,282864.3349999911,282532.965,282515.55499999085,282549.659,282882.708,,26,bonds'
screen,html.Screen,2_1_1_1_27,2021-04-24T12:38:50.408Z,,,,,,,,,,,,,,,,,54,,,,,,,,,,,,,,444.53200001327787,,response,,,,100,,,,,,,Space,keypress(Space),,,,,,,,-- --- ---- --- ------ ----- ------- ---- -- --- ------- --<br>------- ---------- ------ -- ----- -- ----- -- ---- ------<br>--- ----- --- --- ------ interest ----- --- ------ ----- --<br>----- ----- ---------- --- --- ------ ------ ---- -- ------<br>------- --- ------ ----- --- ---- ------- -- ---- --- --<br>------- ------,283331.520000007,283327.24000001326,282866.062,282866.92499998026,282882.708,283348.988,,27,interest
screen,html.Screen,2_1_1_1_28,2021-04-24T12:38:50.791Z,,,,,,,,,,,,,,,,,54,,,,,,,,,,,,,,364.0819999979576,,response,,,,100,,,,,,,Space,keypress(Space),,,,,,,,-- --- ---- --- ------ ----- ------- ---- -- --- ------- --<br>------- ---------- ------ -- ----- -- ----- -- ---- ------<br>--- ----- --- --- ------ -------- rate. --- ------ ----- --<br>----- ----- ---------- --- --- ------ ------ ---- -- ------<br>------- --- ------ ----- --- ---- ------- -- ---- --- --<br>------- ------,283714.8750000051,283713.06999999797,283332.181,283332.7150000259,283348.988,283731.85,,28,rate.
screen,html.Screen,2_1_1_1_29,2021-04-24T12:38:51.198Z,,,,,,,,,,,,,,,,,54,,,,,,,,,,,,,,384.53999998106156,,response,,,,100,,,,,,,Space,keypress(Space),,,,,,,,-- --- ---- --- ------ ----- ------- ---- -- --- ------- --<br>------- ---------- ------ -- ----- -- ----- -- ---- ------<br>--- ----- --- --- ------ -------- ----- The ------ ----- --<br>----- ----- ---------- --- --- ------ ------ ---- -- ------<br>------- --- ------ ----- --- ---- ------- -- ---- --- --<br>------- ------,284120.90500001796,284116.38999998104,283715.154,283715.2150000329,283731.85,284131.658,,29,The
screen,html.Screen,2_1_1_1_30,2021-04-24T12:38:51.499Z,,,,,,,,,,,,,,,,,54,,,,,,,,,,,,,,282.4820000080508,,response,,,,100,,,,,,,Space,keypress(Space),,,,,,,,-- --- ---- --- ------ ----- ------- ---- -- --- ------- --<br>------- ---------- ------ -- ----- -- ----- -- ---- ------<br>--- ----- --- --- ------ -------- ----- --- market ----- --<br>----- ----- ---------- --- --- ------ ------ ---- -- ------<br>------- --- ------ ----- --- ---- ------- -- ---- --- --<br>------- ------,284422.4300000351,284414.14000000805,284114.783,284122.8799999808,284131.658,284431.291,,30,market
screen,html.Screen,2_1_1_1_31,2021-04-24T12:38:51.778Z,,,,,,,,,,,,,,,,,54,,,,,,,,,,,,,,268.4389999929699,,response,,,,100,,,,,,,Space,keypress(Space),,,,,,,,-- --- ---- --- ------ ----- ------- ---- -- --- ------- --<br>------- ---------- ------ -- ----- -- ----- -- ---- ------<br>--- ----- --- --- ------ -------- ----- --- ------ value --<br>----- ----- ---------- --- --- ------ ------ ---- -- ------<br>------- --- ------ ----- --- ---- ------- -- ---- --- --<br>------- ------,284701.5700000338,284699.729999993,284415.491,284423.85000002105,284431.291,284714.272,,31,value
screen,html.Screen,2_1_1_1_32,2021-04-24T12:38:52.136Z,,,,,,,,,,,,,,,,,54,,,,,,,,,,,,,,343.0230000059819,,response,,,,100,,,,,,,Space,keypress(Space),,,,,,,,-- --- ---- --- ------ ----- ------- ---- -- --- ------- --<br>------- ---------- ------ -- ----- -- ----- -- ---- ------<br>--- ----- --- --- ------ -------- ----- --- ------ ----- of<br>----- ----- ---------- --- --- ------ ------ ---- -- ------<br>------- --- ------ ----- --- ---- ------- -- ---- --- --<br>------- ------,285059.31500002043,285057.295000006,284697.671,284701.8950000056,284714.272,285063.881,,32,of
screen,html.Screen,2_1_1_1_33,2021-04-24T12:38:52.436Z,,,,,,,,,,,,,,,,,54,,,,,,,,,,,,,,293.3340000254684,,response,,,,100,,,,,,,Space,keypress(Space),,,,,,,,-- --- ---- --- ------ ----- ------- ---- -- --- ------- --<br>------- ---------- ------ -- ----- -- ----- -- ---- ------<br>--- ----- --- --- ------ -------- ----- --- ------ ----- --<br>these ----- ---------- --- --- ------ ------ ---- -- ------<br>------- --- ------ ----- --- ---- ------- -- ---- --- --<br>------- ------,285359.33499998646,285357.21500002546,285047.269,285059.7650000127,285063.881,285363.603,,33,these
screen,html.Screen,2_1_1_1_34,2021-04-24T12:38:52.705Z,,,,,,,,,,,,,,,,,54,,,,,,,,,,,,,,262.36699999368284,,response,,,,100,,,,,,,Space,keypress(Space),,,,,,,,-- --- ---- --- ------ ----- ------- ---- -- --- ------- --<br>------- ---------- ------ -- ----- -- ----- -- ---- ------<br>--- ----- --- --- ------ -------- ----- --- ------ ----- --<br>----- bonds ---------- --- --- ------ ------ ---- -- ------<br>------- --- ------ ----- --- ---- ------- -- ---- --- --<br>------- ------,285627.8850000235,285625.9699999937,285346.96,285359.7900000168,285363.603,285629.998,,34,bonds
screen,html.Screen,2_1_1_1_35,2021-04-24T12:38:53.002Z,,,,,,,,,,,,,,,,,54,,,,,,,,,,,,,,293.396999990684,,response,,,,100,,,,,,,Space,keypress(Space),,,,,,,,"-- --- ---- --- ------ ----- ------- ---- -- --- ------- --<br>------- ---------- ------ -- ----- -- ----- -- ---- ------<br>--- ----- --- --- ------ -------- ----- --- ------ ----- --<br>----- ----- plummeted, --- --- ------ ------ ---- -- ------<br>------- --- ------ ----- --- ---- ------- -- ---- --- --<br>------- ------",285925.1050000312,285923.3949999907,285613.405,285628.2549999887,285629.998,285929.75,,35,"plummeted,"
screen,html.Screen,2_1_1_1_36,2021-04-24T12:38:53.341Z,,,,,,,,,,,,,,,,,54,,,,,,,,,,,,,,332.67500002263114,,response,,,,100,,,,,,,Space,keypress(Space),,,,,,,,-- --- ---- --- ------ ----- ------- ---- -- --- ------- --<br>------- ---------- ------ -- ----- -- ----- -- ---- ------<br>--- ----- --- --- ------ -------- ----- --- ------ ----- --<br>----- ----- ---------- and --- ------ ------ ---- -- ------<br>------- --- ------ ----- --- ---- ------- -- ---- --- --<br>------- ------,286264.40500002354,286262.42500002263,285913.143,285925.41500000516,285929.75,286279.514,,36,and
screen,html.Screen,2_1_1_1_37,2021-04-24T12:38:53.896Z,,,,,,,,,,,,,,,,,54,,,,,,,,,,,,,,537.1410000314354,,response,,,,100,,,,,,,Space,keypress(Space),,,,,,,,-- --- ---- --- ------ ----- ------- ---- -- --- ------- --<br>------- ---------- ------ -- ----- -- ----- -- ---- ------<br>--- ----- --- --- ------ -------- ----- --- ------ ----- --<br>----- ----- ---------- --- the ------ ------ ---- -- ------<br>------- --- ------ ----- --- ---- ------- -- ---- --- --<br>------- ------,286818.91500001075,286816.65500003146,286262.858,286264.71000001766,286279.514,286828.883,,37,the
screen,html.Screen,2_1_1_1_38,2021-04-24T12:38:54.189Z,,,,,,,,,,,,,,,,,54,,,,,,,,,,,,,,276.69199999416014,,response,,,,100,,,,,,,Space,keypress(Space),,,,,,,,-- --- ---- --- ------ ----- ------- ---- -- --- ------- --<br>------- ---------- ------ -- ----- -- ----- -- ---- ------<br>--- ----- --- --- ------ -------- ----- --- ------ ----- --<br>----- ----- ---------- --- --- market ------ ---- -- ------<br>------- --- ------ ----- --- ---- ------- -- ---- --- --<br>------- ------,287112.82500001835,287105.57499999413,286812.216,286819.2099999869,286828.883,287128.601,,38,market
screen,html.Screen,2_1_1_1_39,2021-04-24T12:38:54.513Z,,,,,,,,,,,,,,,,,54,,,,,,,,,,,,,,306.2390000016894,,response,,,,100,,,,,,,Space,keypress(Space),,,,,,,,-- --- ---- --- ------ ----- ------- ---- -- --- ------- --<br>------- ---------- ------ -- ----- -- ----- -- ---- ------<br>--- ----- --- --- ------ -------- ----- --- ------ ----- --<br>----- ----- ---------- --- --- ------ became ---- -- ------<br>------- --- ------ ----- --- ---- ------- -- ---- --- --<br>------- ------,287436.57000001986,287434.8400000017,287111.94,287113.1550000282,287128.601,287444.973,,39,became
screen,html.Screen,2_1_1_1_40,2021-04-24T12:38:54.807Z,,,,,,,,,,,,,,,,,54,,,,,,,,,,,,,,278.5670000354294,,response,,,,100,,,,,,,Space,keypress(Space),,,,,,,,-- --- ---- --- ------ ----- ------- ---- -- --- ------- --<br>------- ---------- ------ -- ----- -- ----- -- ---- ------<br>--- ----- --- --- ------ -------- ----- --- ------ ----- --<br>----- ----- ---------- --- --- ------ ------ wary -- ------<br>------- --- ------ ----- --- ---- ------- -- ---- --- --<br>------- ------,287730.12500000186,287723.5400000354,287428.327,287436.89499999164,287444.973,287744.625,,40,wary
screen,html.Screen,2_1_1_1_41,2021-04-24T12:38:55.118Z,,,,,,,,,,,,,,,,,54,,,,,,,,,,,,,,293.96500001102686,,response,,,,100,,,,,,,Space,keypress(Space),,,,,,,,-- --- ---- --- ------ ----- ------- ---- -- --- ------- --<br>------- ---------- ------ -- ----- -- ----- -- ---- ------<br>--- ----- --- --- ------ -------- ----- --- ------ ----- --<br>----- ----- ---------- --- --- ------ ------ ---- of ------<br>------- --- ------ ----- --- ---- ------- -- ---- --- --<br>------- ------,288040.89000000386,288038.590000011,287728.028,287730.5150000029,287744.625,288044.398,,41,of
screen,html.Screen,2_1_1_1_42,2021-04-24T12:38:55.431Z,,,,,,,,,,,,,,,,,54,,,,,,,,,,,,,,303.4520000201301,,response,,,,100,,,,,,,Space,keypress(Space),,,,,,,,-- --- ---- --- ------ ----- ------- ---- -- --- ------- --<br>------- ---------- ------ -- ----- -- ----- -- ---- ------<br>--- ----- --- --- ------ -------- ----- --- ------ ----- --<br>----- ----- ---------- --- --- ------ ------ ---- -- French<br>------- --- ------ ----- --- ---- ------- -- ---- --- --<br>------- ------,288354.7700000345,288347.8500000201,288027.73,288041.2549999892,288044.398,288445.814,,42,French
screen,html.Screen,2_1_1_1_43,2021-04-24T12:38:55.763Z,,,,,,,,,,,,,,,,,54,,,,,,,,,,,,,,237.62100001354702,,response,,,,100,,,,,,,Space,keypress(Space),,,,,,,,-- --- ---- --- ------ ----- ------- ---- -- --- ------- --<br>------- ---------- ------ -- ----- -- ----- -- ---- ------<br>--- ----- --- --- ------ -------- ----- --- ------ ----- --<br>----- ----- ---------- --- --- ------ ------ ---- -- ------<br>credit. --- ------ ----- --- ---- ------- -- ---- --- --<br>------- ------,288686.05000001844,288683.43500001356,288427.343,288356.38499999186,288445.814,288693.797,,43,credit.
screen,html.Screen,2_1_1_1_44,2021-04-24T12:38:56.225Z,,,,,,,,,,,,,,,,,54,,,,,,,,,,,,,,452.92799999867566,,response,,,,100,,,,,,,Space,keypress(Space),,,,,,,,-- --- ---- --- ------ ----- ------- ---- -- --- ------- --<br>------- ---------- ------ -- ----- -- ----- -- ---- ------<br>--- ----- --- --- ------ -------- ----- --- ------ ----- --<br>----- ----- ---------- --- --- ------ ------ ---- -- ------<br>------- The ------ ----- --- ---- ------- -- ---- --- --<br>------- ------,289148.7250000355,289146.7249999987,288677.52,288686.52500002645,288693.797,289160.083,,44,The
screen,html.Screen,2_1_1_1_45,2021-04-24T12:38:56.515Z,,,,,,,,,,,,,,,,,54,,,,,,,,,,,,,,273.6919999831589,,response,,,,100,,,,,,,Space,keypress(Space),,,,,,,,-- --- ---- --- ------ ----- ------- ---- -- --- ------- --<br>------- ---------- ------ -- ----- -- ----- -- ---- ------<br>--- ----- --- --- ------ -------- ----- --- ------ ----- --<br>----- ----- ---------- --- --- ------ ------ ---- -- ------<br>------- --- French ----- --- ---- ------- -- ---- --- --<br>------- ------,289438.49000002956,289433.77499998314,289143.562,289149.03500000946,289160.083,289443.158,,45,French
screen,html.Screen,2_1_1_1_46,2021-04-24T12:38:56.767Z,,,,,,,,,,,,,,,,,54,,,,,,,,,,,,,,245.29699999588775,,response,,,,100,,,,,,,Space,keypress(Space),,,,,,,,-- --- ---- --- ------ ----- ------- ---- -- --- ------- --<br>------- ---------- ------ -- ----- -- ----- -- ---- ------<br>--- ----- --- --- ------ -------- ----- --- ------ ----- --<br>----- ----- ---------- --- --- ------ ------ ---- -- ------<br>------- --- ------ state --- ---- ------- -- ---- --- --<br>------- ------,289690.63000002643,289688.4549999959,289426.919,289439.870000002,289443.158,289692.842,,46,state
screen,html.Screen,2_1_1_1_47,2021-04-24T12:38:57.016Z,,,,,,,,,,,,,,,,,54,,,,,,,,,,,,,,239.10300001845462,,response,,,,100,,,,,,,Space,keypress(Space),,,,,,,,-- --- ---- --- ------ ----- ------- ---- -- --- ------- --<br>------- ---------- ------ -- ----- -- ----- -- ---- ------<br>--- ----- --- --- ------ -------- ----- --- ------ ----- --<br>----- ----- ---------- --- --- ------ ------ ---- -- ------<br>------- --- ------ ----- was ---- ------- -- ---- --- --<br>------- ------,289939.5549999899,289931.94500001846,289676.243,289691.05500000296,289692.842,289942.616,,47,was
screen,html.Screen,2_1_1_1_48,2021-04-24T12:38:57.392Z,,,,,,,,,,,,,,,,,54,,,,,,,,,,,,,,370.38900000363356,,response,,,,100,,,,,,,Space,keypress(Space),,,,,,,,-- --- ---- --- ------ ----- ------- ---- -- --- ------- --<br>------- ---------- ------ -- ----- -- ----- -- ---- ------<br>--- ----- --- --- ------ -------- ----- --- ------ ----- --<br>----- ----- ---------- --- --- ------ ------ ---- -- ------<br>------- --- ------ ----- --- left ------- -- ---- --- --<br>------- ------,290315.04499999573,290313.0050000036,289926.364,289939.87499998184,289942.616,290325.745,,48,left
screen,html.Screen,2_1_1_1_49,2021-04-24T12:38:57.708Z,,,,,,,,,,,,,,,,,54,,,,,,,,,,,,,,303.21999998169485,,response,,,,100,,,,,,,Space,keypress(Space),,,,,,,,-- --- ---- --- ------ ----- ------- ---- -- --- ------- --<br>------- ---------- ------ -- ----- -- ----- -- ---- ------<br>--- ----- --- --- ------ -------- ----- --- ------ ----- --<br>----- ----- ---------- --- --- ------ ------ ---- -- ------<br>------- --- ------ ----- --- ---- without -- ---- --- --<br>------- ------,290631.14000001224,290628.9649999817,290309.297,290315.3600000078,290325.745,290641.943,,49,without
screen,html.Screen,2_1_1_1_50,2021-04-24T12:38:57.999Z,,,,,,,,,,,,,,,,,54,,,,,,,,,,,,,,277.4270000177785,,response,,,,100,,,,,,,Space,keypress(Space),,,,,,,,-- --- ---- --- ------ ----- ------- ---- -- --- ------- --<br>------- ---------- ------ -- ----- -- ----- -- ---- ------<br>--- ----- --- --- ------ -------- ----- --- ------ ----- --<br>----- ----- ---------- --- --- ------ ------ ---- -- ------<br>------- --- ------ ----- --- ---- ------- an ---- --- --<br>------- ------,290922.7700000047,290919.3700000178,290625.331,290631.47500000196,290641.943,290958.747,,50,an
screen,html.Screen,2_1_1_1_51,2021-04-24T12:38:58.350Z,,,,,,,,,,,,,,,,,54,,,,,,,,,,,,,,312.04299998050556,,response,,,,100,,,,,,,Space,keypress(Space),,,,,,,,-- --- ---- --- ------ ----- ------- ---- -- --- ------- --<br>------- ---------- ------ -- ----- -- ----- -- ---- ------<br>--- ----- --- --- ------ -------- ----- --- ------ ----- --<br>----- ----- ---------- --- --- ------ ------ ---- -- ------<br>------- --- ------ ----- --- ---- ------- -- easy --- --<br>------- ------,291273.61999999266,291270.7899999805,290948.673,290923.6600000295,290958.747,291291.751,,51,easy
screen,html.Screen,2_1_1_1_52,2021-04-24T12:38:58.657Z,,,,,,,,,,,,,,,,,54,,,,,,,,,,,,,,239.81899999192683,,response,,,,100,,,,,,,Space,keypress(Space),,,,,,,,-- --- ---- --- ------ ----- ------- ---- -- --- ------- --<br>------- ---------- ------ -- ----- -- ----- -- ---- ------<br>--- ----- --- --- ------ -------- ----- --- ------ ----- --<br>----- ----- ---------- --- --- ------ ------ ---- -- ------<br>------- --- ------ ----- --- ---- ------- -- ---- way --<br>------- ------,291580.2000000258,291531.5699999919,291258.476,291273.93000002485,291291.751,291591.165,,52,way
screen,html.Screen,2_1_1_1_53,2021-04-24T12:38:58.917Z,,,,,,,,,,,,,,,,,54,,,,,,,,,,,,,,246.71999998629326,,response,,,,100,,,,,,,Space,keypress(Space),,,,,,,,-- --- ---- --- ------ ----- ------- ---- -- --- ------- --<br>------- ---------- ------ -- ----- -- ----- -- ---- ------<br>--- ----- --- --- ------ -------- ----- --- ------ ----- --<br>----- ----- ---------- --- --- ------ ------ ---- -- ------<br>------- --- ------ ----- --- ---- ------- -- ---- --- of<br>------- ------,291840.6749999849,291837.8849999863,291574.883,291580.54500003345,291591.165,291857.466,,53,of
screen,html.Screen,2_1_1_1_54,2021-04-24T12:38:59.328Z,,,,,,,,,,,,,,,,,54,,,,,,,,,,,,,,392.50400000438094,,response,,,,100,,,,,,,Space,keypress(Space),,,,,,,,-- --- ---- --- ------ ----- ------- ---- -- --- ------- --<br>------- ---------- ------ -- ----- -- ----- -- ---- ------<br>--- ----- --- --- ------ -------- ----- --- ------ ----- --<br>----- ----- ---------- --- --- ------ ------ ---- -- ------<br>------- --- ------ ----- --- ---- ------- -- ---- --- --<br>raising ------,292251.74500001594,292249.9700000044,291841.124,291841.1199999973,291857.466,292257.069,,54,raising
screen,html.Screen,2_1_1_1_55,2021-04-24T12:38:59.830Z,,,,,,,,,,,,,,,,,54,,,,,,,,,,,,,,494.4460000108229,,response,,,,100,,,,,,,Space,keypress(Space),,,,,,,,-- --- ---- --- ------ ----- ------- ---- -- --- ------- --<br>------- ---------- ------ -- ----- -- ----- -- ---- ------<br>--- ----- --- --- ------ -------- ----- --- ------ ----- --<br>----- ----- ---------- --- --- ------ ------ ---- -- ------<br>------- --- ------ ----- --- ---- ------- -- ---- --- --<br>------- money.,292753.36999999126,292751.51500001084,292240.383,292252.05000001006,292257.069,292790.041,,55,money.
Item 100,flow.Loop,2_1_1_1,2021-04-24T12:38:59.831Z,,,,,,,,,,,,,,,,,,,,,,,,,,,,,,,21457.91100001085,,completion,,,,,A,,,,,,,,,,,silence,,,,,292754.3350000051,292751.51500001084,271114.3349999911,271182.3500000173,271293.604,292790.041,,,
Question 1,html.Screen,2_1_1_2,2021-04-24T12:39:03.353Z,,,,,,,,,,,,,,,,,,,,,,,,,,,,true,TRUE,,3483.1790000318433,,response,,,,100,A,,,,,,TRUE,click #choice-1,,,,silence,,,,,296275.89500002796,296273.22000003187,292776.419,292754.6849999926,292790.041,296286.603,,,
Question 2,html.Screen,2_1_1_3,2021-04-24T12:39:07.063Z,,,,,,,,,,,,,,,,,,,,,,,,,,,,true,FALSE,,3693.7220000113593,,response,,,,100,A,,,,,,FALSE,click #choice-2,,,,silence,,,,,299986.435000028,299980.32500001136,296269.967,296276.49499999825,296286.603,300083.009,,,
Item 100,flow.Sequence,2_1_1,2021-04-24T12:39:07.064Z,,,,,,,,,,,,,,,,,,,,,,,,,,,,,,,38910.23300001136,,completion,,,,,,,,,,,,,,,,,,,,,299987.33500001254,299980.32500001136,260720.29,260793.1100000278,261070.092,300083.009,,,
End of Practice,html.Page,2_1_2,2021-04-24T12:39:14.333Z,,,,,,,,,,,,,,,,,,,,,,,,,,,,,,,7177.506000030844,,form submission,,,,,,,,,,,,,,,,,,,,,307261.7800000007,307260.51500003086,299983.105,299987.770000007,300083.009,307292.89,,,
Practice,flow.Sequence,2_1,2021-04-24T12:39:14.342Z,,,,,,,,,,,,,,,,,,,,,,,,,,,,,,,102370.69000003085,,completion,,,,,,,,,,,,,,,,,,,,,307271.3600000134,307260.51500003086,204806.567,204835.33999999054,204889.825,307292.89,,,
Trap_instruction,html.Page,2_2_0,2021-04-24T12:39:18.996Z,,,,,,,,,,,,,,,,,,,,,,,,,,,,,,,4627.735000027926,,form submission,,,,,,,,,,,,,,,,,,,,,311925.120000029,311920.62500002794,307159.637,307272.2300000023,307292.89,312204.906,,,
trap_trial,html.Screen,2_2_1,2021-04-24T12:39:25.688Z,,,,,,,,,,,,,,,,,,,,,,,,,,,,true,1,,6407.158999993873,,response,,,,,,,,,,,1,click #choice-1,,,,,,,,,318617.2699999879,318612.0649999939,311855.175,311929.1100000264,312204.906,318632.106,,,
end of trap trial,html.Page,2_2_2,2021-04-24T12:39:27.676Z,,,,,,,,,,,,,,,,,,,,,,,,,,,,,,,1970.2940000324743,,form submission,,,,,,,,,,,,,,,,,,,,,320605.4599999916,320602.4000000325,318615.571,318617.74000001606,318632.106,320896.644,,,
Trap 1,flow.Sequence,2_2,2021-04-24T12:39:27.677Z,,,,,,,,,,,,,,,,,,,,,,,,,,,,,,,13309.51000003249,,completion,,,,,,,,,,,,,,,,,,,,,320606.26500000944,320602.4000000325,307159.637,307271.8149999855,307292.89,320896.644,,,
Standby,html.Page,2_3_0,2021-04-24T12:39:35.955Z,,,,,,,,,,,,,,,,,,,,,,,,,,,,,,,7992.456000000006,,timeout,,,,,,,,,,,,,,,,,,,,,328883.6149999988,328872.445,320580.282,320606.7599999951,320896.644,328889.1,,,
Holding screen,html.Screen,2_3_1_0_0,2021-04-24T12:39:42.938Z,,,,,,,,,,,,,,,,,,,,,,,,,,,,,,,6993.559999999998,,timeout,,,,,,,,,,,,,,,,,,,,,335867.16999998316,335865.813,328872.445,328884.1450000182,328889.1,335882.66,,,
screen,html.Screen,2_3_1_0_1_0,2021-04-24T12:39:43.958Z,,,,,,,,,,,,,,,,,11,,,,,,,,,,,,,,1001.4199999889242,,response,,,,4,A,,,,,,Space,keypress(Space),,,,silence,,,,Known -- ---- --- -- --- -------- ------------ ---------- --<br>- ------- ------ --------- -- ------------ -- --- ---- -----<br>------ ---- ---- ------ ------ ------- --- ----- ---------<br>---- --- -------- -------- --- --- -- ------- --- --- -----<br>-- --- ------ ------- --- --- -------- ---- --------- --<br>---------- -- -------- ----------------,336886.8750000256,336884.0799999889,335865.813,335867.659999989,335882.66,336898.138,,0,Known
screen,html.Screen,2_3_1_0_1_1,2021-04-24T12:39:44.304Z,,,,,,,,,,,,,,,,,11,,,,,,,,,,,,,,331.6370000143652,,response,,,,4,A,,,,,,Space,keypress(Space),,,,silence,,,,----- as ---- --- -- --- -------- ------------ ---------- --<br>- ------- ------ --------- -- ------------ -- --- ---- -----<br>------ ---- ---- ------ ------ ------- --- ----- ---------<br>---- --- -------- -------- --- --- -- ------- --- --- -----<br>-- --- ------ ------- --- --- -------- ---- --------- --<br>---------- -- -------- ----------------,337232.65999997966,337229.77500001434,336881.437,336887.2449999908,336898.138,337247.797,,1,as
screen,html.Screen,2_3_1_0_1_2,2021-04-24T12:39:44.687Z,,,,,,,,,,,,,,,,,11,,,,,,,,,,,,,,365.8179999801796,,response,,,,4,A,,,,,,Space,keypress(Space),,,,silence,,,,----- -- Rapa --- -- --- -------- ------------ ---------- --<br>- ------- ------ --------- -- ------------ -- --- ---- -----<br>------ ---- ---- ------ ------ ------- --- ----- ---------<br>---- --- -------- -------- --- --- -- ------- --- --- -----<br>-- --- ------ ------- --- --- -------- ---- --------- --<br>---------- -- -------- ----------------,337616.1050000228,337613.6149999802,337231.177,337232.965000032,337247.797,337630.86,,2,Rapa
screen,html.Screen,2_3_1_0_1_3,2021-04-24T12:39:45.311Z,,,,,,,,,,,,,,,,,11,,,,,,,,,,,,,,607.3100000260165,,response,,,,4,A,,,,,,Space,keypress(Space),,,,silence,,,,----- -- ---- Nui -- --- -------- ------------ ---------- --<br>- ------- ------ --------- -- ------------ -- --- ---- -----<br>------ ---- ---- ------ ------ ------- --- ----- ---------<br>---- --- -------- -------- --- --- -- ------- --- --- -----<br>-- --- ------ ------- --- --- -------- ---- --------- --<br>---------- -- -------- ----------------,338240.26500002947,338238.170000026,337614.149,337616.4100000169,337630.86,338246.925,,3,Nui
screen,html.Screen,2_3_1_0_1_4,2021-04-24T12:39:45.667Z,,,,,,,,,,,,,,,,,11,,,,,,,,,,,,,,346.16000000044005,,response,,,,4,A,,,,,,Space,keypress(Space),,,,silence,,,,----- -- ---- --- to --- -------- ------------ ---------- --<br>- ------- ------ --------- -- ------------ -- --- ---- -----<br>------ ---- ---- ------ ------ ------- --- ----- ---------<br>---- --- -------- -------- --- --- -- ------- --- --- -----<br>-- --- ------ ------- --- --- -------- ---- --------- --<br>---------- -- -------- ----------------,338595.61499999836,338593.0850000004,338230.245,338240.70000002393,338246.925,338613.559,,4,to
screen,html.Screen,2_3_1_0_1_5,2021-04-24T12:39:45.974Z,,,,,,,,,,,,,,,,,11,,,,,,,,,,,,,,287.1510000162525,,response,,,,4,A,,,,,,Space,keypress(Space),,,,silence,,,,----- -- ---- --- -- the -------- ------------ ---------- --<br>- ------- ------ --------- -- ------------ -- --- ---- -----<br>------ ---- ---- ------ ------ ------- --- ----- ---------<br>---- --- -------- -------- --- --- -- ------- --- --- -----<br>-- --- ------ ------- --- --- -------- ---- --------- --<br>---------- -- -------- ----------------,338902.7950000018,338900.71000001626,338596.551,338595.9349999903,338613.559,338912.915,,5,the
screen,html.Screen,2_3_1_0_1_6,2021-04-24T12:39:46.339Z,,,,,,,,,,,,,,,,,11,,,,,,,,,,,,,,352.37999999016756,,response,,,,4,A,,,,,,Space,keypress(Space),,,,silence,,,,----- -- ---- --- -- --- island's ------------ ---------- --<br>- ------- ------ --------- -- ------------ -- --- ---- -----<br>------ ---- ---- ------ ------ ------- --- ----- ---------<br>---- --- -------- -------- --- --- -- ------- --- --- -----<br>-- --- ------ ------- --- --- -------- ---- --------- --<br>---------- -- -------- ----------------,339267.8549999837,339265.29499999015,338896.253,338903.1350000296,338912.915,339279.755,,6,island's
screen,html.Screen,2_3_1_0_1_7,2021-04-24T12:39:46.661Z,,,,,,,,,,,,,,,,,11,,,,,,,,,,,,,,307.3700000200188,,response,,,,4,A,,,,,,Space,keypress(Space),,,,silence,,,,"----- -- ---- --- -- --- -------- inhabitants, ---------- --<br>- ------- ------ --------- -- ------------ -- --- ---- -----<br>------ ---- ---- ------ ------ ------- --- ----- ---------<br>---- --- -------- -------- --- --- -- ------- --- --- -----<br>-- --- ------ ------- --- --- -------- ---- --------- --<br>---------- -- -------- ----------------",339589.9400000344,339587.12500002,339262.573,339268.15499999793,339279.755,339595.626,,7,"inhabitants,"
screen,html.Screen,2_3_1_0_1_8,2021-04-24T12:39:48.079Z,,,,,,,,,,,,,,,,,11,,,,,,,,,,,,,,1409.4890000072191,,response,,,,4,A,,,,,,Space,keypress(Space),,,,silence,,,,----- -- ---- --- -- --- -------- ------------ Rongorongo --<br>- ------- ------ --------- -- ------------ -- --- ---- -----<br>------ ---- ---- ------ ------ ------- --- ----- ---------<br>---- --- -------- -------- --- --- -- ------- --- --- -----<br>-- --- ------ ------- --- --- -------- ---- --------- --<br>---------- -- -------- ----------------,341007.79499998316,341005.1150000072,339578.939,339590.26999998605,339595.626,341010.947,,8,Rongorongo
screen,html.Screen,2_3_1_0_1_9,2021-04-24T12:39:48.475Z,,,,,,,,,,,,,,,,,11,,,,,,,,,,,,,,391.11800003115786,,response,,,,4,A,,,,,,Space,keypress(Space),,,,silence,,,,----- -- ---- --- -- --- -------- ------------ ---------- is<br>- ------- ------ --------- -- ------------ -- --- ---- -----<br>------ ---- ---- ------ ------ ------- --- ----- ---------<br>---- --- -------- -------- --- --- -- ------- --- --- -----<br>-- --- ------ ------- --- --- -------- ---- --------- --<br>---------- -- -------- ----------------,341404.55500001553,341402.06500003114,340994.222,341008.1000000355,341010.947,341410.547,,9,is
screen,html.Screen,2_3_1_0_1_10,2021-04-24T12:39:48.849Z,,,,,,,,,,,,,,,,,11,,,,,,,,,,,,,,365.2979999964591,,response,,,,4,A,,,,,,Space,keypress(Space),,,,silence,,,,----- -- ---- --- -- --- -------- ------------ ---------- --<br>a ------- ------ --------- -- ------------ -- --- ---- -----<br>------ ---- ---- ------ ------ ------- --- ----- ---------<br>---- --- -------- -------- --- --- -- ------- --- --- -----<br>-- --- ------ ------- --- --- -------- ---- --------- --<br>---------- -- -------- ----------------,341778.0700000003,341775.8449999965,341393.895,341404.8949999851,341410.547,341793.568,,10,a
screen,html.Screen,2_3_1_0_1_11,2021-04-24T12:39:49.347Z,,,,,,,,,,,,,,,,,11,,,,,,,,,,,,,,479.5570000069565,,response,,,,4,A,,,,,,Space,keypress(Space),,,,silence,,,,----- -- ---- --- -- --- -------- ------------ ---------- --<br>- writing ------ --------- -- ------------ -- --- ---- -----<br>------ ---- ---- ------ ------ ------- --- ----- ---------<br>---- --- -------- -------- --- --- -- ------- --- --- -----<br>-- --- ------ ------- --- --- -------- ---- --------- --<br>---------- -- -------- ----------------,342275.5999999936,342273.125000007,341776.888,341778.4400000237,341793.568,342293.124,,11,writing
screen,html.Screen,2_3_1_0_1_12,2021-04-24T12:39:49.705Z,,,,,,,,,,,,,,,,,11,,,,,,,,,,,,,,339.27600000222446,,response,,,,4,A,,,,,,Space,keypress(Space),,,,silence,,,,----- -- ---- --- -- --- -------- ------------ ---------- --<br>- ------- system --------- -- ------------ -- --- ---- -----<br>------ ---- ---- ------ ------ ------- --- ----- ---------<br>---- --- -------- -------- --- --- -- ------- --- --- -----<br>-- --- ------ ------- --- --- -------- ---- --------- --<br>---------- -- -------- ----------------,342634.16499999585,342632.40000000224,342276.395,342275.92500002356,342293.124,342642.728,,12,system
screen,html.Screen,2_3_1_0_1_13,2021-04-24T12:39:50.129Z,,,,,,,,,,,,,,,,,11,,,,,,,,,,,,,,413.5270000031451,,response,,,,4,A,,,,,,Space,keypress(Space),,,,silence,,,,----- -- ---- --- -- --- -------- ------------ ---------- --<br>- ------- ------ comprised -- ------------ -- --- ---- -----<br>------ ---- ---- ------ ------ ------- --- ----- ---------<br>---- --- -------- -------- --- --- -- ------- --- --- -----<br>-- --- ------ ------- --- --- -------- ---- --------- --<br>---------- -- -------- ----------------,343058.1349999993,343056.25500000315,342626.103,342634.4650000101,342642.728,343075.615,,13,comprised
screen,html.Screen,2_3_1_0_1_14,2021-04-24T12:39:50.534Z,,,,,,,,,,,,,,,,,11,,,,,,,,,,,,,,382.8049999808427,,response,,,,4,A,,,,,,Space,keypress(Space),,,,silence,,,,----- -- ---- --- -- --- -------- ------------ ---------- --<br>- ------- ------ --------- of ------------ -- --- ---- -----<br>------ ---- ---- ------ ------ ------- --- ----- ---------<br>---- --- -------- -------- --- --- -- ------- --- --- -----<br>-- --- ------ ------- --- --- -------- ---- --------- --<br>---------- -- -------- ----------------,343462.9549999954,343458.41999998083,343058.955,343061.7600000114,343075.615,343475.83,,14,of
screen,html.Screen,2_3_1_0_1_15,2021-04-24T12:39:50.760Z,,,,,,,,,,,,,,,,,11,,,,,,,,,,,,,,208.35999999992782,,response,,,,4,A,,,,,,Space,keypress(Space),,,,silence,,,,----- -- ---- --- -- --- -------- ------------ ---------- --<br>- ------- ------ --------- -- pictographs. -- --- ---- -----<br>------ ---- ---- ------ ------ ------- --- ----- ---------<br>---- --- -------- -------- --- --- -- ------- --- --- -----<br>-- --- ------ ------- --- --- -------- ---- --------- --<br>---------- -- -------- ----------------,343688.77000000793,343684.18999999994,343458.598,343464.2800000147,343475.83,343709.998,,15,pictographs.
screen,html.Screen,2_3_1_0_1_16,2021-04-24T12:39:51.570Z,,,,,,,,,,,,,,,,,11,,,,,,,,,,,,,,786.7320000134641,,response,,,,4,A,,,,,,Space,keypress(Space),,,,silence,,,,----- -- ---- --- -- --- -------- ------------ ---------- --<br>- ------- ------ --------- -- ------------ It --- ---- -----<br>------ ---- ---- ------ ------ ------- --- ----- ---------<br>---- --- -------- -------- --- --- -- ------- --- --- -----<br>-- --- ------ ------- --- --- -------- ---- --------- --<br>---------- -- -------- ----------------,344498.6899999785,344496.7300000135,343691.771,343690.07499999134,343709.998,344507.877,,16,It
screen,html.Screen,2_3_1_0_1_17,2021-04-24T12:39:51.844Z,,,,,,,,,,,,,,,,,11,,,,,,,,,,,,,,263.632999991416,,response,,,,4,A,,,,,,Space,keypress(Space),,,,silence,,,,----- -- ---- --- -- --- -------- ------------ ---------- --<br>- ------- ------ --------- -- ------------ -- has ---- -----<br>------ ---- ---- ------ ------ ------- --- ----- ---------<br>---- --- -------- -------- --- --- -- ------- --- --- -----<br>-- --- ------ ------- --- --- -------- ---- --------- --<br>---------- -- -------- ----------------,344773.41999998316,344771.5099999914,344491.726,344499.1199999931,344507.877,344790.723,,17,has
screen,html.Screen,2_3_1_0_1_18,2021-04-24T12:39:52.155Z,,,,,,,,,,,,,,,,,11,,,,,,,,,,,,,,291.03700003004633,,response,,,,4,A,,,,,,Space,keypress(Space),,,,silence,,,,----- -- ---- --- -- --- -------- ------------ ---------- --<br>- ------- ------ --------- -- ------------ -- --- been -----<br>------ ---- ---- ------ ------ ------- --- ----- ---------<br>---- --- -------- -------- --- --- -- ------- --- --- -----<br>-- --- ------ ------- --- --- -------- ---- --------- --<br>---------- -- -------- ----------------,345083.60499999253,345081.76000003004,344774.072,344773.7199999974,344790.723,345090.459,,18,been
screen,html.Screen,2_3_1_0_1_19,2021-04-24T12:39:52.435Z,,,,,,,,,,,,,,,,,11,,,,,,,,,,,,,,271.6509999873233,,response,,,,4,A,,,,,,Space,keypress(Space),,,,silence,,,,----- -- ---- --- -- --- -------- ------------ ---------- --<br>- ------- ------ --------- -- ------------ -- --- ---- found<br>------ ---- ---- ------ ------ ------- --- ----- ---------<br>---- --- -------- -------- --- --- -- ------- --- --- -----<br>-- --- ------ ------- --- --- -------- ---- --------- --<br>---------- -- -------- ----------------,345364.4450000138,345362.1099999873,345073.762,345084.0699999826,345090.459,345373.468,,19,found
screen,html.Screen,2_3_1_0_1_20,2021-04-24T12:39:52.767Z,,,,,,,,,,,,,,,,,11,,,,,,,,,,,,,,319.62699999508914,,response,,,,4,A,,,,,,Space,keypress(Space),,,,silence,,,,----- -- ---- --- -- --- -------- ------------ ---------- --<br>- ------- ------ --------- -- ------------ -- --- ---- -----<br>carved ---- ---- ------ ------ ------- --- ----- ---------<br>---- --- -------- -------- --- --- -- ------- --- --- -----<br>-- --- ------ ------- --- --- -------- ---- --------- --<br>---------- -- -------- ----------------,345695.9200000274,345693.0949999951,345356.823,345364.7650000057,345373.468,345706.585,,20,carved
screen,html.Screen,2_3_1_0_1_21,2021-04-24T12:39:53.148Z,,,,,,,,,,,,,,,,,11,,,,,,,,,,,,,,368.76499999914085,,response,,,,4,A,,,,,,Space,keypress(Space),,,,silence,,,,----- -- ---- --- -- --- -------- ------------ ---------- --<br>- ------- ------ --------- -- ------------ -- --- ---- -----<br>------ into ---- ------ ------ ------- --- ----- ---------<br>---- --- -------- -------- --- --- -- ------- --- --- -----<br>-- --- ------ ------- --- --- -------- ---- --------- --<br>---------- -- -------- ----------------,346077.19500001986,346075.34999999916,345689.821,345696.6700000339,345706.585,346089.555,,21,into
screen,html.Screen,2_3_1_0_1_22,2021-04-24T12:39:53.373Z,,,,,,,,,,,,,,,,,11,,,,,,,,,,,,,,210.7450000026147,,response,,,,4,A,,,,,,Space,keypress(Space),,,,silence,,,,----- -- ---- --- -- --- -------- ------------ ---------- --<br>- ------- ------ --------- -- ------------ -- --- ---- -----<br>------ ---- many ------ ------ ------- --- ----- ---------<br>---- --- -------- -------- --- --- -- ------- --- --- -----<br>-- --- ------ ------- --- --- -------- ---- --------- --<br>---------- -- -------- ----------------,346302.2350000101,346300.3000000026,346072.776,346077.50000001397,346089.555,346305.959,,22,many
screen,html.Screen,2_3_1_0_1_23,2021-04-24T12:39:54.082Z,,,,,,,,,,,,,,,,,11,,,,,,,,,,,,,,703.2160000138101,,response,,,,4,A,,,,,,Space,keypress(Space),,,,silence,,,,----- -- ---- --- -- --- -------- ------------ ---------- --<br>- ------- ------ --------- -- ------------ -- --- ---- -----<br>------ ---- ---- oblong ------ ------- --- ----- ---------<br>---- --- -------- -------- --- --- -- ------- --- --- -----<br>-- --- ------ ------- --- --- -------- ---- --------- --<br>---------- -- -------- ----------------,347011.01000001654,347009.1750000138,346289.261,346302.55500000203,346305.959,347022.162,,23,oblong
screen,html.Screen,2_3_1_0_1_24,2021-04-24T12:39:54.756Z,,,,,,,,,,,,,,,,,11,,,,,,,,,,,,,,661.0830000219867,,response,,,,4,A,,,,,,Space,keypress(Space),,,,silence,,,,----- -- ---- --- -- --- -------- ------------ ---------- --<br>- ------- ------ --------- -- ------------ -- --- ---- -----<br>------ ---- ---- ------ wooden ------- --- ----- ---------<br>---- --- -------- -------- --- --- -- ------- --- --- -----<br>-- --- ------ ------- --- --- -------- ---- --------- --<br>---------- -- -------- ----------------,347685.0749999867,347683.245000022,347005.255,347011.594999989,347022.162,347687.963,,24,wooden
screen,html.Screen,2_3_1_0_1_25,2021-04-24T12:39:55.893Z,,,,,,,,,,,,,,,,,11,,,,,,,,,,,,,,1131.5420000213198,,response,,,,4,A,,,,,,Space,keypress(Space),,,,silence,,,,----- -- ---- --- -- --- -------- ------------ ---------- --<br>- ------- ------ --------- -- ------------ -- --- ---- -----<br>------ ---- ---- ------ ------ tablets --- ----- ---------<br>---- --- -------- -------- --- --- -- ------- --- --- -----<br>-- --- ------ ------- --- --- -------- ---- --------- --<br>---------- -- -------- ----------------,348822.0699999947,348819.5050000213,347671.278,347685.5799999903,347687.963,348836.856,,25,tablets
screen,html.Screen,2_3_1_0_1_26,2021-04-24T12:39:56.282Z,,,,,,,,,,,,,,,,,11,,,,,,,,,,,,,,372.5940000239061,,response,,,,4,A,,,,,,Space,keypress(Space),,,,silence,,,,----- -- ---- --- -- --- -------- ------------ ---------- --<br>- ------- ------ --------- -- ------------ -- --- ---- -----<br>------ ---- ---- ------ ------ ------- and ----- ---------<br>---- --- -------- -------- --- --- -- ------- --- --- -----<br>-- --- ------ ------- --- --- -------- ---- --------- --<br>---------- -- -------- ----------------,349211.26000001095,349209.45000002393,348820.162,348822.3950000247,348836.856,349219.85,,26,and
screen,html.Screen,2_3_1_0_1_27,2021-04-24T12:39:56.497Z,,,,,,,,,,,,,,,,,11,,,,,,,,,,,,,,203.88999999838416,,response,,,,4,A,,,,,,Space,keypress(Space),,,,silence,,,,----- -- ---- --- -- --- -------- ------------ ---------- --<br>- ------- ------ --------- -- ------------ -- --- ---- -----<br>------ ---- ---- ------ ------ ------- --- other ---------<br>---- --- -------- -------- --- --- -- ------- --- --- -----<br>-- --- ------ ------- --- --- -------- ---- --------- --<br>---------- -- -------- ----------------,349426.03000003146,349423.73999999836,349203.163,349211.58000000287,349219.85,349436.286,,27,other
screen,html.Screen,2_3_1_0_1_28,2021-04-24T12:39:56.839Z,,,,,,,,,,,,,,,,,11,,,,,,,,,,,,,,329.45899998239474,,response,,,,4,A,,,,,,Space,keypress(Space),,,,silence,,,,----- -- ---- --- -- --- -------- ------------ ---------- --<br>- ------- ------ --------- -- ------------ -- --- ---- -----<br>------ ---- ---- ------ ------ ------- --- ----- artifacts<br>---- --- -------- -------- --- --- -- ------- --- --- -----<br>-- --- ------ ------- --- --- -------- ---- --------- --<br>---------- -- -------- ----------------,349767.995000002,349765.7449999824,349419.621,349426.34000000544,349436.286,349802.673,,28,artifacts
screen,html.Screen,2_3_1_0_1_29,2021-04-24T12:39:57.307Z,,,,,,,,,,,,,,,,,11,,,,,,,,,,,,,,431.2320000300533,,response,,,,4,A,,,,,,Space,keypress(Space),,,,silence,,,,----- -- ---- --- -- --- -------- ------------ ---------- --<br>- ------- ------ --------- -- ------------ -- --- ---- -----<br>------ ---- ---- ------ ------ ------- --- ----- ---------<br>from --- -------- -------- --- --- -- ------- --- --- -----<br>-- --- ------ ------- --- --- -------- ---- --------- --<br>---------- -- -------- ----------------,350235.7750000083,350233.90500003006,349785.954,349768.310000014,349802.673,350252.308,,29,from
screen,html.Screen,2_3_1_0_1_30,2021-04-24T12:39:57.543Z,,,,,,,,,,,,,,,,,11,,,,,,,,,,,,,,217.2320000200416,,response,,,,4,A,,,,,,Space,keypress(Space),,,,silence,,,,----- -- ---- --- -- --- -------- ------------ ---------- --<br>- ------- ------ --------- -- ------------ -- --- ---- -----<br>------ ---- ---- ------ ------ ------- --- ----- ---------<br>---- the -------- -------- --- --- -- ------- --- --- -----<br>-- --- ------ ------- --- --- -------- ---- --------- --<br>---------- -- -------- ----------------,350471.6200000257,350469.54000002006,350235.518,350236.21000000276,350252.308,350485.287,,30,the
screen,html.Screen,2_3_1_0_1_31,2021-04-24T12:39:57.755Z,,,,,,,,,,,,,,,,,11,,,,,,,,,,,,,,196.26800001738593,,response,,,,4,A,,,,,,Space,keypress(Space),,,,silence,,,,----- -- ---- --- -- --- -------- ------------ ---------- --<br>- ------- ------ --------- -- ------------ -- --- ---- -----<br>------ ---- ---- ------ ------ ------- --- ----- ---------<br>---- --- island's -------- --- --- -- ------- --- --- -----<br>-- --- ------ ------- --- --- -------- ---- --------- --<br>---------- -- -------- ----------------,350683.78999998095,350681.5550000174,350468.627,350471.92500001984,350485.287,350701.774,,31,island's
screen,html.Screen,2_3_1_0_1_32,2021-04-24T12:39:58.001Z,,,,,,,,,,,,,,,,,11,,,,,,,,,,,,,,226.7610000136774,,response,,,,4,A,,,,,,Space,keypress(Space),,,,silence,,,,----- -- ---- --- -- --- -------- ------------ ---------- --<br>- ------- ------ --------- -- ------------ -- --- ---- -----<br>------ ---- ---- ------ ------ ------- --- ----- ---------<br>---- --- -------- history. --- --- -- ------- --- --- -----<br>-- --- ------ ------- --- --- -------- ---- --------- --<br>---------- -- -------- ----------------,350930.475000001,350928.53500001365,350685.103,350686.1749999807,350701.774,350934.859,,32,history.
screen,html.Screen,2_3_1_0_1_33,2021-04-24T12:39:58.285Z,,,,,,,,,,,,,,,,,11,,,,,,,,,,,,,,277.10600002406863,,response,,,,4,A,,,,,,Space,keypress(Space),,,,silence,,,,----- -- ---- --- -- --- -------- ------------ ---------- --<br>- ------- ------ --------- -- ------------ -- --- ---- -----<br>------ ---- ---- ------ ------ ------- --- ----- ---------<br>---- --- -------- -------- The --- -- ------- --- --- -----<br>-- --- ------ ------- --- --- -------- ---- --------- --<br>---------- -- -------- ----------------,351214.0650000074,351211.96500002407,350918.211,350930.80999999074,350934.859,351217.961,,33,The
screen,html.Screen,2_3_1_0_1_34,2021-04-24T12:39:58.679Z,,,,,,,,,,,,,,,,,11,,,,,,,,,,,,,,387.7490000325488,,response,,,,4,A,,,,,,Space,keypress(Space),,,,silence,,,,----- -- ---- --- -- --- -------- ------------ ---------- --<br>- ------- ------ --------- -- ------------ -- --- ---- -----<br>------ ---- ---- ------ ------ ------- --- ----- ---------<br>---- --- -------- -------- --- art -- ------- --- --- -----<br>-- --- ------ ------- --- --- -------- ---- --------- --<br>---------- -- -------- ----------------,351607.6050000265,351605.71000003256,351201.283,351214.4050000352,351217.961,351617.93,,34,art
screen,html.Screen,2_3_1_0_1_35,2021-04-24T12:39:58.918Z,,,,,,,,,,,,,,,,,11,,,,,,,,,,,,,,226.30500002595363,,response,,,,4,A,,,,,,Space,keypress(Space),,,,silence,,,,----- -- ---- --- -- --- -------- ------------ ---------- --<br>- ------- ------ --------- -- ------------ -- --- ---- -----<br>------ ---- ---- ------ ------ ------- --- ----- ---------<br>---- --- -------- -------- --- --- of ------- --- --- -----<br>-- --- ------ ------- --- --- -------- ---- --------- --<br>---------- -- -------- ----------------,351846.84499999275,351844.23500002595,351600.894,351607.92500001844,351617.93,351850.701,,35,of
screen,html.Screen,2_3_1_0_1_36,2021-04-24T12:39:59.128Z,,,,,,,,,,,,,,,,,11,,,,,,,,,,,,,,201.44400002330076,,response,,,,4,A,,,,,,Space,keypress(Space),,,,silence,,,,----- -- ---- --- -- --- -------- ------------ ---------- --<br>- ------- ------ --------- -- ------------ -- --- ---- -----<br>------ ---- ---- ------ ------ ------- --- ----- ---------<br>---- --- -------- -------- --- --- -- writing --- --- -----<br>-- --- ------ ------- --- --- -------- ---- --------- --<br>---------- -- -------- ----------------,352056.9700000342,352052.1450000233,351834.018,351847.4850000348,351850.701,352067.375,,36,writing
screen,html.Screen,2_3_1_0_1_37,2021-04-24T12:39:59.337Z,,,,,,,,,,,,,,,,,11,,,,,,,,,,,,,,193.1049999971874,,response,,,,4,A,,,,,,Space,keypress(Space),,,,silence,,,,----- -- ---- --- -- --- -------- ------------ ---------- --<br>- ------- ------ --------- -- ------------ -- --- ---- -----<br>------ ---- ---- ------ ------ ------- --- ----- ---------<br>---- --- -------- -------- --- --- -- ------- was --- -----<br>-- --- ------ ------- --- --- -------- ---- --------- --<br>---------- -- -------- ----------------,352265.82999998936,352260.4799999972,352050.469,352058.3500000066,352067.375,352283.815,,37,was
