sender,sender_type,sender_id,timestamp,meta,,Blues,Classical,Country,Dance,Electronic,Folk,Gospel,Hip-Hop,Jazz,Latin,Musical/Film,New-age,Pop,Prolific_id,Provo_ID,R&B,Rap,Reggae,Religious,Rock,Soul,Swing,Traditional,age,artist_name,correct,correctResponse,distraction,duration,education,ended_on,familiarity,gender,headphone_check_performance,item,list,music_frequency,offensiveness,pleasantness,position_correct,preference,response,response_action,snippet_file,song_name,song_rating,sound,stimulus_1,stimulus_2,stimulus_3,text,time_commit,time_end,time_render,time_run,time_show,time_switch,url,word,word_ID
Prolific ID,html.Form,0,2021-04-30T12:11:15.700Z,"{""labjs_version"":""20.2.2"",""labjs_build"":{""flavor"":""production"",""commit"":""a25486e0c714a0ae2ce03ff94b7bb6896854dcfa""},""location"":""https://run.pavlovia.org/mvasilev/prolific_music_d/"",""userAgent"":""Mozilla/5.0 (Windows NT 10.0; Win64; x64) AppleWebKit/537.36 (KHTML, like Gecko) Chrome/90.0.4430.93 Safari/537.36"",""platform"":""Win32"",""language"":""en-US"",""locale"":""en-US"",""timeZone"":""Europe/London"",""timezoneOffset"":-60,""screen_width"":1366,""screen_height"":768,""scroll_width"":1366,""scroll_height"":609,""window_innerWidth"":1366,""window_innerHeight"":657,""devicePixelRatio"":1}",,,,,,,,,,,,,,,5ec502d1f4cd5241d24f61fc,,,,,,,,,,,,,,,4902.210999983907,,form submission,,,,,,,,,,,,,,,,,,,,,17437.894999980927,17437.344999983907,12501.529,12507.37999996636,12535.134,17461.823,{},,
Introduction,html.Screen,1_0,2021-04-30T12:12:16.623Z,,,,,,,,,,,,,,,,,,,,,,,,,,,,,,,60896.73200004254,,response,,,,,,,,,,,continue,click button,,,,,,,,,78361.35500005912,78358.55500004254,17418.664,17438.270000042394,17461.823,78365.43,,,
Volume calibration,html.Screen,1_1,2021-04-30T12:12:49.072Z,,,,,,,,,,,,,,,,,,,,,,,,,,,,,,,32441.959999972663,,response,,,,,,,,,,,continue,click button,,,,,,,,,110810.36999996286,110807.38999997266,78348.77,78361.52999999467,78365.43,110814.001,,,
Task instructions,html.Screen,1_2,2021-04-30T12:13:12.391Z,,,,,,,,,,,,,,,,,,,,,,,,,,,,,,,23314.113999970417,,response,,,,,,,,,,,continue,click button,,,,,,,,,134129.0850000223,134128.11499997042,110797.375,110810.49499998335,110814.001,134147.197,,,
Sounds,html.Screen,1_3_0_0,2021-04-30T12:13:16.645Z,,,,,,,,,,,,,,,,,,,,,,,,,,,,,,,4249.037000000011,,timeout,,,,,,,,,1,,,,,,,,S,I,O,,138383.15500004683,138379.572,134113.391,134129.3200000655,134147.197,138396.234,,,
Judgement,html.Screen,1_3_0_1,2021-04-30T12:13:18.361Z,,,,,,,,,,,,,,,,,,,,,,,,,,,,false,1,,1702.3159999951604,,response,,,,,,,,,1,,3,click #choice-3,,,,,S,I,O,,140099.56500004046,140098.54999999516,138379.572,138383.35500005633,138396.234,140112.668,,,
Trial,flow.Sequence,1_3_0,2021-04-30T12:13:18.362Z,,,,,,,,,,,,,,,,,,,,,,,,,,,,,,,5951.352999995172,,completion,,,,,,,,,1,,,,,,,,S,I,O,,140100.0200000126,140098.54999999516,134113.391,134129.27500007208,134147.197,140112.668,,,
Sounds,html.Screen,1_3_1_0,2021-04-30T12:13:22.608Z,,,,,,,,,,,,,,,,,,,,,,,,,,,,,,,4249.809999999998,,timeout,,,,,,,,,3,,,,,,,,O,I,S,,144346.2549999822,144345.809,140096.01,140100.17500002868,140112.668,144362.478,,,
Judgement,html.Screen,1_3_1_1,2021-04-30T12:13:23.274Z,,,,,,,,,,,,,,,,,,,,,,,,,,,,true,3,,647.9919999792473,,response,,,,,,,,,3,,3,click #choice-3,,,,,O,I,S,,145012.1349999681,145010.46999997925,144345.809,144346.36500000488,144362.478,145012.426,,,
Trial,flow.Sequence,1_3_1,2021-04-30T12:13:23.275Z,,,,,,,,,,,,,,,,,,,,,,,,,,,,,,,4897.801999979245,,completion,,,,,,,,,3,,,,,,,,O,I,S,,145013.14000005368,145010.46999997925,140096.01,140100.13000003528,140112.668,145012.426,,,
Sounds,html.Screen,1_3_2_0,2021-04-30T12:13:27.514Z,,,,,,,,,,,,,,,,,,,,,,,,,,,,,,,4249.802999999985,,timeout,,,,,,,,,3,,,,,,,,I,O,S,,149252.24000005983,149245.677,144995.742,145013.50000000093,145012.426,149262.229,,,
Judgement,html.Screen,1_3_2_1,2021-04-30T12:13:28.366Z,,,,,,,,,,,,,,,,,,,,,,,,,,,,true,3,,841.29600004229,,response,,,,,,,,,3,,3,click #choice-3,,,,,I,O,S,,150104.4450000627,150103.52500004228,149245.677,149252.58500000928,149262.229,150112.185,,,
Trial,flow.Sequence,1_3_2,2021-04-30T12:13:28.367Z,,,,,,,,,,,,,,,,,,,,,,,,,,,,,,,5091.099000042275,,completion,,,,,,,,,3,,,,,,,,I,O,S,,150104.79999997187,150103.52500004228,144995.742,145013.41000001412,145012.426,150112.185,,,
Sounds,html.Screen,1_3_3_0,2021-04-30T12:13:32.608Z,,,,,,,,,,,,,,,,,,,,,,,,,,,,,,,4249.818999999989,,timeout,,,,,,,,,1,,,,,,,,S,O,I,,154346.16000007372,154345.33,150095.607,150105.01499997918,150112.185,154362.004,,,
Judgement,html.Screen,1_3_3_1,2021-04-30T12:13:33.377Z,,,,,,,,,,,,,,,,,,,,,,,,,,,,true,1,,752.3310000493366,,response,,,,,,,,,1,,1,click #choice-1,,,,,S,O,I,,155115.6600000104,155114.33500004932,154345.33,154346.4099999983,154362.004,155128.626,,,
Trial,flow.Sequence,1_3_3,2021-04-30T12:13:33.378Z,,,,,,,,,,,,,,,,,,,,,,,,,,,,,,,5002.150000049325,,completion,,,,,,,,,1,,,,,,,,S,O,I,,155115.9500000067,155114.33500004932,150095.607,150104.9650000641,150112.185,155128.626,,,
Sounds,html.Screen,1_3_4_0,2021-04-30T12:13:37.624Z,,,,,,,,,,,,,,,,,,,,,,,,,,,,,,,4249.844000000012,,timeout,,,,,,,,,2,,,,,,,,O,S,I,,159362.64000006486,159361.804,155111.947,155116.15500005428,155128.626,159378.47,,,
Judgement,html.Screen,1_3_4_1,2021-04-30T12:13:38.268Z,,,,,,,,,,,,,,,,,,,,,,,,,,,,true,2,,626.8850000302482,,response,,,,,,,,,2,,2,click #choice-2,,,,,O,S,I,,160006.30500004627,160005.35500003025,159361.804,159362.82500007655,159378.47,160011.726,,,
Trial,flow.Sequence,1_3_4,2021-04-30T12:13:38.268Z,,,,,,,,,,,,,,,,,,,,,,,,,,,,,,,4876.72900003026,,completion,,,,,,,,,2,,,,,,,,O,S,I,,160006.58499996644,160005.35500003025,155111.947,155116.09500006307,155128.626,160011.726,,,
Sounds,html.Screen,1_3_5_0,2021-04-30T12:13:42.507Z,,,,,,,,,,,,,,,,,,,,,,,,,,,,,,,4249.84599999999,,timeout,,,,,,,,,2,,,,,,,,I,S,O,,164245.46500004362,164244.882,159995.138,160006.7750000162,160011.726,164261.572,,,
Judgement,html.Screen,1_3_5_1,2021-04-30T12:13:43.241Z,,,,,,,,,,,,,,,,,,,,,,,,,,,,true,2,,716.158000042371,,response,,,,,,,,,2,,2,click #choice-2,,,,,I,S,O,,164978.98999997415,164977.73000004236,164244.882,164245.63500005752,164261.572,165011.644,,,
Trial,flow.Sequence,1_3_5,2021-04-30T12:13:43.241Z,,,,,,,,,,,,,,,,,,,,,,,,,,,,,,,4966.004000042361,,completion,,,,,,,,,2,,,,,,,,I,S,O,,164979.30000000633,164977.73000004236,159995.138,160006.715000025,160011.726,165011.644,,,
Task,flow.Loop,1_3,2021-04-30T12:13:43.246Z,,,,,,,,,,,,,,,,,,,,,,,,,,,,,,,30830.53300004237,,completion,,,0.8333333333333334,,,,,,,,,,,,,,,,,,164984.12500007544,164977.73000004236,134113.391,134129.21499996446,134147.197,165011.644,,,
Trap,html.Screen,1_4,2021-04-30T12:13:43.247Z,,,,,,,,,,,,,,,,,,,,,,,,,,,,,,,NaN,,skipped,,,,,,,,,,,,,,,,,,,,,164985.28500006068,164977.73000004236,,164985.11999996845,,165011.644,,,
Thanks,html.Screen,1_5,2021-04-30T12:13:48.364Z,,,,,,,,,,,,,,,,,,,,,,,,,,,,,,,5089.260999999329,,response,,,,,,,,,,,continue,click button,,,,,,,,,170101.7700000666,170100.90499999933,164995.085,164985.40000000503,165011.644,175077.743,,,
Headphone screening,flow.Sequence,1,2021-04-30T12:13:48.364Z,,,,,,,,,,,,,,,,,,,,,,,,,,,,,,,152639.08199999933,,completion,,,,,,,,,,,,,,,,,,,,,170101.96500003804,170100.90499999933,17418.664,17438.220000010915,17461.823,175077.743,,,
Instructions,html.Page,2_0,2021-04-30T12:14:34.418Z,,,,,,,,,,,,,,,,,,,,,,,,,,,,,,,41078.49200000221,,form submission,,,,,,,,,,,,,,,,,,,,,216156.6050000256,216156.2350000022,175061.124,175083.09500000905,175077.743,216159.197,,,
Holding screen,html.Screen,2_1_0_0,2021-04-30T12:14:44.405Z,,,,,,,,,,,,,,,,,,,,,,,,,,,,,,,9999.59600000002,,timeout,,,,,,,,,,,,,,,,,,,,,226143.3149999939,226142.545,216142.994,216156.8050000351,216159.197,226158.793,,,
screen,html.Screen,2_1_0_1_0,2021-04-30T12:14:45.496Z,,,,,,,,,,,,,,,,,53,,,,,,,,,,,,,,1072.431999995897,,response,,,,99,,,,,,,Space,keypress(Space),,,,,,,,When -- ----- -- ------ - ------- --- ----------<br>------------- ------ ------ ---- ---- ------- ----- -- ----<br>-------- ------- -- ---------- --- - --- ----- ----- ----<br>---- --- --- ----- --- ---- ---- ------- ----- ---- -------<br>--- --- -- ----- -- --- ---- -- --- ---- -- ------ ------<br>--- ----- -- ----,227234.32000004686,227231.2249999959,226142.545,226143.56500003487,226158.793,227242.035,,0,When
screen,html.Screen,2_1_0_1_1,2021-04-30T12:14:46.214Z,,,,,,,,,,,,,,,,,53,,,,,,,,,,,,,,709.7350000433216,,response,,,,99,,,,,,,Space,keypress(Space),,,,,,,,---- it ----- -- ------ - ------- --- ----------<br>------------- ------ ------ ---- ---- ------- ----- -- ----<br>-------- ------- -- ---------- --- - --- ----- ----- ----<br>---- --- --- ----- --- ---- ---- ------- ----- ---- -------<br>--- --- -- ----- -- --- ---- -- --- ---- -- ------ ------<br>--- ----- -- ----,227952.39500002936,227951.77000004333,227225.694,227234.50999998022,227242.035,227958.675,,1,it
screen,html.Screen,2_1_0_1_2,2021-04-30T12:14:46.815Z,,,,,,,,,,,,,,,,,53,,,,,,,,,,,,,,594.1100000653532,,response,,,,99,,,,,,,Space,keypress(Space),,,,,,,,---- -- comes -- ------ - ------- --- ----------<br>------------- ------ ------ ---- ---- ------- ----- -- ----<br>-------- ------- -- ---------- --- - --- ----- ----- ----<br>---- --- --- ----- --- ---- ---- ------- ----- ---- -------<br>--- --- -- ----- -- --- ---- -- --- ---- -- ------ ------<br>--- ----- -- ----,228553.61000006087,228552.78500006534,227942.427,227952.55000004545,227958.675,228558.619,,2,comes
screen,html.Screen,2_1_0_1_3,2021-04-30T12:14:47.573Z,,,,,,,,,,,,,,,,,53,,,,,,,,,,,,,,751.7209999672486,,response,,,,99,,,,,,,Space,keypress(Space),,,,,,,,---- -- ----- to ------ - ------- --- ----------<br>------------- ------ ------ ---- ---- ------- ----- -- ----<br>-------- ------- -- ---------- --- - --- ----- ----- ----<br>---- --- --- ----- --- ---- ---- ------- ----- ---- -------<br>--- --- -- ----- -- --- ---- -- --- ---- -- ------ ------<br>--- ----- -- ----,229311.11500004772,229310.33999996725,228542.394,228553.81499999203,228558.619,229325.745,,3,to
screen,html.Screen,2_1_0_1_4,2021-04-30T12:14:48.277Z,,,,,,,,,,,,,,,,,53,,,,,,,,,,,,,,689.0150000491412,,response,,,,99,,,,,,,Space,keypress(Space),,,,,,,,---- -- ----- -- having - ------- --- ----------<br>------------- ------ ------ ---- ---- ------- ----- -- ----<br>-------- ------- -- ---------- --- - --- ----- ----- ----<br>---- --- --- ----- --- ---- ---- ------- ----- ---- -------<br>--- --- -- ----- -- --- ---- -- --- ---- -- ------ ------<br>--- ----- -- ----,230015.46000002418,230014.76000004914,229309.034,229311.2700000638,229325.745,230025.719,,4,having
screen,html.Screen,2_1_0_1_5,2021-04-30T12:14:48.732Z,,,,,,,,,,,,,,,,,53,,,,,,,,,,,,,,444.02099997134064,,response,,,,99,,,,,,,Space,keypress(Space),,,,,,,,---- -- ----- -- ------ a ------- --- ----------<br>------------- ------ ------ ---- ---- ------- ----- -- ----<br>-------- ------- -- ---------- --- - --- ----- ----- ----<br>---- --- --- ----- --- ---- ---- ------- ----- ---- -------<br>--- --- -- ----- -- --- ---- -- --- ---- -- ------ ------<br>--- ----- -- ----,230470.36999999546,230469.73999997135,230009.011,230015.63500007614,230025.719,230475.233,,5,a
screen,html.Screen,2_1_0_1_6,2021-04-30T12:14:49.460Z,,,,,,,,,,,,,,,,,53,,,,,,,,,,,,,,721.9170000217855,,response,,,,99,,,,,,,Space,keypress(Space),,,,,,,,---- -- ----- -- ------ - lasting --- ----------<br>------------- ------ ------ ---- ---- ------- ----- -- ----<br>-------- ------- -- ---------- --- - --- ----- ----- ----<br>---- --- --- ----- --- ---- ---- ------- ----- ---- -------<br>--- --- -- ----- -- --- ---- -- --- ---- -- ------ ------<br>--- ----- -- ----,231197.935000062,231197.1500000218,230458.639,230470.53000004962,230475.233,231209.004,,6,lasting
screen,html.Screen,2_1_0_1_7,2021-04-30T12:14:49.986Z,,,,,,,,,,,,,,,,,53,,,,,,,,,,,,,,514.4010000552225,,response,,,,99,,,,,,,Space,keypress(Space),,,,,,,,---- -- ----- -- ------ - ------- and ----------<br>------------- ------ ------ ---- ---- ------- ----- -- ----<br>-------- ------- -- ---------- --- - --- ----- ----- ----<br>---- --- --- ----- --- ---- ---- ------- ----- ---- -------<br>--- --- -- ----- -- --- ---- -- --- ---- -- ------ ------<br>--- ----- -- ----,231724.11000006832,231723.4050000552,231192.252,231198.09000007808,231209.004,231756.258,,7,and
screen,html.Screen,2_1_0_1_8,2021-04-30T12:14:50.719Z,,,,,,,,,,,,,,,,,53,,,,,,,,,,,,,,699.9369999770133,,response,,,,99,,,,,,,Space,keypress(Space),,,,,,,,---- -- ----- -- ------ - ------- --- fulfilling<br>------------- ------ ------ ---- ---- ------- ----- -- ----<br>-------- ------- -- ---------- --- - --- ----- ----- ----<br>---- --- --- ----- --- ---- ---- ------- ----- ---- -------<br>--- --- -- ----- -- --- ---- -- --- ---- -- ------ ------<br>--- ----- -- ----,232456.88000007067,232456.19499997701,231708.458,231724.26000004634,231756.258,232458.476,,8,fulfilling
screen,html.Screen,2_1_0_1_9,2021-04-30T12:14:51.476Z,,,,,,,,,,,,,,,,,53,,,,,,,,,,,,,,755.0589999880467,,response,,,,99,,,,,,,Space,keypress(Space),,,,,,,,"---- -- ----- -- ------ - ------- --- ----------<br>relationship, ------ ------ ---- ---- ------- ----- -- ----<br>-------- ------- -- ---------- --- - --- ----- ----- ----<br>---- --- --- ----- --- ---- ---- ------- ----- ---- -------<br>--- --- -- ----- -- --- ---- -- --- ---- -- ------ ------<br>--- ----- -- ----",233214.1250000568,233213.53499998804,232442.222,232457.03499997035,232458.476,233225.464,,9,"relationship,"
screen,html.Screen,2_1_0_1_10,2021-04-30T12:14:51.981Z,,,,,,,,,,,,,,,,,53,,,,,,,,,,,,,,492.9110000549408,,response,,,,99,,,,,,,Space,keypress(Space),,,,,,,,---- -- ----- -- ------ - ------- --- ----------<br>------------- common ------ ---- ---- ------- ----- -- ----<br>-------- ------- -- ---------- --- - --- ----- ----- ----<br>---- --- --- ----- --- ---- ---- ------- ----- ---- -------<br>--- --- -- ----- -- --- ---- -- --- ---- -- ------ ------<br>--- ----- -- ----,233719.08499998972,233718.37500005495,233208.861,233214.2800000729,233225.464,233725.196,,10,common
screen,html.Screen,2_1_0_1_11,2021-04-30T12:14:52.538Z,,,,,,,,,,,,,,,,,53,,,,,,,,,,,,,,550.8089999924414,,response,,,,99,,,,,,,Space,keypress(Space),,,,,,,,---- -- ----- -- ------ - ------- --- ----------<br>------------- ------ wisdom ---- ---- ------- ----- -- ----<br>-------- ------- -- ---------- --- - --- ----- ----- ----<br>---- --- --- ----- --- ---- ---- ------- ----- ---- -------<br>--- --- -- ----- -- --- ---- -- --- ---- -- ------ ------<br>--- ----- -- ----,234276.67499997187,234276.00499999244,233708.843,233719.26499996334,233725.196,234291.845,,11,wisdom
screen,html.Screen,2_1_0_1_12,2021-04-30T12:14:53.212Z,,,,,,,,,,,,,,,,,53,,,,,,,,,,,,,,657.3600000699225,,response,,,,99,,,,,,,Space,keypress(Space),,,,,,,,---- -- ----- -- ------ - ------- --- ----------<br>------------- ------ ------ says ---- ------- ----- -- ----<br>-------- ------- -- ---------- --- - --- ----- ----- ----<br>---- --- --- ----- --- ---- ---- ------- ----- ---- -------<br>--- --- -- ----- -- --- ---- -- --- ---- -- ------ ------<br>--- ----- -- ----,234949.9749999959,234949.20500006992,234275.274,234276.8400000641,234291.845,234958.419,,12,says
screen,html.Screen,2_1_0_1_13,2021-04-30T12:14:53.654Z,,,,,,,,,,,,,,,,,53,,,,,,,,,,,,,,432.7760000328999,,response,,,,99,,,,,,,Space,keypress(Space),,,,,,,,---- -- ----- -- ------ - ------- --- ----------<br>------------- ------ ------ ---- that ------- ----- -- ----<br>-------- ------- -- ---------- --- - --- ----- ----- ----<br>---- --- --- ----- --- ---- ---- ------- ----- ---- -------<br>--- --- -- ----- -- --- ---- -- --- ---- -- ------ ------<br>--- ----- -- ----,235391.8850000482,235391.1950000329,234941.828,234950.1450000098,234958.419,235408.72,,13,that
screen,html.Screen,2_1_0_1_14,2021-04-30T12:14:54.245Z,,,,,,,,,,,,,,,,,53,,,,,,,,,,,,,,573.4949999672535,,response,,,,99,,,,,,,Space,keypress(Space),,,,,,,,---- -- ----- -- ------ - ------- --- ----------<br>------------- ------ ------ ---- ---- feeling ----- -- ----<br>-------- ------- -- ---------- --- - --- ----- ----- ----<br>---- --- --- ----- --- ---- ---- ------- ----- ---- -------<br>--- --- -- ----- -- --- ---- -- --- ---- -- ------ ------<br>--- ----- -- ----,235982.9300000565,235982.21499996725,235391.842,235392.03500002623,235408.72,235991.706,,14,feeling
screen,html.Screen,2_1_0_1_15,2021-04-30T12:14:54.841Z,,,,,,,,,,,,,,,,,53,,,,,,,,,,,,,,587.3489999801386,,response,,,,99,,,,,,,Space,keypress(Space),,,,,,,,---- -- ----- -- ------ - ------- --- ----------<br>------------- ------ ------ ---- ---- ------- close -- ----<br>-------- ------- -- ---------- --- - --- ----- ----- ----<br>---- --- --- ----- --- ---- ---- ------- ----- ---- -------<br>--- --- -- ----- -- --- ---- -- --- ---- -- ------ ------<br>--- ----- -- ----,236579.76500003133,236579.05499998014,235975.401,235983.0850000726,235991.706,236592.101,,15,close
screen,html.Screen,2_1_0_1_16,2021-04-30T12:14:55.158Z,,,,,,,,,,,,,,,,,53,,,,,,,,,,,,,,303.8490000346501,,response,,,,99,,,,,,,Space,keypress(Space),,,,,,,,---- -- ----- -- ------ - ------- --- ----------<br>------------- ------ ------ ---- ---- ------- ----- to ----<br>-------- ------- -- ---------- --- - --- ----- ----- ----<br>---- --- --- ----- --- ---- ---- ------- ----- ---- -------<br>--- --- -- ----- -- --- ---- -- --- ---- -- ------ ------<br>--- ----- -- ----,236896.71500003897,236895.95000003465,236575.385,236579.93000000715,236592.101,236908.757,,16,to
screen,html.Screen,2_1_0_1_17,2021-04-30T12:14:55.764Z,,,,,,,,,,,,,,,,,53,,,,,,,,,,,,,,592.7630000489007,,response,,,,99,,,,,,,Space,keypress(Space),,,,,,,,---- -- ----- -- ------ - ------- --- ----------<br>------------- ------ ------ ---- ---- ------- ----- -- your<br>-------- ------- -- ---------- --- - --- ----- ----- ----<br>---- --- --- ----- --- ---- ---- ------- ----- ---- -------<br>--- --- -- ----- -- --- ---- -- --- ---- -- ------ ------<br>--- ----- -- ----,237502.24000005983,237501.5200000489,236892.102,236896.8800000148,236908.757,237508.26,,17,your
screen,html.Screen,2_1_0_1_18,2021-04-30T12:14:56.093Z,,,,,,,,,,,,,,,,,53,,,,,,,,,,,,,,322.13000001735054,,response,,,,99,,,,,,,Space,keypress(Space),,,,,,,,---- -- ----- -- ------ - ------- --- ----------<br>------------- ------ ------ ---- ---- ------- ----- -- ----<br>romantic ------- -- ---------- --- - --- ----- ----- ----<br>---- --- --- ----- --- ---- ---- ------- ----- ---- -------<br>--- --- -- ----- -- --- ---- -- --- ---- -- ------ ------<br>--- ----- -- ----,237830.88500006124,237830.39000001736,237491.701,237502.4599999888,237508.26,237841.556,,18,romantic
screen,html.Screen,2_1_0_1_19,2021-04-30T12:14:56.594Z,,,,,,,,,,,,,,,,,53,,,,,,,,,,,,,,490.1690000545641,,response,,,,99,,,,,,,Space,keypress(Space),,,,,,,,---- -- ----- -- ------ - ------- --- ----------<br>------------- ------ ------ ---- ---- ------- ----- -- ----<br>-------- partner -- ---------- --- - --- ----- ----- ----<br>---- --- --- ----- --- ---- ---- ------- ----- ---- -------<br>--- --- -- ----- -- --- ---- -- --- ---- -- ------ ------<br>--- ----- -- ----,238332.21999998204,238331.72500005458,237824.863,237831.00999996532,237841.556,238341.515,,19,partner
screen,html.Screen,2_1_0_1_20,2021-04-30T12:14:57.053Z,,,,,,,,,,,,,,,,,53,,,,,,,,,,,,,,449.4800000466639,,response,,,,99,,,,,,,Space,keypress(Space),,,,,,,,---- -- ----- -- ------ - ------- --- ----------<br>------------- ------ ------ ---- ---- ------- ----- -- ----<br>-------- ------- is ---------- --- - --- ----- ----- ----<br>---- --- --- ----- --- ---- ---- ------- ----- ---- -------<br>--- --- -- ----- -- --- ---- -- --- ---- -- ------ ------<br>--- ----- -- ----,238791.54000000563,238790.99500004668,238324.852,238332.32499996666,238341.515,238808.208,,20,is
screen,html.Screen,2_1_0_1_21,2021-04-30T12:14:57.754Z,,,,,,,,,,,,,,,,,53,,,,,,,,,,,,,,683.6269999934302,,response,,,,99,,,,,,,Space,keypress(Space),,,,,,,,---- -- ----- -- ------ - ------- --- ----------<br>------------- ------ ------ ---- ---- ------- ----- -- ----<br>-------- ------- -- paramount. --- - --- ----- ----- ----<br>---- --- --- ----- --- ---- ---- ------- ----- ---- -------<br>--- --- -- ----- -- --- ---- -- --- ---- -- ------ ------<br>--- ----- -- ----,239492.53000004683,239491.83499999344,238791.493,238791.6500000283,238808.208,239508.176,,21,paramount.
screen,html.Screen,2_1_0_1_22,2021-04-30T12:14:58.255Z,,,,,,,,,,,,,,,,,53,,,,,,,,,,,,,,484.66399996259133,,response,,,,99,,,,,,,Space,keypress(Space),,,,,,,,---- -- ----- -- ------ - ------- --- ----------<br>------------- ------ ------ ---- ---- ------- ----- -- ----<br>-------- ------- -- ---------- But - --- ----- ----- ----<br>---- --- --- ----- --- ---- ---- ------- ----- ---- -------<br>--- --- -- ----- -- --- ---- -- --- ---- -- ------ ------<br>--- ----- -- ----,239993.35000000428,239992.8399999626,239491.419,239492.69500002265,239508.176,240008.131,,22,But
screen,html.Screen,2_1_0_1_23,2021-04-30T12:14:58.603Z,,,,,,,,,,,,,,,,,53,,,,,,,,,,,,,,332.59400001639733,,response,,,,99,,,,,,,Space,keypress(Space),,,,,,,,---- -- ----- -- ------ - ------- --- ----------<br>------------- ------ ------ ---- ---- ------- ----- -- ----<br>-------- ------- -- ---------- --- a --- ----- ----- ----<br>---- --- --- ----- --- ---- ---- ------- ----- ---- -------<br>--- --- -- ----- -- --- ---- -- --- ---- -- ------ ------<br>--- ----- -- ----,240341.32000000682,240340.7250000164,239991.468,239993.55000001378,240008.131,240358.355,,23,a
screen,html.Screen,2_1_0_1_24,2021-04-30T12:14:59.152Z,,,,,,,,,,,,,,,,,53,,,,,,,,,,,,,,531.2449999949604,,response,,,,99,,,,,,,Space,keypress(Space),,,,,,,,---- -- ----- -- ------ - ------- --- ----------<br>------------- ------ ------ ---- ---- ------- ----- -- ----<br>-------- ------- -- ---------- --- - new ----- ----- ----<br>---- --- --- ----- --- ---- ---- ------- ----- ---- -------<br>--- --- -- ----- -- --- ---- -- --- ---- -- ------ ------<br>--- ----- -- ----,240890.27500001248,240889.59999999497,240341.466,240341.5400000522,240358.355,240921.146,,24,new
screen,html.Screen,2_1_0_1_25,2021-04-30T12:14:59.619Z,,,,,,,,,,,,,,,,,53,,,,,,,,,,,,,,435.3689999922062,,response,,,,99,,,,,,,Space,keypress(Space),,,,,,,,---- -- ----- -- ------ - ------- --- ----------<br>------------- ------ ------ ---- ---- ------- ----- -- ----<br>-------- ------- -- ---------- --- - --- study ----- ----<br>---- --- --- ----- --- ---- ---- ------- ----- ---- -------<br>--- --- -- ----- -- --- ---- -- --- ---- -- ------ ------<br>--- ----- -- ----,241357.14500001632,241356.5149999922,240875.178,240890.52999997512,240921.146,241386.062,,25,study
screen,html.Screen,2_1_0_1_26,2021-04-30T12:15:00.075Z,,,,,,,,,,,,,,,,,53,,,,,,,,,,,,,,426.75799999191076,,response,,,,99,,,,,,,Space,keypress(Space),,,,,,,,---- -- ----- -- ------ - ------- --- ----------<br>------------- ------ ------ ---- ---- ------- ----- -- ----<br>-------- ------- -- ---------- --- - --- ----- finds ----<br>---- --- --- ----- --- ---- ---- ------- ----- ---- -------<br>--- --- -- ----- -- --- ---- -- --- ---- -- ------ ------<br>--- ----- -- ----,241813.48000001162,241812.81999999192,241341.756,241357.29499999434,241386.062,241825.168,,26,finds
screen,html.Screen,2_1_0_1_27,2021-04-30T12:15:00.626Z,,,,,,,,,,,,,,,,,53,,,,,,,,,,,,,,537.3570000040927,,response,,,,99,,,,,,,Space,keypress(Space),,,,,,,,---- -- ----- -- ------ - ------- --- ----------<br>------------- ------ ------ ---- ---- ------- ----- -- ----<br>-------- ------- -- ---------- --- - --- ----- ----- that<br>---- --- --- ----- --- ---- ---- ------- ----- ---- -------<br>--- --- -- ----- -- --- ---- -- --- ---- -- ------ ------<br>--- ----- -- ----,242364.22500002664,242362.5250000041,241808.249,241813.6550000636,241825.168,242375.154,,27,that
screen,html.Screen,2_1_0_1_28,2021-04-30T12:15:01.099Z,,,,,,,,,,,,,,,,,53,,,,,,,,,,,,,,461.56099998307764,,response,,,,99,,,,,,,Space,keypress(Space),,,,,,,,---- -- ----- -- ------ - ------- --- ----------<br>------------- ------ ------ ---- ---- ------- ----- -- ----<br>-------- ------- -- ---------- --- - --- ----- ----- ----<br>it's --- --- ----- --- ---- ---- ------- ----- ---- -------<br>--- --- -- ----- -- --- ---- -- --- ---- -- ------ ------<br>--- ----- -- ----,242837.3750000028,242836.7149999831,242358.437,242364.49499998707,242375.154,242841.317,,28,it's
screen,html.Screen,2_1_0_1_29,2021-04-30T12:15:01.515Z,,,,,,,,,,,,,,,,,53,,,,,,,,,,,,,,411.55299996750546,,response,,,,99,,,,,,,Space,keypress(Space),,,,,,,,---- -- ----- -- ------ - ------- --- ----------<br>------------- ------ ------ ---- ---- ------- ----- -- ----<br>-------- ------- -- ---------- --- - --- ----- ----- ----<br>---- not --- ----- --- ---- ---- ------- ----- ---- -------<br>--- --- -- ----- -- --- ---- -- --- ---- -- ------ ------<br>--- ----- -- ----,243253.52500006557,243252.86999996752,242824.75,242837.55499997642,242841.317,243257.993,,29,not
screen,html.Screen,2_1_0_1_30,2021-04-30T12:15:01.932Z,,,,,,,,,,,,,,,,,53,,,,,,,,,,,,,,411.3220000646834,,response,,,,99,,,,,,,Space,keypress(Space),,,,,,,,---- -- ----- -- ------ - ------- --- ----------<br>------------- ------ ------ ---- ---- ------- ----- -- ----<br>-------- ------- -- ---------- --- - --- ----- ----- ----<br>---- --- how ----- --- ---- ---- ------- ----- ---- -------<br>--- --- -- ----- -- --- ---- -- --- ---- -- ------ ------<br>--- ----- -- ----,243670.0300000375,243669.31500006467,243241.668,243253.6900000414,243257.993,243674.611,,30,how
screen,html.Screen,2_1_0_1_31,2021-04-30T12:15:02.299Z,,,,,,,,,,,,,,,,,53,,,,,,,,,,,,,,361.8740000478283,,response,,,,99,,,,,,,Space,keypress(Space),,,,,,,,---- -- ----- -- ------ - ------- --- ----------<br>------------- ------ ------ ---- ---- ------- ----- -- ----<br>-------- ------- -- ---------- --- - --- ----- ----- ----<br>---- --- --- close --- ---- ---- ------- ----- ---- -------<br>--- --- -- ----- -- --- ---- -- --- ---- -- ------ ------<br>--- ----- -- ----,244037.1349999914,244036.48500004783,243658.118,243670.20499997307,243674.611,244041.255,,31,close
screen,html.Screen,2_1_0_1_32,2021-04-30T12:15:02.727Z,,,,,,,,,,,,,,,,,53,,,,,,,,,,,,,,423.3450000648154,,response,,,,99,,,,,,,Space,keypress(Space),,,,,,,,---- -- ----- -- ------ - ------- --- ----------<br>------------- ------ ------ ---- ---- ------- ----- -- ----<br>-------- ------- -- ---------- --- - --- ----- ----- ----<br>---- --- --- ----- you ---- ---- ------- ----- ---- -------<br>--- --- -- ----- -- --- ---- -- --- ---- -- ------ ------<br>--- ----- -- ----,244465.22500005085,244464.60000006482,244024.598,244037.29999996722,244041.255,244475.056,,32,you
screen,html.Screen,2_1_0_1_33,2021-04-30T12:15:03.060Z,,,,,,,,,,,,,,,,,53,,,,,,,,,,,,,,322.4990000555699,,response,,,,99,,,,,,,Space,keypress(Space),,,,,,,,---- -- ----- -- ------ - ------- --- ----------<br>------------- ------ ------ ---- ---- ------- ----- -- ----<br>-------- ------- -- ---------- --- - --- ----- ----- ----<br>---- --- --- ----- --- feel ---- ------- ----- ---- -------<br>--- --- -- ----- -- --- ---- -- --- ---- -- ------ ------<br>--- ----- -- ----,244798.27999998815,244797.55500005558,244457.934,244465.38000006694,244475.056,244808.308,,33,feel
screen,html.Screen,2_1_0_1_34,2021-04-30T12:15:03.668Z,,,,,,,,,,,,,,,,,53,,,,,,,,,,,,,,597.4920000659477,,response,,,,99,,,,,,,Space,keypress(Space),,,,,,,,---- -- ----- -- ------ - ------- --- ----------<br>------------- ------ ------ ---- ---- ------- ----- -- ----<br>-------- ------- -- ---------- --- - --- ----- ----- ----<br>---- --- --- ----- --- ---- that ------- ----- ---- -------<br>--- --- -- ----- -- --- ---- -- --- ---- -- ------ ------<br>--- ----- -- ----,245406.76499996334,245405.80000006594,244791.448,244798.45000000205,244808.308,245438.157,,34,that
screen,html.Screen,2_1_0_1_35,2021-04-30T12:15:04.192Z,,,,,,,,,,,,,,,,,53,,,,,,,,,,,,,,491.4379999941448,,response,,,,99,,,,,,,Space,keypress(Space),,,,,,,,---- -- ----- -- ------ - ------- --- ----------<br>------------- ------ ------ ---- ---- ------- ----- -- ----<br>-------- ------- -- ---------- --- - --- ----- ----- ----<br>---- --- --- ----- --- ---- ---- matters ----- ---- -------<br>--- --- -- ----- -- --- ---- -- --- ---- -- ------ ------<br>--- ----- -- ----,245930.27500004973,245929.59499999415,245391.395,245406.93000005558,245438.157,245941.483,,35,matters
screen,html.Screen,2_1_0_1_36,2021-04-30T12:15:04.933Z,,,,,,,,,,,,,,,,,53,,,,,,,,,,,,,,729.387000030838,,response,,,,99,,,,,,,Space,keypress(Space),,,,,,,,"---- -- ----- -- ------ - ------- --- ----------<br>------------- ------ ------ ---- ---- ------- ----- -- ----<br>-------- ------- -- ---------- --- - --- ----- ----- ----<br>---- --- --- ----- --- ---- ---- ------- most, ---- -------<br>--- --- -- ----- -- --- ---- -- --- ---- -- ------ ------<br>--- ----- -- ----",246671.48500005715,246670.87000003085,245924.859,245931.2149999896,245941.483,246674.474,,36,"most,"
screen,html.Screen,2_1_0_1_37,2021-04-30T12:15:05.374Z,,,,,,,,,,,,,,,,,53,,,,,,,,,,,,,,437.4059999822057,,response,,,,99,,,,,,,Space,keypress(Space),,,,,,,,---- -- ----- -- ------ - ------- --- ----------<br>------------- ------ ------ ---- ---- ------- ----- -- ----<br>-------- ------- -- ---------- --- - --- ----- ----- ----<br>---- --- --- ----- --- ---- ---- ------- ----- it's -------<br>--- --- -- ----- -- --- ---- -- --- ---- -- ------ ------<br>--- ----- -- ----,247112.5100000063,247111.8799999822,246657.996,246671.64000007324,246674.474,247124.578,,37,it's
screen,html.Screen,2_1_0_1_38,2021-04-30T12:15:05.911Z,,,,,,,,,,,,,,,,,53,,,,,,,,,,,,,,524.2770000358287,,response,,,,99,,,,,,,Space,keypress(Space),,,,,,,,---- -- ----- -- ------ - ------- --- ----------<br>------------- ------ ------ ---- ---- ------- ----- -- ----<br>-------- ------- -- ---------- --- - --- ----- ----- ----<br>---- --- --- ----- --- ---- ---- ------- ----- ---- whether<br>--- --- -- ----- -- --- ---- -- --- ---- -- ------ ------<br>--- ----- -- ----,247649.57000000868,247648.85500003584,247108.231,247112.65500006266,247124.578,247658.252,,38,whether
screen,html.Screen,2_1_0_1_39,2021-04-30T12:15:06.371Z,,,,,,,,,,,,,,,,,53,,,,,,,,,,,,,,450.0730000374315,,response,,,,99,,,,,,,Space,keypress(Space),,,,,,,,---- -- ----- -- ------ - ------- --- ----------<br>------------- ------ ------ ---- ---- ------- ----- -- ----<br>-------- ------- -- ---------- --- - --- ----- ----- ----<br>---- --- --- ----- --- ---- ---- ------- ----- ---- -------<br>you --- -- ----- -- --- ---- -- --- ---- -- ------ ------<br>--- ----- -- ----,248108.96500002127,248108.32500003744,247641.277,247649.7199999867,247658.252,248124.542,,39,you
screen,html.Screen,2_1_0_1_40,2021-04-30T12:15:06.783Z,,,,,,,,,,,,,,,,,53,,,,,,,,,,,,,,396.5780000485538,,response,,,,99,,,,,,,Space,keypress(Space),,,,,,,,---- -- ----- -- ------ - ------- --- ----------<br>------------- ------ ------ ---- ---- ------- ----- -- ----<br>-------- ------- -- ---------- --- - --- ----- ----- ----<br>---- --- --- ----- --- ---- ---- ------- ----- ---- -------<br>--- are -- ----- -- --- ---- -- --- ---- -- ------ ------<br>--- ----- -- ----,248521.7699999921,248521.12000004854,248108.211,248109.11000007764,248124.542,248524.393,,40,are
screen,html.Screen,2_1_0_1_41,2021-04-30T12:15:07.091Z,,,,,,,,,,,,,,,,,53,,,,,,,,,,,,,,304.55200007386156,,response,,,,99,,,,,,,Space,keypress(Space),,,,,,,,---- -- ----- -- ------ - ------- --- ----------<br>------------- ------ ------ ---- ---- ------- ----- -- ----<br>-------- ------- -- ---------- --- - --- ----- ----- ----<br>---- --- --- ----- --- ---- ---- ------- ----- ---- -------<br>--- --- as ----- -- --- ---- -- --- ---- -- ------ ------<br>--- ----- -- ----,248829.57499998156,248828.94500007387,248507.894,248521.91999997012,248524.393,248841.543,,41,as
screen,html.Screen,2_1_0_1_42,2021-04-30T12:15:07.583Z,,,,,,,,,,,,,,,,,53,,,,,,,,,,,,,,479.2220000695088,,response,,,,99,,,,,,,Space,keypress(Space),,,,,,,,---- -- ----- -- ------ - ------- --- ----------<br>------------- ------ ------ ---- ---- ------- ----- -- ----<br>-------- ------- -- ---------- --- - --- ----- ----- ----<br>---- --- --- ----- --- ---- ---- ------- ----- ---- -------<br>--- --- -- close -- --- ---- -- --- ---- -- ------ ------<br>--- ----- -- ----,249321.40000001527,249320.7650000695,248824.836,248829.72000003792,248841.543,249324.346,,42,close
screen,html.Screen,2_1_0_1_43,2021-04-30T12:15:08.151Z,,,,,,,,,,,,,,,,,53,,,,,,,,,,,,,,564.694000038231,,response,,,,99,,,,,,,Space,keypress(Space),,,,,,,,---- -- ----- -- ------ - ------- --- ----------<br>------------- ------ ------ ---- ---- ------- ----- -- ----<br>-------- ------- -- ---------- --- - --- ----- ----- ----<br>---- --- --- ----- --- ---- ---- ------- ----- ---- -------<br>--- --- -- ----- as --- ---- -- --- ---- -- ------ ------<br>--- ----- -- ----,249889.71000001766,249889.04000003822,249307.784,249321.5349999955,249324.346,249924.642,,43,as
screen,html.Screen,2_1_0_1_44,2021-04-30T12:15:08.591Z,,,,,,,,,,,,,,,,,53,,,,,,,,,,,,,,403.6029999824241,,response,,,,99,,,,,,,Space,keypress(Space),,,,,,,,---- -- ----- -- ------ - ------- --- ----------<br>------------- ------ ------ ---- ---- ------- ----- -- ----<br>-------- ------- -- ---------- --- - --- ----- ----- ----<br>---- --- --- ----- --- ---- ---- ------- ----- ---- -------<br>--- --- -- ----- -- you ---- -- --- ---- -- ------ ------<br>--- ----- -- ----,250329.0650000563,250328.24499998242,249874.413,249889.86500003375,249924.642,250341.119,,44,you
screen,html.Screen,2_1_0_1_45,2021-04-30T12:15:08.995Z,,,,,,,,,,,,,,,,,53,,,,,,,,,,,,,,391.7960000587045,,response,,,,99,,,,,,,Space,keypress(Space),,,,,,,,---- -- ----- -- ------ - ------- --- ----------<br>------------- ------ ------ ---- ---- ------- ----- -- ----<br>-------- ------- -- ---------- --- - --- ----- ----- ----<br>---- --- --- ----- --- ---- ---- ------- ----- ---- -------<br>--- --- -- ----- -- --- want -- --- ---- -- ------ ------<br>--- ----- -- ----,250733.7149999803,250732.9150000587,250324.563,250330.8599999873,250341.119,250741.155,,45,want
screen,html.Screen,2_1_0_1_46,2021-04-30T12:15:09.400Z,,,,,,,,,,,,,,,,,53,,,,,,,,,,,,,,397.0450000448909,,response,,,,99,,,,,,,Space,keypress(Space),,,,,,,,---- -- ----- -- ------ - ------- --- ----------<br>------------- ------ ------ ---- ---- ------- ----- -- ----<br>-------- ------- -- ---------- --- - --- ----- ----- ----<br>---- --- --- ----- --- ---- ---- ------- ----- ---- -------<br>--- --- -- ----- -- --- ---- to --- ---- -- ------ ------<br>--- ----- -- ----,251138.78999999724,251138.2000000449,250724.738,250733.8699999964,250741.155,251140.977,,46,to
screen,html.Screen,2_1_0_1_47,2021-04-30T12:15:09.781Z,,,,,,,,,,,,,,,,,53,,,,,,,,,,,,,,377.2830000407412,,response,,,,99,,,,,,,Space,keypress(Space),,,,,,,,"---- -- ----- -- ------ - ------- --- ----------<br>------------- ------ ------ ---- ---- ------- ----- -- ----<br>-------- ------- -- ---------- --- - --- ----- ----- ----<br>---- --- --- ----- --- ---- ---- ------- ----- ---- -------<br>--- --- -- ----- -- --- ---- -- be, ---- -- ------ ------<br>--- ----- -- ----",251518.89000006486,251518.26000004075,251124.37,251138.96000001114,251140.977,251524.297,,47,"be,"
screen,html.Screen,2_1_0_1_48,2021-04-30T12:15:10.283Z,,,,,,,,,,,,,,,,,53,,,,,,,,,,,,,,496.4580000632268,,response,,,,99,,,,,,,Space,keypress(Space),,,,,,,,---- -- ----- -- ------ - ------- --- ----------<br>------------- ------ ------ ---- ---- ------- ----- -- ----<br>-------- ------- -- ---------- --- - --- ----- ----- ----<br>---- --- --- ----- --- ---- ---- ------- ----- ---- -------<br>--- --- -- ----- -- --- ---- -- --- even -- ------ ------<br>--- ----- -- ----,252021.48500003386,252020.75500006322,251508.041,251519.04499996454,251524.297,252024.235,,48,even
screen,html.Screen,2_1_0_1_49,2021-04-30T12:15:10.695Z,,,,,,,,,,,,,,,,,53,,,,,,,,,,,,,,408.7550000011688,,response,,,,99,,,,,,,Space,keypress(Space),,,,,,,,---- -- ----- -- ------ - ------- --- ----------<br>------------- ------ ------ ---- ---- ------- ----- -- ----<br>-------- ------- -- ---------- --- - --- ----- ----- ----<br>---- --- --- ----- --- ---- ---- ------- ----- ---- -------<br>--- --- -- ----- -- --- ---- -- --- ---- if ------ ------<br>--- ----- -- ----,252433.62000002526,252432.99000000115,252008.016,252021.63500001188,252024.235,252441.19,,49,if
screen,html.Screen,2_1_0_1_50,2021-04-30T12:15:10.986Z,,,,,,,,,,,,,,,,,53,,,,,,,,,,,,,,282.36500003322726,,response,,,,99,,,,,,,Space,keypress(Space),,,,,,,,---- -- ----- -- ------ - ------- --- ----------<br>------------- ------ ------ ---- ---- ------- ----- -- ----<br>-------- ------- -- ---------- --- - --- ----- ----- ----<br>---- --- --- ----- --- ---- ---- ------- ----- ---- -------<br>--- --- -- ----- -- --- ---- -- --- ---- -- that's ------<br>--- ----- -- ----,252724.11499998998,252723.55500003323,252424.411,252433.76000004355,252441.19,252758.017,,50,that's
screen,html.Screen,2_1_0_1_51,2021-04-30T12:15:11.412Z,,,,,,,,,,,,,,,,,53,,,,,,,,,,,,,,391.2180000189692,,response,,,,99,,,,,,,Space,keypress(Space),,,,,,,,---- -- ----- -- ------ - ------- --- ----------<br>------------- ------ ------ ---- ---- ------- ----- -- ----<br>-------- ------- -- ---------- --- - --- ----- ----- ----<br>---- --- --- ----- --- ---- ---- ------- ----- ---- -------<br>--- --- -- ----- -- --- ---- -- --- ---- -- ------ really<br>--- ----- -- ----,253149.88000004087,253149.23500001896,252741.39,252724.264999968,252758.017,253157.584,,51,really
screen,html.Screen,2_1_0_1_52,2021-04-30T12:15:11.872Z,,,,,,,,,,,,,,,,,53,,,,,,,,,,,,,,451.6110000263725,,response,,,,99,,,,,,,Space,keypress(Space),,,,,,,,---- -- ----- -- ------ - ------- --- ----------<br>------------- ------ ------ ---- ---- ------- ----- -- ----<br>-------- ------- -- ---------- --- - --- ----- ----- ----<br>---- --- --- ----- --- ---- ---- ------- ----- ---- -------<br>--- --- -- ----- -- --- ---- -- --- ---- -- ------ ------<br>not ----- -- ----,253610.0500000175,253609.19500002638,253141.305,253150.02499998081,253157.584,253624.352,,52,not
screen,html.Screen,2_1_0_1_53,2021-04-30T12:15:12.285Z,,,,,,,,,,,,,,,,,53,,,,,,,,,,,,,,398.87300001172116,,response,,,,99,,,,,,,Space,keypress(Space),,,,,,,,---- -- ----- -- ------ - ------- --- ----------<br>------------- ------ ------ ---- ---- ------- ----- -- ----<br>-------- ------- -- ---------- --- - --- ----- ----- ----<br>---- --- --- ----- --- ---- ---- ------- ----- ---- -------<br>--- --- -- ----- -- --- ---- -- --- ---- -- ------ ------<br>--- close -- ----,254023.82000000216,254023.22500001173,253607.857,253610.19999999553,253624.352,254041.269,,53,close
screen,html.Screen,2_1_0_1_54,2021-04-30T12:15:12.692Z,,,,,,,,,,,,,,,,,53,,,,,,,,,,,,,,388.1460000205261,,response,,,,99,,,,,,,Space,keypress(Space),,,,,,,,---- -- ----- -- ------ - ------- --- ----------<br>------------- ------ ------ ---- ---- ------- ----- -- ----<br>-------- ------- -- ---------- --- - --- ----- ----- ----<br>---- --- --- ----- --- ---- ---- ------- ----- ---- -------<br>--- --- -- ----- -- --- ---- -- --- ---- -- ------ ------<br>--- ----- at ----,254430.18500006292,254429.41500002053,254007.916,254023.96000002045,254041.269,254440.87,,54,at
screen,html.Screen,2_1_0_1_55,2021-04-30T12:15:13.127Z,,,,,,,,,,,,,,,,,53,,,,,,,,,,,,,,424.21500005584676,,response,,,,99,,,,,,,Space,keypress(Space),,,,,,,,---- -- ----- -- ------ - ------- --- ----------<br>------------- ------ ------ ---- ---- ------- ----- -- ----<br>-------- ------- -- ---------- --- - --- ----- ----- ----<br>---- --- --- ----- --- ---- ---- ------- ----- ---- -------<br>--- --- -- ----- -- --- ---- -- --- ---- -- ------ ------<br>--- ----- -- all.,254865.77500007115,254865.08500005584,254424.566,254430.3249999648,254440.87,254874.111,,55,all.
Item 99,flow.Loop,2_1_0_1,2021-04-30T12:15:13.128Z,,,,,,,,,,,,,,,,,,,,,,,,,,,,,,,28706.292000055837,,completion,,,,,D,,,,,,,,,,,silence,,,,,254866.0600000294,254865.08500005584,226142.545,226143.49499996752,226158.793,254874.111,,,
Question 1,html.Screen,2_1_0_2,2021-04-30T12:15:18.676Z,,,,,,,,,,,,,,,,,,,,,,,,,,,,true,FALSE,,5539.709000016126,,response,,,,99,D,,,,,,FALSE,click #choice-2,,,,silence,,,,,260414.75500003435,260413.82000001613,254857.726,254866.18999997154,254874.111,260423.982,,,
Question 2,html.Screen,2_1_0_3,2021-04-30T12:15:30.134Z,,,,,,,,,,,,,,,,,,,,,,,,,,,,true,TRUE,,11447.678000062559,,response,,,,99,D,,,,,,TRUE,click #choice-1,,,,silence,,,,,271872.5600000471,271871.66000006255,260407.451,260414.8699999787,260423.982,271873.355,,,
Item 99,flow.Sequence,2_1_0,2021-04-30T12:15:30.134Z,,,,,,,,,,,,,,,,,,,,,,,,,,,,,,,55712.46300006256,,completion,,,,,,,,,,,,,,,,,,,,,271872.71999998484,271871.66000006255,216142.994,216156.7750000395,216159.197,271873.355,,,
Holding screen,html.Screen,2_1_1_0,2021-04-30T12:15:40.119Z,,,,,,,,,,,,,,,,,,,,,,,,,,,,,,,9999.639000000025,,timeout,,,,,,,,,,,,,,,,,,,,,281857.45000001043,281856.679,271856.722,271874.124999973,271873.355,281872.994,,,
screen,html.Screen,2_1_1_1_0,2021-04-30T12:15:40.821Z,,,,,,,,,,,,,,,,,54,,,,,,,,,,,,,,685.9360000574379,,response,,,,100,,,,,,,Space,keypress(Space),,,,,,,,At --- ---- --- ------ ----- ------- ---- -- --- ------- --<br>------- ---------- ------ -- ----- -- ----- -- ---- ------<br>--- ----- --- --- ------ -------- ----- --- ------ ----- --<br>----- ----- ---------- --- --- ------ ------ ---- -- ------<br>------- --- ------ ----- --- ---- ------- -- ---- --- --<br>------- ------,282559.5299999695,282558.93000005744,281856.679,281857.655000058,281872.994,282572.867,,0,At
screen,html.Screen,2_1_1_1_1,2021-04-30T12:15:41.168Z,,,,,,,,,,,,,,,,,54,,,,,,,,,,,,,,332.7880000095465,,response,,,,100,,,,,,,Space,keypress(Space),,,,,,,,-- the ---- --- ------ ----- ------- ---- -- --- ------- --<br>------- ---------- ------ -- ----- -- ----- -- ---- ------<br>--- ----- --- --- ------ -------- ----- --- ------ ----- --<br>----- ----- ---------- --- --- ------ ------ ---- -- ------<br>------- --- ------ ----- --- ---- ------- -- ---- --- --<br>------- ------,282906.29000007175,282905.6550000096,282556.671,282559.6699999878,282572.867,282923.005,,1,the
screen,html.Screen,2_1_1_1_2,2021-04-30T12:15:41.588Z,,,,,,,,,,,,,,,,,54,,,,,,,,,,,,,,402.6950000448851,,response,,,,100,,,,,,,Space,keypress(Space),,,,,,,,-- --- time --- ------ ----- ------- ---- -- --- ------- --<br>------- ---------- ------ -- ----- -- ----- -- ---- ------<br>--- ----- --- --- ------ -------- ----- --- ------ ----- --<br>----- ----- ---------- --- --- ------ ------ ---- -- ------<br>------- --- ------ ----- --- ---- ------- -- ---- --- --<br>------- ------,283326.4500000514,283325.7000000449,282906.616,282906.44000004977,282923.005,283339.804,,2,time
screen,html.Screen,2_1_1_1_3,2021-04-30T12:15:41.851Z,,,,,,,,,,,,,,,,,54,,,,,,,,,,,,,,249.79100002674386,,response,,,,100,,,,,,,Space,keypress(Space),,,,,,,,-- --- ---- the ------ ----- ------- ---- -- --- ------- --<br>------- ---------- ------ -- ----- -- ----- -- ---- ------<br>--- ----- --- --- ------ -------- ----- --- ------ ----- --<br>----- ----- ---------- --- --- ------ ------ ---- -- ------<br>------- --- ------ ----- --- ---- ------- -- ---- --- --<br>------- ------,283590.1900000172,283589.59500002675,283322.9,283326.59499999136,283339.804,283606.638,,3,the
screen,html.Screen,2_1_1_1_4,2021-04-30T12:15:42.052Z,,,,,,,,,,,,,,,,,54,,,,,,,,,,,,,,182.92200006294297,,response,,,,100,,,,,,,Space,keypress(Space),,,,,,,,-- --- ---- --- French ----- ------- ---- -- --- ------- --<br>------- ---------- ------ -- ----- -- ----- -- ---- ------<br>--- ----- --- --- ------ -------- ----- --- ------ ----- --<br>----- ----- ---------- --- --- ------ ------ ---- -- ------<br>------- --- ------ ----- --- ---- ------- -- ---- --- --<br>------- ------,283790.234999964,283789.5600000629,283589.944,283590.33000003546,283606.638,283806.621,,4,French
screen,html.Screen,2_1_1_1_5,2021-04-30T12:15:42.431Z,,,,,,,,,,,,,,,,,54,,,,,,,,,,,,,,362.399000030302,,response,,,,100,,,,,,,Space,keypress(Space),,,,,,,,-- --- ---- --- ------ crown ------- ---- -- --- ------- --<br>------- ---------- ------ -- ----- -- ----- -- ---- ------<br>--- ----- --- --- ------ -------- ----- --- ------ ----- --<br>----- ----- ---------- --- --- ------ ------ ---- -- ------<br>------- --- ------ ----- --- ---- ------- -- ---- --- --<br>------- ------,284169.69999996945,284169.0200000303,283789.841,283790.3749999823,283806.621,284172.768,,5,crown
screen,html.Screen,2_1_1_1_6,2021-04-30T12:15:43.168Z,,,,,,,,,,,,,,,,,54,,,,,,,,,,,,,,733.1470000103,,response,,,,100,,,,,,,Space,keypress(Space),,,,,,,,-- --- ---- --- ------ ----- secured ---- -- --- ------- --<br>------- ---------- ------ -- ----- -- ----- -- ---- ------<br>--- ----- --- --- ------ -------- ----- --- ------ ----- --<br>----- ----- ---------- --- --- ------ ------ ---- -- ------<br>------- --- ------ ----- --- ---- ------- -- ---- --- --<br>------- ------,284906.5699999919,284905.9150000103,284156.611,284169.8450000258,284172.768,284922.793,,6,secured
screen,html.Screen,2_1_1_1_7,2021-04-30T12:15:43.625Z,,,,,,,,,,,,,,,,,54,,,,,,,,,,,,,,439.7670000377693,,response,,,,100,,,,,,,Space,keypress(Space),,,,,,,,-- --- ---- --- ------ ----- ------- much -- --- ------- --<br>------- ---------- ------ -- ----- -- ----- -- ---- ------<br>--- ----- --- --- ------ -------- ----- --- ------ ----- --<br>----- ----- ---------- --- --- ------ ------ ---- -- ------<br>------- --- ------ ----- --- ---- ------- -- ---- --- --<br>------- ------,285363.26999997254,285362.5600000378,284906.124,284906.7300000461,284922.793,285373.211,,7,much
screen,html.Screen,2_1_1_1_8,2021-04-30T12:15:44.176Z,,,,,,,,,,,,,,,,,54,,,,,,,,,,,,,,540.9190000483068,,response,,,,100,,,,,,,Space,keypress(Space),,,,,,,,-- --- ---- --- ------ ----- ------- ---- of --- ------- --<br>------- ---------- ------ -- ----- -- ----- -- ---- ------<br>--- ----- --- --- ------ -------- ----- --- ------ ----- --<br>----- ----- ---------- --- --- ------ ------ ---- -- ------<br>------- --- ------ ----- --- ---- ------- -- ---- --- --<br>------- ------,285914.7450000746,285914.1300000483,285356.352,285363.42499998864,285373.211,285922.869,,8,of
screen,html.Screen,2_1_1_1_9,2021-04-30T12:15:44.480Z,,,,,,,,,,,,,,,,,54,,,,,,,,,,,,,,295.0059999729856,,response,,,,100,,,,,,,Space,keypress(Space),,,,,,,,-- --- ---- --- ------ ----- ------- ---- -- its ------- --<br>------- ---------- ------ -- ----- -- ----- -- ---- ------<br>--- ----- --- --- ------ -------- ----- --- ------ ----- --<br>----- ----- ---------- --- --- ------ ------ ---- -- ------<br>------- --- ------ ----- --- ---- ------- -- ---- --- --<br>------- ------,286218.54500006884,286217.874999973,285906.517,285914.8849999765,285922.869,286222.709,,9,its
screen,html.Screen,2_1_1_1_10,2021-04-30T12:15:44.904Z,,,,,,,,,,,,,,,,,54,,,,,,,,,,,,,,418.9910000365344,,response,,,,100,,,,,,,Space,keypress(Space),,,,,,,,-- --- ---- --- ------ ----- ------- ---- -- --- revenue --<br>------- ---------- ------ -- ----- -- ----- -- ---- ------<br>--- ----- --- --- ------ -------- ----- --- ------ ----- --<br>----- ----- ---------- --- --- ------ ------ ---- -- ------<br>------- --- ------ ----- --- ---- ------- -- ---- --- --<br>------- ------,286642.41500000935,286641.7000000365,286206.273,286218.6849999707,286222.709,286656.487,,10,revenue
screen,html.Screen,2_1_1_1_11,2021-04-30T12:15:45.696Z,,,,,,,,,,,,,,,,,54,,,,,,,,,,,,,,777.6329999907757,,response,,,,100,,,,,,,Space,keypress(Space),,,,,,,,-- --- ---- --- ------ ----- ------- ---- -- --- ------- by<br>------- ---------- ------ -- ----- -- ----- -- ---- ------<br>--- ----- --- --- ------ -------- ----- --- ------ ----- --<br>----- ----- ---------- --- --- ------ ------ ---- -- ------<br>------- --- ------ ----- --- ---- ------- -- ---- --- --<br>------- ------,287434.755000053,287434.1199999908,286639.498,286642.5600000657,286656.487,287439.315,,11,by
screen,html.Screen,2_1_1_1_12,2021-04-30T12:15:46.526Z,,,,,,,,,,,,,,,,,54,,,,,,,,,,,,,,824.1950000770739,,response,,,,100,,,,,,,Space,keypress(Space),,,,,,,,-- --- ---- --- ------ ----- ------- ---- -- --- ------- --<br>issuing ---------- ------ -- ----- -- ----- -- ---- ------<br>--- ----- --- --- ------ -------- ----- --- ------ ----- --<br>----- ----- ---------- --- --- ------ ------ ---- -- ------<br>------- --- ------ ----- --- ---- ------- -- ---- --- --<br>------- ------,288264.28000000305,288263.5100000771,287423.119,287434.8900000332,287439.315,288273.08,,12,issuing
screen,html.Screen,2_1_1_1_13,2021-04-30T12:15:46.974Z,,,,,,,,,,,,,,,,,54,,,,,,,,,,,,,,438.66499997867504,,response,,,,100,,,,,,,Space,keypress(Space),,,,,,,,-- --- ---- --- ------ ----- ------- ---- -- --- ------- --<br>------- government ------ -- ----- -- ----- -- ---- ------<br>--- ----- --- --- ------ -------- ----- --- ------ ----- --<br>----- ----- ---------- --- --- ------ ------ ---- -- ------<br>------- --- ------ ----- --- ---- ------- -- ---- --- --<br>------- ------,288712.5900000101,288711.7449999787,288256.336,288264.42000002135,288273.08,288722.915,,13,government
screen,html.Screen,2_1_1_1_14,2021-04-30T12:15:47.487Z,,,,,,,,,,,,,,,,,54,,,,,,,,,,,,,,502.4600000382052,,response,,,,100,,,,,,,Space,keypress(Space),,,,,,,,-- --- ---- --- ------ ----- ------- ---- -- --- ------- --<br>------- ---------- bonds. -- ----- -- ----- -- ---- ------<br>--- ----- --- --- ------ -------- ----- --- ------ ----- --<br>----- ----- ---------- --- --- ------ ------ ---- -- ------<br>------- --- ------ ----- --- ---- ------- -- ---- --- --<br>------- ------,289226.08499997295,289225.3750000382,288706.354,288712.7300000284,288722.915,289239.479,,14,bonds.
screen,html.Screen,2_1_1_1_15,2021-04-30T12:15:48.329Z,,,,,,,,,,,,,,,,,54,,,,,,,,,,,,,,827.7310000083526,,response,,,,100,,,,,,,Space,keypress(Space),,,,,,,,-- --- ---- --- ------ ----- ------- ---- -- --- ------- --<br>------- ---------- ------ In ----- -- ----- -- ---- ------<br>--- ----- --- --- ------ -------- ----- --- ------ ----- --<br>----- ----- ---------- --- --- ------ ------ ---- -- ------<br>------- --- ------ ----- --- ---- ------- -- ---- --- --<br>------- ------,290067.88500002585,290067.21000000834,289223.001,289226.2200000696,289239.479,290072.513,,15,In
screen,html.Screen,2_1_1_1_16,2021-04-30T12:15:48.930Z,,,,,,,,,,,,,,,,,54,,,,,,,,,,,,,,595.1920000289683,,response,,,,100,,,,,,,Space,keypress(Space),,,,,,,,"-- --- ---- --- ------ ----- ------- ---- -- --- ------- --<br>------- ---------- ------ -- 1727, -- ----- -- ---- ------<br>--- ----- --- --- ------ -------- ----- --- ------ ----- --<br>----- ----- ---------- --- --- ------ ------ ---- -- ------<br>------- --- ------ ----- --- ---- ------- -- ---- --- --<br>------- ------",290668.3450000128,290667.70500002895,290056.272,290068.0299999658,290072.513,290672.505,,16,"1727,"
screen,html.Screen,2_1_1_1_17,2021-04-30T12:15:49.706Z,,,,,,,,,,,,,,,,,54,,,,,,,,,,,,,,771.7550000183983,,response,,,,100,,,,,,,Space,keypress(Space),,,,,,,,-- --- ---- --- ------ ----- ------- ---- -- --- ------- --<br>------- ---------- ------ -- ----- in ----- -- ---- ------<br>--- ----- --- --- ------ -------- ----- --- ------ ----- --<br>----- ----- ---------- --- --- ------ ------ ---- -- ------<br>------- --- ------ ----- --- ---- ------- -- ---- --- --<br>------- ------,291444.9950000271,291444.2600000184,290655.848,290668.479999993,290672.505,291456.272,,17,in
screen,html.Screen,2_1_1_1_18,2021-04-30T12:15:50.259Z,,,,,,,,,,,,,,,,,54,,,,,,,,,,,,,,540.5230000427691,,response,,,,100,,,,,,,Space,keypress(Space),,,,,,,,-- --- ---- --- ------ ----- ------- ---- -- --- ------- --<br>------- ---------- ------ -- ----- -- order -- ---- ------<br>--- ----- --- --- ------ -------- ----- --- ------ ----- --<br>----- ----- ---------- --- --- ------ ------ ---- -- ------<br>------- --- ------ ----- --- ---- ------- -- ---- --- --<br>------- ------,291997.5300000515,291996.79500004277,291439.271,291445.1350000454,291456.272,292005.82,,18,order
screen,html.Screen,2_1_1_1_19,2021-04-30T12:15:50.706Z,,,,,,,,,,,,,,,,,54,,,,,,,,,,,,,,437.8249999920954,,response,,,,100,,,,,,,Space,keypress(Space),,,,,,,,-- --- ---- --- ------ ----- ------- ---- -- --- ------- --<br>------- ---------- ------ -- ----- -- ----- to ---- ------<br>--- ----- --- --- ------ -------- ----- --- ------ ----- --<br>----- ----- ---------- --- --- ------ ------ ---- -- ------<br>------- --- ------ ----- --- ---- ------- -- ---- --- --<br>------- ------,292444.3250000477,292443.6449999921,291989.543,291997.68999998923,292005.82,292456.211,,19,to
screen,html.Screen,2_1_1_1_20,2021-04-30T12:15:51.472Z,,,,,,,,,,,,,,,,,54,,,,,,,,,,,,,,753.6689999803202,,response,,,,100,,,,,,,Space,keypress(Space),,,,,,,,-- --- ---- --- ------ ----- ------- ---- -- --- ------- --<br>------- ---------- ------ -- ----- -- ----- -- save ------<br>--- ----- --- --- ------ -------- ----- --- ------ ----- --<br>----- ----- ---------- --- --- ------ ------ ---- -- ------<br>------- --- ------ ----- --- ---- ------- -- ---- --- --<br>------- ------,293210.5600000359,293209.87999998033,292439.241,292444.4750000257,292456.211,293222.731,,20,save
screen,html.Screen,2_1_1_1_21,2021-04-30T12:15:51.888Z,,,,,,,,,,,,,,,,,54,,,,,,,,,,,,,,403.04900000209454,,response,,,,100,,,,,,,Space,keypress(Space),,,,,,,,"-- --- ---- --- ------ ----- ------- ---- -- --- ------- --<br>------- ---------- ------ -- ----- -- ----- -- ---- money,<br>--- ----- --- --- ------ -------- ----- --- ------ ----- --<br>----- ----- ---------- --- --- ------ ------ ---- -- ------<br>------- --- ------ ----- --- ---- ------- -- ---- --- --<br>------- ------",293626.4300000621,293625.7800000021,293206.125,293210.71000001393,293222.731,293639.503,,21,"money,"
screen,html.Screen,2_1_1_1_22,2021-04-30T12:15:52.446Z,,,,,,,,,,,,,,,,,54,,,,,,,,,,,,,,544.3770000259392,,response,,,,100,,,,,,,Space,keypress(Space),,,,,,,,-- --- ---- --- ------ ----- ------- ---- -- --- ------- --<br>------- ---------- ------ -- ----- -- ----- -- ---- ------<br>the ----- --- --- ------ -------- ----- --- ------ ----- --<br>----- ----- ---------- --- --- ------ ------ ---- -- ------<br>------- --- ------ ----- --- ---- ------- -- ---- --- --<br>------- ------,294184.4849999761,294183.88000002597,293622.791,293626.569999964,293639.503,294189.044,,22,the
screen,html.Screen,2_1_1_1_23,2021-04-30T12:15:52.855Z,,,,,,,,,,,,,,,,,54,,,,,,,,,,,,,,404.18100007693283,,response,,,,100,,,,,,,Space,keypress(Space),,,,,,,,-- --- ---- --- ------ ----- ------- ---- -- --- ------- --<br>------- ---------- ------ -- ----- -- ----- -- ---- ------<br>--- state --- --- ------ -------- ----- --- ------ ----- --<br>----- ----- ---------- --- --- ------ ------ ---- -- ------<br>------- --- ------ ----- --- ---- ------- -- ---- --- --<br>------- ------,294593.9950000029,294593.2250000769,294172.781,294184.6249999944,294189.044,294605.783,,23,state
screen,html.Screen,2_1_1_1_24,2021-04-30T12:15:53.151Z,,,,,,,,,,,,,,,,,54,,,,,,,,,,,,,,283.00200007559033,,response,,,,100,,,,,,,Space,keypress(Space),,,,,,,,-- --- ---- --- ------ ----- ------- ---- -- --- ------- --<br>------- ---------- ------ -- ----- -- ----- -- ---- ------<br>--- ----- cut --- ------ -------- ----- --- ------ ----- --<br>----- ----- ---------- --- --- ------ ------ ---- -- ------<br>------- --- ------ ----- --- ---- ------- -- ---- --- --<br>------- ------,294889.4250000594,294888.7850000756,294589.178,294594.2750000395,294605.783,294905.681,,24,cut
screen,html.Screen,2_1_1_1_25,2021-04-30T12:15:53.581Z,,,,,,,,,,,,,,,,,54,,,,,,,,,,,,,,412.99399998772424,,response,,,,100,,,,,,,Space,keypress(Space),,,,,,,,-- --- ---- --- ------ ----- ------- ---- -- --- ------- --<br>------- ---------- ------ -- ----- -- ----- -- ---- ------<br>--- ----- --- the ------ -------- ----- --- ------ ----- --<br>----- ----- ---------- --- --- ------ ------ ---- -- ------<br>------- --- ------ ----- --- ---- ------- -- ---- --- --<br>------- ------,295319.3200000096,295318.6749999877,294889.42,294889.5650000777,294905.681,295322.261,,25,the
screen,html.Screen,2_1_1_1_26,2021-04-30T12:15:53.865Z,,,,,,,,,,,,,,,,,54,,,,,,,,,,,,,,281.06400003278395,,response,,,,100,,,,,,,Space,keypress(Space),,,,,,,,-- --- ---- --- ------ ----- ------- ---- -- --- ------- --<br>------- ---------- ------ -- ----- -- ----- -- ---- ------<br>--- ----- --- --- bonds' -------- ----- --- ------ ----- --<br>----- ----- ---------- --- --- ------ ------ ---- -- ------<br>------- --- ------ ----- --- ---- ------- -- ---- --- --<br>------- ------,295604.1350000305,295603.3250000328,295305.739,295319.4600000279,295322.261,295635.366,,26,bonds'
screen,html.Screen,2_1_1_1_27,2021-04-30T12:15:54.417Z,,,,,,,,,,,,,,,,,54,,,,,,,,,,,,,,519.2640000045649,,response,,,,100,,,,,,,Space,keypress(Space),,,,,,,,-- --- ---- --- ------ ----- ------- ---- -- --- ------- --<br>------- ---------- ------ -- ----- -- ----- -- ---- ------<br>--- ----- --- --- ------ interest ----- --- ------ ----- --<br>----- ----- ---------- --- --- ------ ------ ---- -- ------<br>------- --- ------ ----- --- ---- ------- -- ---- --- --<br>------- ------,296155.2849999862,296154.63000000454,295588.955,295604.29499996826,295635.366,296172.498,,27,interest
screen,html.Screen,2_1_1_1_28,2021-04-30T12:15:54.973Z,,,,,,,,,,,,,,,,,54,,,,,,,,,,,,,,538.1070000292966,,response,,,,100,,,,,,,Space,keypress(Space),,,,,,,,-- --- ---- --- ------ ----- ------- ---- -- --- ------- --<br>------- ---------- ------ -- ----- -- ----- -- ---- ------<br>--- ----- --- --- ------ -------- rate. --- ------ ----- --<br>----- ----- ---------- --- --- ------ ------ ---- -- ------<br>------- --- ------ ----- --- ---- ------- -- ---- --- --<br>------- ------,296711.2200000556,296710.6050000293,296155.6,296155.43000004254,296172.498,296722.699,,28,rate.
screen,html.Screen,2_1_1_1_29,2021-04-30T12:15:55.387Z,,,,,,,,,,,,,,,,,54,,,,,,,,,,,,,,401.90099998097867,,response,,,,100,,,,,,,Space,keypress(Space),,,,,,,,-- --- ---- --- ------ ----- ------- ---- -- --- ------- --<br>------- ---------- ------ -- ----- -- ----- -- ---- ------<br>--- ----- --- --- ------ -------- ----- The ------ ----- --<br>----- ----- ---------- --- --- ------ ------ ---- -- ------<br>------- --- ------ ----- --- ---- ------- -- ---- --- --<br>------- ------,297125.2749999985,297124.599999981,296705.976,296711.38500003144,296722.699,297139.342,,29,The
screen,html.Screen,2_1_1_1_30,2021-04-30T12:15:55.734Z,,,,,,,,,,,,,,,,,54,,,,,,,,,,,,,,332.23299997410504,,response,,,,100,,,,,,,Space,keypress(Space),,,,,,,,-- --- ---- --- ------ ----- ------- ---- -- --- ------- --<br>------- ---------- ------ -- ----- -- ----- -- ---- ------<br>--- ----- --- --- ------ -------- ----- --- market ----- --<br>----- ----- ---------- --- --- ------ ------ ---- -- ------<br>------- --- ------ ----- --- ---- ------- -- ---- --- --<br>------- ------,297472.1950000385,297471.5749999741,297122.467,297125.42499997653,297139.342,297489.315,,30,market
screen,html.Screen,2_1_1_1_31,2021-04-30T12:15:56.199Z,,,,,,,,,,,,,,,,,54,,,,,,,,,,,,,,447.5750000117696,,response,,,,100,,,,,,,Space,keypress(Space),,,,,,,,-- --- ---- --- ------ ----- ------- ---- -- --- ------- --<br>------- ---------- ------ -- ----- -- ----- -- ---- ------<br>--- ----- --- --- ------ -------- ----- --- ------ value --<br>----- ----- ---------- --- --- ------ ------ ---- -- ------<br>------- --- ------ ----- --- ---- ------- -- ---- --- --<br>------- ------,297937.5200000359,297936.8900000118,297472.31,297472.3350000568,297489.315,297959.497,,31,value
screen,html.Screen,2_1_1_1_32,2021-04-30T12:15:56.637Z,,,,,,,,,,,,,,,,,54,,,,,,,,,,,,,,415.2530000754632,,response,,,,100,,,,,,,Space,keypress(Space),,,,,,,,-- --- ---- --- ------ ----- ------- ---- -- --- ------- --<br>------- ---------- ------ -- ----- -- ----- -- ---- ------<br>--- ----- --- --- ------ -------- ----- --- ------ ----- of<br>----- ----- ---------- --- --- ------ ------ ---- -- ------<br>------- --- ------ ----- --- ---- ------- -- ---- --- --<br>------- ------,298375.4450000124,298374.75000007544,297922.596,297937.6700000139,297959.497,298389.272,,32,of
screen,html.Screen,2_1_1_1_33,2021-04-30T12:15:57.020Z,,,,,,,,,,,,,,,,,54,,,,,,,,,,,,,,368.6429999655811,,response,,,,100,,,,,,,Space,keypress(Space),,,,,,,,-- --- ---- --- ------ ----- ------- ---- -- --- ------- --<br>------- ---------- ------ -- ----- -- ----- -- ---- ------<br>--- ----- --- --- ------ -------- ----- --- ------ ----- --<br>these ----- ---------- --- --- ------ ------ ---- -- ------<br>------- --- ------ ----- --- ---- ------- -- ---- --- --<br>------- ------,298758.7449999992,298757.9149999656,298372.131,298375.5850000307,298389.272,298772.607,,33,these
screen,html.Screen,2_1_1_1_34,2021-04-30T12:15:57.435Z,,,,,,,,,,,,,,,,,54,,,,,,,,,,,,,,400.3529999962193,,response,,,,100,,,,,,,Space,keypress(Space),,,,,,,,-- --- ---- --- ------ ----- ------- ---- -- --- ------- --<br>------- ---------- ------ -- ----- -- ----- -- ---- ------<br>--- ----- --- --- ------ -------- ----- --- ------ ----- --<br>----- bonds ---------- --- --- ------ ------ ---- -- ------<br>------- --- ------ ----- --- ---- ------- -- ---- --- --<br>------- ------,299173.60500001814,299172.95999999624,298755.897,298758.89000005554,298772.607,299189.253,,34,bonds
screen,html.Screen,2_1_1_1_35,2021-04-30T12:15:58.178Z,,,,,,,,,,,,,,,,,54,,,,,,,,,,,,,,726.456999971997,,response,,,,100,,,,,,,Space,keypress(Space),,,,,,,,"-- --- ---- --- ------ ----- ------- ---- -- --- ------- --<br>------- ---------- ------ -- ----- -- ----- -- ---- ------<br>--- ----- --- --- ------ -------- ----- --- ------ ----- --<br>----- ----- plummeted, --- --- ------ ------ ---- -- ------<br>------- --- ------ ----- --- ---- ------- -- ---- --- --<br>------- ------",299916.435000021,299915.709999972,299172.557,299173.73999999836,299189.253,299922.256,,35,"plummeted,"
screen,html.Screen,2_1_1_1_36,2021-04-30T12:15:58.702Z,,,,,,,,,,,,,,,,,54,,,,,,,,,,,,,,518.1590000773431,,response,,,,100,,,,,,,Space,keypress(Space),,,,,,,,-- --- ---- --- ------ ----- ------- ---- -- --- ------- --<br>------- ---------- ------ -- ----- -- ----- -- ---- ------<br>--- ----- --- --- ------ -------- ----- --- ------ ----- --<br>----- ----- ---------- and --- ------ ------ ---- -- ------<br>------- --- ------ ----- --- ---- ------- -- ---- --- --<br>------- ------,300441.10499997623,300440.41500007734,299905.478,299916.5800000774,299922.256,300455.784,,36,and
screen,html.Screen,2_1_1_1_37,2021-04-30T12:15:59.039Z,,,,,,,,,,,,,,,,,54,,,,,,,,,,,,,,321.7560000391677,,response,,,,100,,,,,,,Space,keypress(Space),,,,,,,,-- --- ---- --- ------ ----- ------- ---- -- --- ------- --<br>------- ---------- ------ -- ----- -- ----- -- ---- ------<br>--- ----- --- --- ------ -------- ----- --- ------ ----- --<br>----- ----- ---------- --- the ------ ------ ---- -- ------<br>------- --- ------ ----- --- ---- ------- -- ---- --- --<br>------- ------,300778.12500006985,300777.54000003915,300439.147,300441.2500000326,300455.784,300788.815,,37,the
screen,html.Screen,2_1_1_1_38,2021-04-30T12:15:59.507Z,,,,,,,,,,,,,,,,,54,,,,,,,,,,,,,,455.96500006638234,,response,,,,100,,,,,,,Space,keypress(Space),,,,,,,,-- --- ---- --- ------ ----- ------- ---- -- --- ------- --<br>------- ---------- ------ -- ----- -- ----- -- ---- ------<br>--- ----- --- --- ------ -------- ----- --- ------ ----- --<br>----- ----- ---------- --- --- market ------ ---- -- ------<br>------- --- ------ ----- --- ---- ------- -- ---- --- --<br>------- ------,301245.43000000995,301244.7800000664,300772.151,300778.2649999717,300788.815,301255.51,,38,market
screen,html.Screen,2_1_1_1_39,2021-04-30T12:16:00.030Z,,,,,,,,,,,,,,,,,54,,,,,,,,,,,,,,512.5200000356417,,response,,,,100,,,,,,,Space,keypress(Space),,,,,,,,-- --- ---- --- ------ ----- ------- ---- -- --- ------- --<br>------- ---------- ------ -- ----- -- ----- -- ---- ------<br>--- ----- --- --- ------ -------- ----- --- ------ ----- --<br>----- ----- ---------- --- --- ------ became ---- -- ------<br>------- --- ------ ----- --- ---- ------- -- ---- --- --<br>------- ------,301768.73500004876,301768.03000003565,301238.863,301245.57000002824,301255.51,301771.997,,39,became
screen,html.Screen,2_1_1_1_40,2021-04-30T12:16:00.505Z,,,,,,,,,,,,,,,,,54,,,,,,,,,,,,,,470.59800007613376,,response,,,,100,,,,,,,Space,keypress(Space),,,,,,,,-- --- ---- --- ------ ----- ------- ---- -- --- ------- --<br>------- ---------- ------ -- ----- -- ----- -- ---- ------<br>--- ----- --- --- ------ -------- ----- --- ------ ----- --<br>----- ----- ---------- --- --- ------ ------ wary -- ------<br>------- --- ------ ----- --- ---- ------- -- ---- --- --<br>------- ------,302243.32500004675,302242.5950000761,301755.649,301768.92000006046,301771.997,302255.416,,40,wary
screen,html.Screen,2_1_1_1_41,2021-04-30T12:16:00.876Z,,,,,,,,,,,,,,,,,54,,,,,,,,,,,,,,358.45400000101654,,response,,,,100,,,,,,,Space,keypress(Space),,,,,,,,-- --- ---- --- ------ ----- ------- ---- -- --- ------- --<br>------- ---------- ------ -- ----- -- ----- -- ---- ------<br>--- ----- --- --- ------ -------- ----- --- ------ ----- --<br>----- ----- ---------- --- --- ------ ------ ---- of ------<br>------- --- ------ ----- --- ---- ------- -- ---- --- --<br>------- ------,302614.5650000544,302613.87000000104,302239.071,302243.4699999867,302255.416,302622.18,,41,of
screen,html.Screen,2_1_1_1_42,2021-04-30T12:16:01.148Z,,,,,,,,,,,,,,,,,54,,,,,,,,,,,,,,263.2650000217254,,response,,,,100,,,,,,,Space,keypress(Space),,,,,,,,-- --- ---- --- ------ ----- ------- ---- -- --- ------- --<br>------- ---------- ------ -- ----- -- ----- -- ---- ------<br>--- ----- --- --- ------ -------- ----- --- ------ ----- --<br>----- ----- ---------- --- --- ------ ------ ---- -- French<br>------- --- ------ ----- --- ---- ------- -- ---- --- --<br>------- ------,302886.2600000575,302885.4450000217,302605.438,302614.80500001926,302622.18,302888.592,,42,French
screen,html.Screen,2_1_1_1_43,2021-04-30T12:16:01.647Z,,,,,,,,,,,,,,,,,54,,,,,,,,,,,,,,496.3980000495794,,response,,,,100,,,,,,,Space,keypress(Space),,,,,,,,-- --- ---- --- ------ ----- ------- ---- -- --- ------- --<br>------- ---------- ------ -- ----- -- ----- -- ---- ------<br>--- ----- --- --- ------ -------- ----- --- ------ ----- --<br>----- ----- ---------- --- --- ------ ------ ---- -- ------<br>credit. --- ------ ----- --- ---- ------- -- ---- --- --<br>------- ------,303385.59499999974,303384.9900000496,302872.382,302886.4000000758,302888.592,303388.568,,43,credit.
screen,html.Screen,2_1_1_1_44,2021-04-30T12:16:02.163Z,,,,,,,,,,,,,,,,,54,,,,,,,,,,,,,,512.5220000575646,,response,,,,100,,,,,,,Space,keypress(Space),,,,,,,,-- --- ---- --- ------ ----- ------- ---- -- --- ------- --<br>------- ---------- ------ -- ----- -- ----- -- ---- ------<br>--- ----- --- --- ------ -------- ----- --- ------ ----- --<br>----- ----- ---------- --- --- ------ ------ ---- -- ------<br>------- The ------ ----- --- ---- ------- -- ---- --- --<br>------- ------,303901.88000001945,303901.0900000576,303371.88,303385.73500001803,303388.568,303905.239,,44,The
screen,html.Screen,2_1_1_1_45,2021-04-30T12:16:02.416Z,,,,,,,,,,,,,,,,,54,,,,,,,,,,,,,,249.09100004850188,,response,,,,100,,,,,,,Space,keypress(Space),,,,,,,,-- --- ---- --- ------ ----- ------- ---- -- --- ------- --<br>------- ---------- ------ -- ----- -- ----- -- ---- ------<br>--- ----- --- --- ------ -------- ----- --- ------ ----- --<br>----- ----- ---------- --- --- ------ ------ ---- -- ------<br>------- --- French ----- --- ---- ------- -- ---- --- --<br>------- ------,304155.14000004623,304154.3300000485,303888.986,303902.0250000758,303905.239,304172.36,,45,French
screen,html.Screen,2_1_1_1_46,2021-04-30T12:16:02.815Z,,,,,,,,,,,,,,,,,54,,,,,,,,,,,,,,380.19999998190906,,response,,,,100,,,,,,,Space,keypress(Space),,,,,,,,-- --- ---- --- ------ ----- ------- ---- -- --- ------- --<br>------- ---------- ------ -- ----- -- ----- -- ---- ------<br>--- ----- --- --- ------ -------- ----- --- ------ ----- --<br>----- ----- ---------- --- --- ------ ------ ---- -- ------<br>------- --- ------ state --- ---- ------- -- ---- --- --<br>------- ------,304553.19500004407,304552.5599999819,304155.658,304155.2849999862,304172.36,304555.218,,46,state
screen,html.Screen,2_1_1_1_47,2021-04-30T12:16:03.171Z,,,,,,,,,,,,,,,,,54,,,,,,,,,,,,,,353.94700007734355,,response,,,,100,,,,,,,Space,keypress(Space),,,,,,,,-- --- ---- --- ------ ----- ------- ---- -- --- ------- --<br>------- ---------- ------ -- ----- -- ----- -- ---- ------<br>--- ----- --- --- ------ -------- ----- --- ------ ----- --<br>----- ----- ---------- --- --- ------ ------ ---- -- ------<br>------- --- ------ ----- was ---- ------- -- ---- --- --<br>------- ------,304909.9550000392,304909.16500007734,304538.932,304553.33500006236,304555.218,304921.989,,47,was
screen,html.Screen,2_1_1_1_48,2021-04-30T12:16:03.463Z,,,,,,,,,,,,,,,,,54,,,,,,,,,,,,,,279.03600007487694,,response,,,,100,,,,,,,Space,keypress(Space),,,,,,,,-- --- ---- --- ------ ----- ------- ---- -- --- ------- --<br>------- ---------- ------ -- ----- -- ----- -- ---- ------<br>--- ----- --- --- ------ -------- ----- --- ------ ----- --<br>----- ----- ---------- --- --- ------ ------ ---- -- ------<br>------- --- ------ ----- --- left ------- -- ---- --- --<br>------- ------,305201.75000000745,305201.0250000749,304905.217,304910.1050000172,304921.989,305205.145,,48,left
screen,html.Screen,2_1_1_1_49,2021-04-30T12:16:03.741Z,,,,,,,,,,,,,,,,,54,,,,,,,,,,,,,,274.20500003779307,,response,,,,100,,,,,,,Space,keypress(Space),,,,,,,,-- --- ---- --- ------ ----- ------- ---- -- --- ------- --<br>------- ---------- ------ -- ----- -- ----- -- ---- ------<br>--- ----- --- --- ------ -------- ----- --- ------ ----- --<br>----- ----- ---------- --- --- ------ ------ ---- -- ------<br>------- --- ------ ----- --- ---- without -- ---- --- --<br>------- ------,305479.99000002164,305479.3500000378,305188.691,305201.8999999855,305205.145,305488.721,,49,without
screen,html.Screen,2_1_1_1_50,2021-04-30T12:16:04.073Z,,,,,,,,,,,,,,,,,54,,,,,,,,,,,,,,322.1089999730466,,response,,,,100,,,,,,,Space,keypress(Space),,,,,,,,-- --- ---- --- ------ ----- ------- ---- -- --- ------- --<br>------- ---------- ------ -- ----- -- ----- -- ---- ------<br>--- ----- --- --- ------ -------- ----- --- ------ ----- --<br>----- ----- ---------- --- --- ------ ------ ---- -- ------<br>------- --- ------ ----- --- ---- ------- an ---- --- --<br>------- ------,305811.4850000711,305810.82999997307,305471.986,305480.135000078,305488.721,305821.922,,50,an
screen,html.Screen,2_1_1_1_51,2021-04-30T12:16:04.369Z,,,,,,,,,,,,,,,,,54,,,,,,,,,,,,,,285.247999973828,,response,,,,100,,,,,,,Space,keypress(Space),,,,,,,,-- --- ---- --- ------ ----- ------- ---- -- --- ------- --<br>------- ---------- ------ -- ----- -- ----- -- ---- ------<br>--- ----- --- --- ------ -------- ----- --- ------ ----- --<br>----- ----- ---------- --- --- ------ ------ ---- -- ------<br>------- --- ------ ----- --- ---- ------- -- easy --- --<br>------- ------,306107.7900000382,306107.16999997385,305805.583,305811.66000000667,305821.922,306122.27,,51,easy
screen,html.Screen,2_1_1_1_52,2021-04-30T12:16:04.651Z,,,,,,,,,,,,,,,,,54,,,,,,,,,,,,,,266.910000056494,,response,,,,100,,,,,,,Space,keypress(Space),,,,,,,,-- --- ---- --- ------ ----- ------- ---- -- --- ------- --<br>------- ---------- ------ -- ----- -- ----- -- ---- ------<br>--- ----- --- --- ------ -------- ----- --- ------ ----- --<br>----- ----- ---------- --- --- ------ ------ ---- -- ------<br>------- --- ------ ----- --- ---- ------- -- ---- way --<br>------- ------,306389.7949999664,306389.1800000565,306105.41,306107.94000001624,306122.27,306405.608,,52,way
screen,html.Screen,2_1_1_1_53,2021-04-30T12:16:05.053Z,,,,,,,,,,,,,,,,,54,,,,,,,,,,,,,,385.7619999917224,,response,,,,100,,,,,,,Space,keypress(Space),,,,,,,,-- --- ---- --- ------ ----- ------- ---- -- --- ------- --<br>------- ---------- ------ -- ----- -- ----- -- ---- ------<br>--- ----- --- --- ------ -------- ----- --- ------ ----- --<br>----- ----- ---------- --- --- ------ ------ ---- -- ------<br>------- --- ------ ----- --- ---- ------- -- ---- --- of<br>------- ------,306792.1900000656,306791.36999999173,306388.573,306389.9349999847,306405.608,306805.241,,53,of
screen,html.Screen,2_1_1_1_54,2021-04-30T12:16:05.388Z,,,,,,,,,,,,,,,,,54,,,,,,,,,,,,,,320.9639999786741,,response,,,,100,,,,,,,Space,keypress(Space),,,,,,,,-- --- ---- --- ------ ----- ------- ---- -- --- ------- --<br>------- ---------- ------ -- ----- -- ----- -- ---- ------<br>--- ----- --- --- ------ -------- ----- --- ------ ----- --<br>----- ----- ---------- --- --- ------ ------ ---- -- ------<br>------- --- ------ ----- --- ---- ------- -- ---- --- --<br>raising ------,307126.8299999647,307126.20499997865,306788.649,306792.3400000436,306805.241,307138.77,,54,raising
screen,html.Screen,2_1_1_1_55,2021-04-30T12:16:06.086Z,,,,,,,,,,,,,,,,,54,,,,,,,,,,,,,,685.3299999688752,,response,,,,100,,,,,,,Space,keypress(Space),,,,,,,,-- --- ---- --- ------ ----- ------- ---- -- --- ------- --<br>------- ---------- ------ -- ----- -- ----- -- ---- ------<br>--- ----- --- --- ------ -------- ----- --- ------ ----- --<br>----- ----- ---------- --- --- ------ ------ ---- -- ------<br>------- --- ------ ----- --- ---- ------- -- ---- --- --<br>------- money.,307824.804999982,307824.0999999689,307122.184,307126.9650000613,307138.77,307838.824,,55,money.
Item 100,flow.Loop,2_1_1_1,2021-04-30T12:16:06.086Z,,,,,,,,,,,,,,,,,,,,,,,,,,,,,,,25951.105999968888,,completion,,,,,D,,,,,,,,,,,silence,,,,,307825.0400000252,307824.0999999689,281856.679,281857.6050000265,281872.994,307838.824,,,
Question 1,html.Screen,2_1_1_2,2021-04-30T12:16:09.502Z,,,,,,,,,,,,,,,,,,,,,,,,,,,,true,TRUE,,3400.601000036113,,response,,,,100,D,,,,,,TRUE,click #choice-1,,,,silence,,,,,311240.31500006095,311239.42500003614,307822.134,307825.15000004787,307838.824,311255.344,,,
Question 2,html.Screen,2_1_1_3,2021-04-30T12:16:13.443Z,,,,,,,,,,,,,,,,,,,,,,,,,,,,true,FALSE,,3925.28100003727,,response,,,,100,D,,,,,,FALSE,click #choice-2,,,,silence,,,,,315181.4800000284,315180.62500003725,311238.453,311240.4249999672,311255.344,315188.132,,,
Item 100,flow.Sequence,2_1_1,2021-04-30T12:16:13.443Z,,,,,,,,,,,,,,,,,,,,,,,,,,,,,,,43307.27000003727,,completion,,,,,,,,,,,,,,,,,,,,,315181.7499999888,315180.62500003725,271856.722,271874.0049999906,271873.355,315188.132,,,
End of Practice,html.Page,2_1_2,2021-04-30T12:16:20.033Z,,,,,,,,,,,,,,,,,,,,,,,,,,,,,,,6583.392999989213,,form submission,,,,,,,,,,,,,,,,,,,,,321771.9199999701,321771.5249999892,315171.834,315181.8950000452,315188.132,321788.143,,,
Practice,flow.Sequence,2_1,2021-04-30T12:16:20.033Z,,,,,,,,,,,,,,,,,,,,,,,,,,,,,,,105612.32799998921,,completion,,,,,,,,,,,,,,,,,,,,,321772.1550000133,321771.5249999892,216142.994,216156.73499996774,216159.197,321788.143,,,
Trap_instruction,html.Page,2_2_0,2021-04-30T12:16:29.260Z,,,,,,,,,,,,,,,,,,,,,,,,,,,,,,,9210.33700006752,,form submission,,,,,,,,,,,,,,,,,,,,,330998.9249999635,330998.4800000675,321754.863,321772.27000007406,321788.143,331004.287,,,
trap_trial,html.Screen,2_2_1,2021-04-30T12:16:32.261Z,,,,,,,,,,,,,,,,,,,,,,,,,,,,true,1,,2993.9130000309087,,response,,,,,,,,,,,1,click #choice-1,,,,,,,,,333999.14500000887,333998.2000000309,330987.774,330999.0750000579,331004.287,334003.834,,,
end of trap trial,html.Page,2_2_2,2021-04-30T12:16:34.606Z,,,,,,,,,,,,,,,,,,,,,,,,,,,,,,,2340.6609999684733,,form submission,,,,,,,,,,,,,,,,,,,,,336344.81999999844,336344.49499996845,333987.207,333999.33500005864,334003.834,336354.074,,,
Trap 1,flow.Sequence,2_2,2021-04-30T12:16:34.607Z,,,,,,,,,,,,,,,,,,,,,,,,,,,,,,,14556.351999968465,,completion,,,,,,,,,,,,,,,,,,,,,336344.99999997206,336344.49499996845,321754.863,321772.2350000404,321788.143,336354.074,,,
Standby,html.Page,2_3_0,2021-04-30T12:16:42.607Z,,,,,,,,,,,,,,,,,,,,,,,,,,,,,,,7999.32699999999,,timeout,,,,,,,,,,,,,,,,,,,,,344345.48000001814,344336.744,336337.247,336345.1650000643,336354.074,344353.401,,,
Holding screen,html.Screen,2_3_1_0_0,2021-04-30T12:16:49.599Z,,,,,,,,,,,,,,,,,,,,,,,,,,,,,,,7000.146000000008,,timeout,,,,,,,,,,,,,,,,,,,,,351337.6550000394,351336.874,344336.744,344345.7649999764,344353.401,351353.547,,,
screen,html.Screen,2_3_1_0_1_0,2021-04-30T12:16:51.310Z,,,,,,,,,,,,,,,,,51,,,,,,,,,,,,,,1693.6029999984894,,response,,,,13,D,,,,,,Space,keypress(Space),,,,silence,,,,American -------- --- --- ---- --- --- ------ -- --------<br>---- --------- --- ------- ------------ ---------- ---------<br>--- ---------- ------- ---------- ------- -- -------- ----<br>---- --- ------ ----- ------ -- ---- --- ----- -- - -------<br>-------- -- --- --- -- ----- ----------- ----- -----------<br>---- --- ---------- --- ---- --- -- ----------,353047.9950000299,353047.1499999985,351336.874,351337.8950000042,351353.547,353052.972,,0,American
screen,html.Screen,2_3_1_0_1_1,2021-04-30T12:16:52.068Z,,,,,,,,,,,,,,,,,51,,,,,,,,,,,,,,753.0980000496493,,response,,,,13,D,,,,,,Space,keypress(Space),,,,silence,,,,-------- industry --- --- ---- --- --- ------ -- --------<br>---- --------- --- ------- ------------ ---------- ---------<br>--- ---------- ------- ---------- ------- -- -------- ----<br>---- --- ------ ----- ------ -- ---- --- ----- -- - -------<br>-------- -- --- --- -- ----- ----------- ----- -----------<br>---- --- ---------- --- ---- --- -- ----------,353806.71500007156,353806.07000004966,353036.7,353048.15499996766,353052.972,353820.106,,1,industry
screen,html.Screen,2_3_1_0_1_2,2021-04-30T12:16:52.675Z,,,,,,,,,,,,,,,,,51,,,,,,,,,,,,,,592.7139999686042,,response,,,,13,D,,,,,,Space,keypress(Space),,,,silence,,,,-------- -------- may --- ---- --- --- ------ -- --------<br>---- --------- --- ------- ------------ ---------- ---------<br>--- ---------- ------- ---------- ------- -- -------- ----<br>---- --- ------ ----- ------ -- ---- --- ----- -- - -------<br>-------- -- --- --- -- ----- ----------- ----- -----------<br>---- --- ---------- --- ---- --- -- ----------,354413.4750000667,354412.81999996863,353802.971,353806.8500000518,353820.106,354419.821,,2,may
screen,html.Screen,2_3_1_0_1_3,2021-04-30T12:16:53.104Z,,,,,,,,,,,,,,,,,51,,,,,,,,,,,,,,421.8090000390075,,response,,,,13,D,,,,,,Space,keypress(Space),,,,silence,,,,-------- -------- --- not ---- --- --- ------ -- --------<br>---- --------- --- ------- ------------ ---------- ---------<br>--- ---------- ------- ---------- ------- -- -------- ----<br>---- --- ------ ----- ------ -- ---- --- ----- -- - -------<br>-------- -- --- --- -- ----- ----------- ----- -----------<br>---- --- ---------- --- ---- --- -- ----------,354842.34500001185,354841.630000039,354403.373,354413.61499996856,354419.821,354853.399,,3,not
screen,html.Screen,2_3_1_0_1_4,2021-04-30T12:16:54.379Z,,,,,,,,,,,,,,,,,51,,,,,,,,,,,,,,1263.1710000711028,,response,,,,13,D,,,,,,Space,keypress(Space),,,,silence,,,,-------- -------- --- --- know --- --- ------ -- --------<br>---- --------- --- ------- ------------ ---------- ---------<br>--- ---------- ------- ---------- ------- -- -------- ----<br>---- --- ------ ----- ------ -- ---- --- ----- -- - -------<br>-------- -- --- --- -- ----- ----------- ----- -----------<br>---- --- ---------- --- ---- --- -- ----------,356117.3500000732,356116.5700000711,354836.449,354842.49499998987,354853.399,356119.506,,4,know
screen,html.Screen,2_3_1_0_1_5,2021-04-30T12:16:54.763Z,,,,,,,,,,,,,,,,,51,,,,,,,,,,,,,,381.47400001162896,,response,,,,13,D,,,,,,Space,keypress(Space),,,,silence,,,,"-------- -------- --- --- ---- it, --- ------ -- --------<br>---- --------- --- ------- ------------ ---------- ---------<br>--- ---------- ------- ---------- ------- -- -------- ----<br>---- --- ------ ----- ------ -- ---- --- ----- -- - -------<br>-------- -- --- --- -- ----- ----------- ----- -----------<br>---- --- ---------- --- ---- --- -- ----------",356501.750000054,356500.9800000116,356102.8,356117.49500001315,356119.506,356523.372,,5,"it,"
screen,html.Screen,2_3_1_0_1_6,2021-04-30T12:16:55.603Z,,,,,,,,,,,,,,,,,51,,,,,,,,,,,,,,817.2630000296049,,response,,,,13,D,,,,,,Space,keypress(Space),,,,silence,,,,-------- -------- --- --- ---- --- but ------ -- --------<br>---- --------- --- ------- ------------ ---------- ---------<br>--- ---------- ------- ---------- ------- -- -------- ----<br>---- --- ------ ----- ------ -- ---- --- ----- -- - -------<br>-------- -- --- --- -- ----- ----------- ----- -----------<br>---- --- ---------- --- ---- --- -- ----------,357341.2800000515,357340.6350000296,356486.596,356501.8900000723,356523.372,357352.94,,6,but
screen,html.Screen,2_3_1_0_1_7,2021-04-30T12:16:56.044Z,,,,,,,,,,,,,,,,,51,,,,,,,,,,,,,,429.3599999625585,,response,,,,13,D,,,,,,Space,keypress(Space),,,,silence,,,,-------- -------- --- --- ---- --- --- debate -- --------<br>---- --------- --- ------- ------------ ---------- ---------<br>--- ---------- ------- ---------- ------- -- -------- ----<br>---- --- ------ ----- ------ -- ---- --- ----- -- - -------<br>-------- -- --- --- -- ----- ----------- ----- -----------<br>---- --- ---------- --- ---- --- -- ----------,357782.93500002474,357782.29999996256,357336.24,357341.48499998264,357352.94,357786.105,,7,debate
screen,html.Screen,2_3_1_0_1_8,2021-04-30T12:16:56.429Z,,,,,,,,,,,,,,,,,51,,,,,,,,,,,,,,380.15499996906146,,response,,,,13,D,,,,,,Space,keypress(Space),,,,silence,,,,-------- -------- --- --- ---- --- --- ------ in --------<br>---- --------- --- ------- ------------ ---------- ---------<br>--- ---------- ------- ---------- ------- -- -------- ----<br>---- --- ------ ----- ------ -- ---- --- ----- -- - -------<br>-------- -- --- --- -- ----- ----------- ----- -----------<br>---- --- ---------- --- ---- --- -- ----------,358167.235000059,358166.25999996904,357769.89,357783.07000000495,357786.105,358169.442,,8,in
screen,html.Screen,2_3_1_0_1_9,2021-04-30T12:16:56.947Z,,,,,,,,,,,,,,,,,51,,,,,,,,,,,,,,515.5830000134301,,response,,,,13,D,,,,,,Space,keypress(Space),,,,silence,,,,-------- -------- --- --- ---- --- --- ------ -- Congress<br>---- --------- --- ------- ------------ ---------- ---------<br>--- ---------- ------- ---------- ------- -- -------- ----<br>---- --- ------ ----- ------ -- ---- --- ----- -- - -------<br>-------- -- --- --- -- ----- ----------- ----- -----------<br>---- --- ---------- --- ---- --- -- ----------,358685.8700000448,358685.0250000134,358153.098,358167.37999999896,358169.442,358703.225,,9,Congress
screen,html.Screen,2_3_1_0_1_10,2021-04-30T12:16:57.296Z,,,,,,,,,,,,,,,,,51,,,,,,,,,,,,,,330.21500002837274,,response,,,,13,D,,,,,,Space,keypress(Space),,,,silence,,,,-------- -------- --- --- ---- --- --- ------ -- --------<br>over --------- --- ------- ------------ ---------- ---------<br>--- ---------- ------- ---------- ------- -- -------- ----<br>---- --- ------ ----- ------ -- ---- --- ----- -- - -------<br>-------- -- --- --- -- ----- ----------- ----- -----------<br>---- --- ---------- --- ---- --- -- ----------,359034.16000003926,359033.44000002835,358686.324,358686.0100000631,358703.225,359036.048,,10,over
screen,html.Screen,2_3_1_0_1_11,2021-04-30T12:16:57.576Z,,,,,,,,,,,,,,,,,51,,,,,,,,,,,,,,278.16199998225784,,response,,,,13,D,,,,,,Space,keypress(Space),,,,silence,,,,-------- -------- --- --- ---- --- --- ------ -- --------<br>---- reforming --- ------- ------------ ---------- ---------<br>--- ---------- ------- ---------- ------- -- -------- ----<br>---- --- ------ ----- ------ -- ---- --- ----- -- - -------<br>-------- -- --- --- -- ----- ----------- ----- -----------<br>---- --- ---------- --- ---- --- -- ----------,359314.84500004444,359314.20999998227,359019.637,359034.31500005536,359036.048,359319.351,,11,reforming
screen,html.Screen,2_3_1_0_1_12,2021-04-30T12:16:58.077Z,,,,,,,,,,,,,,,,,51,,,,,,,,,,,,,,495.5789999931585,,response,,,,13,D,,,,,,Space,keypress(Space),,,,silence,,,,-------- -------- --- --- ---- --- --- ------ -- --------<br>---- --------- the ------- ------------ ---------- ---------<br>--- ---------- ------- ---------- ------- -- -------- ----<br>---- --- ------ ----- ------ -- ---- --- ----- -- - -------<br>-------- -- --- --- -- ----- ----------- ----- -----------<br>---- --- ---------- --- ---- --- -- ----------,359815.6350000063,359814.9299999932,359302.834,359314.98500006273,359319.351,359819.369,,12,the
screen,html.Screen,2_3_1_0_1_13,2021-04-30T12:16:58.380Z,,,,,,,,,,,,,,,,,51,,,,,,,,,,,,,,298.2560000717058,,response,,,,13,D,,,,,,Space,keypress(Space),,,,silence,,,,-------- -------- --- --- ---- --- --- ------ -- --------<br>---- --------- --- federal ------------ ---------- ---------<br>--- ---------- ------- ---------- ------- -- -------- ----<br>---- --- ------ ----- ------ -- ---- --- ----- -- - -------<br>-------- -- --- --- -- ----- ----------- ----- -----------<br>---- --- ---------- --- ---- --- -- ----------,360118.35500004236,360117.6250000717,359803.072,359815.7750000246,359819.369,360141.3,,13,federal
screen,html.Screen,2_3_1_0_1_14,2021-04-30T12:16:58.959Z,,,,,,,,,,,,,,,,,51,,,,,,,,,,,,,,555.4200000072015,,response,,,,13,D,,,,,,Space,keypress(Space),,,,silence,,,,-------- -------- --- --- ---- --- --- ------ -- --------<br>---- --------- --- ------- government's ---------- ---------<br>--- ---------- ------- ---------- ------- -- -------- ----<br>---- --- ------ ----- ------ -- ---- --- ----- -- - -------<br>-------- -- --- --- -- ----- ----------- ----- -----------<br>---- --- ---------- --- ---- --- -- ----------,360697.4550000159,360696.7200000072,360103.105,360118.4999999823,360141.3,360702.726,,14,government's
screen,html.Screen,2_3_1_0_1_15,2021-04-30T12:16:59.376Z,,,,,,,,,,,,,,,,,51,,,,,,,,,,,,,,410.979000025196,,response,,,,13,D,,,,,,Space,keypress(Space),,,,silence,,,,-------- -------- --- --- ---- --- --- ------ -- --------<br>---- --------- --- ------- ------------ regulatory ---------<br>--- ---------- ------- ---------- ------- -- -------- ----<br>---- --- ------ ----- ------ -- ---- --- ----- -- - -------<br>-------- -- --- --- -- ----- ----------- ----- -----------<br>---- --- ---------- --- ---- --- -- ----------,361114.3849999644,361113.7050000252,360686.401,360697.5950000342,360702.726,361119.497,,15,regulatory
screen,html.Screen,2_3_1_0_1_16,2021-04-30T12:17:00.308Z,,,,,,,,,,,,,,,,,51,,,,,,,,,,,,,,926.6930000227876,,response,,,,13,D,,,,,,Space,keypress(Space),,,,silence,,,,-------- -------- --- --- ---- --- --- ------ -- --------<br>---- --------- --- ------- ------------ ---------- apparatus<br>--- ---------- ------- ---------- ------- -- -------- ----<br>---- --- ------ ----- ------ -- ---- --- ----- -- - -------<br>-------- -- --- --- -- ----- ----------- ----- -----------<br>---- --- ---------- --- ---- --- -- ----------,362046.88500007614,362046.19000002276,361102.993,361114.5249999827,361119.497,362052.614,,16,apparatus
screen,html.Screen,2_3_1_0_1_17,2021-04-30T12:17:00.942Z,,,,,,,,,,,,,,,,,51,,,,,,,,,,,,,,627.5810000226484,,response,,,,13,D,,,,,,Space,keypress(Space),,,,silence,,,,-------- -------- --- --- ---- --- --- ------ -- --------<br>---- --------- --- ------- ------------ ---------- ---------<br>may ---------- ------- ---------- ------- -- -------- ----<br>---- --- ------ ----- ------ -- ---- --- ----- -- - -------<br>-------- -- --- --- -- ----- ----------- ----- -----------<br>---- --- ---------- --- ---- --- -- ----------,362680.87000004016,362680.19500002265,362035.996,362047.03500005417,362052.614,362685.925,,17,may
screen,html.Screen,2_3_1_0_1_18,2021-04-30T12:17:01.538Z,,,,,,,,,,,,,,,,,51,,,,,,,,,,,,,,589.4600000444916,,response,,,,13,D,,,,,,Space,keypress(Space),,,,silence,,,,-------- -------- --- --- ---- --- --- ------ -- --------<br>---- --------- --- ------- ------------ ---------- ---------<br>--- profoundly ------- ---------- ------- -- -------- ----<br>---- --- ------ ----- ------ -- ---- --- ----- -- - -------<br>-------- -- --- --- -- ----- ----------- ----- -----------<br>---- --- ---------- --- ---- --- -- ----------,363276.0550000239,363275.3850000445,362669.645,362681.01000005845,362685.925,363285.863,,18,profoundly
screen,html.Screen,2_3_1_0_1_19,2021-04-30T12:17:02.017Z,,,,,,,,,,,,,,,,,51,,,,,,,,,,,,,,468.71200002811383,,response,,,,13,D,,,,,,Space,keypress(Space),,,,silence,,,,-------- -------- --- --- ---- --- --- ------ -- --------<br>---- --------- --- ------- ------------ ---------- ---------<br>--- ---------- improve ---------- ------- -- -------- ----<br>---- --- ------ ----- ------ -- ---- --- ----- -- - -------<br>-------- -- --- --- -- ----- ----------- ----- -----------<br>---- --- ---------- --- ---- --- -- ----------,363755.1900000544,363754.5750000281,363269.307,363276.2150000781,363285.863,363769.285,,19,improve
screen,html.Screen,2_3_1_0_1_20,2021-04-30T12:17:02.346Z,,,,,,,,,,,,,,,,,51,,,,,,,,,,,,,,314.4000000778469,,response,,,,13,D,,,,,,Space,keypress(Space),,,,silence,,,,-------- -------- --- --- ---- --- --- ------ -- --------<br>---- --------- --- ------- ------------ ---------- ---------<br>--- ---------- ------- companies' ------- -- -------- ----<br>---- --- ------ ----- ------ -- ---- --- ----- -- - -------<br>-------- -- --- --- -- ----- ----------- ----- -----------<br>---- --- ---------- --- ---- --- -- ----------,364084.3449999811,364083.6850000778,363752.936,363755.3349999944,363769.285,364103.191,,20,companies'
screen,html.Screen,2_3_1_0_1_21,2021-04-30T12:17:02.926Z,,,,,,,,,,,,,,,,,51,,,,,,,,,,,,,,560.9690000439296,,response,,,,13,D,,,,,,Space,keypress(Space),,,,silence,,,,-------- -------- --- --- ---- --- --- ------ -- --------<br>---- --------- --- ------- ------------ ---------- ---------<br>--- ---------- ------- ---------- ability -- -------- ----<br>---- --- ------ ----- ------ -- ---- --- ----- -- - -------<br>-------- -- --- --- -- ----- ----------- ----- -----------<br>---- --- ---------- --- ---- --- -- ----------,364664.9149999721,364664.1600000439,364069.393,364084.4849999994,364103.191,364669.128,,21,ability
screen,html.Screen,2_3_1_0_1_22,2021-04-30T12:17:03.253Z,,,,,,,,,,,,,,,,,51,,,,,,,,,,,,,,321.247000052128,,response,,,,13,D,,,,,,Space,keypress(Space),,,,silence,,,,-------- -------- --- --- ---- --- --- ------ -- --------<br>---- --------- --- ------- ------------ ---------- ---------<br>--- ---------- ------- ---------- ------- to -------- ----<br>---- --- ------ ----- ------ -- ---- --- ----- -- - -------<br>-------- -- --- --- -- ----- ----------- ----- -----------<br>---- --- ---------- --- ---- --- -- ----------,364991.0099999979,364990.37500005215,364652.472,364665.06500006653,364669.128,365002.533,,22,to
screen,html.Screen,2_3_1_0_1_23,2021-04-30T12:17:03.476Z,,,,,,,,,,,,,,,,,51,,,,,,,,,,,,,,211.42699996457668,,response,,,,13,D,,,,,,Space,keypress(Space),,,,silence,,,,-------- -------- --- --- ---- --- --- ------ -- --------<br>---- --------- --- ------- ------------ ---------- ---------<br>--- ---------- ------- ---------- ------- -- survive. ----<br>---- --- ------ ----- ------ -- ---- --- ----- -- - -------<br>-------- -- --- --- -- ----- ----------- ----- -----------<br>---- --- ---------- --- ---- --- -- ----------,365214.73000000697,365213.9599999646,364986.204,364991.1500000162,365002.533,365219.117,,23,survive.
screen,html.Screen,2_3_1_0_1_24,2021-04-30T12:17:04.063Z,,,,,,,,,,,,,,,,,51,,,,,,,,,,,,,,582.2080000076094,,response,,,,13,D,,,,,,Space,keypress(Space),,,,silence,,,,-------- -------- --- --- ---- --- --- ------ -- --------<br>---- --------- --- ------- ------------ ---------- ---------<br>--- ---------- ------- ---------- ------- -- -------- This<br>---- --- ------ ----- ------ -- ---- --- ----- -- - -------<br>-------- -- --- --- -- ----- ----------- ----- -----------<br>---- --- ---------- --- ---- --- -- ----------,365801.95500003174,365801.32500000764,365202.897,365214.89000006113,365219.117,365819.167,,24,This
screen,html.Screen,2_3_1_0_1_25,2021-04-30T12:17:04.454Z,,,,,,,,,,,,,,,,,51,,,,,,,,,,,,,,372.13300006405916,,response,,,,13,D,,,,,,Space,keypress(Space),,,,silence,,,,-------- -------- --- --- ---- --- --- ------ -- --------<br>---- --------- --- ------- ------------ ---------- ---------<br>--- ---------- ------- ---------- ------- -- -------- ----<br>week --- ------ ----- ------ -- ---- --- ----- -- - -------<br>-------- -- --- --- -- ----- ----------- ----- -----------<br>---- --- ---------- --- ---- --- -- ----------,366192.0350000728,366191.3000000641,365786.19,365802.0999999717,365819.167,366202.889,,25,week
screen,html.Screen,2_3_1_0_1_26,2021-04-30T12:17:04.828Z,,,,,,,,,,,,,,,,,51,,,,,,,,,,,,,,362.5909999901778,,response,,,,13,D,,,,,,Space,keypress(Space),,,,silence,,,,-------- -------- --- --- ---- --- --- ------ -- --------<br>---- --------- --- ------- ------------ ---------- ---------<br>--- ---------- ------- ---------- ------- -- -------- ----<br>---- the ------ ----- ------ -- ---- --- ----- -- - -------<br>-------- -- --- --- -- ----- ----------- ----- -----------<br>---- --- ---------- --- ---- --- -- ----------,366566.27000006847,366565.4799999902,366185.851,366192.18000001274,366202.889,366569.061,,26,the
screen,html.Screen,2_3_1_0_1_27,2021-04-30T12:17:05.142Z,,,,,,,,,,,,,,,,,51,,,,,,,,,,,,,,310.29399998276494,,response,,,,13,D,,,,,,Space,keypress(Space),,,,silence,,,,-------- -------- --- --- ---- --- --- ------ -- --------<br>---- --------- --- ------- ------------ ---------- ---------<br>--- ---------- ------- ---------- ------- -- -------- ----<br>---- --- Senate ----- ------ -- ---- --- ----- -- - -------<br>-------- -- --- --- -- ----- ----------- ----- -----------<br>---- --- ---------- --- ---- --- -- ----------,366880.145000061,366879.35499998275,366552.543,366566.42499996815,366569.061,366885.771,,27,Senate
screen,html.Screen,2_3_1_0_1_28,2021-04-30T12:17:05.495Z,,,,,,,,,,,,,,,,,51,,,,,,,,,,,,,,346.7539999994333,,response,,,,13,D,,,,,,Space,keypress(Space),,,,silence,,,,-------- -------- --- --- ---- --- --- ------ -- --------<br>---- --------- --- ------- ------------ ---------- ---------<br>--- ---------- ------- ---------- ------- -- -------- ----<br>---- --- ------ seems ------ -- ---- --- ----- -- - -------<br>-------- -- --- --- -- ----- ----------- ----- -----------<br>---- --- ---------- --- ---- --- -- ----------,367233.1499999855,367232.52499999944,366869.457,366880.29000000097,366885.771,367235.708,,28,seems
screen,html.Screen,2_3_1_0_1_29,2021-04-30T12:17:05.860Z,,,,,,,,,,,,,,,,,51,,,,,,,,,,,,,,362.24700000474695,,response,,,,13,D,,,,,,Space,keypress(Space),,,,silence,,,,-------- -------- --- --- ---- --- --- ------ -- --------<br>---- --------- --- ------- ------------ ---------- ---------<br>--- ---------- ------- ---------- ------- -- -------- ----<br>---- --- ------ ----- poised -- ---- --- ----- -- - -------<br>-------- -- --- --- -- ----- ----------- ----- -----------<br>---- --- ---------- --- ---- --- -- ----------,367598.7599999644,367597.95500000473,367219.476,367233.29500004184,367235.708,367602.363,,29,poised
screen,html.Screen,2_3_1_0_1_30,2021-04-30T12:17:06.518Z,,,,,,,,,,,,,,,,,51,,,,,,,,,,,,,,653.5020000719232,,response,,,,13,D,,,,,,Space,keypress(Space),,,,silence,,,,-------- -------- --- --- ---- --- --- ------ -- --------<br>---- --------- --- ------- ------------ ---------- ---------<br>--- ---------- ------- ---------- ------- -- -------- ----<br>---- --- ------ ----- ------ to ---- --- ----- -- - -------<br>-------- -- --- --- -- ----- ----------- ----- -----------<br>---- --- ---------- --- ---- --- -- ----------,368256.5950000426,368255.86500007194,367585.978,367598.8999999827,367602.363,368269.144,,30,to
screen,html.Screen,2_3_1_0_1_31,2021-04-30T12:17:07.021Z,,,,,,,,,,,,,,,,,51,,,,,,,,,,,,,,489.7110000218963,,response,,,,13,D,,,,,,Space,keypress(Space),,,,silence,,,,-------- -------- --- --- ---- --- --- ------ -- --------<br>---- --------- --- ------- ------------ ---------- ---------<br>--- ---------- ------- ---------- ------- -- -------- ----<br>---- --- ------ ----- ------ -- join --- ----- -- - -------<br>-------- -- --- --- -- ----- ----------- ----- -----------<br>---- --- ---------- --- ---- --- -- ----------,368759.50499996543,368758.85500002187,368252.723,368256.7500000587,368269.144,368769.419,,31,join
screen,html.Screen,2_3_1_0_1_32,2021-04-30T12:17:07.422Z,,,,,,,,,,,,,,,,,51,,,,,,,,,,,,,,390.7760000040289,,response,,,,13,D,,,,,,Space,keypress(Space),,,,silence,,,,-------- -------- --- --- ---- --- --- ------ -- --------<br>---- --------- --- ------- ------------ ---------- ---------<br>--- ---------- ------- ---------- ------- -- -------- ----<br>---- --- ------ ----- ------ -- ---- the ----- -- - -------<br>-------- -- --- --- -- ----- ----------- ----- -----------<br>---- --- ---------- --- ---- --- -- ----------,369160.9650000464,369160.195000004,368752.712,368759.64000006206,368769.419,369169.111,,32,the
screen,html.Screen,2_3_1_0_1_33,2021-04-30T12:17:07.719Z,,,,,,,,,,,,,,,,,51,,,,,,,,,,,,,,287.5640000231215,,response,,,,13,D,,,,,,Space,keypress(Space),,,,silence,,,,-------- -------- --- --- ---- --- --- ------ -- --------<br>---- --------- --- ------- ------------ ---------- ---------<br>--- ---------- ------- ---------- ------- -- -------- ----<br>---- --- ------ ----- ------ -- ---- --- House -- - -------<br>-------- -- --- --- -- ----- ----------- ----- -----------<br>---- --- ---------- --- ---- --- -- ----------,369457.3850000743,369456.6750000231,369152.646,369161.1200000625,369169.111,369469.105,,33,House
screen,html.Screen,2_3_1_0_1_34,2021-04-30T12:17:08.197Z,,,,,,,,,,,,,,,,,51,,,,,,,,,,,,,,465.7400000398047,,response,,,,13,D,,,,,,Space,keypress(Space),,,,silence,,,,-------- -------- --- --- ---- --- --- ------ -- --------<br>---- --------- --- ------- ------------ ---------- ---------<br>--- ---------- ------- ---------- ------- -- -------- ----<br>---- --- ------ ----- ------ -- ---- --- ----- in - -------<br>-------- -- --- --- -- ----- ----------- ----- -----------<br>---- --- ---------- --- ---- --- -- ----------,369935.49499998335,369934.8450000398,369452.705,369457.52499997616,369469.105,369952.707,,34,in
screen,html.Screen,2_3_1_0_1_35,2021-04-30T12:17:08.492Z,,,,,,,,,,,,,,,,,51,,,,,,,,,,,,,,276.87300004292047,,response,,,,13,D,,,,,,Space,keypress(Space),,,,silence,,,,-------- -------- --- --- ---- --- --- ------ -- --------<br>---- --------- --- ------- ------------ ---------- ---------<br>--- ---------- ------- ---------- ------- -- -------- ----<br>---- --- ------ ----- ------ -- ---- --- ----- -- a -------<br>-------- -- --- --- -- ----- ----------- ----- -----------<br>---- --- ---------- --- ---- --- -- ----------,370230.285000056,370229.5800000429,369935.816,369935.63500000164,369952.707,370235.728,,35,a
screen,html.Screen,2_3_1_0_1_36,2021-04-30T12:17:08.965Z,,,,,,,,,,,,,,,,,51,,,,,,,,,,,,,,467.462000029278,,response,,,,13,D,,,,,,Space,keypress(Space),,,,silence,,,,-------- -------- --- --- ---- --- --- ------ -- --------<br>---- --------- --- ------- ------------ ---------- ---------<br>--- ---------- ------- ---------- ------- -- -------- ----<br>---- --- ------ ----- ------ -- ---- --- ----- -- - massive<br>-------- -- --- --- -- ----- ----------- ----- -----------<br>---- --- ---------- --- ---- --- -- ----------,370703.8450000109,370703.1900000293,370219.016,370230.43500003405,370235.728,370719.352,,36,massive
screen,html.Screen,2_3_1_0_1_37,2021-04-30T12:17:09.261Z,,,,,,,,,,,,,,,,,51,,,,,,,,,,,,,,278.9880000491976,,response,,,,13,D,,,,,,Space,keypress(Space),,,,silence,,,,-------- -------- --- --- ---- --- --- ------ -- --------<br>---- --------- --- ------- ------------ ---------- ---------<br>--- ---------- ------- ---------- ------- -- -------- ----<br>---- --- ------ ----- ------ -- ---- --- ----- -- - -------<br>overhaul -- --- --- -- ----- ----------- ----- -----------<br>---- --- ---------- --- ---- --- -- ----------,370999.04000002425,370998.3400000492,370702.268,370703.97999999113,370719.352,371002.174,,37,overhaul
