sender,sender_type,sender_id,timestamp,meta,,Blues,Classical,Country,Dance,Electronic,Folk,Gospel,Hip-Hop,Jazz,Latin,Musical/Film,New-age,Pop,Prolific_id,Provo_ID,R&B,Rap,Reggae,Religious,Rock,Soul,Swing,Traditional,age,artist_name,correct,correctResponse,distraction,duration,education,ended_on,familiarity,gender,headphone_check_performance,item,list,music_frequency,offensiveness,pleasantness,position_correct,preference,response,response_action,snippet_file,song_name,song_rating,sound,stimulus_1,stimulus_2,stimulus_3,text,time_commit,time_end,time_render,time_run,time_show,time_switch,url,word,word_ID
Prolific ID,html.Form,0,2021-04-26T18:47:41.481Z,"{""labjs_version"":""20.2.2"",""labjs_build"":{""flavor"":""production"",""commit"":""a25486e0c714a0ae2ce03ff94b7bb6896854dcfa""},""location"":""https://run.pavlovia.org/mvasilev/prolific_music_d/"",""userAgent"":""Mozilla/5.0 (Windows NT 10.0; Win64; x64) AppleWebKit/537.36 (KHTML, like Gecko) Chrome/90.0.4430.85 Safari/537.36 "",""platform"":""Win32"",""language"":""en-US"",""locale"":""en-US"",""timeZone"":""Europe/London"",""timezoneOffset"":-60,""screen_width"":1920,""screen_height"":1080,""scroll_width"":1920,""scroll_height"":893,""window_innerWidth"":1920,""window_innerHeight"":941,""devicePixelRatio"":1}",,,,,,,,,,,,,,,60070418cbf817133cb398bc,,,,,,,,,,,,,,,14562.58599999584,,form submission,,,,,,,,,,,,,,,,,,,,,29255.404999996244,29254.84499999584,14658.367,14663.534999999683,14692.259,29259.008,{},,
Introduction,html.Screen,1_0,2021-04-26T18:49:05.046Z,,,,,,,,,,,,,,,,,,,,,,,,,,,,,,,83558.97699999422,,response,,,,,,,,,,,continue,click button,,,,,,,,,112820.3399999984,112817.98499999422,29242.536,29255.859999997483,29259.008,112826.293,,,
Volume calibration,html.Screen,1_1,2021-04-26T18:49:38.168Z,,,,,,,,,,,,,,,,,,,,,,,,,,,,,,,33112.641999998305,,response,,,,,,,,,,,continue,click button,,,,,,,,,145942.1499999953,145938.9349999983,112809.637,112820.50499999605,112826.293,145943.156,,,
Task instructions,html.Screen,1_2,2021-04-26T18:49:50.093Z,,,,,,,,,,,,,,,,,,,,,,,,,,,,,,,11922.693999994692,,response,,,,,,,,,,,continue,click button,,,,,,,,,157866.75499999546,157865.84999999468,145926.579,145942.30499999685,145943.156,157876.578,,,
Sounds,html.Screen,1_3_0_0,2021-04-26T18:49:54.342Z,,,,,,,,,,,,,,,,,,,,,,,,,,,,,,,4250.206000000006,,timeout,,,,,,,,,2,,,,,,,,I,S,O,,162116.48499999865,162110.049,157859.97,157867.05499999516,157876.578,162126.784,,,
Judgement,html.Screen,1_3_0_1,2021-04-26T18:49:56.917Z,,,,,,,,,,,,,,,,,,,,,,,,,,,,true,2,,2563.220999996731,,response,,,,,,,,,2,,2,click #choice-2,,,,,I,S,O,,164691.19999999384,164690.00499999675,162110.049,162116.9149999987,162126.784,164693.345,,,
Trial,flow.Sequence,1_3_0,2021-04-26T18:49:56.918Z,,,,,,,,,,,,,,,,,,,,,,,,,,,,,,,6813.426999996736,,completion,,,,,,,,,2,,,,,,,,I,S,O,,164691.5399999998,164690.00499999675,157859.97,157866.98999999498,157876.578,164693.345,,,
Sounds,html.Screen,1_3_1_0,2021-04-26T18:50:01.154Z,,,,,,,,,,,,,,,,,,,,,,,,,,,,,,,4250.078000000009,,timeout,,,,,,,,,3,,,,,,,,I,O,S,,168927.9349999997,168926.751,164676.834,164691.70999999915,164693.345,168943.423,,,
Judgement,html.Screen,1_3_1_1,2021-04-26T18:50:02.381Z,,,,,,,,,,,,,,,,,,,,,,,,,,,,true,3,,1210.5769999949844,,response,,,,,,,,,3,,3,click #choice-3,,,,,I,O,S,,170155.07499999512,170153.999999995,168926.751,168928.2699999967,168943.423,170159.993,,,
Trial,flow.Sequence,1_3_1,2021-04-26T18:50:02.381Z,,,,,,,,,,,,,,,,,,,,,,,,,,,,,,,5460.654999994993,,completion,,,,,,,,,3,,,,,,,,I,O,S,,170155.3700000004,170153.999999995,164676.834,164691.6499999934,164693.345,170159.993,,,
Sounds,html.Screen,1_3_2_0,2021-04-26T18:50:06.622Z,,,,,,,,,,,,,,,,,,,,,,,,,,,,,,,4250.045000000013,,timeout,,,,,,,,,1,,,,,,,,S,I,O,,174395.73999999993,174393.468,170143.519,170155.52499999467,170159.993,174410.038,,,
Judgement,html.Screen,1_3_2_1,2021-04-26T18:50:07.757Z,,,,,,,,,,,,,,,,,,,,,,,,,,,,true,1,,1119.8669999957783,,response,,,,,,,,,1,,1,click #choice-1,,,,,S,I,O,,175531.12999999576,175529.90499999578,174393.468,174396.1399999971,174410.038,175543.434,,,
Trial,flow.Sequence,1_3_2,2021-04-26T18:50:07.757Z,,,,,,,,,,,,,,,,,,,,,,,,,,,,,,,5369.911999995791,,completion,,,,,,,,,1,,,,,,,,S,I,O,,175531.35999999358,175529.90499999578,170143.519,170155.46999999788,170159.993,175543.434,,,
Sounds,html.Screen,1_3_3_0,2021-04-26T18:50:12.004Z,,,,,,,,,,,,,,,,,,,,,,,,,,,,,,,4250.242999999988,,timeout,,,,,,,,,2,,,,,,,,O,S,I,,179778.0949999942,179776.934,175526.773,175531.50999999343,175543.434,179793.677,,,
Judgement,html.Screen,1_3_3_1,2021-04-26T18:50:12.525Z,,,,,,,,,,,,,,,,,,,,,,,,,,,,true,2,,504.21799999606446,,response,,,,,,,,,2,,2,click #choice-2,,,,,O,S,I,,180298.86999999871,180297.89499999606,179776.934,179778.3999999956,179793.677,180326.733,,,
Trial,flow.Sequence,1_3_3,2021-04-26T18:50:12.525Z,,,,,,,,,,,,,,,,,,,,,,,,,,,,,,,4754.460999996052,,completion,,,,,,,,,2,,,,,,,,O,S,I,,180299.09000000043,180297.89499999606,175526.773,175531.44999999495,175543.434,180326.733,,,
Sounds,html.Screen,1_3_4_0,2021-04-26T18:50:16.788Z,,,,,,,,,,,,,,,,,,,,,,,,,,,,,,,4250.184999999998,,timeout,,,,,,,,,1,,,,,,,,S,O,I,,184562.09499999386,184560.327,180310.209,180299.2249999952,180326.733,184576.918,,,
Judgement,html.Screen,1_3_4_1,2021-04-26T18:50:17.405Z,,,,,,,,,,,,,,,,,,,,,,,,,,,,true,1,,600.751999997301,,response,,,,,,,,,1,,1,click #choice-1,,,,,S,O,I,,185178.8349999988,185177.6699999973,184560.327,184562.42499999644,184576.918,185193.685,,,
Trial,flow.Sequence,1_3_4,2021-04-26T18:50:17.405Z,,,,,,,,,,,,,,,,,,,,,,,,,,,,,,,4850.936999997299,,completion,,,,,,,,,1,,,,,,,,S,O,I,,185179.05499999324,185177.6699999973,180310.209,180299.1849999962,180326.733,185193.685,,,
Sounds,html.Screen,1_3_5_0,2021-04-26T18:50:21.654Z,,,,,,,,,,,,,,,,,,,,,,,,,,,,,,,4249.970000000001,,timeout,,,,,,,,,3,,,,,,,,O,I,S,,189427.73499999748,189426.985,185176.938,185179.19499999698,185193.685,189443.655,,,
Judgement,html.Screen,1_3_5_1,2021-04-26T18:50:22.341Z,,,,,,,,,,,,,,,,,,,,,,,,,,,,true,3,,669.9499999986438,,response,,,,,,,,,3,,3,click #choice-3,,,,,O,I,S,,190114.67999999877,190113.60499999864,189426.985,189427.9349999997,189443.655,190126.839,,,
Trial,flow.Sequence,1_3_5,2021-04-26T18:50:22.341Z,,,,,,,,,,,,,,,,,,,,,,,,,,,,,,,4919.919999998645,,completion,,,,,,,,,3,,,,,,,,O,I,S,,190114.96999999508,190113.60499999864,185176.938,185179.1499999963,185193.685,190126.839,,,
Task,flow.Loop,1_3,2021-04-26T18:50:22.345Z,,,,,,,,,,,,,,,,,,,,,,,,,,,,,,,32237.026999998634,,completion,,,1,,,,,,,,,,,,,,,,,,190118.83499999385,190113.60499999864,157859.97,157866.9249999948,157876.578,190126.839,,,
Trap,html.Screen,1_4,2021-04-26T18:50:22.346Z,,,,,,,,,,,,,,,,,,,,,,,,,,,,,,,NaN,,skipped,,,,,,,,,,,,,,,,,,,,,190119.96499999805,190113.60499999864,,190119.83999999939,,190126.839,,,
Thanks,html.Screen,1_5,2021-04-26T18:50:27.140Z,,,,,,,,,,,,,,,,,,,,,,,,,,,,,,,4786.79599999715,,response,,,,,,,,,,,continue,click button,,,,,,,,,194914.59999999643,194913.63499999716,190110.298,190120.0699999972,190126.839,201610.258,,,
Headphone screening,flow.Sequence,1,2021-04-26T18:50:27.141Z,,,,,,,,,,,,,,,,,,,,,,,,,,,,,,,165654.62699999716,,completion,,,,,,,,,,,,,,,,,,,,,194914.81499999645,194913.63499999716,29242.536,29255.80999999511,29259.008,201610.258,,,
Instructions,html.Page,2_0,2021-04-26T18:51:08.973Z,,,,,,,,,,,,,,,,,,,,,,,,,,,,,,,35136.282000000094,,form submission,,,,,,,,,,,,,,,,,,,,,236746.92999999388,236746.5400000001,201593.58,201583.61499999592,201610.258,236760.495,,,
Holding screen,html.Screen,2_1_0_0,2021-04-26T18:51:18.971Z,,,,,,,,,,,,,,,,,,,,,,,,,,,,,,,10050.276000000013,,timeout,,,,,,,,,,,,,,,,,,,,,246745.1449999935,246744.119,236744.018,236748.13999999606,236760.495,246810.771,,,
screen,html.Screen,2_1_0_1_0,2021-04-26T18:51:20.303Z,,,,,,,,,,,,,,,,,53,,,,,,,,,,,,,,1260.4389999945997,,response,,,,99,,,,,,,Space,keypress(Space),,,,,,,,When -- ----- -- ------ - ------- --- ----------<br>------------- ------ ------ ---- ---- ------- ----- -- ----<br>-------- ------- -- ---------- --- - --- ----- ----- ----<br>---- --- --- ----- --- ---- ---- ------- ----- ---- -------<br>--- --- -- ----- -- --- ---- -- --- ---- -- ------ ------<br>--- ----- -- ----,248077.13499999954,248071.2099999946,246744.119,246745.7299999951,246810.771,248094.112,,0,When
screen,html.Screen,2_1_0_1_1,2021-04-26T18:51:21.026Z,,,,,,,,,,,,,,,,,53,,,,,,,,,,,,,,704.3929999988468,,response,,,,99,,,,,,,Space,keypress(Space),,,,,,,,---- it ----- -- ------ - ------- --- ----------<br>------------- ------ ------ ---- ---- ------- ----- -- ----<br>-------- ------- -- ---------- --- - --- ----- ----- ----<br>---- --- --- ----- --- ---- ---- ------- ----- ---- -------<br>--- --- -- ----- -- --- ---- -- --- ---- -- ------ ------<br>--- ----- -- ----,248800.1049999948,248798.50499999884,248077.337,248077.53499999671,248094.112,248810.865,,1,it
screen,html.Screen,2_1_0_1_2,2021-04-26T18:51:21.834Z,,,,,,,,,,,,,,,,,53,,,,,,,,,,,,,,795.6799999951036,,response,,,,99,,,,,,,Space,keypress(Space),,,,,,,,---- -- comes -- ------ - ------- --- ----------<br>------------- ------ ------ ---- ---- ------- ----- -- ----<br>-------- ------- -- ---------- --- - --- ----- ----- ----<br>---- --- --- ----- --- ---- ---- ------- ----- ---- -------<br>--- --- -- ----- -- --- ---- -- --- ---- -- ------ ------<br>--- ----- -- ----,249608.229999998,249606.5449999951,248794.088,248800.4449999935,248810.865,249610.678,,2,comes
screen,html.Screen,2_1_0_1_3,2021-04-26T18:51:22.553Z,,,,,,,,,,,,,,,,,53,,,,,,,,,,,,,,715.7719999931869,,response,,,,99,,,,,,,Space,keypress(Space),,,,,,,,---- -- ----- to ------ - ------- --- ----------<br>------------- ------ ------ ---- ---- ------- ----- -- ----<br>-------- ------- -- ---------- --- - --- ----- ----- ----<br>---- --- --- ----- --- ---- ---- ------- ----- ---- -------<br>--- --- -- ----- -- --- ---- -- --- ---- -- ------ ------<br>--- ----- -- ----,250327.72999999725,250326.4499999932,249594.079,249608.5349999994,249610.678,250344.098,,3,to
screen,html.Screen,2_1_0_1_4,2021-04-26T18:51:23.258Z,,,,,,,,,,,,,,,,,53,,,,,,,,,,,,,,686.4169999985606,,response,,,,99,,,,,,,Space,keypress(Space),,,,,,,,---- -- ----- -- having - ------- --- ----------<br>------------- ------ ------ ---- ---- ------- ----- -- ----<br>-------- ------- -- ---------- --- - --- ----- ----- ----<br>---- --- --- ----- --- ---- ---- ------- ----- ---- -------<br>--- --- -- ----- -- --- ---- -- --- ---- -- ------ ------<br>--- ----- -- ----,251032.05999999773,251030.51499999856,250327.376,250328.04499999475,250344.098,251043.973,,4,having
screen,html.Screen,2_1_0_1_5,2021-04-26T18:51:23.689Z,,,,,,,,,,,,,,,,,53,,,,,,,,,,,,,,418.4019999955199,,response,,,,99,,,,,,,Space,keypress(Space),,,,,,,,---- -- ----- -- ------ a ------- --- ----------<br>------------- ------ ------ ---- ---- ------- ----- -- ----<br>-------- ------- -- ---------- --- - --- ----- ----- ----<br>---- --- --- ----- --- ---- ---- ------- ----- ---- -------<br>--- --- -- ----- -- --- ---- -- --- ---- -- ------ ------<br>--- ----- -- ----,251463.38499999547,251462.37499999552,251027.434,251032.36999999353,251043.973,251477.457,,5,a
screen,html.Screen,2_1_0_1_6,2021-04-26T18:51:24.954Z,,,,,,,,,,,,,,,,,53,,,,,,,,,,,,,,1249.1179999933229,,response,,,,99,,,,,,,Space,keypress(Space),,,,,,,,---- -- ----- -- ------ - lasting --- ----------<br>------------- ------ ------ ---- ---- ------- ----- -- ----<br>-------- ------- -- ---------- --- - --- ----- ----- ----<br>---- --- --- ----- --- ---- ---- ------- ----- ---- -------<br>--- --- -- ----- -- --- ---- -- --- ---- -- ------ ------<br>--- ----- -- ----,252728.25999999623,252726.57499999332,251460.776,251463.70999999635,251477.457,252744.118,,6,lasting
screen,html.Screen,2_1_0_1_7,2021-04-26T18:51:25.762Z,,,,,,,,,,,,,,,,,53,,,,,,,,,,,,,,790.4469999944849,,response,,,,99,,,,,,,Space,keypress(Space),,,,,,,,---- -- ----- -- ------ - ------- and ----------<br>------------- ------ ------ ---- ---- ------- ----- -- ----<br>-------- ------- -- ---------- --- - --- ----- ----- ----<br>---- --- --- ----- --- ---- ---- ------- ----- ---- -------<br>--- --- -- ----- -- --- ---- -- --- ---- -- ------ ------<br>--- ----- -- ----,253536.21500000008,253534.56499999447,252727.399,252728.55999999592,252744.118,253544.144,,7,and
screen,html.Screen,2_1_0_1_8,2021-04-26T18:51:26.594Z,,,,,,,,,,,,,,,,,53,,,,,,,,,,,,,,822.4310000000114,,response,,,,99,,,,,,,Space,keypress(Space),,,,,,,,---- -- ----- -- ------ - ------- --- fulfilling<br>------------- ------ ------ ---- ---- ------- ----- -- ----<br>-------- ------- -- ---------- --- - --- ----- ----- ----<br>---- --- --- ----- --- ---- ---- ------- ----- ---- -------<br>--- --- -- ----- -- --- ---- -- --- ---- -- ------ ------<br>--- ----- -- ----,254368.33999999362,254366.575,253527.548,253536.5099999981,253544.144,254377.63,,8,fulfilling
screen,html.Screen,2_1_0_1_9,2021-04-26T18:51:28.177Z,,,,,,,,,,,,,,,,,53,,,,,,,,,,,,,,1572.7949999954435,,response,,,,99,,,,,,,Space,keypress(Space),,,,,,,,"---- -- ----- -- ------ - ------- --- ----------<br>relationship, ------ ------ ---- ---- ------- ----- -- ----<br>-------- ------- -- ---------- --- - --- ----- ----- ----<br>---- --- --- ----- --- ---- ---- ------- ----- ---- -------<br>--- --- -- ----- -- --- ---- -- --- ---- -- ------ ------<br>--- ----- -- ----",255951.49499999388,255950.42499999545,254360.673,254368.6649999945,254377.63,255960.723,,9,"relationship,"
screen,html.Screen,2_1_0_1_10,2021-04-26T18:51:28.905Z,,,,,,,,,,,,,,,,,53,,,,,,,,,,,,,,717.5519999983953,,response,,,,99,,,,,,,Space,keypress(Space),,,,,,,,---- -- ----- -- ------ - ------- --- ----------<br>------------- common ------ ---- ---- ------- ----- -- ----<br>-------- ------- -- ---------- --- - --- ----- ----- ----<br>---- --- --- ----- --- ---- ---- ------- ----- ---- -------<br>--- --- -- ----- -- --- ---- -- --- ---- -- ------ ------<br>--- ----- -- ----,256679.449999996,256678.2749999984,255944.031,255951.79999999527,255960.723,256694.226,,10,common
screen,html.Screen,2_1_0_1_11,2021-04-26T18:51:29.898Z,,,,,,,,,,,,,,,,,53,,,,,,,,,,,,,,976.313999999169,,response,,,,99,,,,,,,Space,keypress(Space),,,,,,,,---- -- ----- -- ------ - ------- --- ----------<br>------------- ------ wisdom ---- ---- ------- ----- -- ----<br>-------- ------- -- ---------- --- - --- ----- ----- ----<br>---- --- --- ----- --- ---- ---- ------- ----- ---- -------<br>--- --- -- ----- -- --- ---- -- --- ---- -- ------ ------<br>--- ----- -- ----,257672.34499999904,257670.53999999916,256677.466,256679.75499999739,256694.226,257677.348,,11,wisdom
screen,html.Screen,2_1_0_1_12,2021-04-26T18:51:30.546Z,,,,,,,,,,,,,,,,,53,,,,,,,,,,,,,,641.7569999950356,,response,,,,99,,,,,,,Space,keypress(Space),,,,,,,,---- -- ----- -- ------ - ------- --- ----------<br>------------- ------ ------ says ---- ------- ----- -- ----<br>-------- ------- -- ---------- --- - --- ----- ----- ----<br>---- --- --- ----- --- ---- ---- ------- ----- ---- -------<br>--- --- -- ----- -- --- ---- -- --- ---- -- ------ ------<br>--- ----- -- ----,258320.3599999979,258319.10499999503,257660.737,257672.66499999823,257677.348,258327.413,,12,says
screen,html.Screen,2_1_0_1_13,2021-04-26T18:51:31.210Z,,,,,,,,,,,,,,,,,53,,,,,,,,,,,,,,655.0720000004512,,response,,,,99,,,,,,,Space,keypress(Space),,,,,,,,---- -- ----- -- ------ - ------- --- ----------<br>------------- ------ ------ ---- that ------- ----- -- ----<br>-------- ------- -- ---------- --- - --- ----- ----- ----<br>---- --- --- ----- --- ---- ---- ------- ----- ---- -------<br>--- --- -- ----- -- --- ---- -- --- ---- -- ------ ------<br>--- ----- -- ----,258984.1099999976,258982.48500000045,258310.772,258320.73999999557,258327.413,258994.02,,13,that
screen,html.Screen,2_1_0_1_14,2021-04-26T18:51:31.809Z,,,,,,,,,,,,,,,,,53,,,,,,,,,,,,,,588.464999999007,,response,,,,99,,,,,,,Space,keypress(Space),,,,,,,,---- -- ----- -- ------ - ------- --- ----------<br>------------- ------ ------ ---- ---- feeling ----- -- ----<br>-------- ------- -- ---------- --- - --- ----- ----- ----<br>---- --- --- ----- --- ---- ---- ------- ----- ---- -------<br>--- --- -- ----- -- --- ---- -- --- ---- -- ------ ------<br>--- ----- -- ----,259583.6549999949,259582.484999999,258977.435,258984.4199999934,258994.02,259594.072,,14,feeling
screen,html.Screen,2_1_0_1_15,2021-04-26T18:51:32.305Z,,,,,,,,,,,,,,,,,53,,,,,,,,,,,,,,484.17799999867566,,response,,,,99,,,,,,,Space,keypress(Space),,,,,,,,---- -- ----- -- ------ - ------- --- ----------<br>------------- ------ ------ ---- ---- ------- close -- ----<br>-------- ------- -- ---------- --- - --- ----- ----- ----<br>---- --- --- ----- --- ---- ---- ------- ----- ---- -------<br>--- --- -- ----- -- --- ---- -- --- ---- -- ------ ------<br>--- ----- -- ----,260079.34999999998,260078.24999999866,259577.452,259583.96999999968,259594.072,260094.065,,15,close
screen,html.Screen,2_1_0_1_16,2021-04-26T18:51:32.713Z,,,,,,,,,,,,,,,,,53,,,,,,,,,,,,,,392.3749999933061,,response,,,,99,,,,,,,Space,keypress(Space),,,,,,,,---- -- ----- -- ------ - ------- --- ----------<br>------------- ------ ------ ---- ---- ------- ----- to ----<br>-------- ------- -- ---------- --- - --- ----- ----- ----<br>---- --- --- ----- --- ---- ---- ------- ----- ---- -------<br>--- --- -- ----- -- --- ---- -- --- ---- -- ------ ------<br>--- ----- -- ----,260487.70999999397,260486.4399999933,260077.485,260079.65999999578,260094.065,260494.043,,16,to
screen,html.Screen,2_1_0_1_17,2021-04-26T18:51:33.146Z,,,,,,,,,,,,,,,,,53,,,,,,,,,,,,,,424.3469999989029,,response,,,,99,,,,,,,Space,keypress(Space),,,,,,,,---- -- ----- -- ------ - ------- --- ----------<br>------------- ------ ------ ---- ---- ------- ----- -- your<br>-------- ------- -- ---------- --- - --- ----- ----- ----<br>---- --- --- ----- --- ---- ---- ------- ----- ---- -------<br>--- --- -- ----- -- --- ---- -- --- ---- -- ------ ------<br>--- ----- -- ----,260920.4899999968,260918.3899999989,260477.398,260488.01999999705,260494.043,260927.554,,17,your
screen,html.Screen,2_1_0_1_18,2021-04-26T18:51:33.697Z,,,,,,,,,,,,,,,,,53,,,,,,,,,,,,,,542.7609999986598,,response,,,,99,,,,,,,Space,keypress(Space),,,,,,,,---- -- ----- -- ------ - ------- --- ----------<br>------------- ------ ------ ---- ---- ------- ----- -- ----<br>romantic ------- -- ---------- --- - --- ----- ----- ----<br>---- --- --- ----- --- ---- ---- ------- ----- ---- -------<br>--- --- -- ----- -- --- ---- -- --- ---- -- ------ ------<br>--- ----- -- ----,261471.57999999763,261470.31499999866,260910.746,260920.84499999328,260927.554,261477.424,,18,romantic
screen,html.Screen,2_1_0_1_19,2021-04-26T18:51:34.153Z,,,,,,,,,,,,,,,,,53,,,,,,,,,,,,,,448.89099999697646,,response,,,,99,,,,,,,Space,keypress(Space),,,,,,,,---- -- ----- -- ------ - ------- --- ----------<br>------------- ------ ------ ---- ---- ------- ----- -- ----<br>-------- partner -- ---------- --- - --- ----- ----- ----<br>---- --- --- ----- --- ---- ---- ------- ----- ---- -------<br>--- --- -- ----- -- --- ---- -- --- ---- -- ------ ------<br>--- ----- -- ----,261927.43999999948,261926.31499999698,261460.732,261471.91999999632,261477.424,261944.201,,19,partner
screen,html.Screen,2_1_0_1_20,2021-04-26T18:51:34.690Z,,,,,,,,,,,,,,,,,53,,,,,,,,,,,,,,518.4689999935217,,response,,,,99,,,,,,,Space,keypress(Space),,,,,,,,---- -- ----- -- ------ - ------- --- ----------<br>------------- ------ ------ ---- ---- ------- ----- -- ----<br>-------- ------- is ---------- --- - --- ----- ----- ----<br>---- --- --- ----- --- ---- ---- ------- ----- ---- -------<br>--- --- -- ----- -- --- ---- -- --- ---- -- ------ ------<br>--- ----- -- ----,262464.87499999785,262462.6699999935,261927.53,261927.74999999529,261944.201,262477.419,,20,is
screen,html.Screen,2_1_0_1_21,2021-04-26T18:51:35.873Z,,,,,,,,,,,,,,,,,53,,,,,,,,,,,,,,1168.9909999939264,,response,,,,99,,,,,,,Space,keypress(Space),,,,,,,,---- -- ----- -- ------ - ------- --- ----------<br>------------- ------ ------ ---- ---- ------- ----- -- ----<br>-------- ------- -- paramount. --- - --- ----- ----- ----<br>---- --- --- ----- --- ---- ---- ------- ----- ---- -------<br>--- --- -- ----- -- --- ---- -- --- ---- -- ------ ------<br>--- ----- -- ----,263647.5799999971,263646.4099999939,262460.735,262465.18499999365,262477.419,263660.877,,21,paramount.
screen,html.Screen,2_1_0_1_22,2021-04-26T18:51:37.425Z,,,,,,,,,,,,,,,,,53,,,,,,,,,,,,,,1537.4130000002915,,response,,,,99,,,,,,,Space,keypress(Space),,,,,,,,---- -- ----- -- ------ - ------- --- ----------<br>------------- ------ ------ ---- ---- ------- ----- -- ----<br>-------- ------- -- ---------- But - --- ----- ----- ----<br>---- --- --- ----- --- ---- ---- ------- ----- ---- -------<br>--- --- -- ----- -- --- ---- -- --- ---- -- ------ ------<br>--- ----- -- ----,265199.4399999967,265198.29000000027,263644.12,263647.8799999968,263660.877,265210.831,,22,But
screen,html.Screen,2_1_0_1_23,2021-04-26T18:51:37.920Z,,,,,,,,,,,,,,,,,53,,,,,,,,,,,,,,483.21399999654386,,response,,,,99,,,,,,,Space,keypress(Space),,,,,,,,---- -- ----- -- ------ - ------- --- ----------<br>------------- ------ ------ ---- ---- ------- ----- -- ----<br>-------- ------- -- ---------- --- a --- ----- ----- ----<br>---- --- --- ----- --- ---- ---- ------- ----- ---- -------<br>--- --- -- ----- -- --- ---- -- --- ---- -- ------ ------<br>--- ----- -- ----,265694.7,265694.04499999655,265194.053,265199.74999999977,265210.831,265710.746,,23,a
screen,html.Screen,2_1_0_1_24,2021-04-26T18:51:38.409Z,,,,,,,,,,,,,,,,,53,,,,,,,,,,,,,,471.62899999669753,,response,,,,99,,,,,,,Space,keypress(Space),,,,,,,,---- -- ----- -- ------ - ------- --- ----------<br>------------- ------ ------ ---- ---- ------- ----- -- ----<br>-------- ------- -- ---------- --- - new ----- ----- ----<br>---- --- --- ----- --- ---- ---- ------- ----- ---- -------<br>--- --- -- ----- -- --- ---- -- --- ---- -- ------ ------<br>--- ----- -- ----,266183.63499999396,266182.3749999967,265694.104,265694.86999999936,265710.746,266194.155,,24,new
screen,html.Screen,2_1_0_1_25,2021-04-26T18:51:38.865Z,,,,,,,,,,,,,,,,,53,,,,,,,,,,,,,,444.19999999547144,,response,,,,99,,,,,,,Space,keypress(Space),,,,,,,,---- -- ----- -- ------ - ------- --- ----------<br>------------- ------ ------ ---- ---- ------- ----- -- ----<br>-------- ------- -- ---------- --- - --- study ----- ----<br>---- --- --- ----- --- ---- ---- ------- ----- ---- -------<br>--- --- -- ----- -- --- ---- -- --- ---- -- ------ ------<br>--- ----- -- ----,266639.62499999616,266638.3549999955,266177.375,266183.93999999535,266194.155,266644.08,,25,study
screen,html.Screen,2_1_0_1_26,2021-04-26T18:51:39.266Z,,,,,,,,,,,,,,,,,53,,,,,,,,,,,,,,394.3099999942351,,response,,,,99,,,,,,,Space,keypress(Space),,,,,,,,---- -- ----- -- ------ - ------- --- ----------<br>------------- ------ ------ ---- ---- ------- ----- -- ----<br>-------- ------- -- ---------- --- - --- ----- finds ----<br>---- --- --- ----- --- ---- ---- ------- ----- ---- -------<br>--- --- -- ----- -- --- ---- -- --- ---- -- ------ ------<br>--- ----- -- ----,267040.41999999754,267038.38999999425,266627.444,266639.92499999586,266644.08,267044.115,,26,finds
screen,html.Screen,2_1_0_1_27,2021-04-26T18:51:39.618Z,,,,,,,,,,,,,,,,,53,,,,,,,,,,,,,,346.24499999760883,,response,,,,99,,,,,,,Space,keypress(Space),,,,,,,,---- -- ----- -- ------ - ------- --- ----------<br>------------- ------ ------ ---- ---- ------- ----- -- ----<br>-------- ------- -- ---------- --- - --- ----- ----- that<br>---- --- --- ----- --- ---- ---- ------- ----- ---- -------<br>--- --- -- ----- -- --- ---- -- --- ---- -- ------ ------<br>--- ----- -- ----,267392.3699999941,267390.3599999976,267027.495,267040.75499999453,267044.115,267413.045,,27,that
screen,html.Screen,2_1_0_1_28,2021-04-26T18:51:40.457Z,,,,,,,,,,,,,,,,,53,,,,,,,,,,,,,,817.319999995816,,response,,,,99,,,,,,,Space,keypress(Space),,,,,,,,---- -- ----- -- ------ - ------- --- ----------<br>------------- ------ ------ ---- ---- ------- ----- -- ----<br>-------- ------- -- ---------- --- - --- ----- ----- ----<br>it's --- --- ----- --- ---- ---- ------- ----- ---- -------<br>--- --- -- ----- -- --- ---- -- --- ---- -- ------ ------<br>--- ----- -- ----,268231.57999999967,268230.3649999958,267377.543,267392.79999999417,267413.045,268244.192,,28,it's
screen,html.Screen,2_1_0_1_29,2021-04-26T18:51:41.027Z,,,,,,,,,,,,,,,,,53,,,,,,,,,,,,,,554.9529999972438,,response,,,,99,,,,,,,Space,keypress(Space),,,,,,,,---- -- ----- -- ------ - ------- --- ----------<br>------------- ------ ------ ---- ---- ------- ----- -- ----<br>-------- ------- -- ---------- --- - --- ----- ----- ----<br>---- not --- ----- --- ---- ---- ------- ----- ---- -------<br>--- --- -- ----- -- --- ---- -- --- ---- -- ------ ------<br>--- ----- -- ----,268801.12999999983,268799.1449999972,268227.355,268231.89499999717,268244.192,268810.902,,29,not
screen,html.Screen,2_1_0_1_30,2021-04-26T18:51:41.601Z,,,,,,,,,,,,,,,,,53,,,,,,,,,,,,,,563.3729999946663,,response,,,,99,,,,,,,Space,keypress(Space),,,,,,,,---- -- ----- -- ------ - ------- --- ----------<br>------------- ------ ------ ---- ---- ------- ----- -- ----<br>-------- ------- -- ---------- --- - --- ----- ----- ----<br>---- --- how ----- --- ---- ---- ------- ----- ---- -------<br>--- --- -- ----- -- --- ---- -- --- ---- -- ------ ------<br>--- ----- -- ----,269375.414999995,269374.27499999467,268794.129,268803.1899999987,268810.902,269377.48,,30,how
screen,html.Screen,2_1_0_1_31,2021-04-26T18:51:42.137Z,,,,,,,,,,,,,,,,,53,,,,,,,,,,,,,,532.7849999986356,,response,,,,99,,,,,,,Space,keypress(Space),,,,,,,,---- -- ----- -- ------ - ------- --- ----------<br>------------- ------ ------ ---- ---- ------- ----- -- ----<br>-------- ------- -- ---------- --- - --- ----- ----- ----<br>---- --- --- close --- ---- ---- ------- ----- ---- -------<br>--- --- -- ----- -- --- ---- -- --- ---- -- ------ ------<br>--- ----- -- ----,269911.4699999991,269910.2649999986,269360.761,269375.71999999636,269377.48,269927.659,,31,close
screen,html.Screen,2_1_0_1_32,2021-04-26T18:51:42.865Z,,,,,,,,,,,,,,,,,53,,,,,,,,,,,,,,710.6959999955143,,response,,,,99,,,,,,,Space,keypress(Space),,,,,,,,---- -- ----- -- ------ - ------- --- ----------<br>------------- ------ ------ ---- ---- ------- ----- -- ----<br>-------- ------- -- ---------- --- - --- ----- ----- ----<br>---- --- --- ----- you ---- ---- ------- ----- ---- -------<br>--- --- -- ----- -- --- ---- -- --- ---- -- ------ ------<br>--- ----- -- ----,270639.58499999717,270638.3549999955,269910.794,269911.7999999944,269927.659,270644.141,,32,you
screen,html.Screen,2_1_0_1_33,2021-04-26T18:51:43.410Z,,,,,,,,,,,,,,,,,53,,,,,,,,,,,,,,538.2889999934705,,response,,,,99,,,,,,,Space,keypress(Space),,,,,,,,---- -- ----- -- ------ - ------- --- ----------<br>------------- ------ ------ ---- ---- ------- ----- -- ----<br>-------- ------- -- ---------- --- - --- ----- ----- ----<br>---- --- --- ----- --- feel ---- ------- ----- ---- -------<br>--- --- -- ----- -- --- ---- -- --- ---- -- ------ ------<br>--- ----- -- ----,271184.3399999998,271182.4299999935,270627.605,270639.89999999467,270644.141,271194.143,,33,feel
screen,html.Screen,2_1_0_1_34,2021-04-26T18:51:43.850Z,,,,,,,,,,,,,,,,,53,,,,,,,,,,,,,,428.13699999597156,,response,,,,99,,,,,,,Space,keypress(Space),,,,,,,,---- -- ----- -- ------ - ------- --- ----------<br>------------- ------ ------ ---- ---- ------- ----- -- ----<br>-------- ------- -- ---------- --- - --- ----- ----- ----<br>---- --- --- ----- --- ---- that ------- ----- ---- -------<br>--- --- -- ----- -- --- ---- -- --- ---- -- ------ ------<br>--- ----- -- ----,271624.2499999935,271622.27999999595,271177.522,271184.6649999934,271194.143,271627.566,,34,that
screen,html.Screen,2_1_0_1_35,2021-04-26T18:51:44.378Z,,,,,,,,,,,,,,,,,53,,,,,,,,,,,,,,522.763999996765,,response,,,,99,,,,,,,Space,keypress(Space),,,,,,,,---- -- ----- -- ------ - ------- --- ----------<br>------------- ------ ------ ---- ---- ------- ----- -- ----<br>-------- ------- -- ---------- --- - --- ----- ----- ----<br>---- --- --- ----- --- ---- ---- matters ----- ---- -------<br>--- --- -- ----- -- --- ---- -- --- ---- -- ------ ------<br>--- ----- -- ----,272152.2899999982,272150.32999999676,271611.044,271624.54499999876,271627.566,272160.854,,35,matters
screen,html.Screen,2_1_0_1_36,2021-04-26T18:51:44.977Z,,,,,,,,,,,,,,,,,53,,,,,,,,,,,,,,589.4709999936167,,response,,,,99,,,,,,,Space,keypress(Space),,,,,,,,"---- -- ----- -- ------ - ------- --- ----------<br>------------- ------ ------ ---- ---- ------- ----- -- ----<br>-------- ------- -- ---------- --- - --- ----- ----- ----<br>---- --- --- ----- --- ---- ---- ------- most, ---- -------<br>--- --- -- ----- -- --- ---- -- --- ---- -- ------ ------<br>--- ----- -- ----",272751.5149999963,272750.3249999936,272144.374,272154.0449999957,272160.854,272760.812,,36,"most,"
screen,html.Screen,2_1_0_1_37,2021-04-26T18:51:45.785Z,,,,,,,,,,,,,,,,,53,,,,,,,,,,,,,,797.6979999953182,,response,,,,99,,,,,,,Space,keypress(Space),,,,,,,,---- -- ----- -- ------ - ------- --- ----------<br>------------- ------ ------ ---- ---- ------- ----- -- ----<br>-------- ------- -- ---------- --- - --- ----- ----- ----<br>---- --- --- ----- --- ---- ---- ------- ----- it's -------<br>--- --- -- ----- -- --- ---- -- --- ---- -- ------ ------<br>--- ----- -- ----,273559.6649999934,273558.5099999953,272744.254,272751.8249999994,272760.812,273594.409,,37,it's
screen,html.Screen,2_1_0_1_38,2021-04-26T18:51:46.410Z,,,,,,,,,,,,,,,,,53,,,,,,,,,,,,,,587.9859999961918,,response,,,,99,,,,,,,Space,keypress(Space),,,,,,,,---- -- ----- -- ------ - ------- --- ----------<br>------------- ------ ------ ---- ---- ------- ----- -- ----<br>-------- ------- -- ---------- --- - --- ----- ----- ----<br>---- --- --- ----- --- ---- ---- ------- ----- ---- whether<br>--- --- -- ----- -- --- ---- -- --- ---- -- ------ ------<br>--- ----- -- ----,274184.3249999947,274182.3949999962,273577.621,273559.9499999953,273594.409,274194.135,,38,whether
screen,html.Screen,2_1_0_1_39,2021-04-26T18:51:47.009Z,,,,,,,,,,,,,,,,,53,,,,,,,,,,,,,,588.234999993525,,response,,,,99,,,,,,,Space,keypress(Space),,,,,,,,---- -- ----- -- ------ - ------- --- ----------<br>------------- ------ ------ ---- ---- ------- ----- -- ----<br>-------- ------- -- ---------- --- - --- ----- ----- ----<br>---- --- --- ----- --- ---- ---- ------- ----- ---- -------<br>you --- -- ----- -- --- ---- -- --- ---- -- ------ ------<br>--- ----- -- ----,274783.49499999604,274782.36999999353,274177.725,274184.6299999961,274194.135,274794.241,,39,you
screen,html.Screen,2_1_0_1_40,2021-04-26T18:51:47.514Z,,,,,,,,,,,,,,,,,53,,,,,,,,,,,,,,492.1389999977546,,response,,,,99,,,,,,,Space,keypress(Space),,,,,,,,---- -- ----- -- ------ - ------- --- ----------<br>------------- ------ ------ ---- ---- ------- ----- -- ----<br>-------- ------- -- ---------- --- - --- ----- ----- ----<br>---- --- --- ----- --- ---- ---- ------- ----- ---- -------<br>--- are -- ----- -- --- ---- -- --- ---- -- ------ ------<br>--- ----- -- ----,275288.3049999946,275286.37999999773,274777.49,274783.77999999793,274794.241,275294.195,,40,are
screen,html.Screen,2_1_0_1_41,2021-04-26T18:51:48.034Z,,,,,,,,,,,,,,,,,53,,,,,,,,,,,,,,512.1349999994272,,response,,,,99,,,,,,,Space,keypress(Space),,,,,,,,---- -- ----- -- ------ - ------- --- ----------<br>------------- ------ ------ ---- ---- ------- ----- -- ----<br>-------- ------- -- ---------- --- - --- ----- ----- ----<br>---- --- --- ----- --- ---- ---- ------- ----- ---- -------<br>--- --- as ----- -- --- ---- -- --- ---- -- ------ ------<br>--- ----- -- ----,275808.33999999595,275806.32999999943,275277.652,275288.61499999766,275294.195,275811.05,,41,as
screen,html.Screen,2_1_0_1_42,2021-04-26T18:51:48.537Z,,,,,,,,,,,,,,,,,53,,,,,,,,,,,,,,499.1949999933131,,response,,,,99,,,,,,,Space,keypress(Space),,,,,,,,---- -- ----- -- ------ - ------- --- ----------<br>------------- ------ ------ ---- ---- ------- ----- -- ----<br>-------- ------- -- ---------- --- - --- ----- ----- ----<br>---- --- --- ----- --- ---- ---- ------- ----- ---- -------<br>--- --- -- close -- --- ---- -- --- ---- -- ------ ------<br>--- ----- -- ----,276311.25999999495,276310.2449999933,275794.248,275808.63499999396,275811.05,276327.681,,42,close
screen,html.Screen,2_1_0_1_43,2021-04-26T18:51:48.994Z,,,,,,,,,,,,,,,,,53,,,,,,,,,,,,,,438.71399999875575,,response,,,,99,,,,,,,Space,keypress(Space),,,,,,,,---- -- ----- -- ------ - ------- --- ----------<br>------------- ------ ------ ---- ---- ------- ----- -- ----<br>-------- ------- -- ---------- --- - --- ----- ----- ----<br>---- --- --- ----- --- ---- ---- ------- ----- ---- -------<br>--- --- -- ----- as --- ---- -- --- ---- -- ------ ------<br>--- ----- -- ----,276768.3149999939,276766.39499999874,276310.837,276311.53499999346,276327.681,276777.643,,43,as
screen,html.Screen,2_1_0_1_44,2021-04-26T18:51:49.441Z,,,,,,,,,,,,,,,,,53,,,,,,,,,,,,,,436.6119999989751,,response,,,,99,,,,,,,Space,keypress(Space),,,,,,,,---- -- ----- -- ------ - ------- --- ----------<br>------------- ------ ------ ---- ---- ------- ----- -- ----<br>-------- ------- -- ---------- --- - --- ----- ----- ----<br>---- --- --- ----- --- ---- ---- ------- ----- ---- -------<br>--- --- -- ----- -- you ---- -- --- ---- -- ------ ------<br>--- ----- -- ----,277215.314999994,277214.25499999896,276760.858,276768.64499999647,276777.643,277227.479,,44,you
screen,html.Screen,2_1_0_1_45,2021-04-26T18:51:49.913Z,,,,,,,,,,,,,,,,,53,,,,,,,,,,,,,,458.73599999427097,,response,,,,99,,,,,,,Space,keypress(Space),,,,,,,,---- -- ----- -- ------ - ------- --- ----------<br>------------- ------ ------ ---- ---- ------- ----- -- ----<br>-------- ------- -- ---------- --- - --- ----- ----- ----<br>---- --- --- ----- --- ---- ---- ------- ----- ---- -------<br>--- --- -- ----- -- --- want -- --- ---- -- ------ ------<br>--- ----- -- ----,277687.4150000003,277686.21499999426,277210.892,277215.5949999942,277227.479,277694.164,,45,want
screen,html.Screen,2_1_0_1_46,2021-04-26T18:51:50.394Z,,,,,,,,,,,,,,,,,53,,,,,,,,,,,,,,472.1509999949485,,response,,,,99,,,,,,,Space,keypress(Space),,,,,,,,---- -- ----- -- ------ - ------- --- ----------<br>------------- ------ ------ ---- ---- ------- ----- -- ----<br>-------- ------- -- ---------- --- - --- ----- ----- ----<br>---- --- --- ----- --- ---- ---- ------- ----- ---- -------<br>--- --- -- ----- -- --- ---- to --- ---- -- ------ ------<br>--- ----- -- ----,278168.23999999906,278166.31499999494,277677.564,277687.69499999325,277694.164,278177.563,,46,to
screen,html.Screen,2_1_0_1_47,2021-04-26T18:51:50.874Z,,,,,,,,,,,,,,,,,53,,,,,,,,,,,,,,468.7119999991264,,response,,,,99,,,,,,,Space,keypress(Space),,,,,,,,"---- -- ----- -- ------ - ------- --- ----------<br>------------- ------ ------ ---- ---- ------- ----- -- ----<br>-------- ------- -- ---------- --- - --- ----- ----- ----<br>---- --- --- ----- --- ---- ---- ------- ----- ---- -------<br>--- --- -- ----- -- --- ---- -- be, ---- -- ------ ------<br>--- ----- -- ----",278648.1899999999,278646.27499999915,278160.966,278168.5299999954,278177.563,278661.224,,47,"be,"
screen,html.Screen,2_1_0_1_48,2021-04-26T18:51:51.922Z,,,,,,,,,,,,,,,,,53,,,,,,,,,,,,,,1033.7309999990393,,response,,,,99,,,,,,,Space,keypress(Space),,,,,,,,---- -- ----- -- ------ - ------- --- ----------<br>------------- ------ ------ ---- ---- ------- ----- -- ----<br>-------- ------- -- ---------- --- - --- ----- ----- ----<br>---- --- --- ----- --- ---- ---- ------- ----- ---- -------<br>--- --- -- ----- -- --- ---- -- --- even -- ------ ------<br>--- ----- -- ----,279696.07499999984,279694.954999999,278644.26,278648.57499999925,278661.224,279710.943,,48,even
screen,html.Screen,2_1_0_1_49,2021-04-26T18:51:52.442Z,,,,,,,,,,,,,,,,,53,,,,,,,,,,,,,,503.39199999690754,,response,,,,99,,,,,,,Space,keypress(Space),,,,,,,,---- -- ----- -- ------ - ------- --- ----------<br>------------- ------ ------ ---- ---- ------- ----- -- ----<br>-------- ------- -- ---------- --- - --- ----- ----- ----<br>---- --- --- ----- --- ---- ---- ------- ----- ---- -------<br>--- --- -- ----- -- --- ---- -- --- ---- if ------ ------<br>--- ----- -- ----,280216.2299999982,280214.33499999694,279694.357,279696.34499999665,279710.943,280227.628,,49,if
screen,html.Screen,2_1_0_1_50,2021-04-26T18:51:52.961Z,,,,,,,,,,,,,,,,,53,,,,,,,,,,,,,,506.61199999792734,,response,,,,99,,,,,,,Space,keypress(Space),,,,,,,,---- -- ----- -- ------ - ------- --- ----------<br>------------- ------ ------ ---- ---- ------- ----- -- ----<br>-------- ------- -- ---------- --- - --- ----- ----- ----<br>---- --- --- ----- --- ---- ---- ------- ----- ---- -------<br>--- --- -- ----- -- --- ---- -- --- ---- -- that's ------<br>--- ----- -- ----,280735.40999999386,280734.23999999795,280210.813,280216.5199999945,280227.628,280744.17,,50,that's
screen,html.Screen,2_1_0_1_51,2021-04-26T18:51:53.441Z,,,,,,,,,,,,,,,,,53,,,,,,,,,,,,,,470.0599999977858,,response,,,,99,,,,,,,Space,keypress(Space),,,,,,,,---- -- ----- -- ------ - ------- --- ----------<br>------------- ------ ------ ---- ---- ------- ----- -- ----<br>-------- ------- -- ---------- --- - --- ----- ----- ----<br>---- --- --- ----- --- ---- ---- ------- ----- ---- -------<br>--- --- -- ----- -- --- ---- -- --- ---- -- ------ really<br>--- ----- -- ----,281215.42000000045,281214.22999999777,280727.633,280735.68499999965,280744.17,281227.735,,51,really
screen,html.Screen,2_1_0_1_52,2021-04-26T18:51:53.913Z,,,,,,,,,,,,,,,,,53,,,,,,,,,,,,,,458.49499999935506,,response,,,,99,,,,,,,Space,keypress(Space),,,,,,,,---- -- ----- -- ------ - ------- --- ----------<br>------------- ------ ------ ---- ---- ------- ----- -- ----<br>-------- ------- -- ---------- --- - --- ----- ----- ----<br>---- --- --- ----- --- ---- ---- ------- ----- ---- -------<br>--- --- -- ----- -- --- ---- -- --- ---- -- ------ ------<br>not ----- -- ----,281687.4899999966,281686.22999999934,281210.893,281215.6999999934,281227.735,281694.262,,52,not
screen,html.Screen,2_1_0_1_53,2021-04-26T18:51:54.401Z,,,,,,,,,,,,,,,,,53,,,,,,,,,,,,,,479.93799999402836,,response,,,,99,,,,,,,Space,keypress(Space),,,,,,,,---- -- ----- -- ------ - ------- --- ----------<br>------------- ------ ------ ---- ---- ------- ----- -- ----<br>-------- ------- -- ---------- --- - --- ----- ----- ----<br>---- --- --- ----- --- ---- ---- ------- ----- ---- -------<br>--- --- -- ----- -- --- ---- -- --- ---- -- ------ ------<br>--- close -- ----,282175.424999994,282174.199999994,281677.542,281687.7499999973,281694.262,282177.515,,53,close
screen,html.Screen,2_1_0_1_54,2021-04-26T18:51:54.865Z,,,,,,,,,,,,,,,,,53,,,,,,,,,,,,,,460.7149999968242,,response,,,,99,,,,,,,Space,keypress(Space),,,,,,,,---- -- ----- -- ------ - ------- --- ----------<br>------------- ------ ------ ---- ---- ------- ----- -- ----<br>-------- ------- -- ---------- --- - --- ----- ----- ----<br>---- --- --- ----- --- ---- ---- ------- ----- ---- -------<br>--- --- -- ----- -- --- ---- -- --- ---- -- ------ ------<br>--- ----- at ----,282639.40999999613,282638.22999999684,282160.787,282175.6849999947,282177.515,282644.204,,54,at
screen,html.Screen,2_1_0_1_55,2021-04-26T18:51:55.954Z,,,,,,,,,,,,,,,,,53,,,,,,,,,,,,,,1082.1009999964735,,response,,,,99,,,,,,,Space,keypress(Space),,,,,,,,---- -- ----- -- ------ - ------- --- ----------<br>------------- ------ ------ ---- ---- ------- ----- -- ----<br>-------- ------- -- ---------- --- - --- ----- ----- ----<br>---- --- --- ----- --- ---- ---- ------- ----- ---- -------<br>--- --- -- ----- -- --- ---- -- --- ---- -- ------ ------<br>--- ----- -- all.,283728.15499999706,283726.3049999965,282627.666,282639.694999998,282644.204,283744.184,,55,all.
Item 99,flow.Loop,2_1_0_1,2021-04-26T18:51:55.954Z,,,,,,,,,,,,,,,,,,,,,,,,,,,,,,,36915.53399999649,,completion,,,,,D,,,,,,,,,,,silence,,,,,283728.6899999963,283726.3049999965,246744.119,246745.57499999355,246810.771,283744.184,,,
Question 1,html.Screen,2_1_0_2,2021-04-26T18:52:02.067Z,,,,,,,,,,,,,,,,,,,,,,,,,,,,true,FALSE,,6096.730999993393,,response,,,,99,D,,,,,,FALSE,click #choice-2,,,,silence,,,,,289841.89499999775,289840.9149999934,283727.487,283728.97999999986,283744.184,289844.25,,,
Question 2,html.Screen,2_1_0_3,2021-04-26T18:52:08.731Z,,,,,,,,,,,,,,,,,,,,,,,,,,,,true,TRUE,,6660.565000000235,,response,,,,99,D,,,,,,TRUE,click #choice-1,,,,silence,,,,,296505.67999999475,296504.81500000024,289827.677,289842.0349999942,289844.25,296527.797,,,
Item 99,flow.Sequence,2_1_0,2021-04-26T18:52:08.732Z,,,,,,,,,,,,,,,,,,,,,,,,,,,,,,,59744.32000000024,,completion,,,,,,,,,,,,,,,,,,,,,296505.95499999326,296504.81500000024,236744.018,236748.03999999858,236760.495,296527.797,,,
Holding screen,html.Screen,2_1_1_0,2021-04-26T18:52:18.742Z,,,,,,,,,,,,,,,,,,,,,,,,,,,,,,,10000.046999999962,,timeout,,,,,,,,,,,,,,,,,,,,,306516.58999999927,306511.061,296510.991,296506.0799999992,296527.797,306527.844,,,
screen,html.Screen,2_1_1_1_0,2021-04-26T18:52:20.340Z,,,,,,,,,,,,,,,,,54,,,,,,,,,,,,,,1582.9109999942593,,response,,,,100,,,,,,,Space,keypress(Space),,,,,,,,At --- ---- --- ------ ----- ------- ---- -- --- ------- --<br>------- ---------- ------ -- ----- -- ----- -- ---- ------<br>--- ----- --- --- ------ -------- ----- --- ------ ----- --<br>----- ----- ---------- --- --- ------ ------ ---- -- ------<br>------- --- ------ ----- --- ---- ------- -- ---- --- --<br>------- ------,308114.8949999988,308110.75499999424,306511.061,306516.99499999813,306527.844,308127.787,,0,At
screen,html.Screen,2_1_1_1_1,2021-04-26T18:52:20.889Z,,,,,,,,,,,,,,,,,54,,,,,,,,,,,,,,534.272999995097,,response,,,,100,,,,,,,Space,keypress(Space),,,,,,,,-- the ---- --- ------ ----- ------- ---- -- --- ------- --<br>------- ---------- ------ -- ----- -- ----- -- ---- ------<br>--- ----- --- --- ------ -------- ----- --- ------ ----- --<br>----- ----- ---------- --- --- ------ ------ ---- -- ------<br>------- --- ------ ----- --- ---- ------- -- ---- --- --<br>------- ------,308663.5199999946,308662.0599999951,308111.033,308115.1799999934,308127.787,308677.884,,1,the
screen,html.Screen,2_1_1_1_2,2021-04-26T18:52:21.401Z,,,,,,,,,,,,,,,,,54,,,,,,,,,,,,,,496.0659999966738,,response,,,,100,,,,,,,Space,keypress(Space),,,,,,,,-- --- time --- ------ ----- ------- ---- -- --- ------- --<br>------- ---------- ------ -- ----- -- ----- -- ---- ------<br>--- ----- --- --- ------ -------- ----- --- ------ ----- --<br>----- ----- ---------- --- --- ------ ------ ---- -- ------<br>------- --- ------ ----- --- ---- ------- -- ---- --- --<br>------- ------,309175.51999999705,309173.9499999967,308661.072,308663.8449999955,308677.884,309177.744,,2,time
screen,html.Screen,2_1_1_1_3,2021-04-26T18:52:21.866Z,,,,,,,,,,,,,,,,,54,,,,,,,,,,,,,,460.39099999377504,,response,,,,100,,,,,,,Space,keypress(Space),,,,,,,,-- --- ---- the ------ ----- ------- ---- -- --- ------- --<br>------- ---------- ------ -- ----- -- ----- -- ---- ------<br>--- ----- --- --- ------ -------- ----- --- ------ ----- --<br>----- ----- ---------- --- --- ------ ------ ---- -- ------<br>------- --- ------ ----- --- ---- ------- -- ---- --- --<br>------- ------,309639.89999999467,309638.1349999938,309161.022,309175.78499999945,309177.744,309644.38,,3,the
screen,html.Screen,2_1_1_1_4,2021-04-26T18:52:22.482Z,,,,,,,,,,,,,,,,,54,,,,,,,,,,,,,,609.8299999991432,,response,,,,100,,,,,,,Space,keypress(Space),,,,,,,,-- --- ---- --- French ----- ------- ---- -- --- ------- --<br>------- ---------- ------ -- ----- -- ----- -- ---- ------<br>--- ----- --- --- ------ -------- ----- --- ------ ----- --<br>----- ----- ---------- --- --- ------ ------ ---- -- ------<br>------- --- ------ ----- --- ---- ------- -- ---- --- --<br>------- ------,310255.8699999936,310254.20999999915,309627.957,309640.17500000045,309644.38,310261.107,,4,French
screen,html.Screen,2_1_1_1_5,2021-04-26T18:52:23.562Z,,,,,,,,,,,,,,,,,54,,,,,,,,,,,,,,1072.9829999966314,,response,,,,100,,,,,,,Space,keypress(Space),,,,,,,,-- --- ---- --- ------ crown ------- ---- -- --- ------- --<br>------- ---------- ------ -- ----- -- ----- -- ---- ------<br>--- ----- --- --- ------ -------- ----- --- ------ ----- --<br>----- ----- ---------- --- --- ------ ------ ---- -- ------<br>------- --- ------ ----- --- ---- ------- -- ---- --- --<br>------- ------,311335.7349999933,311334.08999999665,310244.405,310256.1399999977,310261.107,311344.526,,5,crown
screen,html.Screen,2_1_1_1_6,2021-04-26T18:52:24.090Z,,,,,,,,,,,,,,,,,54,,,,,,,,,,,,,,517.6039999940549,,response,,,,100,,,,,,,Space,keypress(Space),,,,,,,,-- --- ---- --- ------ ----- secured ---- -- --- ------- --<br>------- ---------- ------ -- ----- -- ----- -- ---- ------<br>--- ----- --- --- ------ -------- ----- --- ------ ----- --<br>----- ----- ---------- --- --- ------ ------ ---- -- ------<br>------- --- ------ ----- --- ---- ------- -- ---- --- --<br>------- ------,311863.7499999968,311862.12999999407,311327.843,311335.994999994,311344.526,311877.865,,6,secured
screen,html.Screen,2_1_1_1_7,2021-04-26T18:52:24.522Z,,,,,,,,,,,,,,,,,54,,,,,,,,,,,,,,416.02499999356223,,response,,,,100,,,,,,,Space,keypress(Space),,,,,,,,-- --- ---- --- ------ ----- ------- much -- --- ------- --<br>------- ---------- ------ -- ----- -- ----- -- ---- ------<br>--- ----- --- --- ------ -------- ----- --- ------ ----- --<br>----- ----- ---------- --- --- ------ ------ ---- -- ------<br>------- --- ------ ----- --- ---- ------- -- ---- --- --<br>------- ------,312295.729999998,312293.88999999355,311861.141,311864.0149999992,311877.865,312311.153,,7,much
screen,html.Screen,2_1_1_1_8,2021-04-26T18:52:24.937Z,,,,,,,,,,,,,,,,,54,,,,,,,,,,,,,,398.7869999933755,,response,,,,100,,,,,,,Space,keypress(Space),,,,,,,,-- --- ---- --- ------ ----- ------- ---- of --- ------- --<br>------- ---------- ------ -- ----- -- ----- -- ---- ------<br>--- ----- --- --- ------ -------- ----- --- ------ ----- --<br>----- ----- ---------- --- --- ------ ------ ---- -- ------<br>------- --- ------ ----- --- ---- ------- -- ---- --- --<br>------- ------,312710.86499999365,312709.93999999337,312294.476,312295.9999999948,312311.153,312727.944,,8,of
screen,html.Screen,2_1_1_1_9,2021-04-26T18:52:25.314Z,,,,,,,,,,,,,,,,,54,,,,,,,,,,,,,,358.13099999923725,,response,,,,100,,,,,,,Space,keypress(Space),,,,,,,,-- --- ---- --- ------ ----- ------- ---- -- its ------- --<br>------- ---------- ------ -- ----- -- ----- -- ---- ------<br>--- ----- --- --- ------ -------- ----- --- ------ ----- --<br>----- ----- ---------- --- --- ------ ------ ---- -- ------<br>------- --- ------ ----- --- ---- ------- -- ---- --- --<br>------- ------,313087.7049999981,313086.07499999925,312711.177,312711.13499999774,312727.944,313094.531,,9,its
screen,html.Screen,2_1_1_1_10,2021-04-26T18:52:26.018Z,,,,,,,,,,,,,,,,,54,,,,,,,,,,,,,,695.4589999974705,,response,,,,100,,,,,,,Space,keypress(Space),,,,,,,,-- --- ---- --- ------ ----- ------- ---- -- --- revenue --<br>------- ---------- ------ -- ----- -- ----- -- ---- ------<br>--- ----- --- --- ------ -------- ----- --- ------ ----- --<br>----- ----- ---------- --- --- ------ ------ ---- -- ------<br>------- --- ------ ----- --- ---- ------- -- ---- --- --<br>------- ------,313791.54500000004,313789.9899999975,313077.824,313087.9699999932,313094.531,313794.411,,10,revenue
screen,html.Screen,2_1_1_1_11,2021-04-26T18:52:26.450Z,,,,,,,,,,,,,,,,,54,,,,,,,,,,,,,,427.6589999961434,,response,,,,100,,,,,,,Space,keypress(Space),,,,,,,,-- --- ---- --- ------ ----- ------- ---- -- --- ------- by<br>------- ---------- ------ -- ----- -- ----- -- ---- ------<br>--- ----- --- --- ------ -------- ----- --- ------ ----- --<br>----- ----- ---------- --- --- ------ ------ ---- -- ------<br>------- --- ------ ----- --- ---- ------- -- ---- --- --<br>------- ------,314223.91499999503,314222.06999999617,313777.836,313791.82500000024,313794.411,314227.75,,11,by
screen,html.Screen,2_1_1_1_12,2021-04-26T18:52:26.922Z,,,,,,,,,,,,,,,,,54,,,,,,,,,,,,,,466.29999999824213,,response,,,,100,,,,,,,Space,keypress(Space),,,,,,,,-- --- ---- --- ------ ----- ------- ---- -- --- ------- --<br>issuing ---------- ------ -- ----- -- ----- -- ---- ------<br>--- ----- --- --- ------ -------- ----- --- ------ ----- --<br>----- ----- ---------- --- --- ------ ------ ---- -- ------<br>------- --- ------ ----- --- ---- ------- -- ---- --- --<br>------- ------,314695.79499999963,314694.04999999824,314211.106,314224.18999999354,314227.75,314711.24,,12,issuing
screen,html.Screen,2_1_1_1_13,2021-04-26T18:52:27.498Z,,,,,,,,,,,,,,,,,54,,,,,,,,,,,,,,558.8749999993597,,response,,,,100,,,,,,,Space,keypress(Space),,,,,,,,-- --- ---- --- ------ ----- ------- ---- -- --- ------- --<br>------- government ------ -- ----- -- ----- -- ---- ------<br>--- ----- --- --- ------ -------- ----- --- ------ ----- --<br>----- ----- ---------- --- --- ------ ------ ---- -- ------<br>------- --- ------ ----- --- ---- ------- -- ---- --- --<br>------- ------,315271.6899999941,315270.11499999935,314694.586,314696.05999999476,314711.24,315277.817,,13,government
screen,html.Screen,2_1_1_1_14,2021-04-26T18:52:28.026Z,,,,,,,,,,,,,,,,,54,,,,,,,,,,,,,,520.2079999964335,,response,,,,100,,,,,,,Space,keypress(Space),,,,,,,,-- --- ---- --- ------ ----- ------- ---- -- --- ------- --<br>------- ---------- bonds. -- ----- -- ----- -- ---- ------<br>--- ----- --- --- ------ -------- ----- --- ------ ----- --<br>----- ----- ---------- --- --- ------ ------ ---- -- ------<br>------- --- ------ ----- --- ---- ------- -- ---- --- --<br>------- ------,315799.5649999939,315798.0249999964,315261.122,315271.9599999982,315277.817,315811.096,,14,bonds.
screen,html.Screen,2_1_1_1_15,2021-04-26T18:52:29.450Z,,,,,,,,,,,,,,,,,54,,,,,,,,,,,,,,1410.9439999932656,,response,,,,100,,,,,,,Space,keypress(Space),,,,,,,,-- --- ---- --- ------ ----- ------- ---- -- --- ------- --<br>------- ---------- ------ In ----- -- ----- -- ---- ------<br>--- ----- --- --- ------ -------- ----- --- ------ ----- --<br>----- ----- ---------- --- --- ------ ------ ---- -- ------<br>------- --- ------ ----- --- ---- ------- -- ---- --- --<br>------- ------,317223.7449999957,317222.0399999933,315794.574,315799.8299999963,315811.096,317227.842,,15,In
screen,html.Screen,2_1_1_1_16,2021-04-26T18:52:31.490Z,,,,,,,,,,,,,,,,,54,,,,,,,,,,,,,,2034.7179999955697,,response,,,,100,,,,,,,Space,keypress(Space),,,,,,,,"-- --- ---- --- ------ ----- ------- ---- -- --- ------- --<br>------- ---------- ------ -- 1727, -- ----- -- ---- ------<br>--- ----- --- --- ------ -------- ----- --- ------ ----- --<br>----- ----- ---------- --- --- ------ ------ ---- -- ------<br>------- --- ------ ----- --- ---- ------- -- ---- --- --<br>------- ------",319263.72499999707,319262.5599999956,317211.163,317224.0099999981,317227.842,319277.914,,16,"1727,"
screen,html.Screen,2_1_1_1_17,2021-04-26T18:52:31.986Z,,,,,,,,,,,,,,,,,54,,,,,,,,,,,,,,480.0459999953746,,response,,,,100,,,,,,,Space,keypress(Space),,,,,,,,-- --- ---- --- ------ ----- ------- ---- -- --- ------- --<br>------- ---------- ------ -- ----- in ----- -- ---- ------<br>--- ----- --- --- ------ -------- ----- --- ------ ----- --<br>----- ----- ---------- --- --- ------ ------ ---- -- ------<br>------- --- ------ ----- --- ---- ------- -- ---- --- --<br>------- ------,319759.8449999932,319757.95999999536,319261.123,319263.98999999947,319277.914,319794.485,,17,in
screen,html.Screen,2_1_1_1_18,2021-04-26T18:52:32.664Z,,,,,,,,,,,,,,,,,54,,,,,,,,,,,,,,643.029999997816,,response,,,,100,,,,,,,Space,keypress(Space),,,,,,,,-- --- ---- --- ------ ----- ------- ---- -- --- ------- --<br>------- ---------- ------ -- ----- -- order -- ---- ------<br>--- ----- --- --- ------ -------- ----- --- ------ ----- --<br>----- ----- ---------- --- --- ------ ------ ---- -- ------<br>------- --- ------ ----- --- ---- ------- -- ---- --- --<br>------- ------,320438.0999999994,320437.5149999978,319777.96,319760.1399999985,319794.485,320444.492,,18,order
screen,html.Screen,2_1_1_1_19,2021-04-26T18:52:33.073Z,,,,,,,,,,,,,,,,,54,,,,,,,,,,,,,,401.5129999993951,,response,,,,100,,,,,,,Space,keypress(Space),,,,,,,,-- --- ---- --- ------ ----- ------- ---- -- --- ------- --<br>------- ---------- ------ -- ----- -- ----- to ---- ------<br>--- ----- --- --- ------ -------- ----- --- ------ ----- --<br>----- ----- ---------- --- --- ------ ------ ---- -- ------<br>------- --- ------ ----- --- ---- ------- -- ---- --- --<br>------- ------,320847.07499999786,320846.0049999994,320427.928,320438.22499999806,320444.492,320861.354,,19,to
screen,html.Screen,2_1_1_1_20,2021-04-26T18:52:33.481Z,,,,,,,,,,,,,,,,,54,,,,,,,,,,,,,,392.530999998271,,response,,,,100,,,,,,,Space,keypress(Space),,,,,,,,-- --- ---- --- ------ ----- ------- ---- -- --- ------- --<br>------- ---------- ------ -- ----- -- ----- -- save ------<br>--- ----- --- --- ------ -------- ----- --- ------ ----- --<br>----- ----- ---------- --- --- ------ ------ ---- -- ------<br>------- --- ------ ----- --- ---- ------- -- ---- --- --<br>------- ------,321255.10499999655,321253.88499999826,320844.45,320847.41499999654,320861.354,321261.143,,20,save
screen,html.Screen,2_1_1_1_21,2021-04-26T18:52:33.897Z,,,,,,,,,,,,,,,,,54,,,,,,,,,,,,,,408.7869999964023,,response,,,,100,,,,,,,Space,keypress(Space),,,,,,,,"-- --- ---- --- ------ ----- ------- ---- -- --- ------- --<br>------- ---------- ------ -- ----- -- ----- -- ---- money,<br>--- ----- --- --- ------ -------- ----- --- ------ ----- --<br>----- ----- ---------- --- --- ------ ------ ---- -- ------<br>------- --- ------ ----- --- ---- ------- -- ---- --- --<br>------- ------",321670.9899999987,321669.9299999964,321244.617,321255.4699999964,321261.143,321677.866,,21,"money,"
screen,html.Screen,2_1_1_1_22,2021-04-26T18:52:34.577Z,,,,,,,,,,,,,,,,,54,,,,,,,,,,,,,,672.0539999933098,,response,,,,100,,,,,,,Space,keypress(Space),,,,,,,,-- --- ---- --- ------ ----- ------- ---- -- --- ------- --<br>------- ---------- ------ -- ----- -- ----- -- ---- ------<br>the ----- --- --- ------ -------- ----- --- ------ ----- --<br>----- ----- ---------- --- --- ------ ------ ---- -- ------<br>------- --- ------ ----- --- ---- ------- -- ---- --- --<br>------- ------,322351.11499999766,322349.9199999933,321661.281,321671.2599999955,321677.866,322361.323,,22,the
screen,html.Screen,2_1_1_1_23,2021-04-26T18:52:34.994Z,,,,,,,,,,,,,,,,,54,,,,,,,,,,,,,,404.6219999992172,,response,,,,100,,,,,,,Space,keypress(Space),,,,,,,,-- --- ---- --- ------ ----- ------- ---- -- --- ------- --<br>------- ---------- ------ -- ----- -- ----- -- ---- ------<br>--- state --- --- ------ -------- ----- --- ------ ----- --<br>----- ----- ---------- --- --- ------ ------ ---- -- ------<br>------- --- ------ ----- --- ---- ------- -- ---- --- --<br>------- ------,322767.83499999874,322765.9449999992,322344.61,322351.3849999945,322361.323,322777.86,,23,state
screen,html.Screen,2_1_1_1_24,2021-04-26T18:52:35.434Z,,,,,,,,,,,,,,,,,54,,,,,,,,,,,,,,427.9849999967846,,response,,,,100,,,,,,,Space,keypress(Space),,,,,,,,-- --- ---- --- ------ ----- ------- ---- -- --- ------- --<br>------- ---------- ------ -- ----- -- ----- -- ---- ------<br>--- ----- cut --- ------ -------- ----- --- ------ ----- --<br>----- ----- ---------- --- --- ------ ------ ---- -- ------<br>------- --- ------ ----- --- ---- ------- -- ---- --- --<br>------- ------,323207.7349999963,323205.84499999677,322761.226,322768.12999999675,322777.86,323211.146,,24,cut
screen,html.Screen,2_1_1_1_25,2021-04-26T18:52:35.827Z,,,,,,,,,,,,,,,,,54,,,,,,,,,,,,,,386.84899999643676,,response,,,,100,,,,,,,Space,keypress(Space),,,,,,,,-- --- ---- --- ------ ----- ------- ---- -- --- ------- --<br>------- ---------- ------ -- ----- -- ----- -- ---- ------<br>--- ----- --- the ------ -------- ----- --- ------ ----- --<br>----- ----- ---------- --- --- ------ ------ ---- -- ------<br>------- --- ------ ----- --- ---- ------- -- ---- --- --<br>------- ------,323601.3699999967,323597.99499999644,323194.776,323208.0099999948,323211.146,323611.16,,25,the
screen,html.Screen,2_1_1_1_26,2021-04-26T18:52:36.258Z,,,,,,,,,,,,,,,,,54,,,,,,,,,,,,,,418.7449999958044,,response,,,,100,,,,,,,Space,keypress(Space),,,,,,,,-- --- ---- --- ------ ----- ------- ---- -- --- ------- --<br>------- ---------- ------ -- ----- -- ----- -- ---- ------<br>--- ----- --- --- bonds' -------- ----- --- ------ ----- --<br>----- ----- ---------- --- --- ------ ------ ---- -- ------<br>------- --- ------ ----- --- ---- ------- -- ---- --- --<br>------- ------,324031.7949999953,324029.9049999958,323594.587,323601.67999999976,323611.16,324044.571,,26,bonds'
screen,html.Screen,2_1_1_1_27,2021-04-26T18:52:36.914Z,,,,,,,,,,,,,,,,,54,,,,,,,,,,,,,,641.318999993382,,response,,,,100,,,,,,,Space,keypress(Space),,,,,,,,-- --- ---- --- ------ ----- ------- ---- -- --- ------- --<br>------- ---------- ------ -- ----- -- ----- -- ---- ------<br>--- ----- --- --- ------ interest ----- --- ------ ----- --<br>----- ----- ---------- --- --- ------ ------ ---- -- ------<br>------- --- ------ ----- --- ---- ------- -- ---- --- --<br>------- ------,324687.7800000002,324685.8899999934,324027.786,324032.0849999989,324044.571,324694.687,,27,interest
screen,html.Screen,2_1_1_1_28,2021-04-26T18:52:37.570Z,,,,,,,,,,,,,,,,,54,,,,,,,,,,,,,,647.3029999935534,,response,,,,100,,,,,,,Space,keypress(Space),,,,,,,,-- --- ---- --- ------ ----- ------- ---- -- --- ------- --<br>------- ---------- ------ -- ----- -- ----- -- ---- ------<br>--- ----- --- --- ------ -------- rate. --- ------ ----- --<br>----- ----- ---------- --- --- ------ ------ ---- -- ------<br>------- --- ------ ----- --- ---- ------- -- ---- --- --<br>------- ------,325343.89499999816,325341.98999999353,324677.959,324688.0699999965,324694.687,325361.369,,28,rate.
screen,html.Screen,2_1_1_1_29,2021-04-26T18:52:38.490Z,,,,,,,,,,,,,,,,,54,,,,,,,,,,,,,,900.9659999994328,,response,,,,100,,,,,,,Space,keypress(Space),,,,,,,,-- --- ---- --- ------ ----- ------- ---- -- --- ------- --<br>------- ---------- ------ -- ----- -- ----- -- ---- ------<br>--- ----- --- --- ------ -------- ----- The ------ ----- --<br>----- ----- ---------- --- --- ------ ------ ---- -- ------<br>------- --- ------ ----- --- ---- ------- -- ---- --- --<br>------- ------,326264.1949999961,326262.33499999944,325344.523,325344.17499999836,325361.369,326278.047,,29,The
screen,html.Screen,2_1_1_1_30,2021-04-26T18:52:39.081Z,,,,,,,,,,,,,,,,,54,,,,,,,,,,,,,,575.7879999944125,,response,,,,100,,,,,,,Space,keypress(Space),,,,,,,,-- --- ---- --- ------ ----- ------- ---- -- --- ------- --<br>------- ---------- ------ -- ----- -- ----- -- ---- ------<br>--- ----- --- --- ------ -------- ----- --- market ----- --<br>----- ----- ---------- --- --- ------ ------ ---- -- ------<br>------- --- ------ ----- --- ---- ------- -- ---- --- --<br>------- ------,326854.8849999934,326853.83499999443,326261.292,326264.479999998,326278.047,326861.261,,30,market
screen,html.Screen,2_1_1_1_31,2021-04-26T18:52:39.521Z,,,,,,,,,,,,,,,,,54,,,,,,,,,,,,,,432.64399999863235,,response,,,,100,,,,,,,Space,keypress(Space),,,,,,,,-- --- ---- --- ------ ----- ------- ---- -- --- ------- --<br>------- ---------- ------ -- ----- -- ----- -- ---- ------<br>--- ----- --- --- ------ -------- ----- --- ------ value --<br>----- ----- ---------- --- --- ------ ------ ---- -- ------<br>------- --- ------ ----- --- ---- ------- -- ---- --- --<br>------- ------,327295.05499999505,327293.90499999863,326844.746,326855.15999999916,326861.261,327311.29,,31,value
screen,html.Screen,2_1_1_1_32,2021-04-26T18:52:39.937Z,,,,,,,,,,,,,,,,,54,,,,,,,,,,,,,,398.5249999947264,,response,,,,100,,,,,,,Space,keypress(Space),,,,,,,,-- --- ---- --- ------ ----- ------- ---- -- --- ------- --<br>------- ---------- ------ -- ----- -- ----- -- ---- ------<br>--- ----- --- --- ------ -------- ----- --- ------ ----- of<br>----- ----- ---------- --- --- ------ ------ ---- -- ------<br>------- --- ------ ----- --- ---- ------- -- ---- --- --<br>------- ------,327710.994999994,327709.8149999947,327294.677,327295.31499999575,327311.29,327728.128,,32,of
screen,html.Screen,2_1_1_1_33,2021-04-26T18:52:40.290Z,,,,,,,,,,,,,,,,,54,,,,,,,,,,,,,,333.74199999769917,,response,,,,100,,,,,,,Space,keypress(Space),,,,,,,,-- --- ---- --- ------ ----- ------- ---- -- --- ------- --<br>------- ---------- ------ -- ----- -- ----- -- ---- ------<br>--- ----- --- --- ------ -------- ----- --- ------ ----- --<br>these ----- ---------- --- --- ------ ------ ---- -- ------<br>------- --- ------ ----- --- ---- ------- -- ---- --- --<br>------- ------,328063.6649999942,328061.8699999977,327711.261,327711.2749999942,327728.128,328077.949,,33,these
screen,html.Screen,2_1_1_1_34,2021-04-26T18:52:40.667Z,,,,,,,,,,,,,,,,,54,,,,,,,,,,,,,,360.26599999464815,,response,,,,100,,,,,,,Space,keypress(Space),,,,,,,,-- --- ---- --- ------ ----- ------- ---- -- --- ------- --<br>------- ---------- ------ -- ----- -- ----- -- ---- ------<br>--- ----- --- --- ------ -------- ----- --- ------ ----- --<br>----- bonds ---------- --- --- ------ ------ ---- -- ------<br>------- --- ------ ----- --- ---- ------- -- ---- --- --<br>------- ------,328440.6499999968,328438.21499999467,328061.269,328063.9449999944,328077.949,328444.517,,34,bonds
screen,html.Screen,2_1_1_1_35,2021-04-26T18:52:41.194Z,,,,,,,,,,,,,,,,,54,,,,,,,,,,,,,,521.4329999979818,,response,,,,100,,,,,,,Space,keypress(Space),,,,,,,,"-- --- ---- --- ------ ----- ------- ---- -- --- ------- --<br>------- ---------- ------ -- ----- -- ----- -- ---- ------<br>--- ----- --- --- ------ -------- ----- --- ------ ----- --<br>----- ----- plummeted, --- --- ------ ------ ---- -- ------<br>------- --- ------ ----- --- ---- ------- -- ---- --- --<br>------- ------",328967.859999997,328965.949999998,328427.968,328441.13499999366,328444.517,328978.107,,35,"plummeted,"
screen,html.Screen,2_1_1_1_36,2021-04-26T18:52:41.657Z,,,,,,,,,,,,,,,,,54,,,,,,,,,,,,,,452.292999997444,,response,,,,100,,,,,,,Space,keypress(Space),,,,,,,,-- --- ---- --- ------ ----- ------- ---- -- --- ------- --<br>------- ---------- ------ -- ----- -- ----- -- ---- ------<br>--- ----- --- --- ------ -------- ----- --- ------ ----- --<br>----- ----- ---------- and --- ------ ------ ---- -- ------<br>------- --- ------ ----- --- ---- ------- -- ---- --- --<br>------- ------,329431.0899999982,329430.39999999746,328961.166,328968.14999999333,328978.107,329444.627,,36,and
screen,html.Screen,2_1_1_1_37,2021-04-26T18:52:42.026Z,,,,,,,,,,,,,,,,,54,,,,,,,,,,,,,,353.22299999539973,,response,,,,100,,,,,,,Space,keypress(Space),,,,,,,,-- --- ---- --- ------ ----- ------- ---- -- --- ------- --<br>------- ---------- ------ -- ----- -- ----- -- ---- ------<br>--- ----- --- --- ------ -------- ----- --- ------ ----- --<br>----- ----- ---------- --- the ------ ------ ---- -- ------<br>------- --- ------ ----- --- ---- ------- -- ---- --- --<br>------- ------,329799.69499999424,329797.8499999954,329428.024,329431.2349999964,329444.627,329811.226,,37,the
screen,html.Screen,2_1_1_1_38,2021-04-26T18:52:42.441Z,,,,,,,,,,,,,,,,,54,,,,,,,,,,,,,,402.5189999936265,,response,,,,100,,,,,,,Space,keypress(Space),,,,,,,,-- --- ---- --- ------ ----- ------- ---- -- --- ------- --<br>------- ---------- ------ -- ----- -- ----- -- ---- ------<br>--- ----- --- --- ------ -------- ----- --- ------ ----- --<br>----- ----- ---------- --- --- market ------ ---- -- ------<br>------- --- ------ ----- --- ---- ------- -- ---- --- --<br>------- ------,330214.79499999987,330213.74499999365,329794.682,329799.98499999783,329811.226,330228.06,,38,market
screen,html.Screen,2_1_1_1_39,2021-04-26T18:52:42.913Z,,,,,,,,,,,,,,,,,54,,,,,,,,,,,,,,457.7399999992922,,response,,,,100,,,,,,,Space,keypress(Space),,,,,,,,-- --- ---- --- ------ ----- ------- ---- -- --- ------- --<br>------- ---------- ------ -- ----- -- ----- -- ---- ------<br>--- ----- --- --- ------ -------- ----- --- ------ ----- --<br>----- ----- ---------- --- --- ------ became ---- -- ------<br>------- --- ------ ----- --- ---- ------- -- ---- --- --<br>------- ------,330686.9200000001,330685.7999999993,330211.217,330215.07500000007,330228.06,330694.508,,39,became
screen,html.Screen,2_1_1_1_40,2021-04-26T18:52:43.290Z,,,,,,,,,,,,,,,,,54,,,,,,,,,,,,,,367.2469999952009,,response,,,,100,,,,,,,Space,keypress(Space),,,,,,,,-- --- ---- --- ------ ----- ------- ---- -- --- ------- --<br>------- ---------- ------ -- ----- -- ----- -- ---- ------<br>--- ----- --- --- ------ -------- ----- --- ------ ----- --<br>----- ----- ---------- --- --- ------ ------ wary -- ------<br>------- --- ------ ----- --- ---- ------- -- ---- --- --<br>------- ------,331063.58499999624,331061.7549999952,330677.868,330687.1899999969,330694.508,331077.928,,40,wary
screen,html.Screen,2_1_1_1_41,2021-04-26T18:52:43.688Z,,,,,,,,,,,,,,,,,54,,,,,,,,,,,,,,383.5519999981043,,response,,,,100,,,,,,,Space,keypress(Space),,,,,,,,-- --- ---- --- ------ ----- ------- ---- -- --- ------- --<br>------- ---------- ------ -- ----- -- ----- -- ---- ------<br>--- ----- --- --- ------ -------- ----- --- ------ ----- --<br>----- ----- ---------- --- --- ------ ------ ---- of ------<br>------- --- ------ ----- --- ---- ------- -- ---- --- --<br>------- ------,331462.139999996,331461.4799999981,331061.135,331063.85500000033,331077.928,331477.976,,41,of
screen,html.Screen,2_1_1_1_42,2021-04-26T18:52:44.042Z,,,,,,,,,,,,,,,,,54,,,,,,,,,,,,,,335.9439999932074,,response,,,,100,,,,,,,Space,keypress(Space),,,,,,,,-- --- ---- --- ------ ----- ------- ---- -- --- ------- --<br>------- ---------- ------ -- ----- -- ----- -- ---- ------<br>--- ----- --- --- ------ -------- ----- --- ------ ----- --<br>----- ----- ---------- --- --- ------ ------ ---- -- French<br>------- --- ------ ----- --- ---- ------- -- ---- --- --<br>------- ------,331815.794999995,331813.91999999323,331461.375,331462.27999999974,331477.976,331827.882,,42,French
screen,html.Screen,2_1_1_1_43,2021-04-26T18:52:46.441Z,,,,,,,,,,,,,,,,,54,,,,,,,,,,,,,,2385.962999998417,,response,,,,100,,,,,,,Space,keypress(Space),,,,,,,,-- --- ---- --- ------ ----- ------- ---- -- --- ------- --<br>------- ---------- ------ -- ----- -- ----- -- ---- ------<br>--- ----- --- --- ------ -------- ----- --- ------ ----- --<br>----- ----- ---------- --- --- ------ ------ ---- -- ------<br>credit. --- ------ ----- --- ---- ------- -- ---- --- --<br>------- ------,334215.0049999982,334213.8449999984,331811.251,331816.38499999826,331827.882,334228.129,,43,credit.
screen,html.Screen,2_1_1_1_44,2021-04-26T18:52:47.153Z,,,,,,,,,,,,,,,,,54,,,,,,,,,,,,,,697.5759999941802,,response,,,,100,,,,,,,Space,keypress(Space),,,,,,,,-- --- ---- --- ------ ----- ------- ---- -- --- ------- --<br>------- ---------- ------ -- ----- -- ----- -- ---- ------<br>--- ----- --- --- ------ -------- ----- --- ------ ----- --<br>----- ----- ---------- --- --- ------ ------ ---- -- ------<br>------- The ------ ----- --- ---- ------- -- ---- --- --<br>------- ------,334926.8599999996,334925.7049999942,334211.254,334215.2849999984,334228.129,334944.736,,44,The
screen,html.Screen,2_1_1_1_45,2021-04-26T18:52:47.905Z,,,,,,,,,,,,,,,,,54,,,,,,,,,,,,,,733.0139999953099,,response,,,,100,,,,,,,Space,keypress(Space),,,,,,,,-- --- ---- --- ------ ----- ------- ---- -- --- ------- --<br>------- ---------- ------ -- ----- -- ----- -- ---- ------<br>--- ----- --- --- ------ -------- ----- --- ------ ----- --<br>----- ----- ---------- --- --- ------ ------ ---- -- ------<br>------- --- French ----- --- ---- ------- -- ---- --- --<br>------- ------,335679.00999999983,335677.7499999953,334911.442,334927.1349999981,334944.736,335694.773,,45,French
screen,html.Screen,2_1_1_1_46,2021-04-26T18:52:49.298Z,,,,,,,,,,,,,,,,,54,,,,,,,,,,,,,,1375.0769999998738,,response,,,,100,,,,,,,Space,keypress(Space),,,,,,,,-- --- ---- --- ------ ----- ------- ---- -- --- ------- --<br>------- ---------- ------ -- ----- -- ----- -- ---- ------<br>--- ----- --- --- ------ -------- ----- --- ------ ----- --<br>----- ----- ---------- --- --- ------ ------ ---- -- ------<br>------- --- ------ state --- ---- ------- -- ---- --- --<br>------- ------,337071.809999994,337069.84999999986,335678.033,335679.29499999445,335694.773,337078.031,,46,state
screen,html.Screen,2_1_1_1_47,2021-04-26T18:52:50.514Z,,,,,,,,,,,,,,,,,54,,,,,,,,,,,,,,1207.8139999984996,,response,,,,100,,,,,,,Space,keypress(Space),,,,,,,,-- --- ---- --- ------ ----- ------- ---- -- --- ------- --<br>------- ---------- ------ -- ----- -- ----- -- ---- ------<br>--- ----- --- --- ------ -------- ----- --- ------ ----- --<br>----- ----- ---------- --- --- ------ ------ ---- -- ------<br>------- --- ------ ----- was ---- ------- -- ---- --- --<br>------- ------,338287.71499999857,338285.8449999985,337061.279,337072.0899999942,337078.031,338294.836,,47,was
screen,html.Screen,2_1_1_1_48,2021-04-26T18:52:51.178Z,,,,,,,,,,,,,,,,,54,,,,,,,,,,,,,,655.1389999958919,,response,,,,100,,,,,,,Space,keypress(Space),,,,,,,,-- --- ---- --- ------ ----- ------- ---- -- --- ------- --<br>------- ---------- ------ -- ----- -- ----- -- ---- ------<br>--- ----- --- --- ------ -------- ----- --- ------ ----- --<br>----- ----- ---------- --- --- ------ ------ ---- -- ------<br>------- --- ------ ----- --- left ------- -- ---- --- --<br>------- ------,338951.87499999884,338949.9749999959,338277.968,338288.0049999949,338294.836,338961.261,,48,left
screen,html.Screen,2_1_1_1_49,2021-04-26T18:52:51.770Z,,,,,,,,,,,,,,,,,54,,,,,,,,,,,,,,581.1839999991353,,response,,,,100,,,,,,,Space,keypress(Space),,,,,,,,-- --- ---- --- ------ ----- ------- ---- -- --- ------- --<br>------- ---------- ------ -- ----- -- ----- -- ---- ------<br>--- ----- --- --- ------ -------- ----- --- ------ ----- --<br>----- ----- ---------- --- --- ------ ------ ---- -- ------<br>------- --- ------ ----- --- ---- without -- ---- --- --<br>------- ------,339543.6950000003,339542.44499999913,338944.685,338952.42999999755,338961.261,339578.135,,49,without
screen,html.Screen,2_1_1_1_50,2021-04-26T18:52:52.433Z,,,,,,,,,,,,,,,,,54,,,,,,,,,,,,,,627.5849999981001,,response,,,,100,,,,,,,Space,keypress(Space),,,,,,,,-- --- ---- --- ------ ----- ------- ---- -- --- ------- --<br>------- ---------- ------ -- ----- -- ----- -- ---- ------<br>--- ----- --- --- ------ -------- ----- --- ------ ----- --<br>----- ----- ---------- --- --- ------ ------ ---- -- ------<br>------- --- ------ ----- --- ---- ------- an ---- --- --<br>------- ------,340206.9699999993,340205.7199999981,339561.381,339543.9799999949,339578.135,340211.374,,50,an
screen,html.Screen,2_1_1_1_51,2021-04-26T18:52:52.962Z,,,,,,,,,,,,,,,,,54,,,,,,,,,,,,,,522.4059999950114,,response,,,,100,,,,,,,Space,keypress(Space),,,,,,,,-- --- ---- --- ------ ----- ------- ---- -- --- ------- --<br>------- ---------- ------ -- ----- -- ----- -- ---- ------<br>--- ----- --- --- ------ -------- ----- --- ------ ----- --<br>----- ----- ---------- --- --- ------ ------ ---- -- ------<br>------- --- ------ ----- --- ---- ------- -- easy --- --<br>------- ------,340735.68499999965,340733.779999995,340194.725,340207.2349999944,340211.374,340744.603,,51,easy
screen,html.Screen,2_1_1_1_52,2021-04-26T18:52:53.402Z,,,,,,,,,,,,,,,,,54,,,,,,,,,,,,,,429.1169999988633,,response,,,,100,,,,,,,Space,keypress(Space),,,,,,,,-- --- ---- --- ------ ----- ------- ---- -- --- ------- --<br>------- ---------- ------ -- ----- -- ----- -- ---- ------<br>--- ----- --- --- ------ -------- ----- --- ------ ----- --<br>----- ----- ---------- --- --- ------ ------ ---- -- ------<br>------- --- ------ ----- --- ---- ------- -- ---- way --<br>------- ------,341175.6499999974,341173.71999999887,340728.079,340735.99499999546,340744.603,341178.06,,52,way
screen,html.Screen,2_1_1_1_53,2021-04-26T18:52:54.066Z,,,,,,,,,,,,,,,,,54,,,,,,,,,,,,,,659.7499999972642,,response,,,,100,,,,,,,Space,keypress(Space),,,,,,,,-- --- ---- --- ------ ----- ------- ---- -- --- ------- --<br>------- ---------- ------ -- ----- -- ----- -- ---- ------<br>--- ----- --- --- ------ -------- ----- --- ------ ----- --<br>----- ----- ---------- --- --- ------ ------ ---- -- ------<br>------- --- ------ ----- --- ---- ------- -- ---- --- of<br>------- ------,341839.6549999961,341837.80999999726,341161.419,341175.9499999971,341178.06,341844.665,,53,of
screen,html.Screen,2_1_1_1_54,2021-04-26T18:52:54.601Z,,,,,,,,,,,,,,,,,54,,,,,,,,,,,,,,529.0349999964819,,response,,,,100,,,,,,,Space,keypress(Space),,,,,,,,-- --- ---- --- ------ ----- ------- ---- -- --- ------- --<br>------- ---------- ------ -- ----- -- ----- -- ---- ------<br>--- ----- --- --- ------ -------- ----- --- ------ ----- --<br>----- ----- ---------- --- --- ------ ------ ---- -- ------<br>------- --- ------ ----- --- ---- ------- -- ---- --- --<br>raising ------,342374.80499999947,342373.69999999646,341828.081,341839.93499999633,341844.665,342378.048,,54,raising
screen,html.Screen,2_1_1_1_55,2021-04-26T18:52:56.082Z,,,,,,,,,,,,,,,,,54,,,,,,,,,,,,,,1475.7069999964442,,response,,,,100,,,,,,,Space,keypress(Space),,,,,,,,-- --- ---- --- ------ ----- ------- ---- -- --- ------- --<br>------- ---------- ------ -- ----- -- ----- -- ---- ------<br>--- ----- --- --- ------ -------- ----- --- ------ ----- --<br>----- ----- ---------- --- --- ------ ------ ---- -- ------<br>------- --- ------ ----- --- ---- ------- -- ---- --- --<br>------- money.,343855.6549999994,343853.75499999645,342361.395,342375.0699999946,342378.048,343878.021,,55,money.
Item 100,flow.Loop,2_1_1_1,2021-04-26T18:52:56.082Z,,,,,,,,,,,,,,,,,,,,,,,,,,,,,,,37325.91099999647,,completion,,,,,D,,,,,,,,,,,silence,,,,,343856.1749999935,343853.75499999645,306511.061,306516.8749999939,306527.844,343878.021,,,
Question 1,html.Screen,2_1_1_2,2021-04-26T18:53:00.404Z,,,,,,,,,,,,,,,,,,,,,,,,,,,,true,TRUE,,4298.413999993936,,response,,,,100,D,,,,,,TRUE,click #choice-1,,,,silence,,,,,348177.54499999864,348176.43499999394,343844.607,343856.41999999643,343878.021,348178.005,,,
Question 2,html.Screen,2_1_1_3,2021-04-26T18:53:03.707Z,,,,,,,,,,,,,,,,,,,,,,,,,,,,true,FALSE,,3302.2599999983213,,response,,,,100,D,,,,,,FALSE,click #choice-2,,,,silence,,,,,351481.29999999946,351480.2649999983,348161.461,348177.7099999963,348178.005,351494.917,,,
Item 100,flow.Sequence,2_1_1,2021-04-26T18:53:03.708Z,,,,,,,,,,,,,,,,,,,,,,,,,,,,,,,54952.467999998305,,completion,,,,,,,,,,,,,,,,,,,,,351481.57999999967,351480.2649999983,296510.991,296506.0400000002,296527.797,351494.917,,,
End of Practice,html.Page,2_1_2,2021-04-26T18:53:23.705Z,,,,,,,,,,,,,,,,,,,,,,,,,,,,,,,20000.041999999958,,timeout,,,,,,,,,,,,,,,,,,,,,371478.6349999995,371478.156,351478.017,351481.66999999376,351494.917,371494.959,,,
Practice,flow.Sequence,2_1,2021-04-26T18:53:23.705Z,,,,,,,,,,,,,,,,,,,,,,,,,,,,,,,134717.66100000002,,completion,,,,,,,,,,,,,,,,,,,,,371478.81999999663,371478.156,236744.018,236747.05999999424,236760.495,371494.959,,,
Trap_instruction,html.Page,2_2_0,2021-04-26T18:53:34.020Z,,,,,,,,,,,,,,,,,,,,,,,,,,,,,,,10298.375999994867,,form submission,,,,,,,,,,,,,,,,,,,,,381793.7199999942,381793.33499999484,371478.156,371478.9649999948,371494.959,381811.567,,,
trap_trial,html.Screen,2_2_1,2021-04-26T18:53:37.795Z,,,,,,,,,,,,,,,,,,,,,,,,,,,,true,1,,3756.47299999831,,response,,,,,,,,,,,1,click #choice-1,,,,,,,,,385569.25000000047,385568.0399999983,381778.348,381793.84500000015,381811.567,385578.243,,,
end of trap trial,html.Page,2_2_2,2021-04-26T18:53:39.836Z,,,,,,,,,,,,,,,,,,,,,,,,,,,,,,,2031.2669999947539,,form submission,,,,,,,,,,,,,,,,,,,,,387609.80500000005,387609.50999999477,385561.693,385569.4099999964,385578.243,387611.612,,,
Trap 1,flow.Sequence,2_2,2021-04-26T18:53:39.836Z,,,,,,,,,,,,,,,,,,,,,,,,,,,,,,,16114.550999994797,,completion,,,,,,,,,,,,,,,,,,,,,387609.9549999999,387609.50999999477,371478.156,371478.9149999997,371494.959,387611.612,,,
Standby,html.Page,2_3_0,2021-04-26T18:53:47.822Z,,,,,,,,,,,,,,,,,,,,,,,,,,,,,,,8000.122999999963,,timeout,,,,,,,,,,,,,,,,,,,,,395596.0949999935,395595.1,387595.139,387610.07999999856,387611.612,395611.735,,,
Holding screen,html.Screen,2_3_1_0_0,2021-04-26T18:53:54.822Z,,,,,,,,,,,,,,,,,,,,,,,,,,,,,,,7000.008000000031,,timeout,,,,,,,,,,,,,,,,,,,,,402596.1849999949,402595.218,395595.1,395596.54999999475,395611.735,402611.743,,,
screen,html.Screen,2_3_1_0_1_0,2021-04-26T18:53:56.930Z,,,,,,,,,,,,,,,,,48,,,,,,,,,,,,,,2090.2269999946,,response,,,,10,D,,,,,,Space,keypress(Space),,,,silence,,,,As -- --- ------ ------- --------- ----------- --------<br>--------- -------- --- ------- -- ------- ---- -- ------<br>-- --- -------- -------- ---------- ---- ---- ---- ------<br>-- --------- -- ---- -- --- -- --- ------- -- - -----<br>---------- -- -- -- ---- ----- -- ------ -- --- ------<br>-------,404703.714999996,404701.9699999946,402595.218,402596.5649999998,402611.743,404711.785,,0,As
screen,html.Screen,2_3_1_0_1_1,2021-04-26T18:53:57.329Z,,,,,,,,,,,,,,,,,48,,,,,,,,,,,,,,389.43999999854714,,response,,,,10,D,,,,,,Space,keypress(Space),,,,silence,,,,-- in --- ------ ------- --------- ----------- --------<br>--------- -------- --- ------- -- ------- ---- -- ------<br>-- --- -------- -------- ---------- ---- ---- ---- ------<br>-- --------- -- ---- -- --- -- --- ------- -- - -----<br>---------- -- -- -- ---- ----- -- ------ -- --- ------<br>-------,405102.9449999987,405101.2249999985,404695.146,404704.0299999935,404711.785,405111.853,,1,in
screen,html.Screen,2_3_1_0_1_2,2021-04-26T18:53:57.801Z,,,,,,,,,,,,,,,,,48,,,,,,,,,,,,,,461.4370000002673,,response,,,,10,D,,,,,,Space,keypress(Space),,,,silence,,,,-- -- the ------ ------- --------- ----------- --------<br>--------- -------- --- ------- -- ------- ---- -- ------<br>-- --- -------- -------- ---------- ---- ---- ---- ------<br>-- --------- -- ---- -- --- -- --- ------- -- - -----<br>---------- -- -- -- ---- ----- -- ------ -- --- ------<br>-------,405574.9549999964,405573.29000000027,405095.216,405103.3199999947,405111.853,405578.529,,2,the
screen,html.Screen,2_3_1_0_1_3,2021-04-26T18:53:58.305Z,,,,,,,,,,,,,,,,,48,,,,,,,,,,,,,,498.63599999516737,,response,,,,10,D,,,,,,Space,keypress(Space),,,,silence,,,,-- -- --- United ------- --------- ----------- --------<br>--------- -------- --- ------- -- ------- ---- -- ------<br>-- --- -------- -------- ---------- ---- ---- ---- ------<br>-- --------- -- ---- -- --- -- --- ------- -- - -----<br>---------- -- -- -- ---- ----- -- ------ -- --- ------<br>-------,406078.8149999935,406077.16499999515,405561.775,405575.2149999971,405578.529,406095.227,,3,United
screen,html.Screen,2_3_1_0_1_4,2021-04-26T18:53:58.800Z,,,,,,,,,,,,,,,,,48,,,,,,,,,,,,,,477.95299999939743,,response,,,,10,D,,,,,,Space,keypress(Space),,,,silence,,,,"-- -- --- ------ States, --------- ----------- --------<br>--------- -------- --- ------- -- ------- ---- -- ------<br>-- --- -------- -------- ---------- ---- ---- ---- ------<br>-- --------- -- ---- -- --- -- --- ------- -- - -----<br>---------- -- -- -- ---- ----- -- ------ -- --- ------<br>-------",406574.1549999948,406573.1799999994,406078.422,406079.0749999942,406095.227,406578.523,,4,"States,"
screen,html.Screen,2_3_1_0_1_5,2021-04-26T18:53:59.824Z,,,,,,,,,,,,,,,,,48,,,,,,,,,,,,,,1018.6369999975432,,response,,,,10,D,,,,,,Space,keypress(Space),,,,silence,,,,-- -- --- ------ ------- Colombian ----------- --------<br>--------- -------- --- ------- -- ------- ---- -- ------<br>-- --- -------- -------- ---------- ---- ---- ---- ------<br>-- --------- -- ---- -- --- -- --- ------- -- - -----<br>---------- -- -- -- ---- ----- -- ------ -- --- ------<br>-------,407598.1049999973,407597.15999999753,406561.833,406574.4299999933,406578.523,407611.837,,5,Colombian
screen,html.Screen,2_3_1_0_1_6,2021-04-26T18:54:01.073Z,,,,,,,,,,,,,,,,,48,,,,,,,,,,,,,,1233.5129999959609,,response,,,,10,D,,,,,,Space,keypress(Space),,,,silence,,,,-- -- --- ------ ------- --------- legislation --------<br>--------- -------- --- ------- -- ------- ---- -- ------<br>-- --- -------- -------- ---------- ---- ---- ---- ------<br>-- --------- -- ---- -- --- -- --- ------- -- - -----<br>---------- -- -- -- ---- ----- -- ------ -- --- ------<br>-------,408846.9349999941,408845.34999999596,407595.203,407598.3749999941,407611.837,408861.824,,6,legislation
screen,html.Screen,2_3_1_0_1_7,2021-04-26T18:54:02.017Z,,,,,,,,,,,,,,,,,48,,,,,,,,,,,,,,927.40100000042,,response,,,,10,D,,,,,,Space,keypress(Space),,,,silence,,,,-- -- --- ------ ------- --------- ----------- requires<br>--------- -------- --- ------- -- ------- ---- -- ------<br>-- --- -------- -------- ---------- ---- ---- ---- ------<br>-- --------- -- ---- -- --- -- --- ------- -- - -----<br>---------- -- -- -- ---- ----- -- ------ -- --- ------<br>-------,409791.01499999524,409789.22500000044,408845.146,408847.1999999965,408861.824,409795.1,,7,requires
screen,html.Screen,2_3_1_0_1_8,2021-04-26T18:54:03.041Z,,,,,,,,,,,,,,,,,48,,,,,,,,,,,,,,1018.384999998787,,response,,,,10,D,,,,,,Space,keypress(Space),,,,silence,,,,-- -- --- ------ ------- --------- ----------- --------<br>travelers -------- --- ------- -- ------- ---- -- ------<br>-- --- -------- -------- ---------- ---- ---- ---- ------<br>-- --------- -- ---- -- --- -- --- ------- -- - -----<br>---------- -- -- -- ---- ----- -- ------ -- --- ------<br>-------,410815.0349999996,410813.48499999876,409778.492,409791.4449999953,409795.1,410828.673,,8,travelers
screen,html.Screen,2_3_1_0_1_9,2021-04-26T18:54:03.832Z,,,,,,,,,,,,,,,,,48,,,,,,,,,,,,,,776.5819999949308,,response,,,,10,D,,,,,,Space,keypress(Space),,,,silence,,,,-- -- --- ------ ------- --------- ----------- --------<br>--------- entering --- ------- -- ------- ---- -- ------<br>-- --- -------- -------- ---------- ---- ---- ---- ------<br>-- --------- -- ---- -- --- -- --- ------- -- - -----<br>---------- -- -- -- ---- ----- -- ------ -- --- ------<br>-------,411606.2199999942,411605.25499999494,410811.894,410815.30499999644,410828.673,411611.835,,9,entering
screen,html.Screen,2_3_1_0_1_10,2021-04-26T18:54:04.209Z,,,,,,,,,,,,,,,,,48,,,,,,,,,,,,,,369.4449999999488,,response,,,,10,D,,,,,,Space,keypress(Space),,,,silence,,,,-- -- --- ------ ------- --------- ----------- --------<br>--------- -------- the ------- -- ------- ---- -- ------<br>-- --- -------- -------- ---------- ---- ---- ---- ------<br>-- --------- -- ---- -- --- -- --- ------- -- - -----<br>---------- -- -- -- ---- ----- -- ------ -- --- ------<br>-------,411982.9199999949,411981.27999999997,411595.391,411606.4849999966,411611.835,411995.215,,10,the
screen,html.Screen,2_3_1_0_1_11,2021-04-26T18:54:04.712Z,,,,,,,,,,,,,,,,,48,,,,,,,,,,,,,,489.88999999972293,,response,,,,10,D,,,,,,Space,keypress(Space),,,,silence,,,,-- -- --- ------ ------- --------- ----------- --------<br>--------- -------- --- country -- ------- ---- -- ------<br>-- --- -------- -------- ---------- ---- ---- ---- ------<br>-- --------- -- ---- -- --- -- --- ------- -- - -----<br>---------- -- -- -- ---- ----- -- ------ -- --- ------<br>-------,412486.23499999667,412485.10499999975,411978.488,411983.189999999,411995.215,412495.302,,11,country
screen,html.Screen,2_3_1_0_1_12,2021-04-26T18:54:05.129Z,,,,,,,,,,,,,,,,,48,,,,,,,,,,,,,,405.81299999327166,,response,,,,10,D,,,,,,Space,keypress(Space),,,,silence,,,,-- -- --- ------ ------- --------- ----------- --------<br>--------- -------- --- ------- to ------- ---- -- ------<br>-- --- -------- -------- ---------- ---- ---- ---- ------<br>-- --------- -- ---- -- --- -- --- ------- -- - -----<br>---------- -- -- -- ---- ----- -- ------ -- --- ------<br>-------,412902.93999999994,412901.1149999933,412478.598,412486.49999999907,412495.302,412911.902,,12,to
screen,html.Screen,2_3_1_0_1_13,2021-04-26T18:54:05.832Z,,,,,,,,,,,,,,,,,48,,,,,,,,,,,,,,693.1629999961006,,response,,,,10,D,,,,,,Space,keypress(Space),,,,silence,,,,-- -- --- ------ ------- --------- ----------- --------<br>--------- -------- --- ------- -- declare ---- -- ------<br>-- --- -------- -------- ---------- ---- ---- ---- ------<br>-- --------- -- ---- -- --- -- --- ------- -- - -----<br>---------- -- -- -- ---- ----- -- ------ -- --- ------<br>-------,413606.1649999974,413605.0649999961,412895.205,412903.20499999507,412911.902,413611.865,,13,declare
screen,html.Screen,2_3_1_0_1_14,2021-04-26T18:54:06.353Z,,,,,,,,,,,,,,,,,48,,,,,,,,,,,,,,513.2650000003632,,response,,,,10,D,,,,,,Space,keypress(Space),,,,silence,,,,-- -- --- ------ ------- --------- ----------- --------<br>--------- -------- --- ------- -- ------- cash -- ------<br>-- --- -------- -------- ---------- ---- ---- ---- ------<br>-- --------- -- ---- -- --- -- --- ------- -- - -----<br>---------- -- -- -- ---- ----- -- ------ -- --- ------<br>-------,414127.0049999948,414125.13000000035,413595.262,413606.4299999998,413611.865,414161.95,,14,cash
screen,html.Screen,2_3_1_0_1_15,2021-04-26T18:54:06.848Z,,,,,,,,,,,,,,,,,48,,,,,,,,,,,,,,459.14999999664724,,response,,,,10,D,,,,,,Space,keypress(Space),,,,silence,,,,-- -- --- ------ ------- --------- ----------- --------<br>--------- -------- --- ------- -- ------- ---- in ------<br>-- --- -------- -------- ---------- ---- ---- ---- ------<br>-- --------- -- ---- -- --- -- --- ------- -- - -----<br>---------- -- -- -- ---- ----- -- ------ -- --- ------<br>-------,414622.26999999984,414621.09999999666,414145.31,414127.27999999333,414161.95,414628.694,,15,in
screen,html.Screen,2_3_1_0_1_16,2021-04-26T18:54:07.537Z,,,,,,,,,,,,,,,,,48,,,,,,,,,,,,,,681.0909999976284,,response,,,,10,D,,,,,,Space,keypress(Space),,,,silence,,,,-- -- --- ------ ------- --------- ----------- --------<br>--------- -------- --- ------- -- ------- ---- -- excess<br>-- --- -------- -------- ---------- ---- ---- ---- ------<br>-- --------- -- ---- -- --- -- --- ------- -- - -----<br>---------- -- -- -- ---- ----- -- ------ -- --- ------<br>-------,415311.3499999963,415309.78499999765,414611.846,414622.54499999835,414628.694,415328.626,,16,excess
screen,html.Screen,2_3_1_0_1_17,2021-04-26T18:54:08.001Z,,,,,,,,,,,,,,,,,48,,,,,,,,,,,,,,444.5839999993914,,response,,,,10,D,,,,,,Space,keypress(Space),,,,silence,,,,-- -- --- ------ ------- --------- ----------- --------<br>--------- -------- --- ------- -- ------- ---- -- ------<br>of --- -------- -------- ---------- ---- ---- ---- ------<br>-- --------- -- ---- -- --- -- --- ------- -- - -----<br>---------- -- -- -- ---- ----- -- ------ -- --- ------<br>-------,415775.03499999875,415773.2099999994,415311.875,415311.6249999948,415328.626,415778.481,,17,of
screen,html.Screen,2_3_1_0_1_18,2021-04-26T18:54:08.521Z,,,,,,,,,,,,,,,,,48,,,,,,,,,,,,,,514.5239999995101,,response,,,,10,D,,,,,,Space,keypress(Space),,,,silence,,,,-- -- --- ------ ------- --------- ----------- --------<br>--------- -------- --- ------- -- ------- ---- -- ------<br>-- ten -------- -------- ---------- ---- ---- ---- ------<br>-- --------- -- ---- -- --- -- --- ------- -- - -----<br>---------- -- -- -- ---- ----- -- ------ -- --- ------<br>-------,416294.67999999906,416293.00499999954,415761.791,415775.30499999557,415778.481,416311.912,,18,ten
screen,html.Screen,2_3_1_0_1_19,2021-04-26T18:54:09.193Z,,,,,,,,,,,,,,,,,48,,,,,,,,,,,,,,653.2579999958398,,response,,,,10,D,,,,,,Space,keypress(Space),,,,silence,,,,-- -- --- ------ ------- --------- ----------- --------<br>--------- -------- --- ------- -- ------- ---- -- ------<br>-- --- thousand -------- ---------- ---- ---- ---- ------<br>-- --------- -- ---- -- --- -- --- ------- -- - -----<br>---------- -- -- -- ---- ----- -- ------ -- --- ------<br>-------,416967.0399999959,416965.16999999585,416295.27,416294.9449999942,416311.912,416978.564,,19,thousand
screen,html.Screen,2_3_1_0_1_20,2021-04-26T18:54:10.009Z,,,,,,,,,,,,,,,,,48,,,,,,,,,,,,,,802.6109999964247,,response,,,,10,D,,,,,,Space,keypress(Space),,,,silence,,,,-- -- --- ------ ------- --------- ----------- --------<br>--------- -------- --- ------- -- ------- ---- -- ------<br>-- --- -------- dollars. ---------- ---- ---- ---- ------<br>-- --------- -- ---- -- --- -- --- ------- -- - -----<br>---------- -- -- -- ---- ----- -- ------ -- --- ------<br>-------,417783.14499999397,417781.17499999644,416961.912,416967.3599999951,416978.564,417795.339,,20,dollars.
screen,html.Screen,2_3_1_0_1_21,2021-04-26T18:54:14.136Z,,,,,,,,,,,,,,,,,48,,,,,,,,,,,,,,4113.765999998839,,response,,,,10,D,,,,,,Space,keypress(Space),,,,silence,,,,-- -- --- ------ ------- --------- ----------- --------<br>--------- -------- --- ------- -- ------- ---- -- ------<br>-- --- -------- -------- Concealing ---- ---- ---- ------<br>-- --------- -- ---- -- --- -- --- ------- -- - -----<br>---------- -- -- -- ---- ----- -- ------ -- --- ------<br>-------,421910.2999999959,421909.1049999988,417778.514,417783.41999999975,417795.339,421929.084,,21,Concealing
screen,html.Screen,2_3_1_0_1_22,2021-04-26T18:54:14.687Z,,,,,,,,,,,,,,,,,48,,,,,,,,,,,,,,531.7009999956936,,response,,,,10,D,,,,,,Space,keypress(Space),,,,silence,,,,-- -- --- ------ ------- --------- ----------- --------<br>--------- -------- --- ------- -- ------- ---- -- ------<br>-- --- -------- -------- ---------- more ---- ---- ------<br>-- --------- -- ---- -- --- -- --- ------- -- - -----<br>---------- -- -- -- ---- ----- -- ------ -- --- ------<br>-------,422461.5449999983,422460.78499999567,421895.093,421910.57,421929.084,422478.691,,22,more
screen,html.Screen,2_3_1_0_1_23,2021-04-26T18:54:15.081Z,,,,,,,,,,,,,,,,,48,,,,,,,,,,,,,,374.45899999537505,,response,,,,10,D,,,,,,Space,keypress(Space),,,,silence,,,,-- -- --- ------ ------- --------- ----------- --------<br>--------- -------- --- ------- -- ------- ---- -- ------<br>-- --- -------- -------- ---------- ---- than ---- ------<br>-- --------- -- ---- -- --- -- --- ------- -- - -----<br>---------- -- -- -- ---- ----- -- ------ -- --- ------<br>-------,422855.0749999995,422853.14999999537,422461.894,422461.72499999375,422478.691,422862.119,,23,than
screen,html.Screen,2_3_1_0_1_24,2021-04-26T18:54:15.464Z,,,,,,,,,,,,,,,,,48,,,,,,,,,,,,,,375.1359999999986,,response,,,,10,D,,,,,,Space,keypress(Space),,,,silence,,,,-- -- --- ------ ------- --------- ----------- --------<br>--------- -------- --- ------- -- ------- ---- -- ------<br>-- --- -------- -------- ---------- ---- ---- that ------<br>-- --------- -- ---- -- --- -- --- ------- -- - -----<br>---------- -- -- -- ---- ----- -- ------ -- --- ------<br>-------,423238.33000000013,423237.255,422845.327,422855.349999998,422862.119,423245.185,,24,that
screen,html.Screen,2_3_1_0_1_25,2021-04-26T18:54:15.848Z,,,,,,,,,,,,,,,,,48,,,,,,,,,,,,,,375.8899999954738,,response,,,,10,D,,,,,,Space,keypress(Space),,,,silence,,,,-- -- --- ------ ------- --------- ----------- --------<br>--------- -------- --- ------- -- ------- ---- -- ------<br>-- --- -------- -------- ---------- ---- ---- ---- amount<br>-- --------- -- ---- -- --- -- --- ------- -- - -----<br>---------- -- -- -- ---- ----- -- ------ -- --- ------<br>-------,423622.1149999983,423621.0749999955,423228.68,423238.4749999983,423245.185,423628.664,,25,amount
screen,html.Screen,2_3_1_0_1_26,2021-04-26T18:54:16.280Z,,,,,,,,,,,,,,,,,48,,,,,,,,,,,,,,423.98599999782164,,response,,,,10,D,,,,,,Space,keypress(Space),,,,silence,,,,-- -- --- ------ ------- --------- ----------- --------<br>--------- -------- --- ------- -- ------- ---- -- ------<br>-- --- -------- -------- ---------- ---- ---- ---- ------<br>to --------- -- ---- -- --- -- --- ------- -- - -----<br>---------- -- -- -- ---- ----- -- ------ -- --- ------<br>-------,424053.8499999966,424052.6499999978,423611.932,423622.374999999,423628.664,424061.871,,26,to
screen,html.Screen,2_3_1_0_1_27,2021-04-26T18:54:16.833Z,,,,,,,,,,,,,,,,,48,,,,,,,,,,,,,,543.2439999984927,,response,,,,10,D,,,,,,Space,keypress(Space),,,,silence,,,,-- -- --- ------ ------- --------- ----------- --------<br>--------- -------- --- ------- -- ------- ---- -- ------<br>-- --- -------- -------- ---------- ---- ---- ---- ------<br>-- transport -- ---- -- --- -- --- ------- -- - -----<br>---------- -- -- -- ---- ----- -- ------ -- --- ------<br>-------,424606.97999999684,424605.1149999985,424045.63,424053.96999999357,424061.871,424611.881,,27,transport
screen,html.Screen,2_3_1_0_1_28,2021-04-26T18:54:17.305Z,,,,,,,,,,,,,,,,,48,,,,,,,,,,,,,,465.1639999981853,,response,,,,10,D,,,,,,Space,keypress(Space),,,,silence,,,,-- -- --- ------ ------- --------- ----------- --------<br>--------- -------- --- ------- -- ------- ---- -- ------<br>-- --- -------- -------- ---------- ---- ---- ---- ------<br>-- --------- it ---- -- --- -- --- ------- -- - -----<br>---------- -- -- -- ---- ----- -- ------ -- --- ------<br>-------,425078.90000000043,425077.0449999982,424595.179,424607.29499999434,424611.881,425095.436,,28,it
screen,html.Screen,2_3_1_0_1_29,2021-04-26T18:54:17.882Z,,,,,,,,,,,,,,,,,48,,,,,,,,,,,,,,558.5439999955124,,response,,,,10,D,,,,,,Space,keypress(Space),,,,silence,,,,-- -- --- ------ ------- --------- ----------- --------<br>--------- -------- --- ------- -- ------- ---- -- ------<br>-- --- -------- -------- ---------- ---- ---- ---- ------<br>-- --------- -- into -- --- -- --- ------- -- - -----<br>---------- -- -- -- ---- ----- -- ------ -- --- ------<br>-------,425655.89499999624,425653.9799999955,425078.647,425079.16499999556,425095.436,425662.001,,29,into
screen,html.Screen,2_3_1_0_1_30,2021-04-26T18:54:18.305Z,,,,,,,,,,,,,,,,,48,,,,,,,,,,,,,,415.07399999379413,,response,,,,10,D,,,,,,Space,keypress(Space),,,,silence,,,,-- -- --- ------ ------- --------- ----------- --------<br>--------- -------- --- ------- -- ------- ---- -- ------<br>-- --- -------- -------- ---------- ---- ---- ---- ------<br>-- --------- -- ---- or --- -- --- ------- -- - -----<br>---------- -- -- -- ---- ----- -- ------ -- --- ------<br>-------,426079.0549999947,426077.0749999938,425645.189,425656.45499999664,425662.001,426095.435,,30,or
screen,html.Screen,2_3_1_0_1_31,2021-04-26T18:54:18.744Z,,,,,,,,,,,,,,,,,48,,,,,,,,,,,,,,421.4499999972759,,response,,,,10,D,,,,,,Space,keypress(Space),,,,silence,,,,-- -- --- ------ ------- --------- ----------- --------<br>--------- -------- --- ------- -- ------- ---- -- ------<br>-- --- -------- -------- ---------- ---- ---- ---- ------<br>-- --------- -- ---- -- out -- --- ------- -- - -----<br>---------- -- -- -- ---- ----- -- ------ -- --- ------<br>-------,426518.07999999437,426516.8849999973,426078.647,426079.3399999966,426095.435,426528.738,,31,out
screen,html.Screen,2_3_1_0_1_32,2021-04-26T18:54:19.097Z,,,,,,,,,,,,,,,,,48,,,,,,,,,,,,,,340.3219999972498,,response,,,,10,D,,,,,,Space,keypress(Space),,,,silence,,,,-- -- --- ------ ------- --------- ----------- --------<br>--------- -------- --- ------- -- ------- ---- -- ------<br>-- --- -------- -------- ---------- ---- ---- ---- ------<br>-- --------- -- ---- -- --- of --- ------- -- - -----<br>---------- -- -- -- ---- ----- -- ------ -- --- ------<br>-------,426870.9999999992,426869.05999999726,426511.916,426518.35500000016,426528.738,426878.69,,32,of
screen,html.Screen,2_3_1_0_1_33,2021-04-26T18:54:19.400Z,,,,,,,,,,,,,,,,,48,,,,,,,,,,,,,,294.239999993355,,response,,,,10,D,,,,,,Space,keypress(Space),,,,silence,,,,-- -- --- ------ ------- --------- ----------- --------<br>--------- -------- --- ------- -- ------- ---- -- ------<br>-- --- -------- -------- ---------- ---- ---- ---- ------<br>-- --------- -- ---- -- --- -- the ------- -- - -----<br>---------- -- -- -- ---- ----- -- ------ -- --- ------<br>-------,427174.04999999417,427172.92999999336,426862.041,426871.269999996,426878.69,427178.611,,33,the
screen,html.Screen,2_3_1_0_1_34,2021-04-26T18:54:19.816Z,,,,,,,,,,,,,,,,,48,,,,,,,,,,,,,,410.31399999640416,,response,,,,10,D,,,,,,Space,keypress(Space),,,,silence,,,,-- -- --- ------ ------- --------- ----------- --------<br>--------- -------- --- ------- -- ------- ---- -- ------<br>-- --- -------- -------- ---------- ---- ---- ---- ------<br>-- --------- -- ---- -- --- -- --- country -- - -----<br>---------- -- -- -- ---- ----- -- ------ -- --- ------<br>-------,427590.17499999754,427588.9249999964,427161.968,427174.34499999945,427178.611,427595.297,,34,country
screen,html.Screen,2_3_1_0_1_35,2021-04-26T18:54:20.552Z,,,,,,,,,,,,,,,,,48,,,,,,,,,,,,,,729.7229999965639,,response,,,,10,D,,,,,,Space,keypress(Space),,,,silence,,,,-- -- --- ------ ------- --------- ----------- --------<br>--------- -------- --- ------- -- ------- ---- -- ------<br>-- --- -------- -------- ---------- ---- ---- ---- ------<br>-- --------- -- ---- -- --- -- --- ------- is - -----<br>---------- -- -- -- ---- ----- -- ------ -- --- ------<br>-------,428326.25999999436,428325.0199999966,427578.646,427590.44499999436,427595.297,428328.564,,35,is
screen,html.Screen,2_3_1_0_1_36,2021-04-26T18:54:21.008Z,,,,,,,,,,,,,,,,,48,,,,,,,,,,,,,,452.5059999972582,,response,,,,10,D,,,,,,Space,keypress(Space),,,,silence,,,,-- -- --- ------ ------- --------- ----------- --------<br>--------- -------- --- ------- -- ------- ---- -- ------<br>-- --- -------- -------- ---------- ---- ---- ---- ------<br>-- --------- -- ---- -- --- -- --- ------- -- a -----<br>---------- -- -- -- ---- ----- -- ------ -- --- ------<br>-------,428782.2049999959,428781.0699999973,428311.943,428326.53500000015,428328.564,428795.273,,36,a
screen,html.Screen,2_3_1_0_1_37,2021-04-26T18:54:21.665Z,,,,,,,,,,,,,,,,,48,,,,,,,,,,,,,,641.8719999962486,,response,,,,10,D,,,,,,Space,keypress(Space),,,,silence,,,,-- -- --- ------ ------- --------- ----------- --------<br>--------- -------- --- ------- -- ------- ---- -- ------<br>-- --- -------- -------- ---------- ---- ---- ---- ------<br>-- --------- -- ---- -- --- -- --- ------- -- - crime<br>---------- -- -- -- ---- ----- -- ------ -- --- ------<br>-------,429438.82999999914,429437.14499999624,428778.548,428782.4899999978,428795.273,429461.953,,37,crime
screen,html.Screen,2_3_1_0_1_38,2021-04-26T18:54:22.393Z,,,,,,,,,,,,,,,,,48,,,,,,,,,,,,,,703.2419999941485,,response,,,,10,D,,,,,,Space,keypress(Space),,,,silence,,,,-- -- --- ------ ------- --------- ----------- --------<br>--------- -------- --- ------- -- ------- ---- -- ------<br>-- --- -------- -------- ---------- ---- ---- ---- ------<br>-- --------- -- ---- -- --- -- --- ------- -- - -----<br>punishable -- -- -- ---- ----- -- ------ -- --- ------<br>-------,430167.10500000045,430165.1949999941,429428.728,429439.10499999765,429461.953,430178.622,,38,punishable
screen,html.Screen,2_3_1_0_1_39,2021-04-26T18:54:22.904Z,,,,,,,,,,,,,,,,,48,,,,,,,,,,,,,,498.3079999941983,,response,,,,10,D,,,,,,Space,keypress(Space),,,,silence,,,,-- -- --- ------ ------- --------- ----------- --------<br>--------- -------- --- ------- -- ------- ---- -- ------<br>-- --- -------- -------- ---------- ---- ---- ---- ------<br>-- --------- -- ---- -- --- -- --- ------- -- - -----<br>---------- by -- -- ---- ----- -- ------ -- --- ------<br>-------,430678.17499999364,430676.9299999942,430161.933,430167.3699999956,430178.622,430695.374,,39,by
screen,html.Screen,2_3_1_0_1_40,2021-04-26T18:54:23.952Z,,,,,,,,,,,,,,,,,48,,,,,,,,,,,,,,1029.595999995654,,response,,,,10,D,,,,,,Space,keypress(Space),,,,silence,,,,-- -- --- ------ ------- --------- ----------- --------<br>--------- -------- --- ------- -- ------- ---- -- ------<br>-- --- -------- -------- ---------- ---- ---- ---- ------<br>-- --------- -- ---- -- --- -- --- ------- -- - -----<br>---------- -- up -- ---- ----- -- ------ -- --- ------<br>-------,431726.1049999943,431724.96999999566,430678.614,430678.45499999385,430695.374,431728.658,,40,up
screen,html.Screen,2_3_1_0_1_41,2021-04-26T18:54:24.617Z,,,,,,,,,,,,,,,,,48,,,,,,,,,,,,,,660.3419999955804,,response,,,,10,D,,,,,,Space,keypress(Space),,,,silence,,,,-- -- --- ------ ------- --------- ----------- --------<br>--------- -------- --- ------- -- ------- ---- -- ------<br>-- --- -------- -------- ---------- ---- ---- ---- ------<br>-- --------- -- ---- -- --- -- --- ------- -- - -----<br>---------- -- -- to ---- ----- -- ------ -- --- ------<br>-------,432390.9399999975,432388.9999999956,431711.986,431726.3699999967,431728.658,432395.271,,41,to
