sender,sender_type,sender_id,timestamp,meta,,Blues,Classical,Country,Dance,Electronic,Folk,Gospel,Hip-Hop,Jazz,Latin,Musical/Film,New-age,Pop,Prolific_id,Provo_ID,R&B,Rap,Reggae,Religious,Rock,Soul,Swing,Traditional,age,artist_name,correct,correctResponse,distraction,duration,education,ended_on,familiarity,gender,headphone_check_performance,item,list,music_frequency,offensiveness,pleasantness,position_correct,preference,response,response_action,snippet_file,song_name,song_rating,sound,stimulus_1,stimulus_2,stimulus_3,text,time_commit,time_end,time_render,time_run,time_show,time_switch,url,word,word_ID
Prolific ID,html.Form,0,2021-04-30T09:50:32.585Z,"{""labjs_version"":""20.2.2"",""labjs_build"":{""flavor"":""production"",""commit"":""a25486e0c714a0ae2ce03ff94b7bb6896854dcfa""},""location"":""https://run.pavlovia.org/mvasilev/prolific_music_b/"",""userAgent"":""Mozilla/5.0 (Macintosh; Intel Mac OS X 10_15_7) AppleWebKit/537.36 (KHTML, like Gecko) Chrome/90.0.4430.93 Safari/537.36"",""platform"":""MacIntel"",""language"":""en-GB"",""locale"":""en-GB"",""timeZone"":""Europe/London"",""timezoneOffset"":-60,""screen_width"":1440,""screen_height"":900,""scroll_width"":1422,""scroll_height"":631,""window_innerWidth"":1422,""window_innerHeight"":679,""devicePixelRatio"":2}",,,,,,,,,,,,,,,581ccd016c73180001fa5b2a,,,,,,,,,,,,,,,6850.829000001893,,form submission,,,,,,,,,,,,,,,,,,,,,11796.194999998988,11795.720000001893,4911.553,4917.56499999974,4944.891,11796.089,{},,
Introduction,html.Screen,1_0,2021-04-30T09:50:37.143Z,,,,,,,,,,,,,,,,,,,,,,,,,,,,,,,4554.985999998673,,response,,,,,,,,,,,continue,click button,,,,,,,,,16354.050000001735,16351.074999998673,11779.42,11796.480000000884,11796.089,16363.395,,,
Volume calibration,html.Screen,1_1,2021-04-30T09:50:48.716Z,,,,,,,,,,,,,,,,,,,,,,,,,,,,,,,11559.789999999648,,response,,,,,,,,,,,continue,click button,,,,,,,,,27927.644999999757,27923.18499999965,16346.726,16354.180000002088,16363.395,27931.907,,,
Task instructions,html.Screen,1_2,2021-04-30T09:50:59.367Z,,,,,,,,,,,,,,,,,,,,,,,,,,,,,,,10645.268000002172,,response,,,,,,,,,,,continue,click button,,,,,,,,,38579.115000000456,38577.17500000217,27915.238,27927.820000000793,27931.907,38583.869,,,
Sounds,html.Screen,1_3_0_0,2021-04-30T09:51:03.609Z,,,,,,,,,,,,,,,,,,,,,,,,,,,,,,,4250.595000000001,,timeout,,,,,,,,,1,,,,,,,,S,I,O,,42820.80499999938,42817.795,38567.2,38579.4100000021,38583.869,42834.464,,,
Judgement,html.Screen,1_3_0_1,2021-04-30T09:51:04.689Z,,,,,,,,,,,,,,,,,,,,,,,,,,,,true,1,,1064.6210000009232,,response,,,,,,,,,1,,1,click #choice-1,,,,,S,I,O,,43900.73499999926,43899.08500000092,42817.795,42820.98000000042,42834.464,43901.28,,,
Trial,flow.Sequence,1_3_0,2021-04-30T09:51:04.689Z,,,,,,,,,,,,,,,,,,,,,,,,,,,,,,,5315.216000000924,,completion,,,,,,,,,1,,,,,,,,S,I,O,,43901.010000001406,43899.08500000092,38567.2,38579.34999999998,38583.869,43901.28,,,
Sounds,html.Screen,1_3_1_0,2021-04-30T09:51:08.925Z,,,,,,,,,,,,,,,,,,,,,,,,,,,,,,,4250.595000000001,,timeout,,,,,,,,,3,,,,,,,,O,I,S,,48137.02000000194,48135.206,43884.611,43901.13500000007,43901.28,48151.875,,,
Judgement,html.Screen,1_3_1_1,2021-04-30T09:51:10.307Z,,,,,,,,,,,,,,,,,,,,,,,,,,,,true,3,,1365.245000000432,,response,,,,,,,,,3,,3,click #choice-3,,,,,O,I,S,,49518.59500000137,49517.12000000043,48135.206,48137.16000000204,48151.875,49518.967,,,
Trial,flow.Sequence,1_3_1,2021-04-30T09:51:10.307Z,,,,,,,,,,,,,,,,,,,,,,,,,,,,,,,5615.840000000433,,completion,,,,,,,,,3,,,,,,,,O,I,S,,49518.78000000215,49517.12000000043,43884.611,43901.09999999913,43901.28,49518.967,,,
Sounds,html.Screen,1_3_2_0,2021-04-30T09:51:14.543Z,,,,,,,,,,,,,,,,,,,,,,,,,,,,,,,4250.595000000001,,timeout,,,,,,,,,2,,,,,,,,O,S,I,,53755.175000002055,53752.893,49502.298,49518.89999999912,49518.967,53769.562,,,
Judgement,html.Screen,1_3_2_1,2021-04-30T09:51:15.248Z,,,,,,,,,,,,,,,,,,,,,,,,,,,,true,2,,687.6830000014234,,response,,,,,,,,,2,,2,click #choice-2,,,,,O,S,I,,54459.57999999882,54457.24500000142,53752.893,53755.29000000097,53769.562,54469.66,,,
Trial,flow.Sequence,1_3_2,2021-04-30T09:51:15.248Z,,,,,,,,,,,,,,,,,,,,,,,,,,,,,,,4938.2780000014245,,completion,,,,,,,,,2,,,,,,,,O,S,I,,54459.83999999953,54457.24500000142,49502.298,49518.85500000208,49518.967,54469.66,,,
Sounds,html.Screen,1_3_3_0,2021-04-30T09:51:19.494Z,,,,,,,,,,,,,,,,,,,,,,,,,,,,,,,4250.594999999994,,timeout,,,,,,,,,2,,,,,,,,I,S,O,,58705.635000002076,58703.586,54452.991,54460.025000000314,54469.66,58720.255,,,
Judgement,html.Screen,1_3_3_1,2021-04-30T09:51:20.263Z,,,,,,,,,,,,,,,,,,,,,,,,,,,,true,2,,752.984999999353,,response,,,,,,,,,2,,2,click #choice-2,,,,,I,S,O,,59474.920000000566,59473.23999999935,58703.586,58705.7449999993,58720.255,59487.252,,,
Trial,flow.Sequence,1_3_3,2021-04-30T09:51:20.263Z,,,,,,,,,,,,,,,,,,,,,,,,,,,,,,,5003.579999999347,,completion,,,,,,,,,2,,,,,,,,I,S,O,,59475.09999999966,59473.23999999935,54452.991,54459.95500000208,54469.66,59487.252,,,
Sounds,html.Screen,1_3_4_0,2021-04-30T09:51:24.511Z,,,,,,,,,,,,,,,,,,,,,,,,,,,,,,,4250.595000000001,,timeout,,,,,,,,,3,,,,,,,,I,O,S,,63723.28000000198,63721.178,59470.583,59475.20499999882,59487.252,63737.847,,,
Judgement,html.Screen,1_3_4_1,2021-04-30T09:51:24.997Z,,,,,,,,,,,,,,,,,,,,,,,,,,,,true,3,,469.3379999992976,,response,,,,,,,,,3,,3,click #choice-3,,,,,I,O,S,,64209.17499999996,64207.1849999993,63721.178,63723.43000000183,63737.847,64221.248,,,
Trial,flow.Sequence,1_3_4,2021-04-30T09:51:24.997Z,,,,,,,,,,,,,,,,,,,,,,,,,,,,,,,4719.932999999299,,completion,,,,,,,,,3,,,,,,,,I,O,S,,64209.36000000074,64207.1849999993,59470.583,59475.18000000127,59487.252,64221.248,,,
Sounds,html.Screen,1_3_5_0,2021-04-30T09:51:29.244Z,,,,,,,,,,,,,,,,,,,,,,,,,,,,,,,4250.594999999994,,timeout,,,,,,,,,1,,,,,,,,S,O,I,,68456.51999999973,68455.174,64204.579,64209.47499999966,64221.248,68471.843,,,
Judgement,html.Screen,1_3_5_1,2021-04-30T09:51:30.106Z,,,,,,,,,,,,,,,,,,,,,,,,,,,,true,1,,845.2520000021614,,response,,,,,,,,,1,,1,click #choice-1,,,,,S,O,I,,69318.51000000097,69317.09500000215,68455.174,68456.61499999915,68471.843,69322.19,,,
Trial,flow.Sequence,1_3_5,2021-04-30T09:51:30.106Z,,,,,,,,,,,,,,,,,,,,,,,,,,,,,,,5095.847000002155,,completion,,,,,,,,,1,,,,,,,,S,O,I,,69318.64499999938,69317.09500000215,64204.579,64209.43999999872,64221.248,69322.19,,,
Task,flow.Loop,1_3,2021-04-30T09:51:30.109Z,,,,,,,,,,,,,,,,,,,,,,,,,,,,,,,30733.226000002156,,completion,,,1,,,,,,,,,,,,,,,,,,69321.79499999984,69317.09500000215,38567.2,38579.280000001745,38583.869,69322.19,,,
Trap,html.Screen,1_4,2021-04-30T09:51:30.111Z,,,,,,,,,,,,,,,,,,,,,,,,,,,,,,,NaN,,skipped,,,,,,,,,,,,,,,,,,,,,69322.8850000014,69317.09500000215,,69322.7650000008,,69322.19,,,
Thanks,html.Screen,1_5,2021-04-30T09:51:33.329Z,,,,,,,,,,,,,,,,,,,,,,,,,,,,,,,3217.054999999935,,response,,,,,,,,,,,continue,click button,,,,,,,,,72541.10500000024,72539.24499999994,69305.521,69322.97499999913,69322.19,75473.051,,,
Headphone screening,flow.Sequence,1,2021-04-30T09:51:33.329Z,,,,,,,,,,,,,,,,,,,,,,,,,,,,,,,60743.15599999994,,completion,,,,,,,,,,,,,,,,,,,,,72541.26499999984,72539.24499999994,11779.42,11796.450000001641,11796.089,75473.051,,,
Instructions,html.Page,2_0,2021-04-30T09:52:12.075Z,,,,,,,,,,,,,,,,,,,,,,,,,,,,,,,35814.58899999864,,form submission,,,,,,,,,,,,,,,,,,,,,111287.86000000036,111287.63999999865,75456.382,75472.83500000049,75473.051,111295.524,,,
Holding screen,html.Screen,2_1_0_0,2021-04-30T09:52:22.069Z,,,,,,,,,,,,,,,,,,,,,,,,,,,,,,,10001.627999999997,,timeout,,,,,,,,,,,,,,,,,,,,,121282.09000000061,121280.483,111278.855,111288.02999999971,111295.524,121297.152,,,
screen,html.Screen,2_1_0_1_0,2021-04-30T09:52:23.009Z,,,,,,,,,,,,,,,,,53,,,,,,,,,,,,,,918.068000001862,,response,,,,99,,,,,,,Space,keypress(Space),,,,,,,,When -- ----- -- ------ - ------- --- ----------<br>------------- ------ ------ ---- ---- ------- ----- -- ----<br>-------- ------- -- ---------- --- - --- ----- ----- ----<br>---- --- --- ----- --- ---- ---- ------- ----- ---- -------<br>--- --- -- ----- -- --- ---- -- --- ---- -- ------ ------<br>--- ----- -- ----,122222.60499999902,122215.22000000186,121280.483,121282.25999999995,121297.152,122230.616,,0,When
screen,html.Screen,2_1_0_1_1,2021-04-30T09:52:23.525Z,,,,,,,,,,,,,,,,,53,,,,,,,,,,,,,,504.42900000126974,,response,,,,99,,,,,,,Space,keypress(Space),,,,,,,,---- it ----- -- ------ - ------- --- ----------<br>------------- ------ ------ ---- ---- ------- ----- -- ----<br>-------- ------- -- ---------- --- - --- ----- ----- ----<br>---- --- --- ----- --- ---- ---- ------- ----- ---- -------<br>--- --- -- ----- -- --- ---- -- --- ---- -- ------ ------<br>--- ----- -- ----,122738.04000000018,122735.04500000126,122213.947,122222.71499999988,122230.616,122747.355,,1,it
screen,html.Screen,2_1_0_1_2,2021-04-30T09:52:24.045Z,,,,,,,,,,,,,,,,,53,,,,,,,,,,,,,,507.8200000020588,,response,,,,99,,,,,,,Space,keypress(Space),,,,,,,,---- -- comes -- ------ - ------- --- ----------<br>------------- ------ ------ ---- ---- ------- ----- -- ----<br>-------- ------- -- ---------- --- - --- ----- ----- ----<br>---- --- --- ----- --- ---- ---- ------- ----- ---- -------<br>--- --- -- ----- -- --- ---- -- --- ---- -- ------ ------<br>--- ----- -- ----,123258.46000000092,123255.17500000205,122730.686,122738.1400000013,122747.355,123264.094,,2,comes
screen,html.Screen,2_1_0_1_3,2021-04-30T09:52:24.477Z,,,,,,,,,,,,,,,,,53,,,,,,,,,,,,,,423.0410000001284,,response,,,,99,,,,,,,Space,keypress(Space),,,,,,,,---- -- ----- to ------ - ------- --- ----------<br>------------- ------ ------ ---- ---- ------- ----- -- ----<br>-------- ------- -- ---------- --- - --- ----- ----- ----<br>---- --- --- ----- --- ---- ---- ------- ----- ---- -------<br>--- --- -- ----- -- --- ---- -- --- ---- -- ------ ------<br>--- ----- -- ----,123690.55500000104,123687.13500000013,123247.425,123258.59499999933,123264.094,123697.488,,3,to
screen,html.Screen,2_1_0_1_4,2021-04-30T09:52:24.877Z,,,,,,,,,,,,,,,,,53,,,,,,,,,,,,,,389.6870000005729,,response,,,,99,,,,,,,Space,keypress(Space),,,,,,,,---- -- ----- -- having - ------- --- ----------<br>------------- ------ ------ ---- ---- ------- ----- -- ----<br>-------- ------- -- ---------- --- - --- ----- ----- ----<br>---- --- --- ----- --- ---- ---- ------- ----- ---- -------<br>--- --- -- ----- -- --- ---- -- --- ---- -- ------ ------<br>--- ----- -- ----,124090.45999999944,124087.17500000057,123680.819,123690.67500000165,123697.488,124097.544,,4,having
screen,html.Screen,2_1_0_1_5,2021-04-30T09:52:25.212Z,,,,,,,,,,,,,,,,,53,,,,,,,,,,,,,,325.5559999999823,,response,,,,99,,,,,,,Space,keypress(Space),,,,,,,,---- -- ----- -- ------ a ------- --- ----------<br>------------- ------ ------ ---- ---- ------- ----- -- ----<br>-------- ------- -- ---------- --- - --- ----- ----- ----<br>---- --- --- ----- --- ---- ---- ------- ----- ---- -------<br>--- --- -- ----- -- --- ---- -- --- ---- -- ------ ------<br>--- ----- -- ----,124425.65000000104,124423.09999999998,124080.875,124090.58000000005,124097.544,124430.924,,5,a
screen,html.Screen,2_1_0_1_6,2021-04-30T09:52:25.693Z,,,,,,,,,,,,,,,,,53,,,,,,,,,,,,,,472.2609999992128,,response,,,,99,,,,,,,Space,keypress(Space),,,,,,,,---- -- ----- -- ------ - lasting --- ----------<br>------------- ------ ------ ---- ---- ------- ----- -- ----<br>-------- ------- -- ---------- --- - --- ----- ----- ----<br>---- --- --- ----- --- ---- ---- ------- ----- ---- -------<br>--- --- -- ----- -- --- ---- -- --- ---- -- ------ ------<br>--- ----- -- ----,124906.45500000028,124903.18499999921,124414.255,124425.73500000071,124430.924,124914.325,,6,lasting
screen,html.Screen,2_1_0_1_7,2021-04-30T09:52:26.093Z,,,,,,,,,,,,,,,,,53,,,,,,,,,,,,,,388.8800000001647,,response,,,,99,,,,,,,Space,keypress(Space),,,,,,,,---- -- ----- -- ------ - ------- and ----------<br>------------- ------ ------ ---- ---- ------- ----- -- ----<br>-------- ------- -- ---------- --- - --- ----- ----- ----<br>---- --- --- ----- --- ---- ---- ------- ----- ---- -------<br>--- --- -- ----- -- --- ---- -- --- ---- -- ------ ------<br>--- ----- -- ----,125306.45000000004,125303.20500000016,124897.656,124906.57999999894,124914.325,125314.381,,7,and
screen,html.Screen,2_1_0_1_8,2021-04-30T09:52:26.701Z,,,,,,,,,,,,,,,,,53,,,,,,,,,,,,,,596.7940000011004,,response,,,,99,,,,,,,Space,keypress(Space),,,,,,,,---- -- ----- -- ------ - ------- --- fulfilling<br>------------- ------ ------ ---- ---- ------- ----- -- ----<br>-------- ------- -- ---------- --- - --- ----- ----- ----<br>---- --- --- ----- --- ---- ---- ------- ----- ---- -------<br>--- --- -- ----- -- --- ---- -- --- ---- -- ------ ------<br>--- ----- -- ----,125914.53499999989,125911.1750000011,125297.712,125306.57000000065,125314.381,125931.367,,8,fulfilling
screen,html.Screen,2_1_0_1_9,2021-04-30T09:52:27.157Z,,,,,,,,,,,,,,,,,53,,,,,,,,,,,,,,435.7180000016815,,response,,,,99,,,,,,,Space,keypress(Space),,,,,,,,"---- -- ----- -- ------ - ------- --- ----------<br>relationship, ------ ------ ---- ---- ------- ----- -- ----<br>-------- ------- -- ---------- --- - --- ----- ----- ----<br>---- --- --- ----- --- ---- ---- ------- ----- ---- -------<br>--- --- -- ----- -- --- ---- -- --- ---- -- ------ ------<br>--- ----- -- ----",126370.33000000156,126367.08500000168,125914.698,125914.6499999988,125931.367,126381.43,,9,"relationship,"
screen,html.Screen,2_1_0_1_10,2021-04-30T09:52:27.613Z,,,,,,,,,,,,,,,,,53,,,,,,,,,,,,,,441.7950000001001,,response,,,,99,,,,,,,Space,keypress(Space),,,,,,,,---- -- ----- -- ------ - ------- --- ----------<br>------------- common ------ ---- ---- ------- ----- -- ----<br>-------- ------- -- ---------- --- - --- ----- ----- ----<br>---- --- --- ----- --- ---- ---- ------- ----- ---- -------<br>--- --- -- ----- -- --- ---- -- --- ---- -- ------ ------<br>--- ----- -- ----,126826.5449999999,126823.2250000001,126364.761,126370.45500000022,126381.43,126831.493,,10,common
screen,html.Screen,2_1_0_1_11,2021-04-30T09:52:28.086Z,,,,,,,,,,,,,,,,,53,,,,,,,,,,,,,,463.7420000014099,,response,,,,99,,,,,,,Space,keypress(Space),,,,,,,,---- -- ----- -- ------ - ------- --- ----------<br>------------- ------ wisdom ---- ---- ------- ----- -- ----<br>-------- ------- -- ---------- --- - --- ----- ----- ----<br>---- --- --- ----- --- ---- ---- ------- ----- ---- -------<br>--- --- -- ----- -- --- ---- -- --- ---- -- ------ ------<br>--- ----- -- ----,127299.0200000022,127295.23500000141,126814.824,126826.65999999881,126831.493,127314.894,,11,wisdom
screen,html.Screen,2_1_0_1_12,2021-04-30T09:52:28.461Z,,,,,,,,,,,,,,,,,53,,,,,,,,,,,,,,356.32100000212085,,response,,,,99,,,,,,,Space,keypress(Space),,,,,,,,---- -- ----- -- ------ - ------- --- ----------<br>------------- ------ ------ says ---- ------- ----- -- ----<br>-------- ------- -- ---------- --- - --- ----- ----- ----<br>---- --- --- ----- --- ---- ---- ------- ----- ---- -------<br>--- --- -- ----- -- --- ---- -- --- ---- -- ------ ------<br>--- ----- -- ----,127674.6149999999,127671.21500000212,127298.225,127299.12999999942,127314.894,127681.612,,12,says
screen,html.Screen,2_1_0_1_13,2021-04-30T09:52:28.813Z,,,,,,,,,,,,,,,,,53,,,,,,,,,,,,,,341.5830000015849,,response,,,,99,,,,,,,Space,keypress(Space),,,,,,,,---- -- ----- -- ------ - ------- --- ----------<br>------------- ------ ------ ---- that ------- ----- -- ----<br>-------- ------- -- ---------- --- - --- ----- ----- ----<br>---- --- --- ----- --- ---- ---- ------- ----- ---- -------<br>--- --- -- ----- -- --- ---- -- --- ---- -- ------ ------<br>--- ----- -- ----,128026.50999999969,128023.19500000158,127664.943,127674.73500000051,127681.612,128031.661,,13,that
screen,html.Screen,2_1_0_1_14,2021-04-30T09:52:29.157Z,,,,,,,,,,,,,,,,,53,,,,,,,,,,,,,,335.5689999998431,,response,,,,99,,,,,,,Space,keypress(Space),,,,,,,,---- -- ----- -- ------ - ------- --- ----------<br>------------- ------ ------ ---- ---- feeling ----- -- ----<br>-------- ------- -- ---------- --- - --- ----- ----- ----<br>---- --- --- ----- --- ---- ---- ------- ----- ---- -------<br>--- --- -- ----- -- --- ---- -- --- ---- -- ------ ------<br>--- ----- -- ----,128370.43999999878,128367.22999999984,128014.992,128026.64000000004,128031.661,128381.71,,14,feeling
screen,html.Screen,2_1_0_1_15,2021-04-30T09:52:29.565Z,,,,,,,,,,,,,,,,,53,,,,,,,,,,,,,,393.3400000001857,,response,,,,99,,,,,,,Space,keypress(Space),,,,,,,,---- -- ----- -- ------ - ------- --- ----------<br>------------- ------ ------ ---- ---- ------- close -- ----<br>-------- ------- -- ---------- --- - --- ----- ----- ----<br>---- --- --- ----- --- ---- ---- ------- ----- ---- -------<br>--- --- -- ----- -- --- ---- -- --- ---- -- ------ ------<br>--- ----- -- ----,128778.37999999974,128775.05000000019,128365.041,128370.54999999964,128381.71,128781.766,,15,close
screen,html.Screen,2_1_0_1_16,2021-04-30T09:52:29.949Z,,,,,,,,,,,,,,,,,53,,,,,,,,,,,,,,377.4489999996731,,response,,,,99,,,,,,,Space,keypress(Space),,,,,,,,---- -- ----- -- ------ - ------- --- ----------<br>------------- ------ ------ ---- ---- ------- ----- to ----<br>-------- ------- -- ---------- --- - --- ----- ----- ----<br>---- --- --- ----- --- ---- ---- ------- ----- ---- -------<br>--- --- -- ----- -- --- ---- -- --- ---- -- ------ ------<br>--- ----- -- ----,129162.435000002,129159.21499999968,128765.097,128778.48000000085,128781.766,129165.153,,16,to
screen,html.Screen,2_1_0_1_17,2021-04-30T09:52:30.413Z,,,,,,,,,,,,,,,,,53,,,,,,,,,,,,,,458.0320000003703,,response,,,,99,,,,,,,Space,keypress(Space),,,,,,,,---- -- ----- -- ------ - ------- --- ----------<br>------------- ------ ------ ---- ---- ------- ----- -- your<br>-------- ------- -- ---------- --- - --- ----- ----- ----<br>---- --- --- ----- --- ---- ---- ------- ----- ---- -------<br>--- --- -- ----- -- --- ---- -- --- ---- -- ------ ------<br>--- ----- -- ----,129626.52000000162,129623.18500000038,129148.484,129162.56000000067,129165.153,129631.885,,17,your
screen,html.Screen,2_1_0_1_18,2021-04-30T09:52:30.829Z,,,,,,,,,,,,,,,,,53,,,,,,,,,,,,,,407.33000000070024,,response,,,,99,,,,,,,Space,keypress(Space),,,,,,,,---- -- ----- -- ------ - ------- --- ----------<br>------------- ------ ------ ---- ---- ------- ----- -- ----<br>romantic ------- -- ---------- --- - --- ----- ----- ----<br>---- --- --- ----- --- ---- ---- ------- ----- ---- -------<br>--- --- -- ----- -- --- ---- -- --- ---- -- ------ ------<br>--- ----- -- ----,130042.44000000108,130039.2150000007,129615.216,129626.62500000079,129631.885,130048.61,,18,romantic
screen,html.Screen,2_1_0_1_19,2021-04-30T09:52:31.206Z,,,,,,,,,,,,,,,,,53,,,,,,,,,,,,,,366.56500000190863,,response,,,,99,,,,,,,Space,keypress(Space),,,,,,,,---- -- ----- -- ------ - ------- --- ----------<br>------------- ------ ------ ---- ---- ------- ----- -- ----<br>-------- partner -- ---------- --- - --- ----- ----- ----<br>---- --- --- ----- --- ---- ---- ------- ----- ---- -------<br>--- --- -- ----- -- --- ---- -- --- ---- -- ------ ------<br>--- ----- -- ----,130419.13000000204,130415.17500000191,130031.941,130042.55000000194,130048.61,130431.997,,19,partner
screen,html.Screen,2_1_0_1_20,2021-04-30T09:52:31.589Z,,,,,,,,,,,,,,,,,53,,,,,,,,,,,,,,367.1930000015418,,response,,,,99,,,,,,,Space,keypress(Space),,,,,,,,---- -- ----- -- ------ - ------- --- ----------<br>------------- ------ ------ ---- ---- ------- ----- -- ----<br>-------- ------- is ---------- --- - --- ----- ----- ----<br>---- --- --- ----- --- ---- ---- ------- ----- ---- -------<br>--- --- -- ----- -- --- ---- -- --- ---- -- ------ ------<br>--- ----- -- ----,130802.62500000026,130799.19000000154,130415.328,130419.25999999876,130431.997,130815.384,,20,is
screen,html.Screen,2_1_0_1_21,2021-04-30T09:52:32.013Z,,,,,,,,,,,,,,,,,53,,,,,,,,,,,,,,407.7860000011133,,response,,,,99,,,,,,,Space,keypress(Space),,,,,,,,---- -- ----- -- ------ - ------- --- ----------<br>------------- ------ ------ ---- ---- ------- ----- -- ----<br>-------- ------- -- paramount. --- - --- ----- ----- ----<br>---- --- --- ----- --- ---- ---- ------- ----- ---- -------<br>--- --- -- ----- -- --- ---- -- --- ---- -- ------ ------<br>--- ----- -- ----,131226.49499999898,131223.17000000112,130798.715,130802.72500000137,130815.384,131232.109,,21,paramount.
screen,html.Screen,2_1_0_1_22,2021-04-30T09:52:32.573Z,,,,,,,,,,,,,,,,,53,,,,,,,,,,,,,,550.9559999996272,,response,,,,99,,,,,,,Space,keypress(Space),,,,,,,,---- -- ----- -- ------ - ------- --- ----------<br>------------- ------ ------ ---- ---- ------- ----- -- ----<br>-------- ------- -- ---------- But - --- ----- ----- ----<br>---- --- --- ----- --- ---- ---- ------- ----- ---- -------<br>--- --- -- ----- -- --- ---- -- --- ---- -- ------ ------<br>--- ----- -- ----,131786.39499999917,131783.06499999962,131215.44,131226.61000000153,131232.109,131798.855,,22,But
screen,html.Screen,2_1_0_1_23,2021-04-30T09:52:32.877Z,,,,,,,,,,,,,,,,,53,,,,,,,,,,,,,,288.3049999991199,,response,,,,99,,,,,,,Space,keypress(Space),,,,,,,,---- -- ----- -- ------ - ------- --- ----------<br>------------- ------ ------ ---- ---- ------- ----- -- ----<br>-------- ------- -- ---------- --- a --- ----- ----- ----<br>---- --- --- ----- --- ---- ---- ------- ----- ---- -------<br>--- --- -- ----- -- --- ---- -- --- ---- -- ------ ------<br>--- ----- -- ----,132090.8750000017,132087.15999999913,131782.186,131786.50500000003,131798.855,132098.897,,23,a
screen,html.Screen,2_1_0_1_24,2021-04-30T09:52:33.200Z,,,,,,,,,,,,,,,,,53,,,,,,,,,,,,,,308.3179999992717,,response,,,,99,,,,,,,Space,keypress(Space),,,,,,,,---- -- ----- -- ------ - ------- --- ----------<br>------------- ------ ------ ---- ---- ------- ----- -- ----<br>-------- ------- -- ---------- --- - new ----- ----- ----<br>---- --- --- ----- --- ---- ---- ------- ----- ---- -------<br>--- --- -- ----- -- --- ---- -- --- ---- -- ------ ------<br>--- ----- -- ----,132412.95000000173,132407.21499999927,132082.228,132090.97499999916,132098.897,132415.608,,24,new
screen,html.Screen,2_1_0_1_25,2021-04-30T09:52:33.565Z,,,,,,,,,,,,,,,,,53,,,,,,,,,,,,,,359.451999999932,,response,,,,99,,,,,,,Space,keypress(Space),,,,,,,,---- -- ----- -- ------ - ------- --- ----------<br>------------- ------ ------ ---- ---- ------- ----- -- ----<br>-------- ------- -- ---------- --- - --- study ----- ----<br>---- --- --- ----- --- ---- ---- ------- ----- ---- -------<br>--- --- -- ----- -- --- ---- -- --- ---- -- ------ ------<br>--- ----- -- ----,132778.3100000015,132775.05999999994,132398.939,132413.0499999992,132415.608,132782.326,,25,study
screen,html.Screen,2_1_0_1_26,2021-04-30T09:52:33.957Z,,,,,,,,,,,,,,,,,53,,,,,,,,,,,,,,384.8640000001178,,response,,,,99,,,,,,,Space,keypress(Space),,,,,,,,---- -- ----- -- ------ - ------- --- ----------<br>------------- ------ ------ ---- ---- ------- ----- -- ----<br>-------- ------- -- ---------- --- - --- ----- finds ----<br>---- --- --- ----- --- ---- ---- ------- ----- ---- -------<br>--- --- -- ----- -- --- ---- -- --- ---- -- ------ ------<br>--- ----- -- ----,133170.48000000068,133167.19000000012,132765.657,132778.42500000042,132782.326,133182.382,,26,finds
screen,html.Screen,2_1_0_1_27,2021-04-30T09:52:34.309Z,,,,,,,,,,,,,,,,,53,,,,,,,,,,,,,,336.7529999986291,,response,,,,99,,,,,,,Space,keypress(Space),,,,,,,,---- -- ----- -- ------ - ------- --- ----------<br>------------- ------ ------ ---- ---- ------- ----- -- ----<br>-------- ------- -- ---------- --- - --- ----- ----- that<br>---- --- --- ----- --- ---- ---- ------- ----- ---- -------<br>--- --- -- ----- -- --- ---- -- --- ---- -- ------ ------<br>--- ----- -- ----,133522.34999999928,133519.13499999864,133165.713,133170.59000000154,133182.382,133532.431,,27,that
screen,html.Screen,2_1_0_1_28,2021-04-30T09:52:34.628Z,,,,,,,,,,,,,,,,,53,,,,,,,,,,,,,,306.62400000035996,,response,,,,99,,,,,,,Space,keypress(Space),,,,,,,,---- -- ----- -- ------ - ------- --- ----------<br>------------- ------ ------ ---- ---- ------- ----- -- ----<br>-------- ------- -- ---------- --- - --- ----- ----- ----<br>it's --- --- ----- --- ---- ---- ------- ----- ---- -------<br>--- --- -- ----- -- --- ---- -- --- ---- -- ------ ------<br>--- ----- -- ----,133841.85499999876,133839.05500000037,133515.762,133522.47999999963,133532.431,133849.142,,28,it's
screen,html.Screen,2_1_0_1_29,2021-04-30T09:52:34.956Z,,,,,,,,,,,,,,,,,53,,,,,,,,,,,,,,317.89299999858486,,response,,,,99,,,,,,,Space,keypress(Space),,,,,,,,---- -- ----- -- ------ - ------- --- ----------<br>------------- ------ ------ ---- ---- ------- ----- -- ----<br>-------- ------- -- ---------- --- - --- ----- ----- ----<br>---- not --- ----- --- ---- ---- ------- ----- ---- -------<br>--- --- -- ----- -- --- ---- -- --- ---- -- ------ ------<br>--- ----- -- ----,134169.675000001,134167.03499999858,133832.473,133841.95000000182,133849.142,134182.522,,29,not
screen,html.Screen,2_1_0_1_30,2021-04-30T09:52:35.260Z,,,,,,,,,,,,,,,,,53,,,,,,,,,,,,,,288.5080000006128,,response,,,,99,,,,,,,Space,keypress(Space),,,,,,,,---- -- ----- -- ------ - ------- --- ----------<br>------------- ------ ------ ---- ---- ------- ----- -- ----<br>-------- ------- -- ---------- --- - --- ----- ----- ----<br>---- --- how ----- --- ---- ---- ------- ----- ---- -------<br>--- --- -- ----- -- --- ---- -- --- ---- -- ------ ------<br>--- ----- -- ----,134473.72499999983,134471.0300000006,134165.853,134169.76499999873,134182.522,134482.564,,30,how
screen,html.Screen,2_1_0_1_31,2021-04-30T09:52:35.653Z,,,,,,,,,,,,,,,,,53,,,,,,,,,,,,,,380.5709999995888,,response,,,,99,,,,,,,Space,keypress(Space),,,,,,,,---- -- ----- -- ------ - ------- --- ----------<br>------------- ------ ------ ---- ---- ------- ----- -- ----<br>-------- ------- -- ---------- --- - --- ----- ----- ----<br>---- --- --- close --- ---- ---- ------- ----- ---- -------<br>--- --- -- ----- -- --- ---- -- --- ---- -- ------ ------<br>--- ----- -- ----,134866.35000000024,134863.1349999996,134465.895,134473.8150000012,134482.564,134882.62,,31,close
screen,html.Screen,2_1_0_1_32,2021-04-30T09:52:36.005Z,,,,,,,,,,,,,,,,,53,,,,,,,,,,,,,,332.5550000011863,,response,,,,99,,,,,,,Space,keypress(Space),,,,,,,,---- -- ----- -- ------ - ------- --- ----------<br>------------- ------ ------ ---- ---- ------- ----- -- ----<br>-------- ------- -- ---------- --- - --- ----- ----- ----<br>---- --- --- ----- you ---- ---- ------- ----- ---- -------<br>--- --- -- ----- -- --- ---- -- --- ---- -- ------ ------<br>--- ----- -- ----,135218.5900000004,135215.17500000118,134865.951,134866.4549999994,134882.62,135232.669,,32,you
screen,html.Screen,2_1_0_1_33,2021-04-30T09:52:36.325Z,,,,,,,,,,,,,,,,,53,,,,,,,,,,,,,,302.396000000037,,response,,,,99,,,,,,,Space,keypress(Space),,,,,,,,---- -- ----- -- ------ - ------- --- ----------<br>------------- ------ ------ ---- ---- ------- ----- -- ----<br>-------- ------- -- ---------- --- - --- ----- ----- ----<br>---- --- --- ----- --- feel ---- ------- ----- ---- -------<br>--- --- -- ----- -- --- ---- -- --- ---- -- ------ ------<br>--- ----- -- ----,135538.35999999865,135535.06500000003,135216,135218.710000001,135232.669,135549.38,,33,feel
screen,html.Screen,2_1_0_1_34,2021-04-30T09:52:36.645Z,,,,,,,,,,,,,,,,,53,,,,,,,,,,,,,,305.80500000034226,,response,,,,99,,,,,,,Space,keypress(Space),,,,,,,,---- -- ----- -- ------ - ------- --- ----------<br>------------- ------ ------ ---- ---- ------- ----- -- ----<br>-------- ------- -- ---------- --- - --- ----- ----- ----<br>---- --- --- ----- --- ---- that ------- ----- ---- -------<br>--- --- -- ----- -- --- ---- -- --- ---- -- ------ ------<br>--- ----- -- ----,135858.5349999994,135855.18500000035,135532.711,135539.26000000138,135549.38,135866.32,,34,that
screen,html.Screen,2_1_0_1_35,2021-04-30T09:52:37.045Z,,,,,,,,,,,,,,,,,53,,,,,,,,,,,,,,388.7399999994959,,response,,,,99,,,,,,,Space,keypress(Space),,,,,,,,---- -- ----- -- ------ - ------- --- ----------<br>------------- ------ ------ ---- ---- ------- ----- -- ----<br>-------- ------- -- ---------- --- - --- ----- ----- ----<br>---- --- --- ----- --- ---- ---- matters ----- ---- -------<br>--- --- -- ----- -- --- ---- -- --- ---- -- ------ ------<br>--- ----- -- ----,136258.04000000062,136255.0599999995,135849.651,135858.6800000012,135866.32,136266.376,,35,matters
screen,html.Screen,2_1_0_1_36,2021-04-30T09:52:37.437Z,,,,,,,,,,,,,,,,,53,,,,,,,,,,,,,,380.84399999893503,,response,,,,99,,,,,,,Space,keypress(Space),,,,,,,,"---- -- ----- -- ------ - ------- --- ----------<br>------------- ------ ------ ---- ---- ------- ----- -- ----<br>-------- ------- -- ---------- --- - --- ----- ----- ----<br>---- --- --- ----- --- ---- ---- ------- most, ---- -------<br>--- --- -- ----- -- --- ---- -- --- ---- -- ------ ------<br>--- ----- -- ----",136650.48500000194,136647.21999999892,136249.707,136258.58000000153,136266.376,136666.432,,36,"most,"
screen,html.Screen,2_1_0_1_37,2021-04-30T09:52:37.813Z,,,,,,,,,,,,,,,,,53,,,,,,,,,,,,,,356.7329999986978,,response,,,,99,,,,,,,Space,keypress(Space),,,,,,,,---- -- ----- -- ------ - ------- --- ----------<br>------------- ------ ------ ---- ---- ------- ----- -- ----<br>-------- ------- -- ---------- --- - --- ----- ----- ----<br>---- --- --- ----- --- ---- ---- ------- ----- it's -------<br>--- --- -- ----- -- --- ---- -- --- ---- -- ------ ------<br>--- ----- -- ----,137026.53500000088,137023.1649999987,136649.763,136650.5900000011,136666.432,137033.15,,37,it's
screen,html.Screen,2_1_0_1_38,2021-04-30T09:52:38.165Z,,,,,,,,,,,,,,,,,53,,,,,,,,,,,,,,341.93000000162283,,response,,,,99,,,,,,,Space,keypress(Space),,,,,,,,---- -- ----- -- ------ - ------- --- ----------<br>------------- ------ ------ ---- ---- ------- ----- -- ----<br>-------- ------- -- ---------- --- - --- ----- ----- ----<br>---- --- --- ----- --- ---- ---- ------- ----- ---- whether<br>--- --- -- ----- -- --- ---- -- --- ---- -- ------ ------<br>--- ----- -- ----,137378.31500000175,137375.08000000162,137016.481,137026.6499999998,137033.15,137383.199,,38,whether
screen,html.Screen,2_1_0_1_39,2021-04-30T09:52:38.517Z,,,,,,,,,,,,,,,,,53,,,,,,,,,,,,,,343.8510000013339,,response,,,,99,,,,,,,Space,keypress(Space),,,,,,,,---- -- ----- -- ------ - ------- --- ----------<br>------------- ------ ------ ---- ---- ------- ----- -- ----<br>-------- ------- -- ---------- --- - --- ----- ----- ----<br>---- --- --- ----- --- ---- ---- ------- ----- ---- -------<br>you --- -- ----- -- --- ---- -- --- ---- -- ------ ------<br>--- ----- -- ----,137730.30500000095,137727.05000000133,137366.53,137378.43499999872,137383.199,137733.248,,39,you
screen,html.Screen,2_1_0_1_40,2021-04-30T09:52:38.933Z,,,,,,,,,,,,,,,,,53,,,,,,,,,,,,,,409.95199999862234,,response,,,,99,,,,,,,Space,keypress(Space),,,,,,,,---- -- ----- -- ------ - ------- --- ----------<br>------------- ------ ------ ---- ---- ------- ----- -- ----<br>-------- ------- -- ---------- --- - --- ----- ----- ----<br>---- --- --- ----- --- ---- ---- ------- ----- ---- -------<br>--- are -- ----- -- --- ---- -- --- ---- -- ------ ------<br>--- ----- -- ----,138147.0049999989,138143.19999999861,137716.579,137730.4150000018,137733.248,138149.973,,40,are
screen,html.Screen,2_1_0_1_41,2021-04-30T09:52:39.237Z,,,,,,,,,,,,,,,,,53,,,,,,,,,,,,,,297.11199999979,,response,,,,99,,,,,,,Space,keypress(Space),,,,,,,,---- -- ----- -- ------ - ------- --- ----------<br>------------- ------ ------ ---- ---- ------- ----- -- ----<br>-------- ------- -- ---------- --- - --- ----- ----- ----<br>---- --- --- ----- --- ---- ---- ------- ----- ---- -------<br>--- --- as ----- -- --- ---- -- --- ---- -- ------ ------<br>--- ----- -- ----,138450.30500000212,138447.0849999998,138133.304,138147.10000000196,138149.973,138466.684,,41,as
screen,html.Screen,2_1_0_1_42,2021-04-30T09:52:39.629Z,,,,,,,,,,,,,,,,,53,,,,,,,,,,,,,,372.46599999978207,,response,,,,99,,,,,,,Space,keypress(Space),,,,,,,,---- -- ----- -- ------ - ------- --- ----------<br>------------- ------ ------ ---- ---- ------- ----- -- ----<br>-------- ------- -- ---------- --- - --- ----- ----- ----<br>---- --- --- ----- --- ---- ---- ------- ----- ---- -------<br>--- --- -- close -- --- ---- -- --- ---- -- ------ ------<br>--- ----- -- ----,138842.06500000073,138839.1499999998,138450.015,138450.41000000128,138466.684,138850.071,,42,close
screen,html.Screen,2_1_0_1_43,2021-04-30T09:52:39.997Z,,,,,,,,,,,,,,,,,53,,,,,,,,,,,,,,357.17899999947986,,response,,,,99,,,,,,,Space,keypress(Space),,,,,,,,---- -- ----- -- ------ - ------- --- ----------<br>------------- ------ ------ ---- ---- ------- ----- -- ----<br>-------- ------- -- ---------- --- - --- ----- ----- ----<br>---- --- --- ----- --- ---- ---- ------- ----- ---- -------<br>--- --- -- ----- as --- ---- -- --- ---- -- ------ ------<br>--- ----- -- ----,139210.59500000047,139207.24999999948,138833.402,138842.1500000004,138850.071,139216.789,,43,as
screen,html.Screen,2_1_0_1_44,2021-04-30T09:52:40.357Z,,,,,,,,,,,,,,,,,53,,,,,,,,,,,,,,350.46100000006845,,response,,,,99,,,,,,,Space,keypress(Space),,,,,,,,---- -- ----- -- ------ - ------- --- ----------<br>------------- ------ ------ ---- ---- ------- ----- -- ----<br>-------- ------- -- ---------- --- - --- ----- ----- ----<br>---- --- --- ----- --- ---- ---- ------- ----- ---- -------<br>--- --- -- ----- -- you ---- -- --- ---- -- ------ ------<br>--- ----- -- ----,139570.459999999,139567.25000000006,139200.12,139210.69500000158,139216.789,139583.507,,44,you
screen,html.Screen,2_1_0_1_45,2021-04-30T09:52:40.717Z,,,,,,,,,,,,,,,,,53,,,,,,,,,,,,,,343.5430000020424,,response,,,,99,,,,,,,Space,keypress(Space),,,,,,,,---- -- ----- -- ------ - ------- --- ----------<br>------------- ------ ------ ---- ---- ------- ----- -- ----<br>-------- ------- -- ---------- --- - --- ----- ----- ----<br>---- --- --- ----- --- ---- ---- ------- ----- ---- -------<br>--- --- -- ----- -- --- want -- --- ---- -- ------ ------<br>--- ----- -- ----,139930.34999999873,139927.05000000205,139566.838,139570.57500000155,139583.507,139933.556,,45,want
screen,html.Screen,2_1_0_1_46,2021-04-30T09:52:41.029Z,,,,,,,,,,,,,,,,,53,,,,,,,,,,,,,,305.5290000010573,,response,,,,99,,,,,,,Space,keypress(Space),,,,,,,,---- -- ----- -- ------ - ------- --- ----------<br>------------- ------ ------ ---- ---- ------- ----- -- ----<br>-------- ------- -- ---------- --- - --- ----- ----- ----<br>---- --- --- ----- --- ---- ---- ------- ----- ---- -------<br>--- --- -- ----- -- --- ---- to --- ---- -- ------ ------<br>--- ----- -- ----,140242.43000000206,140239.08500000107,139916.887,139930.47500000102,139933.556,140250.267,,46,to
screen,html.Screen,2_1_0_1_47,2021-04-30T09:52:41.341Z,,,,,,,,,,,,,,,,,53,,,,,,,,,,,,,,300.9479999995092,,response,,,,99,,,,,,,Space,keypress(Space),,,,,,,,"---- -- ----- -- ------ - ------- --- ----------<br>------------- ------ ------ ---- ---- ------- ----- -- ----<br>-------- ------- -- ---------- --- - --- ----- ----- ----<br>---- --- --- ----- --- ---- ---- ------- ----- ---- -------<br>--- --- -- ----- -- --- ---- -- be, ---- -- ------ ------<br>--- ----- -- ----",140554.84499999875,140551.2149999995,140233.598,140242.53500000123,140250.267,140566.978,,47,"be,"
screen,html.Screen,2_1_0_1_48,2021-04-30T09:52:41.757Z,,,,,,,,,,,,,,,,,53,,,,,,,,,,,,,,400.2370000005758,,response,,,,99,,,,,,,Space,keypress(Space),,,,,,,,---- -- ----- -- ------ - ------- --- ----------<br>------------- ------ ------ ---- ---- ------- ----- -- ----<br>-------- ------- -- ---------- --- - --- ----- ----- ----<br>---- --- --- ----- --- ---- ---- ------- ----- ---- -------<br>--- --- -- ----- -- --- ---- -- --- even -- ------ ------<br>--- ----- -- ----,140970.46500000215,140967.21500000058,140550.309,140554.95000000155,140566.978,140983.703,,48,even
screen,html.Screen,2_1_0_1_49,2021-04-30T09:52:42.165Z,,,,,,,,,,,,,,,,,53,,,,,,,,,,,,,,391.39700000110315,,response,,,,99,,,,,,,Space,keypress(Space),,,,,,,,---- -- ----- -- ------ - ------- --- ----------<br>------------- ------ ------ ---- ---- ------- ----- -- ----<br>-------- ------- -- ---------- --- - --- ----- ----- ----<br>---- --- --- ----- --- ---- ---- ------- ----- ---- -------<br>--- --- -- ----- -- --- ---- -- --- ---- if ------ ------<br>--- ----- -- ----,141378.33500000124,141375.1000000011,140967.034,140970.56499999962,140983.703,141383.759,,49,if
screen,html.Screen,2_1_0_1_50,2021-04-30T09:52:42.629Z,,,,,,,,,,,,,,,,,53,,,,,,,,,,,,,,455.4510000019218,,response,,,,99,,,,,,,Space,keypress(Space),,,,,,,,---- -- ----- -- ------ - ------- --- ----------<br>------------- ------ ------ ---- ---- ------- ----- -- ----<br>-------- ------- -- ---------- --- - --- ----- ----- ----<br>---- --- --- ----- --- ---- ---- ------- ----- ---- -------<br>--- --- -- ----- -- --- ---- -- --- ---- -- that's ------<br>--- ----- -- ----,141842.60500000164,141839.2100000019,141367.09,141378.45000000016,141383.759,141850.491,,50,that's
screen,html.Screen,2_1_0_1_51,2021-04-30T09:52:43.077Z,,,,,,,,,,,,,,,,,53,,,,,,,,,,,,,,436.7189999985858,,response,,,,99,,,,,,,Space,keypress(Space),,,,,,,,---- -- ----- -- ------ - ------- --- ----------<br>------------- ------ ------ ---- ---- ------- ----- -- ----<br>-------- ------- -- ---------- --- - --- ----- ----- ----<br>---- --- --- ----- --- ---- ---- ------- ----- ---- -------<br>--- --- -- ----- -- --- ---- -- --- ---- -- ------ really<br>--- ----- -- ----,142290.4950000011,142287.2099999986,141833.822,141842.70000000106,141850.491,142300.554,,51,really
screen,html.Screen,2_1_0_1_52,2021-04-30T09:52:43.471Z,,,,,,,,,,,,,,,,,53,,,,,,,,,,,,,,378.6560000020545,,response,,,,99,,,,,,,Space,keypress(Space),,,,,,,,---- -- ----- -- ------ - ------- --- ----------<br>------------- ------ ------ ---- ---- ------- ----- -- ----<br>-------- ------- -- ---------- --- - --- ----- ----- ----<br>---- --- --- ----- --- ---- ---- ------- ----- ---- -------<br>--- --- -- ----- -- --- ---- -- --- ---- -- ------ ------<br>not ----- -- ----,142685.0349999986,142679.21000000206,142283.885,142290.58000000077,142300.554,142700.61,,52,not
screen,html.Screen,2_1_0_1_53,2021-04-30T09:52:43.949Z,,,,,,,,,,,,,,,,,53,,,,,,,,,,,,,,458.51000000027125,,response,,,,99,,,,,,,Space,keypress(Space),,,,,,,,---- -- ----- -- ------ - ------- --- ----------<br>------------- ------ ------ ---- ---- ------- ----- -- ----<br>-------- ------- -- ---------- --- - --- ----- ----- ----<br>---- --- --- ----- --- ---- ---- ------- ----- ---- -------<br>--- --- -- ----- -- --- ---- -- --- ---- -- ------ ------<br>--- close -- ----,143163.11000000132,143159.12000000026,142683.941,142685.12499999997,142700.61,143167.342,,53,close
screen,html.Screen,2_1_0_1_54,2021-04-30T09:52:44.421Z,,,,,,,,,,,,,,,,,53,,,,,,,,,,,,,,463.8229999988689,,response,,,,99,,,,,,,Space,keypress(Space),,,,,,,,---- -- ----- -- ------ - ------- --- ----------<br>------------- ------ ------ ---- ---- ------- ----- -- ----<br>-------- ------- -- ---------- --- - --- ----- ----- ----<br>---- --- --- ----- --- ---- ---- ------- ----- ---- -------<br>--- --- -- ----- -- --- ---- -- --- ---- -- ------ ------<br>--- ----- at ----,143634.399999999,143631.16499999887,143150.673,143163.20500000074,143167.342,143650.743,,54,at
screen,html.Screen,2_1_0_1_55,2021-04-30T09:52:45.653Z,,,,,,,,,,,,,,,,,53,,,,,,,,,,,,,,1212.507000002166,,response,,,,99,,,,,,,Space,keypress(Space),,,,,,,,---- -- ----- -- ------ - ------- --- ----------<br>------------- ------ ------ ---- ---- ------- ----- -- ----<br>-------- ------- -- ---------- --- - --- ----- ----- ----<br>---- --- --- ----- --- ---- ---- ------- ----- ---- -------<br>--- --- -- ----- -- --- ---- -- --- ---- -- ------ ------<br>--- ----- -- all.,144866.6200000007,144863.25000000215,143634.074,143634.49000000037,143650.743,144884.249,,55,all.
Item 99,flow.Loop,2_1_0_1,2021-04-30T09:52:45.653Z,,,,,,,,,,,,,,,,,,,,,,,,,,,,,,,23566.098000002152,,completion,,,,,B,,,,,,,,,,,silence,,,,,144866.83999999877,144863.25000000215,121280.483,121282.21000000121,121297.152,144884.249,,,
Question 1,html.Screen,2_1_0_2,2021-04-30T09:52:55.005Z,,,,,,,,,,,,,,,,,,,,,,,,,,,,true,FALSE,,9332.981000002008,,response,,,,99,B,,,,,,FALSE,click #choice-2,,,,silence,,,,,154219.02500000215,154217.23000000202,144867.58,144866.93500000183,144884.249,154219.126,,,
Question 2,html.Screen,2_1_0_3,2021-04-30T09:53:00.409Z,,,,,,,,,,,,,,,,,,,,,,,,,,,,true,TRUE,,5401.96400000056,,response,,,,99,B,,,,,,TRUE,click #choice-1,,,,silence,,,,,159622.56999999954,159621.09000000055,154202.457,154219.1300000013,154219.126,159636.78,,,
Item 99,flow.Sequence,2_1_0,2021-04-30T09:53:00.409Z,,,,,,,,,,,,,,,,,,,,,,,,,,,,,,,48325.566000000545,,completion,,,,,,,,,,,,,,,,,,,,,159622.72999999914,159621.09000000055,111278.855,111288.00000000047,111295.524,159636.78,,,
Holding screen,html.Screen,2_1_1_0,2021-04-30T09:53:10.409Z,,,,,,,,,,,,,,,,,,,,,,,,,,,,,,,10001.630999999994,,timeout,,,,,,,,,,,,,,,,,,,,,169622.86500000118,169621.742,159620.111,159622.83000000025,159636.78,169638.411,,,
screen,html.Screen,2_1_1_1_0,2021-04-30T09:53:11.199Z,,,,,,,,,,,,,,,,,54,,,,,,,,,,,,,,768.7790000017267,,response,,,,100,,,,,,,Space,keypress(Space),,,,,,,,At --- ---- --- ------ ----- ------- ---- -- --- ------- --<br>------- ---------- ------ -- ----- -- ----- -- ---- ------<br>--- ----- --- --- ------ -------- ----- --- ------ ----- --<br>----- ----- ---------- --- --- ------ ------ ---- -- ------<br>------- --- ------ ----- --- ---- ------- -- ---- --- --<br>------- ------,170413.04500000115,170407.19000000172,169621.742,169622.9999999996,169638.411,170421.854,,0,At
screen,html.Screen,2_1_1_1_1,2021-04-30T09:53:11.540Z,,,,,,,,,,,,,,,,,54,,,,,,,,,,,,,,329.301000001753,,response,,,,100,,,,,,,Space,keypress(Space),,,,,,,,-- the ---- --- ------ ----- ------- ---- -- --- ------- --<br>------- ---------- ------ -- ----- -- ----- -- ---- ------<br>--- ----- --- --- ------ -------- ----- --- ------ ----- --<br>----- ----- ---------- --- --- ------ ------ ---- -- ------<br>------- --- ------ ----- --- ---- ------- -- ---- --- --<br>------- ------,170754.49500000104,170751.15500000175,170405.185,170413.14000000057,170421.854,170755.234,,1,the
screen,html.Screen,2_1_1_1_2,2021-04-30T09:53:11.844Z,,,,,,,,,,,,,,,,,54,,,,,,,,,,,,,,299.97599999862723,,response,,,,100,,,,,,,Space,keypress(Space),,,,,,,,-- --- time --- ------ ----- ------- ---- -- --- ------- --<br>------- ---------- ------ -- ----- -- ----- -- ---- ------<br>--- ----- --- --- ------ -------- ----- --- ------ ----- --<br>----- ----- ---------- --- --- ------ ------ ---- -- ------<br>------- --- ------ ----- --- ---- ------- -- ---- --- --<br>------- ------,171058.51500000063,171055.20999999862,170738.565,170754.59000000046,170755.234,171071.945,,2,time
screen,html.Screen,2_1_1_1_3,2021-04-30T09:53:12.220Z,,,,,,,,,,,,,,,,,54,,,,,,,,,,,,,,359.20500000033644,,response,,,,100,,,,,,,Space,keypress(Space),,,,,,,,-- --- ---- the ------ ----- ------- ---- -- --- ------- --<br>------- ---------- ------ -- ----- -- ----- -- ---- ------<br>--- ----- --- --- ------ -------- ----- --- ------ ----- --<br>----- ----- ---------- --- --- ------ ------ ---- -- ------<br>------- --- ------ ----- --- ---- ------- -- ---- --- --<br>------- ------,171434.4200000014,171431.15000000034,171055.276,171058.62999999954,171071.945,171438.663,,3,the
screen,html.Screen,2_1_1_1_4,2021-04-30T09:53:12.580Z,,,,,,,,,,,,,,,,,54,,,,,,,,,,,,,,352.4120000010007,,response,,,,100,,,,,,,Space,keypress(Space),,,,,,,,-- --- ---- --- French ----- ------- ---- -- --- ------- --<br>------- ---------- ------ -- ----- -- ----- -- ---- ------<br>--- ----- --- --- ------ -------- ----- --- ------ ----- --<br>----- ----- ---------- --- --- ------ ------ ---- -- ------<br>------- --- ------ ----- --- ---- ------- -- ---- --- --<br>------- ------,171793.88000000108,171791.075000001,171421.994,171434.51999999888,171438.663,171805.381,,4,French
screen,html.Screen,2_1_1_1_5,2021-04-30T09:53:12.996Z,,,,,,,,,,,,,,,,,54,,,,,,,,,,,,,,401.7790000017558,,response,,,,100,,,,,,,Space,keypress(Space),,,,,,,,-- --- ---- --- ------ crown ------- ---- -- --- ------- --<br>------- ---------- ------ -- ----- -- ----- -- ---- ------<br>--- ----- --- --- ------ -------- ----- --- ------ ----- --<br>----- ----- ---------- --- --- ------ ------ ---- -- ------<br>------- --- ------ ----- --- ---- ------- -- ---- --- --<br>------- ------,172210.4900000013,172207.16000000175,171788.712,171793.95999999906,171805.381,172222.106,,5,crown
screen,html.Screen,2_1_1_1_6,2021-04-30T09:53:13.412Z,,,,,,,,,,,,,,,,,54,,,,,,,,,,,,,,401.0690000006289,,response,,,,100,,,,,,,Space,keypress(Space),,,,,,,,-- --- ---- --- ------ ----- secured ---- -- --- ------- --<br>------- ---------- ------ -- ----- -- ----- -- ---- ------<br>--- ----- --- --- ------ -------- ----- --- ------ ----- --<br>----- ----- ---------- --- --- ------ ------ ---- -- ------<br>------- --- ------ ----- --- ---- ------- -- ---- --- --<br>------- ------,172626.36500000008,172623.17500000063,172205.437,172210.58999999877,172222.106,172638.831,,6,secured
screen,html.Screen,2_1_1_1_7,2021-04-30T09:53:13.852Z,,,,,,,,,,,,,,,,,54,,,,,,,,,,,,,,424.2489999998943,,response,,,,100,,,,,,,Space,keypress(Space),,,,,,,,-- --- ---- --- ------ ----- ------- much -- --- ------- --<br>------- ---------- ------ -- ----- -- ----- -- ---- ------<br>--- ----- --- --- ------ -------- ----- --- ------ ----- --<br>----- ----- ---------- --- --- ------ ------ ---- -- ------<br>------- --- ------ ----- --- ---- ------- -- ---- --- --<br>------- ------,173066.19000000137,173063.0799999999,172622.162,172626.47500000094,172638.831,173072.225,,7,much
screen,html.Screen,2_1_1_1_8,2021-04-30T09:53:14.220Z,,,,,,,,,,,,,,,,,54,,,,,,,,,,,,,,358.9649999993271,,response,,,,100,,,,,,,Space,keypress(Space),,,,,,,,-- --- ---- --- ------ ----- ------- ---- of --- ------- --<br>------- ---------- ------ -- ----- -- ----- -- ---- ------<br>--- ----- --- --- ------ -------- ----- --- ------ ----- --<br>----- ----- ---------- --- --- ------ ------ ---- -- ------<br>------- --- ------ ----- --- ---- ------- -- ---- --- --<br>------- ------,173434.4349999992,173431.18999999933,173055.556,173066.2850000008,173072.225,173438.943,,8,of
screen,html.Screen,2_1_1_1_9,2021-04-30T09:53:14.564Z,,,,,,,,,,,,,,,,,54,,,,,,,,,,,,,,336.22199999910663,,response,,,,100,,,,,,,Space,keypress(Space),,,,,,,,-- --- ---- --- ------ ----- ------- ---- -- its ------- --<br>------- ---------- ------ -- ----- -- ----- -- ---- ------<br>--- ----- --- --- ------ -------- ----- --- ------ ----- --<br>----- ----- ---------- --- --- ------ ------ ---- -- ------<br>------- --- ------ ----- --- ---- ------- -- ---- --- --<br>------- ------,173778.4649999994,173775.1649999991,173422.274,173434.54500000007,173438.943,173788.992,,9,its
screen,html.Screen,2_1_1_1_10,2021-04-30T09:53:14.916Z,,,,,,,,,,,,,,,,,54,,,,,,,,,,,,,,338.2230000004347,,response,,,,100,,,,,,,Space,keypress(Space),,,,,,,,-- --- ---- --- ------ ----- ------- ---- -- --- revenue --<br>------- ---------- ------ -- ----- -- ----- -- ---- ------<br>--- ----- --- --- ------ -------- ----- --- ------ ----- --<br>----- ----- ---------- --- --- ------ ------ ---- -- ------<br>------- --- ------ ----- --- ---- ------- -- ---- --- --<br>------- ------,174130.45000000056,174127.21500000043,173772.323,173778.5900000017,173788.992,174139.041,,10,revenue
screen,html.Screen,2_1_1_1_11,2021-04-30T09:53:15.444Z,,,,,,,,,,,,,,,,,54,,,,,,,,,,,,,,516.0440000021481,,response,,,,100,,,,,,,Space,keypress(Space),,,,,,,,-- --- ---- --- ------ ----- ------- ---- -- --- ------- by<br>------- ---------- ------ -- ----- -- ----- -- ---- ------<br>--- ----- --- --- ------ -------- ----- --- ------ ----- --<br>----- ----- ---------- --- --- ------ ------ ---- -- ------<br>------- --- ------ ----- --- ---- ------- -- ---- --- --<br>------- ------,174658.29999999914,174655.08500000215,174122.372,174130.56000000142,174139.041,174672.449,,11,by
screen,html.Screen,2_1_1_1_12,2021-04-30T09:53:15.877Z,,,,,,,,,,,,,,,,,54,,,,,,,,,,,,,,414.61599999971804,,response,,,,100,,,,,,,Space,keypress(Space),,,,,,,,-- --- ---- --- ------ ----- ------- ---- -- --- ------- --<br>issuing ---------- ------ -- ----- -- ----- -- ---- ------<br>--- ----- --- --- ------ -------- ----- --- ------ ----- --<br>----- ----- ---------- --- --- ------ ------ ---- -- ------<br>------- --- ------ ----- --- ---- ------- -- ---- --- --<br>------- ------,175091.00500000204,175087.0649999997,174655.78,174658.3900000005,174672.449,175105.843,,12,issuing
screen,html.Screen,2_1_1_1_13,2021-04-30T09:53:16.259Z,,,,,,,,,,,,,,,,,54,,,,,,,,,,,,,,365.18700000061654,,response,,,,100,,,,,,,Space,keypress(Space),,,,,,,,-- --- ---- --- ------ ----- ------- ---- -- --- ------- --<br>------- government ------ -- ----- -- ----- -- ---- ------<br>--- ----- --- --- ------ -------- ----- --- ------ ----- --<br>----- ----- ---------- --- --- ------ ------ ---- -- ------<br>------- --- ------ ----- --- ---- ------- -- ---- --- --<br>------- ------,175473.4900000003,175471.0300000006,175089.174,175091.10000000146,175105.843,175489.23,,13,government
screen,html.Screen,2_1_1_1_14,2021-04-30T09:53:16.724Z,,,,,,,,,,,,,,,,,54,,,,,,,,,,,,,,445.96500000183005,,response,,,,100,,,,,,,Space,keypress(Space),,,,,,,,-- --- ---- --- ------ ----- ------- ---- -- --- ------- --<br>------- ---------- bonds. -- ----- -- ----- -- ---- ------<br>--- ----- --- --- ------ -------- ----- --- ------ ----- --<br>----- ----- ---------- --- --- ------ ------ ---- -- ------<br>------- --- ------ ----- --- ---- ------- -- ---- --- --<br>------- ------,175938.36999999985,175935.19500000184,175472.561,175473.57499999998,175489.23,175939.293,,14,bonds.
screen,html.Screen,2_1_1_1_15,2021-04-30T09:53:17.444Z,,,,,,,,,,,,,,,,,54,,,,,,,,,,,,,,715.9319999986037,,response,,,,100,,,,,,,Space,keypress(Space),,,,,,,,-- --- ---- --- ------ ----- ------- ---- -- --- ------- --<br>------- ---------- ------ In ----- -- ----- -- ---- ------<br>--- ----- --- --- ------ -------- ----- --- ------ ----- --<br>----- ----- ---------- --- --- ------ ------ ---- -- ------<br>------- --- ------ ----- --- ---- ------- -- ---- --- --<br>------- ------,176658.64000000147,176655.2249999986,175922.624,175938.4800000007,175939.293,176672.729,,15,In
screen,html.Screen,2_1_1_1_16,2021-04-30T09:53:17.788Z,,,,,,,,,,,,,,,,,54,,,,,,,,,,,,,,326.38599999871803,,response,,,,100,,,,,,,Space,keypress(Space),,,,,,,,"-- --- ---- --- ------ ----- ------- ---- -- --- ------- --<br>------- ---------- ------ -- 1727, -- ----- -- ---- ------<br>--- ----- --- --- ------ -------- ----- --- ------ ----- --<br>----- ----- ---------- --- --- ------ ------ ---- -- ------<br>------- --- ------ ----- --- ---- ------- -- ---- --- --<br>------- ------",177002.38499999978,176999.1149999987,176656.06,176658.74500000064,176672.729,177006.109,,16,"1727,"
screen,html.Screen,2_1_1_1_17,2021-04-30T09:53:18.436Z,,,,,,,,,,,,,,,,,54,,,,,,,,,,,,,,641.056000002136,,response,,,,100,,,,,,,Space,keypress(Space),,,,,,,,-- --- ---- --- ------ ----- ------- ---- -- --- ------- --<br>------- ---------- ------ -- ----- in ----- -- ---- ------<br>--- ----- --- --- ------ -------- ----- --- ------ ----- --<br>----- ----- ---------- --- --- ------ ------ ---- -- ------<br>------- --- ------ ----- --- ---- ------- -- ---- --- --<br>------- ------,177650.49500000168,177647.16500000213,176989.44,177002.49500000064,177006.109,177656.423,,17,in
screen,html.Screen,2_1_1_1_18,2021-04-30T09:53:18.780Z,,,,,,,,,,,,,,,,,54,,,,,,,,,,,,,,334.6420000019716,,response,,,,100,,,,,,,Space,keypress(Space),,,,,,,,-- --- ---- --- ------ ----- ------- ---- -- --- ------- --<br>------- ---------- ------ -- ----- -- order -- ---- ------<br>--- ----- --- --- ------ -------- ----- --- ------ ----- --<br>----- ----- ---------- --- --- ------ ------ ---- -- ------<br>------- --- ------ ----- --- ---- ------- -- ---- --- --<br>------- ------,177994.55500000113,177991.06500000198,177639.754,177650.60000000085,177656.423,178006.472,,18,order
screen,html.Screen,2_1_1_1_19,2021-04-30T09:53:19.164Z,,,,,,,,,,,,,,,,,54,,,,,,,,,,,,,,368.5880000021134,,response,,,,100,,,,,,,Space,keypress(Space),,,,,,,,-- --- ---- --- ------ ----- ------- ---- -- --- ------- --<br>------- ---------- ------ -- ----- -- ----- to ---- ------<br>--- ----- --- --- ------ -------- ----- --- ------ ----- --<br>----- ----- ---------- --- --- ------ ------ ---- -- ------<br>------- --- ------ ----- --- ---- ------- -- ---- --- --<br>------- ------,178378.56499999907,178375.06000000212,177989.803,177994.65000000055,178006.472,178389.859,,19,to
screen,html.Screen,2_1_1_1_20,2021-04-30T09:53:19.492Z,,,,,,,,,,,,,,,,,54,,,,,,,,,,,,,,313.35600000136765,,response,,,,100,,,,,,,Space,keypress(Space),,,,,,,,-- --- ---- --- ------ ----- ------- ---- -- --- ------- --<br>------- ---------- ------ -- ----- -- ----- -- save ------<br>--- ----- --- --- ------ -------- ----- --- ------ ----- --<br>----- ----- ---------- --- --- ------ ------ ---- -- ------<br>------- --- ------ ----- --- ---- ------- -- ---- --- --<br>------- ------,178706.64500000203,178703.21500000136,178373.19,178378.65500000044,178389.859,178723.239,,20,save
screen,html.Screen,2_1_1_1_21,2021-04-30T09:53:19.892Z,,,,,,,,,,,,,,,,,54,,,,,,,,,,,,,,379.9260000004433,,response,,,,100,,,,,,,Space,keypress(Space),,,,,,,,"-- --- ---- --- ------ ----- ------- ---- -- --- ------- --<br>------- ---------- ------ -- ----- -- ----- -- ---- money,<br>--- ----- --- --- ------ -------- ----- --- ------ ----- --<br>----- ----- ---------- --- --- ------ ------ ---- -- ------<br>------- --- ------ ----- --- ---- ------- -- ---- --- --<br>------- ------",179106.66499999934,179103.16500000044,178706.57,178706.7449999995,178723.239,179123.295,,21,"money,"
screen,html.Screen,2_1_1_1_22,2021-04-30T09:53:20.260Z,,,,,,,,,,,,,,,,,54,,,,,,,,,,,,,,347.8650000009511,,response,,,,100,,,,,,,Space,keypress(Space),,,,,,,,-- --- ---- --- ------ ----- ------- ---- -- --- ------- --<br>------- ---------- ------ -- ----- -- ----- -- ---- ------<br>the ----- --- --- ------ -------- ----- --- ------ ----- --<br>----- ----- ---------- --- --- ------ ------ ---- -- ------<br>------- --- ------ ----- --- ---- ------- -- ---- --- --<br>------- ------,179474.45000000153,179471.16000000096,179106.626,179106.7800000019,179123.295,179490.013,,22,the
screen,html.Screen,2_1_1_1_23,2021-04-30T09:53:20.652Z,,,,,,,,,,,,,,,,,54,,,,,,,,,,,,,,373.2069999992673,,response,,,,100,,,,,,,Space,keypress(Space),,,,,,,,-- --- ---- --- ------ ----- ------- ---- -- --- ------- --<br>------- ---------- ------ -- ----- -- ----- -- ---- ------<br>--- state --- --- ------ -------- ----- --- ------ ----- --<br>----- ----- ---------- --- --- ------ ------ ---- -- ------<br>------- --- ------ ----- --- ---- ------- -- ---- --- --<br>------- ------,179866.49000000034,179863.21999999927,179473.344,179474.53999999925,179490.013,179873.4,,23,state
screen,html.Screen,2_1_1_1_24,2021-04-30T09:53:21.036Z,,,,,,,,,,,,,,,,,54,,,,,,,,,,,,,,373.82000000111293,,response,,,,100,,,,,,,Space,keypress(Space),,,,,,,,-- --- ---- --- ------ ----- ------- ---- -- --- ------- --<br>------- ---------- ------ -- ----- -- ----- -- ---- ------<br>--- ----- cut --- ------ -------- ----- --- ------ ----- --<br>----- ----- ---------- --- --- ------ ------ ---- -- ------<br>------- --- ------ ----- --- ---- ------- -- ---- --- --<br>------- ------,180250.71000000025,180247.2200000011,179856.731,179866.6000000012,179873.4,180256.787,,24,cut
screen,html.Screen,2_1_1_1_25,2021-04-30T09:53:21.399Z,,,,,,,,,,,,,,,,,54,,,,,,,,,,,,,,350.433000001678,,response,,,,100,,,,,,,Space,keypress(Space),,,,,,,,-- --- ---- --- ------ ----- ------- ---- -- --- ------- --<br>------- ---------- ------ -- ----- -- ----- -- ---- ------<br>--- ----- --- the ------ -------- ----- --- ------ ----- --<br>----- ----- ---------- --- --- ------ ------ ---- -- ------<br>------- --- ------ ----- --- ---- ------- -- ---- --- --<br>------- ------,180613.6000000006,180607.2200000017,180240.118,180250.81499999942,180256.787,180623.505,,25,the
screen,html.Screen,2_1_1_1_26,2021-04-30T09:53:21.748Z,,,,,,,,,,,,,,,,,54,,,,,,,,,,,,,,335.6550000021525,,response,,,,100,,,,,,,Space,keypress(Space),,,,,,,,-- --- ---- --- ------ ----- ------- ---- -- --- ------- --<br>------- ---------- ------ -- ----- -- ----- -- ---- ------<br>--- ----- --- --- bonds' -------- ----- --- ------ ----- --<br>----- ----- ---------- --- --- ------ ------ ---- -- ------<br>------- --- ------ ----- --- ---- ------- -- ---- --- --<br>------- ------,180962.39499999865,180959.16000000216,180606.836,180613.7000000017,180623.505,180973.554,,26,bonds'
screen,html.Screen,2_1_1_1_27,2021-04-30T09:53:22.156Z,,,,,,,,,,,,,,,,,54,,,,,,,,,,,,,,393.62099999940256,,response,,,,100,,,,,,,Space,keypress(Space),,,,,,,,-- --- ---- --- ------ ----- ------- ---- -- --- ------- --<br>------- ---------- ------ -- ----- -- ----- -- ---- ------<br>--- ----- --- --- ------ interest ----- --- ------ ----- --<br>----- ----- ---------- --- --- ------ ------ ---- -- ------<br>------- --- ------ ----- --- ---- ------- -- ---- --- --<br>------- ------,181370.5200000004,181367.1749999994,180956.885,180962.49499999976,180973.554,181373.61,,27,interest
screen,html.Screen,2_1_1_1_28,2021-04-30T09:53:22.563Z,,,,,,,,,,,,,,,,,54,,,,,,,,,,,,,,401.44500000189873,,response,,,,100,,,,,,,Space,keypress(Space),,,,,,,,-- --- ---- --- ------ ----- ------- ---- -- --- ------- --<br>------- ---------- ------ -- ----- -- ----- -- ---- ------<br>--- ----- --- --- ------ -------- rate. --- ------ ----- --<br>----- ----- ---------- --- --- ------ ------ ---- -- ------<br>------- --- ------ ----- --- ---- ------- -- ---- --- --<br>------- ------,181777.82999999908,181775.05500000188,181356.941,181370.61499999982,181373.61,181790.335,,28,rate.
screen,html.Screen,2_1_1_1_29,2021-04-30T09:53:22.980Z,,,,,,,,,,,,,,,,,54,,,,,,,,,,,,,,400.72999999907915,,response,,,,100,,,,,,,Space,keypress(Space),,,,,,,,-- --- ---- --- ------ ----- ------- ---- -- --- ------- --<br>------- ---------- ------ -- ----- -- ----- -- ---- ------<br>--- ----- --- --- ------ -------- ----- The ------ ----- --<br>----- ----- ---------- --- --- ------ ------ ---- -- ------<br>------- --- ------ ----- --- ---- ------- -- ---- --- --<br>------- ------,182194.15500000105,182191.06499999907,181773.666,181777.9100000007,181790.335,182207.06,,29,The
screen,html.Screen,2_1_1_1_30,2021-04-30T09:53:23.364Z,,,,,,,,,,,,,,,,,54,,,,,,,,,,,,,,368.1750000002503,,response,,,,100,,,,,,,Space,keypress(Space),,,,,,,,-- --- ---- --- ------ ----- ------- ---- -- --- ------- --<br>------- ---------- ------ -- ----- -- ----- -- ---- ------<br>--- ----- --- --- ------ -------- ----- --- market ----- --<br>----- ----- ---------- --- --- ------ ------ ---- -- ------<br>------- --- ------ ----- --- ---- ------- -- ---- --- --<br>------- ------,182578.6049999988,182575.23500000025,182190.391,182194.25500000216,182207.06,182590.447,,30,market
screen,html.Screen,2_1_1_1_31,2021-04-30T09:53:23.756Z,,,,,,,,,,,,,,,,,54,,,,,,,,,,,,,,376.7380000013509,,response,,,,100,,,,,,,Space,keypress(Space),,,,,,,,-- --- ---- --- ------ ----- ------- ---- -- --- ------- --<br>------- ---------- ------ -- ----- -- ----- -- ---- ------<br>--- ----- --- --- ------ -------- ----- --- ------ value --<br>----- ----- ---------- --- --- ------ ------ ---- -- ------<br>------- --- ------ ----- --- ---- ------- -- ---- --- --<br>------- ------,182969.99000000142,182967.18500000134,182573.778,182578.71499999965,182590.447,182973.834,,31,value
screen,html.Screen,2_1_1_1_32,2021-04-30T09:53:24.148Z,,,,,,,,,,,,,,,,,54,,,,,,,,,,,,,,385.2960000007297,,response,,,,100,,,,,,,Space,keypress(Space),,,,,,,,-- --- ---- --- ------ ----- ------- ---- -- --- ------- --<br>------- ---------- ------ -- ----- -- ----- -- ---- ------<br>--- ----- --- --- ------ -------- ----- --- ------ ----- of<br>----- ----- ---------- --- --- ------ ------ ---- -- ------<br>------- --- ------ ----- --- ---- ------- -- ---- --- --<br>------- ------,183362.32500000187,183359.13000000073,182957.165,182970.0750000011,182973.834,183373.89,,32,of
screen,html.Screen,2_1_1_1_33,2021-04-30T09:53:24.524Z,,,,,,,,,,,,,,,,,54,,,,,,,,,,,,,,361.2899999996589,,response,,,,100,,,,,,,Space,keypress(Space),,,,,,,,-- --- ---- --- ------ ----- ------- ---- -- --- ------- --<br>------- ---------- ------ -- ----- -- ----- -- ---- ------<br>--- ----- --- --- ------ -------- ----- --- ------ ----- --<br>these ----- ---------- --- --- ------ ------ ---- -- ------<br>------- --- ------ ----- --- ---- ------- -- ---- --- --<br>------- ------,183738.49999999948,183735.17999999967,183357.221,183362.4149999996,183373.89,183740.608,,33,these
screen,html.Screen,2_1_1_1_34,2021-04-30T09:53:24.900Z,,,,,,,,,,,,,,,,,54,,,,,,,,,,,,,,370.5469999986817,,response,,,,100,,,,,,,Space,keypress(Space),,,,,,,,-- --- ---- --- ------ ----- ------- ---- -- --- ------- --<br>------- ---------- ------ -- ----- -- ----- -- ---- ------<br>--- ----- --- --- ------ -------- ----- --- ------ ----- --<br>----- bonds ---------- --- --- ------ ------ ---- -- ------<br>------- --- ------ ----- --- ---- ------- -- ---- --- --<br>------- ------,184114.42499999976,184111.1549999987,183723.939,183738.5949999989,183740.608,184123.995,,34,bonds
screen,html.Screen,2_1_1_1_35,2021-04-30T09:53:25.388Z,,,,,,,,,,,,,,,,,54,,,,,,,,,,,,,,475.22000000200933,,response,,,,100,,,,,,,Space,keypress(Space),,,,,,,,"-- --- ---- --- ------ ----- ------- ---- -- --- ------- --<br>------- ---------- ------ -- ----- -- ----- -- ---- ------<br>--- ----- --- --- ------ -------- ----- --- ------ ----- --<br>----- ----- plummeted, --- --- ------ ------ ---- -- ------<br>------- --- ------ ----- --- ---- ------- -- ---- --- --<br>------- ------",184602.5899999986,184599.215000002,184107.326,184114.52500000087,184123.995,184607.396,,35,"plummeted,"
screen,html.Screen,2_1_1_1_36,2021-04-30T09:53:25.899Z,,,,,,,,,,,,,,,,,54,,,,,,,,,,,,,,495.8540000001085,,response,,,,100,,,,,,,Space,keypress(Space),,,,,,,,-- --- ---- --- ------ ----- ------- ---- -- --- ------- --<br>------- ---------- ------ -- ----- -- ----- -- ---- ------<br>--- ----- --- --- ------ -------- ----- --- ------ ----- --<br>----- ----- ---------- and --- ------ ------ ---- -- ------<br>------- --- ------ ----- --- ---- ------- -- ---- --- --<br>------- ------,185113.52500000066,185103.25000000012,184590.727,184602.68500000166,184607.396,185124.135,,36,and
screen,html.Screen,2_1_1_1_37,2021-04-30T09:53:26.364Z,,,,,,,,,,,,,,,,,54,,,,,,,,,,,,,,450.9999999991269,,response,,,,100,,,,,,,Space,keypress(Space),,,,,,,,-- --- ---- --- ------ ----- ------- ---- -- --- ------- --<br>------- ---------- ------ -- ----- -- ----- -- ---- ------<br>--- ----- --- --- ------ -------- ----- --- ------ ----- --<br>----- ----- ---------- --- the ------ ------ ---- -- ------<br>------- --- ------ ----- --- ---- ------- -- ---- --- --<br>------- ------,185578.41499999995,185575.13499999914,185107.466,185113.60499999864,185124.135,185590.867,,37,the
screen,html.Screen,2_1_1_1_38,2021-04-30T09:53:26.779Z,,,,,,,,,,,,,,,,,54,,,,,,,,,,,,,,400.1679999991029,,response,,,,100,,,,,,,Space,keypress(Space),,,,,,,,-- --- ---- --- ------ ----- ------- ---- -- --- ------- --<br>------- ---------- ------ -- ----- -- ----- -- ---- ------<br>--- ----- --- --- ------ -------- ----- --- ------ ----- --<br>----- ----- ---------- --- --- market ------ ---- -- ------<br>------- --- ------ ----- --- ---- ------- -- ---- --- --<br>------- ------,185993.68500000128,185991.0349999991,185574.198,185578.53500000056,185590.867,186007.592,,38,market
screen,html.Screen,2_1_1_1_39,2021-04-30T09:53:27.164Z,,,,,,,,,,,,,,,,,54,,,,,,,,,,,,,,367.56300000153715,,response,,,,100,,,,,,,Space,keypress(Space),,,,,,,,-- --- ---- --- ------ ----- ------- ---- -- --- ------- --<br>------- ---------- ------ -- ----- -- ----- -- ---- ------<br>--- ----- --- --- ------ -------- ----- --- ------ ----- --<br>----- ----- ---------- --- --- ------ became ---- -- ------<br>------- --- ------ ----- --- ---- ------- -- ---- --- --<br>------- ------,186378.61500000145,186375.15500000154,185990.923,185993.76499999926,186007.592,186390.979,,39,became
screen,html.Screen,2_1_1_1_40,2021-04-30T09:53:27.668Z,,,,,,,,,,,,,,,,,54,,,,,,,,,,,,,,488.210999999661,,response,,,,100,,,,,,,Space,keypress(Space),,,,,,,,-- --- ---- --- ------ ----- ------- ---- -- --- ------- --<br>------- ---------- ------ -- ----- -- ----- -- ---- ------<br>--- ----- --- --- ------ -------- ----- --- ------ ----- --<br>----- ----- ---------- --- --- ------ ------ wary -- ------<br>------- --- ------ ----- --- ---- ------- -- ---- --- --<br>------- ------,186882.46499999877,186879.18999999965,186374.31,186378.73000000036,186390.979,186891.049,,40,wary
screen,html.Screen,2_1_1_1_41,2021-04-30T09:53:28.108Z,,,,,,,,,,,,,,,,,54,,,,,,,,,,,,,,428.1510000017297,,response,,,,100,,,,,,,Space,keypress(Space),,,,,,,,-- --- ---- --- ------ ----- ------- ---- -- --- ------- --<br>------- ---------- ------ -- ----- -- ----- -- ---- ------<br>--- ----- --- --- ------ -------- ----- --- ------ ----- --<br>----- ----- ---------- --- --- ------ ------ ---- of ------<br>------- --- ------ ----- --- ---- ------- -- ---- --- --<br>------- ------,187322.54000000103,187319.20000000173,186874.38,186882.58000000133,186891.049,187324.443,,41,of
screen,html.Screen,2_1_1_1_42,2021-04-30T09:53:28.492Z,,,,,,,,,,,,,,,,,54,,,,,,,,,,,,,,378.7270000006829,,response,,,,100,,,,,,,Space,keypress(Space),,,,,,,,-- --- ---- --- ------ ----- ------- ---- -- --- ------- --<br>------- ---------- ------ -- ----- -- ----- -- ---- ------<br>--- ----- --- --- ------ -------- ----- --- ------ ----- --<br>----- ----- ---------- --- --- ------ ------ ---- -- French<br>------- --- ------ ----- --- ---- ------- -- ---- --- --<br>------- ------,187706.09500000137,187703.17000000068,187307.774,187322.64000000214,187324.443,187708.057,,42,French
screen,html.Screen,2_1_1_1_43,2021-04-30T09:53:28.940Z,,,,,,,,,,,,,,,,,54,,,,,,,,,,,,,,443.1829999992333,,response,,,,100,,,,,,,Space,keypress(Space),,,,,,,,-- --- ---- --- ------ ----- ------- ---- -- --- ------- --<br>------- ---------- ------ -- ----- -- ----- -- ---- ------<br>--- ----- --- --- ------ -------- ----- --- ------ ----- --<br>----- ----- ---------- --- --- ------ ------ ---- -- ------<br>credit. --- ------ ----- --- ---- ------- -- ---- --- --<br>------- ------,188154.55500000098,188151.23999999923,187691.388,187706.17499999935,187708.057,188158.12,,43,credit.
screen,html.Screen,2_1_1_1_44,2021-04-30T09:53:29.324Z,,,,,,,,,,,,,,,,,54,,,,,,,,,,,,,,377.09000000183005,,response,,,,100,,,,,,,Space,keypress(Space),,,,,,,,-- --- ---- --- ------ ----- ------- ---- -- --- ------- --<br>------- ---------- ------ -- ----- -- ----- -- ---- ------<br>--- ----- --- --- ------ -------- ----- --- ------ ----- --<br>----- ----- ---------- --- --- ------ ------ ---- -- ------<br>------- The ------ ----- --- ---- ------- -- ---- --- --<br>------- ------,188538.4950000007,188535.21000000183,188141.451,188154.6500000004,188158.12,188541.507,,44,The
screen,html.Screen,2_1_1_1_45,2021-04-30T09:53:29.708Z,,,,,,,,,,,,,,,,,54,,,,,,,,,,,,,,377.5680000016,,response,,,,100,,,,,,,Space,keypress(Space),,,,,,,,-- --- ---- --- ------ ----- ------- ---- -- --- ------- --<br>------- ---------- ------ -- ----- -- ----- -- ---- ------<br>--- ----- --- --- ------ -------- ----- --- ------ ----- --<br>----- ----- ---------- --- --- ------ ------ ---- -- ------<br>------- --- French ----- --- ---- ------- -- ---- --- --<br>------- ------,188922.34499999904,188919.0750000016,188524.838,188538.6099999996,188541.507,188924.894,,45,French
screen,html.Screen,2_1_1_1_46,2021-04-30T09:53:30.076Z,,,,,,,,,,,,,,,,,54,,,,,,,,,,,,,,362.2409999986703,,response,,,,100,,,,,,,Space,keypress(Space),,,,,,,,-- --- ---- --- ------ ----- ------- ---- -- --- ------- --<br>------- ---------- ------ -- ----- -- ----- -- ---- ------<br>--- ----- --- --- ------ -------- ----- --- ------ ----- --<br>----- ----- ---------- --- --- ------ ------ ---- -- ------<br>------- --- ------ state --- ---- ------- -- ---- --- --<br>------- ------,189290.41499999948,189287.13499999867,188908.225,188922.4400000021,188924.894,189291.612,,46,state
screen,html.Screen,2_1_1_1_47,2021-04-30T09:53:30.444Z,,,,,,,,,,,,,,,,,54,,,,,,,,,,,,,,363.46800000045914,,response,,,,100,,,,,,,Space,keypress(Space),,,,,,,,-- --- ---- --- ------ ----- ------- ---- -- --- ------- --<br>------- ---------- ------ -- ----- -- ----- -- ---- ------<br>--- ----- --- --- ------ -------- ----- --- ------ ----- --<br>----- ----- ---------- --- --- ------ ------ ---- -- ------<br>------- --- ------ ----- was ---- ------- -- ---- --- --<br>------- ------,189658.35499999957,189655.08000000045,189274.943,189290.50500000085,189291.612,189674.999,,47,was
screen,html.Screen,2_1_1_1_48,2021-04-30T09:53:30.788Z,,,,,,,,,,,,,,,,,54,,,,,,,,,,,,,,324.09599999920465,,response,,,,100,,,,,,,Space,keypress(Space),,,,,,,,-- --- ---- --- ------ ----- ------- ---- -- --- ------- --<br>------- ---------- ------ -- ----- -- ----- -- ---- ------<br>--- ----- --- --- ------ -------- ----- --- ------ ----- --<br>----- ----- ---------- --- --- ------ ------ ---- -- ------<br>------- --- ------ ----- --- left ------- -- ---- --- --<br>------- ------,190002.29500000205,189999.09499999922,189658.33,189658.4550000007,189674.999,190008.379,,48,left
screen,html.Screen,2_1_1_1_49,2021-04-30T09:53:31.124Z,,,,,,,,,,,,,,,,,54,,,,,,,,,,,,,,326.8059999999241,,response,,,,100,,,,,,,Space,keypress(Space),,,,,,,,-- --- ---- --- ------ ----- ------- ---- -- --- ------- --<br>------- ---------- ------ -- ----- -- ----- -- ---- ------<br>--- ----- --- --- ------ -------- ----- --- ------ ----- --<br>----- ----- ---------- --- --- ------ ------ ---- -- ------<br>------- --- ------ ----- --- ---- without -- ---- --- --<br>------- ------,190338.5249999992,190335.1849999999,189991.71,190002.39499999952,190008.379,190341.759,,49,without
screen,html.Screen,2_1_1_1_50,2021-04-30T09:53:31.510Z,,,,,,,,,,,,,,,,,54,,,,,,,,,,,,,,377.44099999955506,,response,,,,100,,,,,,,Space,keypress(Space),,,,,,,,-- --- ---- --- ------ ----- ------- ---- -- --- ------- --<br>------- ---------- ------ -- ----- -- ----- -- ---- ------<br>--- ----- --- --- ------ -------- ----- --- ------ ----- --<br>----- ----- ---------- --- --- ------ ------ ---- -- ------<br>------- --- ------ ----- --- ---- ------- an ---- --- --<br>------- ------,190724.89000000132,190719.19999999955,190325.09,190338.63500000007,190341.759,190741.815,,50,an
screen,html.Screen,2_1_1_1_51,2021-04-30T09:53:31.876Z,,,,,,,,,,,,,,,,,54,,,,,,,,,,,,,,345.34499999912805,,response,,,,100,,,,,,,Space,keypress(Space),,,,,,,,-- --- ---- --- ------ ----- ------- ---- -- --- ------- --<br>------- ---------- ------ -- ----- -- ----- -- ---- ------<br>--- ----- --- --- ------ -------- ----- --- ------ ----- --<br>----- ----- ---------- --- --- ------ ------ ---- -- ------<br>------- --- ------ ----- --- ---- ------- -- easy --- --<br>------- ------,191090.64000000217,191087.15999999913,190725.146,190724.98500000074,190741.815,191091.864,,51,easy
screen,html.Screen,2_1_1_1_52,2021-04-30T09:53:32.316Z,,,,,,,,,,,,,,,,,54,,,,,,,,,,,,,,435.22100000153296,,response,,,,100,,,,,,,Space,keypress(Space),,,,,,,,-- --- ---- --- ------ ----- ------- ---- -- --- ------- --<br>------- ---------- ------ -- ----- -- ----- -- ---- ------<br>--- ----- --- --- ------ -------- ----- --- ------ ----- --<br>----- ----- ---------- --- --- ------ ------ ---- -- ------<br>------- --- ------ ----- --- ---- ------- -- ---- way --<br>------- ------,191530.6500000006,191527.08500000153,191075.195,191090.7299999999,191091.864,191541.927,,52,way
screen,html.Screen,2_1_1_1_53,2021-04-30T09:53:32.684Z,,,,,,,,,,,,,,,,,54,,,,,,,,,,,,,,353.1329999989248,,response,,,,100,,,,,,,Space,keypress(Space),,,,,,,,-- --- ---- --- ------ ----- ------- ---- -- --- ------- --<br>------- ---------- ------ -- ----- -- ----- -- ---- ------<br>--- ----- --- --- ------ -------- ----- --- ------ ----- --<br>----- ----- ---------- --- --- ------ ------ ---- -- ------<br>------- --- ------ ----- --- ---- ------- -- ---- --- of<br>------- ------,191898.33,191895.05999999892,191525.258,191530.75000000172,191541.927,191908.645,,53,of
screen,html.Screen,2_1_1_1_54,2021-04-30T09:53:33.172Z,,,,,,,,,,,,,,,,,54,,,,,,,,,,,,,,474.59499999921536,,response,,,,100,,,,,,,Space,keypress(Space),,,,,,,,-- --- ---- --- ------ ----- ------- ---- -- --- ------- --<br>------- ---------- ------ -- ----- -- ----- -- ---- ------<br>--- ----- --- --- ------ -------- ----- --- ------ ----- --<br>----- ----- ---------- --- --- ------ ------ ---- -- ------<br>------- --- ------ ----- --- ---- ------- -- ---- --- --<br>raising ------,192386.50000000052,192383.2399999992,191891.976,191898.4249999994,191908.645,192392.046,,54,raising
screen,html.Screen,2_1_1_1_55,2021-04-30T09:53:34.076Z,,,,,,,,,,,,,,,,,54,,,,,,,,,,,,,,895.1740000019781,,response,,,,100,,,,,,,Space,keypress(Space),,,,,,,,-- --- ---- --- ------ ----- ------- ---- -- --- ------- --<br>------- ---------- ------ -- ----- -- ----- -- ---- ------<br>--- ----- --- --- ------ -------- ----- --- ------ ----- --<br>----- ----- ---------- --- --- ------ ------ ---- -- ------<br>------- --- ------ ----- --- ---- ------- -- ---- --- --<br>------- money.,193290.6550000007,193287.22000000198,192375.377,192386.6049999997,192392.046,193292.172,,55,money.
Item 100,flow.Loop,2_1_1_1,2021-04-30T09:53:34.076Z,,,,,,,,,,,,,,,,,,,,,,,,,,,,,,,23648.809000001987,,completion,,,,,B,,,,,,,,,,,silence,,,,,193290.820000002,193287.22000000198,169621.742,169622.97000000035,169638.411,193292.172,,,
Question 1,html.Screen,2_1_1_2,2021-04-30T09:53:37.496Z,,,,,,,,,,,,,,,,,,,,,,,,,,,,true,TRUE,,3417.0730000018375,,response,,,,100,B,,,,,,TRUE,click #choice-1,,,,silence,,,,,196710.97999999984,196709.24500000183,193275.503,193290.9550000004,193292.172,196725.986,,,
Question 2,html.Screen,2_1_1_3,2021-04-30T09:53:43.448Z,,,,,,,,,,,,,,,,,,,,,,,,,,,,true,FALSE,,5935.244000001519,,response,,,,100,B,,,,,,FALSE,click #choice-2,,,,silence,,,,,202663.0699999987,202661.23000000152,196709.317,196711.0900000007,196725.986,202677.048,,,
Item 100,flow.Sequence,2_1_1,2021-04-30T09:53:43.448Z,,,,,,,,,,,,,,,,,,,,,,,,,,,,,,,43024.450000001525,,completion,,,,,,,,,,,,,,,,,,,,,202663.22000000218,202661.23000000152,159620.111,159622.800000001,159636.78,202677.048,,,
End of Practice,html.Page,2_1_2,2021-04-30T09:53:48.159Z,,,,,,,,,,,,,,,,,,,,,,,,,,,,,,,4696.147000000114,,form submission,,,,,,,,,,,,,,,,,,,,,207373.37000000116,207373.19500000012,202660.379,202663.2950000021,202677.048,207377.706,,,
Practice,flow.Sequence,2_1,2021-04-30T09:53:48.159Z,,,,,,,,,,,,,,,,,,,,,,,,,,,,,,,96077.67100000012,,completion,,,,,,,,,,,,,,,,,,,,,207373.520000001,207373.19500000012,111278.855,111287.96499999953,111295.524,207377.706,,,
Trap_instruction,html.Page,2_2_0,2021-04-30T09:53:52.956Z,,,,,,,,,,,,,,,,,,,,,,,,,,,,,,,4793.374000000069,,form submission,,,,,,,,,,,,,,,,,,,,,212171.2550000011,212171.08000000007,207361.037,207373.61500000043,207377.706,212178.604,,,
trap_trial,html.Screen,2_2_1,2021-04-30T09:53:56.154Z,,,,,,,,,,,,,,,,,,,,,,,,,,,,true,1,,3188.606000000349,,response,,,,,,,,,,,1,click #choice-1,,,,,,,,,215369.13500000082,215367.21000000034,212161.935,212171.35499999858,212178.604,215379.052,,,
end of trap trial,html.Page,2_2_2,2021-04-30T09:53:58.074Z,,,,,,,,,,,,,,,,,,,,,,,,,,,,,,,1910.0130000008503,,form submission,,,,,,,,,,,,,,,,,,,,,217289.25000000163,217289.06500000085,215362.383,215369.29500000042,215379.052,217295.987,,,
Trap 1,flow.Sequence,2_2,2021-04-30T09:53:58.074Z,,,,,,,,,,,,,,,,,,,,,,,,,,,,,,,9911.35900000084,,completion,,,,,,,,,,,,,,,,,,,,,217289.40499999953,217289.06500000085,207361.037,207373.58999999924,207377.706,217295.987,,,
Standby,html.Page,2_3_0,2021-04-30T09:54:06.066Z,,,,,,,,,,,,,,,,,,,,,,,,,,,,,,,8001.3429999999935,,timeout,,,,,,,,,,,,,,,,,,,,,225281.68500000174,225280.661,217279.318,217289.5150000004,217295.987,225297.33,,,
Holding screen,html.Screen,2_3_1_0_0,2021-04-30T09:54:13.068Z,,,,,,,,,,,,,,,,,,,,,,,,,,,,,,,7001.22100000002,,timeout,,,,,,,,,,,,,,,,,,,,,232283.06000000157,232281.882,225280.661,225281.8350000016,225297.33,232298.551,,,
screen,html.Screen,2_3_1_0_1_0,2021-04-30T09:54:13.875Z,,,,,,,,,,,,,,,,,51,,,,,,,,,,,,,,788.6639999995532,,response,,,,13,B,,,,,,Space,keypress(Space),,,,lyrical,,,,American -------- --- --- ---- --- --- ------ -- --------<br>---- --------- --- ------- ------------ ---------- ---------<br>--- ---------- ------- ---------- ------- -- -------- ----<br>---- --- ------ ----- ------ -- ---- --- ----- -- - -------<br>-------- -- --- --- -- ----- ----------- ----- -----------<br>---- --- ---------- --- ---- --- -- ----------,233090.7100000004,233087.21499999956,232281.882,232283.22000000117,232298.551,233098.663,,0,American
screen,html.Screen,2_3_1_0_1_1,2021-04-30T09:54:14.203Z,,,,,,,,,,,,,,,,,51,,,,,,,,,,,,,,316.5269999997108,,response,,,,13,B,,,,,,Space,keypress(Space),,,,lyrical,,,,-------- industry --- --- ---- --- --- ------ -- --------<br>---- --------- --- ------- ------------ ---------- ---------<br>--- ---------- ------- ---------- ------- -- -------- ----<br>---- --- ------ ----- ------ -- ---- --- ----- -- - -------<br>-------- -- --- --- -- ----- ----------- ----- -----------<br>---- --- ---------- --- ---- --- -- ----------,233418.70500000005,233415.1899999997,233081.994,233090.82000000126,233098.663,233432.043,,1,industry
screen,html.Screen,2_3_1_0_1_2,2021-04-30T09:54:14.651Z,,,,,,,,,,,,,,,,,51,,,,,,,,,,,,,,431.1820000009611,,response,,,,13,B,,,,,,Space,keypress(Space),,,,lyrical,,,,-------- -------- may --- ---- --- --- ------ -- --------<br>---- --------- --- ------- ------------ ---------- ---------<br>--- ---------- ------- ---------- ------- -- -------- ----<br>---- --- ------ ----- ------ -- ---- --- ----- -- - -------<br>-------- -- --- --- -- ----- ----------- ----- -----------<br>---- --- ---------- --- ---- --- -- ----------,233866.4800000006,233863.22500000097,233415.374,233418.79999999946,233432.043,233882.106,,2,may
screen,html.Screen,2_3_1_0_1_3,2021-04-30T09:54:15.091Z,,,,,,,,,,,,,,,,,51,,,,,,,,,,,,,,421.0690000009199,,response,,,,13,B,,,,,,Space,keypress(Space),,,,lyrical,,,,-------- -------- --- not ---- --- --- ------ -- --------<br>---- --------- --- ------- ------------ ---------- ---------<br>--- ---------- ------- ---------- ------- -- -------- ----<br>---- --- ------ ----- ------ -- ---- --- ----- -- - -------<br>-------- -- --- --- -- ----- ----------- ----- -----------<br>---- --- ---------- --- ---- --- -- ----------,234306.48999999903,234303.17500000092,233865.437,233866.5949999995,233882.106,234315.5,,3,not
screen,html.Screen,2_3_1_0_1_4,2021-04-30T09:54:15.531Z,,,,,,,,,,,,,,,,,51,,,,,,,,,,,,,,427.73999999978696,,response,,,,13,B,,,,,,Space,keypress(Space),,,,lyrical,,,,-------- -------- --- --- know --- --- ------ -- --------<br>---- --------- --- ------- ------------ ---------- ---------<br>--- ---------- ------- ---------- ------- -- -------- ----<br>---- --- ------ ----- ------ -- ---- --- ----- -- - -------<br>-------- -- --- --- -- ----- ----------- ----- -----------<br>---- --- ---------- --- ---- --- -- ----------,234746.66499999876,234743.2399999998,234298.831,234306.5749999987,234315.5,234748.894,,4,know
screen,html.Screen,2_3_1_0_1_5,2021-04-30T09:54:15.939Z,,,,,,,,,,,,,,,,,51,,,,,,,,,,,,,,402.3210000016843,,response,,,,13,B,,,,,,Space,keypress(Space),,,,lyrical,,,,"-------- -------- --- --- ---- it, --- ------ -- --------<br>---- --------- --- ------- ------------ ---------- ---------<br>--- ---------- ------- ---------- ------- -- -------- ----<br>---- --- ------ ----- ------ -- ---- --- ----- -- - -------<br>-------- -- --- --- -- ----- ----------- ----- -----------<br>---- --- ---------- --- ---- --- -- ----------",235154.43500000038,235151.21500000168,234732.225,234746.76499999987,234748.894,235165.619,,5,"it,"
screen,html.Screen,2_3_1_0_1_6,2021-04-30T09:54:16.291Z,,,,,,,,,,,,,,,,,51,,,,,,,,,,,,,,337.6160000001255,,response,,,,13,B,,,,,,Space,keypress(Space),,,,lyrical,,,,-------- -------- --- --- ---- --- but ------ -- --------<br>---- --------- --- ------- ------------ ---------- ---------<br>--- ---------- ------- ---------- ------- -- -------- ----<br>---- --- ------ ----- ------ -- ---- --- ----- -- - -------<br>-------- -- --- --- -- ----- ----------- ----- -----------<br>---- --- ---------- --- ---- --- -- ----------,235506.51500000095,235503.23500000013,235148.95,235154.5350000015,235165.619,235515.668,,6,but
screen,html.Screen,2_3_1_0_1_7,2021-04-30T09:54:16.635Z,,,,,,,,,,,,,,,,,51,,,,,,,,,,,,,,331.5120000006573,,response,,,,13,B,,,,,,Space,keypress(Space),,,,lyrical,,,,-------- -------- --- --- ---- --- --- debate -- --------<br>---- --------- --- ------- ------------ ---------- ---------<br>--- ---------- ------- ---------- ------- -- -------- ----<br>---- --- ------ ----- ------ -- ---- --- ----- -- - -------<br>-------- -- --- --- -- ----- ----------- ----- -----------<br>---- --- ---------- --- ---- --- -- ----------,235850.62000000107,235847.18000000066,235498.999,235506.60499999867,235515.668,235865.717,,7,debate
screen,html.Screen,2_3_1_0_1_8,2021-04-30T09:54:16.994Z,,,,,,,,,,,,,,,,,51,,,,,,,,,,,,,,341.44799999980023,,response,,,,13,B,,,,,,Space,keypress(Space),,,,lyrical,,,,-------- -------- --- --- ---- --- --- ------ in --------<br>---- --------- --- ------- ------------ ---------- ---------<br>--- ---------- ------- ---------- ------- -- -------- ----<br>---- --- ------ ----- ------ -- ---- --- ----- -- - -------<br>-------- -- --- --- -- ----- ----------- ----- -----------<br>---- --- ---------- --- ---- --- -- ----------,236209.78000000105,236207.1649999998,235849.048,235850.72000000218,235865.717,236215.766,,8,in
screen,html.Screen,2_3_1_0_1_9,2021-04-30T09:54:17.348Z,,,,,,,,,,,,,,,,,51,,,,,,,,,,,,,,343.3290000005218,,response,,,,13,B,,,,,,Space,keypress(Space),,,,lyrical,,,,-------- -------- --- --- ---- --- --- ------ -- Congress<br>---- --------- --- ------- ------------ ---------- ---------<br>--- ---------- ------- ---------- ------- -- -------- ----<br>---- --- ------ ----- ------ -- ---- --- ----- -- - -------<br>-------- -- --- --- -- ----- ----------- ----- -----------<br>---- --- ---------- --- ---- --- -- ----------,236563.86500000008,236559.09500000053,236199.097,236209.85999999903,236215.766,236565.815,,9,Congress
screen,html.Screen,2_3_1_0_1_10,2021-04-30T09:54:17.764Z,,,,,,,,,,,,,,,,,51,,,,,,,,,,,,,,409.385000000766,,response,,,,13,B,,,,,,Space,keypress(Space),,,,lyrical,,,,-------- -------- --- --- ---- --- --- ------ -- --------<br>over --------- --- ------- ------------ ---------- ---------<br>--- ---------- ------- ---------- ------- -- -------- ----<br>---- --- ------ ----- ------ -- ---- --- ----- -- - -------<br>-------- -- --- --- -- ----- ----------- ----- -----------<br>---- --- ---------- --- ---- --- -- ----------,236979.13999999946,236975.20000000077,236549.146,236563.95500000144,236565.815,236982.54,,10,over
screen,html.Screen,2_3_1_0_1_11,2021-04-30T09:54:18.163Z,,,,,,,,,,,,,,,,,51,,,,,,,,,,,,,,392.7450000018871,,response,,,,13,B,,,,,,Space,keypress(Space),,,,lyrical,,,,-------- -------- --- --- ---- --- --- ------ -- --------<br>---- reforming --- ------- ------------ ---------- ---------<br>--- ---------- ------- ---------- ------- -- -------- ----<br>---- --- ------ ----- ------ -- ---- --- ----- -- - -------<br>-------- -- --- --- -- ----- ----------- ----- -----------<br>---- --- ---------- --- ---- --- -- ----------,237378.62999999925,237375.2850000019,236965.871,236979.23499999888,236982.54,237382.596,,11,reforming
screen,html.Screen,2_3_1_0_1_12,2021-04-30T09:54:18.563Z,,,,,,,,,,,,,,,,,51,,,,,,,,,,,,,,392.6740000019199,,response,,,,13,B,,,,,,Space,keypress(Space),,,,lyrical,,,,-------- -------- --- --- ---- --- --- ------ -- --------<br>---- --------- the ------- ------------ ---------- ---------<br>--- ---------- ------- ---------- ------- -- -------- ----<br>---- --- ------ ----- ------ -- ---- --- ----- -- - -------<br>-------- -- --- --- -- ----- ----------- ----- -----------<br>---- --- ---------- --- ---- --- -- ----------,237778.66500000164,237775.2700000019,237365.927,237378.73500000205,237382.596,237782.652,,12,the
screen,html.Screen,2_3_1_0_1_13,2021-04-30T09:54:19.243Z,,,,,,,,,,,,,,,,,51,,,,,,,,,,,,,,672.6480000014417,,response,,,,13,B,,,,,,Space,keypress(Space),,,,lyrical,,,,-------- -------- --- --- ---- --- --- ------ -- --------<br>---- --------- --- federal ------------ ---------- ---------<br>--- ---------- ------- ---------- ------- -- -------- ----<br>---- --- ------ ----- ------ -- ---- --- ----- -- - -------<br>-------- -- --- --- -- ----- ----------- ----- -----------<br>---- --- ---------- --- ---- --- -- ----------,238458.68500000142,238455.30000000144,237765.983,237778.75499999936,237782.652,238466.081,,13,federal
screen,html.Screen,2_3_1_0_1_14,2021-04-30T09:54:20.707Z,,,,,,,,,,,,,,,,,51,,,,,,,,,,,,,,1453.1489999995101,,response,,,,13,B,,,,,,Space,keypress(Space),,,,lyrical,,,,-------- -------- --- --- ---- --- --- ------ -- --------<br>---- --------- --- ------- government's ---------- ---------<br>--- ---------- ------- ---------- ------- -- -------- ----<br>---- --- ------ ----- ------ -- ---- --- ----- -- - -------<br>-------- -- --- --- -- ----- ----------- ----- -----------<br>---- --- ---------- --- ---- --- -- ----------,239922.52000000008,239919.22999999952,238449.412,238458.77499999915,238466.081,239932.953,,14,government's
screen,html.Screen,2_3_1_0_1_15,2021-04-30T09:54:21.531Z,,,,,,,,,,,,,,,,,51,,,,,,,,,,,,,,810.2319999993488,,response,,,,13,B,,,,,,Space,keypress(Space),,,,lyrical,,,,-------- -------- --- --- ---- --- --- ------ -- --------<br>---- --------- --- ------- ------------ regulatory ---------<br>--- ---------- ------- ---------- ------- -- -------- ----<br>---- --- ------ ----- ------ -- ---- --- ----- -- - -------<br>-------- -- --- --- -- ----- ----------- ----- -----------<br>---- --- ---------- --- ---- --- -- ----------,240746.51000000085,240743.18499999936,239916.284,239922.62499999924,239932.953,240749.96,,15,regulatory
screen,html.Screen,2_3_1_0_1_16,2021-04-30T09:54:22.051Z,,,,,,,,,,,,,,,,,51,,,,,,,,,,,,,,513.2850000019243,,response,,,,13,B,,,,,,Space,keypress(Space),,,,lyrical,,,,-------- -------- --- --- ---- --- --- ------ -- --------<br>---- --------- --- ------- ------------ ---------- apparatus<br>--- ---------- ------- ---------- ------- -- -------- ----<br>---- --- ------ ----- ------ -- ---- --- ----- -- - -------<br>-------- -- --- --- -- ----- ----------- ----- -----------<br>---- --- ---------- --- ---- --- -- ----------,241266.56999999977,241263.24500000192,240733.291,240746.59999999858,240749.96,241283.368,,16,apparatus
screen,html.Screen,2_3_1_0_1_17,2021-04-30T09:54:23.044Z,,,,,,,,,,,,,,,,,51,,,,,,,,,,,,,,971.857000000804,,response,,,,13,B,,,,,,Space,keypress(Space),,,,lyrical,,,,-------- -------- --- --- ---- --- --- ------ -- --------<br>---- --------- --- ------- ------------ ---------- ---------<br>may ---------- ------- ---------- ------- -- -------- ----<br>---- --- ------ ----- ------ -- ---- --- ----- -- - -------<br>-------- -- --- --- -- ----- ----------- ----- -----------<br>---- --- ---------- --- ---- --- -- ----------,242259.5450000008,242255.2250000008,241266.699,241266.68000000063,241283.368,242266.839,,17,may
screen,html.Screen,2_3_1_0_1_18,2021-04-30T09:54:23.955Z,,,,,,,,,,,,,,,,,51,,,,,,,,,,,,,,900.4860000021581,,response,,,,13,B,,,,,,Space,keypress(Space),,,,lyrical,,,,-------- -------- --- --- ---- --- --- ------ -- --------<br>---- --------- --- ------- ------------ ---------- ---------<br>--- profoundly ------- ---------- ------- -- -------- ----<br>---- --- ------ ----- ------ -- ---- --- ----- -- - -------<br>-------- -- --- --- -- ----- ----------- ----- -----------<br>---- --- ---------- --- ---- --- -- ----------,243170.59000000154,243167.32500000217,242250.17,242259.6599999997,242266.839,243183.634,,18,profoundly
screen,html.Screen,2_3_1_0_1_19,2021-04-30T09:54:24.387Z,,,,,,,,,,,,,,,,,51,,,,,,,,,,,,,,415.5709999986284,,response,,,,13,B,,,,,,Space,keypress(Space),,,,lyrical,,,,-------- -------- --- --- ---- --- --- ------ -- --------<br>---- --------- --- ------- ------------ ---------- ---------<br>--- ---------- improve ---------- ------- -- -------- ----<br>---- --- ------ ----- ------ -- ---- --- ----- -- - -------<br>-------- -- --- --- -- ----- ----------- ----- -----------<br>---- --- ---------- --- ---- --- -- ----------,243602.51000000062,243599.20499999862,243166.965,243170.68500000096,243183.634,243617.028,,19,improve
screen,html.Screen,2_3_1_0_1_20,2021-04-30T09:54:24.826Z,,,,,,,,,,,,,,,,,51,,,,,,,,,,,,,,422.0869999995921,,response,,,,13,B,,,,,,Space,keypress(Space),,,,lyrical,,,,-------- -------- --- --- ---- --- --- ------ -- --------<br>---- --------- --- ------- ------------ ---------- ---------<br>--- ---------- ------- companies' ------- -- -------- ----<br>---- --- ------ ----- ------ -- ---- --- ----- -- - -------<br>-------- -- --- --- -- ----- ----------- ----- -----------<br>---- --- ---------- --- ---- --- -- ----------,244041.97000000204,244039.11499999958,243600.359,243602.60500000004,243617.028,244050.422,,20,companies'
screen,html.Screen,2_3_1_0_1_21,2021-04-30T09:54:25.147Z,,,,,,,,,,,,,,,,,51,,,,,,,,,,,,,,308.76799999922514,,response,,,,13,B,,,,,,Space,keypress(Space),,,,lyrical,,,,-------- -------- --- --- ---- --- --- ------ -- --------<br>---- --------- --- ------- ------------ ---------- ---------<br>--- ---------- ------- ---------- ability -- -------- ----<br>---- --- ------ ----- ------ -- ---- --- ----- -- - -------<br>-------- -- --- --- -- ----- ----------- ----- -----------<br>---- --- ---------- --- ---- --- -- ----------,244362.42499999935,244359.18999999922,244033.753,244042.06500000146,244050.422,244367.133,,21,ability
screen,html.Screen,2_3_1_0_1_22,2021-04-30T09:54:25.523Z,,,,,,,,,,,,,,,,,51,,,,,,,,,,,,,,368.0769999989134,,response,,,,13,B,,,,,,Space,keypress(Space),,,,lyrical,,,,-------- -------- --- --- ---- --- --- ------ -- --------<br>---- --------- --- ------- ------------ ---------- ---------<br>--- ---------- ------- ---------- ------- to -------- ----<br>---- --- ------ ----- ------ -- ---- --- ----- -- - -------<br>-------- -- --- --- -- ----- ----------- ----- -----------<br>---- --- ---------- --- ---- --- -- ----------,244738.66500000076,244735.20999999892,244350.464,244362.52500000046,244367.133,244750.52,,22,to
screen,html.Screen,2_3_1_0_1_23,2021-04-30T09:54:26.739Z,,,,,,,,,,,,,,,,,51,,,,,,,,,,,,,,1200.699999999022,,response,,,,13,B,,,,,,Space,keypress(Space),,,,lyrical,,,,-------- -------- --- --- ---- --- --- ------ -- --------<br>---- --------- --- ------- ------------ ---------- ---------<br>--- ---------- ------- ---------- ------- -- survive. ----<br>---- --- ------ ----- ------ -- ---- --- ----- -- - -------<br>-------- -- --- --- -- ----- ----------- ----- -----------<br>---- --- ---------- --- ---- --- -- ----------,245954.95500000106,245951.219999999,244733.851,244738.76500000188,244750.52,245967.357,,23,survive.
screen,html.Screen,2_3_1_0_1_24,2021-04-30T09:54:29.627Z,,,,,,,,,,,,,,,,,51,,,,,,,,,,,,,,2871.688000000635,,response,,,,13,B,,,,,,Space,keypress(Space),,,,lyrical,,,,-------- -------- --- --- ---- --- --- ------ -- --------<br>---- --------- --- ------- ------------ ---------- ---------<br>--- ---------- ------- ---------- ------- -- -------- This<br>---- --- ------ ----- ------ -- ---- --- ----- -- - -------<br>-------- -- --- --- -- ----- ----------- ----- -----------<br>---- --- ---------- --- ---- --- -- ----------,248842.30500000194,248839.04500000062,245950.688,245955.0449999988,245967.357,248851.094,,24,This
screen,html.Screen,2_3_1_0_1_25,2021-04-30T09:54:30.066Z,,,,,,,,,,,,,,,,,51,,,,,,,,,,,,,,427.98100000218255,,response,,,,13,B,,,,,,Space,keypress(Space),,,,lyrical,,,,-------- -------- --- --- ---- --- --- ------ -- --------<br>---- --------- --- ------- ------------ ---------- ---------<br>--- ---------- ------- ---------- ------- -- -------- ----<br>week --- ------ ----- ------ -- ---- --- ----- -- - -------<br>-------- -- --- --- -- ----- ----------- ----- -----------<br>---- --- ---------- --- ---- --- -- ----------,249282.009999999,249279.0750000022,248834.425,248842.4300000006,248851.094,249284.718,,25,week
screen,html.Screen,2_3_1_0_1_26,2021-04-30T09:54:30.443Z,,,,,,,,,,,,,,,,,51,,,,,,,,,,,,,,370.4420000020764,,response,,,,13,B,,,,,,Space,keypress(Space),,,,lyrical,,,,-------- -------- --- --- ---- --- --- ------ -- --------<br>---- --------- --- ------- ------------ ---------- ---------<br>--- ---------- ------- ---------- ------- -- -------- ----<br>---- the ------ ----- ------ -- ---- --- ----- -- - -------<br>-------- -- --- --- -- ----- ----------- ----- -----------<br>---- --- ---------- --- ---- --- -- ----------,249658.46500000043,249655.16000000207,249268.049,249282.10000000036,249284.718,249668.105,,26,the
screen,html.Screen,2_3_1_0_1_27,2021-04-30T09:54:31.003Z,,,,,,,,,,,,,,,,,51,,,,,,,,,,,,,,547.1150000018533,,response,,,,13,B,,,,,,Space,keypress(Space),,,,lyrical,,,,-------- -------- --- --- ---- --- --- ------ -- --------<br>---- --------- --- ------- ------------ ---------- ---------<br>--- ---------- ------- ---------- ------- -- -------- ----<br>---- --- Senate ----- ------ -- ---- --- ----- -- - -------<br>-------- -- --- --- -- ----- ----------- ----- -----------<br>---- --- ---------- --- ---- --- -- ----------,250218.5849999987,250215.22000000186,249651.436,249658.5750000013,249668.105,250234.851,,27,Senate
screen,html.Screen,2_3_1_0_1_28,2021-04-30T09:54:31.347Z,,,,,,,,,,,,,,,,,51,,,,,,,,,,,,,,324.35400000138907,,response,,,,13,B,,,,,,Space,keypress(Space),,,,lyrical,,,,-------- -------- --- --- ---- --- --- ------ -- --------<br>---- --------- --- ------- ------------ ---------- ---------<br>--- ---------- ------- ---------- ------- -- -------- ----<br>---- --- ------ seems ------ -- ---- --- ----- -- - -------<br>-------- -- --- --- -- ----- ----------- ----- -----------<br>---- --- ---------- --- ---- --- -- ----------,250562.51500000144,250559.20500000138,250218.182,250218.70000000126,250234.851,250568.231,,28,seems
screen,html.Screen,2_3_1_0_1_29,2021-04-30T09:54:31.970Z,,,,,,,,,,,,,,,,,51,,,,,,,,,,,,,,614.8189999996393,,response,,,,13,B,,,,,,Space,keypress(Space),,,,lyrical,,,,-------- -------- --- --- ---- --- --- ------ -- --------<br>---- --------- --- ------- ------------ ---------- ---------<br>--- ---------- ------- ---------- ------- -- -------- ----<br>---- --- ------ ----- poised -- ---- --- ----- -- - -------<br>-------- -- --- --- -- ----- ----------- ----- -----------<br>---- --- ---------- --- ---- --- -- ----------,251186.01000000126,251183.04999999964,250551.562,250562.61000000086,250568.231,251201.653,,29,poised
screen,html.Screen,2_3_1_0_1_30,2021-04-30T09:54:32.355Z,,,,,,,,,,,,,,,,,51,,,,,,,,,,,,,,365.51200000039535,,response,,,,13,B,,,,,,Space,keypress(Space),,,,lyrical,,,,-------- -------- --- --- ---- --- --- ------ -- --------<br>---- --------- --- ------- ------------ ---------- ---------<br>--- ---------- ------- ---------- ------- -- -------- ----<br>---- --- ------ ----- ------ to ---- --- ----- -- - -------<br>-------- -- --- --- -- ----- ----------- ----- -----------<br>---- --- ---------- --- ---- --- -- ----------,251570.6449999998,251567.1650000004,251184.984,251186.09500000093,251201.653,251585.04,,30,to
screen,html.Screen,2_3_1_0_1_31,2021-04-30T09:54:32.771Z,,,,,,,,,,,,,,,,,51,,,,,,,,,,,,,,398.1250000014552,,response,,,,13,B,,,,,,Space,keypress(Space),,,,lyrical,,,,-------- -------- --- --- ---- --- --- ------ -- --------<br>---- --------- --- ------- ------------ ---------- ---------<br>--- ---------- ------- ---------- ------- -- -------- ----<br>---- --- ------ ----- ------ -- join --- ----- -- - -------<br>-------- -- --- --- -- ----- ----------- ----- -----------<br>---- --- ---------- --- ---- --- -- ----------,251987.0750000009,251983.16500000146,251568.371,251570.7399999992,251585.04,252001.765,,31,join
screen,html.Screen,2_3_1_0_1_32,2021-04-30T09:54:33.203Z,,,,,,,,,,,,,,,,,51,,,,,,,,,,,,,,413.3450000017183,,response,,,,13,B,,,,,,Space,keypress(Space),,,,lyrical,,,,-------- -------- --- --- ---- --- --- ------ -- --------<br>---- --------- --- ------- ------------ ---------- ---------<br>--- ---------- ------- ---------- ------- -- -------- ----<br>---- --- ------ ----- ------ -- ---- the ----- -- - -------<br>-------- -- --- --- -- ----- ----------- ----- -----------<br>---- --- ---------- --- ---- --- -- ----------,252418.39999999866,252415.11000000173,251985.096,251987.18999999983,252001.765,252435.159,,32,the
screen,html.Screen,2_3_1_0_1_33,2021-04-30T09:54:33.707Z,,,,,,,,,,,,,,,,,51,,,,,,,,,,,,,,483.95600000058766,,response,,,,13,B,,,,,,Space,keypress(Space),,,,lyrical,,,,-------- -------- --- --- ---- --- --- ------ -- --------<br>---- --------- --- ------- ------------ ---------- ---------<br>--- ---------- ------- ---------- ------- -- -------- ----<br>---- --- ------ ----- ------ -- ---- --- House -- - -------<br>-------- -- --- --- -- ----- ----------- ----- -----------<br>---- --- ---------- --- ---- --- -- ----------,252922.50000000058,252919.1150000006,252418.49,252418.5099999995,252435.159,252935.229,,33,House
screen,html.Screen,2_3_1_0_1_34,2021-04-30T09:54:33.954Z,,,,,,,,,,,,,,,,,51,,,,,,,,,,,,,,231.82600000171806,,response,,,,13,B,,,,,,Space,keypress(Space),,,,lyrical,,,,-------- -------- --- --- ---- --- --- ------ -- --------<br>---- --------- --- ------- ------------ ---------- ---------<br>--- ---------- ------- ---------- ------- -- -------- ----<br>---- --- ------ ----- ------ -- ---- --- ----- in - -------<br>-------- -- --- --- -- ----- ----------- ----- -----------<br>---- --- ---------- --- ---- --- -- ----------,253169.7200000017,253167.0550000017,252918.56,252922.59000000195,252935.229,253185.264,,34,in
screen,html.Screen,2_3_1_0_1_35,2021-04-30T09:54:34.323Z,,,,,,,,,,,,,,,,,51,,,,,,,,,,,,,,349.911000000895,,response,,,,13,B,,,,,,Space,keypress(Space),,,,lyrical,,,,-------- -------- --- --- ---- --- --- ------ -- --------<br>---- --------- --- ------- ------------ ---------- ---------<br>--- ---------- ------- ---------- ------- -- -------- ----<br>---- --- ------ ----- ------ -- ---- --- ----- -- a -------<br>-------- -- --- --- -- ----- ----------- ----- -----------<br>---- --- ---------- --- ---- --- -- ----------,253538.62500000105,253535.1750000009,253168.595,253169.80500000136,253185.264,253551.982,,35,a
screen,html.Screen,2_3_1_0_1_36,2021-04-30T09:54:34.675Z,,,,,,,,,,,,,,,,,51,,,,,,,,,,,,,,335.2329999988433,,response,,,,13,B,,,,,,Space,keypress(Space),,,,lyrical,,,,-------- -------- --- --- ---- --- --- ------ -- --------<br>---- --------- --- ------- ------------ ---------- ---------<br>--- ---------- ------- ---------- ------- -- -------- ----<br>---- --- ------ ----- ------ -- ---- --- ----- -- - massive<br>-------- -- --- --- -- ----- ----------- ----- -----------<br>---- --- ---------- --- ---- --- -- ----------,253890.39500000217,253887.21499999883,253535.313,253538.72500000216,253551.982,253902.031,,36,massive
screen,html.Screen,2_3_1_0_1_37,2021-04-30T09:54:34.987Z,,,,,,,,,,,,,,,,,51,,,,,,,,,,,,,,297.0340000007127,,response,,,,13,B,,,,,,Space,keypress(Space),,,,lyrical,,,,-------- -------- --- --- ---- --- --- ------ -- --------<br>---- --------- --- ------- ------------ ---------- ---------<br>--- ---------- ------- ---------- ------- -- -------- ----<br>---- --- ------ ----- ------ -- ---- --- ----- -- - -------<br>overhaul -- --- --- -- ----- ----------- ----- -----------<br>---- --- ---------- --- ---- --- -- ----------,254202.42000000144,254199.0650000007,253885.362,253890.5049999994,253902.031,254218.742,,37,overhaul
