sender,sender_type,sender_id,timestamp,meta,,Blues,Classical,Country,Dance,Electronic,Folk,Gospel,Hip-Hop,Jazz,Latin,Musical/Film,New-age,Pop,Prolific_id,Provo_ID,R&B,Rap,Reggae,Religious,Rock,Soul,Swing,Traditional,age,artist_name,correct,correctResponse,distraction,duration,education,ended_on,familiarity,gender,headphone_check_performance,item,list,music_frequency,offensiveness,pleasantness,position_correct,preference,response,response_action,snippet_file,song_name,song_rating,sound,stimulus_1,stimulus_2,stimulus_3,text,time_commit,time_end,time_render,time_run,time_show,time_switch,url,word,word_ID
Prolific ID,html.Form,0,2021-04-24T14:47:41.223Z,"{""labjs_version"":""20.2.2"",""labjs_build"":{""flavor"":""production"",""commit"":""a25486e0c714a0ae2ce03ff94b7bb6896854dcfa""},""location"":""https://run.pavlovia.org/mvasilev/prolific_music_c/"",""userAgent"":""Mozilla/5.0 (Windows NT 10.0; Win64; x64) AppleWebKit/537.36 (KHTML, like Gecko) Chrome/90.0.4430.85 Safari/537.36"",""platform"":""Win32"",""language"":""en-GB"",""locale"":""en-GB"",""timeZone"":""Europe/London"",""timezoneOffset"":-60,""screen_width"":1920,""screen_height"":1080,""scroll_width"":1920,""scroll_height"":889,""window_innerWidth"":1920,""window_innerHeight"":937,""devicePixelRatio"":1}",,,,,,,,,,,,,,,5eb878b706340e7d115c8ac6,,,,,,,,,,,,,,,6041.846999972209,,form submission,,,,,,,,,,,,,,,,,,,,,14406.214999966323,14405.90999997221,8347.34,8348.194999969564,8364.063,14413.845,{},,
Introduction,html.Screen,1_0,2021-04-24T14:48:06.791Z,,,,,,,,,,,,,,,,,,,,,,,,,,,,,,,25559.489999987854,,response,,,,,,,,,,,continue,click button,,,,,,,,,39974.75499997381,39973.334999987856,14397.294,14406.444999971427,14413.845,39996.323,,,
Volume calibration,html.Screen,1_1,2021-04-24T14:48:15.983Z,,,,,,,,,,,,,,,,,,,,,,,,,,,,,,,9168.831999936934,,response,,,,,,,,,,,continue,click button,,,,,,,,,49166.909999912605,49165.15499993693,39979.665,39974.869999918155,39996.323,49179.348,,,
Task instructions,html.Screen,1_2,2021-04-24T14:48:21.646Z,,,,,,,,,,,,,,,,,,,,,,,,,,,,,,,5649.761999933282,,response,,,,,,,,,,,continue,click button,,,,,,,,,54829.444999923,54829.10999993328,49162.787,49166.99499997776,49179.348,54845.863,,,
Sounds,html.Screen,1_3_0_0,2021-04-24T14:48:25.901Z,,,,,,,,,,,,,,,,,,,,,,,,,,,,,,,4249.954000000005,,timeout,,,,,,,,,2,,,,,,,,I,S,O,,59084.83999990858,59079.123,54829.273,54829.604999977164,54845.863,59095.817,,,
Judgement,html.Screen,1_3_0_1,2021-04-24T14:48:28.094Z,,,,,,,,,,,,,,,,,,,,,,,,,,,,true,2,,2181.337999901538,,response,,,,,,,,,2,,2,click #choice-2,,,,,I,S,O,,61277.639999985695,61277.15499990154,59079.123,59085.259999963455,59095.817,61278.959,,,
Trial,flow.Sequence,1_3_0,2021-04-24T14:48:28.094Z,,,,,,,,,,,,,,,,,,,,,,,,,,,,,,,6431.291999901543,,completion,,,,,,,,,2,,,,,,,,I,S,O,,61277.84499991685,61277.15499990154,54829.273,54829.564999905415,54845.863,61278.959,,,
Sounds,html.Screen,1_3_1_0,2021-04-24T14:48:32.329Z,,,,,,,,,,,,,,,,,,,,,,,,,,,,,,,4249.9619999999995,,timeout,,,,,,,,,1,,,,,,,,S,O,I,,65513.264999957755,65512.255,61262.427,61277.94499997981,61278.959,65528.921,,,
Judgement,html.Screen,1_3_1_1,2021-04-24T14:48:32.846Z,,,,,,,,,,,,,,,,,,,,,,,,,,,,true,1,,500.328999905003,,response,,,,,,,,,1,,1,click #choice-1,,,,,S,O,I,,66029.6199999284,66029.249999905,65512.255,65513.62999994308,65528.921,66045.468,,,
Trial,flow.Sequence,1_3_1,2021-04-24T14:48:32.846Z,,,,,,,,,,,,,,,,,,,,,,,,,,,,,,,4750.2909999050025,,completion,,,,,,,,,1,,,,,,,,S,O,I,,66029.75499990862,66029.249999905,61262.427,61277.914999984205,61278.959,66045.468,,,
Sounds,html.Screen,1_3_2_0,2021-04-24T14:48:37.096Z,,,,,,,,,,,,,,,,,,,,,,,,,,,,,,,4249.968000000008,,timeout,,,,,,,,,2,,,,,,,,O,S,I,,70280.0199999474,70278.761,66028.838,66029.84500001185,66045.468,70295.436,,,
Judgement,html.Screen,1_3_2_1,2021-04-24T14:48:37.494Z,,,,,,,,,,,,,,,,,,,,,,,,,,,,true,2,,381.70399992702005,,response,,,,,,,,,2,,2,click #choice-2,,,,,O,S,I,,70677.48499999288,70677.13999992702,70278.761,70280.34499997739,70295.436,70678.634,,,
Trial,flow.Sequence,1_3_2,2021-04-24T14:48:37.494Z,,,,,,,,,,,,,,,,,,,,,,,,,,,,,,,4631.671999927028,,completion,,,,,,,,,2,,,,,,,,O,S,I,,70677.61000001337,70677.13999992702,66028.838,66029.8199999379,66045.468,70678.634,,,
Sounds,html.Screen,1_3_3_0,2021-04-24T14:48:41.729Z,,,,,,,,,,,,,,,,,,,,,,,,,,,,,,,4249.9939999999915,,timeout,,,,,,,,,3,,,,,,,,I,O,S,,74913.23499998543,74911.904,70662.084,70677.70000000019,70678.634,74928.628,,,
Judgement,html.Screen,1_3_3_1,2021-04-24T14:48:42.094Z,,,,,,,,,,,,,,,,,,,,,,,,,,,,true,3,,348.5119999037415,,response,,,,,,,,,3,,3,click #choice-3,,,,,I,O,S,,75277.50999992713,75277.13999990374,74911.904,74913.5449999012,74928.628,75278.478,,,
Trial,flow.Sequence,1_3_3,2021-04-24T14:48:42.094Z,,,,,,,,,,,,,,,,,,,,,,,,,,,,,,,4598.505999903733,,completion,,,,,,,,,3,,,,,,,,I,O,S,,75277.63499994762,75277.13999990374,70662.084,70677.67000000458,70678.634,75278.478,,,
Sounds,html.Screen,1_3_4_0,2021-04-24T14:48:46.329Z,,,,,,,,,,,,,,,,,,,,,,,,,,,,,,,4249.974000000002,,timeout,,,,,,,,,1,,,,,,,,S,I,O,,79513.18999996874,79511.791,75261.927,75277.7149999747,75278.478,79528.452,,,
Judgement,html.Screen,1_3_4_1,2021-04-24T14:48:46.910Z,,,,,,,,,,,,,,,,,,,,,,,,,,,,true,1,,564.6579998997477,,response,,,,,,,,,1,,1,click #choice-1,,,,,S,I,O,,80093.44500000589,80093.10999989975,79511.791,79513.50499992259,79528.452,80094.988,,,
Trial,flow.Sequence,1_3_4,2021-04-24T14:48:46.910Z,,,,,,,,,,,,,,,,,,,,,,,,,,,,,,,4814.63199989975,,completion,,,,,,,,,1,,,,,,,,S,I,O,,80093.55499991216,80093.10999989975,75261.927,75277.68999990076,75278.478,80094.988,,,
Sounds,html.Screen,1_3_5_0,2021-04-24T14:48:51.145Z,,,,,,,,,,,,,,,,,,,,,,,,,,,,,,,4249.983999999997,,timeout,,,,,,,,,3,,,,,,,,O,I,S,,84329.26499994937,84328.302,80078.435,80093.63999997731,80094.988,84344.972,,,
Judgement,html.Screen,1_3_5_1,2021-04-24T14:48:51.550Z,,,,,,,,,,,,,,,,,,,,,,,,,,,,true,3,,388.162999987675,,response,,,,,,,,,3,,3,click #choice-3,,,,,O,I,S,,84733.49000001326,84733.13499998767,84328.302,84329.56499990541,84344.972,84744.861,,,
Trial,flow.Sequence,1_3_5,2021-04-24T14:48:51.550Z,,,,,,,,,,,,,,,,,,,,,,,,,,,,,,,4638.146999987672,,completion,,,,,,,,,3,,,,,,,,O,I,S,,84733.6049999576,84733.13499998767,80078.435,80093.61999994144,80094.988,84744.861,,,
Task,flow.Loop,1_3,2021-04-24T14:48:51.552Z,,,,,,,,,,,,,,,,,,,,,,,,,,,,,,,29887.27199998767,,completion,,,1,,,,,,,,,,,,,,,,,,84736.12999997567,84733.13499998767,54829.273,54829.52999998815,54845.863,84744.861,,,
Trap,html.Screen,1_4,2021-04-24T14:48:51.553Z,,,,,,,,,,,,,,,,,,,,,,,,,,,,,,,NaN,,skipped,,,,,,,,,,,,,,,,,,,,,84736.87499994412,84733.13499998767,,84736.78499995731,,84744.861,,,
Thanks,html.Screen,1_5,2021-04-24T14:48:54.038Z,,,,,,,,,,,,,,,,,,,,,,,,,,,,,,,2476.3089999170334,,response,,,,,,,,,,,continue,click button,,,,,,,,,87221.5599999763,87221.16999991704,84728.191,84736.94500001147,84744.861,89311.347,,,
Headphone screening,flow.Sequence,1,2021-04-24T14:48:54.038Z,,,,,,,,,,,,,,,,,,,,,,,,,,,,,,,72807.32499991704,,completion,,,,,,,,,,,,,,,,,,,,,87221.669999999,87221.16999991704,14397.294,14406.424999935552,14413.845,89311.347,,,
Instructions,html.Page,2_0,2021-04-24T14:49:18.510Z,,,,,,,,,,,,,,,,,,,,,,,,,,,,,,,22382.24799996063,,form submission,,,,,,,,,,,,,,,,,,,,,111693.81999992765,111693.59499996062,89294.799,89315.61499997042,89311.347,111724.517,,,
Holding screen,html.Screen,2_1_0_0,2021-04-24T14:49:28.533Z,,,,,,,,,,,,,,,,,,,,,,,,,,,,,,,10002.456999999995,,timeout,,,,,,,,,,,,,,,,,,,,,121716.46999998484,121710.402,111677.358,111693.94999998622,111724.517,121726.974,,,
screen,html.Screen,2_1_0_1_0,2021-04-24T14:49:29.725Z,,,,,,,,,,,,,,,,,53,,,,,,,,,,,,,,1175.3709999513085,,response,,,,99,,,,,,,Space,keypress(Space),,,,,,,,When -- ----- -- ------ - ------- --- ----------<br>------------- ------ ------ ---- ---- ------- ----- -- ----<br>-------- ------- -- ---------- --- - --- ----- ----- ----<br>---- --- --- ----- --- ---- ---- ------- ----- ---- -------<br>--- --- -- ----- -- --- ---- -- --- ---- -- ------ ------<br>--- ----- -- ----,122908.14999991562,122902.34499995131,121710.402,121716.69999998994,121726.974,122910.375,,0,When
screen,html.Screen,2_1_0_1_1,2021-04-24T14:49:30.055Z,,,,,,,,,,,,,,,,,53,,,,,,,,,,,,,,327.49499995354563,,response,,,,99,,,,,,,Space,keypress(Space),,,,,,,,---- it ----- -- ------ - ------- --- ----------<br>------------- ------ ------ ---- ---- ------- ----- -- ----<br>-------- ------- -- ---------- --- - --- ----- ----- ----<br>---- --- --- ----- --- ---- ---- ------- ----- ---- -------<br>--- --- -- ----- -- --- ---- -- --- ---- -- ------ ------<br>--- ----- -- ----,123238.84000000544,123237.86999995355,122893.587,122908.53999997489,122910.375,123243.686,,1,it
screen,html.Screen,2_1_0_1_2,2021-04-24T14:49:30.431Z,,,,,,,,,,,,,,,,,53,,,,,,,,,,,,,,370.23399991610495,,response,,,,99,,,,,,,Space,keypress(Space),,,,,,,,---- -- comes -- ------ - ------- --- ----------<br>------------- ------ ------ ---- ---- ------- ----- -- ----<br>-------- ------- -- ---------- --- - --- ----- ----- ----<br>---- --- --- ----- --- ---- ---- ------- ----- ---- -------<br>--- --- -- ----- -- --- ---- -- --- ---- -- ------ ------<br>--- ----- -- ----,123614.97499991674,123613.9199999161,123227.011,123239.16499991901,123243.686,123627.035,,2,comes
screen,html.Screen,2_1_0_1_3,2021-04-24T14:49:30.759Z,,,,,,,,,,,,,,,,,53,,,,,,,,,,,,,,314.93999996516504,,response,,,,99,,,,,,,Space,keypress(Space),,,,,,,,---- -- ----- to ------ - ------- --- ----------<br>------------- ------ ------ ---- ---- ------- ----- -- ----<br>-------- ------- -- ---------- --- - --- ----- ----- ----<br>---- --- --- ----- --- ---- ---- ------- ----- ---- -------<br>--- --- -- ----- -- --- ---- -- --- ---- -- ------ ------<br>--- ----- -- ----,123943.0599999614,123941.97499996517,123610.34,123615.28499994893,123627.035,123960.352,,3,to
screen,html.Screen,2_1_0_1_4,2021-04-24T14:49:31.127Z,,,,,,,,,,,,,,,,,53,,,,,,,,,,,,,,349.4979999614443,,response,,,,99,,,,,,,Space,keypress(Space),,,,,,,,---- -- ----- -- having - ------- --- ----------<br>------------- ------ ------ ---- ---- ------- ----- -- ----<br>-------- ------- -- ---------- --- - --- ----- ----- ----<br>---- --- --- ----- --- ---- ---- ------- ----- ---- -------<br>--- --- -- ----- -- --- ---- -- --- ---- -- ------ ------<br>--- ----- -- ----,124310.80999993719,124309.84999996144,123943.651,123943.39499995112,123960.352,124327.006,,4,having
screen,html.Screen,2_1_0_1_5,2021-04-24T14:49:31.447Z,,,,,,,,,,,,,,,,,53,,,,,,,,,,,,,,302.8889999036328,,response,,,,99,,,,,,,Space,keypress(Space),,,,,,,,---- -- ----- -- ------ a ------- --- ----------<br>------------- ------ ------ ---- ---- ------- ----- -- ----<br>-------- ------- -- ---------- --- - --- ----- ----- ----<br>---- --- --- ----- --- ---- ---- ------- ----- ---- -------<br>--- --- -- ----- -- --- ---- -- --- ---- -- ------ ------<br>--- ----- -- ----,124630.93499990646,124629.89499990363,124310.307,124311.12500000745,124327.006,124643.665,,5,a
screen,html.Screen,2_1_0_1_6,2021-04-24T14:49:31.774Z,,,,,,,,,,,,,,,,,53,,,,,,,,,,,,,,313.6650000047375,,response,,,,99,,,,,,,Space,keypress(Space),,,,,,,,---- -- ----- -- ------ - lasting --- ----------<br>------------- ------ ------ ---- ---- ------- ----- -- ----<br>-------- ------- -- ---------- --- - --- ----- ----- ----<br>---- --- --- ----- --- ---- ---- ------- ----- ---- -------<br>--- --- -- ----- -- --- ---- -- --- ---- -- ------ ------<br>--- ----- -- ----,124957.78499997687,124957.33000000473,124626.931,124631.25500001479,124643.665,124960.274,,6,lasting
screen,html.Screen,2_1_0_1_7,2021-04-24T14:49:32.175Z,,,,,,,,,,,,,,,,,53,,,,,,,,,,,,,,397.65599994009244,,response,,,,99,,,,,,,Space,keypress(Space),,,,,,,,---- -- ----- -- ------ - ------- and ----------<br>------------- ------ ------ ---- ---- ------- ----- -- ----<br>-------- ------- -- ---------- --- - --- ----- ----- ----<br>---- --- --- ----- --- ---- ---- ------- ----- ---- -------<br>--- --- -- ----- -- --- ---- -- --- ---- -- ------ ------<br>--- ----- -- ----,125358.9299999876,125357.9299999401,124943.622,124957.96999998856,124960.274,125376.958,,7,and
screen,html.Screen,2_1_0_1_8,2021-04-24T14:49:32.663Z,,,,,,,,,,,,,,,,,53,,,,,,,,,,,,,,469.00699998588243,,response,,,,99,,,,,,,Space,keypress(Space),,,,,,,,---- -- ----- -- ------ - ------- --- fulfilling<br>------------- ------ ------ ---- ---- ------- ----- -- ----<br>-------- ------- -- ---------- --- - --- ----- ----- ----<br>---- --- --- ----- --- ---- ---- ------- ----- ---- -------<br>--- --- -- ----- -- --- ---- -- --- ---- -- ------ ------<br>--- ----- -- ----,125846.96499991696,125845.96499998588,125343.606,125359.24999997951,125376.958,125860.29,,8,fulfilling
screen,html.Screen,2_1_0_1_9,2021-04-24T14:49:33.071Z,,,,,,,,,,,,,,,,,53,,,,,,,,,,,,,,393.63499996815517,,response,,,,99,,,,,,,Space,keypress(Space),,,,,,,,"---- -- ----- -- ------ - ------- --- ----------<br>relationship, ------ ------ ---- ---- ------- ----- -- ----<br>-------- ------- -- ---------- --- - --- ----- ----- ----<br>---- --- --- ----- --- ---- ---- ------- ----- ---- -------<br>--- --- -- ----- -- --- ---- -- --- ---- -- ------ ------<br>--- ----- -- ----",126255.00499992631,126253.92499996815,125843.588,125847.27999998722,125860.29,126260.255,,9,"relationship,"
screen,html.Screen,2_1_0_1_10,2021-04-24T14:49:33.415Z,,,,,,,,,,,,,,,,,53,,,,,,,,,,,,,,337.2199999586446,,response,,,,99,,,,,,,Space,keypress(Space),,,,,,,,---- -- ----- -- ------ - ------- --- ----------<br>------------- common ------ ---- ---- ------- ----- -- ----<br>-------- ------- -- ---------- --- - --- ----- ----- ----<br>---- --- --- ----- --- ---- ---- ------- ----- ---- -------<br>--- --- -- ----- -- --- ---- -- --- ---- -- ------ ------<br>--- ----- -- ----,126598.10499998275,126597.47499995865,126243.578,126255.3149999585,126260.255,126610.155,,10,common
screen,html.Screen,2_1_0_1_11,2021-04-24T14:49:33.807Z,,,,,,,,,,,,,,,,,53,,,,,,,,,,,,,,379.83999995261547,,response,,,,99,,,,,,,Space,keypress(Space),,,,,,,,---- -- ----- -- ------ - ------- --- ----------<br>------------- ------ wisdom ---- ---- ------- ----- -- ----<br>-------- ------- -- ---------- --- - --- ----- ----- ----<br>---- --- --- ----- --- ---- ---- ------- ----- ---- -------<br>--- --- -- ----- -- --- ---- -- --- ---- -- ------ ------<br>--- ----- -- ----,126991.00499995984,126989.99499995261,126593.567,126598.2799999183,126610.155,126993.558,,11,wisdom
screen,html.Screen,2_1_0_1_12,2021-04-24T14:49:34.175Z,,,,,,,,,,,,,,,,,53,,,,,,,,,,,,,,364.25699999574863,,response,,,,99,,,,,,,Space,keypress(Space),,,,,,,,---- -- ----- -- ------ - ------- --- ----------<br>------------- ------ ------ says ---- ------- ----- -- ----<br>-------- ------- -- ---------- --- - --- ----- ----- ----<br>---- --- --- ----- --- ---- ---- ------- ----- ---- -------<br>--- --- -- ----- -- --- ---- -- --- ---- -- ------ ------<br>--- ----- -- ----,127358.85499999858,127357.81499999575,126976.885,126991.31999991369,126993.558,127385.105,,12,says
screen,html.Screen,2_1_0_1_13,2021-04-24T14:49:34.519Z,,,,,,,,,,,,,,,,,53,,,,,,,,,,,,,,316.8099999832775,,response,,,,99,,,,,,,Space,keypress(Space),,,,,,,,---- -- ----- -- ------ - ------- --- ----------<br>------------- ------ ------ ---- that ------- ----- -- ----<br>-------- ------- -- ---------- --- - --- ----- ----- ----<br>---- --- --- ----- --- ---- ---- ------- ----- ---- -------<br>--- --- -- ----- -- --- ---- -- --- ---- -- ------ ------<br>--- ----- -- ----,127702.93499995023,127701.91499998327,127343.517,127359.17999991216,127385.105,127710.223,,13,that
screen,html.Screen,2_1_0_1_14,2021-04-24T14:49:34.888Z,,,,,,,,,,,,,,,,,53,,,,,,,,,,,,,,359.82199994218536,,response,,,,99,,,,,,,Space,keypress(Space),,,,,,,,---- -- ----- -- ------ - ------- --- ----------<br>------------- ------ ------ ---- ---- feeling ----- -- ----<br>-------- ------- -- ---------- --- - --- ----- ----- ----<br>---- --- --- ----- --- ---- ---- ------- ----- ---- -------<br>--- --- -- ----- -- --- ---- -- --- ---- -- ------ ------<br>--- ----- -- ----,128071.15999993403,128070.04499994218,127693.527,127703.26999993995,127710.223,128076.868,,14,feeling
screen,html.Screen,2_1_0_1_15,2021-04-24T14:49:35.207Z,,,,,,,,,,,,,,,,,53,,,,,,,,,,,,,,312.9719999598019,,response,,,,99,,,,,,,Space,keypress(Space),,,,,,,,---- -- ----- -- ------ - ------- --- ----------<br>------------- ------ ------ ---- ---- ------- close -- ----<br>-------- ------- -- ---------- --- - --- ----- ----- ----<br>---- --- --- ----- --- ---- ---- ------- ----- ---- -------<br>--- --- -- ----- -- --- ---- -- --- ---- -- ------ ------<br>--- ----- -- ----,128390.87999996264,128389.8399999598,128060.186,128071.47500000428,128076.868,128393.512,,15,close
screen,html.Screen,2_1_0_1_16,2021-04-24T14:49:35.534Z,,,,,,,,,,,,,,,,,53,,,,,,,,,,,,,,323.7829999803653,,response,,,,99,,,,,,,Space,keypress(Space),,,,,,,,---- -- ----- -- ------ - ------- --- ----------<br>------------- ------ ------ ---- ---- ------- ----- to ----<br>-------- ------- -- ---------- --- - --- ----- ----- ----<br>---- --- --- ----- --- ---- ---- ------- ----- ---- -------<br>--- --- -- ----- -- --- ---- -- --- ---- -- ------ ------<br>--- ----- -- ----,128717.73999999277,128717.29499998037,128376.838,128391.20999991428,128393.512,128726.754,,16,to
screen,html.Screen,2_1_0_1_17,2021-04-24T14:49:35.855Z,,,,,,,,,,,,,,,,,53,,,,,,,,,,,,,,311.27599993786134,,response,,,,99,,,,,,,Space,keypress(Space),,,,,,,,---- -- ----- -- ------ - ------- --- ----------<br>------------- ------ ------ ---- ---- ------- ----- -- your<br>-------- ------- -- ---------- --- - --- ----- ----- ----<br>---- --- --- ----- --- ---- ---- ------- ----- ---- -------<br>--- --- -- ----- -- --- ---- -- --- ---- -- ------ ------<br>--- ----- -- ----,129039.03999994509,129038.02999993786,128710.167,128717.87499997299,128726.754,129043.523,,17,your
screen,html.Screen,2_1_0_1_18,2021-04-24T14:49:36.135Z,,,,,,,,,,,,,,,,,53,,,,,,,,,,,,,,274.1969999336143,,response,,,,99,,,,,,,Space,keypress(Space),,,,,,,,---- -- ----- -- ------ - ------- --- ----------<br>------------- ------ ------ ---- ---- ------- ----- -- ----<br>romantic ------- -- ---------- --- - --- ----- ----- ----<br>---- --- --- ----- --- ---- ---- ------- ----- ---- -------<br>--- --- -- ----- -- --- ---- -- --- ---- -- ------ ------<br>--- ----- -- ----,129318.68999998551,129317.71999993362,129026.818,129039.359999937,129043.523,129326.827,,18,romantic
screen,html.Screen,2_1_0_1_19,2021-04-24T14:49:36.375Z,,,,,,,,,,,,,,,,,53,,,,,,,,,,,,,,230.9079999220994,,response,,,,99,,,,,,,Space,keypress(Space),,,,,,,,---- -- ----- -- ------ - ------- --- ----------<br>------------- ------ ------ ---- ---- ------- ----- -- ----<br>-------- partner -- ---------- --- - --- ----- ----- ----<br>---- --- --- ----- --- ---- ---- ------- ----- ---- -------<br>--- --- -- ----- -- --- ---- -- --- ---- -- ------ ------<br>--- ----- -- ----,129558.71499993373,129557.7349999221,129310.143,129319.00999997742,129326.827,129578.768,,19,partner
screen,html.Screen,2_1_0_1_20,2021-04-24T14:49:36.687Z,,,,,,,,,,,,,,,,,53,,,,,,,,,,,,,,291.1420000085345,,response,,,,99,,,,,,,Space,keypress(Space),,,,,,,,---- -- ----- -- ------ - ------- --- ----------<br>------------- ------ ------ ---- ---- ------- ----- -- ----<br>-------- ------- is ---------- --- - --- ----- ----- ----<br>---- --- --- ----- --- ---- ---- ------- ----- ---- -------<br>--- --- -- ----- -- --- ---- -- --- ---- -- ------ ------<br>--- ----- -- ----,129870.90499990154,129869.91000000853,129543.47,129559.03000000399,129578.768,129876.78,,20,is
screen,html.Screen,2_1_0_1_21,2021-04-24T14:49:36.975Z,,,,,,,,,,,,,,,,,53,,,,,,,,,,,,,,280.98500001084176,,response,,,,99,,,,,,,Space,keypress(Space),,,,,,,,---- -- ----- -- ------ - ------- --- ----------<br>------------- ------ ------ ---- ---- ------- ----- -- ----<br>-------- ------- -- paramount. --- - --- ----- ----- ----<br>---- --- --- ----- --- ---- ---- ------- ----- ---- -------<br>--- --- -- ----- -- --- ---- -- --- ---- -- ------ ------<br>--- ----- -- ----,130158.94999995362,130157.76500001084,129860.128,129871.22999993153,129876.78,130193.48,,21,paramount.
screen,html.Screen,2_1_0_1_22,2021-04-24T14:49:37.367Z,,,,,,,,,,,,,,,,,53,,,,,,,,,,,,,,356.2799999653216,,response,,,,99,,,,,,,Space,keypress(Space),,,,,,,,---- -- ----- -- ------ - ------- --- ----------<br>------------- ------ ------ ---- ---- ------- ----- -- ----<br>-------- ------- -- ---------- But - --- ----- ----- ----<br>---- --- --- ----- --- ---- ---- ------- ----- ---- -------<br>--- --- -- ----- -- --- ---- -- --- ---- -- ------ ------<br>--- ----- -- ----,130550.72499997914,130549.75999996532,130176.789,130159.25499994773,130193.48,130560.139,,22,But
screen,html.Screen,2_1_0_1_23,2021-04-24T14:49:37.735Z,,,,,,,,,,,,,,,,,53,,,,,,,,,,,,,,357.7659999220341,,response,,,,99,,,,,,,Space,keypress(Space),,,,,,,,---- -- ----- -- ------ - ------- --- ----------<br>------------- ------ ------ ---- ---- ------- ----- -- ----<br>-------- ------- -- ---------- --- a --- ----- ----- ----<br>---- --- --- ----- --- ---- ---- ------- ----- ---- -------<br>--- --- -- ----- -- --- ---- -- --- ---- -- ------ ------<br>--- ----- -- ----,130918.85499993805,130917.90499992203,130543.428,130551.03999993298,130560.139,130926.776,,23,a
screen,html.Screen,2_1_0_1_24,2021-04-24T14:49:38.023Z,,,,,,,,,,,,,,,,,53,,,,,,,,,,,,,,278.9889999624138,,response,,,,99,,,,,,,Space,keypress(Space),,,,,,,,---- -- ----- -- ------ - ------- --- ----------<br>------------- ------ ------ ---- ---- ------- ----- -- ----<br>-------- ------- -- ---------- --- - new ----- ----- ----<br>---- --- --- ----- --- ---- ---- ------- ----- ---- -------<br>--- --- -- ----- -- --- ---- -- --- ---- -- ------ ------<br>--- ----- -- ----,131206.69499994256,131205.7649999624,130910.089,130919.17999996804,130926.776,131210.114,,24,new
screen,html.Screen,2_1_0_1_25,2021-04-24T14:49:38.359Z,,,,,,,,,,,,,,,,,53,,,,,,,,,,,,,,331.7559999572695,,response,,,,99,,,,,,,Space,keypress(Space),,,,,,,,---- -- ----- -- ------ - ------- --- ----------<br>------------- ------ ------ ---- ---- ------- ----- -- ----<br>-------- ------- -- ---------- --- - --- study ----- ----<br>---- --- --- ----- --- ---- ---- ------- ----- ---- -------<br>--- --- -- ----- -- --- ---- -- --- ---- -- ------ ------<br>--- ----- -- ----,131543.0649999762,131541.86999995727,131193.41,131207.00499997474,131210.114,131560.01,,25,study
screen,html.Screen,2_1_0_1_26,2021-04-24T14:49:38.654Z,,,,,,,,,,,,,,,,,53,,,,,,,,,,,,,,277.3699999244418,,response,,,,99,,,,,,,Space,keypress(Space),,,,,,,,---- -- ----- -- ------ - ------- --- ----------<br>------------- ------ ------ ---- ---- ------- ----- -- ----<br>-------- ------- -- ---------- --- - --- ----- finds ----<br>---- --- --- ----- --- ---- ---- ------- ----- ---- -------<br>--- --- -- ----- -- --- ---- -- --- ---- -- ------ ------<br>--- ----- -- ----,131837.83999993466,131837.37999992445,131543.412,131543.3849999681,131560.01,131843.334,,26,finds
screen,html.Screen,2_1_0_1_27,2021-04-24T14:49:38.959Z,,,,,,,,,,,,,,,,,53,,,,,,,,,,,,,,298.5509999317874,,response,,,,99,,,,,,,Space,keypress(Space),,,,,,,,---- -- ----- -- ------ - ------- --- ----------<br>------------- ------ ------ ---- ---- ------- ----- -- ----<br>-------- ------- -- ---------- --- - --- ----- ----- that<br>---- --- --- ----- --- ---- ---- ------- ----- ---- -------<br>--- --- -- ----- -- --- ---- -- --- ---- -- ------ ------<br>--- ----- -- ----,132142.85999990534,132141.8849999318,131826.639,131837.97499991488,131843.334,132160.143,,27,that
screen,html.Screen,2_1_0_1_28,2021-04-24T14:49:39.279Z,,,,,,,,,,,,,,,,,53,,,,,,,,,,,,,,301.85199990324327,,response,,,,99,,,,,,,Space,keypress(Space),,,,,,,,---- -- ----- -- ------ - ------- --- ----------<br>------------- ------ ------ ---- ---- ------- ----- -- ----<br>-------- ------- -- ---------- --- - --- ----- ----- ----<br>it's --- --- ----- --- ---- ---- ------- ----- ---- -------<br>--- --- -- ----- -- --- ---- -- --- ---- -- ------ ------<br>--- ----- -- ----,132463.02499994636,132461.99499990325,132143.3,132143.16999993753,132160.143,132476.74,,28,it's
screen,html.Screen,2_1_0_1_29,2021-04-24T14:49:39.567Z,,,,,,,,,,,,,,,,,53,,,,,,,,,,,,,,273.0349999165628,,response,,,,99,,,,,,,Space,keypress(Space),,,,,,,,---- -- ----- -- ------ - ------- --- ----------<br>------------- ------ ------ ---- ---- ------- ----- -- ----<br>-------- ------- -- ---------- --- - --- ----- ----- ----<br>---- not --- ----- --- ---- ---- ------- ----- ---- -------<br>--- --- -- ----- -- --- ---- -- --- ---- -- ------ ------<br>--- ----- -- ----,132750.88499998674,132749.77499991655,132460.038,132463.34499993827,132476.74,132760.042,,29,not
screen,html.Screen,2_1_0_1_30,2021-04-24T14:49:39.896Z,,,,,,,,,,,,,,,,,53,,,,,,,,,,,,,,318.19799994435743,,response,,,,99,,,,,,,Space,keypress(Space),,,,,,,,---- -- ----- -- ------ - ------- --- ----------<br>------------- ------ ------ ---- ---- ------- ----- -- ----<br>-------- ------- -- ---------- --- - --- ----- ----- ----<br>---- --- how ----- --- ---- ---- ------- ----- ---- -------<br>--- --- -- ----- -- --- ---- -- --- ---- -- ------ ------<br>--- ----- -- ----,133079.2299999157,133078.23999994434,132743.359,132751.1949999025,132760.042,133093.404,,30,how
screen,html.Screen,2_1_0_1_31,2021-04-24T14:49:40.199Z,,,,,,,,,,,,,,,,,53,,,,,,,,,,,,,,288.52099999421625,,response,,,,99,,,,,,,Space,keypress(Space),,,,,,,,---- -- ----- -- ------ - ------- --- ----------<br>------------- ------ ------ ---- ---- ------- ----- -- ----<br>-------- ------- -- ---------- --- - --- ----- ----- ----<br>---- --- --- close --- ---- ---- ------- ----- ---- -------<br>--- --- -- ----- -- --- ---- -- --- ---- -- ------ ------<br>--- ----- -- ----,133382.94499996118,133381.92499999423,133076.685,133079.5349999098,133093.404,133393.382,,31,close
screen,html.Screen,2_1_0_1_32,2021-04-24T14:49:40.521Z,,,,,,,,,,,,,,,,,53,,,,,,,,,,,,,,308.56299997886526,,response,,,,99,,,,,,,Space,keypress(Space),,,,,,,,---- -- ----- -- ------ - ------- --- ----------<br>------------- ------ ------ ---- ---- ------- ----- -- ----<br>-------- ------- -- ---------- --- - --- ----- ----- ----<br>---- --- --- ----- you ---- ---- ------- ----- ---- -------<br>--- --- -- ----- -- --- ---- -- --- ---- -- ------ ------<br>--- ----- -- ----,133704.48499999475,133701.94499997888,133376.678,133383.25999991503,133393.382,133710.02,,32,you
screen,html.Screen,2_1_0_1_33,2021-04-24T14:49:40.798Z,,,,,,,,,,,,,,,,,53,,,,,,,,,,,,,,271.33999997613137,,response,,,,99,,,,,,,Space,keypress(Space),,,,,,,,---- -- ----- -- ------ - ------- --- ----------<br>------------- ------ ------ ---- ---- ------- ----- -- ----<br>-------- ------- -- ---------- --- - --- ----- ----- ----<br>---- --- --- ----- --- feel ---- ------- ----- ---- -------<br>--- --- -- ----- -- --- ---- -- --- ---- -- ------ ------<br>--- ----- -- ----,133981.8399999058,133981.35999997612,133693.331,133704.79499991052,133710.02,133993.356,,33,feel
screen,html.Screen,2_1_0_1_34,2021-04-24T14:49:41.071Z,,,,,,,,,,,,,,,,,53,,,,,,,,,,,,,,260.5039999388682,,response,,,,99,,,,,,,Space,keypress(Space),,,,,,,,---- -- ----- -- ------ - ------- --- ----------<br>------------- ------ ------ ---- ---- ------- ----- -- ----<br>-------- ------- -- ---------- --- - --- ----- ----- ----<br>---- --- --- ----- --- ---- that ------- ----- ---- -------<br>--- --- -- ----- -- --- ---- -- --- ---- -- ------ ------<br>--- ----- -- ----,134254.789999919,134253.85999993887,133976.657,133981.97500000242,133993.356,134259.996,,34,that
screen,html.Screen,2_1_0_1_35,2021-04-24T14:49:41.343Z,,,,,,,,,,,,,,,,,53,,,,,,,,,,,,,,265.7139999580395,,response,,,,99,,,,,,,Space,keypress(Space),,,,,,,,---- -- ----- -- ------ - ------- --- ----------<br>------------- ------ ------ ---- ---- ------- ----- -- ----<br>-------- ------- -- ---------- --- - --- ----- ----- ----<br>---- --- --- ----- --- ---- ---- matters ----- ---- -------<br>--- --- -- ----- -- --- ---- -- --- ---- -- ------ ------<br>--- ----- -- ----,134526.70499996748,134525.70999995805,134243.313,134255.09499991313,134259.996,134543.31,,35,matters
screen,html.Screen,2_1_0_1_36,2021-04-24T14:49:41.567Z,,,,,,,,,,,,,,,,,53,,,,,,,,,,,,,,206.4199999231496,,response,,,,99,,,,,,,Space,keypress(Space),,,,,,,,"---- -- ----- -- ------ - ------- --- ----------<br>------------- ------ ------ ---- ---- ------- ----- -- ----<br>-------- ------- -- ---------- --- - --- ----- ----- ----<br>---- --- --- ----- --- ---- ---- ------- most, ---- -------<br>--- --- -- ----- -- --- ---- -- --- ---- -- ------ ------<br>--- ----- -- ----",134750.69999997504,134749.72999992315,134526.64,134528.38499995414,134543.31,134759.999,,36,"most,"
screen,html.Screen,2_1_0_1_37,2021-04-24T14:49:41.896Z,,,,,,,,,,,,,,,,,53,,,,,,,,,,,,,,317.9759999055532,,response,,,,99,,,,,,,Space,keypress(Space),,,,,,,,---- -- ----- -- ------ - ------- --- ----------<br>------------- ------ ------ ---- ---- ------- ----- -- ----<br>-------- ------- -- ---------- --- - --- ----- ----- ----<br>---- --- --- ----- --- ---- ---- ------- ----- it's -------<br>--- --- -- ----- -- --- ---- -- --- ---- -- ------ ------<br>--- ----- -- ----,135079.09499993548,135077.97499990556,134743.298,134750.99999993108,134759.999,135093.295,,37,it's
screen,html.Screen,2_1_0_1_38,2021-04-24T14:49:42.143Z,,,,,,,,,,,,,,,,,53,,,,,,,,,,,,,,232.43000000240863,,response,,,,99,,,,,,,Space,keypress(Space),,,,,,,,---- -- ----- -- ------ - ------- --- ----------<br>------------- ------ ------ ---- ---- ------- ----- -- ----<br>-------- ------- -- ---------- --- - --- ----- ----- ----<br>---- --- --- ----- --- ---- ---- ------- ----- ---- whether<br>--- --- -- ----- -- --- ---- -- --- ---- -- ------ ------<br>--- ----- -- ----,135326.64499990642,135325.72500000242,135076.62,135079.3849999318,135093.295,135343.309,,38,whether
screen,html.Screen,2_1_0_1_39,2021-04-24T14:49:42.727Z,,,,,,,,,,,,,,,,,53,,,,,,,,,,,,,,566.6359999630367,,response,,,,99,,,,,,,Space,keypress(Space),,,,,,,,---- -- ----- -- ------ - ------- --- ----------<br>------------- ------ ------ ---- ---- ------- ----- -- ----<br>-------- ------- -- ---------- --- - --- ----- ----- ----<br>---- --- --- ----- --- ---- ---- ------- ----- ---- -------<br>you --- -- ----- -- --- ---- -- --- ---- -- ------ ------<br>--- ----- -- ----,135910.96999996807,135909.94499996305,135326.611,135326.92999998108,135343.309,135926.625,,39,you
screen,html.Screen,2_1_0_1_40,2021-04-24T14:49:42.991Z,,,,,,,,,,,,,,,,,53,,,,,,,,,,,,,,247.40499999467283,,response,,,,99,,,,,,,Space,keypress(Space),,,,,,,,---- -- ----- -- ------ - ------- --- ----------<br>------------- ------ ------ ---- ---- ------- ----- -- ----<br>-------- ------- -- ---------- --- - --- ----- ----- ----<br>---- --- --- ----- --- ---- ---- ------- ----- ---- -------<br>--- are -- ----- -- --- ---- -- --- ---- -- ------ ------<br>--- ----- -- ----,136175.0400000019,136174.02999999467,135909.922,135911.2599999644,135926.625,136195.215,,40,are
screen,html.Screen,2_1_0_1_41,2021-04-24T14:49:43.215Z,,,,,,,,,,,,,,,,,53,,,,,,,,,,,,,,202.5200000059267,,response,,,,99,,,,,,,Space,keypress(Space),,,,,,,,---- -- ----- -- ------ - ------- --- ----------<br>------------- ------ ------ ---- ---- ------- ----- -- ----<br>-------- ------- -- ---------- --- - --- ----- ----- ----<br>---- --- --- ----- --- ---- ---- ------- ----- ---- -------<br>--- --- as ----- -- --- ---- -- --- ---- -- ------ ------<br>--- ----- -- ----,136398.72499997728,136397.73500000592,136159.918,136175.33999995794,136195.215,136409.939,,41,as
screen,html.Screen,2_1_0_1_42,2021-04-24T14:49:43.440Z,,,,,,,,,,,,,,,,,53,,,,,,,,,,,,,,212.0259999402333,,response,,,,99,,,,,,,Space,keypress(Space),,,,,,,,---- -- ----- -- ------ - ------- --- ----------<br>------------- ------ ------ ---- ---- ------- ----- -- ----<br>-------- ------- -- ---------- --- - --- ----- ----- ----<br>---- --- --- ----- --- ---- ---- ------- ----- ---- -------<br>--- --- -- close -- --- ---- -- --- ---- -- ------ ------<br>--- ----- -- ----,136623.32000001334,136621.96499994025,136393.241,136399.02000001166,136409.939,136626.592,,42,close
screen,html.Screen,2_1_0_1_43,2021-04-24T14:49:43.639Z,,,,,,,,,,,,,,,,,53,,,,,,,,,,,,,,195.19799995812355,,response,,,,99,,,,,,,Space,keypress(Space),,,,,,,,---- -- ----- -- ------ - ------- --- ----------<br>------------- ------ ------ ---- ---- ------- ----- -- ----<br>-------- ------- -- ---------- --- - --- ----- ----- ----<br>---- --- --- ----- --- ---- ---- ------- ----- ---- -------<br>--- --- -- ----- as --- ---- -- --- ---- -- ------ ------<br>--- ----- -- ----,136822.74999993388,136821.78999995813,136609.912,136623.78999998327,136626.592,136826.557,,43,as
screen,html.Screen,2_1_0_1_44,2021-04-24T14:49:43.839Z,,,,,,,,,,,,,,,,,53,,,,,,,,,,,,,,195.4229999613308,,response,,,,99,,,,,,,Space,keypress(Space),,,,,,,,---- -- ----- -- ------ - ------- --- ----------<br>------------- ------ ------ ---- ---- ------- ----- -- ----<br>-------- ------- -- ---------- --- - --- ----- ----- ----<br>---- --- --- ----- --- ---- ---- ------- ----- ---- -------<br>--- --- -- ----- -- you ---- -- --- ---- -- ------ ------<br>--- ----- -- ----,137022.94499997515,137021.97999996133,136809.907,136823.04499996826,136826.557,137043.273,,44,you
screen,html.Screen,2_1_0_1_45,2021-04-24T14:49:44.047Z,,,,,,,,,,,,,,,,,53,,,,,,,,,,,,,,186.65199999237666,,response,,,,99,,,,,,,Space,keypress(Space),,,,,,,,---- -- ----- -- ------ - ------- --- ----------<br>------------- ------ ------ ---- ---- ------- ----- -- ----<br>-------- ------- -- ---------- --- - --- ----- ----- ----<br>---- --- --- ----- --- ---- ---- ------- ----- ---- -------<br>--- --- -- ----- -- --- want -- --- ---- -- ------ ------<br>--- ----- -- ----,137230.89000000618,137229.92499999236,137026.544,137026.39000001363,137043.273,137243.227,,45,want
screen,html.Screen,2_1_0_1_46,2021-04-24T14:49:44.255Z,,,,,,,,,,,,,,,,,53,,,,,,,,,,,,,,194.54799999849638,,response,,,,99,,,,,,,Space,keypress(Space),,,,,,,,---- -- ----- -- ------ - ------- --- ----------<br>------------- ------ ------ ---- ---- ------- ----- -- ----<br>-------- ------- -- ---------- --- - --- ----- ----- ----<br>---- --- --- ----- --- ---- ---- ------- ----- ---- -------<br>--- --- -- ----- -- --- ---- to --- ---- -- ------ ------<br>--- ----- -- ----,137438.71499993838,137437.7749999985,137226.43,137231.18499992415,137243.227,137443.2,,46,to
screen,html.Screen,2_1_0_1_47,2021-04-24T14:49:44.479Z,,,,,,,,,,,,,,,,,53,,,,,,,,,,,,,,218.5149999365094,,response,,,,99,,,,,,,Space,keypress(Space),,,,,,,,"---- -- ----- -- ------ - ------- --- ----------<br>------------- ------ ------ ---- ---- ------- ----- -- ----<br>-------- ------- -- ---------- --- - --- ----- ----- ----<br>---- --- --- ----- --- ---- ---- ------- ----- ---- -------<br>--- --- -- ----- -- --- ---- -- be, ---- -- ------ ------<br>--- ----- -- ----",137662.61999995913,137661.71499993652,137426.542,137438.99499997497,137443.2,137676.566,,47,"be,"
screen,html.Screen,2_1_0_1_48,2021-04-24T14:49:44.711Z,,,,,,,,,,,,,,,,,53,,,,,,,,,,,,,,217.19899992796127,,response,,,,99,,,,,,,Space,keypress(Space),,,,,,,,---- -- ----- -- ------ - ------- --- ----------<br>------------- ------ ------ ---- ---- ------- ----- -- ----<br>-------- ------- -- ---------- --- - --- ----- ----- ----<br>---- --- --- ----- --- ---- ---- ------- ----- ---- -------<br>--- --- -- ----- -- --- ---- -- --- even -- ------ ------<br>--- ----- -- ----,137894.64499999303,137893.76499992795,137659.867,137662.88999991957,137676.566,137909.893,,48,even
screen,html.Screen,2_1_0_1_49,2021-04-24T14:49:44.950Z,,,,,,,,,,,,,,,,,53,,,,,,,,,,,,,,223.3519999172131,,response,,,,99,,,,,,,Space,keypress(Space),,,,,,,,---- -- ----- -- ------ - ------- --- ----------<br>------------- ------ ------ ---- ---- ------- ----- -- ----<br>-------- ------- -- ---------- --- - --- ----- ----- ----<br>---- --- --- ----- --- ---- ---- ------- ----- ---- -------<br>--- --- -- ----- -- --- ---- -- --- ---- if ------ ------<br>--- ----- -- ----,138133.59999994282,138133.24499991722,137893.159,137894.91499995347,137909.893,138143.091,,49,if
screen,html.Screen,2_1_0_1_50,2021-04-24T14:49:45.167Z,,,,,,,,,,,,,,,,,53,,,,,,,,,,,,,,206.6789999716275,,response,,,,99,,,,,,,Space,keypress(Space),,,,,,,,---- -- ----- -- ------ - ------- --- ----------<br>------------- ------ ------ ---- ---- ------- ----- -- ----<br>-------- ------- -- ---------- --- - --- ----- ----- ----<br>---- --- --- ----- --- ---- ---- ------- ----- ---- -------<br>--- --- -- ----- -- --- ---- -- --- ---- -- that's ------<br>--- ----- -- ----,138350.67999991588,138349.7699999716,138126.521,138133.68999992963,138143.091,138359.862,,50,that's
screen,html.Screen,2_1_0_1_51,2021-04-24T14:49:45.495Z,,,,,,,,,,,,,,,,,53,,,,,,,,,,,,,,317.927999987005,,response,,,,99,,,,,,,Space,keypress(Space),,,,,,,,---- -- ----- -- ------ - ------- --- ----------<br>------------- ------ ------ ---- ---- ------- ----- -- ----<br>-------- ------- -- ---------- --- - --- ----- ----- ----<br>---- --- --- ----- --- ---- ---- ------- ----- ---- -------<br>--- --- -- ----- -- --- ---- -- --- ---- -- ------ really<br>--- ----- -- ----,138678.7100000074,138677.789999987,138343.176,138350.96499999054,138359.862,138693.199,,51,really
screen,html.Screen,2_1_0_1_52,2021-04-24T14:49:45.792Z,,,,,,,,,,,,,,,,,53,,,,,,,,,,,,,,280.97099994312157,,response,,,,99,,,,,,,Space,keypress(Space),,,,,,,,---- -- ----- -- ------ - ------- --- ----------<br>------------- ------ ------ ---- ---- ------- ----- -- ----<br>-------- ------- -- ---------- --- - --- ----- ----- ----<br>---- --- --- ----- --- ---- ---- ------- ----- ---- -------<br>--- --- -- ----- -- --- ---- -- --- ---- -- ------ ------<br>not ----- -- ----,138975.20499990787,138974.16999994311,138676.5,138678.98999992758,138693.199,138993.176,,52,not
screen,html.Screen,2_1_0_1_53,2021-04-24T14:49:46.022Z,,,,,,,,,,,,,,,,,53,,,,,,,,,,,,,,212.08399995879154,,response,,,,99,,,,,,,Space,keypress(Space),,,,,,,,---- -- ----- -- ------ - ------- --- ----------<br>------------- ------ ------ ---- ---- ------- ----- -- ----<br>-------- ------- -- ---------- --- - --- ----- ----- ----<br>---- --- --- ----- --- ---- ---- ------- ----- ---- -------<br>--- --- -- ----- -- --- ---- -- --- ---- -- ------ ------<br>--- close -- ----,139205.61999990605,139205.2599999588,138959.824,138975.49999994226,138993.176,139209.82,,53,close
screen,html.Screen,2_1_0_1_54,2021-04-24T14:49:46.279Z,,,,,,,,,,,,,,,,,53,,,,,,,,,,,,,,252.06999991863267,,response,,,,99,,,,,,,Space,keypress(Space),,,,,,,,---- -- ----- -- ------ - ------- --- ----------<br>------------- ------ ------ ---- ---- ------- ----- -- ----<br>-------- ------- -- ---------- --- - --- ----- ----- ----<br>---- --- --- ----- --- ---- ---- ------- ----- ---- -------<br>--- --- -- ----- -- --- ---- -- --- ---- -- ------ ------<br>--- ----- at ----,139462.78999990318,139461.88999991864,139193.15,139205.7049999712,139209.82,139476.506,,54,at
screen,html.Screen,2_1_0_1_55,2021-04-24T14:49:46.647Z,,,,,,,,,,,,,,,,,53,,,,,,,,,,,,,,353.5189999156282,,response,,,,99,,,,,,,Space,keypress(Space),,,,,,,,---- -- ----- -- ------ - ------- --- ----------<br>------------- ------ ------ ---- ---- ------- ----- -- ----<br>-------- ------- -- ---------- --- - --- ----- ----- ----<br>---- --- --- ----- --- ---- ---- ------- ----- ---- -------<br>--- --- -- ----- -- --- ---- -- --- ---- -- ------ ------<br>--- ----- -- all.,139831.0599999968,139830.02499991562,139459.808,139463.08499993756,139476.506,139843.152,,55,all.
Item 99,flow.Loop,2_1_0_1,2021-04-24T14:49:46.648Z,,,,,,,,,,,,,,,,,,,,,,,,,,,,,,,18103.05099991562,,completion,,,,,C,,,,,,,,,,,silence,,,,,139831.62999991328,139830.02499991562,121710.402,121716.63999999873,121726.974,139843.152,,,
Question 1,html.Screen,2_1_0_2,2021-04-24T14:49:51.958Z,,,,,,,,,,,,,,,,,,,,,,,,,,,,true,FALSE,,5298.002999961143,,response,,,,99,C,,,,,,FALSE,click #choice-2,,,,silence,,,,,145141.51999994647,145141.15499996115,139826.462,139831.89499995206,139843.152,145142.836,,,
Question 2,html.Screen,2_1_0_3,2021-04-24T14:49:56.726Z,,,,,,,,,,,,,,,,,,,,,,,,,,,,true,TRUE,,4766.313999963109,,response,,,,99,C,,,,,,TRUE,click #choice-1,,,,silence,,,,,149909.51499994844,149909.14999996312,145126.271,145141.59999997355,145142.836,149926.029,,,
Item 99,flow.Sequence,2_1_0,2021-04-24T14:49:56.726Z,,,,,,,,,,,,,,,,,,,,,,,,,,,,,,,38184.63299996311,,completion,,,,,,,,,,,,,,,,,,,,,149909.6750000026,149909.14999996312,111677.358,111693.92999995034,111724.517,149926.029,,,
Holding screen,html.Screen,2_1_1_0,2021-04-24T14:50:06.726Z,,,,,,,,,,,,,,,,,,,,,,,,,,,,,,,9999.786999999982,,timeout,,,,,,,,,,,,,,,,,,,,,159909.95999996085,159909.134,149892.801,149909.75499991328,149926.029,159925.816,,,
screen,html.Screen,2_1_1_1_0,2021-04-24T14:50:07.600Z,,,,,,,,,,,,,,,,,54,,,,,,,,,,,,,,856.5789999874542,,response,,,,100,,,,,,,Space,keypress(Space),,,,,,,,At --- ---- --- ------ ----- ------- ---- -- --- ------- --<br>------- ---------- ------ -- ----- -- ----- -- ---- ------<br>--- ----- --- --- ------ -------- ----- --- ------ ----- --<br>----- ----- ---------- --- --- ------ ------ ---- -- ------<br>------- --- ------ ----- --- ---- ------- -- ---- --- --<br>------- ------,160783.6599999573,160782.39499998745,159909.134,159910.30999994837,159925.816,160792.47,,0,At
screen,html.Screen,2_1_1_1_1,2021-04-24T14:50:07.815Z,,,,,,,,,,,,,,,,,54,,,,,,,,,,,,,,205.46499999213847,,response,,,,100,,,,,,,Space,keypress(Space),,,,,,,,-- the ---- --- ------ ----- ------- ---- -- --- ------- --<br>------- ---------- ------ -- ----- -- ----- -- ---- ------<br>--- ----- --- --- ------ -------- ----- --- ------ ----- --<br>----- ----- ---------- --- --- ------ ------ ---- -- ------<br>------- --- ------ ----- --- ---- ------- -- ---- --- --<br>------- ------,160998.874999932,160997.93499999214,160775.689,160783.94999995362,160792.47,161009.135,,1,the
screen,html.Screen,2_1_1_1_2,2021-04-24T14:50:07.998Z,,,,,,,,,,,,,,,,,54,,,,,,,,,,,,,,172.19999997201376,,response,,,,100,,,,,,,Space,keypress(Space),,,,,,,,-- --- time --- ------ ----- ------- ---- -- --- ------- --<br>------- ---------- ------ -- ----- -- ----- -- ---- ------<br>--- ----- --- --- ------ -------- ----- --- ------ ----- --<br>----- ----- ---------- --- --- ------ ------ ---- -- ------<br>------- --- ------ ----- --- ---- ------- -- ---- --- --<br>------- ------,161181.74999998882,161181.33499997202,160992.429,160999.16000000667,161009.135,161192.351,,2,time
screen,html.Screen,2_1_1_1_3,2021-04-24T14:50:08.135Z,,,,,,,,,,,,,,,,,54,,,,,,,,,,,,,,125.36899993362022,,response,,,,100,,,,,,,Space,keypress(Space),,,,,,,,-- --- ---- the ------ ----- ------- ---- -- --- ------- --<br>------- ---------- ------ -- ----- -- ----- -- ---- ------<br>--- ----- --- --- ------ -------- ----- --- ------ ----- --<br>----- ----- ---------- --- --- ------ ------ ---- -- ------<br>------- --- ------ ----- --- ---- ------- -- ---- --- --<br>------- ------,161318.6299999943,161317.71999993362,161175.755,161181.86499993317,161192.351,161325.77,,3,the
screen,html.Screen,2_1_1_1_4,2021-04-24T14:50:08.359Z,,,,,,,,,,,,,,,,,54,,,,,,,,,,,,,,215.98500001293723,,response,,,,100,,,,,,,Space,keypress(Space),,,,,,,,-- --- ---- --- French ----- ------- ---- -- --- ------- --<br>------- ---------- ------ -- ----- -- ----- -- ---- ------<br>--- ----- --- --- ------ -------- ----- --- ------ ----- --<br>----- ----- ---------- --- --- ------ ------ ---- -- ------<br>------- --- ------ ----- --- ---- ------- -- ---- --- --<br>------- ------,161542.6349999616,161541.75500001293,161308.991,161318.90999991447,161325.77,161559.156,,4,French
screen,html.Screen,2_1_1_1_5,2021-04-24T14:50:08.656Z,,,,,,,,,,,,,,,,,54,,,,,,,,,,,,,,278.93900001372094,,response,,,,100,,,,,,,Space,keypress(Space),,,,,,,,-- --- ---- --- ------ crown ------- ---- -- --- ------- --<br>------- ---------- ------ -- ----- -- ----- -- ---- ------<br>--- ----- --- --- ------ -------- ----- --- ------ ----- --<br>----- ----- ---------- --- --- ------ ------ ---- -- ------<br>------- --- ------ ----- --- ---- ------- -- ---- --- --<br>------- ------,161839.25499999896,161838.0950000137,161542.392,161542.91499999817,161559.156,161842.408,,5,crown
screen,html.Screen,2_1_1_1_6,2021-04-24T14:50:08.911Z,,,,,,,,,,,,,,,,,54,,,,,,,,,,,,,,251.4369999084738,,response,,,,100,,,,,,,Space,keypress(Space),,,,,,,,-- --- ---- --- ------ ----- secured ---- -- --- ------- --<br>------- ---------- ------ -- ----- -- ----- -- ---- ------<br>--- ----- --- --- ------ -------- ----- --- ------ ----- --<br>----- ----- ---------- --- --- ------ ------ ---- -- ------<br>------- --- ------ ----- --- ---- ------- -- ---- --- --<br>------- ------,162094.7949999245,162093.84499990847,161825.753,161839.52999999747,161842.408,162109.071,,6,secured
screen,html.Screen,2_1_1_1_7,2021-04-24T14:50:09.351Z,,,,,,,,,,,,,,,,,54,,,,,,,,,,,,,,424.80399996461347,,response,,,,100,,,,,,,Space,keypress(Space),,,,,,,,-- --- ---- --- ------ ----- ------- much -- --- ------- --<br>------- ---------- ------ -- ----- -- ----- -- ---- ------<br>--- ----- --- --- ------ -------- ----- --- ------ ----- --<br>----- ----- ---------- --- --- ------ ------ ---- -- ------<br>------- --- ------ ----- --- ---- ------- -- ---- --- --<br>------- ------,162534.8299999023,162533.8749999646,162092.4,162095.07499996107,162109.071,162542.356,,7,much
screen,html.Screen,2_1_1_1_8,2021-04-24T14:50:09.631Z,,,,,,,,,,,,,,,,,54,,,,,,,,,,,,,,271.39399997206056,,response,,,,100,,,,,,,Space,keypress(Space),,,,,,,,-- --- ---- --- ------ ----- ------- ---- of --- ------- --<br>------- ---------- ------ -- ----- -- ----- -- ---- ------<br>--- ----- --- --- ------ -------- ----- --- ------ ----- --<br>----- ----- ---------- --- --- ------ ------ ---- -- ------<br>------- --- ------ ----- --- ---- ------- -- ---- --- --<br>------- ------,162814.61000000127,162813.74999997206,162525.709,162535.12499993667,162542.356,162825.732,,8,of
screen,html.Screen,2_1_1_1_9,2021-04-24T14:50:09.831Z,,,,,,,,,,,,,,,,,54,,,,,,,,,,,,,,188.02800000165007,,response,,,,100,,,,,,,Space,keypress(Space),,,,,,,,-- --- ---- --- ------ ----- ------- ---- -- its ------- --<br>------- ---------- ------ -- ----- -- ----- -- ---- ------<br>--- ----- --- --- ------ -------- ----- --- ------ ----- --<br>----- ----- ---------- --- --- ------ ------ ---- -- ------<br>------- --- ------ ----- --- ---- ------- -- ---- --- --<br>------- ------,163014.6549999481,163013.76000000164,162809.034,162814.88499999978,162825.732,163025.727,,9,its
screen,html.Screen,2_1_1_1_10,2021-04-24T14:50:10.126Z,,,,,,,,,,,,,,,,,54,,,,,,,,,,,,,,283.6429999153479,,response,,,,100,,,,,,,Space,keypress(Space),,,,,,,,-- --- ---- --- ------ ----- ------- ---- -- --- revenue --<br>------- ---------- ------ -- ----- -- ----- -- ---- ------<br>--- ----- --- --- ------ -------- ----- --- ------ ----- --<br>----- ----- ---------- --- --- ------ ------ ---- -- ------<br>------- --- ------ ----- --- ---- ------- -- ---- --- --<br>------- ------,163309.81499992777,163309.36999991536,163009.028,163014.9349999847,163025.727,163325.635,,10,revenue
screen,html.Screen,2_1_1_1_11,2021-04-24T14:50:10.391Z,,,,,,,,,,,,,,,,,54,,,,,,,,,,,,,,248.1299999791663,,response,,,,100,,,,,,,Space,keypress(Space),,,,,,,,-- --- ---- --- ------ ----- ------- ---- -- --- ------- by<br>------- ---------- ------ -- ----- -- ----- -- ---- ------<br>--- ----- --- --- ------ -------- ----- --- ------ ----- --<br>----- ----- ---------- --- --- ------ ------ ---- -- ------<br>------- --- ------ ----- --- ---- ------- -- ---- --- --<br>------- ------,163574.6499999659,163573.76499997918,163309.019,163309.93999994826,163325.635,163609.036,,11,by
screen,html.Screen,2_1_1_1_12,2021-04-24T14:50:10.879Z,,,,,,,,,,,,,,,,,54,,,,,,,,,,,,,,452.97399999419576,,response,,,,100,,,,,,,Space,keypress(Space),,,,,,,,-- --- ---- --- ------ ----- ------- ---- -- --- ------- --<br>issuing ---------- ------ -- ----- -- ----- -- ---- ------<br>--- ----- --- --- ------ -------- ----- --- ------ ----- --<br>----- ----- ---------- --- --- ------ ------ ---- -- ------<br>------- --- ------ ----- --- ---- ------- -- ---- --- --<br>------- ------,164062.99999996554,164062.0099999942,163592.348,163574.92499996442,163609.036,164075.695,,12,issuing
screen,html.Screen,2_1_1_1_13,2021-04-24T14:50:11.166Z,,,,,,,,,,,,,,,,,54,,,,,,,,,,,,,,273.6299999592011,,response,,,,100,,,,,,,Space,keypress(Space),,,,,,,,-- --- ---- --- ------ ----- ------- ---- -- --- ------- --<br>------- government ------ -- ----- -- ----- -- ---- ------<br>--- ----- --- --- ------ -------- ----- --- ------ ----- --<br>----- ----- ---------- --- --- ------ ------ ---- -- ------<br>------- --- ------ ----- --- ---- ------- -- ---- --- --<br>------- ------,164349.77999993134,164349.3249999592,164058.989,164063.28499992378,164075.695,164358.914,,13,government
screen,html.Screen,2_1_1_1_14,2021-04-24T14:50:11.471Z,,,,,,,,,,,,,,,,,54,,,,,,,,,,,,,,294.8309999014018,,response,,,,100,,,,,,,Space,keypress(Space),,,,,,,,-- --- ---- --- ------ ----- ------- ---- -- --- ------- --<br>------- ---------- bonds. -- ----- -- ----- -- ---- ------<br>--- ----- --- --- ------ -------- ----- --- ------ ----- --<br>----- ----- ---------- --- --- ------ ------ ---- -- ------<br>------- --- ------ ----- --- ---- ------- -- ---- --- --<br>------- ------,164654.71499995328,164653.7449999014,164342.317,164349.89999991376,164358.914,164658.985,,14,bonds.
screen,html.Screen,2_1_1_1_15,2021-04-24T14:50:11.751Z,,,,,,,,,,,,,,,,,54,,,,,,,,,,,,,,274.8149999988964,,response,,,,100,,,,,,,Space,keypress(Space),,,,,,,,-- --- ---- --- ------ ----- ------- ---- -- --- ------- --<br>------- ---------- ------ In ----- -- ----- -- ---- ------<br>--- ----- --- --- ------ -------- ----- --- ------ ----- --<br>----- ----- ---------- --- --- ------ ------ ---- -- ------<br>------- --- ------ ----- --- ---- ------- -- ---- --- --<br>------- ------,164934.70999994315,164933.79999999888,164642.307,164655.00999998767,164658.985,164942.338,,15,In
screen,html.Screen,2_1_1_1_16,2021-04-24T14:50:12.008Z,,,,,,,,,,,,,,,,,54,,,,,,,,,,,,,,247.95199994044378,,response,,,,100,,,,,,,Space,keypress(Space),,,,,,,,"-- --- ---- --- ------ ----- ------- ---- -- --- ------- --<br>------- ---------- ------ -- 1727, -- ----- -- ---- ------<br>--- ----- --- --- ------ -------- ----- --- ------ ----- --<br>----- ----- ---------- --- --- ------ ------ ---- -- ------<br>------- --- ------ ----- --- ---- ------- -- ---- --- --<br>------- ------",165191.18999992497,165190.28999994043,164925.631,164934.9949999014,164942.338,165208.967,,16,"1727,"
screen,html.Screen,2_1_1_1_17,2021-04-24T14:50:12.222Z,,,,,,,,,,,,,,,,,54,,,,,,,,,,,,,,196.39800001325784,,response,,,,100,,,,,,,Space,keypress(Space),,,,,,,,-- --- ---- --- ------ ----- ------- ---- -- --- ------- --<br>------- ---------- ------ -- ----- in ----- -- ---- ------<br>--- ----- --- --- ------ -------- ----- --- ------ ----- --<br>----- ----- ---------- --- --- ------ ------ ---- -- ------<br>------- --- ------ ----- --- ---- ------- -- ---- --- --<br>------- ------,165405.82499990705,165405.36500001326,165175.624,165191.47499999963,165208.967,165408.86,,17,in
screen,html.Screen,2_1_1_1_18,2021-04-24T14:50:13.040Z,,,,,,,,,,,,,,,,,54,,,,,,,,,,,,,,813.1799999059876,,response,,,,100,,,,,,,Space,keypress(Space),,,,,,,,-- --- ---- --- ------ ----- ------- ---- -- --- ------- --<br>------- ---------- ------ -- ----- -- order -- ---- ------<br>--- ----- --- --- ------ -------- ----- --- ------ ----- --<br>----- ----- ---------- --- --- ------ ------ ---- -- ------<br>------- --- ------ ----- --- ---- ------- -- ---- --- --<br>------- ------,166223.09999994468,166222.03999990597,165392.283,165405.9399999678,165408.86,166225.602,,18,order
screen,html.Screen,2_1_1_1_19,2021-04-24T14:50:13.439Z,,,,,,,,,,,,,,,,,54,,,,,,,,,,,,,,396.3579999021604,,response,,,,100,,,,,,,Space,keypress(Space),,,,,,,,-- --- ---- --- ------ ----- ------- ---- -- --- ------- --<br>------- ---------- ------ -- ----- -- ----- to ---- ------<br>--- ----- --- --- ------ -------- ----- --- ------ ----- --<br>----- ----- ---------- --- --- ------ ------ ---- -- ------<br>------- --- ------ ----- --- ---- ------- -- ---- --- --<br>------- ------,166623.0649999343,166621.95999990217,166208.919,166223.38499990292,166225.602,166625.601,,19,to
screen,html.Screen,2_1_1_1_20,2021-04-24T14:50:13.751Z,,,,,,,,,,,,,,,,,54,,,,,,,,,,,,,,308.31899998130393,,response,,,,100,,,,,,,Space,keypress(Space),,,,,,,,-- --- ---- --- ------ ----- ------- ---- -- --- ------- --<br>------- ---------- ------ -- ----- -- ----- -- save ------<br>--- ----- --- --- ------ -------- ----- --- ------ ----- --<br>----- ----- ---------- --- --- ------ ------ ---- -- ------<br>------- --- ------ ----- --- ---- ------- -- ---- --- --<br>------- ------,166934.8250000039,166933.9199999813,166608.908,166623.35999996867,166625.601,166942.231,,20,save
screen,html.Screen,2_1_1_1_21,2021-04-24T14:50:14.031Z,,,,,,,,,,,,,,,,,54,,,,,,,,,,,,,,271.5439999528753,,response,,,,100,,,,,,,Space,keypress(Space),,,,,,,,"-- --- ---- --- ------ ----- ------- ---- -- --- ------- --<br>------- ---------- ------ -- ----- -- ----- -- ---- money,<br>--- ----- --- --- ------ -------- ----- --- ------ ----- --<br>----- ----- ---------- --- --- ------ ------ ---- -- ------<br>------- --- ------ ----- --- ---- ------- -- ---- --- --<br>------- ------",167214.77500000037,167213.77499995288,166925.481,166935.09499996435,166942.231,167225.587,,21,"money,"
screen,html.Screen,2_1_1_1_22,2021-04-24T14:50:14.487Z,,,,,,,,,,,,,,,,,54,,,,,,,,,,,,,,444.37800000823336,,response,,,,100,,,,,,,Space,keypress(Space),,,,,,,,-- --- ---- --- ------ ----- ------- ---- -- --- ------- --<br>------- ---------- ------ -- ----- -- ----- -- ---- ------<br>the ----- --- --- ------ -------- ----- --- ------ ----- --<br>----- ----- ---------- --- --- ------ ------ ---- -- ------<br>------- --- ------ ----- --- ---- ------- -- ---- --- --<br>------- ------,167670.92499998398,167669.96500000823,167208.936,167215.0599999586,167225.587,167675.563,,22,the
screen,html.Screen,2_1_1_1_23,2021-04-24T14:50:14.807Z,,,,,,,,,,,,,,,,,54,,,,,,,,,,,,,,314.43699999069213,,response,,,,100,,,,,,,Space,keypress(Space),,,,,,,,-- --- ---- --- ------ ----- ------- ---- -- --- ------- --<br>------- ---------- ------ -- ----- -- ----- -- ---- ------<br>--- state --- --- ------ -------- ----- --- ------ ----- --<br>----- ----- ---------- --- --- ------ ------ ---- -- ------<br>------- --- ------ ----- --- ---- ------- -- ---- --- --<br>------- ------,167991.02499999572,167989.9999999907,167658.875,167671.20499990415,167675.563,168008.882,,23,state
screen,html.Screen,2_1_1_1_24,2021-04-24T14:50:14.999Z,,,,,,,,,,,,,,,,,54,,,,,,,,,,,,,,172.887999908271,,response,,,,100,,,,,,,Space,keypress(Space),,,,,,,,-- --- ---- --- ------ ----- ------- ---- -- --- ------- --<br>------- ---------- ------ -- ----- -- ----- -- ---- ------<br>--- ----- cut --- ------ -------- ----- --- ------ ----- --<br>----- ----- ---------- --- --- ------ ------ ---- -- ------<br>------- --- ------ ----- --- ---- ------- -- ---- --- --<br>------- ------,168182.8749999404,168181.76999990828,167975.529,167991.31999991369,168008.882,168192.222,,24,cut
screen,html.Screen,2_1_1_1_25,2021-04-24T14:50:15.263Z,,,,,,,,,,,,,,,,,54,,,,,,,,,,,,,,253.58299990842352,,response,,,,100,,,,,,,Space,keypress(Space),,,,,,,,-- --- ---- --- ------ ----- ------- ---- -- --- ------- --<br>------- ---------- ------ -- ----- -- ----- -- ---- ------<br>--- ----- --- the ------ -------- ----- --- ------ ----- --<br>----- ----- ---------- --- --- ------ ------ ---- -- ------<br>------- --- ------ ----- --- ---- ------- -- ---- --- --<br>------- ------,168446.67999993544,168445.80499990843,168175.525,168183.16999997478,168192.222,168458.884,,25,the
screen,html.Screen,2_1_1_1_26,2021-04-24T14:50:15.487Z,,,,,,,,,,,,,,,,,54,,,,,,,,,,,,,,210.93099991380586,,response,,,,100,,,,,,,Space,keypress(Space),,,,,,,,-- --- ---- --- ------ ----- ------- ---- -- --- ------- --<br>------- ---------- ------ -- ----- -- ----- -- ---- ------<br>--- ----- --- --- bonds' -------- ----- --- ------ ----- --<br>----- ----- ---------- --- --- ------ ------ ---- -- ------<br>------- --- ------ ----- --- ---- ------- -- ---- --- --<br>------- ------,168670.83999991883,168669.8149999138,168442.181,168446.9650000101,168458.884,168675.513,,26,bonds'
screen,html.Screen,2_1_1_1_27,2021-04-24T14:50:15.735Z,,,,,,,,,,,,,,,,,54,,,,,,,,,,,,,,242.48199990883586,,response,,,,100,,,,,,,Space,keypress(Space),,,,,,,,-- --- ---- --- ------ ----- ------- ---- -- --- ------- --<br>------- ---------- ------ -- ----- -- ----- -- ---- ------<br>--- ----- --- --- ------ interest ----- --- ------ ----- --<br>----- ----- ---------- --- --- ------ ------ ---- -- ------<br>------- --- ------ ----- --- ---- ------- -- ---- --- --<br>------- ------,168918.99499995634,168917.99499990884,168658.838,168671.1199999554,168675.513,168925.519,,27,interest
screen,html.Screen,2_1_1_1_28,2021-04-24T14:50:15.967Z,,,,,,,,,,,,,,,,,54,,,,,,,,,,,,,,224.2109999464301,,response,,,,100,,,,,,,Space,keypress(Space),,,,,,,,-- --- ---- --- ------ ----- ------- ---- -- --- ------- --<br>------- ---------- ------ -- ----- -- ----- -- ---- ------<br>--- ----- --- --- ------ -------- rate. --- ------ ----- --<br>----- ----- ---------- --- --- ------ ------ ---- -- ------<br>------- --- ------ ----- --- ---- ------- -- ---- --- --<br>------- ------,169150.64499992877,169149.72999994643,168908.832,168919.26999995485,168925.519,169158.832,,28,rate.
screen,html.Screen,2_1_1_1_29,2021-04-24T14:50:16.247Z,,,,,,,,,,,,,,,,,54,,,,,,,,,,,,,,271.0879999077297,,response,,,,100,,,,,,,Space,keypress(Space),,,,,,,,-- --- ---- --- ------ ----- ------- ---- -- --- ------- --<br>------- ---------- ------ -- ----- -- ----- -- ---- ------<br>--- ----- --- --- ------ -------- ----- The ------ ----- --<br>----- ----- ---------- --- --- ------ ------ ---- -- ------<br>------- --- ------ ----- --- ---- ------- -- ---- --- --<br>------- ------,169430.79000001308,169429.91999990772,169142.16,169150.92499996535,169158.832,169442.182,,29,The
screen,html.Screen,2_1_1_1_30,2021-04-24T14:50:16.519Z,,,,,,,,,,,,,,,,,54,,,,,,,,,,,,,,259.78300001475145,,response,,,,100,,,,,,,Space,keypress(Space),,,,,,,,-- --- ---- --- ------ ----- ------- ---- -- --- ------- --<br>------- ---------- ------ -- ----- -- ----- -- ---- ------<br>--- ----- --- --- ------ -------- ----- --- market ----- --<br>----- ----- ---------- --- --- ------ ------ ---- -- ------<br>------- --- ------ ----- --- ---- ------- -- ---- --- --<br>------- ------,169702.9399999883,169701.96500001475,169425.483,169431.06999993324,169442.182,169708.829,,30,market
screen,html.Screen,2_1_1_1_31,2021-04-24T14:50:16.815Z,,,,,,,,,,,,,,,,,54,,,,,,,,,,,,,,289.1809999811521,,response,,,,100,,,,,,,Space,keypress(Space),,,,,,,,-- --- ---- --- ------ ----- ------- ---- -- --- ------- --<br>------- ---------- ------ -- ----- -- ----- -- ---- ------<br>--- ----- --- --- ------ -------- ----- --- ------ value --<br>----- ----- ---------- --- --- ------ ------ ---- -- ------<br>------- --- ------ ----- --- ---- ------- -- ---- --- --<br>------- ------,169998.93000000156,169998.00999998115,169692.139,169703.2299999846,169708.829,170008.813,,31,value
screen,html.Screen,2_1_1_1_32,2021-04-24T14:50:17.127Z,,,,,,,,,,,,,,,,,54,,,,,,,,,,,,,,300.9219999006891,,response,,,,100,,,,,,,Space,keypress(Space),,,,,,,,-- --- ---- --- ------ ----- ------- ---- -- --- ------- --<br>------- ---------- ------ -- ----- -- ----- -- ---- ------<br>--- ----- --- --- ------ -------- ----- --- ------ ----- of<br>----- ----- ---------- --- --- ------ ------ ---- -- ------<br>------- --- ------ ----- --- ---- ------- -- ---- --- --<br>------- ------,170310.6549999211,170309.73499990068,169992.129,169999.22499991953,170008.813,170325.481,,32,of
screen,html.Screen,2_1_1_1_33,2021-04-24T14:50:17.359Z,,,,,,,,,,,,,,,,,54,,,,,,,,,,,,,,216.24899993897998,,response,,,,100,,,,,,,Space,keypress(Space),,,,,,,,-- --- ---- --- ------ ----- ------- ---- -- --- ------- --<br>------- ---------- ------ -- ----- -- ----- -- ---- ------<br>--- ----- --- --- ------ -------- ----- --- ------ ----- --<br>these ----- ---------- --- --- ------ ------ ---- -- ------<br>------- --- ------ ----- --- ---- ------- -- ---- --- --<br>------- ------,170542.62500000186,170541.72999993898,170308.786,170310.95499999356,170325.481,170558.812,,33,these
screen,html.Screen,2_1_1_1_34,2021-04-24T14:50:17.575Z,,,,,,,,,,,,,,,,,54,,,,,,,,,,,,,,198.98299998315633,,response,,,,100,,,,,,,Space,keypress(Space),,,,,,,,-- --- ---- --- ------ ----- ------- ---- -- --- ------- --<br>------- ---------- ------ -- ----- -- ----- -- ---- ------<br>--- ----- --- --- ------ -------- ----- --- ------ ----- --<br>----- bonds ---------- --- --- ------ ------ ---- -- ------<br>------- --- ------ ----- --- ---- ------- -- ---- --- --<br>------- ------,170758.73499992304,170757.79499998316,170542.111,170542.9099999601,170558.812,170775.468,,34,bonds
screen,html.Screen,2_1_1_1_35,2021-04-24T14:50:17.760Z,,,,,,,,,,,,,,,,,54,,,,,,,,,,,,,,166.8119999592891,,response,,,,100,,,,,,,Space,keypress(Space),,,,,,,,"-- --- ---- --- ------ ----- ------- ---- -- --- ------- --<br>------- ---------- ------ -- ----- -- ----- -- ---- ------<br>--- ----- --- --- ------ -------- ----- --- ------ ----- --<br>----- ----- plummeted, --- --- ------ ------ ---- -- ------<br>------- --- ------ ----- --- ---- ------- -- ---- --- --<br>------- ------",170943.21999989916,170942.27999995928,170758.769,170759.02999995742,170775.468,170958.796,,35,"plummeted,"
screen,html.Screen,2_1_1_1_36,2021-04-24T14:50:17.959Z,,,,,,,,,,,,,,,,,54,,,,,,,,,,,,,,182.9939999069029,,response,,,,100,,,,,,,Space,keypress(Space),,,,,,,,-- --- ---- --- ------ ----- ------- ---- -- --- ------- --<br>------- ---------- ------ -- ----- -- ----- -- ---- ------<br>--- ----- --- --- ------ -------- ----- --- ------ ----- --<br>----- ----- ---------- and --- ------ ------ ---- -- ------<br>------- --- ------ ----- --- ---- ------- -- ---- --- --<br>------- ------,171142.6649999339,171141.7899999069,170942.101,170943.49999993574,170958.796,171158.793,,36,and
screen,html.Screen,2_1_1_1_37,2021-04-24T14:50:18.175Z,,,,,,,,,,,,,,,,,54,,,,,,,,,,,,,,198.96699992619688,,response,,,,100,,,,,,,Space,keypress(Space),,,,,,,,-- --- ---- --- ------ ----- ------- ---- -- --- ------- --<br>------- ---------- ------ -- ----- -- ----- -- ---- ------<br>--- ----- --- --- ------ -------- ----- --- ------ ----- --<br>----- ----- ---------- --- the ------ ------ ---- -- ------<br>------- --- ------ ----- --- ---- ------- -- ---- --- --<br>------- ------,171358.67999994662,171357.7599999262,171142.089,171142.93999993242,171158.793,171375.448,,37,the
screen,html.Screen,2_1_1_1_38,2021-04-24T14:50:18.383Z,,,,,,,,,,,,,,,,,54,,,,,,,,,,,,,,190.32699990816764,,response,,,,100,,,,,,,Space,keypress(Space),,,,,,,,-- --- ---- --- ------ ----- ------- ---- -- --- ------- --<br>------- ---------- ------ -- ----- -- ----- -- ---- ------<br>--- ----- --- --- ------ -------- ----- --- ------ ----- --<br>----- ----- ---------- --- --- market ------ ---- -- ------<br>------- --- ------ ----- --- ---- ------- -- ---- --- --<br>------- ------,171566.63499993738,171565.77499990817,171358.738,171358.9599999832,171375.448,171575.442,,38,market
screen,html.Screen,2_1_1_1_39,2021-04-24T14:50:18.599Z,,,,,,,,,,,,,,,,,54,,,,,,,,,,,,,,206.50299993695808,,response,,,,100,,,,,,,Space,keypress(Space),,,,,,,,-- --- ---- --- ------ ----- ------- ---- -- --- ------- --<br>------- ---------- ------ -- ----- -- ----- -- ---- ------<br>--- ----- --- --- ------ -------- ----- --- ------ ----- --<br>----- ----- ---------- --- --- ------ became ---- -- ------<br>------- --- ------ ----- --- ---- ------- -- ---- --- --<br>------- ------,171782.95999998227,171781.94499993697,171558.745,171566.91499997396,171575.442,171792.111,,39,became
screen,html.Screen,2_1_1_1_40,2021-04-24T14:50:19.079Z,,,,,,,,,,,,,,,,,54,,,,,,,,,,,,,,469.8239999586076,,response,,,,100,,,,,,,Space,keypress(Space),,,,,,,,-- --- ---- --- ------ ----- ------- ---- -- --- ------- --<br>------- ---------- ------ -- ----- -- ----- -- ---- ------<br>--- ----- --- --- ------ -------- ----- --- ------ ----- --<br>----- ----- ---------- --- --- ------ ------ wary -- ------<br>------- --- ------ ----- --- ---- ------- -- ---- --- --<br>------- ------,172262.8750000149,172261.9349999586,171775.411,171783.25499990024,171792.111,172275.425,,40,wary
screen,html.Screen,2_1_1_1_41,2021-04-24T14:50:19.327Z,,,,,,,,,,,,,,,,,54,,,,,,,,,,,,,,234.30499993247213,,response,,,,100,,,,,,,Space,keypress(Space),,,,,,,,-- --- ---- --- ------ ----- ------- ---- -- --- ------- --<br>------- ---------- ------ -- ----- -- ----- -- ---- ------<br>--- ----- --- --- ------ -------- ----- --- ------ ----- --<br>----- ----- ---------- --- --- ------ ------ ---- of ------<br>------- --- ------ ----- --- ---- ------- -- ---- --- --<br>------- ------,172510.69499994628,172509.72999993246,172258.72,172263.1650000112,172275.425,172525.41,,41,of
screen,html.Screen,2_1_1_1_42,2021-04-24T14:50:19.607Z,,,,,,,,,,,,,,,,,54,,,,,,,,,,,,,,264.5049999720941,,response,,,,100,,,,,,,Space,keypress(Space),,,,,,,,-- --- ---- --- ------ ----- ------- ---- -- --- ------- --<br>------- ---------- ------ -- ----- -- ----- -- ---- ------<br>--- ----- --- --- ------ -------- ----- --- ------ ----- --<br>----- ----- ---------- --- --- ------ ------ ---- -- French<br>------- --- ------ ----- --- ---- ------- -- ---- --- --<br>------- ------,172790.98499997053,172789.9149999721,172508.714,172510.99499990232,172525.41,172808.727,,42,French
screen,html.Screen,2_1_1_1_43,2021-04-24T14:50:19.903Z,,,,,,,,,,,,,,,,,54,,,,,,,,,,,,,,277.2179999406799,,response,,,,100,,,,,,,Space,keypress(Space),,,,,,,,-- --- ---- --- ------ ----- ------- ---- -- --- ------- --<br>------- ---------- ------ -- ----- -- ----- -- ---- ------<br>--- ----- --- --- ------ -------- ----- --- ------ ----- --<br>----- ----- ---------- --- --- ------ ------ ---- -- ------<br>credit. --- ------ ----- --- ---- ------- -- ---- --- --<br>------- ------,173086.8949999567,173085.9449999407,172775.37,172791.26999992877,172808.727,173092.06,,43,credit.
screen,html.Screen,2_1_1_1_44,2021-04-24T14:50:20.311Z,,,,,,,,,,,,,,,,,54,,,,,,,,,,,,,,401.66999998741085,,response,,,,100,,,,,,,Space,keypress(Space),,,,,,,,-- --- ---- --- ------ ----- ------- ---- -- --- ------- --<br>------- ---------- ------ -- ----- -- ----- -- ---- ------<br>--- ----- --- --- ------ -------- ----- --- ------ ----- --<br>----- ----- ---------- --- --- ------ ------ ---- -- ------<br>------- The ------ ----- --- ---- ------- -- ---- --- --<br>------- ------,173494.63500001002,173493.7299999874,173075.363,173087.17999991495,173092.06,173508.711,,44,The
screen,html.Screen,2_1_1_1_45,2021-04-24T14:50:20.614Z,,,,,,,,,,,,,,,,,54,,,,,,,,,,,,,,288.63399996992666,,response,,,,100,,,,,,,Space,keypress(Space),,,,,,,,-- --- ---- --- ------ ----- ------- ---- -- --- ------- --<br>------- ---------- ------ -- ----- -- ----- -- ---- ------<br>--- ----- --- --- ------ -------- ----- --- ------ ----- --<br>----- ----- ---------- --- --- ------ ------ ---- -- ------<br>------- --- French ----- --- ---- ------- -- ---- --- --<br>------- ------,173797.78499994427,173797.34499996994,173492.013,173494.91999996826,173508.711,173808.611,,45,French
screen,html.Screen,2_1_1_1_46,2021-04-24T14:50:20.831Z,,,,,,,,,,,,,,,,,54,,,,,,,,,,,,,,205.33899993498926,,response,,,,100,,,,,,,Space,keypress(Space),,,,,,,,-- --- ---- --- ------ ----- ------- ---- -- --- ------- --<br>------- ---------- ------ -- ----- -- ----- -- ---- ------<br>--- ----- --- --- ------ -------- ----- --- ------ ----- --<br>----- ----- ---------- --- --- ------ ------ ---- -- ------<br>------- --- ------ state --- ---- ------- -- ---- --- --<br>------- ------,174014.9649999803,174013.949999935,173792.004,173797.9049999267,173808.611,174025.362,,46,state
screen,html.Screen,2_1_1_1_47,2021-04-24T14:50:21.127Z,,,,,,,,,,,,,,,,,54,,,,,,,,,,,,,,284.5529999907303,,response,,,,100,,,,,,,Space,keypress(Space),,,,,,,,-- --- ---- --- ------ ----- ------- ---- -- --- ------- --<br>------- ---------- ------ -- ----- -- ----- -- ---- ------<br>--- ----- --- --- ------ -------- ----- --- ------ ----- --<br>----- ----- ---------- --- --- ------ ------ ---- -- ------<br>------- --- ------ ----- was ---- ------- -- ---- --- --<br>------- ------,174310.92499999795,174309.91499999072,174008.664,174015.24999993853,174025.362,174325.359,,47,was
screen,html.Screen,2_1_1_1_48,2021-04-24T14:50:21.399Z,,,,,,,,,,,,,,,,,54,,,,,,,,,,,,,,256.4309999674442,,response,,,,100,,,,,,,Space,keypress(Space),,,,,,,,-- --- ---- --- ------ ----- ------- ---- -- --- ------- --<br>------- ---------- ------ -- ----- -- ----- -- ---- ------<br>--- ----- --- --- ------ -------- ----- --- ------ ----- --<br>----- ----- ---------- --- --- ------ ------ ---- -- ------<br>------- --- ------ ----- --- left ------- -- ---- --- --<br>------- ------,174582.64999999665,174581.78999996744,174308.652,174311.2099999562,174325.359,174592.014,,48,left
screen,html.Screen,2_1_1_1_49,2021-04-24T14:50:21.615Z,,,,,,,,,,,,,,,,,54,,,,,,,,,,,,,,205.7459999867424,,response,,,,100,,,,,,,Space,keypress(Space),,,,,,,,-- --- ---- --- ------ ----- ------- ---- -- --- ------- --<br>------- ---------- ------ -- ----- -- ----- -- ---- ------<br>--- ----- --- --- ------ -------- ----- --- ------ ----- --<br>----- ----- ---------- --- --- ------ ------ ---- -- ------<br>------- --- ------ ----- --- ---- without -- ---- --- --<br>------- ------,174798.79999998957,174797.75999998674,174575.313,174582.92499999516,174592.014,174808.658,,49,without
screen,html.Screen,2_1_1_1_50,2021-04-24T14:50:21.895Z,,,,,,,,,,,,,,,,,54,,,,,,,,,,,,,,269.2519999927026,,response,,,,100,,,,,,,Space,keypress(Space),,,,,,,,-- --- ---- --- ------ ----- ------- ---- -- --- ------- --<br>------- ---------- ------ -- ----- -- ----- -- ---- ------<br>--- ----- --- --- ------ -------- ----- --- ------ ----- --<br>----- ----- ---------- --- --- ------ ------ ---- -- ------<br>------- --- ------ ----- --- ---- ------- an ---- --- --<br>------- ------,175078.84500001092,175077.9099999927,174791.972,174799.08999998588,174808.658,175092.012,,50,an
screen,html.Screen,2_1_1_1_51,2021-04-24T14:50:22.167Z,,,,,,,,,,,,,,,,,54,,,,,,,,,,,,,,257.9429999833228,,response,,,,100,,,,,,,Space,keypress(Space),,,,,,,,-- --- ---- --- ------ ----- ------- ---- -- --- ------- --<br>------- ---------- ------ -- ----- -- ----- -- ---- ------<br>--- ----- --- --- ------ -------- ----- --- ------ ----- --<br>----- ----- ---------- --- --- ------ ------ ---- -- ------<br>------- --- ------ ----- --- ---- ------- -- easy --- --<br>------- ------,175351.0149999056,175349.9549999833,175075.2,175079.15000000503,175092.012,175358.649,,51,easy
screen,html.Screen,2_1_1_1_52,2021-04-24T14:50:22.415Z,,,,,,,,,,,,,,,,,54,,,,,,,,,,,,,,239.38099999373662,,response,,,,100,,,,,,,Space,keypress(Space),,,,,,,,-- --- ---- --- ------ ----- ------- ---- -- --- ------- --<br>------- ---------- ------ -- ----- -- ----- -- ---- ------<br>--- ----- --- --- ------ -------- ----- --- ------ ----- --<br>----- ----- ---------- --- --- ------ ------ ---- -- ------<br>------- --- ------ ----- --- ---- ------- -- ---- way --<br>------- ------,175599.0349999629,175598.02999999374,175341.953,175351.3049999019,175358.649,175608.644,,52,way
screen,html.Screen,2_1_1_1_53,2021-04-24T14:50:22.734Z,,,,,,,,,,,,,,,,,54,,,,,,,,,,,,,,308.69100000555045,,response,,,,100,,,,,,,Space,keypress(Space),,,,,,,,-- --- ---- --- ------ ----- ------- ---- -- --- ------- --<br>------- ---------- ------ -- ----- -- ----- -- ---- ------<br>--- ----- --- --- ------ -------- ----- --- ------ ----- --<br>----- ----- ---------- --- --- ------ ------ ---- -- ------<br>------- --- ------ ----- --- ---- ------- -- ---- --- of<br>------- ------,175917.79499989934,175917.33500000555,175591.945,175599.31999992114,175608.644,175925.197,,53,of
screen,html.Screen,2_1_1_1_54,2021-04-24T14:50:23.007Z,,,,,,,,,,,,,,,,,54,,,,,,,,,,,,,,264.54799998149974,,response,,,,100,,,,,,,Space,keypress(Space),,,,,,,,-- --- ---- --- ------ ----- ------- ---- -- --- ------- --<br>------- ---------- ------ -- ----- -- ----- -- ---- ------<br>--- ----- --- --- ------ -------- ----- --- ------ ----- --<br>----- ----- ---------- --- --- ------ ------ ---- -- ------<br>------- --- ------ ----- --- ---- ------- -- ---- --- --<br>raising ------,176190.62499993015,176189.74499998149,175908.6,175917.91499999817,175925.197,176214.18,,54,raising
screen,html.Screen,2_1_1_1_55,2021-04-24T14:50:23.495Z,,,,,,,,,,,,,,,,,54,,,,,,,,,,,,,,463.765000003099,,response,,,,100,,,,,,,Space,keypress(Space),,,,,,,,-- --- ---- --- ------ ----- ------- ---- -- --- ------- --<br>------- ---------- ------ -- ----- -- ----- -- ---- ------<br>--- ----- --- --- ------ -------- ----- --- ------ ----- --<br>----- ----- ---------- --- --- ------ ------ ---- -- ------<br>------- --- ------ ----- --- ---- ------- -- ---- --- --<br>------- money.,176679.0799999144,176677.9450000031,176175.26,176190.9100000048,176214.18,176691.949,,55,money.
Item 100,flow.Loop,2_1_1_1,2021-04-24T14:50:23.496Z,,,,,,,,,,,,,,,,,,,,,,,,,,,,,,,16752.1290000031,,completion,,,,,C,,,,,,,,,,,silence,,,,,176679.57499995828,176677.9450000031,159909.134,159910.21499992348,159925.816,176691.949,,,
Question 1,html.Screen,2_1_1_2,2021-04-24T14:50:31.334Z,,,,,,,,,,,,,,,,,,,,,,,,,,,,true,TRUE,,7825.215999968379,,response,,,,100,C,,,,,,TRUE,click #choice-1,,,,silence,,,,,184517.49499992002,184517.16499996837,176675.244,176679.7999999253,176691.949,184524.883,,,
Question 2,html.Screen,2_1_1_3,2021-04-24T14:50:34.190Z,,,,,,,,,,,,,,,,,,,,,,,,,,,,true,FALSE,,2848.276999959169,,response,,,,100,C,,,,,,FALSE,click #choice-2,,,,silence,,,,,187373.48499998916,187373.15999995917,184508.317,184517.5749999471,184524.883,187374.773,,,
Item 100,flow.Sequence,2_1_1,2021-04-24T14:50:34.190Z,,,,,,,,,,,,,,,,,,,,,,,,,,,,,,,37447.13099995916,,completion,,,,,,,,,,,,,,,,,,,,,187373.58999997377,187373.15999995917,149892.801,149909.73499999382,149926.029,187374.773,,,
End of Practice,html.Page,2_1_2,2021-04-24T14:50:37.846Z,,,,,,,,,,,,,,,,,,,,,,,,,,,,,,,3654.79700001335,,form submission,,,,,,,,,,,,,,,,,,,,,191029.724999913,191029.57000001334,187358.222,187373.64000000525,187374.773,191041.346,,,
Practice,flow.Sequence,2_1,2021-04-24T14:50:37.846Z,,,,,,,,,,,,,,,,,,,,,,,,,,,,,,,79305.05300001333,,completion,,,,,,,,,,,,,,,,,,,,,191029.8349999357,191029.57000001334,111677.358,111693.90499999281,111724.517,191041.346,,,
Trap_instruction,html.Page,2_2_0,2021-04-24T14:50:42.142Z,,,,,,,,,,,,,,,,,,,,,,,,,,,,,,,4284.173999954859,,form submission,,,,,,,,,,,,,,,,,,,,,195325.66999993287,195325.51999995485,191024.755,191029.90500000305,191041.346,195341.166,,,
trap_trial,html.Screen,2_2_1,2021-04-24T14:50:45.478Z,,,,,,,,,,,,,,,,,,,,,,,,,,,,true,1,,3319.9939999014314,,response,,,,,,,,,,,1,click #choice-1,,,,,,,,,198661.49999992922,198661.15999990143,195324.625,195325.73499996215,195341.166,198674.426,,,
end of trap trial,html.Page,2_2_2,2021-04-24T14:50:46.918Z,,,,,,,,,,,,,,,,,,,,,,,,,,,,,,,1427.1289999428845,,form submission,,,,,,,,,,,,,,,,,,,,,200101.7049999209,200101.5549999429,198657.855,198661.57499991823,198674.426,200107.697,,,
Trap 1,flow.Sequence,2_2,2021-04-24T14:50:46.918Z,,,,,,,,,,,,,,,,,,,,,,,,,,,,,,,9060.2089999429,,completion,,,,,,,,,,,,,,,,,,,,,200101.80499998387,200101.5549999429,191024.755,191029.88499996718,191041.346,200107.697,,,
Standby,html.Page,2_3_0,2021-04-24T14:50:54.908Z,,,,,,,,,,,,,,,,,,,,,,,,,,,,,,,7999.857000000018,,timeout,,,,,,,,,,,,,,,,,,,,,208091.8749999255,208090.874,200091.051,200101.87999997288,200107.697,208107.554,,,
Holding screen,html.Screen,2_3_1_0_0,2021-04-24T14:51:01.908Z,,,,,,,,,,,,,,,,,,,,,,,,,,,,,,,6999.758999999991,,timeout,,,,,,,,,,,,,,,,,,,,,215091.48499998264,215090.64,208090.874,208092.42000000086,208107.554,215107.313,,,
screen,html.Screen,2_3_1_0_1_0,2021-04-24T14:51:02.568Z,,,,,,,,,,,,,,,,,2,,,,,,,,,,,,,,643.1019999003911,,response,,,,1,C,,,,,,Space,keypress(Space),,,,instrumental,,,,Two ---- ------ --- ------- ---------- ------- ----------<br>--- --------- --- ----------- ------- ----- ------- ---<br>--------- ---- -- --- ---- -- --------- -- ---- -------<br>-- --------- ------ --- ----- ------ ---- --- --------- --<br>------ - ---- -- --- ----------- ------- ---- ----- -----<br>--- -------- - ------ ---- -- ----- ---- --- --- -----------<br>-- -------,215751.79999996908,215750.4149999004,215090.64,215091.87999996357,215107.313,215757.275,,0,Two
screen,html.Screen,2_3_1_0_1_1,2021-04-24T14:51:02.919Z,,,,,,,,,,,,,,,,,2,,,,,,,,,,,,,,344.7449999911769,,response,,,,1,C,,,,,,Space,keypress(Space),,,,instrumental,,,,--- days ------ --- ------- ---------- ------- ----------<br>--- --------- --- ----------- ------- ----- ------- ---<br>--------- ---- -- --- ---- -- --------- -- ---- -------<br>-- --------- ------ --- ----- ------ ---- --- --------- --<br>------ - ---- -- --- ----------- ------- ---- ----- -----<br>--- -------- - ------ ---- -- ----- ---- --- --- -----------<br>-- -------,216103.04999991786,216102.01999999117,215740.613,215752.12999992073,215757.275,216107.283,,1,days
screen,html.Screen,2_3_1_0_1_2,2021-04-24T14:51:03.216Z,,,,,,,,,,,,,,,,,2,,,,,,,,,,,,,,290.7869999956456,,response,,,,1,C,,,,,,Space,keypress(Space),,,,instrumental,,,,"--- ---- later, --- ------- ---------- ------- ----------<br>--- --------- --- ----------- ------- ----- ------- ---<br>--------- ---- -- --- ---- -- --------- -- ---- -------<br>-- --------- ------ --- ----- ------ ---- --- --------- --<br>------ - ---- -- --- ----------- ------- ---- ----- -----<br>--- -------- - ------ ---- -- ----- ---- --- --- -----------<br>-- -------",216399.12999991793,216398.06999999564,216090.523,216103.36999990977,216107.283,216407.349,,2,"later,"
screen,html.Screen,2_3_1_0_1_3,2021-04-24T14:51:03.488Z,,,,,,,,,,,,,,,,,2,,,,,,,,,,,,,,262.63100000604754,,response,,,,1,C,,,,,,Space,keypress(Space),,,,instrumental,,,,--- ---- ------ the ------- ---------- ------- ----------<br>--- --------- --- ----------- ------- ----- ------- ---<br>--------- ---- -- --- ---- -- --------- -- ---- -------<br>-- --------- ------ --- ----- ------ ---- --- --------- --<br>------ - ---- -- --- ----------- ------- ---- ----- -----<br>--- -------- - ------ ---- -- ----- ---- --- --- -----------<br>-- -------,216671.08499992173,216669.98000000603,216390.627,216399.40499991644,216407.349,216673.92,,3,the
screen,html.Screen,2_3_1_0_1_4,2021-04-24T14:51:03.807Z,,,,,,,,,,,,,,,,,2,,,,,,,,,,,,,,316.03499999726773,,response,,,,1,C,,,,,,Space,keypress(Space),,,,instrumental,,,,--- ---- ------ --- British ---------- ------- ----------<br>--- --------- --- ----------- ------- ----- ------- ---<br>--------- ---- -- --- ---- -- --------- -- ---- -------<br>-- --------- ------ --- ----- ------ ---- --- --------- --<br>------ - ---- -- --- ----------- ------- ---- ----- -----<br>--- -------- - ------ ---- -- ----- ---- --- --- -----------<br>-- -------,216990.9350000089,216989.95499999728,216657.252,216671.3699999964,216673.92,217007.275,,4,British
screen,html.Screen,2_3_1_0_1_5,2021-04-24T14:51:04.119Z,,,,,,,,,,,,,,,,,2,,,,,,,,,,,,,,294.6549999577983,,response,,,,1,C,,,,,,Space,keypress(Space),,,,instrumental,,,,--- ---- ------ --- ------- astronomer ------- ----------<br>--- --------- --- ----------- ------- ----- ------- ---<br>--------- ---- -- --- ---- -- --------- -- ---- -------<br>-- --------- ------ --- ----- ------ ---- --- --------- --<br>------ - ---- -- --- ----------- ------- ---- ----- -----<br>--- -------- - ------ ---- -- ----- ---- --- --- -----------<br>-- -------,217302.87499993574,217301.9299999578,216990.594,216991.20499996934,217007.275,217307.263,,5,astronomer
screen,html.Screen,2_3_1_0_1_6,2021-04-24T14:51:04.439Z,,,,,,,,,,,,,,,,,2,,,,,,,,,,,,,,314.6569999468338,,response,,,,1,C,,,,,,Space,keypress(Space),,,,instrumental,,,,--- ---- ------ --- ------- ---------- Richard ----------<br>--- --------- --- ----------- ------- ----- ------- ---<br>--------- ---- -- --- ---- -- --------- -- ---- -------<br>-- --------- ------ --- ----- ------ ---- --- --------- --<br>------ - ---- -- --- ----------- ------- ---- ----- -----<br>--- -------- - ------ ---- -- ----- ---- --- --- -----------<br>-- -------,217622.87500000093,217621.91999994684,217290.563,217303.14999993425,217307.263,217657.25,,6,Richard
screen,html.Screen,2_3_1_0_1_7,2021-04-24T14:51:04.807Z,,,,,,,,,,,,,,,,,2,,,,,,,,,,,,,,332.6699999636039,,response,,,,1,C,,,,,,Space,keypress(Space),,,,instrumental,,,,--- ---- ------ --- ------- ---------- ------- Carrington<br>--- --------- --- ----------- ------- ----- ------- ---<br>--------- ---- -- --- ---- -- --------- -- ---- -------<br>-- --------- ------ --- ----- ------ ---- --- --------- --<br>------ - ---- -- --- ----------- ------- ---- ----- -----<br>--- -------- - ------ ---- -- ----- ---- --- --- -----------<br>-- -------,217990.90999993496,217989.9199999636,217640.571,217623.16499999724,217657.25,218007.244,,7,Carrington
screen,html.Screen,2_3_1_0_1_8,2021-04-24T14:51:05.199Z,,,,,,,,,,,,,,,,,2,,,,,,,,,,,,,,374.7509999451577,,response,,,,1,C,,,,,,Space,keypress(Space),,,,instrumental,,,,--- ---- ------ --- ------- ---------- ------- ----------<br>was --------- --- ----------- ------- ----- ------- ---<br>--------- ---- -- --- ---- -- --------- -- ---- -------<br>-- --------- ------ --- ----- ------ ---- --- --------- --<br>------ - ---- -- --- ----------- ------- ---- ----- -----<br>--- -------- - ------ ---- -- ----- ---- --- --- -----------<br>-- -------,218382.9699999187,218381.99499994516,217990.553,217991.19999993127,218007.244,218390.548,,8,was
screen,html.Screen,2_3_1_0_1_9,2021-04-24T14:51:05.511Z,,,,,,,,,,,,,,,,,2,,,,,,,,,,,,,,303.2319999723113,,response,,,,1,C,,,,,,Space,keypress(Space),,,,instrumental,,,,--- ---- ------ --- ------- ---------- ------- ----------<br>--- observing --- ----------- ------- ----- ------- ---<br>--------- ---- -- --- ---- -- --------- -- ---- -------<br>-- --------- ------ --- ----- ------ ---- --- --------- --<br>------ - ---- -- --- ----------- ------- ---- ----- -----<br>--- -------- - ------ ---- -- ----- ---- --- --- -----------<br>-- -------,218694.75499994587,218693.77999997232,218373.874,218383.25999991503,218390.548,218707.22,,9,observing
screen,html.Screen,2_3_1_0_1_10,2021-04-24T14:51:05.840Z,,,,,,,,,,,,,,,,,2,,,,,,,,,,,,,,314.7649999994028,,response,,,,1,C,,,,,,Space,keypress(Space),,,,instrumental,,,,--- ---- ------ --- ------- ---------- ------- ----------<br>--- --------- the ----------- ------- ----- ------- ---<br>--------- ---- -- --- ---- -- --------- -- ---- -------<br>-- --------- ------ --- ----- ------ ---- --- --------- --<br>------ - ---- -- --- ----------- ------- ---- ----- -----<br>--- -------- - ------ ---- -- ----- ---- --- --- -----------<br>-- -------,219023.11499998905,219021.9849999994,218690.516,218695.03499998245,218707.22,219040.542,,10,the
screen,html.Screen,2_3_1_0_1_11,2021-04-24T14:51:06.103Z,,,,,,,,,,,,,,,,,2,,,,,,,,,,,,,,245.37300001495169,,response,,,,1,C,,,,,,Space,keypress(Space),,,,instrumental,,,,--- ---- ------ --- ------- ---------- ------- ----------<br>--- --------- --- interesting ------- ----- ------- ---<br>--------- ---- -- --- ---- -- --------- -- ---- -------<br>-- --------- ------ --- ----- ------ ---- --- --------- --<br>------ - ---- -- --- ----------- ------- ---- ----- -----<br>--- -------- - ------ ---- -- ----- ---- --- --- -----------<br>-- -------,219286.8699999526,219285.91500001494,219023.84,219023.40499998536,219040.542,219290.495,,11,interesting
screen,html.Screen,2_3_1_0_1_12,2021-04-24T14:51:06.479Z,,,,,,,,,,,,,,,,,2,,,,,,,,,,,,,,371.4799999372335,,response,,,,1,C,,,,,,Space,keypress(Space),,,,instrumental,,,,--- ---- ------ --- ------- ---------- ------- ----------<br>--- --------- --- ----------- sunspot ----- ------- ---<br>--------- ---- -- --- ---- -- --------- -- ---- -------<br>-- --------- ------ --- ----- ------ ---- --- --------- --<br>------ - ---- -- --- ----------- ------- ---- ----- -----<br>--- -------- - ------ ---- -- ----- ---- --- --- -----------<br>-- -------,219662.92999999132,219661.97499993723,219273.834,219287.15499991085,219290.495,219673.851,,12,sunspot
screen,html.Screen,2_3_1_0_1_13,2021-04-24T14:51:06.783Z,,,,,,,,,,,,,,,,,2,,,,,,,,,,,,,,292.11899990288657,,response,,,,1,C,,,,,,Space,keypress(Space),,,,instrumental,,,,--- ---- ------ --- ------- ---------- ------- ----------<br>--- --------- --- ----------- ------- group ------- ---<br>--------- ---- -- --- ---- -- --------- -- ---- -------<br>-- --------- ------ --- ----- ------ ---- --- --------- --<br>------ - ---- -- --- ----------- ------- ---- ----- -----<br>--- -------- - ------ ---- -- ----- ---- --- --- -----------<br>-- -------,219966.77499997895,219965.96999990288,219657.153,219663.21499994956,219673.851,219973.738,,13,group
screen,html.Screen,2_3_1_0_1_14,2021-04-24T14:51:07.079Z,,,,,,,,,,,,,,,,,2,,,,,,,,,,,,,,288.2269999542041,,response,,,,1,C,,,,,,Space,keypress(Space),,,,instrumental,,,,--- ---- ------ --- ------- ---------- ------- ----------<br>--- --------- --- ----------- ------- ----- through ---<br>--------- ---- -- --- ---- -- --------- -- ---- -------<br>-- --------- ------ --- ----- ------ ---- --- --------- --<br>------ - ---- -- --- ----------- ------- ---- ----- -----<br>--- -------- - ------ ---- -- ----- ---- --- --- -----------<br>-- -------,220262.96999992337,220261.96499995422,219957.142,219966.8899999233,219973.738,220273.832,,14,through
screen,html.Screen,2_3_1_0_1_15,2021-04-24T14:51:07.399Z,,,,,,,,,,,,,,,,,2,,,,,,,,,,,,,,308.14799990080064,,response,,,,1,C,,,,,,Space,keypress(Space),,,,instrumental,,,,--- ---- ------ --- ------- ---------- ------- ----------<br>--- --------- --- ----------- ------- ----- ------- his<br>--------- ---- -- --- ---- -- --------- -- ---- -------<br>-- --------- ------ --- ----- ------ ---- --- --------- --<br>------ - ---- -- --- ----------- ------- ---- ----- -----<br>--- -------- - ------ ---- -- ----- ---- --- --- -----------<br>-- -------,220583.24499998707,220581.9799999008,220257.052,220263.26999999583,220273.832,220590.484,,15,his
screen,html.Screen,2_3_1_0_1_16,2021-04-24T14:51:07.623Z,,,,,,,,,,,,,,,,,2,,,,,,,,,,,,,,215.3210000108811,,response,,,,1,C,,,,,,Space,keypress(Space),,,,instrumental,,,,--- ---- ------ --- ------- ---------- ------- ----------<br>--- --------- --- ----------- ------- ----- ------- ---<br>telescope ---- -- --- ---- -- --------- -- ---- -------<br>-- --------- ------ --- ----- ------ ---- --- --------- --<br>------ - ---- -- --- ----------- ------- ---- ----- -----<br>--- -------- - ------ ---- -- ----- ---- --- --- -----------<br>-- -------,220806.77499994636,220805.80500001088,220573.789,220583.52499990724,220590.484,220823.817,,16,telescope
screen,html.Screen,2_3_1_0_1_17,2021-04-24T14:51:07.838Z,,,,,,,,,,,,,,,,,2,,,,,,,,,,,,,,197.55800001116586,,response,,,,1,C,,,,,,Space,keypress(Space),,,,instrumental,,,,--- ---- ------ --- ------- ---------- ------- ----------<br>--- --------- --- ----------- ------- ----- ------- ---<br>--------- when -- --- ---- -- --------- -- ---- -------<br>-- --------- ------ --- ----- ------ ---- --- --------- --<br>------ - ---- -- --- ----------- ------- ---- ----- -----<br>--- -------- - ------ ---- -- ----- ---- --- --- -----------<br>-- -------,221021.88999997452,221021.37500001118,220807.115,220807.0599999046,220823.817,221023.693,,17,when
screen,html.Screen,2_3_1_0_1_18,2021-04-24T14:51:08.079Z,,,,,,,,,,,,,,,,,2,,,,,,,,,,,,,,238.23699992054026,,response,,,,1,C,,,,,,Space,keypress(Space),,,,instrumental,,,,--- ---- ------ --- ------- ---------- ------- ----------<br>--- --------- --- ----------- ------- ----- ------- ---<br>--------- ---- he --- ---- -- --------- -- ---- -------<br>-- --------- ------ --- ----- ------ ---- --- --------- --<br>------ - ---- -- --- ----------- ------- ---- ----- -----<br>--- -------- - ------ ---- -- ----- ---- --- --- -----------<br>-- -------,221263.16999993287,221261.92999992054,221007.108,221021.9999999972,221023.693,221273.798,,18,he
screen,html.Screen,2_3_1_0_1_19,2021-04-24T14:51:08.319Z,,,,,,,,,,,,,,,,,2,,,,,,,,,,,,,,227.98199993319577,,response,,,,1,C,,,,,,Space,keypress(Space),,,,instrumental,,,,--- ---- ------ --- ------- ---------- ------- ----------<br>--- --------- --- ----------- ------- ----- ------- ---<br>--------- ---- -- saw ---- -- --------- -- ---- -------<br>-- --------- ------ --- ----- ------ ---- --- --------- --<br>------ - ---- -- --- ----------- ------- ---- ----- -----<br>--- -------- - ------ ---- -- ----- ---- --- --- -----------<br>-- -------,221502.69999995362,221501.7799999332,221257.019,221263.45500000753,221273.798,221507.102,,19,saw
screen,html.Screen,2_3_1_0_1_20,2021-04-24T14:51:08.558Z,,,,,,,,,,,,,,,,,2,,,,,,,,,,,,,,234.44799991877517,,response,,,,1,C,,,,,,Space,keypress(Space),,,,instrumental,,,,--- ---- ------ --- ------- ---------- ------- ----------<br>--- --------- --- ----------- ------- ----- ------- ---<br>--------- ---- -- --- what -- --------- -- ---- -------<br>-- --------- ------ --- ----- ------ ---- --- --------- --<br>------ - ---- -- --- ----------- ------- ---- ----- -----<br>--- -------- - ------ ---- -- ----- ---- --- --- -----------<br>-- -------,221742.2399999341,221741.5499999188,221490.403,221502.9799999902,221507.102,221757.045,,20,what
screen,html.Screen,2_3_1_0_1_21,2021-04-24T14:51:08.799Z,,,,,,,,,,,,,,,,,2,,,,,,,,,,,,,,224.80499998191954,,response,,,,1,C,,,,,,Space,keypress(Space),,,,instrumental,,,,--- ---- ------ --- ------- ---------- ------- ----------<br>--- --------- --- ----------- ------- ----- ------- ---<br>--------- ---- -- --- ---- he --------- -- ---- -------<br>-- --------- ------ --- ----- ------ ---- --- --------- --<br>------ - ---- -- --- ----------- ------- ---- ----- -----<br>--- -------- - ------ ---- -- ----- ---- --- --- -----------<br>-- -------,221982.849999913,221981.84999998193,221740.419,221742.41499998607,221757.045,221990.414,,21,he
screen,html.Screen,2_3_1_0_1_22,2021-04-24T14:51:09.039Z,,,,,,,,,,,,,,,,,2,,,,,,,,,,,,,,231.640999903786,,response,,,,1,C,,,,,,Space,keypress(Space),,,,instrumental,,,,--- ---- ------ --- ------- ---------- ------- ----------<br>--- --------- --- ----------- ------- ----- ------- ---<br>--------- ---- -- --- ---- -- described -- ---- -------<br>-- --------- ------ --- ----- ------ ---- --- --------- --<br>------ - ---- -- --- ----------- ------- ---- ----- -----<br>--- -------- - ------ ---- -- ----- ---- --- --- -----------<br>-- -------,222223.06999994908,222222.05499990378,221973.674,221983.13499998767,221990.414,222240.399,,22,described
screen,html.Screen,2_3_1_0_1_23,2021-04-24T14:51:09.231Z,,,,,,,,,,,,,,,,,2,,,,,,,,,,,,,,173.37599990630406,,response,,,,1,C,,,,,,Space,keypress(Space),,,,instrumental,,,,--- ---- ------ --- ------- ---------- ------- ----------<br>--- --------- --- ----------- ------- ----- ------- ---<br>--------- ---- -- --- ---- -- --------- as ---- -------<br>-- --------- ------ --- ----- ------ ---- --- --------- --<br>------ - ---- -- --- ----------- ------- ---- ----- -----<br>--- -------- - ------ ---- -- ----- ---- --- --- -----------<br>-- -------,222414.69000000507,222413.7749999063,222223.732,222223.34999998566,222240.399,222423.736,,23,as
screen,html.Screen,2_3_1_0_1_24,2021-04-24T14:51:09.471Z,,,,,,,,,,,,,,,,,2,,,,,,,,,,,,,,229.99399990358506,,response,,,,1,C,,,,,,Space,keypress(Space),,,,instrumental,,,,"--- ---- ------ --- ------- ---------- ------- ----------<br>--- --------- --- ----------- ------- ----- ------- ---<br>--------- ---- -- --- ---- -- --------- -- ""two -------<br>-- --------- ------ --- ----- ------ ---- --- --------- --<br>------ - ---- -- --- ----------- ------- ---- ----- -----<br>--- -------- - ------ ---- -- ----- ---- --- --- -----------<br>-- -------",222654.6649999218,222653.7299999036,222407.063,222414.96999992523,222423.736,222657.042,,24,"""two"
screen,html.Screen,2_3_1_0_1_25,2021-04-24T14:51:09.695Z,,,,,,,,,,,,,,,,,2,,,,,,,,,,,,,,220.84299996533082,,response,,,,1,C,,,,,,Space,keypress(Space),,,,instrumental,,,,--- ---- ------ --- ------- ---------- ------- ----------<br>--- --------- --- ----------- ------- ----- ------- ---<br>--------- ---- -- --- ---- -- --------- -- ---- patches<br>-- --------- ------ --- ----- ------ ---- --- --------- --<br>------ - ---- -- --- ----------- ------- ---- ----- -----<br>--- -------- - ------ ---- -- ----- ---- --- --- -----------<br>-- -------,222878.89499997254,222877.88499996532,222640.387,222654.93499999866,222657.042,222890.397,,25,patches
screen,html.Screen,2_3_1_0_1_26,2021-04-24T14:51:09.950Z,,,,,,,,,,,,,,,,,2,,,,,,,,,,,,,,243.02299996919464,,response,,,,1,C,,,,,,Space,keypress(Space),,,,instrumental,,,,--- ---- ------ --- ------- ---------- ------- ----------<br>--- --------- --- ----------- ------- ----- ------- ---<br>--------- ---- -- --- ---- -- --------- -- ---- -------<br>of --------- ------ --- ----- ------ ---- --- --------- --<br>------ - ---- -- --- ----------- ------- ---- ----- -----<br>--- -------- - ------ ---- -- ----- ---- --- --- -----------<br>-- -------,223133.87499994133,223133.4199999692,222873.713,222879.16999997105,222890.397,223140.311,,26,of
screen,html.Screen,2_3_1_0_1_27,2021-04-24T14:51:10.231Z,,,,,,,,,,,,,,,,,2,,,,,,,,,,,,,,273.47899990412407,,response,,,,1,C,,,,,,Space,keypress(Space),,,,instrumental,,,,--- ---- ------ --- ------- ---------- ------- ----------<br>--- --------- --- ----------- ------- ----- ------- ---<br>--------- ---- -- --- ---- -- --------- -- ---- -------<br>-- intensely ------ --- ----- ------ ---- --- --------- --<br>------ - ---- -- --- ----------- ------- ---- ----- -----<br>--- -------- - ------ ---- -- ----- ---- --- --- -----------<br>-- -------,223414.73499999847,223413.7899999041,223123.689,223134.0049999999,223140.311,223423.734,,27,intensely
screen,html.Screen,2_3_1_0_1_28,2021-04-24T14:51:10.503Z,,,,,,,,,,,,,,,,,2,,,,,,,,,,,,,,262.1559999642777,,response,,,,1,C,,,,,,Space,keypress(Space),,,,instrumental,,,,--- ---- ------ --- ------- ---------- ------- ----------<br>--- --------- --- ----------- ------- ----- ------- ---<br>--------- ---- -- --- ---- -- --------- -- ---- -------<br>-- --------- bright --- ----- ------ ---- --- --------- --<br>------ - ---- -- --- ----------- ------- ---- ----- -----<br>--- -------- - ------ ---- -- ----- ---- --- --- -----------<br>-- -------,223686.9149999693,223685.88999996427,223406.948,223415.02999991644,223423.734,223690.361,,28,bright
screen,html.Screen,2_3_1_0_1_29,2021-04-24T14:51:10.783Z,,,,,,,,,,,,,,,,,2,,,,,,,,,,,,,,275.6690000105009,,response,,,,1,C,,,,,,Space,keypress(Space),,,,instrumental,,,,--- ---- ------ --- ------- ---------- ------- ----------<br>--- --------- --- ----------- ------- ----- ------- ---<br>--------- ---- -- --- ---- -- --------- -- ---- -------<br>-- --------- ------ and ----- ------ ---- --- --------- --<br>------ - ---- -- --- ----------- ------- ---- ----- -----<br>--- -------- - ------ ---- -- ----- ---- --- --- -----------<br>-- -------,223967.03999990132,223966.0300000105,223673.686,223687.19999992754,223690.361,223973.708,,29,and
screen,html.Screen,2_3_1_0_1_30,2021-04-24T14:51:11.030Z,,,,,,,,,,,,,,,,,2,,,,,,,,,,,,,,239.66200001220568,,response,,,,1,C,,,,,,Space,keypress(Space),,,,instrumental,,,,--- ---- ------ --- ------- ---------- ------- ----------<br>--- --------- --- ----------- ------- ----- ------- ---<br>--------- ---- -- --- ---- -- --------- -- ---- -------<br>-- --------- ------ --- white ------ ---- --- --------- --<br>------ - ---- -- --- ----------- ------- ---- ----- -----<br>--- -------- - ------ ---- -- ----- ---- --- --- -----------<br>-- -------,224213.8149999082,224213.37000001222,223957.009,223967.33000001404,223973.708,224223.576,,30,white
screen,html.Screen,2_3_1_0_1_31,2021-04-24T14:51:11.271Z,,,,,,,,,,,,,,,,,2,,,,,,,,,,,,,,230.2039999816334,,response,,,,1,C,,,,,,Space,keypress(Space),,,,instrumental,,,,"--- ---- ------ --- ------- ---------- ------- ----------<br>--- --------- --- ----------- ------- ----- ------- ---<br>--------- ---- -- --- ---- -- --------- -- ---- -------<br>-- --------- ------ --- ----- light"" ---- --- --------- --<br>------ - ---- -- --- ----------- ------- ---- ----- -----<br>--- -------- - ------ ---- -- ----- ---- --- --- -----------<br>-- -------",224454.69499996398,224453.77999998163,224207.016,224213.93500000704,224223.576,224456.995,,31,"light"""
screen,html.Screen,2_3_1_0_1_32,2021-04-24T14:51:11.511Z,,,,,,,,,,,,,,,,,2,,,,,,,,,,,,,,236.7649999364512,,response,,,,1,C,,,,,,Space,keypress(Space),,,,instrumental,,,,--- ---- ------ --- ------- ---------- ------- ----------<br>--- --------- --- ----------- ------- ----- ------- ---<br>--------- ---- -- --- ---- -- --------- -- ---- -------<br>-- --------- ------ --- ----- ------ over --- --------- --<br>------ - ---- -- --- ----------- ------- ---- ----- -----<br>--- -------- - ------ ---- -- ----- ---- --- --- -----------<br>-- -------,224694.6749999188,224693.75999993645,224440.329,224454.97500000056,224456.995,224707.016,,32,over
screen,html.Screen,2_3_1_0_1_33,2021-04-24T14:51:11.743Z,,,,,,,,,,,,,,,,,2,,,,,,,,,,,,,,218.958999903698,,response,,,,1,C,,,,,,Space,keypress(Space),,,,instrumental,,,,--- ---- ------ --- ------- ---------- ------- ----------<br>--- --------- --- ----------- ------- ----- ------- ---<br>--------- ---- -- --- ---- -- --------- -- ---- -------<br>-- --------- ------ --- ----- ------ ---- the --------- --<br>------ - ---- -- --- ----------- ------- ---- ----- -----<br>--- -------- - ------ ---- -- ----- ---- --- --- -----------<br>-- -------,224927.13999992702,224925.9749999037,224690.292,224694.95499995537,224707.016,224940.348,,33,the
screen,html.Screen,2_3_1_0_1_34,2021-04-24T14:51:11.959Z,,,,,,,,,,,,,,,,,2,,,,,,,,,,,,,,201.48199997865595,,response,,,,1,C,,,,,,Space,keypress(Space),,,,instrumental,,,,--- ---- ------ --- ------- ---------- ------- ----------<br>--- --------- --- ----------- ------- ----- ------- ---<br>--------- ---- -- --- ---- -- --------- -- ---- -------<br>-- --------- ------ --- ----- ------ ---- --- sunspots. --<br>------ - ---- -- --- ----------- ------- ---- ----- -----<br>--- -------- - ------ ---- -- ----- ---- --- --- -----------<br>-- -------,225142.74999999907,225141.82999997865,224923.646,224927.54999990575,224940.348,225157.02,,34,sunspots.
screen,html.Screen,2_3_1_0_1_35,2021-04-24T14:51:12.159Z,,,,,,,,,,,,,,,,,2,,,,,,,,,,,,,,184.94499991231714,,response,,,,1,C,,,,,,Space,keypress(Space),,,,instrumental,,,,--- ---- ------ --- ------- ---------- ------- ----------<br>--- --------- --- ----------- ------- ----- ------- ---<br>--------- ---- -- --- ---- -- --------- -- ---- -------<br>-- --------- ------ --- ----- ------ ---- --- --------- He<br>------ - ---- -- --- ----------- ------- ---- ----- -----<br>--- -------- - ------ ---- -- ----- ---- --- --- -----------<br>-- -------,225343.01499999128,225341.9649999123,225140.248,225143.03999999538,225157.02,225356.996,,35,He
