sender,sender_type,sender_id,timestamp,meta,,Blues,Classical,Country,Dance,Electronic,Folk,Gospel,Hip-Hop,Jazz,Latin,Musical/Film,New-age,Pop,Prolific_id,Provo_ID,R&B,Rap,Reggae,Religious,Rock,Soul,Swing,Traditional,age,artist_name,correct,correctResponse,distraction,duration,education,ended_on,familiarity,gender,headphone_check_performance,item,list,music_frequency,offensiveness,pleasantness,position_correct,preference,response,response_action,snippet_file,song_name,song_rating,sound,stimulus_1,stimulus_2,stimulus_3,text,time_commit,time_end,time_render,time_run,time_show,time_switch,url,word,word_ID
Prolific ID,html.Form,0,2021-04-27T08:28:39.973Z,"{""labjs_version"":""20.2.2"",""labjs_build"":{""flavor"":""production"",""commit"":""a25486e0c714a0ae2ce03ff94b7bb6896854dcfa""},""location"":""https://run.pavlovia.org/mvasilev/prolific_music_f/"",""userAgent"":""Mozilla/5.0 (Windows NT 10.0; Win64; x64) AppleWebKit/537.36 (KHTML, like Gecko) Chrome/90.0.4430.85 Safari/537.36"",""platform"":""Win32"",""language"":""en-GB"",""locale"":""en-GB"",""timeZone"":""Europe/London"",""timezoneOffset"":-60,""screen_width"":1366,""screen_height"":768,""scroll_width"":1366,""scroll_height"":609,""window_innerWidth"":1366,""window_innerHeight"":657,""devicePixelRatio"":1}",,,,,,,,,,,,,,,5b1aa0433e5521000120f7a8,,,,,,,,,,,,,,,5731.322999912976,,form submission,,,,,,,,,,,,,,,,,,,,,27444.709999952465,27444.184999912977,21629.473,21640.92499995604,21712.862,27482.14,{},,
Introduction,html.Screen,1_0,2021-04-27T08:29:09.237Z,,,,,,,,,,,,,,,,,,,,,,,,,,,,,,,29223.049999891446,,response,,,,,,,,,,,continue,click button,,,,,,,,,56708.385000005364,56705.189999891445,27432.119,27445.074999937788,27482.14,56712.057,,,
Volume calibration,html.Screen,1_1,2021-04-27T08:29:37.056Z,,,,,,,,,,,,,,,,,,,,,,,,,,,,,,,27811.51299996118,,response,,,,,,,,,,,continue,click button,,,,,,,,,84528.08499988168,84523.56999996118,56695.366,56708.959999959916,56712.057,84524.654,,,
Task instructions,html.Screen,1_2,2021-04-27T08:29:56.262Z,,,,,,,,,,,,,,,,,,,,,,,,,,,,,,,19207.72099990501,,response,,,,,,,,,,,continue,click button,,,,,,,,,103734.36999996193,103732.374999905,84507.997,84528.255000012,84524.654,103750.697,,,
Sounds,html.Screen,1_3_0_0,2021-04-27T08:30:00.521Z,,,,,,,,,,,,,,,,,,,,,,,,,,,,,,,4251.824999999997,,timeout,,,,,,,,,1,,,,,,,,S,I,O,,107992.57999984547,107985.284,103716.702,103734.68500003219,103750.697,108002.522,,,
Judgement,html.Screen,1_3_0_1,2021-04-27T08:30:02.209Z,,,,,,,,,,,,,,,,,,,,,,,,,,,,true,1,,1675.9179999305634,,response,,,,,,,,,1,,1,click #choice-1,,,,,S,I,O,,109680.6899998337,109678.43999993056,107985.284,107992.85499984398,108002.522,109686.075,,,
Trial,flow.Sequence,1_3_0,2021-04-27T08:30:02.210Z,,,,,,,,,,,,,,,,,,,,,,,,,,,,,,,5927.7429999305605,,completion,,,,,,,,,1,,,,,,,,S,I,O,,109681.65499996394,109678.43999993056,103716.702,103734.62499980815,103750.697,109686.075,,,
Sounds,html.Screen,1_3_1_0,2021-04-27T08:30:06.451Z,,,,,,,,,,,,,,,,,,,,,,,,,,,,,,,4251.900000000009,,timeout,,,,,,,,,1,,,,,,,,S,O,I,,113922.39999980666,113921.309,109669.408,109682.00999987312,109686.075,113937.975,,,
Judgement,html.Screen,1_3_1_1,2021-04-27T08:30:07.302Z,,,,,,,,,,,,,,,,,,,,,,,,,,,,true,1,,834.2599998075457,,response,,,,,,,,,1,,1,click #choice-1,,,,,S,O,I,,114773.93999998458,114772.23499980755,113921.309,113922.72499995306,113937.975,114788.356,,,
Trial,flow.Sequence,1_3_1,2021-04-27T08:30:07.302Z,,,,,,,,,,,,,,,,,,,,,,,,,,,,,,,5086.159999807554,,completion,,,,,,,,,1,,,,,,,,S,O,I,,114774.20499990694,114772.23499980755,109669.408,109681.87500000931,109686.075,114788.356,,,
Sounds,html.Screen,1_3_2_0,2021-04-27T08:30:11.552Z,,,,,,,,,,,,,,,,,,,,,,,,,,,,,,,4251.934999999998,,timeout,,,,,,,,,2,,,,,,,,O,S,I,,119024.17999994941,119023.601,114771.689,114774.37500003725,114788.356,119040.291,,,
Judgement,html.Screen,1_3_2_1,2021-04-27T08:30:12.562Z,,,,,,,,,,,,,,,,,,,,,,,,,,,,true,2,,992.0789999135013,,response,,,,,,,,,2,,2,click #choice-2,,,,,O,S,I,,120033.83499989286,120032.3699999135,119023.601,119024.3349999655,119040.291,120040.737,,,
Trial,flow.Sequence,1_3_2,2021-04-27T08:30:12.562Z,,,,,,,,,,,,,,,,,,,,,,,,,,,,,,,5244.013999913499,,completion,,,,,,,,,2,,,,,,,,O,S,I,,120034.08499993384,120032.3699999135,114771.689,114774.32499988936,114788.356,120040.737,,,
Sounds,html.Screen,1_3_3_0,2021-04-27T08:30:16.805Z,,,,,,,,,,,,,,,,,,,,,,,,,,,,,,,4251.922000000006,,timeout,,,,,,,,,3,,,,,,,,O,I,S,,124276.61499986425,124275.996,120024.096,120034.25499983132,120040.737,124292.659,,,
Judgement,html.Screen,1_3_3_1,2021-04-27T08:30:18.325Z,,,,,,,,,,,,,,,,,,,,,,,,,,,,true,3,,1502.2010000236187,,response,,,,,,,,,3,,3,click #choice-3,,,,,O,I,S,,125796.37499991804,125794.86000002362,124275.996,124276.76499984227,124292.659,125810.02,,,
Trial,flow.Sequence,1_3_3,2021-04-27T08:30:18.325Z,,,,,,,,,,,,,,,,,,,,,,,,,,,,,,,5754.123000023625,,completion,,,,,,,,,3,,,,,,,,O,I,S,,125796.6099998448,125794.86000002362,120024.096,120034.19499984011,120040.737,125810.02,,,
Sounds,html.Screen,1_3_4_0,2021-04-27T08:30:22.575Z,,,,,,,,,,,,,,,,,,,,,,,,,,,,,,,4251.959000000003,,timeout,,,,,,,,,2,,,,,,,,I,S,O,,130046.19999998249,130045.275,125793.36,125796.76999989897,125810.02,130061.979,,,
Judgement,html.Screen,1_3_4_1,2021-04-27T08:30:24.263Z,,,,,,,,,,,,,,,,,,,,,,,,,,,,true,2,,1670.7109999752574,,response,,,,,,,,,2,,2,click #choice-2,,,,,I,S,O,,131734.6049998887,131732.68999997526,130045.275,130046.35499999858,130061.979,131746.054,,,
Trial,flow.Sequence,1_3_4,2021-04-27T08:30:24.264Z,,,,,,,,,,,,,,,,,,,,,,,,,,,,,,,5922.66999997526,,completion,,,,,,,,,2,,,,,,,,I,S,O,,131734.88499992527,131732.68999997526,125793.36,125796.72500002198,125810.02,131746.054,,,
Sounds,html.Screen,1_3_5_0,2021-04-27T08:30:28.511Z,,,,,,,,,,,,,,,,,,,,,,,,,,,,,,,4251.943999999989,,timeout,,,,,,,,,3,,,,,,,,I,O,S,,135982.01999999583,135981.294,131729.399,131735.0800000131,131746.054,135997.998,,,
Judgement,html.Screen,1_3_5_1,2021-04-27T08:30:29.893Z,,,,,,,,,,,,,,,,,,,,,,,,,,,,true,3,,1364.5169999279606,,response,,,,,,,,,3,,3,click #choice-3,,,,,I,O,S,,137364.10999996588,137362.51499992795,135981.294,135982.16499993578,135997.998,137365.277,,,
Trial,flow.Sequence,1_3_5,2021-04-27T08:30:29.893Z,,,,,,,,,,,,,,,,,,,,,,,,,,,,,,,5616.460999927949,,completion,,,,,,,,,3,,,,,,,,I,O,S,,137364.33999985456,137362.51499992795,131729.399,131735.02499982715,131746.054,137365.277,,,
Task,flow.Loop,1_3,2021-04-27T08:30:29.898Z,,,,,,,,,,,,,,,,,,,,,,,,,,,,,,,33611.81799992795,,completion,,,1,,,,,,,,,,,,,,,,,,137369.604999898,137362.51499992795,103716.702,103734.54999993555,103750.697,137365.277,,,
Trap,html.Screen,1_4,2021-04-27T08:30:29.901Z,,,,,,,,,,,,,,,,,,,,,,,,,,,,,,,NaN,,skipped,,,,,,,,,,,,,,,,,,,,,137372.54999997094,137362.51499992795,,137372.31999984942,,137365.277,,,
Thanks,html.Screen,1_5,2021-04-27T08:30:37.922Z,,,,,,,,,,,,,,,,,,,,,,,,,,,,,,,8026.878000008641,,response,,,,,,,,,,,continue,click button,,,,,,,,,145393.57999991626,145392.15500000864,137348.612,137372.68999987282,137365.277,156040.441,,,
Headphone screening,flow.Sequence,1,2021-04-27T08:30:37.923Z,,,,,,,,,,,,,,,,,,,,,,,,,,,,,,,117910.01500000864,,completion,,,,,,,,,,,,,,,,,,,,,145393.7849998474,145392.15500000864,27432.119,27445.029999827966,27482.14,156040.441,,,
Instructions,html.Page,2_0,2021-04-27T08:31:49.137Z,,,,,,,,,,,,,,,,,,,,,,,,,,,,,,,60568.42399984191,,form submission,,,,,,,,,,,,,,,,,,,,,216609.22500002198,216608.8649998419,155990.381,156038.55499997735,156040.441,216617.86,,,
Holding screen,html.Screen,2_1_0_0,2021-04-27T08:31:59.135Z,,,,,,,,,,,,,,,,,,,,,,,,,,,,,,,10004.541000000027,,timeout,,,,,,,,,,,,,,,,,,,,,226606.4100000076,226605.712,216601.163,216609.47000002488,216617.86,226622.401,,,
screen,html.Screen,2_1_0_1_0,2021-04-27T08:31:59.193Z,,,,,,,,,,,,,,,,,53,,,,,,,,,,,,,,40.28399987198645,,response,,,,99,,,,,,,Space,keypress(Space),,,,,,,,When -- ----- -- ------ - ------- --- ----------<br>------------- ------ ------ ---- ---- ------- ----- -- ----<br>-------- ------- -- ---------- --- - --- ----- ----- ----<br>---- --- --- ----- --- ---- ---- ------- ----- ---- -------<br>--- --- -- ----- -- --- ---- -- --- ---- -- ------ ------<br>--- ----- -- ----,226665.1899998542,226662.684999872,226605.712,226606.91999993287,226622.401,226689.099,,0,When
screen,html.Screen,2_1_0_1_1,2021-04-27T08:32:01.186Z,,,,,,,,,,,,,,,,,53,,,,,,,,,,,,,,1968.1359998168773,,response,,,,99,,,,,,,Space,keypress(Space),,,,,,,,---- it ----- -- ------ - ------- --- ----------<br>------------- ------ ------ ---- ---- ------- ----- -- ----<br>-------- ------- -- ---------- --- - --- ----- ----- ----<br>---- --- --- ----- --- ---- ---- ------- ----- ---- -------<br>--- --- -- ----- -- --- ---- -- --- ---- -- ------ ------<br>--- ----- -- ----,228657.8449998051,228657.23499981686,226672.419,226665.3599999845,226689.099,228673.304,,1,it
screen,html.Screen,2_1_0_1_2,2021-04-27T08:32:02.512Z,,,,,,,,,,,,,,,,,53,,,,,,,,,,,,,,1310.2760000000708,,response,,,,99,,,,,,,Space,keypress(Space),,,,,,,,---- -- comes -- ------ - ------- --- ----------<br>------------- ------ ------ ---- ---- ------- ----- -- ----<br>-------- ------- -- ---------- --- - --- ----- ----- ----<br>---- --- --- ----- --- ---- ---- ------- ----- ---- -------<br>--- --- -- ----- -- --- ---- -- --- ---- -- ------ ------<br>--- ----- -- ----,229984.21499994583,229983.58000000007,228656.63,228657.9849999398,228673.304,229990.57,,2,comes
screen,html.Screen,2_1_0_1_3,2021-04-27T08:32:03.192Z,,,,,,,,,,,,,,,,,53,,,,,,,,,,,,,,672.1199999100645,,response,,,,99,,,,,,,Space,keypress(Space),,,,,,,,---- -- ----- to ------ - ------- --- ----------<br>------------- ------ ------ ---- ---- ------- ----- -- ----<br>-------- ------- -- ---------- --- - --- ----- ----- ----<br>---- --- --- ----- --- ---- ---- ------- ----- ---- -------<br>--- --- -- ----- -- --- ---- -- --- ---- -- ------ ------<br>--- ----- -- ----,230663.33499993198,230662.68999991007,229973.885,229984.34999980964,229990.57,230674.241,,3,to
screen,html.Screen,2_1_0_1_4,2021-04-27T08:32:04.230Z,,,,,,,,,,,,,,,,,53,,,,,,,,,,,,,,1026.534000033891,,response,,,,99,,,,,,,Space,keypress(Space),,,,,,,,---- -- ----- -- having - ------- --- ----------<br>------------- ------ ------ ---- ---- ------- ----- -- ----<br>-------- ------- -- ---------- --- - --- ----- ----- ----<br>---- --- --- ----- --- ---- ---- ------- ----- ---- -------<br>--- --- -- ----- -- --- ---- -- --- ---- -- ------ ------<br>--- ----- -- ----,231701.39499986544,231700.7750000339,230657.533,230663.47999987192,230674.241,231708.017,,4,having
screen,html.Screen,2_1_0_1_5,2021-04-27T08:32:04.908Z,,,,,,,,,,,,,,,,,53,,,,,,,,,,,,,,671.1579998927191,,response,,,,99,,,,,,,Space,keypress(Space),,,,,,,,---- -- ----- -- ------ a ------- --- ----------<br>------------- ------ ------ ---- ---- ------- ----- -- ----<br>-------- ------- -- ---------- --- - --- ----- ----- ----<br>---- --- --- ----- --- ---- ---- ------- ----- ---- -------<br>--- --- -- ----- -- --- ---- -- --- ---- -- ------ ------<br>--- ----- -- ----,232379.81999991462,232379.1749998927,231691.326,231701.53500000015,231708.017,232391.66,,5,a
screen,html.Screen,2_1_0_1_6,2021-04-27T08:32:06.160Z,,,,,,,,,,,,,,,,,53,,,,,,,,,,,,,,1239.0849999731,,response,,,,99,,,,,,,Space,keypress(Space),,,,,,,,---- -- ----- -- ------ - lasting --- ----------<br>------------- ------ ------ ---- ---- ------- ----- -- ----<br>-------- ------- -- ---------- --- - --- ----- ----- ----<br>---- --- --- ----- --- ---- ---- ------- ----- ---- -------<br>--- --- -- ----- -- --- ---- -- --- ---- -- ------ ------<br>--- ----- -- ----,233631.35499996133,233630.7449999731,232374.987,232379.96499985456,232391.66,233642.228,,6,lasting
screen,html.Screen,2_1_0_1_7,2021-04-27T08:32:06.822Z,,,,,,,,,,,,,,,,,53,,,,,,,,,,,,,,651.1920000017853,,response,,,,99,,,,,,,Space,keypress(Space),,,,,,,,---- -- ----- -- ------ - ------- and ----------<br>------------- ------ ------ ---- ---- ------- ----- -- ----<br>-------- ------- -- ---------- --- - --- ----- ----- ----<br>---- --- --- ----- --- ---- ---- ------- ----- ---- -------<br>--- --- -- ----- -- --- ---- -- --- ---- -- ------ ------<br>--- ----- -- ----,234293.99499995634,234293.4200000018,233625.54,233631.48999982513,233642.228,234309.216,,7,and
screen,html.Screen,2_1_0_1_8,2021-04-27T08:32:07.972Z,,,,,,,,,,,,,,,,,53,,,,,,,,,,,,,,1134.0239999350451,,response,,,,99,,,,,,,Space,keypress(Space),,,,,,,,---- -- ----- -- ------ - ------- --- fulfilling<br>------------- ------ ------ ---- ---- ------- ----- -- ----<br>-------- ------- -- ---------- --- - --- ----- ----- ----<br>---- --- --- ----- --- ---- ---- ------- ----- ---- -------<br>--- --- -- ----- -- --- ---- -- --- ---- -- ------ ------<br>--- ----- -- ----,235443.87999991886,235443.23999993503,234292.507,234294.12999982014,234309.216,235459.738,,8,fulfilling
screen,html.Screen,2_1_0_1_9,2021-04-27T08:32:08.943Z,,,,,,,,,,,,,,,,,53,,,,,,,,,,,,,,954.6419999728678,,response,,,,99,,,,,,,Space,keypress(Space),,,,,,,,"---- -- ----- -- ------ - ------- --- ----------<br>relationship, ------ ------ ---- ---- ------- ----- -- ----<br>-------- ------- -- ---------- --- - --- ----- ----- ----<br>---- --- --- ----- --- ---- ---- ------- ----- ---- -------<br>--- --- -- ----- -- --- ---- -- --- ---- -- ------ ------<br>--- ----- -- ----",236414.9449998513,236414.37999997288,235443.011,235444.0150000155,235459.738,236426.848,,9,"relationship,"
screen,html.Screen,2_1_0_1_10,2021-04-27T08:32:09.512Z,,,,,,,,,,,,,,,,,53,,,,,,,,,,,,,,556.2419999942649,,response,,,,99,,,,,,,Space,keypress(Space),,,,,,,,---- -- ----- -- ------ - ------- --- ----------<br>------------- common ------ ---- ---- ------- ----- -- ----<br>-------- ------- -- ---------- --- - --- ----- ----- ----<br>---- --- --- ----- --- ---- ---- ------- ----- ---- -------<br>--- --- -- ----- -- --- ---- -- --- ---- -- ------ ------<br>--- ----- -- ----,236983.6649999488,236983.08999999426,236410.122,236415.07999994792,236426.848,236993.738,,10,common
screen,html.Screen,2_1_0_1_11,2021-04-27T08:32:09.985Z,,,,,,,,,,,,,,,,,53,,,,,,,,,,,,,,462.09699991333764,,response,,,,99,,,,,,,Space,keypress(Space),,,,,,,,---- -- ----- -- ------ - ------- --- ----------<br>------------- ------ wisdom ---- ---- ------- ----- -- ----<br>-------- ------- -- ---------- --- - --- ----- ----- ----<br>---- --- --- ----- --- ---- ---- ------- ----- ---- -------<br>--- --- -- ----- -- --- ---- -- --- ---- -- ------ ------<br>--- ----- -- ----,237456.41499990597,237455.83499991335,236977.061,236983.79500000738,236993.738,237460.622,,11,wisdom
screen,html.Screen,2_1_0_1_12,2021-04-27T08:32:10.511Z,,,,,,,,,,,,,,,,,53,,,,,,,,,,,,,,521.227999865514,,response,,,,99,,,,,,,Space,keypress(Space),,,,,,,,---- -- ----- -- ------ - ------- --- ----------<br>------------- ------ ------ says ---- ------- ----- -- ----<br>-------- ------- -- ---------- --- - --- ----- ----- ----<br>---- --- --- ----- --- ---- ---- ------- ----- ---- -------<br>--- --- -- ----- -- --- ---- -- --- ---- -- ------ ------<br>--- ----- -- ----,237982.45999985375,237981.84999986552,237443.939,237456.54499996454,237460.622,237994.202,,12,says
screen,html.Screen,2_1_0_1_13,2021-04-27T08:32:10.998Z,,,,,,,,,,,,,,,,,53,,,,,,,,,,,,,,475.37299999553943,,response,,,,99,,,,,,,Space,keypress(Space),,,,,,,,---- -- ----- -- ------ - ------- --- ----------<br>------------- ------ ------ ---- that ------- ----- -- ----<br>-------- ------- -- ---------- --- - --- ----- ----- ----<br>---- --- --- ----- --- ---- ---- ------- ----- ---- -------<br>--- --- -- ----- -- --- ---- -- --- ---- -- ------ ------<br>--- ----- -- ----,238470.2099999413,238469.57499999553,237977.548,237982.59999998845,237994.202,238477.754,,13,that
screen,html.Screen,2_1_0_1_14,2021-04-27T08:32:11.441Z,,,,,,,,,,,,,,,,,53,,,,,,,,,,,,,,434.63599995404365,,response,,,,99,,,,,,,Space,keypress(Space),,,,,,,,---- -- ----- -- ------ - ------- --- ----------<br>------------- ------ ------ ---- ---- feeling ----- -- ----<br>-------- ------- -- ---------- --- - --- ----- ----- ----<br>---- --- --- ----- --- ---- ---- ------- ----- ---- -------<br>--- --- -- ----- -- --- ---- -- --- ---- -- ------ ------<br>--- ----- -- ----,238912.98499982804,238912.38999995403,238461.051,238470.3449998051,238477.754,238927.951,,14,feeling
screen,html.Screen,2_1_0_1_15,2021-04-27T08:32:11.902Z,,,,,,,,,,,,,,,,,53,,,,,,,,,,,,,,445.16399984934833,,response,,,,99,,,,,,,Space,keypress(Space),,,,,,,,---- -- ----- -- ------ - ------- --- ----------<br>------------- ------ ------ ---- ---- ------- close -- ----<br>-------- ------- -- ---------- --- - --- ----- ----- ----<br>---- --- --- ----- --- ---- ---- ------- ----- ---- -------<br>--- --- -- ----- -- --- ---- -- --- ---- -- ------ ------<br>--- ----- -- ----,239373.74499998987,239373.11499984935,238911.27,238913.12499996275,238927.951,239378.319,,15,close
screen,html.Screen,2_1_0_1_16,2021-04-27T08:32:12.311Z,,,,,,,,,,,,,,,,,53,,,,,,,,,,,,,,403.89099985934445,,response,,,,99,,,,,,,Space,keypress(Space),,,,,,,,---- -- ----- -- ------ - ------- --- ----------<br>------------- ------ ------ ---- ---- ------- ----- to ----<br>-------- ------- -- ---------- --- - --- ----- ----- ----<br>---- --- --- ----- --- ---- ---- ------- ----- ---- -------<br>--- --- -- ----- -- --- ---- -- --- ---- -- ------ ------<br>--- ----- -- ----,239782.78499981388,239782.20999985933,239361.458,239373.88999992982,239378.319,239795.029,,16,to
screen,html.Screen,2_1_0_1_17,2021-04-27T08:32:12.763Z,,,,,,,,,,,,,,,,,53,,,,,,,,,,,,,,439.61599996042787,,response,,,,99,,,,,,,Space,keypress(Space),,,,,,,,---- -- ----- -- ------ - ------- --- ----------<br>------------- ------ ------ ---- ---- ------- ----- -- your<br>-------- ------- -- ---------- --- - --- ----- ----- ----<br>---- --- --- ----- --- ---- ---- ------- ----- ---- -------<br>--- --- -- ----- -- --- ---- -- --- ---- -- ------ ------<br>--- ----- -- ----,240235.2350000292,240234.64499996044,239778.314,239782.9249999486,239795.029,240245.225,,17,your
screen,html.Screen,2_1_0_1_18,2021-04-27T08:32:13.276Z,,,,,,,,,,,,,,,,,53,,,,,,,,,,,,,,502.46999991088524,,response,,,,99,,,,,,,Space,keypress(Space),,,,,,,,---- -- ----- -- ------ - ------- --- ----------<br>------------- ------ ------ ---- ---- ------- ----- -- ----<br>romantic ------- -- ---------- --- - --- ----- ----- ----<br>---- --- --- ----- --- ---- ---- ------- ----- ---- -------<br>--- --- -- ----- -- --- ---- -- --- ---- -- ------ ------<br>--- ----- -- ----,240748.28499997966,240747.6949999109,240228.531,240235.37499993108,240245.225,240762.13,,18,romantic
screen,html.Screen,2_1_0_1_19,2021-04-27T08:32:13.896Z,,,,,,,,,,,,,,,,,53,,,,,,,,,,,,,,605.2000000373228,,response,,,,99,,,,,,,Space,keypress(Space),,,,,,,,---- -- ----- -- ------ - ------- --- ----------<br>------------- ------ ------ ---- ---- ------- ----- -- ----<br>-------- partner -- ---------- --- - --- ----- ----- ----<br>---- --- --- ----- --- ---- ---- ------- ----- ---- -------<br>--- --- -- ----- -- --- ---- -- --- ---- -- ------ ------<br>--- ----- -- ----,241367.9299999494,241367.33000003733,240745.436,240748.43499995768,240762.13,241379.09,,19,partner
screen,html.Screen,2_1_0_1_20,2021-04-27T08:32:14.440Z,,,,,,,,,,,,,,,,,53,,,,,,,,,,,,,,531.6550000010466,,response,,,,99,,,,,,,Space,keypress(Space),,,,,,,,---- -- ----- -- ------ - ------- --- ----------<br>------------- ------ ------ ---- ---- ------- ----- -- ----<br>-------- ------- is ---------- --- - --- ----- ----- ----<br>---- --- --- ----- --- ---- ---- ------- ----- ---- -------<br>--- --- -- ----- -- --- ---- -- --- ---- -- ------ ------<br>--- ----- -- ----,241911.3649998326,241910.74500000104,241362.373,241368.0549999699,241379.09,241930.375,,20,is
screen,html.Screen,2_1_0_1_21,2021-04-27T08:32:15.940Z,,,,,,,,,,,,,,,,,53,,,,,,,,,,,,,,1480.9799999892712,,response,,,,99,,,,,,,Space,keypress(Space),,,,,,,,---- -- ----- -- ------ - ------- --- ----------<br>------------- ------ ------ ---- ---- ------- ----- -- ----<br>-------- ------- -- paramount. --- - --- ----- ----- ----<br>---- --- --- ----- --- ---- ---- ------- ----- ---- -------<br>--- --- -- ----- -- --- ---- -- --- ---- -- ------ ------<br>--- ----- -- ----,243411.9749998208,243411.35499998927,241895.961,241911.49499989115,241930.375,243430.846,,21,paramount.
screen,html.Screen,2_1_0_1_22,2021-04-27T08:32:16.823Z,,,,,,,,,,,,,,,,,53,,,,,,,,,,,,,,863.4040000353998,,response,,,,99,,,,,,,Space,keypress(Space),,,,,,,,---- -- ----- -- ------ - ------- --- ----------<br>------------- ------ ------ ---- ---- ------- ----- -- ----<br>-------- ------- -- ---------- But - --- ----- ----- ----<br>---- --- --- ----- --- ---- ---- ------- ----- ---- -------<br>--- --- -- ----- -- --- ---- -- --- ---- -- ------ ------<br>--- ----- -- ----,244294.80999987572,244294.2500000354,243396.626,243412.10999991745,243430.846,244297.059,,22,But
screen,html.Screen,2_1_0_1_23,2021-04-27T08:32:17.509Z,,,,,,,,,,,,,,,,,53,,,,,,,,,,,,,,683.3959999535,,response,,,,99,,,,,,,Space,keypress(Space),,,,,,,,---- -- ----- -- ------ - ------- --- ----------<br>------------- ------ ------ ---- ---- ------- ----- -- ----<br>-------- ------- -- ---------- --- a --- ----- ----- ----<br>---- --- --- ----- --- ---- ---- ------- ----- ---- -------<br>--- --- -- ----- -- --- ---- -- --- ---- -- ------ ------<br>--- ----- -- ----,244981.1050000135,244980.4549999535,244280.372,244294.95000001043,244297.059,244997.393,,23,a
screen,html.Screen,2_1_0_1_24,2021-04-27T08:32:17.955Z,,,,,,,,,,,,,,,,,53,,,,,,,,,,,,,,429.28700003321865,,response,,,,99,,,,,,,Space,keypress(Space),,,,,,,,---- -- ----- -- ------ - ------- --- ----------<br>------------- ------ ------ ---- ---- ------- ----- -- ----<br>-------- ------- -- ---------- --- - new ----- ----- ----<br>---- --- --- ----- --- ---- ---- ------- ----- ---- -------<br>--- --- -- ----- -- --- ---- -- --- ---- -- ------ ------<br>--- ----- -- ----,245427.32000001706,245426.68000003323,244980.677,244981.23499983922,244997.393,245430.904,,24,new
screen,html.Screen,2_1_0_1_25,2021-04-27T08:32:18.384Z,,,,,,,,,,,,,,,,,53,,,,,,,,,,,,,,424.4309999710822,,response,,,,99,,,,,,,Space,keypress(Space),,,,,,,,---- -- ----- -- ------ - ------- --- ----------<br>------------- ------ ------ ---- ---- ------- ----- -- ----<br>-------- ------- -- ---------- --- - --- study ----- ----<br>---- --- --- ----- --- ---- ---- ------- ----- ---- -------<br>--- --- -- ----- -- --- ---- -- --- ---- -- ------ ------<br>--- ----- -- ----,245855.98500003107,245855.3349999711,245414.552,245427.46999999508,245430.904,245864.46,,25,study
screen,html.Screen,2_1_0_1_26,2021-04-27T08:32:18.858Z,,,,,,,,,,,,,,,,,53,,,,,,,,,,,,,,464.289999869623,,response,,,,99,,,,,,,Space,keypress(Space),,,,,,,,---- -- ----- -- ------ - ------- --- ----------<br>------------- ------ ------ ---- ---- ------- ----- -- ----<br>-------- ------- -- ---------- --- - --- ----- finds ----<br>---- --- --- ----- --- ---- ---- ------- ----- ---- -------<br>--- --- -- ----- -- --- ---- -- --- ---- -- ------ ------<br>--- ----- -- ----,246329.44000000134,246328.74999986961,245847.726,245856.11999989487,245864.46,246331.312,,26,finds
screen,html.Screen,2_1_0_1_27,2021-04-27T08:32:19.412Z,,,,,,,,,,,,,,,,,53,,,,,,,,,,,,,,552.2029998776561,,response,,,,99,,,,,,,Space,keypress(Space),,,,,,,,---- -- ----- -- ------ - ------- --- ----------<br>------------- ------ ------ ---- ---- ------- ----- -- ----<br>-------- ------- -- ---------- --- - --- ----- ----- that<br>---- --- --- ----- --- ---- ---- ------- ----- ---- -------<br>--- --- -- ----- -- --- ---- -- --- ---- -- ------ ------<br>--- ----- -- ----,246884.19499993324,246883.51499987766,246314.617,246329.63499985635,246331.312,246898.252,,27,that
screen,html.Screen,2_1_0_1_28,2021-04-27T08:32:20.442Z,,,,,,,,,,,,,,,,,53,,,,,,,,,,,,,,1014.4279998339189,,response,,,,99,,,,,,,Space,keypress(Space),,,,,,,,---- -- ----- -- ------ - ------- --- ----------<br>------------- ------ ------ ---- ---- ------- ----- -- ----<br>-------- ------- -- ---------- --- - --- ----- ----- ----<br>it's --- --- ----- --- ---- ---- ------- ----- ---- -------<br>--- --- -- ----- -- --- ---- -- --- ---- -- ------ ------<br>--- ----- -- ----,247913.33999997005,247912.67999983393,246881.525,246884.33499983512,246898.252,247915.384,,28,it's
screen,html.Screen,2_1_0_1_29,2021-04-27T08:32:21.290Z,,,,,,,,,,,,,,,,,53,,,,,,,,,,,,,,845.4359999667795,,response,,,,99,,,,,,,Space,keypress(Space),,,,,,,,---- -- ----- -- ------ - ------- --- ----------<br>------------- ------ ------ ---- ---- ------- ----- -- ----<br>-------- ------- -- ---------- --- - --- ----- ----- ----<br>---- not --- ----- --- ---- ---- ------- ----- ---- -------<br>--- --- -- ----- -- --- ---- -- --- ---- -- ------ ------<br>--- ----- -- ----,248761.40499999747,248760.81999996677,247898.67,247913.47499983385,247915.384,248765.91,,29,not
screen,html.Screen,2_1_0_1_30,2021-04-27T08:32:21.937Z,,,,,,,,,,,,,,,,,53,,,,,,,,,,,,,,642.240000032034,,response,,,,99,,,,,,,Space,keypress(Space),,,,,,,,---- -- ----- -- ------ - ------- --- ----------<br>------------- ------ ------ ---- ---- ------- ----- -- ----<br>-------- ------- -- ---------- --- - --- ----- ----- ----<br>---- --- how ----- --- ---- ---- ------- ----- ---- -------<br>--- --- -- ----- -- --- ---- -- --- ---- -- ------ ------<br>--- ----- -- ----,249408.74999994412,249408.15000003204,248749.053,248761.54499989934,248765.91,249416.054,,30,how
screen,html.Screen,2_1_0_1_31,2021-04-27T08:32:22.680Z,,,,,,,,,,,,,,,,,53,,,,,,,,,,,,,,734.7560000210069,,response,,,,99,,,,,,,Space,keypress(Space),,,,,,,,---- -- ----- -- ------ - ------- --- ----------<br>------------- ------ ------ ---- ---- ------- ----- -- ----<br>-------- ------- -- ---------- --- - --- ----- ----- ----<br>---- --- --- close --- ---- ---- ------- ----- ---- -------<br>--- --- -- ----- -- --- ---- -- --- ---- -- ------ ------<br>--- ----- -- ----,250151.44499996677,250150.810000021,249399.353,249408.89499988407,249416.054,250166.422,,31,close
screen,html.Screen,2_1_0_1_32,2021-04-27T08:32:23.316Z,,,,,,,,,,,,,,,,,53,,,,,,,,,,,,,,620.3179998940614,,response,,,,99,,,,,,,Space,keypress(Space),,,,,,,,---- -- ----- -- ------ - ------- --- ----------<br>------------- ------ ------ ---- ---- ------- ----- -- ----<br>-------- ------- -- ---------- --- - --- ----- ----- ----<br>---- --- --- ----- you ---- ---- ------- ----- ---- -------<br>--- --- -- ----- -- --- ---- -- --- ---- -- ------ ------<br>--- ----- -- ----,250787.3449998442,250786.73999989405,250149.685,250151.58999990672,250166.422,250800,,32,you
screen,html.Screen,2_1_0_1_33,2021-04-27T08:32:23.767Z,,,,,,,,,,,,,,,,,53,,,,,,,,,,,,,,438.209999864921,,response,,,,99,,,,,,,Space,keypress(Space),,,,,,,,---- -- ----- -- ------ - ------- --- ----------<br>------------- ------ ------ ---- ---- ------- ----- -- ----<br>-------- ------- -- ---------- --- - --- ----- ----- ----<br>---- --- --- ----- --- feel ---- ------- ----- ---- -------<br>--- --- -- ----- -- --- ---- -- --- ---- -- ------ ------<br>--- ----- -- ----,251238.7999999337,251238.20999986492,250783.319,250787.47499990277,250800,251250.215,,33,feel
screen,html.Screen,2_1_0_1_34,2021-04-27T08:32:24.297Z,,,,,,,,,,,,,,,,,53,,,,,,,,,,,,,,517.3799998665636,,response,,,,99,,,,,,,Space,keypress(Space),,,,,,,,---- -- ----- -- ------ - ------- --- ----------<br>------------- ------ ------ ---- ---- ------- ----- -- ----<br>-------- ------- -- ---------- --- - --- ----- ----- ----<br>---- --- --- ----- --- ---- that ------- ----- ---- -------<br>--- --- -- ----- -- --- ---- -- --- ---- -- ------ ------<br>--- ----- -- ----,251768.41000001878,251767.59499986656,251233.506,251240.26999995112,251250.215,251783.787,,34,that
screen,html.Screen,2_1_0_1_35,2021-04-27T08:32:24.805Z,,,,,,,,,,,,,,,,,53,,,,,,,,,,,,,,492.05799982184544,,response,,,,99,,,,,,,Space,keypress(Space),,,,,,,,---- -- ----- -- ------ - ------- --- ----------<br>------------- ------ ------ ---- ---- ------- ----- -- ----<br>-------- ------- -- ---------- --- - --- ----- ----- ----<br>---- --- --- ----- --- ---- ---- matters ----- ---- -------<br>--- --- -- ----- -- --- ---- -- --- ---- -- ------ ------<br>--- ----- -- ----,252276.54999983497,252275.84499982186,251767.109,251768.5399998445,251783.787,252284.049,,35,matters
screen,html.Screen,2_1_0_1_36,2021-04-27T08:32:25.262Z,,,,,,,,,,,,,,,,,53,,,,,,,,,,,,,,447.96599995775614,,response,,,,99,,,,,,,Space,keypress(Space),,,,,,,,"---- -- ----- -- ------ - ------- --- ----------<br>------------- ------ ------ ---- ---- ------- ----- -- ----<br>-------- ------- -- ---------- --- - --- ----- ----- ----<br>---- --- --- ----- --- ---- ---- ------- most, ---- -------<br>--- --- -- ----- -- --- ---- -- --- ---- -- ------ ------<br>--- ----- -- ----",252733.56499988586,252732.01499995776,252267.325,252277.72499993443,252284.049,252750.928,,36,"most,"
screen,html.Screen,2_1_0_1_37,2021-04-27T08:32:26.069Z,,,,,,,,,,,,,,,,,53,,,,,,,,,,,,,,789.0869999186252,,response,,,,99,,,,,,,Space,keypress(Space),,,,,,,,---- -- ----- -- ------ - ------- --- ----------<br>------------- ------ ------ ---- ---- ------- ----- -- ----<br>-------- ------- -- ---------- --- - --- ----- ----- ----<br>---- --- --- ----- --- ---- ---- ------- ----- it's -------<br>--- --- -- ----- -- --- ---- -- --- ---- -- ------ ------<br>--- ----- -- ----,253540.5549998395,253540.01499991864,252734.213,252734.04499981552,252750.928,253551.252,,37,it's
screen,html.Screen,2_1_0_1_38,2021-04-27T08:32:27.552Z,,,,,,,,,,,,,,,,,53,,,,,,,,,,,,,,1472.1430000256223,,response,,,,99,,,,,,,Space,keypress(Space),,,,,,,,---- -- ----- -- ------ - ------- --- ----------<br>------------- ------ ------ ---- ---- ------- ----- -- ----<br>-------- ------- -- ---------- --- - --- ----- ----- ----<br>---- --- --- ----- --- ---- ---- ------- ----- ---- whether<br>--- --- -- ----- -- --- ---- -- --- ---- -- ------ ------<br>--- ----- -- ----,255024.10999988206,255023.39500002563,253534.563,253540.68499989808,253551.252,255035.269,,38,whether
screen,html.Screen,2_1_0_1_39,2021-04-27T08:32:28.124Z,,,,,,,,,,,,,,,,,53,,,,,,,,,,,,,,560.3709999558923,,response,,,,99,,,,,,,Space,keypress(Space),,,,,,,,---- -- ----- -- ------ - ------- --- ----------<br>------------- ------ ------ ---- ---- ------- ----- -- ----<br>-------- ------- -- ---------- --- - --- ----- ----- ----<br>---- --- --- ----- --- ---- ---- ------- ----- ---- -------<br>you --- -- ----- -- --- ---- -- --- ---- -- ------ ------<br>--- ----- -- ----,255596.23000002466,255595.6399999559,255018.575,255024.29999993183,255035.269,255602.181,,39,you
screen,html.Screen,2_1_0_1_40,2021-04-27T08:32:28.548Z,,,,,,,,,,,,,,,,,53,,,,,,,,,,,,,,417.4389999190753,,response,,,,99,,,,,,,Space,keypress(Space),,,,,,,,---- -- ----- -- ------ - ------- --- ----------<br>------------- ------ ------ ---- ---- ------- ----- -- ----<br>-------- ------- -- ---------- --- - --- ----- ----- ----<br>---- --- --- ----- --- ---- ---- ------- ----- ---- -------<br>--- are -- ----- -- --- ---- -- --- ---- -- ------ ------<br>--- ----- -- ----,256020.27999982238,256019.6199999191,255585.496,255596.3749999646,255602.181,256035.716,,40,are
screen,html.Screen,2_1_0_1_41,2021-04-27T08:32:29.053Z,,,,,,,,,,,,,,,,,53,,,,,,,,,,,,,,488.12899995970656,,response,,,,99,,,,,,,Space,keypress(Space),,,,,,,,---- -- ----- -- ------ - ------- --- ----------<br>------------- ------ ------ ---- ---- ------- ----- -- ----<br>-------- ------- -- ---------- --- - --- ----- ----- ----<br>---- --- --- ----- --- ---- ---- ------- ----- ---- -------<br>--- --- as ----- -- --- ---- -- --- ---- -- ------ ------<br>--- ----- -- ----,256524.50999990106,256523.8449999597,256019.033,256020.40999988094,256035.716,256535.947,,41,as
screen,html.Screen,2_1_0_1_42,2021-04-27T08:32:29.520Z,,,,,,,,,,,,,,,,,53,,,,,,,,,,,,,,455.1829999803449,,response,,,,99,,,,,,,Space,keypress(Space),,,,,,,,---- -- ----- -- ------ - ------- --- ----------<br>------------- ------ ------ ---- ---- ------- ----- -- ----<br>-------- ------- -- ---------- --- - --- ----- ----- ----<br>---- --- --- ----- --- ---- ---- ------- ----- ---- -------<br>--- --- -- close -- --- ---- -- --- ---- -- ------ ------<br>--- ----- -- ----,256991.80499999784,256991.12999998033,256519.235,256524.654999841,256535.947,257002.836,,42,close
screen,html.Screen,2_1_0_1_43,2021-04-27T08:32:29.955Z,,,,,,,,,,,,,,,,,53,,,,,,,,,,,,,,423.5239999248879,,response,,,,99,,,,,,,Space,keypress(Space),,,,,,,,---- -- ----- -- ------ - ------- --- ----------<br>------------- ------ ------ ---- ---- ------- ----- -- ----<br>-------- ------- -- ---------- --- - --- ----- ----- ----<br>---- --- --- ----- --- ---- ---- ------- ----- ---- -------<br>--- --- -- ----- as --- ---- -- --- ---- -- ------ ------<br>--- ----- -- ----,257426.96999991313,257426.3599999249,256986.116,256991.96499981917,257002.836,257436.356,,43,as
screen,html.Screen,2_1_0_1_44,2021-04-27T08:32:30.374Z,,,,,,,,,,,,,,,,,53,,,,,,,,,,,,,,409.1239999017271,,response,,,,99,,,,,,,Space,keypress(Space),,,,,,,,---- -- ----- -- ------ - ------- --- ----------<br>------------- ------ ------ ---- ---- ------- ----- -- ----<br>-------- ------- -- ---------- --- - --- ----- ----- ----<br>---- --- --- ----- --- ---- ---- ------- ----- ---- -------<br>--- --- -- ----- -- you ---- -- --- ---- -- ------ ------<br>--- ----- -- ----,257846.0799998138,257845.47999990173,257419.665,257427.09499993362,257436.356,257853.208,,44,you
screen,html.Screen,2_1_0_1_45,2021-04-27T08:32:30.822Z,,,,,,,,,,,,,,,,,53,,,,,,,,,,,,,,439.8069999447034,,response,,,,99,,,,,,,Space,keypress(Space),,,,,,,,---- -- ----- -- ------ - ------- --- ----------<br>------------- ------ ------ ---- ---- ------- ----- -- ----<br>-------- ------- -- ---------- --- - --- ----- ----- ----<br>---- --- --- ----- --- ---- ---- ------- ----- ---- -------<br>--- --- -- ----- -- --- want -- --- ---- -- ------ ------<br>--- ----- -- ----,258293.89999993145,258293.01499994472,257836.495,257847.7600000333,257853.208,258303.441,,45,want
screen,html.Screen,2_1_0_1_46,2021-04-27T08:32:31.236Z,,,,,,,,,,,,,,,,,53,,,,,,,,,,,,,,403.9639999937499,,response,,,,99,,,,,,,Space,keypress(Space),,,,,,,,---- -- ----- -- ------ - ------- --- ----------<br>------------- ------ ------ ---- ---- ------- ----- -- ----<br>-------- ------- -- ---------- --- - --- ----- ----- ----<br>---- --- --- ----- --- ---- ---- ------- ----- ---- -------<br>--- --- -- ----- -- --- ---- to --- ---- -- ------ ------<br>--- ----- -- ----,258708.16999999806,258707.40499999374,258286.721,258294.06999982893,258303.441,258720.291,,46,to
screen,html.Screen,2_1_0_1_47,2021-04-27T08:32:31.632Z,,,,,,,,,,,,,,,,,53,,,,,,,,,,,,,,383.22399984972435,,response,,,,99,,,,,,,Space,keypress(Space),,,,,,,,"---- -- ----- -- ------ - ------- --- ----------<br>------------- ------ ------ ---- ---- ------- ----- -- ----<br>-------- ------- -- ---------- --- - --- ----- ----- ----<br>---- --- --- ----- --- ---- ---- ------- ----- ---- -------<br>--- --- -- ----- -- --- ---- -- be, ---- -- ------ ------<br>--- ----- -- ----",259104.15499983355,259103.51499984972,258703.582,258708.3499999717,258720.291,259120.46,,47,"be,"
screen,html.Screen,2_1_0_1_48,2021-04-27T08:32:32.240Z,,,,,,,,,,,,,,,,,53,,,,,,,,,,,,,,591.0899998908571,,response,,,,99,,,,,,,Space,keypress(Space),,,,,,,,---- -- ----- -- ------ - ------- --- ----------<br>------------- ------ ------ ---- ---- ------- ----- -- ----<br>-------- ------- -- ---------- --- - --- ----- ----- ----<br>---- --- --- ----- --- ---- ---- ------- ----- ---- -------<br>--- --- -- ----- -- --- ---- -- --- even -- ------ ------<br>--- ----- -- ----,259712.154999841,259711.54999989085,259103.749,259104.3499999214,259120.46,259720.715,,48,even
screen,html.Screen,2_1_0_1_49,2021-04-27T08:32:32.869Z,,,,,,,,,,,,,,,,,53,,,,,,,,,,,,,,619.2549998553877,,response,,,,99,,,,,,,Space,keypress(Space),,,,,,,,---- -- ----- -- ------ - ------- --- ----------<br>------------- ------ ------ ---- ---- ------- ----- -- ----<br>-------- ------- -- ---------- --- - --- ----- ----- ----<br>---- --- --- ----- --- ---- ---- ------- ----- ---- -------<br>--- --- -- ----- -- --- ---- -- --- ---- if ------ ------<br>--- ----- -- ----,260340.66500002518,260339.96999985538,259704.01,259712.28999993764,259720.715,260354.353,,49,if
screen,html.Screen,2_1_0_1_50,2021-04-27T08:32:33.398Z,,,,,,,,,,,,,,,,,53,,,,,,,,,,,,,,514.6870000195922,,response,,,,99,,,,,,,Space,keypress(Space),,,,,,,,---- -- ----- -- ------ - ------- --- ----------<br>------------- ------ ------ ---- ---- ------- ----- -- ----<br>-------- ------- -- ---------- --- - --- ----- ----- ----<br>---- --- --- ----- --- ---- ---- ------- ----- ---- -------<br>--- --- -- ----- -- --- ---- -- --- ---- -- that's ------<br>--- ----- -- ----,260869.65499981306,260869.0400000196,260337.624,260340.7949998509,260354.353,260871.254,,50,that's
screen,html.Screen,2_1_0_1_51,2021-04-27T08:32:33.825Z,,,,,,,,,,,,,,,,,53,,,,,,,,,,,,,,425.2959998536098,,response,,,,99,,,,,,,Space,keypress(Space),,,,,,,,---- -- ----- -- ------ - ------- --- ----------<br>------------- ------ ------ ---- ---- ------- ----- -- ----<br>-------- ------- -- ---------- --- - --- ----- ----- ----<br>---- --- --- ----- --- ---- ---- ------- ----- ---- -------<br>--- --- -- ----- -- --- ---- -- --- ---- -- ------ really<br>--- ----- -- ----,261297.14499996044,261296.5499998536,260854.525,260869.78499987163,260871.254,261304.768,,51,really
screen,html.Screen,2_1_0_1_52,2021-04-27T08:32:34.272Z,,,,,,,,,,,,,,,,,53,,,,,,,,,,,,,,438.0869998439739,,response,,,,99,,,,,,,Space,keypress(Space),,,,,,,,---- -- ----- -- ------ - ------- --- ----------<br>------------- ------ ------ ---- ---- ------- ----- -- ----<br>-------- ------- -- ---------- --- - --- ----- ----- ----<br>---- --- --- ----- --- ---- ---- ------- ----- ---- -------<br>--- --- -- ----- -- --- ---- -- --- ---- -- ------ ------<br>not ----- -- ----,261743.68999991566,261742.85499984398,261288.066,261297.26999998093,261304.768,261754.963,,52,not
screen,html.Screen,2_1_0_1_53,2021-04-27T08:32:34.770Z,,,,,,,,,,,,,,,,,53,,,,,,,,,,,,,,485.90199982514605,,response,,,,99,,,,,,,Space,keypress(Space),,,,,,,,---- -- ----- -- ------ - ------- --- ----------<br>------------- ------ ------ ---- ---- ------- ----- -- ----<br>-------- ------- -- ---------- --- - --- ----- ----- ----<br>---- --- --- ----- --- ---- ---- ------- ----- ---- -------<br>--- --- -- ----- -- --- ---- -- --- ---- -- ------ ------<br>--- close -- ----,262241.4400000125,262240.86499982513,261738.282,261743.81999997422,261754.963,262255.195,,53,close
screen,html.Screen,2_1_0_1_54,2021-04-27T08:32:35.187Z,,,,,,,,,,,,,,,,,53,,,,,,,,,,,,,,403.1099998152931,,response,,,,99,,,,,,,Space,keypress(Space),,,,,,,,---- -- ----- -- ------ - ------- --- ----------<br>------------- ------ ------ ---- ---- ------- ----- -- ----<br>-------- ------- -- ---------- --- - --- ----- ----- ----<br>---- --- --- ----- --- ---- ---- ------- ----- ---- -------<br>--- --- -- ----- -- --- ---- -- --- ---- -- ------ ------<br>--- ----- at ----,262658.9849998709,262658.3049998153,262238.506,262241.56999983825,262255.195,262672.068,,54,at
screen,html.Screen,2_1_0_1_55,2021-04-27T08:32:36.879Z,,,,,,,,,,,,,,,,,53,,,,,,,,,,,,,,1678.1569999437197,,response,,,,99,,,,,,,Space,keypress(Space),,,,,,,,---- -- ----- -- ------ - ------- --- ----------<br>------------- ------ ------ ---- ---- ------- ----- -- ----<br>-------- ------- -- ---------- --- - --- ----- ----- ----<br>---- --- --- ----- --- ---- ---- ------- ----- ---- -------<br>--- --- -- ----- -- --- ---- -- --- ---- -- ------ ------<br>--- ----- -- all.,264350.82499985583,264350.22499994375,262655.345,262659.11499992944,262672.068,264356.14,,55,all.
Item 99,flow.Loop,2_1_0_1,2021-04-27T08:32:36.879Z,,,,,,,,,,,,,,,,,,,,,,,,,,,,,,,37727.823999943736,,completion,,,,,F,,,,,,,,,,,silence,,,,,264351.06499982066,264350.22499994375,226605.712,226606.76999995485,226622.401,264356.14,,,
Question 1,html.Screen,2_1_0_2,2021-04-27T08:32:42.200Z,,,,,,,,,,,,,,,,,,,,,,,,,,,,true,FALSE,,5314.360000007437,,response,,,,99,F,,,,,,FALSE,click #choice-2,,,,silence,,,,,269671.95499991067,269670.50000000745,264339.453,264351.17999999784,264356.14,269675.24,,,
Question 2,html.Screen,2_1_0_3,2021-04-27T08:32:52.152Z,,,,,,,,,,,,,,,,,,,,,,,,,,,,true,TRUE,,9946.169999905163,,response,,,,99,F,,,,,,TRUE,click #choice-1,,,,silence,,,,,279622.79499997385,279621.40999990515,269658.533,269672.09499981254,269675.24,279629.74,,,
Item 99,flow.Sequence,2_1_0,2021-04-27T08:32:52.152Z,,,,,,,,,,,,,,,,,,,,,,,,,,,,,,,63003.54999990517,,completion,,,,,,,,,,,,,,,,,,,,,279623.0049999431,279621.40999990515,216601.163,216609.4349999912,216617.86,279629.74,,,
Holding screen,html.Screen,2_1_1_0,2021-04-27T08:33:02.147Z,,,,,,,,,,,,,,,,,,,,,,,,,,,,,,,10004.564000000013,,timeout,,,,,,,,,,,,,,,,,,,,,289618.3449998498,289617.594,279613.064,279623.14499984495,279629.74,289634.304,,,
screen,html.Screen,2_1_1_1_0,2021-04-27T08:33:03.152Z,,,,,,,,,,,,,,,,,54,,,,,,,,,,,,,,988.3359999577515,,response,,,,100,,,,,,,Space,keypress(Space),,,,,,,,At --- ---- --- ------ ----- ------- ---- -- --- ------- --<br>------- ---------- ------ -- ----- -- ----- -- ---- ------<br>--- ----- --- --- ------ -------- ----- --- ------ ----- --<br>----- ----- ---------- --- --- ------ ------ ---- -- ------<br>------- --- ------ ----- --- ---- ------- -- ---- --- --<br>------- ------,290623.2149999123,290622.63999995776,289617.594,289618.5200000182,289634.304,290634.727,,0,At
screen,html.Screen,2_1_1_1_1,2021-04-27T08:33:04.566Z,,,,,,,,,,,,,,,,,54,,,,,,,,,,,,,,1402.3379998076125,,response,,,,100,,,,,,,Space,keypress(Space),,,,,,,,-- the ---- --- ------ ----- ------- ---- -- --- ------- --<br>------- ---------- ------ -- ----- -- ----- -- ---- ------<br>--- ----- --- --- ------ -------- ----- --- ------ ----- --<br>----- ----- ---------- --- --- ------ ------ ---- -- ------<br>------- --- ------ ----- --- ---- ------- -- ---- --- --<br>------- ------,292037.6450000331,292037.0649998076,290618.039,290623.35000000894,290634.727,292052.067,,1,the
screen,html.Screen,2_1_1_1_2,2021-04-27T08:33:05.194Z,,,,,,,,,,,,,,,,,54,,,,,,,,,,,,,,612.6829999962938,,response,,,,100,,,,,,,Space,keypress(Space),,,,,,,,-- --- time --- ------ ----- ------- ---- -- --- ------- --<br>------- ---------- ------ -- ----- -- ----- -- ---- ------<br>--- ----- --- --- ------ -------- ----- --- ------ ----- --<br>----- ----- ---------- --- --- ------ ------ ---- -- ------<br>------- --- ------ ----- --- ---- ------- -- ---- --- --<br>------- ------,292665.30500003137,292664.7499999963,292035.335,292037.7950000111,292052.067,292668.978,,2,time
screen,html.Screen,2_1_1_1_3,2021-04-27T08:33:05.759Z,,,,,,,,,,,,,,,,,54,,,,,,,,,,,,,,560.1169998423429,,response,,,,100,,,,,,,Space,keypress(Space),,,,,,,,-- --- ---- the ------ ----- ------- ---- -- --- ------- --<br>------- ---------- ------ -- ----- -- ----- -- ---- ------<br>--- ----- --- --- ------ -------- ----- --- ------ ----- --<br>----- ----- ---------- --- --- ------ ------ ---- -- ------<br>------- --- ------ ----- --- ---- ------- -- ---- --- --<br>------- ------,293229.7149999067,293229.09499984235,292652.282,292665.44499993324,292668.978,293235.905,,3,the
screen,html.Screen,2_1_1_1_4,2021-04-27T08:33:06.385Z,,,,,,,,,,,,,,,,,54,,,,,,,,,,,,,,619.7100000076462,,response,,,,100,,,,,,,Space,keypress(Space),,,,,,,,-- --- ---- --- French ----- ------- ---- -- --- ------- --<br>------- ---------- ------ -- ----- -- ----- -- ---- ------<br>--- ----- --- --- ------ -------- ----- --- ------ ----- --<br>----- ----- ---------- --- --- ------ ------ ---- -- ------<br>------- --- ------ ----- --- ---- ------- -- ---- --- --<br>------- ------,293856.18499992415,293855.6150000077,293219.2,293229.8399999272,293235.905,293869.526,,4,French
screen,html.Screen,2_1_1_1_5,2021-04-27T08:33:06.992Z,,,,,,,,,,,,,,,,,54,,,,,,,,,,,,,,593.1339999610209,,response,,,,100,,,,,,,Space,keypress(Space),,,,,,,,-- --- ---- --- ------ crown ------- ---- -- --- ------- --<br>------- ---------- ------ -- ----- -- ----- -- ---- ------<br>--- ----- --- --- ------ -------- ----- --- ------ ----- --<br>----- ----- ---------- --- --- ------ ------ ---- -- ------<br>------- --- ------ ----- --- ---- ------- -- ---- --- --<br>------- ------,294463.28499983065,294462.65999996103,293852.825,293856.3200000208,293869.526,294469.785,,5,crown
screen,html.Screen,2_1_1_1_6,2021-04-27T08:33:07.632Z,,,,,,,,,,,,,,,,,54,,,,,,,,,,,,,,632.9799999596435,,response,,,,100,,,,,,,Space,keypress(Space),,,,,,,,-- --- ---- --- ------ ----- secured ---- -- --- ------- --<br>------- ---------- ------ -- ----- -- ----- -- ---- ------<br>--- ----- --- --- ------ -------- ----- --- ------ ----- --<br>----- ----- ---------- --- --- ------ ------ ---- -- ------<br>------- --- ------ ----- --- ---- ------- -- ---- --- --<br>------- ------,295103.34499995224,295102.7649999596,294453.103,294463.40999985114,294469.785,295120.105,,6,secured
screen,html.Screen,2_1_1_1_7,2021-04-27T08:33:08.074Z,,,,,,,,,,,,,,,,,54,,,,,,,,,,,,,,424.3149999328889,,response,,,,100,,,,,,,Space,keypress(Space),,,,,,,,-- --- ---- --- ------ ----- ------- much -- --- ------- --<br>------- ---------- ------ -- ----- -- ----- -- ---- ------<br>--- ----- --- --- ------ -------- ----- --- ------ ----- --<br>----- ----- ---------- --- --- ------ ------ ---- -- ------<br>------- --- ------ ----- --- ---- ------- -- ---- --- --<br>------- ------,295545.01999984495,295544.41999993287,295103.394,295103.4750000108,295120.105,295553.612,,7,much
screen,html.Screen,2_1_1_1_8,2021-04-27T08:33:08.512Z,,,,,,,,,,,,,,,,,54,,,,,,,,,,,,,,429.238000029407,,response,,,,100,,,,,,,Space,keypress(Space),,,,,,,,-- --- ---- --- ------ ----- ------- ---- of --- ------- --<br>------- ---------- ------ -- ----- -- ----- -- ---- ------<br>--- ----- --- --- ------ -------- ----- --- ------ ----- --<br>----- ----- ---------- --- --- ------ ------ ---- -- ------<br>------- --- ------ ----- --- ---- ------- -- ---- --- --<br>------- ------,295983.49000001326,295982.85000002943,295536.955,295545.17499986105,295553.612,295987.155,,8,of
screen,html.Screen,2_1_1_1_9,2021-04-27T08:33:08.937Z,,,,,,,,,,,,,,,,,54,,,,,,,,,,,,,,420.8499998592306,,response,,,,100,,,,,,,Space,keypress(Space),,,,,,,,-- --- ---- --- ------ ----- ------- ---- -- its ------- --<br>------- ---------- ------ -- ----- -- ----- -- ---- ------<br>--- ----- --- --- ------ -------- ----- --- ------ ----- --<br>----- ----- ---------- --- --- ------ ------ ---- -- ------<br>------- --- ------ ----- --- ---- ------- -- ---- --- --<br>------- ------,296408.6149998475,296408.00499985926,295970.447,295983.61500003375,295987.155,296420.675,,9,its
screen,html.Screen,2_1_1_1_10,2021-04-27T08:33:09.569Z,,,,,,,,,,,,,,,,,54,,,,,,,,,,,,,,618.6549998249975,,response,,,,100,,,,,,,Space,keypress(Space),,,,,,,,-- --- ---- --- ------ ----- ------- ---- -- --- revenue --<br>------- ---------- ------ -- ----- -- ----- -- ---- ------<br>--- ----- --- --- ------ -------- ----- --- ------ ----- --<br>----- ----- ---------- --- --- ------ ------ ---- -- ------<br>------- --- ------ ----- --- ---- ------- -- ---- --- --<br>------- ------,297039.8949999362,297039.329999825,296404,296408.7499999441,296420.675,297054.326,,10,revenue
screen,html.Screen,2_1_1_1_11,2021-04-27T08:33:10.035Z,,,,,,,,,,,,,,,,,54,,,,,,,,,,,,,,451.1190000170609,,response,,,,100,,,,,,,Space,keypress(Space),,,,,,,,-- --- ---- --- ------ ----- ------- ---- -- --- ------- by<br>------- ---------- ------ -- ----- -- ----- -- ---- ------<br>--- ----- --- --- ------ -------- ----- --- ------ ----- --<br>----- ----- ---------- --- --- ------ ------ ---- -- ------<br>------- --- ------ ----- --- ---- ------- -- ---- --- --<br>------- ------,297506.1099999584,297505.44500001706,297037.614,297040.0199999567,297054.326,297521.192,,11,by
screen,html.Screen,2_1_1_1_12,2021-04-27T08:33:10.650Z,,,,,,,,,,,,,,,,,54,,,,,,,,,,,,,,599.6079999169451,,response,,,,100,,,,,,,Space,keypress(Space),,,,,,,,-- --- ---- --- ------ ----- ------- ---- -- --- ------- --<br>issuing ---------- ------ -- ----- -- ----- -- ---- ------<br>--- ----- --- --- ------ -------- ----- --- ------ ----- --<br>----- ----- ---------- --- --- ------ ------ ---- -- ------<br>------- --- ------ ----- --- ---- ------- -- ---- --- --<br>------- ------,298121.65999994613,298120.7999999169,297504.48,297506.2700000126,297521.192,298138.165,,12,issuing
screen,html.Screen,2_1_1_1_13,2021-04-27T08:33:11.330Z,,,,,,,,,,,,,,,,,54,,,,,,,,,,,,,,662.194999993837,,response,,,,100,,,,,,,Space,keypress(Space),,,,,,,,-- --- ---- --- ------ ----- ------- ---- -- --- ------- --<br>------- government ------ -- ----- -- ----- -- ---- ------<br>--- ----- --- --- ------ -------- ----- --- ------ ----- --<br>----- ----- ---------- --- --- ------ ------ ---- -- ------<br>------- --- ------ ----- --- ---- ------- -- ---- --- --<br>------- ------,298801.0199998971,298800.3599999938,298121.433,298121.9249998685,298138.165,298805.098,,13,government
screen,html.Screen,2_1_1_1_14,2021-04-27T08:33:11.808Z,,,,,,,,,,,,,,,,,54,,,,,,,,,,,,,,472.9819998436142,,response,,,,100,,,,,,,Space,keypress(Space),,,,,,,,-- --- ---- --- ------ ----- ------- ---- -- --- ------- --<br>------- ---------- bonds. -- ----- -- ----- -- ---- ------<br>--- ----- --- --- ------ -------- ----- --- ------ ----- --<br>----- ----- ---------- --- --- ------ ------ ---- -- ------<br>------- --- ------ ----- --- ---- ------- -- ---- --- --<br>------- ------,299278.7549998611,299278.0799998436,298788.408,298801.16499983706,298805.098,299288.637,,14,bonds.
screen,html.Screen,2_1_1_1_15,2021-04-27T08:33:12.397Z,,,,,,,,,,,,,,,,,54,,,,,,,,,,,,,,578.478000030038,,response,,,,100,,,,,,,Space,keypress(Space),,,,,,,,-- --- ---- --- ------ ----- ------- ---- -- --- ------- --<br>------- ---------- ------ In ----- -- ----- -- ---- ------<br>--- ----- --- --- ------ -------- ----- --- ------ ----- --<br>----- ----- ---------- --- --- ------ ------ ---- -- ------<br>------- --- ------ ----- --- ---- ------- -- ---- --- --<br>------- ------,299867.70499986596,299867.11500003,299271.963,299278.87499984354,299288.637,299872.301,,15,In
screen,html.Screen,2_1_1_1_16,2021-04-27T08:33:14.106Z,,,,,,,,,,,,,,,,,54,,,,,,,,,,,,,,1703.8539999006316,,response,,,,100,,,,,,,Space,keypress(Space),,,,,,,,"-- --- ---- --- ------ ----- ------- ---- -- --- ------- --<br>------- ---------- ------ -- 1727, -- ----- -- ---- ------<br>--- ----- --- --- ------ -------- ----- --- ------ ----- --<br>----- ----- ---------- --- --- ------ ------ ---- -- ------<br>------- --- ------ ----- --- ---- ------- -- ---- --- --<br>------- ------",301576.75999985076,301576.1549999006,299855.534,299867.82999988645,299872.301,301589.717,,16,"1727,"
screen,html.Screen,2_1_1_1_17,2021-04-27T08:33:14.676Z,,,,,,,,,,,,,,,,,54,,,,,,,,,,,,,,556.5579999482143,,response,,,,100,,,,,,,Space,keypress(Space),,,,,,,,-- --- ---- --- ------ ----- ------- ---- -- --- ------- --<br>------- ---------- ------ -- ----- in ----- -- ---- ------<br>--- ----- --- --- ------ -------- ----- --- ------ ----- --<br>----- ----- ---------- --- --- ------ ------ ---- -- ------<br>------- --- ------ ----- --- ---- ------- -- ---- --- --<br>------- ------,302146.8950000126,302146.2749999482,301572.996,301576.91499986686,301589.717,302156.634,,17,in
screen,html.Screen,2_1_1_1_18,2021-04-27T08:33:15.268Z,,,,,,,,,,,,,,,,,54,,,,,,,,,,,,,,581.575999864901,,response,,,,100,,,,,,,Space,keypress(Space),,,,,,,,-- --- ---- --- ------ ----- ------- ---- -- --- ------- --<br>------- ---------- ------ -- ----- -- order -- ---- ------<br>--- ----- --- --- ------ -------- ----- --- ------ ----- --<br>----- ----- ---------- --- --- ------ ------ ---- -- ------<br>------- --- ------ ----- --- ---- ------- -- ---- --- --<br>------- ------,302738.7649999,302738.2099998649,302139.91,302147.014999995,302156.634,302740.212,,18,order
screen,html.Screen,2_1_1_1_19,2021-04-27T08:33:15.670Z,,,,,,,,,,,,,,,,,54,,,,,,,,,,,,,,400.17799984040903,,response,,,,100,,,,,,,Space,keypress(Space),,,,,,,,-- --- ---- --- ------ ----- ------- ---- -- --- ------- --<br>------- ---------- ------ -- ----- -- ----- to ---- ------<br>--- ----- --- --- ------ -------- ----- --- ------ ----- --<br>----- ----- ---------- --- --- ------ ------ ---- -- ------<br>------- --- ------ ----- --- ---- ------- -- ---- --- --<br>------- ------,303140.9449998755,303140.3899998404,302723.518,302738.8899999205,302740.212,303157.082,,19,to
screen,html.Screen,2_1_1_1_20,2021-04-27T08:33:16.123Z,,,,,,,,,,,,,,,,,54,,,,,,,,,,,,,,436.892999850621,,response,,,,100,,,,,,,Space,keypress(Space),,,,,,,,-- --- ---- --- ------ ----- ------- ---- -- --- ------- --<br>------- ---------- ------ -- ----- -- ----- -- save ------<br>--- ----- --- --- ------ -------- ----- --- ------ ----- --<br>----- ----- ---------- --- --- ------ ------ ---- -- ------<br>------- --- ------ ----- --- ---- ------- -- ---- --- --<br>------- ------,303594.6549999062,303593.9749998506,303140.359,303141.0999998916,303157.082,303607.278,,20,save
screen,html.Screen,2_1_1_1_21,2021-04-27T08:33:16.603Z,,,,,,,,,,,,,,,,,54,,,,,,,,,,,,,,466.21699990233174,,response,,,,100,,,,,,,Space,keypress(Space),,,,,,,,"-- --- ---- --- ------ ----- ------- ---- -- --- ------- --<br>------- ---------- ------ -- ----- -- ----- -- ---- money,<br>--- ----- --- --- ------ -------- ----- --- ------ ----- --<br>----- ----- ---------- --- --- ------ ------ ---- -- ------<br>------- --- ------ ----- --- ---- ------- -- ---- --- --<br>------- ------",304074.0549999755,304073.4949999023,303590.619,303594.78499996476,303607.278,304090.847,,21,"money,"
screen,html.Screen,2_1_1_1_22,2021-04-27T08:33:17.036Z,,,,,,,,,,,,,,,,,54,,,,,,,,,,,,,,415.3779999027611,,response,,,,100,,,,,,,Space,keypress(Space),,,,,,,,-- --- ---- --- ------ ----- ------- ---- -- --- ------- --<br>------- ---------- ------ -- ----- -- ----- -- ---- ------<br>the ----- --- --- ------ -------- ----- --- ------ ----- --<br>----- ----- ---------- --- --- ------ ------ ---- -- ------<br>------- --- ------ ----- --- ---- ------- -- ---- --- --<br>------- ------,304506.81499997154,304506.22499990277,304074.139,304074.179999996,304090.847,304525.661,,22,the
screen,html.Screen,2_1_1_1_23,2021-04-27T08:33:17.597Z,,,,,,,,,,,,,,,,,54,,,,,,,,,,,,,,541.5989999233861,,response,,,,100,,,,,,,Space,keypress(Space),,,,,,,,-- --- ---- --- ------ ----- ------- ---- -- --- ------- --<br>------- ---------- ------ -- ----- -- ----- -- ---- ------<br>--- state --- --- ------ -------- ----- --- ------ ----- --<br>----- ----- ---------- --- --- ------ ------ ---- -- ------<br>------- --- ------ ----- --- ---- ------- -- ---- --- --<br>------- ------,305067.8199999966,305067.2599999234,304490.983,304506.9549998734,304525.661,305074.591,,23,state
screen,html.Screen,2_1_1_1_24,2021-04-27T08:33:17.951Z,,,,,,,,,,,,,,,,,54,,,,,,,,,,,,,,347.16400001756847,,response,,,,100,,,,,,,Space,keypress(Space),,,,,,,,-- --- ---- --- ------ ----- ------- ---- -- --- ------- --<br>------- ---------- ------ -- ----- -- ----- -- ---- ------<br>--- ----- cut --- ------ -------- ----- --- ------ ----- --<br>----- ----- ---------- --- --- ------ ------ ---- -- ------<br>------- --- ------ ----- --- ---- ------- -- ---- --- --<br>------- ------,305422.33999981545,305421.7550000176,305057.916,305067.9499998223,305074.591,305424.761,,24,cut
screen,html.Screen,2_1_1_1_25,2021-04-27T08:33:18.310Z,,,,,,,,,,,,,,,,,54,,,,,,,,,,,,,,356.06899982871255,,response,,,,100,,,,,,,Space,keypress(Space),,,,,,,,-- --- ---- --- ------ ----- ------- ---- -- --- ------- --<br>------- ---------- ------ -- ----- -- ----- -- ---- ------<br>--- ----- --- the ------ -------- ----- --- ------ ----- --<br>----- ----- ---------- --- --- ------ ------ ---- -- ------<br>------- --- ------ ----- --- ---- ------- -- ---- --- --<br>------- ------,305781.4299999736,305780.8299998287,305408.061,305422.469999874,305424.761,305791.603,,25,the
screen,html.Screen,2_1_1_1_26,2021-04-27T08:33:18.655Z,,,,,,,,,,,,,,,,,54,,,,,,,,,,,,,,334.1919999999227,,response,,,,100,,,,,,,Space,keypress(Space),,,,,,,,-- --- ---- --- ------ ----- ------- ---- -- --- ------- --<br>------- ---------- ------ -- ----- -- ----- -- ---- ------<br>--- ----- --- --- bonds' -------- ----- --- ------ ----- --<br>----- ----- ---------- --- --- ------ ------ ---- -- ------<br>------- --- ------ ----- --- ---- ------- -- ---- --- --<br>------- ------,306126.44000002183,306125.7949999999,305774.881,305781.54999995604,305791.603,306141.748,,26,bonds'
screen,html.Screen,2_1_1_1_27,2021-04-27T08:33:19.485Z,,,,,,,,,,,,,,,,,54,,,,,,,,,,,,,,814.2019998576725,,response,,,,100,,,,,,,Space,keypress(Space),,,,,,,,-- --- ---- --- ------ ----- ------- ---- -- --- ------- --<br>------- ---------- ------ -- ----- -- ----- -- ---- ------<br>--- ----- --- --- ------ interest ----- --- ------ ----- --<br>----- ----- ---------- --- --- ------ ------ ---- -- ------<br>------- --- ------ ----- --- ---- ------- -- ---- --- --<br>------- ------,306956.5599998459,306955.9499998577,306125.057,306126.5799999237,306141.748,306958.799,,27,interest
screen,html.Screen,2_1_1_1_28,2021-04-27T08:33:19.979Z,,,,,,,,,,,,,,,,,54,,,,,,,,,,,,,,490.98599994613323,,response,,,,100,,,,,,,Space,keypress(Space),,,,,,,,-- --- ---- --- ------ ----- ------- ---- -- --- ------- --<br>------- ---------- ------ -- ----- -- ----- -- ---- ------<br>--- ----- --- --- ------ -------- rate. --- ------ ----- --<br>----- ----- ---------- --- --- ------ ------ ---- -- ------<br>------- --- ------ ----- --- ---- ------- -- ---- --- --<br>------- ------,307450.40999981575,307449.78499994613,306942.088,306956.6899999045,306958.799,307459.035,,28,rate.
screen,html.Screen,2_1_1_1_29,2021-04-27T08:33:20.643Z,,,,,,,,,,,,,,,,,54,,,,,,,,,,,,,,654.9399998692679,,response,,,,100,,,,,,,Space,keypress(Space),,,,,,,,-- --- ---- --- ------ ----- ------- ---- -- --- ------- --<br>------- ---------- ------ -- ----- -- ----- -- ---- ------<br>--- ----- --- --- ------ -------- ----- The ------ ----- --<br>----- ----- ---------- --- --- ------ ------ ---- -- ------<br>------- --- ------ ----- --- ---- ------- -- ---- --- --<br>------- ------,308114.66500000097,308113.97499986924,307442.315,307450.5449999124,307459.035,308125.997,,29,The
screen,html.Screen,2_1_1_1_30,2021-04-27T08:33:21.388Z,,,,,,,,,,,,,,,,,54,,,,,,,,,,,,,,732.2529998156242,,response,,,,100,,,,,,,Space,keypress(Space),,,,,,,,-- --- ---- --- ------ ----- ------- ---- -- --- ------- --<br>------- ---------- ------ -- ----- -- ----- -- ---- ------<br>--- ----- --- --- ------ -------- ----- --- market ----- --<br>----- ----- ---------- --- --- ------ ------ ---- -- ------<br>------- --- ------ ----- --- ---- ------- -- ---- --- --<br>------- ------,308858.84499992244,308858.2499998156,308109.288,308114.7949998267,308125.997,308877.599,,30,market
screen,html.Screen,2_1_1_1_31,2021-04-27T08:33:21.796Z,,,,,,,,,,,,,,,,,54,,,,,,,,,,,,,,389.4360000262386,,response,,,,100,,,,,,,Space,keypress(Space),,,,,,,,-- --- ---- --- ------ ----- ------- ---- -- --- ------- --<br>------- ---------- ------ -- ----- -- ----- -- ---- ------<br>--- ----- --- --- ------ -------- ----- --- ------ value --<br>----- ----- ---------- --- --- ------ ------ ---- -- ------<br>------- --- ------ ----- --- ---- ------- -- ---- --- --<br>------- ------,309267.59499986656,309267.0350000262,308842.944,308858.9849998243,308877.599,309276.539,,31,value
screen,html.Screen,2_1_1_1_32,2021-04-27T08:33:22.220Z,,,,,,,,,,,,,,,,,54,,,,,,,,,,,,,,413.65600003197324,,response,,,,100,,,,,,,Space,keypress(Space),,,,,,,,-- --- ---- --- ------ ----- ------- ---- -- --- ------- --<br>------- ---------- ------ -- ----- -- ----- -- ---- ------<br>--- ----- --- --- ------ -------- ----- --- ------ ----- of<br>----- ----- ---------- --- --- ------ ------ ---- -- ------<br>------- --- ------ ----- --- ---- ------- -- ---- --- --<br>------- ------,309690.79499994405,309690.19500003196,309259.813,309267.71999988705,309276.539,309693.362,,32,of
screen,html.Screen,2_1_1_1_33,2021-04-27T08:33:23.137Z,,,,,,,,,,,,,,,,,54,,,,,,,,,,,,,,914.0529999767314,,response,,,,100,,,,,,,Space,keypress(Space),,,,,,,,-- --- ---- --- ------ ----- ------- ---- -- --- ------- --<br>------- ---------- ------ -- ----- -- ----- -- ---- ------<br>--- ----- --- --- ------ -------- ----- --- ------ ----- --<br>these ----- ---------- --- --- ------ ------ ---- -- ------<br>------- --- ------ ----- --- ---- ------- -- ---- --- --<br>------- ------,310607.98499989323,310607.41499997675,309676.671,309690.91999996454,309693.362,310610.451,,33,these
screen,html.Screen,2_1_1_1_34,2021-04-27T08:33:23.784Z,,,,,,,,,,,,,,,,,54,,,,,,,,,,,,,,643.5890000289073,,response,,,,100,,,,,,,Space,keypress(Space),,,,,,,,-- --- ---- --- ------ ----- ------- ---- -- --- ------- --<br>------- ---------- ------ -- ----- -- ----- -- ---- ------<br>--- ----- --- --- ------ -------- ----- --- ------ ----- --<br>----- bonds ---------- --- --- ------ ------ ---- -- ------<br>------- --- ------ ----- --- ---- ------- -- ---- --- --<br>------- ------,311254.6999999322,311254.0400000289,310593.727,310608.1099999137,310610.451,311260.733,,34,bonds
screen,html.Screen,2_1_1_1_35,2021-04-27T08:33:26.072Z,,,,,,,,,,,,,,,,,54,,,,,,,,,,,,,,2282.2269999915734,,response,,,,100,,,,,,,Space,keypress(Space),,,,,,,,"-- --- ---- --- ------ ----- ------- ---- -- --- ------- --<br>------- ---------- ------ -- ----- -- ----- -- ---- ------<br>--- ----- --- --- ------ -------- ----- --- ------ ----- --<br>----- ----- plummeted, --- --- ------ ------ ---- -- ------<br>------- --- ------ ----- --- ---- ------- -- ---- --- --<br>------- ------",313543.52999990806,313542.9599999916,311244.039,311254.82999999076,311260.733,313545.113,,35,"plummeted,"
screen,html.Screen,2_1_1_1_36,2021-04-27T08:33:26.590Z,,,,,,,,,,,,,,,,,54,,,,,,,,,,,,,,515.121999982628,,response,,,,100,,,,,,,Space,keypress(Space),,,,,,,,-- --- ---- --- ------ ----- ------- ---- -- --- ------- --<br>------- ---------- ------ -- ----- -- ----- -- ---- ------<br>--- ----- --- --- ------ -------- ----- --- ------ ----- --<br>----- ----- ---------- and --- ------ ------ ---- -- ------<br>------- --- ------ ----- --- ---- ------- -- ---- --- --<br>------- ------,314060.91999984346,314060.23499998264,313528.39,313543.65499992855,313545.113,314079.304,,36,and
screen,html.Screen,2_1_1_1_37,2021-04-27T08:33:27.061Z,,,,,,,,,,,,,,,,,54,,,,,,,,,,,,,,452.5259999926202,,response,,,,100,,,,,,,Space,keypress(Space),,,,,,,,-- --- ---- --- ------ ----- ------- ---- -- --- ------- --<br>------- ---------- ------ -- ----- -- ----- -- ---- ------<br>--- ----- --- --- ------ -------- ----- --- ------ ----- --<br>----- ----- ---------- --- the ------ ------ ---- -- ------<br>------- --- ------ ----- --- ---- ------- -- ---- --- --<br>------- ------,314532.46999997646,314531.8299999926,314045.305,314061.05999997817,314079.304,314545.553,,37,the
screen,html.Screen,2_1_1_1_38,2021-04-27T08:33:27.558Z,,,,,,,,,,,,,,,,,54,,,,,,,,,,,,,,482.65699990215944,,response,,,,100,,,,,,,Space,keypress(Space),,,,,,,,-- --- ---- --- ------ ----- ------- ---- -- --- ------- --<br>------- ---------- ------ -- ----- -- ----- -- ---- ------<br>--- ----- --- --- ------ -------- ----- --- ------ ----- --<br>----- ----- ---------- --- --- market ------ ---- -- ------<br>------- --- ------ ----- --- ---- ------- -- ---- --- --<br>------- ------,315029.0200000163,315028.2099999022,314528.889,314532.5899999589,314545.553,315045.778,,38,market
screen,html.Screen,2_1_1_1_39,2021-04-27T08:33:28.012Z,,,,,,,,,,,,,,,,,54,,,,,,,,,,,,,,436.4519999650656,,response,,,,100,,,,,,,Space,keypress(Space),,,,,,,,-- --- ---- --- ------ ----- ------- ---- -- --- ------- --<br>------- ---------- ------ -- ----- -- ----- -- ---- ------<br>--- ----- --- --- ------ -------- ----- --- ------ ----- --<br>----- ----- ---------- --- --- ------ became ---- -- ------<br>------- --- ------ ----- --- ---- ------- -- ---- --- --<br>------- ------,315482.85000002943,315482.22999996506,315029.099,315029.16499995627,315045.778,315495.985,,39,became
screen,html.Screen,2_1_1_1_40,2021-04-27T08:33:28.490Z,,,,,,,,,,,,,,,,,54,,,,,,,,,,,,,,464.67499986605253,,response,,,,100,,,,,,,Space,keypress(Space),,,,,,,,-- --- ---- --- ------ ----- ------- ---- -- --- ------- --<br>------- ---------- ------ -- ----- -- ----- -- ---- ------<br>--- ----- --- --- ------ -------- ----- --- ------ ----- --<br>----- ----- ---------- --- --- ------ ------ wary -- ------<br>------- --- ------ ----- --- ---- ------- -- ---- --- --<br>------- ------,315961.29999984987,315960.65999986604,315479.301,315482.9749998171,315495.985,315962.874,,40,wary
screen,html.Screen,2_1_1_1_41,2021-04-27T08:33:29.025Z,,,,,,,,,,,,,,,,,54,,,,,,,,,,,,,,532.4709999447805,,response,,,,100,,,,,,,Space,keypress(Space),,,,,,,,-- --- ---- --- ------ ----- ------- ---- -- --- ------- --<br>------- ---------- ------ -- ----- -- ----- -- ---- ------<br>--- ----- --- --- ------ -------- ----- --- ------ ----- --<br>----- ----- ---------- --- --- ------ ------ ---- of ------<br>------- --- ------ ----- --- ---- ------- -- ---- --- --<br>------- ------,316495.9449998569,316495.3449999448,315946.166,315961.42999990843,315962.874,316529.816,,41,of
screen,html.Screen,2_1_1_1_42,2021-04-27T08:33:29.518Z,,,,,,,,,,,,,,,,,54,,,,,,,,,,,,,,458.99400000984315,,response,,,,100,,,,,,,Space,keypress(Space),,,,,,,,-- --- ---- --- ------ ----- ------- ---- -- --- ------- --<br>------- ---------- ------ -- ----- -- ----- -- ---- ------<br>--- ----- --- --- ------ -------- ----- --- ------ ----- --<br>----- ----- ---------- --- --- ------ ------ ---- -- French<br>------- --- ------ ----- --- ---- ------- -- ---- --- --<br>------- ------,316989.4299998414,316988.81000000983,316513.102,316496.07499991544,316529.816,316996.667,,42,French
screen,html.Screen,2_1_1_1_43,2021-04-27T08:33:29.942Z,,,,,,,,,,,,,,,,,54,,,,,,,,,,,,,,416.082999901264,,response,,,,100,,,,,,,Space,keypress(Space),,,,,,,,-- --- ---- --- ------ ----- ------- ---- -- --- ------- --<br>------- ---------- ------ -- ----- -- ----- -- ---- ------<br>--- ----- --- --- ------ -------- ----- --- ------ ----- --<br>----- ----- ---------- --- --- ------ ------ ---- -- ------<br>credit. --- ------ ----- --- ---- ------- -- ---- --- --<br>------- ------,317413.3750000037,317412.7499999013,316979.984,316989.564999938,316996.667,317430.222,,43,credit.
screen,html.Screen,2_1_1_1_44,2021-04-27T08:33:30.649Z,,,,,,,,,,,,,,,,,54,,,,,,,,,,,,,,689.452999965346,,response,,,,100,,,,,,,Space,keypress(Space),,,,,,,,-- --- ---- --- ------ ----- ------- ---- -- --- ------- --<br>------- ---------- ------ -- ----- -- ----- -- ---- ------<br>--- ----- --- --- ------ -------- ----- --- ------ ----- --<br>----- ----- ---------- --- --- ------ ------ ---- -- ------<br>------- The ------ ----- --- ---- ------- -- ---- --- --<br>------- ------,318120.36499986425,318119.67499996535,317413.51,317413.52499998175,317430.222,318130.518,,44,The
screen,html.Screen,2_1_1_1_45,2021-04-27T08:33:31.170Z,,,,,,,,,,,,,,,,,54,,,,,,,,,,,,,,509.7919999297592,,response,,,,100,,,,,,,Space,keypress(Space),,,,,,,,-- --- ---- --- ------ ----- ------- ---- -- --- ------- --<br>------- ---------- ------ -- ----- -- ----- -- ---- ------<br>--- ----- --- --- ------ -------- ----- --- ------ ----- --<br>----- ----- ---------- --- --- ------ ------ ---- -- ------<br>------- --- French ----- --- ---- ------- -- ---- --- --<br>------- ------,318640.88999992236,318640.30999992974,318113.818,318120.4949999228,318130.518,318647.413,,45,French
screen,html.Screen,2_1_1_1_46,2021-04-27T08:33:31.620Z,,,,,,,,,,,,,,,,,54,,,,,,,,,,,,,,442.7369998290087,,response,,,,100,,,,,,,Space,keypress(Space),,,,,,,,-- --- ---- --- ------ ----- ------- ---- -- --- ------- --<br>------- ---------- ------ -- ----- -- ----- -- ---- ------<br>--- ----- --- --- ------ -------- ----- --- ------ ----- --<br>----- ----- ---------- --- --- ------ ------ ---- -- ------<br>------- --- ------ state --- ---- ------- -- ---- --- --<br>------- ------,319090.7399998978,319090.149999829,318630.747,318641.0199999809,318647.413,319097.634,,46,state
screen,html.Screen,2_1_1_1_47,2021-04-27T08:33:32.034Z,,,,,,,,,,,,,,,,,54,,,,,,,,,,,,,,406.60099988389993,,response,,,,100,,,,,,,Space,keypress(Space),,,,,,,,-- --- ---- --- ------ ----- ------- ---- -- --- ------- --<br>------- ---------- ------ -- ----- -- ----- -- ---- ------<br>--- ----- --- --- ------ -------- ----- --- ------ ----- --<br>----- ----- ---------- --- --- ------ ------ ---- -- ------<br>------- --- ------ ----- was ---- ------- -- ---- --- --<br>------- ------,319504.9149999395,319504.2349998839,319080.926,319090.86999995634,319097.634,319514.498,,47,was
screen,html.Screen,2_1_1_1_48,2021-04-27T08:33:32.454Z,,,,,,,,,,,,,,,,,54,,,,,,,,,,,,,,409.70200000854675,,response,,,,100,,,,,,,Space,keypress(Space),,,,,,,,-- --- ---- --- ------ ----- ------- ---- -- --- ------- --<br>------- ---------- ------ -- ----- -- ----- -- ---- ------<br>--- ----- --- --- ------ -------- ----- --- ------ ----- --<br>----- ----- ---------- --- --- ------ ------ ---- -- ------<br>------- --- ------ ----- --- left ------- -- ---- --- --<br>------- ------,319924.8099999968,319924.20000000857,319497.787,319505.0549998414,319514.498,319931.323,,48,left
screen,html.Screen,2_1_1_1_49,2021-04-27T08:33:32.910Z,,,,,,,,,,,,,,,,,54,,,,,,,,,,,,,,448.83699994243216,,response,,,,100,,,,,,,Space,keypress(Space),,,,,,,,-- --- ---- --- ------ ----- ------- ---- -- --- ------- --<br>------- ---------- ------ -- ----- -- ----- -- ---- ------<br>--- ----- --- --- ------ -------- ----- --- ------ ----- --<br>----- ----- ---------- --- --- ------ ------ ---- -- ------<br>------- --- ------ ----- --- ---- without -- ---- --- --<br>------- ------,320380.8249998838,320380.1599999424,319914.635,319924.9499998987,319931.323,320399.169,,49,without
screen,html.Screen,2_1_1_1_50,2021-04-27T08:33:33.368Z,,,,,,,,,,,,,,,,,54,,,,,,,,,,,,,,439.5309999638703,,response,,,,100,,,,,,,Space,keypress(Space),,,,,,,,-- --- ---- --- ------ ----- ------- ---- -- --- ------- --<br>------- ---------- ------ -- ----- -- ----- -- ---- ------<br>--- ----- --- --- ------ -------- ----- --- ------ ----- --<br>----- ----- ---------- --- --- ------ ------ ---- -- ------<br>------- --- ------ ----- --- ---- ------- an ---- --- --<br>------- ------,320839.6599998232,320838.69999996386,320364.84,320381.034999853,320399.169,320848.417,,50,an
screen,html.Screen,2_1_1_1_51,2021-04-27T08:33:33.830Z,,,,,,,,,,,,,,,,,54,,,,,,,,,,,,,,451.82300001138356,,response,,,,100,,,,,,,Space,keypress(Space),,,,,,,,-- --- ---- --- ------ ----- ------- ---- -- --- ------- --<br>------- ---------- ------ -- ----- -- ----- -- ---- ------<br>--- ----- --- --- ------ -------- ----- --- ------ ----- --<br>----- ----- ---------- --- --- ------ ------ ---- -- ------<br>------- --- ------ ----- --- ---- ------- -- easy --- --<br>------- ------,321300.87999999523,321300.2400000114,320831.711,320840.149999829,320848.417,321315.308,,51,easy
screen,html.Screen,2_1_1_1_52,2021-04-27T08:33:34.358Z,,,,,,,,,,,,,,,,,54,,,,,,,,,,,,,,513.4519999457407,,response,,,,100,,,,,,,Space,keypress(Space),,,,,,,,-- --- ---- --- ------ ----- ------- ---- -- --- ------- --<br>------- ---------- ------ -- ----- -- ----- -- ---- ------<br>--- ----- --- --- ------ -------- ----- --- ------ ----- --<br>----- ----- ---------- --- --- ------ ------ ---- -- ------<br>------- --- ------ ----- --- ---- ------- -- ---- way --<br>------- ------,321829.475000035,321828.75999994576,321298.588,321301.01499985904,321315.308,321832.188,,52,way
screen,html.Screen,2_1_1_1_53,2021-04-27T08:33:34.763Z,,,,,,,,,,,,,,,,,54,,,,,,,,,,,,,,401.33200000884244,,response,,,,100,,,,,,,Space,keypress(Space),,,,,,,,-- --- ---- --- ------ ----- ------- ---- -- --- ------- --<br>------- ---------- ------ -- ----- -- ----- -- ---- ------<br>--- ----- --- --- ------ -------- ----- --- ------ ----- --<br>----- ----- ---------- --- --- ------ ------ ---- -- ------<br>------- --- ------ ----- --- ---- ------- -- ---- --- of<br>------- ------,322234.225000022,322233.52000000887,321815.488,321829.5999998227,321832.188,322249.04,,53,of
screen,html.Screen,2_1_1_1_54,2021-04-27T08:33:35.496Z,,,,,,,,,,,,,,,,,54,,,,,,,,,,,,,,717.7550000148476,,response,,,,100,,,,,,,Space,keypress(Space),,,,,,,,-- --- ---- --- ------ ----- ------- ---- -- --- ------- --<br>------- ---------- ------ -- ----- -- ----- -- ---- ------<br>--- ----- --- --- ------ -------- ----- --- ------ ----- --<br>----- ----- ---------- --- --- ------ ------ ---- -- ------<br>------- --- ------ ----- --- ---- ------- -- ---- --- --<br>raising ------,322967.38499985076,322966.7950000148,322232.364,322234.3699999619,322249.04,322982.766,,54,raising
screen,html.Screen,2_1_1_1_55,2021-04-27T08:33:35.999Z,,,,,,,,,,,,,,,,,54,,,,,,,,,,,,,,486.79899991938146,,response,,,,100,,,,,,,Space,keypress(Space),,,,,,,,-- --- ---- --- ------ ----- ------- ---- -- --- ------- --<br>------- ---------- ------ -- ----- -- ----- -- ---- ------<br>--- ----- --- --- ------ -------- ----- --- ------ ----- --<br>----- ----- ---------- --- --- ------ ------ ---- -- ------<br>------- --- ------ ----- --- ---- ------- -- ---- --- --<br>------- money.,323470.25000001304,323469.5649999194,322966.012,322967.5049998332,322982.766,323482.944,,55,money.
Item 100,flow.Loop,2_1_1_1,2021-04-27T08:33:35.999Z,,,,,,,,,,,,,,,,,,,,,,,,,,,,,,,33835.26099991938,,completion,,,,,F,,,,,,,,,,,silence,,,,,323470.49500001594,323469.5649999194,289617.594,289618.47999994643,289634.304,323482.944,,,
Question 1,html.Screen,2_1_1_2,2021-04-27T08:33:40.124Z,,,,,,,,,,,,,,,,,,,,,,,,,,,,true,TRUE,,4111.021000007284,,response,,,,100,F,,,,,,TRUE,click #choice-1,,,,silence,,,,,327595.4899999779,327593.9650000073,323466.273,323470.5949998461,323482.944,327601.496,,,
Question 2,html.Screen,2_1_1_3,2021-04-27T08:33:43.185Z,,,,,,,,,,,,,,,,,,,,,,,,,,,,true,FALSE,,3052.898999844969,,response,,,,100,F,,,,,,FALSE,click #choice-2,,,,silence,,,,,330655.7549999561,330654.39499984495,327584.793,327595.62999987975,327601.496,330669.528,,,
Item 100,flow.Sequence,2_1_1,2021-04-27T08:33:43.185Z,,,,,,,,,,,,,,,,,,,,,,,,,,,,,,,51024.65499984496,,completion,,,,,,,,,,,,,,,,,,,,,330655.9499998111,330654.39499984495,279613.064,279623.11499984935,279629.74,330669.528,,,
End of Practice,html.Page,2_1_2,2021-04-27T08:33:49.594Z,,,,,,,,,,,,,,,,,,,,,,,,,,,,,,,6395.796999857703,,form submission,,,,,,,,,,,,,,,,,,,,,337065.5600000173,337065.3249998577,330652.838,330656.05499991216,330669.528,337072.457,,,
Practice,flow.Sequence,2_1,2021-04-27T08:33:49.594Z,,,,,,,,,,,,,,,,,,,,,,,,,,,,,,,120447.46499985771,,completion,,,,,,,,,,,,,,,,,,,,,337065.75999991037,337065.3249998577,216601.163,216609.3849998433,216617.86,337072.457,,,
Trap_instruction,html.Page,2_2_0,2021-04-27T08:33:57.137Z,,,,,,,,,,,,,,,,,,,,,,,,,,,,,,,7535.347999919613,,form submission,,,,,,,,,,,,,,,,,,,,,344608.05999999866,344607.8049999196,337055.746,337065.89999981225,337072.457,344742.588,,,
trap_trial,html.Screen,2_2_1,2021-04-27T08:34:00.617Z,,,,,,,,,,,,,,,,,,,,,,,,,,,,true,1,,3344.3369999523275,,response,,,,,,,,,,,1,click #choice-1,,,,,,,,,348088.4950000327,348086.9249999523,344592.483,344608.18500001915,344742.588,348094.176,,,
end of trap trial,html.Page,2_2_2,2021-04-27T08:34:03.193Z,,,,,,,,,,,,,,,,,,,,,,,,,,,,,,,2570.438999899663,,form submission,,,,,,,,,,,,,,,,,,,,,350664.8199998308,350664.61499989964,348077.42,348088.63999997266,348094.176,350678.615,,,
Trap 1,flow.Sequence,2_2,2021-04-27T08:34:03.194Z,,,,,,,,,,,,,,,,,,,,,,,,,,,,,,,13592.157999899646,,completion,,,,,,,,,,,,,,,,,,,,,350665.00000003725,350664.61499989964,337055.746,337065.85499993525,337072.457,350678.615,,,
Standby,html.Page,2_3_0,2021-04-27T08:34:11.195Z,,,,,,,,,,,,,,,,,,,,,,,,,,,,,,,8003.638000000035,,timeout,,,,,,,,,,,,,,,,,,,,,358666.05499992147,358665.539,350661.92,350665.129999863,350678.615,358682.253,,,
Holding screen,html.Screen,2_3_1_0_0,2021-04-27T08:34:18.198Z,,,,,,,,,,,,,,,,,,,,,,,,,,,,,,,7003.152000000002,,timeout,,,,,,,,,,,,,,,,,,,,,365669.1550000105,365668.717,358665.539,358666.2800000049,358682.253,365685.405,,,
screen,html.Screen,2_3_1_0_1_0,2021-04-27T08:34:19.188Z,,,,,,,,,,,,,,,,,2,,,,,,,,,,,,,,973.6849999718834,,response,,,,1,F,,,,,,Space,keypress(Space),,,,instrumental,,,,Two ---- ------ --- ------- ---------- ------- ----------<br>--- --------- --- ----------- ------- ----- ------- ---<br>--------- ---- -- --- ---- -- --------- -- ---- -------<br>-- --------- ------ --- ----- ------ ---- --- --------- --<br>------ - ---- -- --- ----------- ------- ---- ----- -----<br>--- -------- - ------ ---- -- ----- ---- --- --- -----------<br>-- -------,366659.77499983273,366659.0899999719,365668.717,365669.38999993727,365685.405,366669.172,,0,Two
screen,html.Screen,2_3_1_0_1_1,2021-04-27T08:34:20.115Z,,,,,,,,,,,,,,,,,2,,,,,,,,,,,,,,916.3479999641422,,response,,,,1,F,,,,,,Space,keypress(Space),,,,instrumental,,,,--- days ------ --- ------- ---------- ------- ----------<br>--- --------- --- ----------- ------- ----- ------- ---<br>--------- ---- -- --- ---- -- --------- -- ---- -------<br>-- --------- ------ --- ----- ------ ---- --- --------- --<br>------ - ---- -- --- ----------- ------- ---- ----- -----<br>--- -------- - ------ ---- -- ----- ---- --- --- -----------<br>-- -------,367586.1749998294,367585.51999996416,366652.492,366659.92499981076,366669.172,367602.94,,1,days
screen,html.Screen,2_3_1_0_1_2,2021-04-27T08:34:20.741Z,,,,,,,,,,,,,,,,,2,,,,,,,,,,,,,,609.1450000064797,,response,,,,1,F,,,,,,Space,keypress(Space),,,,instrumental,,,,"--- ---- later, --- ------- ---------- ------- ----------<br>--- --------- --- ----------- ------- ----- ------- ---<br>--------- ---- -- --- ---- -- --------- -- ---- -------<br>-- --------- ------ --- ----- ------ ---- --- --------- --<br>------ - ---- -- --- ----------- ------- ---- ----- -----<br>--- -------- - ------ ---- -- ----- ---- --- --- -----------<br>-- -------",368212.6700000372,368212.0850000065,367586.234,367586.30499988794,367602.94,368219.875,,2,"later,"
screen,html.Screen,2_3_1_0_1_3,2021-04-27T08:34:22.924Z,,,,,,,,,,,,,,,,,2,,,,,,,,,,,,,,2174.81499998644,,response,,,,1,F,,,,,,Space,keypress(Space),,,,instrumental,,,,--- ---- ------ the ------- ---------- ------- ----------<br>--- --------- --- ----------- ------- ----- ------- ---<br>--------- ---- -- --- ---- -- --------- -- ---- -------<br>-- --------- ------ --- ----- ------ ---- --- --------- --<br>------ - ---- -- --- ----------- ------- ---- ----- -----<br>--- -------- - ------ ---- -- ----- ---- --- --- -----------<br>-- -------,370395.2799998224,370394.68999998644,368203.199,368212.79499982484,368219.875,370404.316,,3,the
screen,html.Screen,2_3_1_0_1_4,2021-04-27T08:34:23.713Z,,,,,,,,,,,,,,,,,2,,,,,,,,,,,,,,779.8240000266815,,response,,,,1,F,,,,,,Space,keypress(Space),,,,instrumental,,,,--- ---- ------ --- British ---------- ------- ----------<br>--- --------- --- ----------- ------- ----- ------- ---<br>--------- ---- -- --- ---- -- --------- -- ---- -------<br>-- --------- ------ --- ----- ------ ---- --- --------- --<br>------ - ---- -- --- ----------- ------- ---- ----- -----<br>--- -------- - ------ ---- -- ----- ---- --- --- -----------<br>-- -------,371184.80499996804,371184.1400000267,370387.504,370395.40999988094,370404.316,371187.883,,4,British
screen,html.Screen,2_3_1_0_1_5,2021-04-27T08:34:25.518Z,,,,,,,,,,,,,,,,,2,,,,,,,,,,,,,,1800.7419999981648,,response,,,,1,F,,,,,,Space,keypress(Space),,,,instrumental,,,,--- ---- ------ --- ------- astronomer ------- ----------<br>--- --------- --- ----------- ------- ----- ------- ---<br>--------- ---- -- --- ---- -- --------- -- ---- -------<br>-- --------- ------ --- ----- ------ ---- --- --------- --<br>------ - ---- -- --- ----------- ------- ---- ----- -----<br>--- -------- - ------ ---- -- ----- ---- --- --- -----------<br>-- -------,372989.2299999483,372988.62499999814,371171.234,371184.9350000266,371187.883,373005.377,,5,astronomer
screen,html.Screen,2_3_1_0_1_6,2021-04-27T08:34:26.452Z,,,,,,,,,,,,,,,,,2,,,,,,,,,,,,,,917.5429998080945,,response,,,,1,F,,,,,,Space,keypress(Space),,,,instrumental,,,,--- ---- ------ --- ------- ---------- Richard ----------<br>--- --------- --- ----------- ------- ----- ------- ---<br>--------- ---- -- --- ---- -- --------- -- ---- -------<br>-- --------- ------ --- ----- ------ ---- --- --------- --<br>------ - ---- -- --- ----------- ------- ---- ----- -----<br>--- -------- - ------ ---- -- ----- ---- --- --- -----------<br>-- -------,373923.56999986805,373922.9199998081,372988.712,372989.34499989264,373005.377,373939.172,,6,Richard
screen,html.Screen,2_3_1_0_1_7,2021-04-27T08:34:27.537Z,,,,,,,,,,,,,,,,,2,,,,,,,,,,,,,,1068.8879999055061,,response,,,,1,F,,,,,,Space,keypress(Space),,,,instrumental,,,,--- ---- ------ --- ------- ---------- ------- Carrington<br>--- --------- --- ----------- ------- ----- ------- ---<br>--------- ---- -- --- ---- -- --------- -- ---- -------<br>-- --------- ------ --- ----- ------ ---- --- --------- --<br>------ - ---- -- --- ----------- ------- ---- ----- -----<br>--- -------- - ------ ---- -- ----- ---- --- --- -----------<br>-- -------,375008.63999989815,375008.0599999055,373922.437,373923.7299999222,373939.172,375022.958,,7,Carrington
screen,html.Screen,2_3_1_0_1_8,2021-04-27T08:34:28.085Z,,,,,,,,,,,,,,,,,2,,,,,,,,,,,,,,532.8869998498121,,response,,,,1,F,,,,,,Space,keypress(Space),,,,instrumental,,,,--- ---- ------ --- ------- ---------- ------- ----------<br>was --------- --- ----------- ------- ----- ------- ---<br>--------- ---- -- --- ---- -- --------- -- ---- -------<br>-- --------- ------ --- ----- ------ ---- --- --------- --<br>------ - ---- -- --- ----------- ------- ---- ----- -----<br>--- -------- - ------ ---- -- ----- ---- --- --- -----------<br>-- -------,375556.4299998805,375555.8449998498,375006.262,375008.7549998425,375022.958,375573.204,,8,was
screen,html.Screen,2_3_1_0_1_9,2021-04-27T08:34:28.710Z,,,,,,,,,,,,,,,,,2,,,,,,,,,,,,,,607.9710000342457,,response,,,,1,F,,,,,,Space,keypress(Space),,,,instrumental,,,,--- ---- ------ --- ------- ---------- ------- ----------<br>--- observing --- ----------- ------- ----- ------- ---<br>--------- ---- -- --- ---- -- --------- -- ---- -------<br>-- --------- ------ --- ----- ------ ---- --- --------- --<br>------ - ---- -- --- ----------- ------- ---- ----- -----<br>--- -------- - ------ ---- -- ----- ---- --- --- -----------<br>-- -------,376181.78999982774,376181.1750000343,375540.364,375556.55999993905,375573.204,376190.152,,9,observing
screen,html.Screen,2_3_1_0_1_10,2021-04-27T08:34:29.314Z,,,,,,,,,,,,,,,,,2,,,,,,,,,,,,,,594.322999876691,,response,,,,1,F,,,,,,Space,keypress(Space),,,,instrumental,,,,--- ---- ------ --- ------- ---------- ------- ----------<br>--- --------- the ----------- ------- ----- ------- ---<br>--------- ---- -- --- ---- -- --------- -- ---- -------<br>-- --------- ------ --- ----- ------ ---- --- --------- --<br>------ - ---- -- --- ----------- ------- ---- ----- -----<br>--- -------- - ------ ---- -- ----- ---- --- --- -----------<br>-- -------,376785.06499994546,376784.4749998767,376173.475,376181.9199998863,376190.152,376790.501,,10,the
screen,html.Screen,2_3_1_0_1_11,2021-04-27T08:34:29.875Z,,,,,,,,,,,,,,,,,2,,,,,,,,,,,,,,555.2090000232565,,response,,,,1,F,,,,,,Space,keypress(Space),,,,instrumental,,,,--- ---- ------ --- ------- ---------- ------- ----------<br>--- --------- --- interesting ------- ----- ------- ---<br>--------- ---- -- --- ---- -- --------- -- ---- -------<br>-- --------- ------ --- ----- ------ ---- --- --------- --<br>------ - ---- -- --- ----------- ------- ---- ----- -----<br>--- -------- - ------ ---- -- ----- ---- --- --- -----------<br>-- -------,377346.36999992654,377345.71000002325,376773.735,376785.18999996595,376790.501,377357.368,,11,interesting
screen,html.Screen,2_3_1_0_1_12,2021-04-27T08:34:30.240Z,,,,,,,,,,,,,,,,,2,,,,,,,,,,,,,,353.16199980746023,,response,,,,1,F,,,,,,Space,keypress(Space),,,,instrumental,,,,--- ---- ------ --- ------- ---------- ------- ----------<br>--- --------- --- ----------- sunspot ----- ------- ---<br>--------- ---- -- --- ---- -- --------- -- ---- -------<br>-- --------- ------ --- ----- ------ ---- --- --------- --<br>------ - ---- -- --- ----------- ------- ---- ----- -----<br>--- -------- - ------ ---- -- ----- ---- --- --- -----------<br>-- -------,377711.1249999143,377710.5299998075,377340.679,377346.5350000188,377357.368,377724.182,,12,sunspot
screen,html.Screen,2_3_1_0_1_13,2021-04-27T08:34:31.403Z,,,,,,,,,,,,,,,,,2,,,,,,,,,,,,,,1149.8979999796138,,response,,,,1,F,,,,,,Space,keypress(Space),,,,instrumental,,,,--- ---- ------ --- ------- ---------- ------- ----------<br>--- --------- --- ----------- ------- group ------- ---<br>--------- ---- -- --- ---- -- --------- -- ---- -------<br>-- --------- ------ --- ----- ------ ---- --- --------- --<br>------ - ---- -- --- ----------- ------- ---- ----- -----<br>--- -------- - ------ ---- -- ----- ---- --- --- -----------<br>-- -------,378874.6999998111,378874.0799999796,377707.494,377711.2499999348,377724.182,378891.373,,13,group
screen,html.Screen,2_3_1_0_1_14,2021-04-27T08:34:32.139Z,,,,,,,,,,,,,,,,,2,,,,,,,,,,,,,,718.4969998110319,,response,,,,1,F,,,,,,Space,keypress(Space),,,,instrumental,,,,--- ---- ------ --- ------- ---------- ------- ----------<br>--- --------- --- ----------- ------- ----- through ---<br>--------- ---- -- --- ---- -- --------- -- ---- -------<br>-- --------- ------ --- ----- ------ ---- --- --------- --<br>------ - ---- -- --- ----------- ------- ---- ----- -----<br>--- -------- - ------ ---- -- ----- ---- --- --- -----------<br>-- -------,379610.4949999135,379609.86999981105,378874.692,378874.8200000264,378891.373,379625.048,,14,through
screen,html.Screen,2_3_1_0_1_15,2021-04-27T08:34:32.514Z,,,,,,,,,,,,,,,,,2,,,,,,,,,,,,,,359.731999824231,,response,,,,1,F,,,,,,Space,keypress(Space),,,,instrumental,,,,--- ---- ------ --- ------- ---------- ------- ----------<br>--- --------- --- ----------- ------- ----- ------- his<br>--------- ---- -- --- ---- -- --------- -- ---- -------<br>-- --------- ------ --- ----- ------ ---- --- --------- --<br>------ - ---- -- --- ----------- ------- ---- ----- -----<br>--- -------- - ------ ---- -- ----- ---- --- --- -----------<br>-- -------,379985.36499985494,379984.77999982424,379608.348,379610.62499997206,379625.048,379991.892,,15,his
screen,html.Screen,2_3_1_0_1_16,2021-04-27T08:34:33.234Z,,,,,,,,,,,,,,,,,2,,,,,,,,,,,,,,712.5629998827353,,response,,,,1,F,,,,,,Space,keypress(Space),,,,instrumental,,,,--- ---- ------ --- ------- ---------- ------- ----------<br>--- --------- --- ----------- ------- ----- ------- ---<br>telescope ---- -- --- ---- -- --------- -- ---- -------<br>-- --------- ------ --- ----- ------ ---- --- --------- --<br>------ - ---- -- --- ----------- ------- ---- ----- -----<br>--- -------- - ------ ---- -- ----- ---- --- --- -----------<br>-- -------,380705.14500001445,380704.4549998827,379975.189,379985.48499983735,379991.892,380708.874,,16,telescope
screen,html.Screen,2_3_1_0_1_17,2021-04-27T08:34:33.657Z,,,,,,,,,,,,,,,,,2,,,,,,,,,,,,,,418.9859998913598,,response,,,,1,F,,,,,,Space,keypress(Space),,,,instrumental,,,,--- ---- ------ --- ------- ---------- ------- ----------<br>--- --------- --- ----------- ------- ----- ------- ---<br>--------- when -- --- ---- -- --------- -- ---- -------<br>-- --------- ------ --- ----- ------ ---- --- --------- --<br>------ - ---- -- --- ----------- ------- ---- ----- -----<br>--- -------- - ------ ---- -- ----- ---- --- --- -----------<br>-- -------,381128.47999995574,381127.85999989137,380692.175,380705.27999987826,380708.874,381142.401,,17,when
screen,html.Screen,2_3_1_0_1_18,2021-04-27T08:34:34.033Z,,,,,,,,,,,,,,,,,2,,,,,,,,,,,,,,361.4089999073767,,response,,,,1,F,,,,,,Space,keypress(Space),,,,instrumental,,,,--- ---- ------ --- ------- ---------- ------- ----------<br>--- --------- --- ----------- ------- ----- ------- ---<br>--------- ---- he --- ---- -- --------- -- ---- -------<br>-- --------- ------ --- ----- ------ ---- --- --------- --<br>------ - ---- -- --- ----------- ------- ---- ----- -----<br>--- -------- - ------ ---- -- ----- ---- --- --- -----------<br>-- -------,381504.4799998868,381503.8099999074,381125.711,381128.6100000143,381142.401,381509.408,,18,he
screen,html.Screen,2_3_1_0_1_19,2021-04-27T08:34:34.458Z,,,,,,,,,,,,,,,,,2,,,,,,,,,,,,,,419.671999914397,,response,,,,1,F,,,,,,Space,keypress(Space),,,,instrumental,,,,--- ---- ------ --- ------- ---------- ------- ----------<br>--- --------- --- ----------- ------- ----- ------- ---<br>--------- ---- -- saw ---- -- --------- -- ---- -------<br>-- --------- ------ --- ----- ------ ---- --- --------- --<br>------ - ---- -- --- ----------- ------- ---- ----- -----<br>--- -------- - ------ ---- -- ----- ---- --- --- -----------<br>-- -------,381929.72999997437,381929.0799999144,381492.539,381504.61499998346,381509.408,381942.777,,19,saw
screen,html.Screen,2_3_1_0_1_20,2021-04-27T08:34:35.314Z,,,,,,,,,,,,,,,,,2,,,,,,,,,,,,,,841.8479998547118,,response,,,,1,F,,,,,,Space,keypress(Space),,,,instrumental,,,,--- ---- ------ --- ------- ---------- ------- ----------<br>--- --------- --- ----------- ------- ----- ------- ---<br>--------- ---- -- --- what -- --------- -- ---- -------<br>-- --------- ------ --- ----- ------ ---- --- --------- --<br>------ - ---- -- --- ----------- ------- ---- ----- -----<br>--- -------- - ------ ---- -- ----- ---- --- --- -----------<br>-- -------,382785.32499982975,382784.6249998547,381926.088,381929.86000003293,381942.777,382793.155,,20,what
screen,html.Screen,2_3_1_0_1_21,2021-04-27T08:34:35.819Z,,,,,,,,,,,,,,,,,2,,,,,,,,,,,,,,497.06499984976836,,response,,,,1,F,,,,,,Space,keypress(Space),,,,instrumental,,,,--- ---- ------ --- ------- ---------- ------- ----------<br>--- --------- --- ----------- ------- ----- ------- ---<br>--------- ---- -- --- ---- he --------- -- ---- -------<br>-- --------- ------ --- ----- ------ ---- --- --------- --<br>------ - ---- -- --- ----------- ------- ---- ----- -----<br>--- -------- - ------ ---- -- ----- ---- --- --- -----------<br>-- -------,383290.87499994785,383290.2199998498,382776.461,382785.4599999264,382793.155,383293.386,,21,he
screen,html.Screen,2_3_1_0_1_22,2021-04-27T08:34:36.404Z,,,,,,,,,,,,,,,,,2,,,,,,,,,,,,,,581.863999808149,,response,,,,1,F,,,,,,Space,keypress(Space),,,,instrumental,,,,--- ---- ------ --- ------- ---------- ------- ----------<br>--- --------- --- ----------- ------- ----- ------- ---<br>--------- ---- -- --- ---- -- described -- ---- -------<br>-- --------- ------ --- ----- ------ ---- --- --------- --<br>------ - ---- -- --- ----------- ------- ---- ----- -----<br>--- -------- - ------ ---- -- ----- ---- --- --- -----------<br>-- -------,383875.88499998674,383875.24999980815,383276.713,383291.0050000064,383293.386,383912.848,,22,described
screen,html.Screen,2_3_1_0_1_23,2021-04-27T08:34:36.860Z,,,,,,,,,,,,,,,,,2,,,,,,,,,,,,,,418.16699988697655,,response,,,,1,F,,,,,,Space,keypress(Space),,,,instrumental,,,,--- ---- ------ --- ------- ---------- ------- ----------<br>--- --------- --- ----------- ------- ----- ------- ---<br>--------- ---- -- --- ---- -- --------- as ---- -------<br>-- --------- ------ --- ----- ------ ---- --- --------- --<br>------ - ---- -- --- ----------- ------- ---- ----- -----<br>--- -------- - ------ ---- -- ----- ---- --- --- -----------<br>-- -------,384331.66499994695,384331.014999887,383860.272,383876.0100000072,383912.848,384343.866,,23,as
screen,html.Screen,2_3_1_0_1_24,2021-04-27T08:34:37.344Z,,,,,,,,,,,,,,,,,2,,,,,,,,,,,,,,471.20899981673574,,response,,,,1,F,,,,,,Space,keypress(Space),,,,instrumental,,,,"--- ---- ------ --- ------- ---------- ------- ----------<br>--- --------- --- ----------- ------- ----- ------- ---<br>--------- ---- -- --- ---- -- --------- -- ""two -------<br>-- --------- ------ --- ----- ------ ---- --- --------- --<br>------ - ---- -- --- ----------- ------- ---- ----- -----<br>--- -------- - ------ ---- -- ----- ---- --- --- -----------<br>-- -------",384815.69999991916,384815.0749998167,384327.182,384331.78999996744,384343.866,384827.418,,24,"""two"
screen,html.Screen,2_3_1_0_1_25,2021-04-27T08:34:37.769Z,,,,,,,,,,,,,,,,,2,,,,,,,,,,,,,,412.45699997019256,,response,,,,1,F,,,,,,Space,keypress(Space),,,,instrumental,,,,--- ---- ------ --- ------- ---------- ------- ----------<br>--- --------- --- ----------- ------- ----- ------- ---<br>--------- ---- -- --- ---- -- --------- -- ---- patches<br>-- --------- ------ --- ----- ------ ---- --- --------- --<br>------ - ---- -- --- ----------- ------- ---- ----- -----<br>--- -------- - ------ ---- -- ----- ---- --- --- -----------<br>-- -------,385240.54499994963,385239.8749999702,384810.726,384815.8299999777,384827.418,385244.271,,25,patches
screen,html.Screen,2_3_1_0_1_26,2021-04-27T08:34:38.172Z,,,,,,,,,,,,,,,,,2,,,,,,,,,,,,,,398.5939998269896,,response,,,,1,F,,,,,,Space,keypress(Space),,,,instrumental,,,,--- ---- ------ --- ------- ---------- ------- ----------<br>--- --------- --- ----------- ------- ----- ------- ---<br>--------- ---- -- --- ---- -- --------- -- ---- -------<br>of --------- ------ --- ----- ------ ---- --- --------- --<br>------ - ---- -- --- ----------- ------- ---- ----- -----<br>--- -------- - ------ ---- -- ----- ---- --- --- -----------<br>-- -------,385643.48999992944,385642.864999827,385227.562,385240.6750000082,385244.271,385662.713,,26,of
screen,html.Screen,2_3_1_0_1_27,2021-04-27T08:34:38.720Z,,,,,,,,,,,,,,,,,2,,,,,,,,,,,,,,528.3070000275038,,response,,,,1,F,,,,,,Space,keypress(Space),,,,instrumental,,,,--- ---- ------ --- ------- ---------- ------- ----------<br>--- --------- --- ----------- ------- ----- ------- ---<br>--------- ---- -- --- ---- -- --------- -- ---- -------<br>-- intensely ------ --- ----- ------ ---- --- --------- --<br>------ - ---- -- --- ----------- ------- ---- ----- -----<br>--- -------- - ------ ---- -- ----- ---- --- --- -----------<br>-- -------,386191.6799999308,386191.0200000275,385627.772,385643.60999991186,385662.713,386194.692,,27,intensely
screen,html.Screen,2_3_1_0_1_28,2021-04-27T08:34:39.206Z,,,,,,,,,,,,,,,,,2,,,,,,,,,,,,,,482.0529998296988,,response,,,,1,F,,,,,,Space,keypress(Space),,,,instrumental,,,,--- ---- ------ --- ------- ---------- ------- ----------<br>--- --------- --- ----------- ------- ----- ------- ---<br>--------- ---- -- --- ---- -- --------- -- ---- -------<br>-- --------- bright --- ----- ------ ---- --- --------- --<br>------ - ---- -- --- ----------- ------- ---- ----- -----<br>--- -------- - ------ ---- -- ----- ---- --- --- -----------<br>-- -------,386677.4049999658,386676.7449998297,386178.005,386191.8150000274,386194.692,386702.753,,28,bright
screen,html.Screen,2_3_1_0_1_29,2021-04-27T08:34:39.862Z,,,,,,,,,,,,,,,,,2,,,,,,,,,,,,,,630.0119999409653,,response,,,,1,F,,,,,,Space,keypress(Space),,,,instrumental,,,,--- ---- ------ --- ------- ---------- ------- ----------<br>--- --------- --- ----------- ------- ----- ------- ---<br>--------- ---- -- --- ---- -- --------- -- ---- -------<br>-- --------- ------ and ----- ------ ---- --- --------- --<br>------ - ---- -- --- ----------- ------- ---- ----- -----<br>--- -------- - ------ ---- -- ----- ---- --- --- -----------<br>-- -------,387333.4399999585,387332.764999941,386661.574,386677.5299999863,386702.753,387345.225,,29,and
screen,html.Screen,2_3_1_0_1_30,2021-04-27T08:34:40.277Z,,,,,,,,,,,,,,,,,2,,,,,,,,,,,,,,402.9699999928707,,response,,,,1,F,,,,,,Space,keypress(Space),,,,instrumental,,,,--- ---- ------ --- ------- ---------- ------- ----------<br>--- --------- --- ----------- ------- ----- ------- ---<br>--------- ---- -- --- ---- -- --------- -- ---- -------<br>-- --------- ------ --- white ------ ---- --- --------- --<br>------ - ---- -- --- ----------- ------- ---- ----- -----<br>--- -------- - ------ ---- -- ----- ---- --- --- -----------<br>-- -------,387748.84000001475,387748.19499999285,387328.507,387333.5949999746,387345.225,387762.065,,30,white
screen,html.Screen,2_3_1_0_1_31,2021-04-27T08:34:40.633Z,,,,,,,,,,,,,,,,,2,,,,,,,,,,,,,,342.30000003561145,,response,,,,1,F,,,,,,Space,keypress(Space),,,,instrumental,,,,"--- ---- ------ --- ------- ---------- ------- ----------<br>--- --------- --- ----------- ------- ----- ------- ---<br>--------- ---- -- --- ---- -- --------- -- ---- -------<br>-- --------- ------ --- ----- light"" ---- --- --------- --<br>------ - ---- -- --- ----------- ------- ---- ----- -----<br>--- -------- - ------ ---- -- ----- ---- --- --- -----------<br>-- -------",388104.98499986716,388104.3650000356,387745.381,387748.9699998405,387762.065,388112.245,,31,"light"""
screen,html.Screen,2_3_1_0_1_32,2021-04-27T08:34:41.174Z,,,,,,,,,,,,,,,,,2,,,,,,,,,,,,,,532.0149999718415,,response,,,,1,F,,,,,,Space,keypress(Space),,,,instrumental,,,,--- ---- ------ --- ------- ---------- ------- ----------<br>--- --------- --- ----------- ------- ----- ------- ---<br>--------- ---- -- --- ---- -- --------- -- ---- -------<br>-- --------- ------ --- ----- ------ over --- --------- --<br>------ - ---- -- --- ----------- ------- ---- ----- -----<br>--- -------- - ------ ---- -- ----- ---- --- --- -----------<br>-- -------,388645.09000000544,388644.25999997184,388095.533,388105.1149999257,388112.245,388695.819,,32,over
screen,html.Screen,2_3_1_0_1_33,2021-04-27T08:34:41.745Z,,,,,,,,,,,,,,,,,2,,,,,,,,,,,,,,519.8859998640837,,response,,,,1,F,,,,,,Space,keypress(Space),,,,instrumental,,,,--- ---- ------ --- ------- ---------- ------- ----------<br>--- --------- --- ----------- ------- ----- ------- ---<br>--------- ---- -- --- ---- -- --------- -- ---- -------<br>-- --------- ------ --- ----- ------ ---- the --------- --<br>------ - ---- -- --- ----------- ------- ---- ----- -----<br>--- -------- - ------ ---- -- ----- ---- --- --- -----------<br>-- -------,389216.31499985233,389215.7049998641,388682.884,388645.31499985605,388695.819,389229.407,,33,the
screen,html.Screen,2_3_1_0_1_34,2021-04-27T08:34:42.189Z,,,,,,,,,,,,,,,,,2,,,,,,,,,,,,,,430.7479999322677,,response,,,,1,F,,,,,,Space,keypress(Space),,,,instrumental,,,,--- ---- ------ --- ------- ---------- ------- ----------<br>--- --------- --- ----------- ------- ----- ------- ---<br>--------- ---- -- --- ---- -- --------- -- ---- -------<br>-- --------- ------ --- ----- ------ ---- --- sunspots. --<br>------ - ---- -- --- ----------- ------- ---- ----- -----<br>--- -------- - ------ ---- -- ----- ---- --- --- -----------<br>-- -------,389660.81499983557,389660.1549999323,389212.697,389216.43499983475,389229.407,389662.932,,34,sunspots.
screen,html.Screen,2_3_1_0_1_35,2021-04-27T08:34:42.963Z,,,,,,,,,,,,,,,,,2,,,,,,,,,,,,,,770.5779998861835,,response,,,,1,F,,,,,,Space,keypress(Space),,,,instrumental,,,,--- ---- ------ --- ------- ---------- ------- ----------<br>--- --------- --- ----------- ------- ----- ------- ---<br>--------- ---- -- --- ---- -- --------- -- ---- -------<br>-- --------- ------ --- ----- ------ ---- --- --------- He<br>------ - ---- -- --- ----------- ------- ---- ----- -----<br>--- -------- - ------ ---- -- ----- ---- --- --- -----------<br>-- -------,390434.30999992415,390433.50999988616,389646.239,389660.9449998941,389662.932,390446.619,,35,He
