sender,sender_type,sender_id,timestamp,meta,,Blues,Classical,Country,Dance,Electronic,Folk,Gospel,Hip-Hop,Jazz,Latin,Musical/Film,New-age,Pop,Prolific_id,Provo_ID,R&B,Rap,Reggae,Religious,Rock,Soul,Swing,Traditional,age,artist_name,correct,correctResponse,distraction,duration,education,ended_on,familiarity,gender,headphone_check_performance,item,list,music_frequency,offensiveness,pleasantness,position_correct,preference,response,response_action,snippet_file,song_name,song_rating,sound,stimulus_1,stimulus_2,stimulus_3,text,time_commit,time_end,time_render,time_run,time_show,time_switch,url,word,word_ID
Prolific ID,html.Form,0,2021-04-30T12:46:06.894Z,"{""labjs_version"":""20.2.2"",""labjs_build"":{""flavor"":""production"",""commit"":""a25486e0c714a0ae2ce03ff94b7bb6896854dcfa""},""location"":""https://run.pavlovia.org/mvasilev/prolific_music_e/"",""userAgent"":""Mozilla/5.0 (Windows NT 10.0; Win64; x64) AppleWebKit/537.36 (KHTML, like Gecko) Chrome/90.0.4430.93 Safari/537.36"",""platform"":""Win32"",""language"":""en-US"",""locale"":""en-US"",""timeZone"":""Europe/London"",""timezoneOffset"":-60,""screen_width"":1680,""screen_height"":1050,""scroll_width"":1409,""scroll_height"":794,""window_innerWidth"":1409,""window_innerHeight"":842,""devicePixelRatio"":1}",,,,,,,,,,,,,,,5efd22056ec55516587f32a6,,,,,,,,,,,,,,,9027.37599987349,,form submission,,,,,,,,,,,,,,,,,,,,,19538.274999940768,19537.40999987349,10476.335,10481.249999953434,10510.034,19694.829,{},,
Introduction,html.Screen,1_0,2021-04-30T12:46:15.087Z,,,,,,,,,,,,,,,,,,,,,,,,,,,,,,,8032.780999943523,,response,,,,,,,,,,,continue,click button,,,,,,,,,27730.7149998378,27727.609999943525,19527.83,19539.27499987185,19694.829,27744.12,,,
Volume calibration,html.Screen,1_1,2021-04-30T12:46:43.503Z,,,,,,,,,,,,,,,,,,,,,,,,,,,,,,,28399.6550000041,,response,,,,,,,,,,,continue,click button,,,,,,,,,56147.52999995835,56143.7750000041,27727.382,27730.959999840707,27744.12,56150.563,,,
Task instructions,html.Screen,1_2,2021-04-30T12:46:54.388Z,,,,,,,,,,,,,,,,,,,,,,,,,,,,,,,10881.036999871103,,response,,,,,,,,,,,continue,click button,,,,,,,,,67032.41499979049,67031.5999998711,56133.757,56147.72000000812,56150.563,67038.616,,,
Sounds,html.Screen,1_3_0_0,2021-04-30T12:46:58.639Z,,,,,,,,,,,,,,,,,,,,,,,,,,,,,,,4258.442999999999,,timeout,,,,,,,,,3,,,,,,,,O,I,S,,71283.43999991193,71280.351,67021.914,67032.81999984756,67038.616,71297.059,,,
Judgement,html.Screen,1_3_0_1,2021-04-30T12:47:01.092Z,,,,,,,,,,,,,,,,,,,,,,,,,,,,true,3,,2438.4509997948917,,response,,,,,,,,,3,,3,click #choice-3,,,,,O,I,S,,73736.4599998109,73735.50999979489,71280.351,71283.6749998387,71297.059,73751.937,,,
Trial,flow.Sequence,1_3_0,2021-04-30T12:47:01.093Z,,,,,,,,,,,,,,,,,,,,,,,,,,,,,,,6696.893999794891,,completion,,,,,,,,,3,,,,,,,,O,I,S,,73736.90499993972,73735.50999979489,67021.914,67032.72000001743,67038.616,73751.937,,,
Sounds,html.Screen,1_3_1_0,2021-04-30T12:47:05.333Z,,,,,,,,,,,,,,,,,,,,,,,,,,,,,,,4241.760999999999,,timeout,,,,,,,,,2,,,,,,,,I,S,O,,77977.74000000209,77977.12,73735.231,73737.14499990456,73751.937,77993.698,,,
Judgement,html.Screen,1_3_1_1,2021-04-30T12:47:07.388Z,,,,,,,,,,,,,,,,,,,,,,,,,,,,true,2,,2037.8719998754968,,response,,,,,,,,,2,,2,click #choice-2,,,,,I,S,O,,80032.43999998085,80031.5699998755,77977.12,77977.95500000939,77993.698,80047.78,,,
Trial,flow.Sequence,1_3_1,2021-04-30T12:47:07.388Z,,,,,,,,,,,,,,,,,,,,,,,,,,,,,,,6279.632999875495,,completion,,,,,,,,,2,,,,,,,,I,S,O,,80032.7399999369,80031.5699998755,73735.231,73737.0749998372,73751.937,80047.78,,,
Sounds,html.Screen,1_3_2_0,2021-04-30T12:47:11.629Z,,,,,,,,,,,,,,,,,,,,,,,,,,,,,,,4241.679000000004,,timeout,,,,,,,,,3,,,,,,,,I,O,S,,84273.31499988213,84272.747,80031.191,80032.94999990612,80047.78,84289.459,,,
Judgement,html.Screen,1_3_2_1,2021-04-30T12:47:13.116Z,,,,,,,,,,,,,,,,,,,,,,,,,,,,true,3,,1470.0510000034992,,response,,,,,,,,,3,,3,click #choice-3,,,,,I,O,S,,85760.31999988481,85759.5100000035,84272.747,84273.51500000805,84289.459,85775.734,,,
Trial,flow.Sequence,1_3_2,2021-04-30T12:47:13.116Z,,,,,,,,,,,,,,,,,,,,,,,,,,,,,,,5711.730000003503,,completion,,,,,,,,,3,,,,,,,,I,O,S,,85760.60999999754,85759.5100000035,80031.191,80032.88499987684,80047.78,85775.734,,,
Sounds,html.Screen,1_3_3_0,2021-04-30T12:47:17.357Z,,,,,,,,,,,,,,,,,,,,,,,,,,,,,,,4241.771000000008,,timeout,,,,,,,,,1,,,,,,,,S,O,I,,90001.439999789,90000.765,85759.02,85760.84999996237,85775.734,90017.505,,,
Judgement,html.Screen,1_3_3_1,2021-04-30T12:47:18.468Z,,,,,,,,,,,,,,,,,,,,,,,,,,,,true,1,,1093.9749999631895,,response,,,,,,,,,1,,1,click #choice-1,,,,,S,O,I,,91112.34999983571,91111.4799999632,90000.765,90001.63499987684,90017.505,91119.754,,,
Trial,flow.Sequence,1_3_3,2021-04-30T12:47:18.468Z,,,,,,,,,,,,,,,,,,,,,,,,,,,,,,,5335.745999963197,,completion,,,,,,,,,1,,,,,,,,S,O,I,,91112.62499983422,91111.4799999632,85759.02,85760.76999981888,85775.734,91119.754,,,
Sounds,html.Screen,1_3_4_0,2021-04-30T12:47:22.718Z,,,,,,,,,,,,,,,,,,,,,,,,,,,,,,,4258.354999999996,,timeout,,,,,,,,,2,,,,,,,,O,S,I,,95362.0449998416,95361.415,91102.936,91112.82999999821,91119.754,95378.109,,,
Judgement,html.Screen,1_3_4_1,2021-04-30T12:47:24.092Z,,,,,,,,,,,,,,,,,,,,,,,,,,,,true,2,,1357.3659999940428,,response,,,,,,,,,2,,2,click #choice-2,,,,,O,S,I,,96736.28499987535,96735.47499999404,95361.415,95362.21499997191,95378.109,96747.481,,,
Trial,flow.Sequence,1_3_4,2021-04-30T12:47:24.092Z,,,,,,,,,,,,,,,,,,,,,,,,,,,,,,,5615.720999994039,,completion,,,,,,,,,2,,,,,,,,O,S,I,,96736.57499998808,96735.47499999404,91102.936,91112.76499996893,91119.754,96747.481,,,
Sounds,html.Screen,1_3_5_0,2021-04-30T12:47:28.346Z,,,,,,,,,,,,,,,,,,,,,,,,,,,,,,,4258.4619999999995,,timeout,,,,,,,,,1,,,,,,,,S,I,O,,100989.88499981351,100989.233,96730.811,96736.80999991484,96747.481,101005.943,,,
Judgement,html.Screen,1_3_5_1,2021-04-30T12:47:29.332Z,,,,,,,,,,,,,,,,,,,,,,,,,,,,true,1,,969.4719999935187,,response,,,,,,,,,1,,1,click #choice-1,,,,,S,I,O,,101976.18499980308,101975.41499999352,100989.233,100990.06999982521,101005.943,101991.255,,,
Trial,flow.Sequence,1_3_5,2021-04-30T12:47:29.332Z,,,,,,,,,,,,,,,,,,,,,,,,,,,,,,,5227.933999993518,,completion,,,,,,,,,1,,,,,,,,S,I,O,,101976.46999987774,101975.41499999352,96730.811,96736.74499988556,96747.481,101991.255,,,
Task,flow.Loop,1_3,2021-04-30T12:47:29.338Z,,,,,,,,,,,,,,,,,,,,,,,,,,,,,,,34936.79899999352,,completion,,,1,,,,,,,,,,,,,,,,,,101982.57999983616,101975.41499999352,67021.914,67032.62999979779,67038.616,101991.255,,,
Trap,html.Screen,1_4,2021-04-30T12:47:29.342Z,,,,,,,,,,,,,,,,,,,,,,,,,,,,,,,NaN,,skipped,,,,,,,,,,,,,,,,,,,,,101985.90999981388,101975.41499999352,,101985.7099999208,,101991.255,,,
Thanks,html.Screen,1_5,2021-04-30T12:47:35.804Z,,,,,,,,,,,,,,,,,,,,,,,,,,,,,,,6456.324999919976,,response,,,,,,,,,,,continue,click button,,,,,,,,,108448.39499983937,108447.57999991998,101974.589,101986.09499982558,101991.255,118256.756,,,
Headphone screening,flow.Sequence,1,2021-04-30T12:47:35.804Z,,,,,,,,,,,,,,,,,,,,,,,,,,,,,,,88752.75099991998,,completion,,,,,,,,,,,,,,,,,,,,,108448.65499995649,108447.57999991998,19527.83,19539.204999804497,19694.829,118256.756,,,
Instructions,html.Page,2_0,2021-04-30T12:48:13.756Z,,,,,,,,,,,,,,,,,,,,,,,,,,,,,,,28143.778999789676,,form submission,,,,,,,,,,,,,,,,,,,,,146400.87499981746,146400.53499978967,118206.703,118259.40499990247,118256.756,146412.538,,,
Holding screen,html.Screen,2_1_0_0,2021-04-30T12:48:23.755Z,,,,,,,,,,,,,,,,,,,,,,,,,,,,,,,10070.059000000008,,timeout,,,,,,,,,,,,,,,,,,,,,156399.70999979414,156399.231,146395.861,146401.25999995507,146412.538,156482.597,,,
screen,html.Screen,2_1_0_1_0,2021-04-30T12:48:25.015Z,,,,,,,,,,,,,,,,,53,,,,,,,,,,,,,,1173.612999928242,,response,,,,99,,,,,,,Space,keypress(Space),,,,,,,,When -- ----- -- ------ - ------- --- ----------<br>------------- ------ ------ ---- ---- ------- ----- -- ----<br>-------- ------- -- ---------- --- - --- ----- ----- ----<br>---- --- --- ----- --- ---- ---- ------- ----- ---- -------<br>--- --- -- ----- -- --- ---- -- --- ---- -- ------ ------<br>--- ----- -- ----,157659.1049998533,157656.20999992825,156399.231,156400.03499994054,156482.597,157668.204,,0,When
screen,html.Screen,2_1_0_1_1,2021-04-30T12:48:25.720Z,,,,,,,,,,,,,,,,,53,,,,,,,,,,,,,,695.490999832662,,response,,,,99,,,,,,,Space,keypress(Space),,,,,,,,---- it ----- -- ------ - ------- --- ----------<br>------------- ------ ------ ---- ---- ------- ----- -- ----<br>-------- ------- -- ---------- --- - --- ----- ----- ----<br>---- --- --- ----- --- ---- ---- ------- ----- ---- -------<br>--- --- -- ----- -- --- ---- -- --- ---- -- ------ ------<br>--- ----- -- ----,158364.3199999351,158363.69499983266,157651.402,157659.3199998606,157668.204,158369.592,,1,it
screen,html.Screen,2_1_0_1_2,2021-04-30T12:48:26.524Z,,,,,,,,,,,,,,,,,53,,,,,,,,,,,,,,798.2529998144018,,response,,,,99,,,,,,,Space,keypress(Space),,,,,,,,---- -- comes -- ------ - ------- --- ----------<br>------------- ------ ------ ---- ---- ------- ----- -- ----<br>-------- ------- -- ---------- --- - --- ----- ----- ----<br>---- --- --- ----- --- ---- ---- ------- ----- ---- -------<br>--- --- -- ----- -- --- ---- -- --- ---- -- ------ ------<br>--- ----- -- ----,159168.43999992125,159167.8449998144,158352.818,158364.51499979012,158369.592,159171.165,,2,comes
screen,html.Screen,2_1_0_1_3,2021-04-30T12:48:27.309Z,,,,,,,,,,,,,,,,,53,,,,,,,,,,,,,,781.2049998389848,,response,,,,99,,,,,,,Space,keypress(Space),,,,,,,,---- -- ----- to ------ - ------- --- ----------<br>------------- ------ ------ ---- ---- ------- ----- -- ----<br>-------- ------- -- ---------- --- - --- ----- ----- ----<br>---- --- --- ----- --- ---- ---- ------- ----- ---- -------<br>--- --- -- ----- -- --- ---- -- --- ---- -- ------ ------<br>--- ----- -- ----,159953.01999989897,159952.369999839,159154.446,159168.62999997102,159171.165,159956.085,,3,to
screen,html.Screen,2_1_0_1_4,2021-04-30T12:48:28.079Z,,,,,,,,,,,,,,,,,53,,,,,,,,,,,,,,766.7899999776564,,response,,,,99,,,,,,,Space,keypress(Space),,,,,,,,---- -- ----- -- having - ------- --- ----------<br>------------- ------ ------ ---- ---- ------- ----- -- ----<br>-------- ------- -- ---------- --- - --- ----- ----- ----<br>---- --- --- ----- --- ---- ---- ------- ----- ---- -------<br>--- --- -- ----- -- --- ---- -- --- ---- -- ------ ------<br>--- ----- -- ----,160723.4499999322,160722.87499997765,159939.453,159953.2299998682,159956.085,160747.861,,4,having
screen,html.Screen,2_1_0_1_5,2021-04-30T12:48:28.732Z,,,,,,,,,,,,,,,,,53,,,,,,,,,,,,,,627.9489998813078,,response,,,,99,,,,,,,Space,keypress(Space),,,,,,,,---- -- ----- -- ------ a ------- --- ----------<br>------------- ------ ------ ---- ---- ------- ----- -- ----<br>-------- ------- -- ---------- --- - --- ----- ----- ----<br>---- --- --- ----- --- ---- ---- ------- ----- ---- -------<br>--- --- -- ----- -- --- ---- -- --- ---- -- ------ ------<br>--- ----- -- ----,161376.39999995008,161375.8099998813,160707.477,160723.6449997872,160747.861,161392.313,,5,a
screen,html.Screen,2_1_0_1_6,2021-04-30T12:48:29.432Z,,,,,,,,,,,,,,,,,53,,,,,,,,,,,,,,684.0669999840611,,response,,,,99,,,,,,,Space,keypress(Space),,,,,,,,---- -- ----- -- ------ - lasting --- ----------<br>------------- ------ ------ ---- ---- ------- ----- -- ----<br>-------- ------- -- ---------- --- - --- ----- ----- ----<br>---- --- --- ----- --- ---- ---- ------- ----- ---- -------<br>--- --- -- ----- -- --- ---- -- --- ---- -- ------ ------<br>--- ----- -- ----,162076.94999990053,162076.37999998406,161375.489,161376.5799999237,161392.313,162093.718,,6,lasting
screen,html.Screen,2_1_0_1_7,2021-04-30T12:48:30.127Z,,,,,,,,,,,,,,,,,53,,,,,,,,,,,,,,677.5819999057567,,response,,,,99,,,,,,,Space,keypress(Space),,,,,,,,---- -- ----- -- ------ - ------- and ----------<br>------------- ------ ------ ---- ---- ------- ----- -- ----<br>-------- ------- -- ---------- --- - --- ----- ----- ----<br>---- --- --- ----- --- ---- ---- ------- ----- ---- -------<br>--- --- -- ----- -- --- ---- -- --- ---- -- ------ ------<br>--- ----- -- ----,162771.86999982223,162771.29999990575,162076.901,162077.13499991223,162093.718,162778.39,,7,and
screen,html.Screen,2_1_0_1_8,2021-04-30T12:48:30.879Z,,,,,,,,,,,,,,,,,53,,,,,,,,,,,,,,744.4949998675147,,response,,,,99,,,,,,,Space,keypress(Space),,,,,,,,---- -- ----- -- ------ - ------- --- fulfilling<br>------------- ------ ------ ---- ---- ------- ----- -- ----<br>-------- ------- -- ---------- --- - --- ----- ----- ----<br>---- --- --- ----- --- ---- ---- ------- ----- ---- -------<br>--- --- -- ----- -- --- ---- -- --- ---- -- ------ ------<br>--- ----- -- ----,163523.4749999363,163522.88499986753,162761.678,162772.06999994814,162778.39,163529.77,,8,fulfilling
screen,html.Screen,2_1_0_1_9,2021-04-30T12:48:32.772Z,,,,,,,,,,,,,,,,,53,,,,,,,,,,,,,,1886.0749999522523,,response,,,,99,,,,,,,Space,keypress(Space),,,,,,,,"---- -- ----- -- ------ - ------- --- ----------<br>relationship, ------ ------ ---- ---- ------- ----- -- ----<br>-------- ------- -- ---------- --- - --- ----- ----- ----<br>---- --- --- ----- --- ---- ---- ------- ----- ---- -------<br>--- --- -- ----- -- --- ---- -- --- ---- -- ------ ------<br>--- ----- -- ----",165416.39999998733,165415.84499995224,163513.059,163523.64999987185,163529.77,165433.573,,9,"relationship,"
screen,html.Screen,2_1_0_1_10,2021-04-30T12:48:33.532Z,,,,,,,,,,,,,,,,,53,,,,,,,,,,,,,,742.67199998055,,response,,,,99,,,,,,,Space,keypress(Space),,,,,,,,---- -- ----- -- ------ - ------- --- ----------<br>------------- common ------ ---- ---- ------- ----- -- ----<br>-------- ------- -- ---------- --- - --- ----- ----- ----<br>---- --- --- ----- --- ---- ---- ------- ----- ---- -------<br>--- --- -- ----- -- --- ---- -- --- ---- -- ------ ------<br>--- ----- -- ----,166176.8799999263,166176.24499998055,165416.758,165416.58999980427,165433.573,166185.097,,10,common
screen,html.Screen,2_1_0_1_11,2021-04-30T12:48:34.326Z,,,,,,,,,,,,,,,,,53,,,,,,,,,,,,,,784.7329998417408,,response,,,,99,,,,,,,Space,keypress(Space),,,,,,,,---- -- ----- -- ------ - ------- --- ----------<br>------------- ------ wisdom ---- ---- ------- ----- -- ----<br>-------- ------- -- ---------- --- - --- ----- ----- ----<br>---- --- --- ----- --- ---- ---- ------- ----- ---- -------<br>--- --- -- ----- -- --- ---- -- --- ---- -- ------ ------<br>--- ----- -- ----,166970.6499997992,166969.82999984175,166168.294,166177.05499986187,166185.097,166986.694,,11,wisdom
screen,html.Screen,2_1_0_1_12,2021-04-30T12:48:35.089Z,,,,,,,,,,,,,,,,,53,,,,,,,,,,,,,,746.3559999225254,,response,,,,99,,,,,,,Space,keypress(Space),,,,,,,,---- -- ----- -- ------ - ------- --- ----------<br>------------- ------ ------ says ---- ------- ----- -- ----<br>-------- ------- -- ---------- --- - --- ----- ----- ----<br>---- --- --- ----- --- ---- ---- ------- ----- ---- -------<br>--- --- -- ----- -- --- ---- -- --- ---- -- ------ ------<br>--- ----- -- ----,167733.67499979213,167733.0499999225,166969.957,166970.84499988705,166986.694,167738.135,,12,says
screen,html.Screen,2_1_0_1_13,2021-04-30T12:48:35.875Z,,,,,,,,,,,,,,,,,53,,,,,,,,,,,,,,780.9749999938067,,response,,,,99,,,,,,,Space,keypress(Space),,,,,,,,---- -- ----- -- ------ - ------- --- ----------<br>------------- ------ ------ ---- that ------- ----- -- ----<br>-------- ------- -- ---------- --- - --- ----- ----- ----<br>---- --- --- ----- --- ---- ---- ------- ----- ---- -------<br>--- --- -- ----- -- --- ---- -- --- ---- -- ------ ------<br>--- ----- -- ----,168519.66999983415,168519.10999999382,167721.609,167733.86999987997,167738.135,168523.02,,13,that
screen,html.Screen,2_1_0_1_14,2021-04-30T12:48:36.659Z,,,,,,,,,,,,,,,,,53,,,,,,,,,,,,,,780.2549998383329,,response,,,,99,,,,,,,Space,keypress(Space),,,,,,,,---- -- ----- -- ------ - ------- --- ----------<br>------------- ------ ------ ---- ---- feeling ----- -- ----<br>-------- ------- -- ---------- --- - --- ----- ----- ----<br>---- --- --- ----- --- ---- ---- ------- ----- ---- -------<br>--- --- -- ----- -- --- ---- -- --- ---- -- ------ ------<br>--- ----- -- ----,169303.87499998324,169303.27499983832,168506.259,168519.86999996006,168523.02,169307.929,,14,feeling
screen,html.Screen,2_1_0_1_15,2021-04-30T12:48:37.376Z,,,,,,,,,,,,,,,,,53,,,,,,,,,,,,,,711.6859998810105,,response,,,,99,,,,,,,Space,keypress(Space),,,,,,,,---- -- ----- -- ------ - ------- --- ----------<br>------------- ------ ------ ---- ---- ------- close -- ----<br>-------- ------- -- ---------- --- - --- ----- ----- ----<br>---- --- --- ----- --- ---- ---- ------- ----- ---- -------<br>--- --- -- ----- -- --- ---- -- --- ---- -- ------ ------<br>--- ----- -- ----,170020.20999998786,170019.614999881,169291.243,169304.06999983825,169307.929,170026.03,,15,close
screen,html.Screen,2_1_0_1_16,2021-04-30T12:48:37.992Z,,,,,,,,,,,,,,,,,53,,,,,,,,,,,,,,610.1499999140215,,response,,,,99,,,,,,,Space,keypress(Space),,,,,,,,---- -- ----- -- ------ - ------- --- ----------<br>------------- ------ ------ ---- ---- ------- ----- to ----<br>-------- ------- -- ---------- --- - --- ----- ----- ----<br>---- --- --- ----- --- ---- ---- ------- ----- ---- -------<br>--- --- -- ----- -- --- ---- -- --- ---- -- ------ ------<br>--- ----- -- ----,170636.75499986857,170636.17999991402,170009.253,170020.3999998048,170026.03,170643.885,,16,to
screen,html.Screen,2_1_0_1_17,2021-04-30T12:48:38.932Z,,,,,,,,,,,,,,,,,53,,,,,,,,,,,,,,931.7049997893628,,response,,,,99,,,,,,,Space,keypress(Space),,,,,,,,---- -- ----- -- ------ - ------- --- ----------<br>------------- ------ ------ ---- ---- ------- ----- -- your<br>-------- ------- -- ---------- --- - --- ----- ----- ----<br>---- --- --- ----- --- ---- ---- ------- ----- ---- -------<br>--- --- -- ----- -- --- ---- -- --- ---- -- ------ ------<br>--- ----- -- ----,171576.16499997675,171575.58999978937,170627.137,170636.94499991834,170643.885,171579.089,,17,your
screen,html.Screen,2_1_0_1_18,2021-04-30T12:48:39.698Z,,,,,,,,,,,,,,,,,53,,,,,,,,,,,,,,762.9009998698311,,response,,,,99,,,,,,,Space,keypress(Space),,,,,,,,---- -- ----- -- ------ - ------- --- ----------<br>------------- ------ ------ ---- ---- ------- ----- -- ----<br>romantic ------- -- ---------- --- - --- ----- ----- ----<br>---- --- --- ----- --- ---- ---- ------- ----- ---- -------<br>--- --- -- ----- -- --- ---- -- --- ---- -- ------ ------<br>--- ----- -- ----,172342.59999985807,172341.98999986984,171562.308,171576.35999983177,171579.089,172347.252,,18,romantic
screen,html.Screen,2_1_0_1_19,2021-04-30T12:48:40.592Z,,,,,,,,,,,,,,,,,53,,,,,,,,,,,,,,888.7579998768342,,response,,,,99,,,,,,,Space,keypress(Space),,,,,,,,---- -- ----- -- ------ - ------- --- ----------<br>------------- ------ ------ ---- ---- ------- ----- -- ----<br>-------- partner -- ---------- --- - --- ----- ----- ----<br>---- --- --- ----- --- ---- ---- ------- ----- ---- -------<br>--- --- -- ----- -- --- ---- -- --- ---- -- ------ ------<br>--- ----- -- ----,173236.6349999793,173236.00999987684,172330.504,172342.7949999459,172347.252,173249.105,,19,partner
screen,html.Screen,2_1_0_1_20,2021-04-30T12:48:41.424Z,,,,,,,,,,,,,,,,,53,,,,,,,,,,,,,,818.6999998823449,,response,,,,99,,,,,,,Space,keypress(Space),,,,,,,,---- -- ----- -- ------ - ------- --- ----------<br>------------- ------ ------ ---- ---- ------- ----- -- ----<br>-------- ------- is ---------- --- - --- ----- ----- ----<br>---- --- --- ----- --- ---- ---- ------- ----- ---- -------<br>--- --- -- ----- -- --- ---- -- --- ---- -- ------ ------<br>--- ----- -- ----,174068.4099998325,174067.80499988236,173232.35,173236.82499979623,173249.105,174084.155,,20,is
screen,html.Screen,2_1_0_1_21,2021-04-30T12:48:42.283Z,,,,,,,,,,,,,,,,,53,,,,,,,,,,,,,,842.5149999570858,,response,,,,99,,,,,,,Space,keypress(Space),,,,,,,,---- -- ----- -- ------ - ------- --- ----------<br>------------- ------ ------ ---- ---- ------- ----- -- ----<br>-------- ------- -- paramount. --- - --- ----- ----- ----<br>---- --- --- ----- --- ---- ---- ------- ----- ---- -------<br>--- --- -- ----- -- --- ---- -- --- ---- -- ------ ------<br>--- ----- -- ----,174927.27499990724,174926.66999995708,174067.346,174068.5850000009,174084.155,174935.772,,21,paramount.
screen,html.Screen,2_1_0_1_22,2021-04-30T12:48:43.065Z,,,,,,,,,,,,,,,,,53,,,,,,,,,,,,,,773.1929999979911,,response,,,,99,,,,,,,Space,keypress(Space),,,,,,,,---- -- ----- -- ------ - ------- --- ----------<br>------------- ------ ------ ---- ---- ------- ----- -- ----<br>-------- ------- -- ---------- But - --- ----- ----- ----<br>---- --- --- ----- --- ---- ---- ------- ----- ---- -------<br>--- --- -- ----- -- --- ---- -- --- ---- -- ------ ------<br>--- ----- -- ----,175709.56499991007,175708.964999998,174919.012,174927.464999957,174935.772,175720.615,,22,But
screen,html.Screen,2_1_0_1_23,2021-04-30T12:48:43.771Z,,,,,,,,,,,,,,,,,53,,,,,,,,,,,,,,694.3249998132233,,response,,,,99,,,,,,,Space,keypress(Space),,,,,,,,---- -- ----- -- ------ - ------- --- ----------<br>------------- ------ ------ ---- ---- ------- ----- -- ----<br>-------- ------- -- ---------- --- a --- ----- ----- ----<br>---- --- --- ----- --- ---- ---- ------- ----- ---- -------<br>--- --- -- ----- -- --- ---- -- --- ---- -- ------ ------<br>--- ----- -- ----,176415.49999988638,176414.9399998132,175703.901,175709.7599999979,175720.615,176422.017,,23,a
screen,html.Screen,2_1_0_1_24,2021-04-30T12:48:44.502Z,,,,,,,,,,,,,,,,,53,,,,,,,,,,,,,,723.6129999263212,,response,,,,99,,,,,,,Space,keypress(Space),,,,,,,,---- -- ----- -- ------ - ------- --- ----------<br>------------- ------ ------ ---- ---- ------- ----- -- ----<br>-------- ------- -- ---------- --- - new ----- ----- ----<br>---- --- --- ----- --- ---- ---- ------- ----- ---- -------<br>--- --- -- ----- -- --- ---- -- --- ---- -- ------ ------<br>--- ----- -- ----,177146.22499980032,177145.6299999263,176405.292,176415.67499982193,176422.017,177156.845,,24,new
screen,html.Screen,2_1_0_1_25,2021-04-30T12:48:45.093Z,,,,,,,,,,,,,,,,,53,,,,,,,,,,,,,,580.2199999938894,,response,,,,99,,,,,,,Space,keypress(Space),,,,,,,,---- -- ----- -- ------ - ------- --- ----------<br>------------- ------ ------ ---- ---- ------- ----- -- ----<br>-------- ------- -- ---------- --- - --- study ----- ----<br>---- --- --- ----- --- ---- ---- ------- ----- ---- -------<br>--- --- -- ----- -- --- ---- -- --- ---- -- ------ ------<br>--- ----- -- ----,177737.77499981225,177737.0649999939,177140.042,177146.40500000678,177156.845,177741.29,,25,study
screen,html.Screen,2_1_0_1_26,2021-04-30T12:48:45.824Z,,,,,,,,,,,,,,,,,53,,,,,,,,,,,,,,726.2049999898591,,response,,,,99,,,,,,,Space,keypress(Space),,,,,,,,---- -- ----- -- ------ - ------- --- ----------<br>------------- ------ ------ ---- ---- ------- ----- -- ----<br>-------- ------- -- ---------- --- - --- ----- finds ----<br>---- --- --- ----- --- ---- ---- ------- ----- ---- -------<br>--- --- -- ----- -- --- ---- -- --- ---- -- ------ ------<br>--- ----- -- ----,178468.08999986388,178467.49499998987,177724.538,177738.02499985322,177741.29,178476.071,,26,finds
screen,html.Screen,2_1_0_1_27,2021-04-30T12:48:46.551Z,,,,,,,,,,,,,,,,,53,,,,,,,,,,,,,,718.8539999597706,,response,,,,99,,,,,,,Space,keypress(Space),,,,,,,,---- -- ----- -- ------ - ------- --- ----------<br>------------- ------ ------ ---- ---- ------- ----- -- ----<br>-------- ------- -- ---------- --- - --- ----- ----- that<br>---- --- --- ----- --- ---- ---- ------- ----- ---- -------<br>--- --- -- ----- -- --- ---- -- --- ---- -- ------ ------<br>--- ----- -- ----,179195.52499987185,179194.92499995977,178459.315,178468.28499995172,178476.071,179211.12,,27,that
screen,html.Screen,2_1_0_1_28,2021-04-30T12:48:47.209Z,,,,,,,,,,,,,,,,,53,,,,,,,,,,,,,,641.3549998468952,,response,,,,99,,,,,,,Space,keypress(Space),,,,,,,,---- -- ----- -- ------ - ------- --- ----------<br>------------- ------ ------ ---- ---- ------- ----- -- ----<br>-------- ------- -- ---------- --- - --- ----- ----- ----<br>it's --- --- ----- --- ---- ---- ------- ----- ---- -------<br>--- --- -- ----- -- --- ---- -- --- ---- -- ------ ------<br>--- ----- -- ----,179853.06499991566,179852.4749998469,179194.137,179195.71499992162,179211.12,179862.182,,28,it's
screen,html.Screen,2_1_0_1_29,2021-04-30T12:48:47.912Z,,,,,,,,,,,,,,,,,53,,,,,,,,,,,,,,693.6879998073273,,response,,,,99,,,,,,,Space,keypress(Space),,,,,,,,---- -- ----- -- ------ - ------- --- ----------<br>------------- ------ ------ ---- ---- ------- ----- -- ----<br>-------- ------- -- ---------- --- - --- ----- ----- ----<br>---- not --- ----- --- ---- ---- ------- ----- ---- -------<br>--- --- -- ----- -- --- ---- -- --- ---- -- ------ ------<br>--- ----- -- ----,180556.43499991857,180555.86999980733,179845.629,179853.26499980874,179862.182,180563.546,,29,not
screen,html.Screen,2_1_0_1_30,2021-04-30T12:48:48.530Z,,,,,,,,,,,,,,,,,53,,,,,,,,,,,,,,610.3289998621622,,response,,,,99,,,,,,,Space,keypress(Space),,,,,,,,---- -- ----- -- ------ - ------- --- ----------<br>------------- ------ ------ ---- ---- ------- ----- -- ----<br>-------- ------- -- ---------- --- - --- ----- ----- ----<br>---- --- how ----- --- ---- ---- ------- ----- ---- -------<br>--- --- -- ----- -- --- ---- -- --- ---- -- ------ ------<br>--- ----- -- ----,181174.45999989286,181173.87499986216,180546.97,180556.63499981165,180563.546,181181.439,,30,how
screen,html.Screen,2_1_0_1_31,2021-04-30T12:48:49.302Z,,,,,,,,,,,,,,,,,53,,,,,,,,,,,,,,764.441000013845,,response,,,,99,,,,,,,Space,keypress(Space),,,,,,,,---- -- ----- -- ------ - ------- --- ----------<br>------------- ------ ------ ---- ---- ------- ----- -- ----<br>-------- ------- -- ---------- --- - --- ----- ----- ----<br>---- --- --- close --- ---- ---- ------- ----- ---- -------<br>--- --- -- ----- -- --- ---- -- --- ---- -- ------ ------<br>--- ----- -- ----,181946.46000000648,181945.88000001386,181164.7,181174.6399998665,181181.439,181949.626,,31,close
screen,html.Screen,2_1_0_1_32,2021-04-30T12:48:49.979Z,,,,,,,,,,,,,,,,,53,,,,,,,,,,,,,,673.2189998889226,,response,,,,99,,,,,,,Space,keypress(Space),,,,,,,,---- -- ----- -- ------ - ------- --- ----------<br>------------- ------ ------ ---- ---- ------- ----- -- ----<br>-------- ------- -- ---------- --- - --- ----- ----- ----<br>---- --- --- ----- you ---- ---- ------- ----- ---- -------<br>--- --- -- ----- -- --- ---- -- --- ---- -- ------ ------<br>--- ----- -- ----,182623.3849998098,182622.8449998889,181932.868,181946.6399999801,181949.626,182634.41,,32,you
screen,html.Screen,2_1_0_1_33,2021-04-30T12:48:50.621Z,,,,,,,,,,,,,,,,,53,,,,,,,,,,,,,,629.3349998874182,,response,,,,99,,,,,,,Space,keypress(Space),,,,,,,,---- -- ----- -- ------ - ------- --- ----------<br>------------- ------ ------ ---- ---- ------- ----- -- ----<br>-------- ------- -- ---------- --- - --- ----- ----- ----<br>---- --- --- ----- --- feel ---- ------- ----- ---- -------<br>--- --- -- ----- -- --- ---- -- --- ---- -- ------ ------<br>--- ----- -- ----,183265.85999992676,183263.74499988742,182617.556,182623.57999989763,182634.41,183268.904,,33,feel
screen,html.Screen,2_1_0_1_34,2021-04-30T12:48:51.283Z,,,,,,,,,,,,,,,,,53,,,,,,,,,,,,,,657.5609997930878,,response,,,,99,,,,,,,Space,keypress(Space),,,,,,,,---- -- ----- -- ------ - ------- --- ----------<br>------------- ------ ------ ---- ---- ------- ----- -- ----<br>-------- ------- -- ---------- --- - --- ----- ----- ----<br>---- --- --- ----- --- ---- that ------- ----- ---- -------<br>--- --- -- ----- -- --- ---- -- --- ---- -- ------ ------<br>--- ----- -- ----,183927.2349998355,183926.4649997931,183252.186,183266.04499993846,183268.904,183936.902,,34,that
screen,html.Screen,2_1_0_1_35,2021-04-30T12:48:51.941Z,,,,,,,,,,,,,,,,,53,,,,,,,,,,,,,,647.6629999100696,,response,,,,99,,,,,,,Space,keypress(Space),,,,,,,,---- -- ----- -- ------ - ------- --- ----------<br>------------- ------ ------ ---- ---- ------- ----- -- ----<br>-------- ------- -- ---------- --- - --- ----- ----- ----<br>---- --- --- ----- --- ---- ---- matters ----- ---- -------<br>--- --- -- ----- -- --- ---- -- --- ---- -- ------ ------<br>--- ----- -- ----,184585.10999986902,184584.56499991007,183920.193,183927.41499980912,183936.902,184588.219,,35,matters
screen,html.Screen,2_1_0_1_36,2021-04-30T12:48:52.563Z,,,,,,,,,,,,,,,,,53,,,,,,,,,,,,,,618.9359999527514,,response,,,,99,,,,,,,Space,keypress(Space),,,,,,,,"---- -- ----- -- ------ - ------- --- ----------<br>------------- ------ ------ ---- ---- ------- ----- -- ----<br>-------- ------- -- ---------- --- - --- ----- ----- ----<br>---- --- --- ----- --- ---- ---- ------- most, ---- -------<br>--- --- -- ----- -- --- ---- -- --- ---- -- ------ ------<br>--- ----- -- ----",185207.8849999234,185207.15499995276,184571.427,184586.0649999231,184588.219,185222.824,,36,"most,"
screen,html.Screen,2_1_0_1_37,2021-04-30T12:48:53.254Z,,,,,,,,,,,,,,,,,53,,,,,,,,,,,,,,675.105999977357,,response,,,,99,,,,,,,Space,keypress(Space),,,,,,,,---- -- ----- -- ------ - ------- --- ----------<br>------------- ------ ------ ---- ---- ------- ----- -- ----<br>-------- ------- -- ---------- --- - --- ----- ----- ----<br>---- --- --- ----- --- ---- ---- ------- ----- it's -------<br>--- --- -- ----- -- --- ---- -- --- ---- -- ------ ------<br>--- ----- -- ----,185898.48999981768,185897.92999997735,185206.07,185208.07499997318,185222.824,185907.564,,37,it's
screen,html.Screen,2_1_0_1_38,2021-04-30T12:48:53.899Z,,,,,,,,,,,,,,,,,53,,,,,,,,,,,,,,634.8959999096114,,response,,,,99,,,,,,,Space,keypress(Space),,,,,,,,---- -- ----- -- ------ - ------- --- ----------<br>------------- ------ ------ ---- ---- ------- ----- -- ----<br>-------- ------- -- ---------- --- - --- ----- ----- ----<br>---- --- --- ----- --- ---- ---- ------- ----- ---- whether<br>--- --- -- ----- -- --- ---- -- --- ---- -- ------ ------<br>--- ----- -- ----,186543.0199999828,186542.45999990962,185890.766,185898.659999948,185907.564,186558.777,,38,whether
screen,html.Screen,2_1_0_1_39,2021-04-30T12:48:54.434Z,,,,,,,,,,,,,,,,,53,,,,,,,,,,,,,,518.7779998506885,,response,,,,99,,,,,,,Space,keypress(Space),,,,,,,,---- -- ----- -- ------ - ------- --- ----------<br>------------- ------ ------ ---- ---- ------- ----- -- ----<br>-------- ------- -- ---------- --- - --- ----- ----- ----<br>---- --- --- ----- --- ---- ---- ------- ----- ---- -------<br>you --- -- ----- -- --- ---- -- --- ---- -- ------ ------<br>--- ----- -- ----,187078.10999988578,187077.5549998507,186542.011,186543.19499991834,186558.777,187093.2,,39,you
screen,html.Screen,2_1_0_1_40,2021-04-30T12:48:54.978Z,,,,,,,,,,,,,,,,,53,,,,,,,,,,,,,,528.739999982703,,response,,,,99,,,,,,,Space,keypress(Space),,,,,,,,---- -- ----- -- ------ - ------- --- ----------<br>------------- ------ ------ ---- ---- ------- ----- -- ----<br>-------- ------- -- ---------- --- - --- ----- ----- ----<br>---- --- --- ----- --- ---- ---- ------- ----- ---- -------<br>--- are -- ----- -- --- ---- -- --- ---- -- ------ ------<br>--- ----- -- ----,187622.4950000178,187621.93999998271,187076.395,187078.27499997802,187093.2,187627.524,,40,are
screen,html.Screen,2_1_0_1_41,2021-04-30T12:48:55.540Z,,,,,,,,,,,,,,,,,53,,,,,,,,,,,,,,556.6609999036591,,response,,,,99,,,,,,,Space,keypress(Space),,,,,,,,---- -- ----- -- ------ - ------- --- ----------<br>------------- ------ ------ ---- ---- ------- ----- -- ----<br>-------- ------- -- ---------- --- - --- ----- ----- ----<br>---- --- --- ----- --- ---- ---- ------- ----- ---- -------<br>--- --- as ----- -- --- ---- -- --- ---- -- ------ ------<br>--- ----- -- ----,188184.72499982454,188184.18499990366,187610.806,187622.65499983914,187627.524,188195.378,,41,as
screen,html.Screen,2_1_0_1_42,2021-04-30T12:48:56.103Z,,,,,,,,,,,,,,,,,53,,,,,,,,,,,,,,550.9619998378039,,response,,,,99,,,,,,,Space,keypress(Space),,,,,,,,---- -- ----- -- ------ - ------- --- ----------<br>------------- ------ ------ ---- ---- ------- ----- -- ----<br>-------- ------- -- ---------- --- - --- ----- ----- ----<br>---- --- --- ----- --- ---- ---- ------- ----- ---- -------<br>--- --- -- close -- --- ---- -- --- ---- -- ------ ------<br>--- ----- -- ----,188746.88499979675,188746.3399998378,188178.579,188184.90499979816,188195.378,188763.224,,42,close
screen,html.Screen,2_1_0_1_43,2021-04-30T12:48:56.652Z,,,,,,,,,,,,,,,,,53,,,,,,,,,,,,,,532.985999825818,,response,,,,99,,,,,,,Space,keypress(Space),,,,,,,,---- -- ----- -- ------ - ------- --- ----------<br>------------- ------ ------ ---- ---- ------- ----- -- ----<br>-------- ------- -- ---------- --- - --- ----- ----- ----<br>---- --- --- ----- --- ---- ---- ------- ----- ---- -------<br>--- --- -- ----- as --- ---- -- --- ---- -- ------ ------<br>--- ----- -- ----,189296.75500001758,189296.2099998258,188746.412,188747.06999980845,188763.224,189322.265,,43,as
screen,html.Screen,2_1_0_1_44,2021-04-30T12:48:57.104Z,,,,,,,,,,,,,,,,,53,,,,,,,,,,,,,,425.81000001041684,,response,,,,99,,,,,,,Space,keypress(Space),,,,,,,,---- -- ----- -- ------ - ------- --- ----------<br>------------- ------ ------ ---- ---- ------- ----- -- ----<br>-------- ------- -- ---------- --- - --- ----- ----- ----<br>---- --- --- ----- --- ---- ---- ------- ----- ---- -------<br>--- --- -- ----- -- you ---- -- --- ---- -- ------ ------<br>--- ----- -- ----,189748.75999987125,189748.07500001043,189280.882,189296.92999995314,189322.265,189765.151,,44,you
screen,html.Screen,2_1_0_1_45,2021-04-30T12:48:57.605Z,,,,,,,,,,,,,,,,,53,,,,,,,,,,,,,,483.4189998214715,,response,,,,99,,,,,,,Space,keypress(Space),,,,,,,,---- -- ----- -- ------ - ------- --- ----------<br>------------- ------ ------ ---- ---- ------- ----- -- ----<br>-------- ------- -- ---------- --- - --- ----- ----- ----<br>---- --- --- ----- --- ---- ---- ------- ----- ---- -------<br>--- --- -- ----- -- --- want -- --- ---- -- ------ ------<br>--- ----- -- ----,190249.07999997959,190248.56999982148,189748.378,189750.61999983154,189765.151,190266.101,,45,want
screen,html.Screen,2_1_0_1_46,2021-04-30T12:48:58.097Z,,,,,,,,,,,,,,,,,53,,,,,,,,,,,,,,474.57899981344235,,response,,,,99,,,,,,,Space,keypress(Space),,,,,,,,---- -- ----- -- ------ - ------- --- ----------<br>------------- ------ ------ ---- ---- ------- ----- -- ----<br>-------- ------- -- ---------- --- - --- ----- ----- ----<br>---- --- --- ----- --- ---- ---- ------- ----- ---- -------<br>--- --- -- ----- -- --- ---- to --- ---- -- ------ ------<br>--- ----- -- ----,190741.21499992907,190740.67999981344,190249.353,190249.43499988876,190266.101,190750.503,,46,to
screen,html.Screen,2_1_0_1_47,2021-04-30T12:48:58.547Z,,,,,,,,,,,,,,,,,53,,,,,,,,,,,,,,440.6569999293715,,response,,,,99,,,,,,,Space,keypress(Space),,,,,,,,"---- -- ----- -- ------ - ------- --- ----------<br>------------- ------ ------ ---- ---- ------- ----- -- ----<br>-------- ------- -- ---------- --- - --- ----- ----- ----<br>---- --- --- ----- --- ---- ---- ------- ----- ---- -------<br>--- --- -- ----- -- --- ---- -- be, ---- -- ------ ------<br>--- ----- -- ----",191191.739999922,191191.15999992937,190733.738,190741.38499982655,190750.503,191201.386,,47,"be,"
screen,html.Screen,2_1_0_1_48,2021-04-30T12:48:59.037Z,,,,,,,,,,,,,,,,,53,,,,,,,,,,,,,,479.00399987766286,,response,,,,99,,,,,,,Space,keypress(Space),,,,,,,,---- -- ----- -- ------ - ------- --- ----------<br>------------- ------ ------ ---- ---- ------- ----- -- ----<br>-------- ------- -- ---------- --- - --- ----- ----- ----<br>---- --- --- ----- --- ---- ---- ------- ----- ---- -------<br>--- --- -- ----- -- --- ---- -- --- even -- ------ ------<br>--- ----- -- ----,191680.9649998322,191680.38999987766,191184.587,191191.90500001423,191201.386,191685.59,,48,even
screen,html.Screen,2_1_0_1_49,2021-04-30T12:48:59.515Z,,,,,,,,,,,,,,,,,53,,,,,,,,,,,,,,473.26999985039583,,response,,,,99,,,,,,,Space,keypress(Space),,,,,,,,---- -- ----- -- ------ - ------- --- ----------<br>------------- ------ ------ ---- ---- ------- ----- -- ----<br>-------- ------- -- ---------- --- - --- ----- ----- ----<br>---- --- --- ----- --- ---- ---- ------- ----- ---- -------<br>--- --- -- ----- -- --- ---- -- --- ---- if ------ ------<br>--- ----- -- ----,192159.44999991916,192158.8599998504,191668.891,191681.13499996252,191685.59,192169.88,,49,if
screen,html.Screen,2_1_0_1_50,2021-04-30T12:48:59.961Z,,,,,,,,,,,,,,,,,53,,,,,,,,,,,,,,434.9149998173816,,response,,,,99,,,,,,,Space,keypress(Space),,,,,,,,---- -- ----- -- ------ - ------- --- ----------<br>------------- ------ ------ ---- ---- ------- ----- -- ----<br>-------- ------- -- ---------- --- - --- ----- ----- ----<br>---- --- --- ----- --- ---- ---- ------- ----- ---- -------<br>--- --- -- ----- -- --- ---- -- --- ---- -- that's ------<br>--- ----- -- ----,192605.32499989495,192604.7949998174,192153.122,192159.6599998884,192169.88,192620.848,,50,that's
screen,html.Screen,2_1_0_1_51,2021-04-30T12:49:00.455Z,,,,,,,,,,,,,,,,,53,,,,,,,,,,,,,,477.871999892639,,response,,,,99,,,,,,,Space,keypress(Space),,,,,,,,---- -- ----- -- ------ - ------- --- ----------<br>------------- ------ ------ ---- ---- ------- ----- -- ----<br>-------- ------- -- ---------- --- - --- ----- ----- ----<br>---- --- --- ----- --- ---- ---- ------- ----- ---- -------<br>--- --- -- ----- -- --- ---- -- --- ---- -- ------ really<br>--- ----- -- ----,193099.28500000387,193098.71999989264,192604.019,192605.4999998305,192620.848,193105.075,,51,really
screen,html.Screen,2_1_0_1_52,2021-04-30T12:49:00.920Z,,,,,,,,,,,,,,,,,53,,,,,,,,,,,,,,458.5349998373422,,response,,,,99,,,,,,,Space,keypress(Space),,,,,,,,---- -- ----- -- ------ - ------- --- ----------<br>------------- ------ ------ ---- ---- ------- ----- -- ----<br>-------- ------- -- ---------- --- - --- ----- ----- ----<br>---- --- --- ----- --- ---- ---- ------- ----- ---- -------<br>--- --- -- ----- -- --- ---- -- --- ---- -- ------ ------<br>not ----- -- ----,193564.16499987245,193563.60999983735,193088.336,193099.45499990135,193105.075,193572.664,,52,not
screen,html.Screen,2_1_0_1_53,2021-04-30T12:49:01.418Z,,,,,,,,,,,,,,,,,53,,,,,,,,,,,,,,489.1409998302115,,response,,,,99,,,,,,,Space,keypress(Space),,,,,,,,---- -- ----- -- ------ - ------- --- ----------<br>------------- ------ ------ ---- ---- ------- ----- -- ----<br>-------- ------- -- ---------- --- - --- ----- ----- ----<br>---- --- --- ----- --- ---- ---- ------- ----- ---- -------<br>--- --- -- ----- -- --- ---- -- --- ---- -- ------ ------<br>--- close -- ----,194062.36499990337,194061.8049998302,193556.006,193564.32999996468,193572.664,194073.648,,53,close
screen,html.Screen,2_1_0_1_54,2021-04-30T12:49:01.863Z,,,,,,,,,,,,,,,,,53,,,,,,,,,,,,,,433.2619999964372,,response,,,,99,,,,,,,Space,keypress(Space),,,,,,,,---- -- ----- -- ------ - ------- --- ----------<br>------------- ------ ------ ---- ---- ------- ----- -- ----<br>-------- ------- -- ---------- --- - --- ----- ----- ----<br>---- --- --- ----- --- ---- ---- ------- ----- ---- -------<br>--- --- -- ----- -- --- ---- -- --- ---- -- ------ ------<br>--- ----- at ----,194507.46999983676,194506.90999999642,194056.91,194062.5299999956,194073.648,194524.541,,54,at
screen,html.Screen,2_1_0_1_55,2021-04-30T12:49:02.560Z,,,,,,,,,,,,,,,,,53,,,,,,,,,,,,,,679.1689997978683,,response,,,,99,,,,,,,Space,keypress(Space),,,,,,,,---- -- ----- -- ------ - ------- --- ----------<br>------------- ------ ------ ---- ---- ------- ----- -- ----<br>-------- ------- -- ---------- --- - --- ----- ----- ----<br>---- --- --- ----- --- ---- ---- ------- ----- ---- -------<br>--- --- -- ----- -- --- ---- -- --- ---- -- ------ ------<br>--- ----- -- all.,195204.2599997949,195203.70999979787,194507.787,194507.634999929,194524.541,195209.24,,55,all.
Item 99,flow.Loop,2_1_0_1,2021-04-30T12:49:02.560Z,,,,,,,,,,,,,,,,,,,,,,,,,,,,,,,38721.11299979786,,completion,,,,,E,,,,,,,,,,,silence,,,,,195204.57499986514,195203.70999979787,156399.231,156399.95499979705,156482.597,195209.24,,,
Question 1,html.Screen,2_1_0_2,2021-04-30T12:49:13.364Z,,,,,,,,,,,,,,,,,,,,,,,,,,,,true,FALSE,,10798.349999819184,,response,,,,99,E,,,,,,FALSE,click #choice-2,,,,silence,,,,,206008.5249999538,206007.58999981917,195192.468,195204.72999988124,195209.24,206013.976,,,
Question 2,html.Screen,2_1_0_3,2021-04-30T12:49:24.628Z,,,,,,,,,,,,,,,,,,,,,,,,,,,,true,TRUE,,11257.628999899869,,response,,,,99,E,,,,,,TRUE,click #choice-1,,,,silence,,,,,217272.53499999642,217271.60499989986,205997.254,206008.6949998513,206013.976,217286.313,,,
Item 99,flow.Sequence,2_1_0,2021-04-30T12:49:24.628Z,,,,,,,,,,,,,,,,,,,,,,,,,,,,,,,70859.06699989986,,completion,,,,,,,,,,,,,,,,,,,,,217272.78499980457,217271.60499989986,146395.861,146401.20500000194,146412.538,217286.313,,,
Holding screen,html.Screen,2_1_1_0,2021-04-30T12:49:34.629Z,,,,,,,,,,,,,,,,,,,,,,,,,,,,,,,10003.152000000002,,timeout,,,,,,,,,,,,,,,,,,,,,227273.30000000075,227272.812,217269.619,217272.95499993488,217286.313,227289.465,,,
screen,html.Screen,2_1_1_1_0,2021-04-30T12:49:35.500Z,,,,,,,,,,,,,,,,,54,,,,,,,,,,,,,,853.8949998708849,,response,,,,100,,,,,,,Space,keypress(Space),,,,,,,,At --- ---- --- ------ ----- ------- ---- -- --- ------- --<br>------- ---------- ------ -- ----- -- ----- -- ---- ------<br>--- ----- --- --- ------ -------- ----- --- ------ ----- --<br>----- ----- ---------- --- --- ------ ------ ---- -- ------<br>------- --- ------ ----- --- ---- ------- -- ---- --- --<br>------- ------,228143.88999994844,228143.35999987088,227272.812,227273.5199998133,227289.465,228157.844,,0,At
screen,html.Screen,2_1_1_1_1,2021-04-30T12:49:36.135Z,,,,,,,,,,,,,,,,,54,,,,,,,,,,,,,,621.33599983764,,response,,,,100,,,,,,,Space,keypress(Space),,,,,,,,-- the ---- --- ------ ----- ------- ---- -- --- ------- --<br>------- ---------- ------ -- ----- -- ----- -- ---- ------<br>--- ----- --- --- ------ -------- ----- --- ------ ----- --<br>----- ----- ---------- --- --- ------ ------ ---- -- ------<br>------- --- ------ ----- --- ---- ------- -- ---- --- --<br>------- ------,228779.7249997966,228779.17999983765,228141.103,228144.04499996454,228157.844,228792.458,,1,the
screen,html.Screen,2_1_1_1_2,2021-04-30T12:49:36.845Z,,,,,,,,,,,,,,,,,54,,,,,,,,,,,,,,695.7569999029802,,response,,,,100,,,,,,,Space,keypress(Space),,,,,,,,-- --- time --- ------ ----- ------- ---- -- --- ------- --<br>------- ---------- ------ -- ----- -- ----- -- ---- ------<br>--- ----- --- --- ------ -------- ----- --- ------ ----- --<br>----- ----- ---------- --- --- ------ ------ ---- -- ------<br>------- --- ------ ----- --- ---- ------- -- ---- --- --<br>------- ------,229488.84999984875,229488.214999903,228775.68,228779.88999988884,228792.458,229493.896,,2,time
screen,html.Screen,2_1_1_1_3,2021-04-30T12:49:37.374Z,,,,,,,,,,,,,,,,,54,,,,,,,,,,,,,,524.3189999309252,,response,,,,100,,,,,,,Space,keypress(Space),,,,,,,,-- --- ---- the ------ ----- ------- ---- -- --- ------- --<br>------- ---------- ------ -- ----- -- ----- -- ---- ------<br>--- ----- --- --- ------ -------- ----- --- ------ ----- --<br>----- ----- ---------- --- --- ------ ------ ---- -- ------<br>------- --- ------ ----- --- ---- ------- -- ---- --- --<br>------- ------,230018.72999989428,230018.21499993093,229477.065,229489.01999997906,229493.896,230028.315,,3,the
screen,html.Screen,2_1_1_1_4,2021-04-30T12:49:37.971Z,,,,,,,,,,,,,,,,,54,,,,,,,,,,,,,,586.9749998705811,,response,,,,100,,,,,,,Space,keypress(Space),,,,,,,,-- --- ---- --- French ----- ------- ---- -- --- ------- --<br>------- ---------- ------ -- ----- -- ----- -- ---- ------<br>--- ----- --- --- ------ -------- ----- --- ------ ----- --<br>----- ----- ---------- --- --- ------ ------ ---- -- ------<br>------- --- ------ ----- --- ---- ------- -- ---- --- --<br>------- ------,230615.809999872,230615.28999987058,230011.579,230018.89999979176,230028.315,230629.499,,4,French
screen,html.Screen,2_1_1_1_5,2021-04-30T12:49:38.563Z,,,,,,,,,,,,,,,,,54,,,,,,,,,,,,,,577.7109999058885,,response,,,,100,,,,,,,Space,keypress(Space),,,,,,,,-- --- ---- --- ------ crown ------- ---- -- --- ------- --<br>------- ---------- ------ -- ----- -- ----- -- ---- ------<br>--- ----- --- --- ------ -------- ----- --- ------ ----- --<br>----- ----- ---------- --- --- ------ ------ ---- -- ------<br>------- --- ------ ----- --- ---- ------- -- ---- --- --<br>------- ------,231207.7349999454,231207.2099999059,230612.672,230615.97499996424,230629.499,231213.926,,5,crown
screen,html.Screen,2_1_1_1_6,2021-04-30T12:49:39.375Z,,,,,,,,,,,,,,,,,54,,,,,,,,,,,,,,804.9489998342178,,response,,,,100,,,,,,,Space,keypress(Space),,,,,,,,-- --- ---- --- ------ ----- secured ---- -- --- ------- --<br>------- ---------- ------ -- ----- -- ----- -- ---- ------<br>--- ----- --- --- ------ -------- ----- --- ------ ----- --<br>----- ----- ---------- --- --- ------ ------ ---- -- ------<br>------- --- ------ ----- --- ---- ------- -- ---- --- --<br>------- ------,232019.40999994986,232018.87499983422,231197.196,231207.8999998048,231213.926,232032.247,,6,secured
screen,html.Screen,2_1_1_1_7,2021-04-30T12:49:39.966Z,,,,,,,,,,,,,,,,,54,,,,,,,,,,,,,,577.8479998944968,,response,,,,100,,,,,,,Space,keypress(Space),,,,,,,,-- --- ---- --- ------ ----- ------- much -- --- ------- --<br>------- ---------- ------ -- ----- -- ----- -- ---- ------<br>--- ----- --- --- ------ -------- ----- --- ------ ----- --<br>----- ----- ---------- --- --- ------ ------ ---- -- ------<br>------- --- ------ ----- --- ---- ------- -- ---- --- --<br>------- ------,232610.66499981098,232610.0949998945,232015.539,232019.56499996595,232032.247,232616.666,,7,much
screen,html.Screen,2_1_1_1_8,2021-04-30T12:49:40.573Z,,,,,,,,,,,,,,,,,54,,,,,,,,,,,,,,599.6539998904045,,response,,,,100,,,,,,,Space,keypress(Space),,,,,,,,-- --- ---- --- ------ ----- ------- ---- of --- ------- --<br>------- ---------- ------ -- ----- -- ----- -- ---- ------<br>--- ----- --- --- ------ -------- ----- --- ------ ----- --<br>----- ----- ---------- --- --- ------ ------ ---- -- ------<br>------- --- ------ ----- --- ---- ------- -- ---- --- --<br>------- ------,233216.8449999299,233216.3199998904,232599.918,232610.82999990322,232616.666,233241.923,,8,of
screen,html.Screen,2_1_1_1_9,2021-04-30T12:49:41.147Z,,,,,,,,,,,,,,,,,54,,,,,,,,,,,,,,548.9369998336188,,response,,,,100,,,,,,,Space,keypress(Space),,,,,,,,-- --- ---- --- ------ ----- ------- ---- -- its ------- --<br>------- ---------- ------ -- ----- -- ----- -- ---- ------<br>--- ----- --- --- ------ -------- ----- --- ------ ----- --<br>----- ----- ---------- --- --- ------ ------ ---- -- ------<br>------- --- ------ ----- --- ---- ------- -- ---- --- --<br>------- ------,233791.45999997854,233790.85999983363,233201.109,233217.0099997893,233241.923,233802.361,,9,its
screen,html.Screen,2_1_1_1_10,2021-04-30T12:49:41.680Z,,,,,,,,,,,,,,,,,54,,,,,,,,,,,,,,521.34899990962,,response,,,,100,,,,,,,Space,keypress(Space),,,,,,,,-- --- ---- --- ------ ----- ------- ---- -- --- revenue --<br>------- ---------- ------ -- ----- -- ----- -- ---- ------<br>--- ----- --- --- ------ -------- ----- --- ------ ----- --<br>----- ----- ---------- --- --- ------ ------ ---- -- ------<br>------- --- ------ ----- --- ---- ------- -- ---- --- --<br>------- ------,234324.25999990664,234323.70999990962,233785.61,233791.62499983795,233802.361,234336.853,,10,revenue
screen,html.Screen,2_1_1_1_11,2021-04-30T12:49:42.333Z,,,,,,,,,,,,,,,,,54,,,,,,,,,,,,,,640.1969998703571,,response,,,,100,,,,,,,Space,keypress(Space),,,,,,,,-- --- ---- --- ------ ----- ------- ---- -- --- ------- by<br>------- ---------- ------ -- ----- -- ----- -- ---- ------<br>--- ----- --- --- ------ -------- ----- --- ------ ----- --<br>----- ----- ---------- --- --- ------ ------ ---- -- ------<br>------- --- ------ ----- --- ---- ------- -- ---- --- --<br>------- ------,234977.62999986298,234977.04999987036,234320.032,234324.42499999888,234336.853,234988.155,,11,by
screen,html.Screen,2_1_1_1_12,2021-04-30T12:49:42.993Z,,,,,,,,,,,,,,,,,54,,,,,,,,,,,,,,648.5149999198329,,response,,,,100,,,,,,,Space,keypress(Space),,,,,,,,-- --- ---- --- ------ ----- ------- ---- -- --- ------- --<br>issuing ---------- ------ -- ----- -- ----- -- ---- ------<br>--- ----- --- --- ------ -------- ----- --- ------ ----- --<br>----- ----- ---------- --- --- ------ ------ ---- -- ------<br>------- --- ------ ----- --- ---- ------- -- ---- --- --<br>------- ------,235637.18999992125,235636.66999991983,234971.312,234977.79499995522,234988.155,235639.345,,12,issuing
screen,html.Screen,2_1_1_1_13,2021-04-30T12:49:43.642Z,,,,,,,,,,,,,,,,,54,,,,,,,,,,,,,,646.0249999395746,,response,,,,100,,,,,,,Space,keypress(Space),,,,,,,,-- --- ---- --- ------ ----- ------- ---- -- --- ------- --<br>------- government ------ -- ----- -- ----- -- ---- ------<br>--- ----- --- --- ------ -------- ----- --- ------ ----- --<br>----- ----- ---------- --- --- ------ ------ ---- -- ------<br>------- --- ------ ----- --- ---- ------- -- ---- --- --<br>------- ------,236285.96000000834,236285.36999993958,235622.619,235637.35999981873,235639.345,236290.616,,13,government
screen,html.Screen,2_1_1_1_14,2021-04-30T12:49:44.256Z,,,,,,,,,,,,,,,,,54,,,,,,,,,,,,,,609.4089998643904,,response,,,,100,,,,,,,Space,keypress(Space),,,,,,,,-- --- ---- --- ------ ----- ------- ---- -- --- ------- --<br>------- ---------- bonds. -- ----- -- ----- -- ---- ------<br>--- ----- --- --- ------ -------- ----- --- ------ ----- --<br>----- ----- ---------- --- --- ------ ------ ---- -- ------<br>------- --- ------ ----- --- ---- ------- -- ---- --- --<br>------- ------,236900.5799998995,236900.0249998644,236273.912,236286.1149997916,236290.616,236908.605,,14,bonds.
screen,html.Screen,2_1_1_1_15,2021-04-30T12:49:45.001Z,,,,,,,,,,,,,,,,,54,,,,,,,,,,,,,,736.0749999102845,,response,,,,100,,,,,,,Space,keypress(Space),,,,,,,,-- --- ---- --- ------ ----- ------- ---- -- --- ------- --<br>------- ---------- ------ In ----- -- ----- -- ---- ------<br>--- ----- --- --- ------ -------- ----- --- ------ ----- --<br>----- ----- ---------- --- --- ------ ------ ---- -- ------<br>------- --- ------ ----- --- ---- ------- -- ---- --- --<br>------- ------,237645.20499994978,237644.6799999103,236891.752,236900.73999995366,236908.605,237660.035,,15,In
screen,html.Screen,2_1_1_1_16,2021-04-30T12:49:45.792Z,,,,,,,,,,,,,,,,,54,,,,,,,,,,,,,,775.5400000104273,,response,,,,100,,,,,,,Space,keypress(Space),,,,,,,,"-- --- ---- --- ------ ----- ------- ---- -- --- ------- --<br>------- ---------- ------ -- 1727, -- ----- -- ---- ------<br>--- ----- --- --- ------ -------- ----- --- ------ ----- --<br>----- ----- ---------- --- --- ------ ------ ---- -- ------<br>------- --- ------ ----- --- ---- ------- -- ---- --- --<br>------- ------",238436.1899998039,238435.57500001043,237643.281,237645.3699998092,237660.035,238444.9,,16,"1727,"
screen,html.Screen,2_1_1_1_17,2021-04-30T12:49:46.583Z,,,,,,,,,,,,,,,,,54,,,,,,,,,,,,,,781.3849998660444,,response,,,,100,,,,,,,Space,keypress(Space),,,,,,,,-- --- ---- --- ------ ----- ------- ---- -- --- ------- --<br>------- ---------- ------ -- ----- in ----- -- ---- ------<br>--- ----- --- --- ------ -------- ----- --- ------ ----- --<br>----- ----- ---------- --- --- ------ ------ ---- -- ------<br>------- --- ------ ----- --- ---- ------- -- ---- --- --<br>------- ------,239226.85500001535,239226.28499986604,238428.132,238436.3599999342,238444.9,239229.788,,17,in
screen,html.Screen,2_1_1_1_18,2021-04-30T12:49:47.126Z,,,,,,,,,,,,,,,,,54,,,,,,,,,,,,,,540.381999916106,,response,,,,100,,,,,,,Space,keypress(Space),,,,,,,,-- --- ---- --- ------ ----- ------- ---- -- --- ------- --<br>------- ---------- ------ -- ----- -- order -- ---- ------<br>--- ----- --- --- ------ -------- ----- --- ------ ----- --<br>----- ----- ---------- --- --- ------ ------ ---- -- ------<br>------- --- ------ ----- --- ---- ------- -- ---- --- --<br>------- ------,239770.71999991313,239770.1699999161,239213.078,239227.02499991283,239229.788,239780.99,,18,order
screen,html.Screen,2_1_1_1_19,2021-04-30T12:49:47.701Z,,,,,,,,,,,,,,,,,54,,,,,,,,,,,,,,563.5049998520408,,response,,,,100,,,,,,,Space,keypress(Space),,,,,,,,-- --- ---- --- ------ ----- ------- ---- -- --- ------- --<br>------- ---------- ------ -- ----- -- ----- to ---- ------<br>--- ----- --- --- ------ -------- ----- --- ------ ----- --<br>----- ----- ---------- --- --- ------ ------ ---- -- ------<br>------- --- ------ ----- --- ---- ------- -- ---- --- --<br>------- ------,240345.00500001013,240344.49499985203,239764.148,239770.8899998106,239780.99,240348.665,,19,to
screen,html.Screen,2_1_1_1_20,2021-04-30T12:49:48.245Z,,,,,,,,,,,,,,,,,54,,,,,,,,,,,,,,540.3299999283918,,response,,,,100,,,,,,,Space,keypress(Space),,,,,,,,-- --- ---- --- ------ ----- ------- ---- -- --- ------- --<br>------- ---------- ------ -- ----- -- ----- -- save ------<br>--- ----- --- --- ------ -------- ----- --- ------ ----- --<br>----- ----- ---------- --- --- ------ ------ ---- -- ------<br>------- --- ------ ----- --- ---- ------- -- ---- --- --<br>------- ------,240889.5499999635,240888.9949999284,240331.913,240345.1749999076,240348.665,240899.761,,20,save
screen,html.Screen,2_1_1_1_21,2021-04-30T12:49:48.837Z,,,,,,,,,,,,,,,,,54,,,,,,,,,,,,,,580.8589998129173,,response,,,,100,,,,,,,Space,keypress(Space),,,,,,,,"-- --- ---- --- ------ ----- ------- ---- -- --- ------- --<br>------- ---------- ------ -- ----- -- ----- -- ---- money,<br>--- ----- --- --- ------ -------- ----- --- ------ ----- --<br>----- ----- ---------- --- --- ------ ------ ---- -- ------<br>------- --- ------ ----- --- ---- ------- -- ---- --- --<br>------- ------",241481.2049998436,241480.61999981292,240883.017,240889.71000001766,240899.761,241484.248,,21,"money,"
screen,html.Screen,2_1_1_1_22,2021-04-30T12:49:49.420Z,,,,,,,,,,,,,,,,,54,,,,,,,,,,,,,,579.3219999984431,,response,,,,100,,,,,,,Space,keypress(Space),,,,,,,,-- --- ---- --- ------ ----- ------- ---- -- --- ------- --<br>------- ---------- ------ -- ----- -- ----- -- ---- ------<br>the ----- --- --- ------ -------- ----- --- ------ ----- --<br>----- ----- ---------- --- --- ------ ------ ---- -- ------<br>------- --- ------ ----- --- ---- ------- -- ---- --- --<br>------- ------,242064.04499989003,242063.56999999844,241467.601,241481.3899998553,241484.248,242068.754,,22,the
screen,html.Screen,2_1_1_1_23,2021-04-30T12:49:50.016Z,,,,,,,,,,,,,,,,,54,,,,,,,,,,,,,,590.6109999704349,,response,,,,100,,,,,,,Space,keypress(Space),,,,,,,,-- --- ---- --- ------ ----- ------- ---- -- --- ------- --<br>------- ---------- ------ -- ----- -- ----- -- ---- ------<br>--- state --- --- ------ -------- ----- --- ------ ----- --<br>----- ----- ---------- --- --- ------ ------ ---- -- ------<br>------- --- ------ ----- --- ---- ------- -- ---- --- --<br>------- ------,242659.91499996744,242659.36499997042,242052.115,242064.19999990612,242068.754,242670.024,,23,state
screen,html.Screen,2_1_1_1_24,2021-04-30T12:49:50.568Z,,,,,,,,,,,,,,,,,54,,,,,,,,,,,,,,542.1709999127488,,response,,,,100,,,,,,,Space,keypress(Space),,,,,,,,-- --- ---- --- ------ ----- ------- ---- -- --- ------- --<br>------- ---------- ------ -- ----- -- ----- -- ---- ------<br>--- ----- cut --- ------ -------- ----- --- ------ ----- --<br>----- ----- ---------- --- --- ------ ------ ---- -- ------<br>------- --- ------ ----- --- ---- ------- -- ---- --- --<br>------- ------,243212.75999979116,243212.19499991275,242653.222,242660.08499986492,242670.024,243221.116,,24,cut
screen,html.Screen,2_1_1_1_25,2021-04-30T12:49:51.091Z,,,,,,,,,,,,,,,,,54,,,,,,,,,,,,,,513.8439997978567,,response,,,,100,,,,,,,Space,keypress(Space),,,,,,,,-- --- ---- --- ------ ----- ------- ---- -- --- ------- --<br>------- ---------- ------ -- ----- -- ----- -- ---- ------<br>--- ----- --- the ------ -------- ----- --- ------ ----- --<br>----- ----- ---------- --- --- ------ ------ ---- -- ------<br>------- --- ------ ----- --- ---- ------- -- ---- --- --<br>------- ------,243735.53499998525,243734.95999979787,243204.381,243212.92999992147,243221.116,243738.709,,25,the
screen,html.Screen,2_1_1_1_26,2021-04-30T12:49:51.655Z,,,,,,,,,,,,,,,,,54,,,,,,,,,,,,,,559.7009998138819,,response,,,,100,,,,,,,Space,keypress(Space),,,,,,,,-- --- ---- --- ------ ----- ------- ---- -- --- ------- --<br>------- ---------- ------ -- ----- -- ----- -- ---- ------<br>--- ----- --- --- bonds' -------- ----- --- ------ ----- --<br>----- ----- ---------- --- --- ------ ------ ---- -- ------<br>------- --- ------ ----- --- ---- ------- -- ---- --- --<br>------- ------,244298.97499992512,244298.40999981388,243721.958,243735.70499988273,243738.709,244306.556,,26,bonds'
screen,html.Screen,2_1_1_1_27,2021-04-30T12:49:52.332Z,,,,,,,,,,,,,,,,,54,,,,,,,,,,,,,,669.0740000008082,,response,,,,100,,,,,,,Space,keypress(Space),,,,,,,,-- --- ---- --- ------ ----- ------- ---- -- --- ------- --<br>------- ---------- ------ -- ----- -- ----- -- ---- ------<br>--- ----- --- --- ------ interest ----- --- ------ ----- --<br>----- ----- ---------- --- --- ------ ------ ---- -- ------<br>------- --- ------ ----- --- ---- ------- -- ---- --- --<br>------- ------,244976.17499995977,244975.63000000082,244289.807,244299.12999994121,244306.556,244991.205,,27,interest
screen,html.Screen,2_1_1_1_28,2021-04-30T12:49:52.998Z,,,,,,,,,,,,,,,,,54,,,,,,,,,,,,,,650.5549997948983,,response,,,,100,,,,,,,Space,keypress(Space),,,,,,,,-- --- ---- --- ------ ----- ------- ---- -- --- ------- --<br>------- ---------- ------ -- ----- -- ----- -- ---- ------<br>--- ----- --- --- ------ -------- rate. --- ------ ----- --<br>----- ----- ---------- --- --- ------ ------ ---- -- ------<br>------- --- ------ ----- --- ---- ------- -- ---- --- --<br>------- ------,245642.30499998666,245641.7599997949,244974.432,244976.33999981917,244991.205,245659.354,,28,rate.
screen,html.Screen,2_1_1_1_29,2021-04-30T12:49:53.542Z,,,,,,,,,,,,,,,,,54,,,,,,,,,,,,,,526.5759999196162,,response,,,,100,,,,,,,Space,keypress(Space),,,,,,,,-- --- ---- --- ------ ----- ------- ---- -- --- ------- --<br>------- ---------- ------ -- ----- -- ----- -- ---- ------<br>--- ----- --- --- ------ -------- ----- The ------ ----- --<br>----- ----- ---------- --- --- ------ ------ ---- -- ------<br>------- --- ------ ----- --- ---- ------- -- ---- --- --<br>------- ------,246186.49499979801,246185.9299999196,245642.459,245642.64500001445,245659.354,246193.739,,29,The
screen,html.Screen,2_1_1_1_30,2021-04-30T12:49:54.073Z,,,,,,,,,,,,,,,,,54,,,,,,,,,,,,,,523.301000017731,,response,,,,100,,,,,,,Space,keypress(Space),,,,,,,,-- --- ---- --- ------ ----- ------- ---- -- --- ------- --<br>------- ---------- ------ -- ----- -- ----- -- ---- ------<br>--- ----- --- --- ------ -------- ----- --- market ----- --<br>----- ----- ---------- --- --- ------ ------ ---- -- ------<br>------- --- ------ ----- --- ---- ------- -- ---- --- --<br>------- ------,246717.59999985807,246717.04000001773,246176.84,246186.64500000887,246193.739,246728.099,,30,market
screen,html.Screen,2_1_1_1_31,2021-04-30T12:49:54.651Z,,,,,,,,,,,,,,,,,54,,,,,,,,,,,,,,566.3259999709553,,response,,,,100,,,,,,,Space,keypress(Space),,,,,,,,-- --- ---- --- ------ ----- ------- ---- -- --- ------- --<br>------- ---------- ------ -- ----- -- ----- -- ---- ------<br>--- ----- --- --- ------ -------- ----- --- ------ value --<br>----- ----- ---------- --- --- ------ ------ ---- -- ------<br>------- --- ------ ----- --- ---- ------- -- ---- --- --<br>------- ------,247295.0299999211,247294.42499997094,246711.332,246717.7649999503,246728.099,247324.244,,31,value
screen,html.Screen,2_1_1_1_32,2021-04-30T12:49:55.250Z,,,,,,,,,,,,,,,,,54,,,,,,,,,,,,,,569.0409999982803,,response,,,,100,,,,,,,Space,keypress(Space),,,,,,,,-- --- ---- --- ------ ----- ------- ---- -- --- ------- --<br>------- ---------- ------ -- ----- -- ----- -- ---- ------<br>--- ----- --- --- ------ -------- ----- --- ------ ----- of<br>----- ----- ---------- --- --- ------ ------ ---- -- ------<br>------- --- ------ ----- --- ---- ------- -- ---- --- --<br>------- ------,247893.88499991037,247893.2849999983,247279.221,247295.17999989912,247324.244,247896.947,,32,of
screen,html.Screen,2_1_1_1_33,2021-04-30T12:49:55.805Z,,,,,,,,,,,,,,,,,54,,,,,,,,,,,,,,550.9829997911002,,response,,,,100,,,,,,,Space,keypress(Space),,,,,,,,-- --- ---- --- ------ ----- ------- ---- -- --- ------- --<br>------- ---------- ------ -- ----- -- ----- -- ---- ------<br>--- ----- --- --- ------ -------- ----- --- ------ ----- --<br>these ----- ---------- --- --- ------ ------ ---- -- ------<br>------- --- ------ ----- --- ---- ------- -- ---- --- --<br>------- ------,248448.51999985985,248447.9299997911,247880.228,247894.03999992646,247896.947,248464.838,,33,these
screen,html.Screen,2_1_1_1_34,2021-04-30T12:49:56.337Z,,,,,,,,,,,,,,,,,54,,,,,,,,,,,,,,515.3569998363964,,response,,,,100,,,,,,,Space,keypress(Space),,,,,,,,-- --- ---- --- ------ ----- ------- ---- -- --- ------- --<br>------- ---------- ------ -- ----- -- ----- -- ---- ------<br>--- ----- --- --- ------ -------- ----- --- ------ ----- --<br>----- bonds ---------- --- --- ------ ------ ---- -- ------<br>------- --- ------ ----- --- ---- ------- -- ---- --- --<br>------- ------,248980.7349999901,248980.19499983639,248448.003,248448.67499987595,248464.838,248982.462,,34,bonds
screen,html.Screen,2_1_1_1_35,2021-04-30T12:49:57.054Z,,,,,,,,,,,,,,,,,54,,,,,,,,,,,,,,714.8929998365347,,response,,,,100,,,,,,,Space,keypress(Space),,,,,,,,"-- --- ---- --- ------ ----- ------- ---- -- --- ------- --<br>------- ---------- ------ -- ----- -- ----- -- ---- ------<br>--- ----- --- --- ------ -------- ----- --- ------ ----- --<br>----- ----- plummeted, --- --- ------ ------ ---- -- ------<br>------- --- ------ ----- --- ---- ------- -- ---- --- --<br>------- ------",249697.90999987163,249697.35499983653,248965.774,248980.8999998495,248982.462,249700.52,,35,"plummeted,"
screen,html.Screen,2_1_1_1_36,2021-04-30T12:49:57.695Z,,,,,,,,,,,,,,,,,54,,,,,,,,,,,,,,637.8949998892203,,response,,,,100,,,,,,,Space,keypress(Space),,,,,,,,-- --- ---- --- ------ ----- ------- ---- -- --- ------- --<br>------- ---------- ------ -- ----- -- ----- -- ---- ------<br>--- ----- --- --- ------ -------- ----- --- ------ ----- --<br>----- ----- ---------- and --- ------ ------ ---- -- ------<br>------- --- ------ ----- --- ---- ------- -- ---- --- --<br>------- ------,250338.92999985255,250338.4149998892,249683.813,249698.05499981157,249700.52,250351.819,,36,and
screen,html.Screen,2_1_1_1_37,2021-04-30T12:49:58.299Z,,,,,,,,,,,,,,,,,54,,,,,,,,,,,,,,590.1859998443688,,response,,,,100,,,,,,,Space,keypress(Space),,,,,,,,-- --- ---- --- ------ ----- ------- ---- -- --- ------- --<br>------- ---------- ------ -- ----- -- ----- -- ---- ------<br>--- ----- --- --- ------ -------- ----- --- ------ ----- --<br>----- ----- ---------- --- the ------ ------ ---- -- ------<br>------- --- ------ ----- --- ---- ------- -- ---- --- --<br>------- ------,250942.55999987945,250942.00499984436,250335.066,250339.11499986425,250351.819,250953.134,,37,the
screen,html.Screen,2_1_1_1_38,2021-04-30T12:49:58.986Z,,,,,,,,,,,,,,,,,54,,,,,,,,,,,,,,676.2710000142397,,response,,,,100,,,,,,,Space,keypress(Space),,,,,,,,-- --- ---- --- ------ ----- ------- ---- -- --- ------- --<br>------- ---------- ------ -- ----- -- ----- -- ---- ------<br>--- ----- --- --- ------ -------- ----- --- ------ ----- --<br>----- ----- ---------- --- --- market ------ ---- -- ------<br>------- --- ------ ----- --- ---- ------- -- ---- --- --<br>------- ------,251629.95500001125,251629.40500001423,250936.264,250942.7249999717,250953.134,251637.75,,38,market
screen,html.Screen,2_1_1_1_39,2021-04-30T12:49:59.635Z,,,,,,,,,,,,,,,,,54,,,,,,,,,,,,,,640.7649998962879,,response,,,,100,,,,,,,Space,keypress(Space),,,,,,,,-- --- ---- --- ------ ----- ------- ---- -- --- ------- --<br>------- ---------- ------ -- ----- -- ----- -- ---- ------<br>--- ----- --- --- ------ -------- ----- --- ------ ----- --<br>----- ----- ---------- --- --- ------ became ---- -- ------<br>------- --- ------ ----- --- ---- ------- -- ---- --- --<br>------- ------,252279.06999993138,252278.5149998963,251620.933,251630.11999987066,251637.75,252289.064,,39,became
screen,html.Screen,2_1_1_1_40,2021-04-30T12:50:00.267Z,,,,,,,,,,,,,,,,,54,,,,,,,,,,,,,,620.7359997902531,,response,,,,100,,,,,,,Space,keypress(Space),,,,,,,,-- --- ---- --- ------ ----- ------- ---- -- --- ------- --<br>------- ---------- ------ -- ----- -- ----- -- ---- ------<br>--- ----- --- --- ------ -------- ----- --- ------ ----- --<br>----- ----- ---------- --- --- ------ ------ wary -- ------<br>------- --- ------ ----- --- ---- ------- -- ---- --- --<br>------- ------,252910.32999986783,252909.79999979027,252272.268,252279.2349997908,252289.064,252923.696,,40,wary
screen,html.Screen,2_1_1_1_41,2021-04-30T12:50:00.880Z,,,,,,,,,,,,,,,,,54,,,,,,,,,,,,,,599.2189998631366,,response,,,,100,,,,,,,Space,keypress(Space),,,,,,,,-- --- ---- --- ------ ----- ------- ---- -- --- ------- --<br>------- ---------- ------ -- ----- -- ----- -- ---- ------<br>--- ----- --- --- ------ -------- ----- --- ------ ----- --<br>----- ----- ---------- --- --- ------ ------ ---- of ------<br>------- --- ------ ----- --- ---- ------- -- ---- --- --<br>------- ------,253523.46999989823,253522.91499986313,252906.865,252910.49999999814,252923.696,253550.424,,41,of
screen,html.Screen,2_1_1_1_42,2021-04-30T12:50:01.502Z,,,,,,,,,,,,,,,,,54,,,,,,,,,,,,,,594.9059999702731,,response,,,,100,,,,,,,Space,keypress(Space),,,,,,,,-- --- ---- --- ------ ----- ------- ---- -- --- ------- --<br>------- ---------- ------ -- ----- -- ----- -- ---- ------<br>--- ----- --- --- ------ -------- ----- --- ------ ----- --<br>----- ----- ---------- --- --- ------ ------ ---- -- French<br>------- --- ------ ----- --- ---- ------- -- ---- --- --<br>------- ------,254145.88500000536,254145.32999997027,253508.171,253523.62499991432,253550.424,254159.489,,42,French
screen,html.Screen,2_1_1_1_43,2021-04-30T12:50:02.244Z,,,,,,,,,,,,,,,,,54,,,,,,,,,,,,,,727.6759999637143,,response,,,,100,,,,,,,Space,keypress(Space),,,,,,,,-- --- ---- --- ------ ----- ------- ---- -- --- ------- --<br>------- ---------- ------ -- ----- -- ----- -- ---- ------<br>--- ----- --- --- ------ -------- ----- --- ------ ----- --<br>----- ----- ---------- --- --- ------ ------ ---- -- ------<br>credit. --- ------ ----- --- ---- ------- -- ---- --- --<br>------- ------,254887.77999999002,254887.16499996372,254142.644,254146.04999986477,254159.489,254894.156,,43,credit.
screen,html.Screen,2_1_1_1_44,2021-04-30T12:50:02.808Z,,,,,,,,,,,,,,,,,54,,,,,,,,,,,,,,556.7289999401837,,response,,,,100,,,,,,,Space,keypress(Space),,,,,,,,-- --- ---- --- ------ ----- ------- ---- -- --- ------- --<br>------- ---------- ------ -- ----- -- ----- -- ---- ------<br>--- ----- --- --- ------ -------- ----- --- ------ ----- --<br>----- ----- ---------- --- --- ------ ------ ---- -- ------<br>------- The ------ ----- --- ---- ------- -- ---- --- --<br>------- ------,255451.42999989912,255450.88499994017,254877.456,254887.93999981135,254894.156,255461.962,,44,The
screen,html.Screen,2_1_1_1_45,2021-04-30T12:50:03.323Z,,,,,,,,,,,,,,,,,54,,,,,,,,,,,,,,503.98299982893514,,response,,,,100,,,,,,,Space,keypress(Space),,,,,,,,-- --- ---- --- ------ ----- ------- ---- -- --- ------- --<br>------- ---------- ------ -- ----- -- ----- -- ---- ------<br>--- ----- --- --- ------ -------- ----- --- ------ ----- --<br>----- ----- ---------- --- --- ------ ------ ---- -- ------<br>------- --- French ----- --- ---- ------- -- ---- --- --<br>------- ------,255966.5049999021,255965.94499982893,255445.244,255451.58999995328,255461.962,255979.793,,45,French
screen,html.Screen,2_1_1_1_46,2021-04-30T12:50:03.811Z,,,,,,,,,,,,,,,,,54,,,,,,,,,,,,,,474.8369998182752,,response,,,,100,,,,,,,Space,keypress(Space),,,,,,,,-- --- ---- --- ------ ----- ------- ---- -- --- ------- --<br>------- ---------- ------ -- ----- -- ----- -- ---- ------<br>--- ----- --- --- ------ -------- ----- --- ------ ----- --<br>----- ----- ---------- --- --- ------ ------ ---- -- ------<br>------- --- ------ state --- ---- ------- -- ---- --- --<br>------- ------,256455.15499985777,256454.62999981828,255962.993,255966.66999999434,255979.793,256463.937,,46,state
screen,html.Screen,2_1_1_1_47,2021-04-30T12:50:04.460Z,,,,,,,,,,,,,,,,,54,,,,,,,,,,,,,,639.0529998102284,,response,,,,100,,,,,,,Space,keypress(Space),,,,,,,,-- --- ---- --- ------ ----- ------- ---- -- --- ------- --<br>------- ---------- ------ -- ----- -- ----- -- ---- ------<br>--- ----- --- --- ------ -------- ----- --- ------ ----- --<br>----- ----- ---------- --- --- ------ ------ ---- -- ------<br>------- --- ------ ----- was ---- ------- -- ---- --- --<br>------- ------,257103.5499998834,257102.98999981023,256447.208,256455.32499998808,256463.937,257115.234,,47,was
screen,html.Screen,2_1_1_1_48,2021-04-30T12:50:04.958Z,,,,,,,,,,,,,,,,,54,,,,,,,,,,,,,,486.5259999904665,,response,,,,100,,,,,,,Space,keypress(Space),,,,,,,,-- --- ---- --- ------ ----- ------- ---- -- --- ------- --<br>------- ---------- ------ -- ----- -- ----- -- ---- ------<br>--- ----- --- --- ------ -------- ----- --- ------ ----- --<br>----- ----- ---------- --- --- ------ ------ ---- -- ------<br>------- --- ------ ----- --- left ------- -- ---- --- --<br>------- ------,257602.3049999494,257601.75999999046,257098.549,257103.7049998995,257115.234,257616.206,,48,left
screen,html.Screen,2_1_1_1_49,2021-04-30T12:50:05.611Z,,,,,,,,,,,,,,,,,54,,,,,,,,,,,,,,638.0140000025276,,response,,,,100,,,,,,,Space,keypress(Space),,,,,,,,-- --- ---- --- ------ ----- ------- ---- -- --- ------- --<br>------- ---------- ------ -- ----- -- ----- -- ---- ------<br>--- ----- --- --- ------ -------- ----- --- ------ ----- --<br>----- ----- ---------- --- --- ------ ------ ---- -- ------<br>------- --- ------ ----- --- ---- without -- ---- --- --<br>------- ------,258254.7749998048,258254.22000000253,257599.471,257602.4749998469,257616.206,258267.61,,49,without
screen,html.Screen,2_1_1_1_50,2021-04-30T12:50:06.155Z,,,,,,,,,,,,,,,,,54,,,,,,,,,,,,,,531.1649997992208,,response,,,,100,,,,,,,Space,keypress(Space),,,,,,,,-- --- ---- --- ------ ----- ------- ---- -- --- ------- --<br>------- ---------- ------ -- ----- -- ----- -- ---- ------<br>--- ----- --- --- ------ -------- ----- --- ------ ----- --<br>----- ----- ---------- --- --- ------ ------ ---- -- ------<br>------- --- ------ ----- --- ---- ------- an ---- --- --<br>------- ------,258799.2849999573,258798.7749997992,258250.78,258254.93499985896,258267.61,258801.881,,50,an
screen,html.Screen,2_1_1_1_51,2021-04-30T12:50:06.690Z,,,,,,,,,,,,,,,,,54,,,,,,,,,,,,,,531.583999916038,,response,,,,100,,,,,,,Space,keypress(Space),,,,,,,,-- --- ---- --- ------ ----- ------- ---- -- --- ------- --<br>------- ---------- ------ -- ----- -- ----- -- ---- ------<br>--- ----- --- --- ------ -------- ----- --- ------ ----- --<br>----- ----- ---------- --- --- ------ ------ ---- -- ------<br>------- --- ------ ----- --- ---- ------- -- easy --- --<br>------- ------,259333.99999979883,259333.46499991603,258785.152,258799.4399999734,258801.881,259336.283,,51,easy
screen,html.Screen,2_1_1_1_52,2021-04-30T12:50:07.242Z,,,,,,,,,,,,,,,,,54,,,,,,,,,,,,,,549.3919997939956,,response,,,,100,,,,,,,Space,keypress(Space),,,,,,,,-- --- ---- --- ------ ----- ------- ---- -- --- ------- --<br>------- ---------- ------ -- ----- -- ----- -- ---- ------<br>--- ----- --- --- ------ -------- ----- --- ------ ----- --<br>----- ----- ---------- --- --- ------ ------ ---- -- ------<br>------- --- ------ ----- --- ---- ------- -- ---- way --<br>------- ------,259886.1849999521,259885.674999794,259319.555,259334.159999853,259336.283,259906.263,,52,way
screen,html.Screen,2_1_1_1_53,2021-04-30T12:50:08.046Z,,,,,,,,,,,,,,,,,54,,,,,,,,,,,,,,782.6519998314616,,response,,,,100,,,,,,,Space,keypress(Space),,,,,,,,-- --- ---- --- ------ ----- ------- ---- -- --- ------- --<br>------- ---------- ------ -- ----- -- ----- -- ---- ------<br>--- ----- --- --- ------ -------- ----- --- ------ ----- --<br>----- ----- ---------- --- --- ------ ------ ---- -- ------<br>------- --- ------ ----- --- ---- ------- -- ---- --- of<br>------- ------,260689.5849998109,260688.91499983147,259870.615,259886.32999989204,259906.263,260705.725,,53,of
screen,html.Screen,2_1_1_1_54,2021-04-30T12:50:08.629Z,,,,,,,,,,,,,,,,,54,,,,,,,,,,,,,,566.7200000096054,,response,,,,100,,,,,,,Space,keypress(Space),,,,,,,,-- --- ---- --- ------ ----- ------- ---- -- --- ------- --<br>------- ---------- ------ -- ----- -- ----- -- ---- ------<br>--- ----- --- --- ------ -------- ----- --- ------ ----- --<br>----- ----- ---------- --- --- ------ ------ ---- -- ------<br>------- --- ------ ----- --- ---- ------- -- ---- --- --<br>raising ------,261272.97499985434,261272.4450000096,260688.895,260689.739999827,260705.725,261306.913,,54,raising
screen,html.Screen,2_1_1_1_55,2021-04-30T12:50:09.399Z,,,,,,,,,,,,,,,,,54,,,,,,,,,,,,,,735.3969999316032,,response,,,,100,,,,,,,Space,keypress(Space),,,,,,,,-- --- ---- --- ------ ----- ------- ---- -- --- ------- --<br>------- ---------- ------ -- ----- -- ----- -- ---- ------<br>--- ----- --- --- ------ -------- ----- --- ------ ----- --<br>----- ----- ---------- --- --- ------ ------ ---- -- ------<br>------- --- ------ ----- --- ---- ------- -- ---- --- --<br>------- money.,262042.88499988616,262042.3099999316,261290.126,261273.1349999085,261306.913,262058.345,,55,money.
Item 100,flow.Loop,2_1_1_1,2021-04-30T12:50:09.399Z,,,,,,,,,,,,,,,,,,,,,,,,,,,,,,,34752.84499993161,,completion,,,,,E,,,,,,,,,,,silence,,,,,262043.16499992274,262042.3099999316,227272.812,227273.46499986015,227289.465,262058.345,,,
Question 1,html.Screen,2_1_1_2,2021-04-30T12:50:13.629Z,,,,,,,,,,,,,,,,,,,,,,,,,,,,true,TRUE,,4213.449999949633,,response,,,,100,E,,,,,,TRUE,click #choice-1,,,,silence,,,,,266272.609999869,266271.79499994963,262041.577,262043.2949999813,262058.345,266283.386,,,
Question 2,html.Screen,2_1_1_3,2021-04-30T12:50:23.220Z,,,,,,,,,,,,,,,,,,,,,,,,,,,,false,FALSE,,9580.123999820964,,response,,,,100,E,,,,,,TRUE,click #choice-1,,,,silence,,,,,275864.2899999395,275863.50999982096,266266.866,266272.7849998046,266283.386,275869.045,,,
Item 100,flow.Sequence,2_1_1,2021-04-30T12:50:23.221Z,,,,,,,,,,,,,,,,,,,,,,,,,,,,,,,58577.19699982097,,completion,,,,,,,,,,,,,,,,,,,,,275864.5499998238,275863.50999982096,217269.619,217272.904999787,217286.313,275869.045,,,
End of Practice,html.Page,2_1_2,2021-04-30T12:50:30.013Z,,,,,,,,,,,,,,,,,,,,,,,,,,,,,,,6787.244999838935,,form submission,,,,,,,,,,,,,,,,,,,,,282656.5549999941,282656.2899998389,275852.334,275864.6899999585,275869.045,282665.826,,,
Practice,flow.Sequence,2_1,2021-04-30T12:50:30.013Z,,,,,,,,,,,,,,,,,,,,,,,,,,,,,,,136243.75199983892,,completion,,,,,,,,,,,,,,,,,,,,,282656.7899999209,282656.2899998389,146395.861,146401.13499993458,146412.538,282665.826,,,
Trap_instruction,html.Page,2_2_0,2021-04-30T12:50:39.285Z,,,,,,,,,,,,,,,,,,,,,,,,,,,,,,,9262.553999939351,,form submission,,,,,,,,,,,,,,,,,,,,,291928.6449998617,291928.37999993935,282649.123,282656.94499993697,282665.826,291984.28,,,
trap_trial,html.Screen,2_2_1,2021-04-30T12:50:42.684Z,,,,,,,,,,,,,,,,,,,,,,,,,,,,true,1,,3343.169999982463,,response,,,,,,,,,,,1,click #choice-1,,,,,,,,,295328.2599998638,295327.4499999825,291917.475,291928.8049999159,291984.28,295340.976,,,
end of trap trial,html.Page,2_2_2,2021-04-30T12:50:44.677Z,,,,,,,,,,,,,,,,,,,,,,,,,,,,,,,1979.4339999274816,,form submission,,,,,,,,,,,,,,,,,,,,,297320.69500000216,297320.4099999275,295324.33,295328.49999982864,295340.976,297328.242,,,
Trap 1,flow.Sequence,2_2,2021-04-30T12:50:44.677Z,,,,,,,,,,,,,,,,,,,,,,,,,,,,,,,14654.583999927505,,completion,,,,,,,,,,,,,,,,,,,,,297320.9599999245,297320.4099999275,282649.123,282656.89999982715,282665.826,297328.242,,,
Standby,html.Page,2_3_0,2021-04-30T12:50:52.667Z,,,,,,,,,,,,,,,,,,,,,,,,,,,,,,,7999.277999999991,,timeout,,,,,,,,,,,,,,,,,,,,,305311.2099999562,305310.675,297311.517,297321.15500001237,297328.242,305327.52,,,
Holding screen,html.Screen,2_3_1_0_0,2021-04-30T12:50:59.665Z,,,,,,,,,,,,,,,,,,,,,,,,,,,,,,,6997.094999999972,,timeout,,,,,,,,,,,,,,,,,,,,,312308.43500001356,312307.967,305310.675,305311.44499988295,305327.52,312324.615,,,
screen,html.Screen,2_3_1_0_1_0,2021-04-30T12:51:01.072Z,,,,,,,,,,,,,,,,,51,,,,,,,,,,,,,,1390.4799998758826,,response,,,,13,E,,,,,,Space,keypress(Space),,,,lyrical,,,,American -------- --- --- ---- --- --- ------ -- --------<br>---- --------- --- ------- ------------ ---------- ---------<br>--- ---------- ------- ---------- ------- -- -------- ----<br>---- --- ------ ----- ------ -- ---- --- ----- -- - -------<br>-------- -- --- --- -- ----- ----------- ----- -----------<br>---- --- ---------- --- ---- --- -- ----------,313715.8849998377,313715.0949998759,312307.967,312308.6849998217,312324.615,313727.43,,0,American
screen,html.Screen,2_3_1_0_1_1,2021-04-30T12:51:02.004Z,,,,,,,,,,,,,,,,,51,,,,,,,,,,,,,,920.2749998939107,,response,,,,13,E,,,,,,Space,keypress(Space),,,,lyrical,,,,-------- industry --- --- ---- --- --- ------ -- --------<br>---- --------- --- ------- ------------ ---------- ---------<br>--- ---------- ------- ---------- ------- -- -------- ----<br>---- --- ------ ----- ------ -- ---- --- ----- -- - -------<br>-------- -- --- --- -- ----- ----------- ----- -----------<br>---- --- ---------- --- ---- --- -- ----------,314648.2849998865,314647.7049998939,313710.601,313716.07999992557,313727.43,314662.685,,1,industry
screen,html.Screen,2_3_1_0_1_2,2021-04-30T12:51:03.122Z,,,,,,,,,,,,,,,,,51,,,,,,,,,,,,,,1102.1599998814636,,response,,,,13,E,,,,,,Space,keypress(Space),,,,lyrical,,,,-------- -------- may --- ---- --- --- ------ -- --------<br>---- --------- --- ------- ------------ ---------- ---------<br>--- ---------- ------- ---------- ------- -- -------- ----<br>---- --- ------ ----- ------ -- ---- --- ----- -- - -------<br>-------- -- --- --- -- ----- ----------- ----- -----------<br>---- --- ---------- --- ---- --- -- ----------,315765.4099999927,315764.84499988146,314645.795,314648.43499986455,314662.685,315781.488,,2,may
screen,html.Screen,2_3_1_0_1_3,2021-04-30T12:51:03.851Z,,,,,,,,,,,,,,,,,51,,,,,,,,,,,,,,712.5019998716889,,response,,,,13,E,,,,,,Space,keypress(Space),,,,lyrical,,,,-------- -------- --- not ---- --- --- ------ -- --------<br>---- --------- --- ------- ------------ ---------- ---------<br>--- ---------- ------- ---------- ------- -- -------- ----<br>---- --- ------ ----- ------ -- ---- --- ----- -- - -------<br>-------- -- --- --- -- ----- ----------- ----- -----------<br>---- --- ---------- --- ---- --- -- ----------,316494.5749999024,316493.9899998717,315764.699,315765.58499992825,315781.488,316499.512,,3,not
screen,html.Screen,2_3_1_0_1_4,2021-04-30T12:51:04.871Z,,,,,,,,,,,,,,,,,51,,,,,,,,,,,,,,1014.4630000089528,,response,,,,13,E,,,,,,Space,keypress(Space),,,,lyrical,,,,-------- -------- --- --- know --- --- ------ -- --------<br>---- --------- --- ------- ------------ ---------- ---------<br>--- ---------- ------- ---------- ------- -- -------- ----<br>---- --- ------ ----- ------ -- ---- --- ----- -- - -------<br>-------- -- --- --- -- ----- ----------- ----- -----------<br>---- --- ---------- --- ---- --- -- ----------,317514.5949998405,317513.97500000894,316482.792,316494.7299999185,316499.512,317518.215,,4,know
screen,html.Screen,2_3_1_0_1_5,2021-04-30T12:51:05.611Z,,,,,,,,,,,,,,,,,51,,,,,,,,,,,,,,735.6949999703211,,response,,,,13,E,,,,,,Space,keypress(Space),,,,lyrical,,,,"-------- -------- --- --- ---- it, --- ------ -- --------<br>---- --------- --- ------- ------------ ---------- ---------<br>--- ---------- ------- ---------- ------- -- -------- ----<br>---- --- ------ ----- ------ -- ---- --- ----- -- - -------<br>-------- -- --- --- -- ----- ----------- ----- -----------<br>---- --- ---------- --- ---- --- -- ----------",318254.4399998151,318253.90999997035,317501.57,317514.7649999708,317518.215,318269.729,,5,"it,"
screen,html.Screen,2_3_1_0_1_6,2021-04-30T12:51:06.249Z,,,,,,,,,,,,,,,,,51,,,,,,,,,,,,,,622.245999802195,,response,,,,13,E,,,,,,Space,keypress(Space),,,,lyrical,,,,-------- -------- --- --- ---- --- but ------ -- --------<br>---- --------- --- ------- ------------ ---------- ---------<br>--- ---------- ------- ---------- ------- -- -------- ----<br>---- --- ------ ----- ------ -- ---- --- ----- -- - -------<br>-------- -- --- --- -- ----- ----------- ----- -----------<br>---- --- ---------- --- ---- --- -- ----------,318892.5549997948,318891.9749998022,318253.041,318254.59499983117,318269.729,318904.321,,6,but
screen,html.Screen,2_3_1_0_1_7,2021-04-30T12:51:06.851Z,,,,,,,,,,,,,,,,,51,,,,,,,,,,,,,,590.2839998980053,,response,,,,13,E,,,,,,Space,keypress(Space),,,,lyrical,,,,-------- -------- --- --- ---- --- --- debate -- --------<br>---- --------- --- ------- ------------ ---------- ---------<br>--- ---------- ------- ---------- ------- -- -------- ----<br>---- --- ------ ----- ------ -- ---- --- ----- -- - -------<br>-------- -- --- --- -- ----- ----------- ----- -----------<br>---- --- ---------- --- ---- --- -- ----------,319495.1599999331,319494.604999898,318887.662,318892.714999849,318904.321,319505.503,,7,debate
screen,html.Screen,2_3_1_0_1_8,2021-04-30T12:51:07.391Z,,,,,,,,,,,,,,,,,51,,,,,,,,,,,,,,528.6619998444803,,response,,,,13,E,,,,,,Space,keypress(Space),,,,lyrical,,,,-------- -------- --- --- ---- --- --- ------ in --------<br>---- --------- --- ------- ------------ ---------- ---------<br>--- ---------- ------- ---------- ------- -- -------- ----<br>---- --- ------ ----- ------ -- ---- --- ----- -- - -------<br>-------- -- --- --- -- ----- ----------- ----- -----------<br>---- --- ---------- --- ---- --- -- ----------,320034.7149998415,320034.1649998445,319488.825,319495.30499987304,319505.503,320039.855,,8,in
screen,html.Screen,2_3_1_0_1_9,2021-04-30T12:51:08.035Z,,,,,,,,,,,,,,,,,51,,,,,,,,,,,,,,638.1849999115802,,response,,,,13,E,,,,,,Space,keypress(Space),,,,lyrical,,,,-------- -------- --- --- ---- --- --- ------ -- Congress<br>---- --------- --- ------- ------------ ---------- ---------<br>--- ---------- ------- ---------- ------- -- -------- ----<br>---- --- ------ ----- ------ -- ---- --- ----- -- - -------<br>-------- -- --- --- -- ----- ----------- ----- -----------<br>---- --- ---------- --- ---- --- -- ----------,320678.60999982804,320678.03999991156,320023.128,320034.86499981955,320039.855,320691.231,,9,Congress
screen,html.Screen,2_3_1_0_1_10,2021-04-30T12:51:08.662Z,,,,,,,,,,,,,,,,,51,,,,,,,,,,,,,,613.6239999948302,,response,,,,13,E,,,,,,Space,keypress(Space),,,,lyrical,,,,-------- -------- --- --- ---- --- --- ------ -- --------<br>over --------- --- ------- ------------ ---------- ---------<br>--- ---------- ------- ---------- ------- -- -------- ----<br>---- --- ------ ----- ------ -- ---- --- ----- -- - -------<br>-------- -- --- --- -- ----- ----------- ----- -----------<br>---- --- ---------- --- ---- --- -- ----------,321305.4099997971,321304.85499999486,320674.531,320678.76499984413,320691.231,321309.246,,10,over
screen,html.Screen,2_3_1_0_1_11,2021-04-30T12:51:09.371Z,,,,,,,,,,,,,,,,,51,,,,,,,,,,,,,,704.8939998683636,,response,,,,13,E,,,,,,Space,keypress(Space),,,,lyrical,,,,-------- -------- --- --- ---- --- --- ------ -- --------<br>---- reforming --- ------- ------------ ---------- ---------<br>--- ---------- ------- ---------- ------- -- -------- ----<br>---- --- ------ ----- ------ -- ---- --- ----- -- - -------<br>-------- -- --- --- -- ----- ----------- ----- -----------<br>---- --- ---------- --- ---- --- -- ----------,322014.6999999415,322014.13999986835,321292.421,321305.57499988936,321309.246,322027.199,,11,reforming
screen,html.Screen,2_3_1_0_1_12,2021-04-30T12:51:09.943Z,,,,,,,,,,,,,,,,,51,,,,,,,,,,,,,,559.0159999011084,,response,,,,13,E,,,,,,Space,keypress(Space),,,,lyrical,,,,-------- -------- --- --- ---- --- --- ------ -- --------<br>---- --------- the ------- ------------ ---------- ---------<br>--- ---------- ------- ---------- ------- -- -------- ----<br>---- --- ------ ----- ------ -- ---- --- ----- -- - -------<br>-------- -- --- --- -- ----- ----------- ----- -----------<br>---- --- ---------- --- ---- --- -- ----------,322586.78000001237,322586.21499990113,322010.432,322014.8549999576,322027.199,322595.081,,12,the
screen,html.Screen,2_3_1_0_1_13,2021-04-30T12:51:10.649Z,,,,,,,,,,,,,,,,,51,,,,,,,,,,,,,,697.4989998920355,,response,,,,13,E,,,,,,Space,keypress(Space),,,,lyrical,,,,-------- -------- --- --- ---- --- --- ------ -- --------<br>---- --------- --- federal ------------ ---------- ---------<br>--- ---------- ------- ---------- ------- -- -------- ----<br>---- --- ------ ----- ------ -- ---- --- ----- -- - -------<br>-------- -- --- --- -- ----- ----------- ----- -----------<br>---- --- ---------- --- ---- --- -- ----------,323293.1799998041,323292.57999989204,322578.194,322586.9549999479,322595.081,323296.321,,13,federal
screen,html.Screen,2_3_1_0_1_14,2021-04-30T12:51:11.373Z,,,,,,,,,,,,,,,,,51,,,,,,,,,,,,,,719.5789999985136,,response,,,,13,E,,,,,,Space,keypress(Space),,,,lyrical,,,,-------- -------- --- --- ---- --- --- ------ -- --------<br>---- --------- --- ------- government's ---------- ---------<br>--- ---------- ------- ---------- ------- -- -------- ----<br>---- --- ------ ----- ------ -- ---- --- ----- -- - -------<br>-------- -- --- --- -- ----- ----------- ----- -----------<br>---- --- ---------- --- ---- --- -- ----------,324016.47999999113,324015.8999999985,323279.571,323293.34499989636,323296.321,324031.161,,14,government's
screen,html.Screen,2_3_1_0_1_15,2021-04-30T12:51:12.207Z,,,,,,,,,,,,,,,,,51,,,,,,,,,,,,,,819.0989999774029,,response,,,,13,E,,,,,,Space,keypress(Space),,,,lyrical,,,,-------- -------- --- --- ---- --- --- ------ -- --------<br>---- --------- --- ------- ------------ regulatory ---------<br>--- ---------- ------- ---------- ------- -- -------- ----<br>---- --- ------ ----- ------ -- ---- --- ----- -- - -------<br>-------- -- --- --- -- ----- ----------- ----- -----------<br>---- --- ---------- --- ---- --- -- ----------,324850.85499985144,324850.2599999774,324014.359,324016.62999996915,324031.161,324866.15,,15,regulatory
screen,html.Screen,2_3_1_0_1_16,2021-04-30T12:51:13.113Z,,,,,,,,,,,,,,,,,51,,,,,,,,,,,,,,890.5549998324132,,response,,,,13,E,,,,,,Space,keypress(Space),,,,lyrical,,,,-------- -------- --- --- ---- --- --- ------ -- --------<br>---- --------- --- ------- ------------ ---------- apparatus<br>--- ---------- ------- ---------- ------- -- -------- ----<br>---- --- ------ ----- ------ -- ---- --- ----- -- - -------<br>-------- -- --- --- -- ----- ----------- ----- -----------<br>---- --- ---------- --- ---- --- -- ----------,325757.28499982506,325756.70499983244,324849.4,324851.0199999437,324866.15,325767.9,,16,apparatus
screen,html.Screen,2_3_1_0_1_17,2021-04-30T12:51:13.734Z,,,,,,,,,,,,,,,,,51,,,,,,,,,,,,,,609.0549999851501,,response,,,,13,E,,,,,,Space,keypress(Space),,,,lyrical,,,,-------- -------- --- --- ---- --- --- ------ -- --------<br>---- --------- --- ------- ------------ ---------- ---------<br>may ---------- ------- ---------- ------- -- -------- ----<br>---- --- ------ ----- ------ -- ---- --- ----- -- - -------<br>-------- -- --- --- -- ----- ----------- ----- -----------<br>---- --- ---------- --- ---- --- -- ----------,326377.54000001587,326376.9549999852,325751.169,325757.4499999173,325767.9,326385.831,,17,may
screen,html.Screen,2_3_1_0_1_18,2021-04-30T12:51:14.380Z,,,,,,,,,,,,,,,,,51,,,,,,,,,,,,,,637.8689997869078,,response,,,,13,E,,,,,,Space,keypress(Space),,,,lyrical,,,,-------- -------- --- --- ---- --- --- ------ -- --------<br>---- --------- --- ------- ------------ ---------- ---------<br>--- profoundly ------- ---------- ------- -- -------- ----<br>---- --- ------ ----- ------ -- ---- --- ----- -- - -------<br>-------- -- --- --- -- ----- ----------- ----- -----------<br>---- --- ---------- --- ---- --- -- ----------,327024.2699999362,327023.6999997869,326369.071,326377.7149999514,326385.831,327037.133,,18,profoundly
screen,html.Screen,2_3_1_0_1_19,2021-04-30T12:51:15.066Z,,,,,,,,,,,,,,,,,51,,,,,,,,,,,,,,672.4969999393797,,response,,,,13,E,,,,,,Space,keypress(Space),,,,lyrical,,,,-------- -------- --- --- ---- --- --- ------ -- --------<br>---- --------- --- ------- ------------ ---------- ---------<br>--- ---------- improve ---------- ------- -- -------- ----<br>---- --- ------ ----- ------ -- ---- --- ----- -- - -------<br>-------- -- --- --- -- ----- ----------- ----- -----------<br>---- --- ---------- --- ---- --- -- ----------,327710.2200000081,327709.62999993935,327020.363,327024.4299999904,327037.133,327722.018,,19,improve
screen,html.Screen,2_3_1_0_1_20,2021-04-30T12:51:15.966Z,,,,,,,,,,,,,,,,,51,,,,,,,,,,,,,,887.5569998931023,,response,,,,13,E,,,,,,Space,keypress(Space),,,,lyrical,,,,-------- -------- --- --- ---- --- --- ------ -- --------<br>---- --------- --- ------- ------------ ---------- ---------<br>--- ---------- ------- companies' ------- -- -------- ----<br>---- --- ------ ----- ------ -- ---- --- ----- -- - -------<br>-------- -- --- --- -- ----- ----------- ----- -----------<br>---- --- ---------- --- ---- --- -- ----------,328610.14499980956,328609.5749998931,327705.013,327710.3849998675,327722.018,328623.642,,20,companies'
screen,html.Screen,2_3_1_0_1_21,2021-04-30T12:51:16.705Z,,,,,,,,,,,,,,,,,51,,,,,,,,,,,,,,724.3179999263957,,response,,,,13,E,,,,,,Space,keypress(Space),,,,lyrical,,,,-------- -------- --- --- ---- --- --- ------ -- --------<br>---- --------- --- ------- ------------ ---------- ---------<br>--- ---------- ------- ---------- ability -- -------- ----<br>---- --- ------ ----- ------ -- ---- --- ----- -- - -------<br>-------- -- --- --- -- ----- ----------- ----- -----------<br>---- --- ---------- --- ---- --- -- ----------,329348.5099999234,329347.9599999264,328606.83,328610.29999982566,328623.642,329358.45,,21,ability
screen,html.Screen,2_3_1_0_1_22,2021-04-30T12:51:17.476Z,,,,,,,,,,,,,,,,,51,,,,,,,,,,,,,,761.1749998174491,,response,,,,13,E,,,,,,Space,keypress(Space),,,,lyrical,,,,-------- -------- --- --- ---- --- --- ------ -- --------<br>---- --------- --- ------- ------------ ---------- ---------<br>--- ---------- ------- ---------- ------- to -------- ----<br>---- --- ------ ----- ------ -- ---- --- ----- -- - -------<br>-------- -- --- --- -- ----- ----------- ----- -----------<br>---- --- ---------- --- ---- --- -- ----------,330120.20999984816,330119.62499981746,329341.724,329348.68499985896,329358.45,330126.572,,22,to
screen,html.Screen,2_3_1_0_1_23,2021-04-30T12:51:18.194Z,,,,,,,,,,,,,,,,,51,,,,,,,,,,,,,,710.7479999332572,,response,,,,13,E,,,,,,Space,keypress(Space),,,,lyrical,,,,-------- -------- --- --- ---- --- --- ------ -- --------<br>---- --------- --- ------- ------------ ---------- ---------<br>--- ---------- ------- ---------- ------- -- survive. ----<br>---- --- ------ ----- ------ -- ---- --- ----- -- - -------<br>-------- -- --- --- -- ----- ----------- ----- -----------<br>---- --- ---------- --- ---- --- -- ----------,330837.8800000064,330837.31999993324,330109.862,330120.36499986425,330126.572,330844.71,,23,survive.
screen,html.Screen,2_3_1_0_1_24,2021-04-30T12:51:18.894Z,,,,,,,,,,,,,,,,,51,,,,,,,,,,,,,,692.4249998749583,,response,,,,13,E,,,,,,Space,keypress(Space),,,,lyrical,,,,-------- -------- --- --- ---- --- --- ------ -- --------<br>---- --------- --- ------- ------------ ---------- ---------<br>--- ---------- ------- ---------- ------- -- -------- This<br>---- --- ------ ----- ------ -- ---- --- ----- -- - -------<br>-------- -- --- --- -- ----- ----------- ----- -----------<br>---- --- ---------- --- ---- --- -- ----------,331537.69499994814,331537.134999875,330827.859,330838.0499999039,330844.71,331546.02,,24,This
screen,html.Screen,2_3_1_0_1_25,2021-04-30T12:51:19.505Z,,,,,,,,,,,,,,,,,51,,,,,,,,,,,,,,602.2200000095181,,response,,,,13,E,,,,,,Space,keypress(Space),,,,lyrical,,,,-------- -------- --- --- ---- --- --- ------ -- --------<br>---- --------- --- ------- ------------ ---------- ---------<br>--- ---------- ------- ---------- ------- -- -------- ----<br>week --- ------ ----- ------ -- ---- --- ----- -- - -------<br>-------- -- --- --- -- ----- ----------- ----- -----------<br>---- --- ---------- --- ---- --- -- ----------,332148.8249998074,332148.24000000954,331529.292,331537.8399998881,331546.02,332163.95,,25,week
screen,html.Screen,2_3_1_0_1_26,2021-04-30T12:51:20.145Z,,,,,,,,,,,,,,,,,51,,,,,,,,,,,,,,624.0649998236331,,response,,,,13,E,,,,,,Space,keypress(Space),,,,lyrical,,,,-------- -------- --- --- ---- --- --- ------ -- --------<br>---- --------- --- ------- ------------ ---------- ---------<br>--- ---------- ------- ---------- ------- -- -------- ----<br>---- the ------ ----- ------ -- ---- --- ----- -- - -------<br>-------- -- --- --- -- ----- ----------- ----- -----------<br>---- --- ---------- --- ---- --- -- ----------,332788.6049998924,332788.01499982364,332147.326,332148.9999999758,332163.95,332798.517,,26,the
screen,html.Screen,2_3_1_0_1_27,2021-04-30T12:51:20.792Z,,,,,,,,,,,,,,,,,51,,,,,,,,,,,,,,636.282999929972,,response,,,,13,E,,,,,,Space,keypress(Space),,,,lyrical,,,,-------- -------- --- --- ---- --- --- ------ -- --------<br>---- --------- --- ------- ------------ ---------- ---------<br>--- ---------- ------- ---------- ------- -- -------- ----<br>---- --- Senate ----- ------ -- ---- --- ----- -- - -------<br>-------- -- --- --- -- ----- ----------- ----- -----------<br>---- --- ---------- --- ---- --- -- ----------,333435.38499996066,333434.79999992996,332781.744,332788.76999998465,332798.517,333449.831,,27,Senate
screen,html.Screen,2_3_1_0_1_28,2021-04-30T12:51:21.480Z,,,,,,,,,,,,,,,,,51,,,,,,,,,,,,,,673.4739998991136,,response,,,,13,E,,,,,,Space,keypress(Space),,,,lyrical,,,,-------- -------- --- --- ---- --- --- ------ -- --------<br>---- --------- --- ------- ------------ ---------- ---------<br>--- ---------- ------- ---------- ------- -- -------- ----<br>---- --- ------ seems ------ -- ---- --- ----- -- - -------<br>-------- -- --- --- -- ----- ----------- ----- -----------<br>---- --- ---------- --- ---- --- -- ----------,334123.87999985367,334123.3049998991,333433.05,333435.54999982007,333449.831,334134.471,,28,seems
screen,html.Screen,2_3_1_0_1_29,2021-04-30T12:51:22.099Z,,,,,,,,,,,,,,,,,51,,,,,,,,,,,,,,608.153999955277,,response,,,,13,E,,,,,,Space,keypress(Space),,,,lyrical,,,,-------- -------- --- --- ---- --- --- ------ -- --------<br>---- --------- --- ------- ------------ ---------- ---------<br>--- ---------- ------- ---------- ------- -- -------- ----<br>---- --- ------ ----- poised -- ---- --- ----- -- - -------<br>-------- -- --- --- -- ----- ----------- ----- -----------<br>---- --- ---------- --- ---- --- -- ----------,334743.209999986,334742.6249999553,334117.814,334124.0299998317,334134.471,334752.493,,29,poised
screen,html.Screen,2_3_1_0_1_30,2021-04-30T12:51:22.717Z,,,,,,,,,,,,,,,,,51,,,,,,,,,,,,,,607.7869999061804,,response,,,,13,E,,,,,,Space,keypress(Space),,,,lyrical,,,,-------- -------- --- --- ---- --- --- ------ -- --------<br>---- --------- --- ------- ------------ ---------- ---------<br>--- ---------- ------- ---------- ------- -- -------- ----<br>---- --- ------ ----- ------ to ---- --- ----- -- - -------<br>-------- -- --- --- -- ----- ----------- ----- -----------<br>---- --- ---------- --- ---- --- -- ----------,335360.8299999032,335360.2799999062,334735.637,334743.3650000021,334752.493,335370.259,,30,to
screen,html.Screen,2_3_1_0_1_31,2021-04-30T12:51:23.357Z,,,,,,,,,,,,,,,,,51,,,,,,,,,,,,,,629.5609997935244,,response,,,,13,E,,,,,,Space,keypress(Space),,,,lyrical,,,,-------- -------- --- --- ---- --- --- ------ -- --------<br>---- --------- --- ------- ------------ ---------- ---------<br>--- ---------- ------- ---------- ------- -- -------- ----<br>---- --- ------ ----- ------ -- join --- ----- -- - -------<br>-------- -- --- --- -- ----- ----------- ----- -----------<br>---- --- ---------- --- ---- --- -- ----------,336000.3849999048,335999.81999979354,335353.564,335360.99499999546,335370.259,336004.853,,31,join
screen,html.Screen,2_3_1_0_1_32,2021-04-30T12:51:24.030Z,,,,,,,,,,,,,,,,,51,,,,,,,,,,,,,,668.0369998124661,,response,,,,13,E,,,,,,Space,keypress(Space),,,,lyrical,,,,-------- -------- --- --- ---- --- --- ------ -- --------<br>---- --------- --- ------- ------------ ---------- ---------<br>--- ---------- ------- ---------- ------- -- -------- ----<br>---- --- ------ ----- ------ -- ---- the ----- -- - -------<br>-------- -- --- --- -- ----- ----------- ----- -----------<br>---- --- ---------- --- ---- --- -- ----------,336673.49499999546,336672.88999981247,335988.088,336000.5399999209,336004.853,336689.532,,32,the
screen,html.Screen,2_3_1_0_1_33,2021-04-30T12:51:24.741Z,,,,,,,,,,,,,,,,,51,,,,,,,,,,,,,,695.127999981516,,response,,,,13,E,,,,,,Space,keypress(Space),,,,lyrical,,,,-------- -------- --- --- ---- --- --- ------ -- --------<br>---- --------- --- ------- ------------ ---------- ---------<br>--- ---------- ------- ---------- ------- -- -------- ----<br>---- --- ------ ----- ------ -- ---- --- House -- - -------<br>-------- -- --- --- -- ----- ----------- ----- -----------<br>---- --- ---------- --- ---- --- -- ----------,337385.2599998936,337384.6599999815,336672.901,336673.66499989294,336689.532,337390.948,,33,House
screen,html.Screen,2_3_1_0_1_34,2021-04-30T12:51:25.351Z,,,,,,,,,,,,,,,,,51,,,,,,,,,,,,,,603.4369998526527,,response,,,,13,E,,,,,,Space,keypress(Space),,,,lyrical,,,,-------- -------- --- --- ---- --- --- ------ -- --------<br>---- --------- --- ------- ------------ ---------- ---------<br>--- ---------- ------- ---------- ------- -- -------- ----<br>---- --- ------ ----- ------ -- ---- --- ----- in - -------<br>-------- -- --- --- -- ----- ----------- ----- -----------<br>---- --- ---------- --- ---- --- -- ----------,337994.95500000194,337994.3849998526,337374.33,337385.4149999097,337390.948,338008.842,,34,in
screen,html.Screen,2_3_1_0_1_35,2021-04-30T12:51:26.085Z,,,,,,,,,,,,,,,,,51,,,,,,,,,,,,,,719.4729999566334,,response,,,,13,E,,,,,,Space,keypress(Space),,,,lyrical,,,,-------- -------- --- --- ---- --- --- ------ -- --------<br>---- --------- --- ------- ------------ ---------- ---------<br>--- ---------- ------- ---------- ------- -- -------- ----<br>---- --- ------ ----- ------ -- ---- --- ----- -- a -------<br>-------- -- --- --- -- ----- ----------- ----- -----------<br>---- --- ---------- --- ---- --- -- ----------,338728.90999983065,338728.31499995664,337992.136,337995.11000001803,338008.842,338743.687,,35,a
screen,html.Screen,2_3_1_0_1_36,2021-04-30T12:51:26.690Z,,,,,,,,,,,,,,,,,51,,,,,,,,,,,,,,589.4530000024824,,response,,,,13,E,,,,,,Space,keypress(Space),,,,lyrical,,,,-------- -------- --- --- ---- --- --- ------ -- --------<br>---- --------- --- ------- ------------ ---------- ---------<br>--- ---------- ------- ---------- ------- -- -------- ----<br>---- --- ------ ----- ------ -- ---- --- ----- -- - massive<br>-------- -- --- --- -- ----- ----------- ----- -----------<br>---- --- ---------- --- ---- --- -- ----------,339333.7749999482,339333.14000000246,338726.88,338729.08499999903,338743.687,339344.799,,36,massive
screen,html.Screen,2_3_1_0_1_37,2021-04-30T12:51:27.365Z,,,,,,,,,,,,,,,,,51,,,,,,,,,,,,,,663.1709999187151,,response,,,,13,E,,,,,,Space,keypress(Space),,,,lyrical,,,,-------- -------- --- --- ---- --- --- ------ -- --------<br>---- --------- --- ------- ------------ ---------- ---------<br>--- ---------- ------- ---------- ------- -- -------- ----<br>---- --- ------ ----- ------ -- ---- --- ----- -- - -------<br>overhaul -- --- --- -- ----- ----------- ----- -----------<br>---- --- ---------- --- ---- --- -- ----------,340008.5399998352,340007.9699999187,339328.039,339333.9299999643,339344.799,340012.774,,37,overhaul
