sender,sender_type,sender_id,timestamp,meta,,Blues,Classical,Country,Dance,Electronic,Folk,Gospel,Hip-Hop,Jazz,Latin,Musical/Film,New-age,Pop,Prolific_id,Provo_ID,R&B,Rap,Reggae,Religious,Rock,Soul,Swing,Traditional,age,artist_name,correct,correctResponse,distraction,duration,education,ended_on,familiarity,gender,headphone_check_performance,item,list,music_frequency,offensiveness,pleasantness,position_correct,preference,response,response_action,snippet_file,song_name,song_rating,sound,stimulus_1,stimulus_2,stimulus_3,text,time_commit,time_end,time_render,time_run,time_show,time_switch,url,word,word_ID
Prolific ID,html.Form,0,2021-04-30T13:24:36.676Z,"{""labjs_version"":""20.2.2"",""labjs_build"":{""flavor"":""production"",""commit"":""a25486e0c714a0ae2ce03ff94b7bb6896854dcfa""},""location"":""https://run.pavlovia.org/mvasilev/prolific_music_f/"",""userAgent"":""Mozilla/5.0 (Macintosh; Intel Mac OS X 10_15_7) AppleWebKit/537.36 (KHTML, like Gecko) Chrome/90.0.4430.85 Safari/537.36"",""platform"":""MacIntel"",""language"":""en-GB"",""locale"":""en-GB"",""timeZone"":""Europe/London"",""timezoneOffset"":-60,""screen_width"":1440,""screen_height"":900,""scroll_width"":1440,""scroll_height"":772,""window_innerWidth"":1440,""window_innerHeight"":820,""devicePixelRatio"":2}",,,,,,,,,,,,,,,6086db96bc44d6b5b1969fbe,,,,,,,,,,,,,,,6447.744000057295,,form submission,,,,,,,,,,,,,,,,,,,,,17060.89000008069,17060.520000057295,10596.11,10604.6750000678,10612.776,17060.672,{},,
Introduction,html.Screen,1_0,2021-04-30T13:24:51.606Z,,,,,,,,,,,,,,,,,,,,,,,,,,,,,,,14919.108000168831,,response,,,,,,,,,,,continue,click button,,,,,,,,,31990.57999998331,31979.78000016883,17044.006,17061.18499999866,17060.672,31988.637,,,
Volume calibration,html.Screen,1_1,2021-04-30T13:25:04.367Z,,,,,,,,,,,,,,,,,,,,,,,,,,,,,,,12757.967999992998,,response,,,,,,,,,,,continue,click button,,,,,,,,,44751.93000002764,44746.604999993,31971.971,31990.764999995008,31988.637,44758.036,,,
Task instructions,html.Screen,1_2,2021-04-30T13:25:11.921Z,,,,,,,,,,,,,,,,,,,,,,,,,,,,,,,7545.258999990612,,response,,,,,,,,,,,continue,click button,,,,,,,,,52305.62500003725,52303.29499999061,44741.37,44752.0600000862,44758.036,52321.255,,,
Sounds,html.Screen,1_3_0_0,2021-04-30T13:25:16.174Z,,,,,,,,,,,,,,,,,,,,,,,,,,,,,,,4249.830000000002,,timeout,,,,,,,,,1,,,,,,,,S,O,I,,56558.48000012338,56554.419,52304.589,52305.865000002086,52321.255,56571.085,,,
Judgement,html.Screen,1_3_0_1,2021-04-30T13:25:18.015Z,,,,,,,,,,,,,,,,,,,,,,,,,,,,true,1,,1826.7249999949345,,response,,,,,,,,,1,,1,click #choice-1,,,,,S,O,I,,58400.0300001353,58397.80999999493,56554.419,56558.67000017315,56571.085,58400.835,,,
Trial,flow.Sequence,1_3_0,2021-04-30T13:25:18.016Z,,,,,,,,,,,,,,,,,,,,,,,,,,,,,,,6076.554999994936,,completion,,,,,,,,,1,,,,,,,,S,O,I,,58400.34000016749,58397.80999999493,52304.589,52305.80500001088,52321.255,58400.835,,,
Sounds,html.Screen,1_3_1_0,2021-04-30T13:25:22.251Z,,,,,,,,,,,,,,,,,,,,,,,,,,,,,,,4249.830000000002,,timeout,,,,,,,,,3,,,,,,,,O,I,S,,62635.7400000561,62633.999,58384.169,58400.480000069365,58400.835,62650.665,,,
Judgement,html.Screen,1_3_1_1,2021-04-30T13:25:22.984Z,,,,,,,,,,,,,,,,,,,,,,,,,,,,true,3,,715.9500001808992,,response,,,,,,,,,3,,3,click #choice-3,,,,,O,I,S,,63368.6699999962,63366.6150001809,62633.999,62635.84000011906,62650.665,63383.969,,,
Trial,flow.Sequence,1_3_1,2021-04-30T13:25:22.984Z,,,,,,,,,,,,,,,,,,,,,,,,,,,,,,,4965.780000180901,,completion,,,,,,,,,3,,,,,,,,O,I,S,,63368.90500015579,63366.6150001809,58384.169,58400.435000192374,58400.835,63383.969,,,
Sounds,html.Screen,1_3_2_0,2021-04-30T13:25:27.235Z,,,,,,,,,,,,,,,,,,,,,,,,,,,,,,,4249.830000000002,,timeout,,,,,,,,,1,,,,,,,,S,I,O,,67619.85500017181,67617.133,63367.303,63369.20500011183,63383.969,67633.799,,,
Judgement,html.Screen,1_3_2_1,2021-04-30T13:25:27.713Z,,,,,,,,,,,,,,,,,,,,,,,,,,,,true,1,,461.6210001433501,,response,,,,,,,,,1,,1,click #choice-1,,,,,S,I,O,,68097.74500015192,68095.42000014335,67617.133,67620.01499999315,67633.799,68105.53,,,
Trial,flow.Sequence,1_3_2,2021-04-30T13:25:27.713Z,,,,,,,,,,,,,,,,,,,,,,,,,,,,,,,4711.451000143352,,completion,,,,,,,,,1,,,,,,,,S,I,O,,68097.95500012115,68095.42000014335,63367.303,63369.1500001587,63383.969,68105.53,,,
Sounds,html.Screen,1_3_3_0,2021-04-30T13:25:31.958Z,,,,,,,,,,,,,,,,,,,,,,,,,,,,,,,4249.830000000002,,timeout,,,,,,,,,2,,,,,,,,I,S,O,,72342.53500006162,72338.694,68088.864,68098.12000021338,68105.53,72355.36,,,
Judgement,html.Screen,1_3_3_1,2021-04-30T13:25:32.391Z,,,,,,,,,,,,,,,,,,,,,,,,,,,,true,2,,418.8200001822406,,response,,,,,,,,,2,,2,click #choice-2,,,,,I,S,O,,72776.09500009567,72774.18000018224,72338.694,72342.66500012018,72355.36,72788.676,,,
Trial,flow.Sequence,1_3_3,2021-04-30T13:25:32.392Z,,,,,,,,,,,,,,,,,,,,,,,,,,,,,,,4668.650000182242,,completion,,,,,,,,,2,,,,,,,,I,S,O,,72776.27000003122,72774.18000018224,68088.864,68098.07500010356,68105.53,72788.676,,,
Sounds,html.Screen,1_3_4_0,2021-04-30T13:25:36.639Z,,,,,,,,,,,,,,,,,,,,,,,,,,,,,,,4249.829999999987,,timeout,,,,,,,,,2,,,,,,,,O,S,I,,77023.69499998167,77021.84,72772.01,72776.3850002084,72788.676,77038.506,,,
Judgement,html.Screen,1_3_4_1,2021-04-30T13:25:36.966Z,,,,,,,,,,,,,,,,,,,,,,,,,,,,true,2,,310.0090001943172,,response,,,,,,,,,2,,2,click #choice-2,,,,,O,S,I,,77350.8500000462,77348.51500019431,77021.84,77023.81500019692,77038.506,77355.16,,,
Trial,flow.Sequence,1_3_4,2021-04-30T13:25:36.966Z,,,,,,,,,,,,,,,,,,,,,,,,,,,,,,,4559.839000194304,,completion,,,,,,,,,2,,,,,,,,O,S,I,,77351.05500021018,77348.51500019431,72772.01,72776.35500021279,72788.676,77355.16,,,
Sounds,html.Screen,1_3_5_0,2021-04-30T13:25:41.207Z,,,,,,,,,,,,,,,,,,,,,,,,,,,,,,,4249.830000000002,,timeout,,,,,,,,,3,,,,,,,,I,O,S,,81591.35000011884,81588.324,77338.494,77351.19500011206,77355.16,81604.99,,,
Judgement,html.Screen,1_3_5_1,2021-04-30T13:25:41.632Z,,,,,,,,,,,,,,,,,,,,,,,,,,,,true,3,,409.5650000015594,,response,,,,,,,,,3,,3,click #choice-3,,,,,I,O,S,,82016.5650001727,82014.55500000156,81588.324,81591.45499998704,81604.99,82021.64,,,
Trial,flow.Sequence,1_3_5,2021-04-30T13:25:41.632Z,,,,,,,,,,,,,,,,,,,,,,,,,,,,,,,4659.395000001561,,completion,,,,,,,,,3,,,,,,,,I,O,S,,82016.76000002772,82014.55500000156,77338.494,77351.15500004031,77355.16,82021.64,,,
Task,flow.Loop,1_3,2021-04-30T13:25:41.642Z,,,,,,,,,,,,,,,,,,,,,,,,,,,,,,,29693.300000001567,,completion,,,1,,,,,,,,,,,,,,,,,,82026.81499999017,82014.55500000156,52304.589,52305.74500001967,52321.255,82021.64,,,
Trap,html.Screen,1_4,2021-04-30T13:25:41.643Z,,,,,,,,,,,,,,,,,,,,,,,,,,,,,,,NaN,,skipped,,,,,,,,,,,,,,,,,,,,,82027.92000002228,82014.55500000156,,82027.82499999739,,82021.64,,,
Thanks,html.Screen,1_5,2021-04-30T13:25:45.950Z,,,,,,,,,,,,,,,,,,,,,,,,,,,,,,,4310.530000066981,,response,,,,,,,,,,,continue,click button,,,,,,,,,86334.55000002868,86332.17000006698,82004.974,82028.01000000909,82021.64,88889.258,,,
Headphone screening,flow.Sequence,1,2021-04-30T13:25:45.950Z,,,,,,,,,,,,,,,,,,,,,,,,,,,,,,,69271.49800006699,,completion,,,,,,,,,,,,,,,,,,,,,86334.75999999791,86332.17000006698,17044.006,17061.160000041127,17060.672,88889.258,,,
Instructions,html.Page,2_0,2021-04-30T13:25:59.545Z,,,,,,,,,,,,,,,,,,,,,,,,,,,,,,,11039.782000075473,,form submission,,,,,,,,,,,,,,,,,,,,,99929.270000197,99929.04000007547,88872.592,88889.54000012018,88889.258,99938.816,,,
Holding screen,html.Screen,2_1_0_0,2021-04-30T13:26:09.535Z,,,,,,,,,,,,,,,,,,,,,,,,,,,,,,,9995.944999999992,,timeout,,,,,,,,,,,,,,,,,,,,,109919.33000017889,109918.095,99922.15,99929.44500013255,99938.816,109934.761,,,
screen,html.Screen,2_1_0_1_0,2021-04-30T13:26:10.305Z,,,,,,,,,,,,,,,,,53,,,,,,,,,,,,,,747.309000097157,,response,,,,99,,,,,,,Space,keypress(Space),,,,,,,,When -- ----- -- ------ - ------- --- ----------<br>------------- ------ ------ ---- ---- ------- ----- -- ----<br>-------- ------- -- ---------- --- - --- ----- ----- ----<br>---- --- --- ----- --- ---- ---- ------- ----- ---- -------<br>--- --- -- ----- -- --- ---- -- --- ---- -- ------ ------<br>--- ----- -- ----,110689.79500001296,110682.07000009716,109918.095,109919.58500002511,109934.761,110701.397,,0,When
screen,html.Screen,2_1_0_1_1,2021-04-30T13:26:10.632Z,,,,,,,,,,,,,,,,,53,,,,,,,,,,,,,,310.78800011600833,,response,,,,99,,,,,,,Space,keypress(Space),,,,,,,,---- it ----- -- ------ - ------- --- ----------<br>------------- ------ ------ ---- ---- ------- ----- -- ----<br>-------- ------- -- ---------- --- - --- ----- ----- ----<br>---- --- --- ----- --- ---- ---- ------- ----- ---- -------<br>--- --- -- ----- -- --- ---- -- --- ---- -- ------ ------<br>--- ----- -- ----,111016.32500020787,111012.185000116,110684.731,110689.93500014767,110701.397,111027.308,,1,it
screen,html.Screen,2_1_0_1_2,2021-04-30T13:26:11.004Z,,,,,,,,,,,,,,,,,53,,,,,,,,,,,,,,356.6220000108733,,response,,,,99,,,,,,,Space,keypress(Space),,,,,,,,---- -- comes -- ------ - ------- --- ----------<br>------------- ------ ------ ---- ---- ------- ----- -- ----<br>-------- ------- -- ---------- --- - --- ----- ----- ----<br>---- --- --- ----- --- ---- ---- ------- ----- ---- -------<br>--- --- -- ----- -- --- ---- -- --- ---- -- ------ ------<br>--- ----- -- ----,111388.31500010565,111383.93000001088,111010.642,111016.43500011414,111027.308,111393.96,,2,comes
screen,html.Screen,2_1_0_1_3,2021-04-30T13:26:11.353Z,,,,,,,,,,,,,,,,,53,,,,,,,,,,,,,,339.0650001978065,,response,,,,99,,,,,,,Space,keypress(Space),,,,,,,,---- -- ----- to ------ - ------- --- ----------<br>------------- ------ ------ ---- ---- ------- ----- -- ----<br>-------- ------- -- ---------- --- - --- ----- ----- ----<br>---- --- --- ----- --- ---- ---- ------- ----- ---- -------<br>--- --- -- ----- -- --- ---- -- --- ---- -- ------ ------<br>--- ----- -- ----,111737.47500008903,111733.02500019781,111377.294,111388.42500001192,111393.96,111743.946,,3,to
screen,html.Screen,2_1_0_1_4,2021-04-30T13:26:11.655Z,,,,,,,,,,,,,,,,,53,,,,,,,,,,,,,,292.05400008009747,,response,,,,99,,,,,,,Space,keypress(Space),,,,,,,,---- -- ----- -- having - ------- --- ----------<br>------------- ------ ------ ---- ---- ------- ----- -- ----<br>-------- ------- -- ---------- --- - --- ----- ----- ----<br>---- --- --- ----- --- ---- ---- ------- ----- ---- -------<br>--- --- -- ----- -- --- ---- -- --- ---- -- ------ ------<br>--- ----- -- ----,112040.21000000648,112036.0000000801,111727.28,111737.65000002459,111743.946,112043.934,,4,having
screen,html.Screen,2_1_0_1_5,2021-04-30T13:26:11.998Z,,,,,,,,,,,,,,,,,53,,,,,,,,,,,,,,334.9410001695069,,response,,,,99,,,,,,,Space,keypress(Space),,,,,,,,---- -- ----- -- ------ a ------- --- ----------<br>------------- ------ ------ ---- ---- ------- ----- -- ----<br>-------- ------- -- ---------- --- - --- ----- ----- ----<br>---- --- --- ----- --- ---- ---- ------- ----- ---- -------<br>--- --- -- ----- -- --- ---- -- --- ---- -- ------ ------<br>--- ----- -- ----,112382.8550002072,112378.8750001695,112027.268,112040.32000014558,112043.934,112393.92,,5,a
screen,html.Screen,2_1_0_1_6,2021-04-30T13:26:12.302Z,,,,,,,,,,,,,,,,,53,,,,,,,,,,,,,,289.0050000882911,,response,,,,99,,,,,,,Space,keypress(Space),,,,,,,,---- -- ----- -- ------ - lasting --- ----------<br>------------- ------ ------ ---- ---- ------- ----- -- ----<br>-------- ------- -- ---------- --- - --- ----- ----- ----<br>---- --- --- ----- --- ---- ---- ------- ----- ---- -------<br>--- --- -- ----- -- --- ---- -- --- ---- -- ------ ------<br>--- ----- -- ----,112686.84500013478,112682.92500008829,112377.254,112382.97000015154,112393.92,112693.908,,6,lasting
screen,html.Screen,2_1_0_1_7,2021-04-30T13:26:12.615Z,,,,,,,,,,,,,,,,,53,,,,,,,,,,,,,,300.9670000912738,,response,,,,99,,,,,,,Space,keypress(Space),,,,,,,,---- -- ----- -- ------ - ------- and ----------<br>------------- ------ ------ ---- ---- ------- ----- -- ----<br>-------- ------- -- ---------- --- - --- ----- ----- ----<br>---- --- --- ----- --- ---- ---- ------- ----- ---- -------<br>--- --- -- ----- -- --- ---- -- --- ---- -- ------ ------<br>--- ----- -- ----,112999.6500001289,112994.87500009127,112677.242,112686.95000000298,112693.908,113010.562,,7,and
screen,html.Screen,2_1_0_1_8,2021-04-30T13:26:12.926Z,,,,,,,,,,,,,,,,,53,,,,,,,,,,,,,,296.31300000930787,,response,,,,99,,,,,,,Space,keypress(Space),,,,,,,,---- -- ----- -- ------ - ------- --- fulfilling<br>------------- ------ ------ ---- ---- ------- ----- -- ----<br>-------- ------- -- ---------- --- - --- ----- ----- ----<br>---- --- --- ----- --- ---- ---- ------- ----- ---- -------<br>--- --- -- ----- -- --- ---- -- --- ---- -- ------ ------<br>--- ----- -- ----,113310.75499998406,113306.87500000931,112993.896,112999.74500015378,113010.562,113327.216,,8,fulfilling
screen,html.Screen,2_1_0_1_9,2021-04-30T13:26:13.329Z,,,,,,,,,,,,,,,,,53,,,,,,,,,,,,,,382.7440001238283,,response,,,,99,,,,,,,Space,keypress(Space),,,,,,,,"---- -- ----- -- ------ - ------- --- ----------<br>relationship, ------ ------ ---- ---- ------- ----- -- ----<br>-------- ------- -- ---------- --- - --- ----- ----- ----<br>---- --- --- ----- --- ---- ---- ------- ----- ---- -------<br>--- --- -- ----- -- --- ---- -- --- ---- -- ------ ------<br>--- ----- -- ----",113714.03000014834,113709.96000012383,113310.55,113310.85500004701,113327.216,113727.2,,9,"relationship,"
screen,html.Screen,2_1_0_1_10,2021-04-30T13:26:13.718Z,,,,,,,,,,,,,,,,,53,,,,,,,,,,,,,,370.7350002016901,,response,,,,99,,,,,,,Space,keypress(Space),,,,,,,,---- -- ----- -- ------ - ------- --- ----------<br>------------- common ------ ---- ---- ------- ----- -- ----<br>-------- ------- -- ---------- --- - --- ----- ----- ----<br>---- --- --- ----- --- ---- ---- ------- ----- ---- -------<br>--- --- -- ----- -- --- ---- -- --- ---- -- ------ ------<br>--- ----- -- ----,114102.3250001017,114097.93500020169,113710.534,113714.14000005461,113727.2,114110.518,,10,common
screen,html.Screen,2_1_0_1_11,2021-04-30T13:26:14.043Z,,,,,,,,,,,,,,,,,53,,,,,,,,,,,,,,313.42700016235176,,response,,,,99,,,,,,,Space,keypress(Space),,,,,,,,---- -- ----- -- ------ - ------- --- ----------<br>------------- ------ wisdom ---- ---- ------- ----- -- ----<br>-------- ------- -- ---------- --- - --- ----- ----- ----<br>---- --- --- ----- --- ---- ---- ------- ----- ---- -------<br>--- --- -- ----- -- --- ---- -- --- ---- -- ------ ------<br>--- ----- -- ----,114428.07999998331,114423.94500016235,114093.852,114102.43500000797,114110.518,114443.838,,11,wisdom
screen,html.Screen,2_1_0_1_12,2021-04-30T13:26:14.350Z,,,,,,,,,,,,,,,,,53,,,,,,,,,,,,,,287.0170002053346,,response,,,,99,,,,,,,Space,keypress(Space),,,,,,,,---- -- ----- -- ------ - ------- --- ----------<br>------------- ------ ------ says ---- ------- ----- -- ----<br>-------- ------- -- ---------- --- - --- ----- ----- ----<br>---- --- --- ----- --- ---- ---- ------- ----- ---- -------<br>--- --- -- ----- -- --- ---- -- --- ---- -- ------ ------<br>--- ----- -- ----,114735.00500014052,114730.85500020534,114427.172,114428.19000012241,114443.838,114743.826,,12,says
screen,html.Screen,2_1_0_1_13,2021-04-30T13:26:14.628Z,,,,,,,,,,,,,,,,,53,,,,,,,,,,,,,,265.0940001675626,,response,,,,99,,,,,,,Space,keypress(Space),,,,,,,,---- -- ----- -- ------ - ------- --- ----------<br>------------- ------ ------ ---- that ------- ----- -- ----<br>-------- ------- -- ---------- --- - --- ----- ----- ----<br>---- --- --- ----- --- ---- ---- ------- ----- ---- -------<br>--- --- -- ----- -- --- ---- -- --- ---- -- ------ ------<br>--- ----- -- ----,115013.02499999292,115008.92000016756,114727.16,114735.11500004679,114743.826,115027.148,,13,that
screen,html.Screen,2_1_0_1_14,2021-04-30T13:26:14.903Z,,,,,,,,,,,,,,,,,53,,,,,,,,,,,,,,256.78700018864765,,response,,,,99,,,,,,,Space,keypress(Space),,,,,,,,---- -- ----- -- ------ - ------- --- ----------<br>------------- ------ ------ ---- ---- feeling ----- -- ----<br>-------- ------- -- ---------- --- - --- ----- ----- ----<br>---- --- --- ----- --- ---- ---- ------- ----- ---- -------<br>--- --- -- ----- -- --- ---- -- --- ---- -- ------ ------<br>--- ----- -- ----,115288.245000178,115283.93500018865,115010.482,115013.13500013202,115027.148,115293.804,,14,feeling
screen,html.Screen,2_1_0_1_15,2021-04-30T13:26:15.231Z,,,,,,,,,,,,,,,,,53,,,,,,,,,,,,,,318.15600012568757,,response,,,,99,,,,,,,Space,keypress(Space),,,,,,,,---- -- ----- -- ------ - ------- --- ----------<br>------------- ------ ------ ---- ---- ------- close -- ----<br>-------- ------- -- ---------- --- - --- ----- ----- ----<br>---- --- --- ----- --- ---- ---- ------- ----- ---- -------<br>--- --- -- ----- -- --- ---- -- --- ---- -- ------ ------<br>--- ----- -- ----,115616.05000006966,115611.96000012569,115277.138,115288.35500008427,115293.804,115627.124,,15,close
screen,html.Screen,2_1_0_1_16,2021-04-30T13:26:15.525Z,,,,,,,,,,,,,,,,,53,,,,,,,,,,,,,,278.6510001084098,,response,,,,99,,,,,,,Space,keypress(Space),,,,,,,,---- -- ----- -- ------ - ------- --- ----------<br>------------- ------ ------ ---- ---- ------- ----- to ----<br>-------- ------- -- ---------- --- - --- ----- ----- ----<br>---- --- --- ----- --- ---- ---- ------- ----- ---- -------<br>--- --- -- ----- -- --- ---- -- --- ---- -- ------ ------<br>--- ----- -- ----,115909.3250001315,115905.7750001084,115610.458,115616.16000020877,115627.124,115910.446,,16,to
screen,html.Screen,2_1_0_1_17,2021-04-30T13:26:15.811Z,,,,,,,,,,,,,,,,,53,,,,,,,,,,,,,,281.4990000859834,,response,,,,99,,,,,,,Space,keypress(Space),,,,,,,,---- -- ----- -- ------ - ------- --- ----------<br>------------- ------ ------ ---- ---- ------- ----- -- your<br>-------- ------- -- ---------- --- - --- ----- ----- ----<br>---- --- --- ----- --- ---- ---- ------- ----- ---- -------<br>--- --- -- ----- -- --- ---- -- --- ---- -- ------ ------<br>--- ----- -- ----,116195.99000015296,116191.94500008598,115893.78,115909.93500011973,115910.446,116210.434,,17,your
screen,html.Screen,2_1_0_1_18,2021-04-30T13:26:16.162Z,,,,,,,,,,,,,,,,,53,,,,,,,,,,,,,,332.41100004724285,,response,,,,99,,,,,,,Space,keypress(Space),,,,,,,,---- -- ----- -- ------ - ------- --- ----------<br>------------- ------ ------ ---- ---- ------- ----- -- ----<br>romantic ------- -- ---------- --- - --- ----- ----- ----<br>---- --- --- ----- --- ---- ---- ------- ----- ---- -------<br>--- --- -- ----- -- --- ---- -- --- ---- -- ------ ------<br>--- ----- -- ----,116546.9049999956,116542.84500004724,116193.768,116196.08999998309,116210.434,116560.42,,18,romantic
screen,html.Screen,2_1_0_1_19,2021-04-30T13:26:16.455Z,,,,,,,,,,,,,,,,,53,,,,,,,,,,,,,,275.4800000637042,,response,,,,99,,,,,,,Space,keypress(Space),,,,,,,,---- -- ----- -- ------ - ------- --- ----------<br>------------- ------ ------ ---- ---- ------- ----- -- ----<br>-------- partner -- ---------- --- - --- ----- ----- ----<br>---- --- --- ----- --- ---- ---- ------- ----- ---- -------<br>--- --- -- ----- -- --- ---- -- --- ---- -- ------ ------<br>--- ----- -- ----,116840.04000015557,116835.9000000637,116543.754,116547.01000009663,116560.42,116843.742,,19,partner
screen,html.Screen,2_1_0_1_20,2021-04-30T13:26:16.746Z,,,,,,,,,,,,,,,,,53,,,,,,,,,,,,,,283.2230000613199,,response,,,,99,,,,,,,Space,keypress(Space),,,,,,,,---- -- ----- -- ------ - ------- --- ----------<br>------------- ------ ------ ---- ---- ------- ----- -- ----<br>-------- ------- is ---------- --- - --- ----- ----- ----<br>---- --- --- ----- --- ---- ---- ------- ----- ---- -------<br>--- --- -- ----- -- --- ---- -- --- ---- -- ------ ------<br>--- ----- -- ----,117131.10000011511,117126.96500006132,116827.076,116840.15500009991,116843.742,117143.73,,20,is
screen,html.Screen,2_1_0_1_21,2021-04-30T13:26:17.046Z,,,,,,,,,,,,,,,,,53,,,,,,,,,,,,,,283.1500001591485,,response,,,,99,,,,,,,Space,keypress(Space),,,,,,,,---- -- ----- -- ------ - ------- --- ----------<br>------------- ------ ------ ---- ---- ------- ----- -- ----<br>-------- ------- -- paramount. --- - --- ----- ----- ----<br>---- --- --- ----- --- ---- ---- ------- ----- ---- -------<br>--- --- -- ----- -- --- ---- -- --- ---- -- ------ ------<br>--- ----- -- ----,117430.94000010751,117426.88000015914,117127.064,117131.21000002138,117143.73,117443.718,,21,paramount.
screen,html.Screen,2_1_0_1_22,2021-04-30T13:26:17.320Z,,,,,,,,,,,,,,,,,53,,,,,,,,,,,,,,257.1920001305407,,response,,,,99,,,,,,,Space,keypress(Space),,,,,,,,---- -- ----- -- ------ - ------- --- ----------<br>------------- ------ ------ ---- ---- ------- ----- -- ----<br>-------- ------- -- ---------- But - --- ----- ----- ----<br>---- --- --- ----- --- ---- ---- ------- ----- ---- -------<br>--- --- -- ----- -- --- ---- -- --- ---- -- ------ ------<br>--- ----- -- ----,117705.20500000566,117700.91000013053,117427.052,117431.05000001378,117443.718,117710.374,,22,But
screen,html.Screen,2_1_0_1_23,2021-04-30T13:26:17.641Z,,,,,,,,,,,,,,,,,53,,,,,,,,,,,,,,310.55100007711735,,response,,,,99,,,,,,,Space,keypress(Space),,,,,,,,---- -- ----- -- ------ - ------- --- ----------<br>------------- ------ ------ ---- ---- ------- ----- -- ----<br>-------- ------- -- ---------- --- a --- ----- ----- ----<br>---- --- --- ----- --- ---- ---- ------- ----- ---- -------<br>--- --- -- ----- -- --- ---- -- --- ---- -- ------ ------<br>--- ----- -- ----,118025.3500000108,118020.92500007711,117693.708,117705.31000010669,117710.374,118027.028,,23,a
screen,html.Screen,2_1_0_1_24,2021-04-30T13:26:18.028Z,,,,,,,,,,,,,,,,,53,,,,,,,,,,,,,,381.8420001593622,,response,,,,99,,,,,,,Space,keypress(Space),,,,,,,,---- -- ----- -- ------ - ------- --- ----------<br>------------- ------ ------ ---- ---- ------- ----- -- ----<br>-------- ------- -- ---------- --- - new ----- ----- ----<br>---- --- --- ----- --- ---- ---- ------- ----- ---- -------<br>--- --- -- ----- -- --- ---- -- --- ---- -- ------ ------<br>--- ----- -- ----,118412.91499999352,118408.87000015937,118010.362,118025.4600001499,118027.028,118427.012,,24,new
screen,html.Screen,2_1_0_1_25,2021-04-30T13:26:18.328Z,,,,,,,,,,,,,,,,,53,,,,,,,,,,,,,,281.9180001971399,,response,,,,99,,,,,,,Space,keypress(Space),,,,,,,,---- -- ----- -- ------ - ------- --- ----------<br>------------- ------ ------ ---- ---- ------- ----- -- ----<br>-------- ------- -- ---------- --- - --- study ----- ----<br>---- --- --- ----- --- ---- ---- ------- ----- ---- -------<br>--- --- -- ----- -- --- ---- -- --- ---- -- ------ ------<br>--- ----- -- ----,118713.24499999173,118708.93000019714,118410.346,118413.02000009455,118427.012,118727,,25,study
screen,html.Screen,2_1_0_1_26,2021-04-30T13:26:18.589Z,,,,,,,,,,,,,,,,,53,,,,,,,,,,,,,,242.83500011265278,,response,,,,99,,,,,,,Space,keypress(Space),,,,,,,,---- -- ----- -- ------ - ------- --- ----------<br>------------- ------ ------ ---- ---- ------- ----- -- ----<br>-------- ------- -- ---------- --- - --- ----- finds ----<br>---- --- --- ----- --- ---- ---- ------- ----- ---- -------<br>--- --- -- ----- -- --- ---- -- --- ---- -- ------ ------<br>--- ----- -- ----,118974.12500018254,118969.83500011265,118710.334,118713.39000016451,118727,118976.99,,26,finds
screen,html.Screen,2_1_0_1_27,2021-04-30T13:26:18.886Z,,,,,,,,,,,,,,,,,53,,,,,,,,,,,,,,289.78000010385585,,response,,,,99,,,,,,,Space,keypress(Space),,,,,,,,---- -- ----- -- ------ - ------- --- ----------<br>------------- ------ ------ ---- ---- ------- ----- -- ----<br>-------- ------- -- ---------- --- - --- ----- ----- that<br>---- --- --- ----- --- ---- ---- ------- ----- ---- -------<br>--- --- -- ----- -- --- ---- -- --- ---- -- ------ ------<br>--- ----- -- ----,119270.60500020161,119266.77000010386,118960.324,118974.23500008881,118976.99,119276.978,,27,that
screen,html.Screen,2_1_0_1_28,2021-04-30T13:26:19.221Z,,,,,,,,,,,,,,,,,53,,,,,,,,,,,,,,324.8320001383545,,response,,,,99,,,,,,,Space,keypress(Space),,,,,,,,---- -- ----- -- ------ - ------- --- ----------<br>------------- ------ ------ ---- ---- ------- ----- -- ----<br>-------- ------- -- ---------- --- - --- ----- ----- ----<br>it's --- --- ----- --- ---- ---- ------- ----- ---- -------<br>--- --- -- ----- -- --- ---- -- --- ---- -- ------ ------<br>--- ----- -- ----,119605.8750001248,119601.81000013836,119260.312,119270.71000006981,119276.978,119610.298,,28,it's
screen,html.Screen,2_1_0_1_29,2021-04-30T13:26:19.460Z,,,,,,,,,,,,,,,,,53,,,,,,,,,,,,,,230.50200012182177,,response,,,,99,,,,,,,Space,keypress(Space),,,,,,,,---- -- ----- -- ------ - ------- --- ----------<br>------------- ------ ------ ---- ---- ------- ----- -- ----<br>-------- ------- -- ---------- --- - --- ----- ----- ----<br>---- not --- ----- --- ---- ---- ------- ----- ---- -------<br>--- --- -- ----- -- --- ---- -- --- ---- -- ------ ------<br>--- ----- -- ----,119844.89000006579,119840.80000012182,119593.632,119605.98500003107,119610.298,119860.288,,29,not
screen,html.Screen,2_1_0_1_30,2021-04-30T13:26:19.763Z,,,,,,,,,,,,,,,,,53,,,,,,,,,,,,,,283.6970002061571,,response,,,,99,,,,,,,Space,keypress(Space),,,,,,,,---- -- ----- -- ------ - ------- --- ----------<br>------------- ------ ------ ---- ---- ------- ----- -- ----<br>-------- ------- -- ---------- --- - --- ----- ----- ----<br>---- --- how ----- --- ---- ---- ------- ----- ---- -------<br>--- --- -- ----- -- --- ---- -- --- ---- -- ------ ------<br>--- ----- -- ----,120148.13000010327,120143.98500020616,119843.622,119845.00000020489,119860.288,120160.276,,30,how
screen,html.Screen,2_1_0_1_31,2021-04-30T13:26:19.997Z,,,,,,,,,,,,,,,,,53,,,,,,,,,,,,,,217.5140000568499,,response,,,,99,,,,,,,Space,keypress(Space),,,,,,,,---- -- ----- -- ------ - ------- --- ----------<br>------------- ------ ------ ---- ---- ------- ----- -- ----<br>-------- ------- -- ---------- --- - --- ----- ----- ----<br>---- --- --- close --- ---- ---- ------- ----- ---- -------<br>--- --- -- ----- -- --- ---- -- --- ---- -- ------ ------<br>--- ----- -- ----,120381.98500010185,120377.79000005685,120143.61,120148.24000000954,120160.276,120393.6,,31,close
screen,html.Screen,2_1_0_1_32,2021-04-30T13:26:20.267Z,,,,,,,,,,,,,,,,,53,,,,,,,,,,,,,,254.1750001940818,,response,,,,99,,,,,,,Space,keypress(Space),,,,,,,,---- -- ----- -- ------ - ------- --- ----------<br>------------- ------ ------ ---- ---- ------- ----- -- ----<br>-------- ------- -- ---------- --- - --- ----- ----- ----<br>---- --- --- ----- you ---- ---- ------- ----- ---- -------<br>--- --- -- ----- -- --- ---- -- --- ---- -- ------ ------<br>--- ----- -- ----,120651.78000018932,120647.77500019409,120376.934,120382.1000000462,120393.6,120668.126,,32,you
screen,html.Screen,2_1_0_1_33,2021-04-30T13:26:20.480Z,,,,,,,,,,,,,,,,,53,,,,,,,,,,,,,,192.62900003061804,,response,,,,99,,,,,,,Space,keypress(Space),,,,,,,,---- -- ----- -- ------ - ------- --- ----------<br>------------- ------ ------ ---- ---- ------- ----- -- ----<br>-------- ------- -- ---------- --- - --- ----- ----- ----<br>---- --- --- ----- --- feel ---- ------- ----- ---- -------<br>--- --- -- ----- -- --- ---- -- --- ---- -- ------ ------<br>--- ----- -- ----,120865.18000019714,120860.75500003062,120651.46,120651.89000009559,120668.126,120868.118,,33,feel
screen,html.Screen,2_1_0_1_34,2021-04-30T13:26:20.763Z,,,,,,,,,,,,,,,,,53,,,,,,,,,,,,,,275.6620000421681,,response,,,,99,,,,,,,Space,keypress(Space),,,,,,,,---- -- ----- -- ------ - ------- --- ----------<br>------------- ------ ------ ---- ---- ------- ----- -- ----<br>-------- ------- -- ---------- --- - --- ----- ----- ----<br>---- --- --- ----- --- ---- that ------- ----- ---- -------<br>--- --- -- ----- -- --- ---- -- --- ---- -- ------ ------<br>--- ----- -- ----,121147.79500011355,121143.78000004217,120851.452,120865.28500006534,120868.118,121151.44,,34,that
screen,html.Screen,2_1_0_1_35,2021-04-30T13:26:21.135Z,,,,,,,,,,,,,,,,,53,,,,,,,,,,,,,,364.32500013470417,,response,,,,99,,,,,,,Space,keypress(Space),,,,,,,,---- -- ----- -- ------ - ------- --- ----------<br>------------- ------ ------ ---- ---- ------- ----- -- ----<br>-------- ------- -- ---------- --- - --- ----- ----- ----<br>---- --- --- ----- --- ---- ---- matters ----- ---- -------<br>--- --- -- ----- -- --- ---- -- --- ---- -- ------ ------<br>--- ----- -- ----,121519.8700001929,121515.7650001347,121134.774,121149.02500016615,121151.44,121534.758,,35,matters
screen,html.Screen,2_1_0_1_36,2021-04-30T13:26:21.381Z,,,,,,,,,,,,,,,,,53,,,,,,,,,,,,,,226.99700010140077,,response,,,,99,,,,,,,Space,keypress(Space),,,,,,,,"---- -- ----- -- ------ - ------- --- ----------<br>------------- ------ ------ ---- ---- ------- ----- -- ----<br>-------- ------- -- ---------- --- - --- ----- ----- ----<br>---- --- --- ----- --- ---- ---- ------- most, ---- -------<br>--- --- -- ----- -- --- ---- -- --- ---- -- ------ ------<br>--- ----- -- ----",121765.81500004977,121761.7550001014,121518.092,121520.62500012107,121534.758,121768.082,,36,"most,"
screen,html.Screen,2_1_0_1_37,2021-04-30T13:26:21.618Z,,,,,,,,,,,,,,,,,53,,,,,,,,,,,,,,230.68800018023467,,response,,,,99,,,,,,,Space,keypress(Space),,,,,,,,---- -- ----- -- ------ - ------- --- ----------<br>------------- ------ ------ ---- ---- ------- ----- -- ----<br>-------- ------- -- ---------- --- - --- ----- ----- ----<br>---- --- --- ----- --- ---- ---- ------- ----- it's -------<br>--- --- -- ----- -- --- ---- -- --- ---- -- ------ ------<br>--- ----- -- ----,122002.81500001438,121998.77000018023,121751.416,121765.92999999411,121768.082,122018.072,,37,it's
screen,html.Screen,2_1_0_1_38,2021-04-30T13:26:21.914Z,,,,,,,,,,,,,,,,,53,,,,,,,,,,,,,,276.6630000031291,,response,,,,99,,,,,,,Space,keypress(Space),,,,,,,,---- -- ----- -- ------ - ------- --- ----------<br>------------- ------ ------ ---- ---- ------- ----- -- ----<br>-------- ------- -- ---------- --- - --- ----- ----- ----<br>---- --- --- ----- --- ---- ---- ------- ----- ---- whether<br>--- --- -- ----- -- --- ---- -- --- ---- -- ------ ------<br>--- ----- -- ----,122298.875000095,122294.73500000313,122001.406,122002.91000003926,122018.072,122301.394,,38,whether
screen,html.Screen,2_1_0_1_39,2021-04-30T13:26:22.180Z,,,,,,,,,,,,,,,,,53,,,,,,,,,,,,,,258.4210000441817,,response,,,,99,,,,,,,Space,keypress(Space),,,,,,,,---- -- ----- -- ------ - ------- --- ----------<br>------------- ------ ------ ---- ---- ------- ----- -- ----<br>-------- ------- -- ---------- --- - --- ----- ----- ----<br>---- --- --- ----- --- ---- ---- ------- ----- ---- -------<br>you --- -- ----- -- --- ---- -- --- ---- -- ------ ------<br>--- ----- -- ----,122565.05000009201,122559.81500004418,122284.728,122298.96500008181,122301.394,122568.05,,39,you
screen,html.Screen,2_1_0_1_40,2021-04-30T13:26:22.450Z,,,,,,,,,,,,,,,,,53,,,,,,,,,,,,,,262.695000159365,,response,,,,99,,,,,,,Space,keypress(Space),,,,,,,,---- -- ----- -- ------ - ------- --- ----------<br>------------- ------ ------ ---- ---- ------- ----- -- ----<br>-------- ------- -- ---------- --- - --- ----- ----- ----<br>---- --- --- ----- --- ---- ---- ------- ----- ---- -------<br>--- are -- ----- -- --- ---- -- --- ---- -- ------ ------<br>--- ----- -- ----,122834.79500003159,122830.74500015937,122551.384,122565.15999999829,122568.05,122851.372,,40,are
screen,html.Screen,2_1_0_1_41,2021-04-30T13:26:22.647Z,,,,,,,,,,,,,,,,,53,,,,,,,,,,,,,,176.3530001672625,,response,,,,99,,,,,,,Space,keypress(Space),,,,,,,,---- -- ----- -- ------ - ------- --- ----------<br>------------- ------ ------ ---- ---- ------- ----- -- ----<br>-------- ------- -- ---------- --- - --- ----- ----- ----<br>---- --- --- ----- --- ---- ---- ------- ----- ---- -------<br>--- --- as ----- -- --- ---- -- --- ---- -- ------ ------<br>--- ----- -- ----,123031.80500003509,123027.72500016727,122834.706,122834.89000005648,122851.372,123034.698,,41,as
screen,html.Screen,2_1_0_1_42,2021-04-30T13:26:22.833Z,,,,,,,,,,,,,,,,,53,,,,,,,,,,,,,,179.09699998874567,,response,,,,99,,,,,,,Space,keypress(Space),,,,,,,,---- -- ----- -- ------ - ------- --- ----------<br>------------- ------ ------ ---- ---- ------- ----- -- ----<br>-------- ------- -- ---------- --- - --- ----- ----- ----<br>---- --- --- ----- --- ---- ---- ------- ----- ---- -------<br>--- --- -- close -- --- ---- -- --- ---- -- ------ ------<br>--- ----- -- ----,123217.77500002645,123213.79499998875,123018.032,123031.90000005998,123034.698,123234.69,,42,close
screen,html.Screen,2_1_0_1_43,2021-04-30T13:26:23.022Z,,,,,,,,,,,,,,,,,53,,,,,,,,,,,,,,167.92500002816087,,response,,,,99,,,,,,,Space,keypress(Space),,,,,,,,---- -- ----- -- ------ - ------- --- ----------<br>------------- ------ ------ ---- ---- ------- ----- -- ----<br>-------- ------- -- ---------- --- - --- ----- ----- ----<br>---- --- --- ----- --- ---- ---- ------- ----- ---- -------<br>--- --- -- ----- as --- ---- -- --- ---- -- ------ ------<br>--- ----- -- ----,123406.70500020497,123402.61500002816,123218.024,123217.89000020362,123234.69,123418.016,,43,as
screen,html.Screen,2_1_0_1_44,2021-04-30T13:26:23.220Z,,,,,,,,,,,,,,,,,53,,,,,,,,,,,,,,182.6790000300971,,response,,,,99,,,,,,,Space,keypress(Space),,,,,,,,---- -- ----- -- ------ - ------- --- ----------<br>------------- ------ ------ ---- ---- ------- ----- -- ----<br>-------- ------- -- ---------- --- - --- ----- ----- ----<br>---- --- --- ----- --- ---- ---- ------- ----- ---- -------<br>--- --- -- ----- -- you ---- -- --- ---- -- ------ ------<br>--- ----- -- ----,123604.8900000751,123600.6950000301,123401.35,123406.80500003509,123418.016,123618.008,,44,you
screen,html.Screen,2_1_0_1_45,2021-04-30T13:26:23.389Z,,,,,,,,,,,,,,,,,53,,,,,,,,,,,,,,151.70700017680065,,response,,,,99,,,,,,,Space,keypress(Space),,,,,,,,---- -- ----- -- ------ - ------- --- ----------<br>------------- ------ ------ ---- ---- ------- ----- -- ----<br>-------- ------- -- ---------- --- - --- ----- ----- ----<br>---- --- --- ----- --- ---- ---- ------- ----- ---- -------<br>--- --- -- ----- -- --- want -- --- ---- -- ------ ------<br>--- ----- -- ----,123773.92000006512,123769.7150001768,123601.342,123604.98500009999,123618.008,123784.668,,45,want
screen,html.Screen,2_1_0_1_46,2021-04-30T13:26:23.579Z,,,,,,,,,,,,,,,,,53,,,,,,,,,,,,,,175.05200015899027,,response,,,,99,,,,,,,Space,keypress(Space),,,,,,,,---- -- ----- -- ------ - ------- --- ----------<br>------------- ------ ------ ---- ---- ------- ----- -- ----<br>-------- ------- -- ---------- --- - --- ----- ----- ----<br>---- --- --- ----- --- ---- ---- ------- ----- ---- -------<br>--- --- -- ----- -- --- ---- to --- ---- -- ------ ------<br>--- ----- -- ----,123963.72500015423,123959.720000159,123768.002,123775.14000004157,123784.668,123967.994,,46,to
screen,html.Screen,2_1_0_1_47,2021-04-30T13:26:23.768Z,,,,,,,,,,,,,,,,,53,,,,,,,,,,,,,,180.76100020570448,,response,,,,99,,,,,,,Space,keypress(Space),,,,,,,,"---- -- ----- -- ------ - ------- --- ----------<br>------------- ------ ------ ---- ---- ------- ----- -- ----<br>-------- ------- -- ---------- --- - --- ----- ----- ----<br>---- --- --- ----- --- ---- ---- ------- ----- ---- -------<br>--- --- -- ----- -- --- ---- -- be, ---- -- ------ ------<br>--- ----- -- ----",124153.08500011452,124148.75500020571,123951.328,123963.8350000605,123967.994,124167.986,,47,"be,"
screen,html.Screen,2_1_0_1_48,2021-04-30T13:26:23.971Z,,,,,,,,,,,,,,,,,53,,,,,,,,,,,,,,183.76400014714454,,response,,,,99,,,,,,,Space,keypress(Space),,,,,,,,---- -- ----- -- ------ - ------- --- ----------<br>------------- ------ ------ ---- ---- ------- ----- -- ----<br>-------- ------- -- ---------- --- - --- ----- ----- ----<br>---- --- --- ----- --- ---- ---- ------- ----- ---- -------<br>--- --- -- ----- -- --- ---- -- --- even -- ------ ------<br>--- ----- -- ----,124355.73499999009,124351.75000014715,124151.32,124153.19500002079,124167.986,124367.978,,48,even
screen,html.Screen,2_1_0_1_49,2021-04-30T13:26:24.179Z,,,,,,,,,,,,,,,,,53,,,,,,,,,,,,,,191.807000048575,,response,,,,99,,,,,,,Space,keypress(Space),,,,,,,,---- -- ----- -- ------ - ------- --- ----------<br>------------- ------ ------ ---- ---- ------- ----- -- ----<br>-------- ------- -- ---------- --- - --- ----- ----- ----<br>---- --- --- ----- --- ---- ---- ------- ----- ---- -------<br>--- --- -- ----- -- --- ---- -- --- ---- if ------ ------<br>--- ----- -- ----,124563.90499998815,124559.78500004858,124351.312,124355.83000001498,124367.978,124567.97,,49,if
screen,html.Screen,2_1_0_1_50,2021-04-30T13:26:24.457Z,,,,,,,,,,,,,,,,,53,,,,,,,,,,,,,,269.6300002026546,,response,,,,99,,,,,,,Space,keypress(Space),,,,,,,,---- -- ----- -- ------ - ------- --- ----------<br>------------- ------ ------ ---- ---- ------- ----- -- ----<br>-------- ------- -- ---------- --- - --- ----- ----- ----<br>---- --- --- ----- --- ---- ---- ------- ----- ---- -------<br>--- --- -- ----- -- --- ---- -- --- ---- -- that's ------<br>--- ----- -- ----,124841.6950001847,124837.60000020266,124551.304,124564.01500012726,124567.97,124851.292,,50,that's
screen,html.Screen,2_1_0_1_51,2021-04-30T13:26:24.711Z,,,,,,,,,,,,,,,,,53,,,,,,,,,,,,,,240.37799999433628,,response,,,,99,,,,,,,Space,keypress(Space),,,,,,,,---- -- ----- -- ------ - ------- --- ----------<br>------------- ------ ------ ---- ---- ------- ----- -- ----<br>-------- ------- -- ---------- --- - --- ----- ----- ----<br>---- --- --- ----- --- ---- ---- ------- ----- ---- -------<br>--- --- -- ----- -- --- ---- -- --- ---- -- ------ really<br>--- ----- -- ----,125095.73500021361,125091.66999999434,124834.626,124841.78500017151,124851.292,125101.282,,51,really
screen,html.Screen,2_1_0_1_52,2021-04-30T13:26:24.985Z,,,,,,,,,,,,,,,,,53,,,,,,,,,,,,,,264.29300017806236,,response,,,,99,,,,,,,Space,keypress(Space),,,,,,,,---- -- ----- -- ------ - ------- --- ----------<br>------------- ------ ------ ---- ---- ------- ----- -- ----<br>-------- ------- -- ---------- --- - --- ----- ----- ----<br>---- --- --- ----- --- ---- ---- ------- ----- ---- -------<br>--- --- -- ----- -- --- ---- -- --- ---- -- ------ ------<br>not ----- -- ----,125369.51000010595,125365.57500017807,125084.616,125095.82500020042,125101.282,125384.604,,52,not
screen,html.Screen,2_1_0_1_53,2021-04-30T13:26:25.184Z,,,,,,,,,,,,,,,,,53,,,,,,,,,,,,,,180.5510001930379,,response,,,,99,,,,,,,Space,keypress(Space),,,,,,,,---- -- ----- -- ------ - ------- --- ----------<br>------------- ------ ------ ---- ---- ------- ----- -- ----<br>-------- ------- -- ---------- --- - --- ----- ----- ----<br>---- --- --- ----- --- ---- ---- ------- ----- ---- -------<br>--- --- -- ----- -- --- ---- -- --- ---- -- ------ ------<br>--- close -- ----,125569.22499998473,125565.15500019304,125367.938,125369.60000009276,125384.604,125584.596,,53,close
screen,html.Screen,2_1_0_1_54,2021-04-30T13:26:25.536Z,,,,,,,,,,,,,,,,,53,,,,,,,,,,,,,,332.9140000575135,,response,,,,99,,,,,,,Space,keypress(Space),,,,,,,,---- -- ----- -- ------ - ------- --- ----------<br>------------- ------ ------ ---- ---- ------- ----- -- ----<br>-------- ------- -- ---------- --- - --- ----- ----- ----<br>---- --- --- ----- --- ---- ---- ------- ----- ---- -------<br>--- --- -- ----- -- --- ---- -- --- ---- -- ------ ------<br>--- ----- at ----,125921.04500019923,125917.51000005752,125567.93,125569.3100001663,125584.596,125934.582,,54,at
screen,html.Screen,2_1_0_1_55,2021-04-30T13:26:25.865Z,,,,,,,,,,,,,,,,,53,,,,,,,,,,,,,,310.9430001512519,,response,,,,99,,,,,,,Space,keypress(Space),,,,,,,,---- -- ----- -- ------ - ------- --- ----------<br>------------- ------ ------ ---- ---- ------- ----- -- ----<br>-------- ------- -- ---------- --- - --- ----- ----- ----<br>---- --- --- ----- --- ---- ---- ------- ----- ---- -------<br>--- --- -- ----- -- --- ---- -- --- ---- -- ------ ------<br>--- ----- -- all.,126249.5699999854,126245.52500015125,125917.916,125921.1250001099,125934.582,126251.236,,55,all.
Item 99,flow.Loop,2_1_0_1,2021-04-30T13:26:25.865Z,,,,,,,,,,,,,,,,,,,,,,,,,,,,,,,16310.764000151248,,completion,,,,,F,,,,,,,,,,,silence,,,,,126249.75000019185,126245.52500015125,109918.095,109919.53000007197,109934.761,126251.236,,,
Question 1,html.Screen,2_1_0_2,2021-04-30T13:26:31.636Z,,,,,,,,,,,,,,,,,,,,,,,,,,,,true,FALSE,,5766.93900009201,,response,,,,99,F,,,,,,FALSE,click #choice-2,,,,silence,,,,,132020.58500004932,132018.17500009201,126234.57,126249.8449999839,126251.236,132037.458,,,
Question 2,html.Screen,2_1_0_3,2021-04-30T13:26:35.401Z,,,,,,,,,,,,,,,,,,,,,,,,,,,,true,TRUE,,3745.872000005649,,response,,,,99,F,,,,,,TRUE,click #choice-1,,,,silence,,,,,135785.58999998495,135783.33000000566,132020.792,132020.78000013717,132037.458,135803.974,,,
Item 99,flow.Sequence,2_1_0,2021-04-30T13:26:35.401Z,,,,,,,,,,,,,,,,,,,,,,,,,,,,,,,35844.514000005656,,completion,,,,,,,,,,,,,,,,,,,,,135785.76500015333,135783.33000000566,99922.15,99929.41500013694,99938.816,135803.974,,,
Holding screen,html.Screen,2_1_1_0,2021-04-30T13:26:45.413Z,,,,,,,,,,,,,,,,,,,,,,,,,,,,,,,10007.294000000024,,timeout,,,,,,,,,,,,,,,,,,,,,145797.35000012442,145794.602,135787.308,135785.8750000596,135803.974,145811.268,,,
screen,html.Screen,2_1_1_1_0,2021-04-30T13:26:46.016Z,,,,,,,,,,,,,,,,,54,,,,,,,,,,,,,,583.9119999922405,,response,,,,100,,,,,,,Space,keypress(Space),,,,,,,,At --- ---- --- ------ ----- ------- ---- -- --- ------- --<br>------- ---------- ------ -- ----- -- ----- -- ---- ------<br>--- ----- --- --- ------ -------- ----- --- ------ ----- --<br>----- ----- ---------- --- --- ------ ------ ---- -- ------<br>------- --- ------ ----- --- ---- ------- -- ---- --- --<br>------- ------,146401.015000185,146395.17999999225,145794.602,145797.49500006437,145811.268,146411.244,,0,At
screen,html.Screen,2_1_1_1_1,2021-04-30T13:26:46.296Z,,,,,,,,,,,,,,,,,54,,,,,,,,,,,,,,265.87100008589914,,response,,,,100,,,,,,,Space,keypress(Space),,,,,,,,-- the ---- --- ------ ----- ------- ---- -- --- ------- --<br>------- ---------- ------ -- ----- -- ----- -- ---- ------<br>--- ----- --- --- ------ -------- ----- --- ------ ----- --<br>----- ----- ---------- --- --- ------ ------ ---- -- ------<br>------- --- ------ ----- --- ---- ------- -- ---- --- --<br>------- ------,146681.10000016168,146677.1150000859,146394.578,146401.09500009567,146411.244,146694.566,,1,the
screen,html.Screen,2_1_1_1_2,2021-04-30T13:26:46.516Z,,,,,,,,,,,,,,,,,54,,,,,,,,,,,,,,202.49400010483805,,response,,,,100,,,,,,,Space,keypress(Space),,,,,,,,-- --- time --- ------ ----- ------- ---- -- --- ------- --<br>------- ---------- ------ -- ----- -- ----- -- ---- ------<br>--- ----- --- --- ------ -------- ----- --- ------ ----- --<br>----- ----- ---------- --- --- ------ ------ ---- -- ------<br>------- --- ------ ----- --- ---- ------- -- ---- --- --<br>------- ------,146901.20500000194,146897.06000010483,146677.9,146681.1900001485,146694.566,146911.224,,2,time
screen,html.Screen,2_1_1_1_3,2021-04-30T13:26:46.723Z,,,,,,,,,,,,,,,,,54,,,,,,,,,,,,,,192.7260001352406,,response,,,,100,,,,,,,Space,keypress(Space),,,,,,,,-- --- ---- the ------ ----- ------- ---- -- --- ------- --<br>------- ---------- ------ -- ----- -- ----- -- ---- ------<br>--- ----- --- --- ------ -------- ----- --- ------ ----- --<br>----- ----- ---------- --- --- ------ ------ ---- -- ------<br>------- --- ------ ----- --- ---- ------- -- ---- --- --<br>------- ------,147107.97500004992,147103.95000013523,146894.558,146901.3050000649,146911.224,147111.216,,3,the
screen,html.Screen,2_1_1_1_4,2021-04-30T13:26:46.998Z,,,,,,,,,,,,,,,,,54,,,,,,,,,,,,,,267.84899998645415,,response,,,,100,,,,,,,Space,keypress(Space),,,,,,,,-- --- ---- --- French ----- ------- ---- -- --- ------- --<br>------- ---------- ------ -- ----- -- ----- -- ---- ------<br>--- ----- --- --- ------ -------- ----- --- ------ ----- --<br>----- ----- ---------- --- --- ------ ------ ---- -- ------<br>------- --- ------ ----- --- ---- ------- -- ---- --- --<br>------- ------,147383.06500017643,147379.06499998644,147094.55,147108.06500003673,147111.216,147394.538,,4,French
screen,html.Screen,2_1_1_1_5,2021-04-30T13:26:47.307Z,,,,,,,,,,,,,,,,,54,,,,,,,,,,,,,,293.417000204965,,response,,,,100,,,,,,,Space,keypress(Space),,,,,,,,-- --- ---- --- ------ crown ------- ---- -- --- ------- --<br>------- ---------- ------ -- ----- -- ----- -- ---- ------<br>--- ----- --- --- ------ -------- ----- --- ------ ----- --<br>----- ----- ---------- --- --- ------ ------ ---- -- ------<br>------- --- ------ ----- --- ---- ------- -- ---- --- --<br>------- ------,147692.23000016063,147687.95500020497,147377.872,147383.18000012077,147394.538,147694.526,,5,crown
screen,html.Screen,2_1_1_1_6,2021-04-30T13:26:47.615Z,,,,,,,,,,,,,,,,,54,,,,,,,,,,,,,,301.5190001526498,,response,,,,100,,,,,,,Space,keypress(Space),,,,,,,,-- --- ---- --- ------ ----- secured ---- -- --- ------- --<br>------- ---------- ------ -- ----- -- ----- -- ---- ------<br>--- ----- --- --- ------ -------- ----- --- ------ ----- --<br>----- ----- ---------- --- --- ------ ------ ---- -- ------<br>------- --- ------ ----- --- ---- ------- -- ---- --- --<br>------- ------,148000.28000003658,147996.04500015266,147677.86,147692.32500018552,147694.526,148011.18,,6,secured
screen,html.Screen,2_1_1_1_7,2021-04-30T13:26:47.980Z,,,,,,,,,,,,,,,,,54,,,,,,,,,,,,,,349.8700001814286,,response,,,,100,,,,,,,Space,keypress(Space),,,,,,,,-- --- ---- --- ------ ----- ------- much -- --- ------- --<br>------- ---------- ------ -- ----- -- ----- -- ---- ------<br>--- ----- --- --- ------ -------- ----- --- ------ ----- --<br>----- ----- ---------- --- --- ------ ------ ---- -- ------<br>------- --- ------ ----- --- ---- ------- -- ---- --- --<br>------- ------,148365.11500016786,148361.05000018142,147994.514,148000.36499998532,148011.18,148377.832,,7,much
screen,html.Screen,2_1_1_1_8,2021-04-30T13:26:48.507Z,,,,,,,,,,,,,,,,,54,,,,,,,,,,,,,,510.20800010714447,,response,,,,100,,,,,,,Space,keypress(Space),,,,,,,,-- --- ---- --- ------ ----- ------- ---- of --- ------- --<br>------- ---------- ------ -- ----- -- ----- -- ---- ------<br>--- ----- --- --- ------ -------- ----- --- ------ ----- --<br>----- ----- ---------- --- --- ------ ------ ---- -- ------<br>------- --- ------ ----- --- ---- ------- -- ---- --- --<br>------- ------,148892.29000010528,148888.04000010714,148361.166,148365.20500015467,148377.832,148894.478,,8,of
screen,html.Screen,2_1_1_1_9,2021-04-30T13:26:48.808Z,,,,,,,,,,,,,,,,,54,,,,,,,,,,,,,,294.5870000423165,,response,,,,100,,,,,,,Space,keypress(Space),,,,,,,,-- --- ---- --- ------ ----- ------- ---- -- its ------- --<br>------- ---------- ------ -- ----- -- ----- -- ---- ------<br>--- ----- --- --- ------ -------- ----- --- ------ ----- --<br>----- ----- ---------- --- --- ------ ------ ---- -- ------<br>------- --- ------ ----- --- ---- ------- -- ---- --- --<br>------- ------,149193.0500001181,149189.06500004232,148877.812,148892.37500005402,148894.478,149194.466,,9,its
screen,html.Screen,2_1_1_1_10,2021-04-30T13:26:49.130Z,,,,,,,,,,,,,,,,,54,,,,,,,,,,,,,,316.4189999960654,,response,,,,100,,,,,,,Space,keypress(Space),,,,,,,,-- --- ---- --- ------ ----- ------- ---- -- --- revenue --<br>------- ---------- ------ -- ----- -- ----- -- ---- ------<br>--- ----- --- --- ------ -------- ----- --- ------ ----- --<br>----- ----- ---------- --- --- ------ ------ ---- -- ------<br>------- --- ------ ----- --- ---- ------- -- ---- --- --<br>------- ------,149514.97000013478,149510.88499999605,149177.8,149193.1400001049,149194.466,149527.786,,10,revenue
screen,html.Screen,2_1_1_1_11,2021-04-30T13:26:49.502Z,,,,,,,,,,,,,,,,,54,,,,,,,,,,,,,,355.1140000841988,,response,,,,100,,,,,,,Space,keypress(Space),,,,,,,,-- --- ---- --- ------ ----- ------- ---- -- --- ------- by<br>------- ---------- ------ -- ----- -- ----- -- ---- ------<br>--- ----- --- --- ------ -------- ----- --- ------ ----- --<br>----- ----- ---------- --- --- ------ ------ ---- -- ------<br>------- --- ------ ----- --- ---- ------- -- ---- --- --<br>------- ------,149886.7550001014,149882.9000000842,149511.12,149515.0600001216,149527.786,149894.438,,11,by
screen,html.Screen,2_1_1_1_12,2021-04-30T13:26:49.896Z,,,,,,,,,,,,,,,,,54,,,,,,,,,,,,,,381.54200015132665,,response,,,,100,,,,,,,Space,keypress(Space),,,,,,,,-- --- ---- --- ------ ----- ------- ---- -- --- ------- --<br>issuing ---------- ------ -- ----- -- ----- -- ---- ------<br>--- ----- --- --- ------ -------- ----- --- ------ ----- --<br>----- ----- ---------- --- --- ------ ------ ---- -- ------<br>------- --- ------ ----- --- ---- ------- -- ---- --- --<br>------- ------,150280.48499999568,150275.98000015132,149877.772,149886.84000005014,149894.438,150294.422,,12,issuing
screen,html.Screen,2_1_1_1_13,2021-04-30T13:26:50.220Z,,,,,,,,,,,,,,,,,54,,,,,,,,,,,,,,306.5680001809087,,response,,,,100,,,,,,,Space,keypress(Space),,,,,,,,-- --- ---- --- ------ ----- ------- ---- -- --- ------- --<br>------- government ------ -- ----- -- ----- -- ---- ------<br>--- ----- --- --- ------ -------- ----- --- ------ ----- --<br>----- ----- ---------- --- --- ------ ------ ---- -- ------<br>------- --- ------ ----- --- ---- ------- -- ---- --- --<br>------- ------,150605.11500015855,150600.9900001809,150277.756,150280.5749999825,150294.422,150611.076,,13,government
screen,html.Screen,2_1_1_1_14,2021-04-30T13:26:50.523Z,,,,,,,,,,,,,,,,,54,,,,,,,,,,,,,,292.97400001192,,response,,,,100,,,,,,,Space,keypress(Space),,,,,,,,-- --- ---- --- ------ ----- ------- ---- -- --- ------- --<br>------- ---------- bonds. -- ----- -- ----- -- ---- ------<br>--- ----- --- --- ------ -------- ----- --- ------ ----- --<br>----- ----- ---------- --- --- ------ ------ ---- -- ------<br>------- --- ------ ----- --- ---- ------- -- ---- --- --<br>------- ------,150908.26000017114,150904.05000001192,150594.41,150605.20500014536,150611.076,150911.064,,14,bonds.
screen,html.Screen,2_1_1_1_15,2021-04-30T13:26:50.896Z,,,,,,,,,,,,,,,,,54,,,,,,,,,,,,,,365.8910001248587,,response,,,,100,,,,,,,Space,keypress(Space),,,,,,,,-- --- ---- --- ------ ----- ------- ---- -- --- ------- --<br>------- ---------- ------ In ----- -- ----- -- ---- ------<br>--- ----- --- --- ------ -------- ----- --- ------ ----- --<br>----- ----- ---------- --- --- ------ ------ ---- -- ------<br>------- --- ------ ----- --- ---- ------- -- ---- --- --<br>------- ------,151280.95500008203,151276.95500012487,150894.398,150908.34500011988,150911.064,151294.382,,15,In
screen,html.Screen,2_1_1_1_16,2021-04-30T13:26:51.335Z,,,,,,,,,,,,,,,,,54,,,,,,,,,,,,,,421.58300021404284,,response,,,,100,,,,,,,Space,keypress(Space),,,,,,,,"-- --- ---- --- ------ ----- ------- ---- -- --- ------- --<br>------- ---------- ------ -- 1727, -- ----- -- ---- ------<br>--- ----- --- --- ------ -------- ----- --- ------ ----- --<br>----- ----- ---------- --- --- ------ ------ ---- -- ------<br>------- --- ------ ----- --- ---- ------- -- ---- --- --<br>------- ------",151720.06500000134,151715.96500021406,151277.716,151281.04500006884,151294.382,151736.173,,16,"1727,"
screen,html.Screen,2_1_1_1_17,2021-04-30T13:26:51.835Z,,,,,,,,,,,,,,,,,54,,,,,,,,,,,,,,479.7570001803688,,response,,,,100,,,,,,,Space,keypress(Space),,,,,,,,-- --- ---- --- ------ ----- ------- ---- -- --- ------- --<br>------- ---------- ------ -- ----- in ----- -- ---- ------<br>--- ----- --- --- ------ -------- ----- --- ------ ----- --<br>----- ----- ---------- --- --- ------ ------ ---- -- ------<br>------- --- ------ ----- --- ---- ------- -- ---- --- --<br>------- ------,152220.1050000731,152215.93000018038,151719.507,151720.15499998815,151736.173,152236.153,,17,in
screen,html.Screen,2_1_1_1_18,2021-04-30T13:26:52.344Z,,,,,,,,,,,,,,,,,54,,,,,,,,,,,,,,488.85700016928604,,response,,,,100,,,,,,,Space,keypress(Space),,,,,,,,-- --- ---- --- ------ ----- ------- ---- -- --- ------- --<br>------- ---------- ------ -- ----- -- order -- ---- ------<br>--- ----- --- --- ------ -------- ----- --- ------ ----- --<br>----- ----- ---------- --- --- ------ ------ ---- -- ------<br>------- --- ------ ----- --- ---- ------- -- ---- --- --<br>------- ------,152729.06500007957,152725.01000016928,152219.487,152220.1950000599,152236.153,152736.133,,18,order
screen,html.Screen,2_1_1_1_19,2021-04-30T13:26:52.598Z,,,,,,,,,,,,,,,,,54,,,,,,,,,,,,,,242.79699998293654,,response,,,,100,,,,,,,Space,keypress(Space),,,,,,,,-- --- ---- --- ------ ----- ------- ---- -- --- ------- --<br>------- ---------- ------ -- ----- -- ----- to ---- ------<br>--- ----- --- --- ------ -------- ----- --- ------ ----- --<br>----- ----- ---------- --- --- ------ ------ ---- -- ------<br>------- --- ------ ----- --- ---- ------- -- ---- --- --<br>------- ------,152982.9500000924,152978.92999998294,152719.467,152729.1500000283,152736.133,152986.123,,19,to
screen,html.Screen,2_1_1_1_20,2021-04-30T13:26:52.897Z,,,,,,,,,,,,,,,,,54,,,,,,,,,,,,,,291.7970000222849,,response,,,,100,,,,,,,Space,keypress(Space),,,,,,,,-- --- ---- --- ------ ----- ------- ---- -- --- ------- --<br>------- ---------- ------ -- ----- -- ----- -- save ------<br>--- ----- --- --- ------ -------- ----- --- ------ ----- --<br>----- ----- ---------- --- --- ------ ------ ---- -- ------<br>------- --- ------ ----- --- ---- ------- -- ---- --- --<br>------- ------,153282.09500014782,153277.92000002228,152969.457,152983.0400000792,152986.123,153286.111,,20,save
screen,html.Screen,2_1_1_1_21,2021-04-30T13:26:53.229Z,,,,,,,,,,,,,,,,,54,,,,,,,,,,,,,,322.8039999897883,,response,,,,100,,,,,,,Space,keypress(Space),,,,,,,,"-- --- ---- --- ------ ----- ------- ---- -- --- ------- --<br>------- ---------- ------ -- ----- -- ----- -- ---- money,<br>--- ----- --- --- ------ -------- ----- --- ------ ----- --<br>----- ----- ---------- --- --- ------ ------ ---- -- ------<br>------- --- ------ ----- --- ---- ------- -- ---- --- --<br>------- ------",153613.32000000402,153608.9149999898,153269.445,153282.18500013463,153286.111,153619.431,,21,"money,"
screen,html.Screen,2_1_1_1_22,2021-04-30T13:26:53.647Z,,,,,,,,,,,,,,,,,54,,,,,,,,,,,,,,407.53400020100526,,response,,,,100,,,,,,,Space,keypress(Space),,,,,,,,-- --- ---- --- ------ ----- ------- ---- -- --- ------- --<br>------- ---------- ------ -- ----- -- ----- -- ---- ------<br>the ----- --- --- ------ -------- ----- --- ------ ----- --<br>----- ----- ---------- --- --- ------ ------ ---- -- ------<br>------- --- ------ ----- --- ---- ------- -- ---- --- --<br>------- ------,154031.55000018887,154026.96500020102,153602.765,153613.6300000362,153619.431,154036.081,,22,the
screen,html.Screen,2_1_1_1_23,2021-04-30T13:26:53.955Z,,,,,,,,,,,,,,,,,54,,,,,,,,,,,,,,300.72900000796653,,response,,,,100,,,,,,,Space,keypress(Space),,,,,,,,-- --- ---- --- ------ ----- ------- ---- -- --- ------- --<br>------- ---------- ------ -- ----- -- ----- -- ---- ------<br>--- state --- --- ------ -------- ----- --- ------ ----- --<br>----- ----- ---------- --- --- ------ ------ ---- -- ------<br>------- --- ------ ----- --- ---- ------- -- ---- --- --<br>------- ------,154340.26000020094,154336.81000000797,154019.415,154031.64000017568,154036.081,154352.735,,23,state
screen,html.Screen,2_1_1_1_24,2021-04-30T13:26:54.339Z,,,,,,,,,,,,,,,,,54,,,,,,,,,,,,,,367.20000017562415,,response,,,,100,,,,,,,Space,keypress(Space),,,,,,,,-- --- ---- --- ------ ----- ------- ---- -- --- ------- --<br>------- ---------- ------ -- ----- -- ----- -- ---- ------<br>--- ----- cut --- ------ -------- ----- --- ------ ----- --<br>----- ----- ---------- --- --- ------ ------ ---- -- ------<br>------- --- ------ ----- --- ---- ------- -- ---- --- --<br>------- ------,154723.93500013277,154719.9350001756,154336.069,154340.354999993,154352.735,154736.053,,24,cut
screen,html.Screen,2_1_1_1_25,2021-04-30T13:26:54.670Z,,,,,,,,,,,,,,,,,54,,,,,,,,,,,,,,314.74700008454965,,response,,,,100,,,,,,,Space,keypress(Space),,,,,,,,-- --- ---- --- ------ ----- ------- ---- -- --- ------- --<br>------- ---------- ------ -- ----- -- ----- -- ---- ------<br>--- ----- --- the ------ -------- ----- --- ------ ----- --<br>----- ----- ---------- --- --- ------ ------ ---- -- ------<br>------- --- ------ ----- --- ---- ------- -- ---- --- --<br>------- ------,155054.74000005051,155050.80000008456,154719.387,154724.0200000815,154736.053,155069.373,,25,the
screen,html.Screen,2_1_1_1_26,2021-04-30T13:26:54.985Z,,,,,,,,,,,,,,,,,54,,,,,,,,,,,,,,296.50200013411813,,response,,,,100,,,,,,,Space,keypress(Space),,,,,,,,-- --- ---- --- ------ ----- ------- ---- -- --- ------- --<br>------- ---------- ------ -- ----- -- ----- -- ---- ------<br>--- ----- --- --- bonds' -------- ----- --- ------ ----- --<br>----- ----- ---------- --- --- ------ ------ ---- -- ------<br>------- --- ------ ----- --- ---- ------- -- ---- --- --<br>------- ------,155369.9950000737,155365.8750001341,155052.707,155054.83000003733,155069.373,155386.027,,26,bonds'
screen,html.Screen,2_1_1_1_27,2021-04-30T13:26:55.336Z,,,,,,,,,,,,,,,,,54,,,,,,,,,,,,,,330.92300003091805,,response,,,,100,,,,,,,Space,keypress(Space),,,,,,,,-- --- ---- --- ------ ----- ------- ---- -- --- ------- --<br>------- ---------- ------ -- ----- -- ----- -- ---- ------<br>--- ----- --- --- ------ interest ----- --- ------ ----- --<br>----- ----- ---------- --- --- ------ ------ ---- -- ------<br>------- --- ------ ----- --- ---- ------- -- ---- --- --<br>------- ------,155720.88500019163,155716.95000003092,155369.361,155370.0850000605,155386.027,155736.013,,27,interest
screen,html.Screen,2_1_1_1_28,2021-04-30T13:26:55.661Z,,,,,,,,,,,,,,,,,54,,,,,,,,,,,,,,305.8270000780758,,response,,,,100,,,,,,,Space,keypress(Space),,,,,,,,-- --- ---- --- ------ ----- ------- ---- -- --- ------- --<br>------- ---------- ------ -- ----- -- ----- -- ---- ------<br>--- ----- --- --- ------ -------- rate. --- ------ ----- --<br>----- ----- ---------- --- --- ------ ------ ---- -- ------<br>------- --- ------ ----- --- ---- ------- -- ---- --- --<br>------- ------,156045.90500006452,156041.84000007808,155719.347,155720.97000014037,155736.013,156052.667,,28,rate.
screen,html.Screen,2_1_1_1_29,2021-04-30T13:26:55.979Z,,,,,,,,,,,,,,,,,54,,,,,,,,,,,,,,307.2180001581146,,response,,,,100,,,,,,,Space,keypress(Space),,,,,,,,-- --- ---- --- ------ ----- ------- ---- -- --- ------- --<br>------- ---------- ------ -- ----- -- ----- -- ---- ------<br>--- ----- --- --- ------ -------- ----- The ------ ----- --<br>----- ----- ---------- --- --- ------ ------ ---- -- ------<br>------- --- ------ ----- --- ---- ------- -- ---- --- --<br>------- ------,156364.10000012256,156359.8850001581,156036.001,156045.99000001326,156052.667,156369.321,,29,The
screen,html.Screen,2_1_1_1_30,2021-04-30T13:26:56.333Z,,,,,,,,,,,,,,,,,54,,,,,,,,,,,,,,343.4940002099611,,response,,,,100,,,,,,,Space,keypress(Space),,,,,,,,-- --- ---- --- ------ ----- ------- ---- -- --- ------- --<br>------- ---------- ------ -- ----- -- ----- -- ---- ------<br>--- ----- --- --- ------ -------- ----- --- market ----- --<br>----- ----- ---------- --- --- ------ ------ ---- -- ------<br>------- --- ------ ----- --- ---- ------- -- ---- --- --<br>------- ------,156717.3250000924,156712.81500020996,156352.655,156364.1850000713,156369.321,156719.307,,30,market
screen,html.Screen,2_1_1_1_31,2021-04-30T13:26:56.646Z,,,,,,,,,,,,,,,,,54,,,,,,,,,,,,,,307.60800005312194,,response,,,,100,,,,,,,Space,keypress(Space),,,,,,,,-- --- ---- --- ------ ----- ------- ---- -- --- ------- --<br>------- ---------- ------ -- ----- -- ----- -- ---- ------<br>--- ----- --- --- ------ -------- ----- --- ------ value --<br>----- ----- ---------- --- --- ------ ------ ---- -- ------<br>------- --- ------ ----- --- ---- ------- -- ---- --- --<br>------- ------,157031.14000009373,157026.91500005312,156702.641,156717.4150000792,156719.307,157035.961,,31,value
screen,html.Screen,2_1_1_1_32,2021-04-30T13:26:56.964Z,,,,,,,,,,,,,,,,,54,,,,,,,,,,,,,,307.9190000585513,,response,,,,100,,,,,,,Space,keypress(Space),,,,,,,,-- --- ---- --- ------ ----- ------- ---- -- --- ------- --<br>------- ---------- ------ -- ----- -- ----- -- ---- ------<br>--- ----- --- --- ------ -------- ----- --- ------ ----- of<br>----- ----- ---------- --- --- ------ ------ ---- -- ------<br>------- --- ------ ----- --- ---- ------- -- ---- --- --<br>------- ------,157348.53500011377,157343.88000005856,157019.295,157031.24500019476,157035.961,157352.615,,32,of
screen,html.Screen,2_1_1_1_33,2021-04-30T13:26:57.280Z,,,,,,,,,,,,,,,,,54,,,,,,,,,,,,,,308.1950000303332,,response,,,,100,,,,,,,Space,keypress(Space),,,,,,,,-- --- ---- --- ------ ----- ------- ---- -- --- ------- --<br>------- ---------- ------ -- ----- -- ----- -- ---- ------<br>--- ----- --- --- ------ -------- ----- --- ------ ----- --<br>these ----- ---------- --- --- ------ ------ ---- -- ------<br>------- --- ------ ----- --- ---- ------- -- ---- --- --<br>------- ------,157664.99499999918,157660.81000003032,157335.949,157348.63999998197,157352.615,157669.269,,33,these
screen,html.Screen,2_1_1_1_34,2021-04-30T13:26:57.562Z,,,,,,,,,,,,,,,,,54,,,,,,,,,,,,,,273.57100014886237,,response,,,,100,,,,,,,Space,keypress(Space),,,,,,,,-- --- ---- --- ------ ----- ------- ---- -- --- ------- --<br>------- ---------- ------ -- ----- -- ----- -- ---- ------<br>--- ----- --- --- ------ -------- ----- --- ------ ----- --<br>----- bonds ---------- --- --- ------ ------ ---- -- ------<br>------- --- ------ ----- --- ---- ------- -- ---- --- --<br>------- ------,157946.94500020705,157942.84000014886,157652.603,157665.084999986,157669.269,157952.591,,34,bonds
screen,html.Screen,2_1_1_1_35,2021-04-30T13:26:57.845Z,,,,,,,,,,,,,,,,,54,,,,,,,,,,,,,,273.27900019849767,,response,,,,100,,,,,,,Space,keypress(Space),,,,,,,,"-- --- ---- --- ------ ----- ------- ---- -- --- ------- --<br>------- ---------- ------ -- ----- -- ----- -- ---- ------<br>--- ----- --- --- ------ -------- ----- --- ------ ----- --<br>----- ----- plummeted, --- --- ------ ------ ---- -- ------<br>------- --- ------ ----- --- ---- ------- -- ---- --- --<br>------- ------",158230.1050000824,158225.87000019848,157935.925,157947.685000021,157952.591,158235.913,,35,"plummeted,"
screen,html.Screen,2_1_1_1_36,2021-04-30T13:26:58.166Z,,,,,,,,,,,,,,,,,54,,,,,,,,,,,,,,310.8970002035494,,response,,,,100,,,,,,,Space,keypress(Space),,,,,,,,-- --- ---- --- ------ ----- ------- ---- -- --- ------- --<br>------- ---------- ------ -- ----- -- ----- -- ---- ------<br>--- ----- --- --- ------ -------- ----- --- ------ ----- --<br>----- ----- ---------- and --- ------ ------ ---- -- ------<br>------- --- ------ ----- --- ---- ------- -- ---- --- --<br>------- ------,158550.80500012264,158546.81000020355,158219.247,158230.2000001073,158235.913,158552.567,,36,and
screen,html.Screen,2_1_1_1_37,2021-04-30T13:26:58.459Z,,,,,,,,,,,,,,,,,54,,,,,,,,,,,,,,287.23300019072485,,response,,,,100,,,,,,,Space,keypress(Space),,,,,,,,-- --- ---- --- ------ ----- ------- ---- -- --- ------- --<br>------- ---------- ------ -- ----- -- ----- -- ---- ------<br>--- ----- --- --- ------ -------- ----- --- ------ ----- --<br>----- ----- ---------- --- the ------ ------ ---- -- ------<br>------- --- ------ ----- --- ---- ------- -- ---- --- --<br>------- ------,158843.62000017427,158839.80000019073,158535.901,158550.89500010945,158552.567,158852.555,,37,the
screen,html.Screen,2_1_1_1_38,2021-04-30T13:26:58.756Z,,,,,,,,,,,,,,,,,54,,,,,,,,,,,,,,284.2000001014094,,response,,,,100,,,,,,,Space,keypress(Space),,,,,,,,-- --- ---- --- ------ ----- ------- ---- -- --- ------- --<br>------- ---------- ------ -- ----- -- ----- -- ---- ------<br>--- ----- --- --- ------ -------- ----- --- ------ ----- --<br>----- ----- ---------- --- --- market ------ ---- -- ------<br>------- --- ------ ----- --- ---- ------- -- ---- --- --<br>------- ------,159140.72000002488,159136.7550001014,158835.889,158843.71000016108,158852.555,159152.543,,38,market
screen,html.Screen,2_1_1_1_39,2021-04-30T13:26:59.066Z,,,,,,,,,,,,,,,,,54,,,,,,,,,,,,,,294.20700011920417,,response,,,,100,,,,,,,Space,keypress(Space),,,,,,,,-- --- ---- --- ------ ----- ------- ---- -- --- ------- --<br>------- ---------- ------ -- ----- -- ----- -- ---- ------<br>--- ----- --- --- ------ -------- ----- --- ------ ----- --<br>----- ----- ---------- --- --- ------ became ---- -- ------<br>------- --- ------ ----- --- ---- ------- -- ---- --- --<br>------- ------,159450.96500008367,159446.7500001192,159135.877,159140.8100000117,159152.543,159452.531,,39,became
screen,html.Screen,2_1_1_1_40,2021-04-30T13:26:59.375Z,,,,,,,,,,,,,,,,,54,,,,,,,,,,,,,,303.20900016787346,,response,,,,100,,,,,,,Space,keypress(Space),,,,,,,,-- --- ---- --- ------ ----- ------- ---- -- --- ------- --<br>------- ---------- ------ -- ----- -- ----- -- ---- ------<br>--- ----- --- --- ------ -------- ----- --- ------ ----- --<br>----- ----- ---------- --- --- ------ ------ wary -- ------<br>------- --- ------ ----- --- ---- ------- -- ---- --- --<br>------- ------,159759.785000002,159755.74000016786,159435.865,159451.0700001847,159452.531,159769.185,,40,wary
screen,html.Screen,2_1_1_1_41,2021-04-30T13:26:59.693Z,,,,,,,,,,,,,,,,,54,,,,,,,,,,,,,,304.4900001087808,,response,,,,100,,,,,,,Space,keypress(Space),,,,,,,,-- --- ---- --- ------ ----- ------- ---- -- --- ------- --<br>------- ---------- ------ -- ----- -- ----- -- ---- ------<br>--- ----- --- --- ------ -------- ----- --- ------ ----- --<br>----- ----- ---------- --- --- ------ ------ ---- of ------<br>------- --- ------ ----- --- ---- ------- -- ---- --- --<br>------- ------,160078.02500016987,160073.67500010878,159752.519,159759.87499998882,159769.185,160085.839,,41,of
screen,html.Screen,2_1_1_1_42,2021-04-30T13:26:59.981Z,,,,,,,,,,,,,,,,,54,,,,,,,,,,,,,,275.90100008031004,,response,,,,100,,,,,,,Space,keypress(Space),,,,,,,,-- --- ---- --- ------ ----- ------- ---- -- --- ------- --<br>------- ---------- ------ -- ----- -- ----- -- ---- ------<br>--- ----- --- --- ------ -------- ----- --- ------ ----- --<br>----- ----- ---------- --- --- ------ ------ ---- -- French<br>------- --- ------ ----- --- ---- ------- -- ---- --- --<br>------- ------,160365.73000019416,160361.74000008032,160069.173,160078.13500007614,160085.839,160369.161,,42,French
screen,html.Screen,2_1_1_1_43,2021-04-30T13:27:00.378Z,,,,,,,,,,,,,,,,,54,,,,,,,,,,,,,,389.55900004165596,,response,,,,100,,,,,,,Space,keypress(Space),,,,,,,,-- --- ---- --- ------ ----- ------- ---- -- --- ------- --<br>------- ---------- ------ -- ----- -- ----- -- ---- ------<br>--- ----- --- --- ------ -------- ----- --- ------ ----- --<br>----- ----- ---------- --- --- ------ ------ ---- -- ------<br>credit. --- ------ ----- --- ---- ------- -- ---- --- --<br>------- ------,160762.79500010423,160758.72000004165,160352.495,160365.82000018097,160369.161,160769.145,,43,credit.
screen,html.Screen,2_1_1_1_44,2021-04-30T13:27:00.680Z,,,,,,,,,,,,,,,,,54,,,,,,,,,,,,,,291.62000006021117,,response,,,,100,,,,,,,Space,keypress(Space),,,,,,,,-- --- ---- --- ------ ----- ------- ---- -- --- ------- --<br>------- ---------- ------ -- ----- -- ----- -- ---- ------<br>--- ----- --- --- ------ -------- ----- --- ------ ----- --<br>----- ----- ---------- --- --- ------ ------ ---- -- ------<br>------- The ------ ----- --- ---- ------- -- ---- --- --<br>------- ------,161064.92500007153,161060.7650000602,160752.479,160762.89000012912,160769.145,161069.133,,44,The
screen,html.Screen,2_1_1_1_45,2021-04-30T13:27:00.983Z,,,,,,,,,,,,,,,,,54,,,,,,,,,,,,,,294.5819999849482,,response,,,,100,,,,,,,Space,keypress(Space),,,,,,,,-- --- ---- --- ------ ----- ------- ---- -- --- ------- --<br>------- ---------- ------ -- ----- -- ----- -- ---- ------<br>--- ----- --- --- ------ -------- ----- --- ------ ----- --<br>----- ----- ---------- --- --- ------ ------ ---- -- ------<br>------- --- French ----- --- ---- ------- -- ---- --- --<br>------- ------,161367.75500001386,161363.71499998495,161052.467,161065.01500005834,161069.133,161369.121,,45,French
screen,html.Screen,2_1_1_1_46,2021-04-30T13:27:01.272Z,,,,,,,,,,,,,,,,,54,,,,,,,,,,,,,,283.63400016285595,,response,,,,100,,,,,,,Space,keypress(Space),,,,,,,,-- --- ---- --- ------ ----- ------- ---- -- --- ------- --<br>------- ---------- ------ -- ----- -- ----- -- ---- ------<br>--- ----- --- --- ------ -------- ----- --- ------ ----- --<br>----- ----- ---------- --- --- ------ ------ ---- -- ------<br>------- --- ------ state --- ---- ------- -- ---- --- --<br>------- ------,161656.8650000263,161652.75500016287,161352.455,161367.84500000067,161369.121,161657.802,,46,state
screen,html.Screen,2_1_1_1_47,2021-04-30T13:27:01.586Z,,,,,,,,,,,,,,,,,54,,,,,,,,,,,,,,308.8880001466314,,response,,,,100,,,,,,,Space,keypress(Space),,,,,,,,-- --- ---- --- ------ ----- ------- ---- -- --- ------- --<br>------- ---------- ------ -- ----- -- ----- -- ---- ------<br>--- ----- --- --- ------ -------- ----- --- ------ ----- --<br>----- ----- ---------- --- --- ------ ------ ---- -- ------<br>------- --- ------ ----- was ---- ------- -- ---- --- --<br>------- ------,161970.79500020482,161966.69000014663,161641.136,161656.9550000131,161657.802,161974.456,,47,was
screen,html.Screen,2_1_1_1_48,2021-04-30T13:27:02.205Z,,,,,,,,,,,,,,,,,54,,,,,,,,,,,,,,611.4990000168327,,response,,,,100,,,,,,,Space,keypress(Space),,,,,,,,-- --- ---- --- ------ ----- ------- ---- -- --- ------- --<br>------- ---------- ------ -- ----- -- ----- -- ---- ------<br>--- ----- --- --- ------ -------- ----- --- ------ ----- --<br>----- ----- ---------- --- --- ------ ------ ---- -- ------<br>------- --- ------ ----- --- left ------- -- ---- --- --<br>------- ------,162589.8949999828,162585.95500001684,161957.79,161970.88500019163,161974.456,162591.098,,48,left
screen,html.Screen,2_1_1_1_49,2021-04-30T13:27:02.488Z,,,,,,,,,,,,,,,,,54,,,,,,,,,,,,,,277.59200014849193,,response,,,,100,,,,,,,Space,keypress(Space),,,,,,,,-- --- ---- --- ------ ----- ------- ---- -- --- ------- --<br>------- ---------- ------ -- ----- -- ----- -- ---- ------<br>--- ----- --- --- ------ -------- ----- --- ------ ----- --<br>----- ----- ---------- --- --- ------ ------ ---- -- ------<br>------- --- ------ ----- --- ---- without -- ---- --- --<br>------- ------,162873.0050001759,162868.6900001485,162574.432,162589.98500020243,162591.098,162874.42,,49,without
screen,html.Screen,2_1_1_1_50,2021-04-30T13:27:02.778Z,,,,,,,,,,,,,,,,,54,,,,,,,,,,,,,,284.240000190126,,response,,,,100,,,,,,,Space,keypress(Space),,,,,,,,-- --- ---- --- ------ ----- ------- ---- -- --- ------- --<br>------- ---------- ------ -- ----- -- ----- -- ---- ------<br>--- ----- --- --- ------ -------- ----- --- ------ ----- --<br>----- ----- ---------- --- --- ------ ------ ---- -- ------<br>------- --- ------ ----- --- ---- ------- an ---- --- --<br>------- ------,163162.74000005797,163158.66000019014,162857.754,162873.09000012465,162874.42,163174.408,,50,an
screen,html.Screen,2_1_1_1_51,2021-04-30T13:27:03.101Z,,,,,,,,,,,,,,,,,54,,,,,,,,,,,,,,307.252000048582,,response,,,,100,,,,,,,Space,keypress(Space),,,,,,,,-- --- ---- --- ------ ----- ------- ---- -- --- ------- --<br>------- ---------- ------ -- ----- -- ----- -- ---- ------<br>--- ----- --- --- ------ -------- ----- --- ------ ----- --<br>----- ----- ---------- --- --- ------ ------ ---- -- ------<br>------- --- ------ ----- --- ---- ------- -- easy --- --<br>------- ------,163485.78500002623,163481.66000004858,163157.742,163162.83000004478,163174.408,163491.062,,51,easy
screen,html.Screen,2_1_1_1_52,2021-04-30T13:27:03.413Z,,,,,,,,,,,,,,,,,54,,,,,,,,,,,,,,302.5930001613742,,response,,,,100,,,,,,,Space,keypress(Space),,,,,,,,-- --- ---- --- ------ ----- ------- ---- -- --- ------- --<br>------- ---------- ------ -- ----- -- ----- -- ---- ------<br>--- ----- --- --- ------ -------- ----- --- ------ ----- --<br>----- ----- ---------- --- --- ------ ------ ---- -- ------<br>------- --- ------ ----- --- ---- ------- -- ---- way --<br>------- ------,163797.9200000409,163793.65500016138,163474.396,163485.87500001304,163491.062,163807.716,,52,way
screen,html.Screen,2_1_1_1_53,2021-04-30T13:27:03.742Z,,,,,,,,,,,,,,,,,54,,,,,,,,,,,,,,314.9540001862042,,response,,,,100,,,,,,,Space,keypress(Space),,,,,,,,-- --- ---- --- ------ ----- ------- ---- -- --- ------- --<br>------- ---------- ------ -- ----- -- ----- -- ---- ------<br>--- ----- --- --- ------ -------- ----- --- ------ ----- --<br>----- ----- ---------- --- --- ------ ------ ---- -- ------<br>------- --- ------ ----- --- ---- ------- -- ---- --- of<br>------- ------,164126.67999998666,164122.6700001862,163791.05,163798.01000002772,163807.716,164141.036,,53,of
screen,html.Screen,2_1_1_1_54,2021-04-30T13:27:04.055Z,,,,,,,,,,,,,,,,,54,,,,,,,,,,,,,,295.38900019633,,response,,,,100,,,,,,,Space,keypress(Space),,,,,,,,-- --- ---- --- ------ ----- ------- ---- -- --- ------- --<br>------- ---------- ------ -- ----- -- ----- -- ---- ------<br>--- ----- --- --- ------ -------- ----- --- ------ ----- --<br>----- ----- ---------- --- --- ------ ------ ---- -- ------<br>------- --- ------ ----- --- ---- ------- -- ---- --- --<br>raising ------,164439.63000015356,164436.42500019632,164124.37,164126.7700002063,164141.036,164441.024,,54,raising
screen,html.Screen,2_1_1_1_55,2021-04-30T13:27:04.490Z,,,,,,,,,,,,,,,,,54,,,,,,,,,,,,,,429.6460000911902,,response,,,,100,,,,,,,Space,keypress(Space),,,,,,,,-- --- ---- --- ------ ----- ------- ---- -- --- ------- --<br>------- ---------- ------ -- ----- -- ----- -- ---- ------<br>--- ----- --- --- ------ -------- ----- --- ------ ----- --<br>----- ----- ---------- --- --- ------ ------ ---- -- ------<br>------- --- ------ ----- --- ---- ------- -- ---- --- --<br>------- money.,164874.7849999927,164870.6700000912,164424.358,164439.71000006422,164441.024,164891.006,,55,money.
Item 100,flow.Loop,2_1_1_1,2021-04-30T13:27:04.490Z,,,,,,,,,,,,,,,,,,,,,,,,,,,,,,,19059.402000091184,,completion,,,,,F,,,,,,,,,,,silence,,,,,164874.95000008494,164870.6700000912,145794.602,145797.45499999262,145811.268,164891.006,,,
Question 1,html.Screen,2_1_1_2,2021-04-30T13:27:06.874Z,,,,,,,,,,,,,,,,,,,,,,,,,,,,true,TRUE,,2365.6940000272007,,response,,,,100,F,,,,,,TRUE,click #choice-1,,,,silence,,,,,167259.04500018805,167256.7000000272,164874.34,164875.0200001523,164891.006,167274.244,,,
Question 2,html.Screen,2_1_1_3,2021-04-30T13:27:10.991Z,,,,,,,,,,,,,,,,,,,,,,,,,,,,true,FALSE,,4099.326000054309,,response,,,,100,F,,,,,,FALSE,click #choice-2,,,,silence,,,,,171375.81000011414,171373.57000005431,167257.578,167259.15500009432,167274.244,171390.746,,,
Item 100,flow.Sequence,2_1_1,2021-04-30T13:27:10.991Z,,,,,,,,,,,,,,,,,,,,,,,,,,,,,,,35569.59600005433,,completion,,,,,,,,,,,,,,,,,,,,,171375.97500020638,171373.57000005431,135787.308,135785.845000064,135803.974,171390.746,,,
End of Practice,html.Page,2_1_2,2021-04-30T13:27:15.941Z,,,,,,,,,,,,,,,,,,,,,,,,,,,,,,,4935.294000189082,,form submission,,,,,,,,,,,,,,,,,,,,,176326.24500012025,176326.0400001891,171374.08,171376.05000007898,171390.746,176341.871,,,
Practice,flow.Sequence,2_1,2021-04-30T13:27:15.942Z,,,,,,,,,,,,,,,,,,,,,,,,,,,,,,,76387.22400018909,,completion,,,,,,,,,,,,,,,,,,,,,176326.4100002125,176326.0400001891,99922.15,99929.38500014134,99938.816,176341.871,,,
Trap_instruction,html.Page,2_2_0,2021-04-30T13:27:19.094Z,,,,,,,,,,,,,,,,,,,,,,,,,,,,,,,3136.9440000385803,,form submission,,,,,,,,,,,,,,,,,,,,,179479.00500008836,179478.8150000386,176325.205,176326.51000004262,176341.871,179491.745,,,
trap_trial,html.Screen,2_2_1,2021-04-30T13:27:22.133Z,,,,,,,,,,,,,,,,,,,,,,,,,,,,true,1,,3023.605000001495,,response,,,,,,,,,,,1,click #choice-1,,,,,,,,,182517.66500016674,182515.3500000015,179475.079,179479.1100001894,179491.745,182524.957,,,
end of trap trial,html.Page,2_2_2,2021-04-30T13:27:23.513Z,,,,,,,,,,,,,,,,,,,,,,,,,,,,,,,1372.4430001326255,,form submission,,,,,,,,,,,,,,,,,,,,,183897.58500014432,183897.40000013262,182508.291,182517.77500007302,182524.957,183901.676,,,
Trap 1,flow.Sequence,2_2,2021-04-30T13:27:23.513Z,,,,,,,,,,,,,,,,,,,,,,,,,,,,,,,7555.529000132607,,completion,,,,,,,,,,,,,,,,,,,,,183897.7400001604,183897.40000013262,176325.205,176326.4850000851,176341.871,183901.676,,,
Standby,html.Page,2_3_0,2021-04-30T13:27:31.502Z,,,,,,,,,,,,,,,,,,,,,,,,,,,,,,,7999.679999999993,,timeout,,,,,,,,,,,,,,,,,,,,,191887.11500004865,191884.69,183885.01,183897.83999999054,183901.676,191901.356,,,
Holding screen,html.Screen,2_3_1_0_0,2021-04-30T13:27:38.503Z,,,,,,,,,,,,,,,,,,,,,,,,,,,,,,,7001.496000000014,,timeout,,,,,,,,,,,,,,,,,,,,,198887.53000018187,198886.186,191884.69,191887.32000021264,191901.356,198902.852,,,
screen,html.Screen,2_3_1_0_1_0,2021-04-30T13:27:39.417Z,,,,,,,,,,,,,,,,,15,,,,,,,,,,,,,,893.5230001508608,,response,,,,7,F,,,,,,Space,keypress(Space),,,,instrumental,,,,Greg --------- ---------- - --- ------- -- --- ------------<br>----- -- -------- ------- ---- ------ - -------- ---- -----<br>--- ------- ---- -- --- -------- --- - ----- ------ ---- --<br>-------- --- -------- -------- --- -------- ---- -- ----- -<br>-------- ---- --- ---------- --------- -- ------- ------ -<br>--------- ----- -----,199801.42999999225,199796.37500015087,198886.186,198887.73500011303,198902.852,199802.816,,0,Greg
screen,html.Screen,2_3_1_0_1_1,2021-04-30T13:27:39.776Z,,,,,,,,,,,,,,,,,15,,,,,,,,,,,,,,353.51900018157903,,response,,,,7,F,,,,,,Space,keypress(Space),,,,instrumental,,,,"---- Anderson, ---------- - --- ------- -- --- ------------<br>----- -- -------- ------- ---- ------ - -------- ---- -----<br>--- ------- ---- -- --- -------- --- - ----- ------ ---- --<br>-------- --- -------- -------- --- -------- ---- -- ----- -<br>-------- ---- --- ---------- --------- -- ------- ------ -<br>--------- ----- -----",200160.58999998495,200156.33500018157,199786.15,199801.53500009328,199802.816,200169.468,,1,"Anderson,"
screen,html.Screen,2_3_1_0_1_2,2021-04-30T13:27:40.276Z,,,,,,,,,,,,,,,,,15,,,,,,,,,,,,,,487.7070000584936,,response,,,,7,F,,,,,,Space,keypress(Space),,,,instrumental,,,,---- --------- considered - --- ------- -- --- ------------<br>----- -- -------- ------- ---- ------ - -------- ---- -----<br>--- ------- ---- -- --- -------- --- - ----- ------ ---- --<br>-------- --- -------- -------- --- -------- ---- -- ----- -<br>-------- ---- --- ---------- --------- -- ------- ------ -<br>--------- ----- -----,200661.12500010058,200657.1750000585,200152.802,200160.68500000983,200169.468,200669.448,,2,considered
screen,html.Screen,2_3_1_0_1_3,2021-04-30T13:27:40.589Z,,,,,,,,,,,,,,,,,15,,,,,,,,,,,,,,299.87700018737814,,response,,,,7,F,,,,,,Space,keypress(Space),,,,instrumental,,,,---- --------- ---------- a --- ------- -- --- ------------<br>----- -- -------- ------- ---- ------ - -------- ---- -----<br>--- ------- ---- -- --- -------- --- - ----- ------ ---- --<br>-------- --- -------- -------- --- -------- ---- -- ----- -<br>-------- ---- --- ---------- --------- -- ------- ------ -<br>--------- ----- -----,200973.55500003323,200969.32500018738,200652.782,200661.2150000874,200669.448,200986.102,,3,a
screen,html.Screen,2_3_1_0_1_4,2021-04-30T13:27:40.896Z,,,,,,,,,,,,,,,,,15,,,,,,,,,,,,,,291.05800005601486,,response,,,,7,F,,,,,,Space,keypress(Space),,,,instrumental,,,,---- --------- ---------- - key ------- -- --- ------------<br>----- -- -------- ------- ---- ------ - -------- ---- -----<br>--- ------- ---- -- --- -------- --- - ----- ------ ---- --<br>-------- --- -------- -------- --- -------- ---- -- ----- -<br>-------- ---- --- ---------- --------- -- ------- ------ -<br>--------- ----- -----,201281.15000016987,201277.16000005603,200969.436,200973.6500000581,200986.102,201286.09,,4,key
screen,html.Screen,2_3_1_0_1_5,2021-04-30T13:27:41.230Z,,,,,,,,,,,,,,,,,15,,,,,,,,,,,,,,324.2300002107804,,response,,,,7,F,,,,,,Space,keypress(Space),,,,instrumental,,,,---- --------- ---------- - --- witness -- --- ------------<br>----- -- -------- ------- ---- ------ - -------- ---- -----<br>--- ------- ---- -- --- -------- --- - ----- ------ ---- --<br>-------- --- -------- -------- --- -------- ---- -- ----- -<br>-------- ---- --- ---------- --------- -- ------- ------ -<br>--------- ----- -----,201614.50999998488,201610.32000021078,201269.424,201281.24500019476,201286.09,201619.41,,5,witness
screen,html.Screen,2_3_1_0_1_6,2021-04-30T13:27:41.619Z,,,,,,,,,,,,,,,,,15,,,,,,,,,,,,,,379.8950000630284,,response,,,,7,F,,,,,,Space,keypress(Space),,,,instrumental,,,,---- --------- ---------- - --- ------- by --- ------------<br>----- -- -------- ------- ---- ------ - -------- ---- -----<br>--- ------- ---- -- --- -------- --- - ----- ------ ---- --<br>-------- --- -------- -------- --- -------- ---- -- ----- -<br>-------- ---- --- ---------- --------- -- ------- ------ -<br>--------- ----- -----,202003.98500007577,201999.30500006303,201602.744,201614.60000020452,201619.41,202019.394,,6,by
screen,html.Screen,2_3_1_0_1_7,2021-04-30T13:27:41.962Z,,,,,,,,,,,,,,,,,15,,,,,,,,,,,,,,323.04600003673113,,response,,,,7,F,,,,,,Space,keypress(Space),,,,instrumental,,,,---- --------- ---------- - --- ------- -- the ------------<br>----- -- -------- ------- ---- ------ - -------- ---- -----<br>--- ------- ---- -- --- -------- --- - ----- ------ ---- --<br>-------- --- -------- -------- --- -------- ---- -- ----- -<br>-------- ---- --- ---------- --------- -- ------- ------ -<br>--------- ----- -----,202346.48000006564,202342.44000003673,202002.728,202004.0700000245,202019.394,202352.714,,7,the
screen,html.Screen,2_3_1_0_1_8,2021-04-30T13:27:42.391Z,,,,,,,,,,,,,,,,,15,,,,,,,,,,,,,,419.51100019706064,,response,,,,7,F,,,,,,Space,keypress(Space),,,,instrumental,,,,"---- --------- ---------- - --- ------- -- --- prosecution,<br>----- -- -------- ------- ---- ------ - -------- ---- -----<br>--- ------- ---- -- --- -------- --- - ----- ------ ---- --<br>-------- --- -------- -------- --- -------- ---- -- ----- -<br>-------- ---- --- ---------- --------- -- ------- ------ -<br>--------- ----- -----",202776.19000012055,202772.22500019707,202336.048,202346.56500001438,202352.714,202786.03,,8,"prosecution,"
screen,html.Screen,2_3_1_0_1_9,2021-04-30T13:27:42.760Z,,,,,,,,,,,,,,,,,15,,,,,,,,,,,,,,355.12000003948924,,response,,,,7,F,,,,,,Space,keypress(Space),,,,instrumental,,,,---- --------- ---------- - --- ------- -- --- ------------<br>vowed -- -------- ------- ---- ------ - -------- ---- -----<br>--- ------- ---- -- --- -------- --- - ----- ------ ---- --<br>-------- --- -------- -------- --- -------- ---- -- ----- -<br>-------- ---- --- ---------- --------- -- ------- ------ -<br>--------- ----- -----,203145.28500009328,203141.1500000395,202769.364,202776.2750000693,202786.03,203152.682,,9,vowed
screen,html.Screen,2_3_1_0_1_10,2021-04-30T13:27:43.076Z,,,,,,,,,,,,,,,,,15,,,,,,,,,,,,,,303.5130000934296,,response,,,,7,F,,,,,,Space,keypress(Space),,,,instrumental,,,,---- --------- ---------- - --- ------- -- --- ------------<br>----- he -------- ------- ---- ------ - -------- ---- -----<br>--- ------- ---- -- --- -------- --- - ----- ------ ---- --<br>-------- --- -------- -------- --- -------- ---- -- ----- -<br>-------- ---- --- ---------- --------- -- ------- ------ -<br>--------- ----- -----,203460.670000175,203456.19500009343,203136.016,203145.38000011817,203152.682,203469.336,,10,he
screen,html.Screen,2_3_1_0_1_11,2021-04-30T13:27:43.441Z,,,,,,,,,,,,,,,,,15,,,,,,,,,,,,,,352.9290000825422,,response,,,,7,F,,,,,,Space,keypress(Space),,,,instrumental,,,,---- --------- ---------- - --- ------- -- --- ------------<br>----- -- wouldn't ------- ---- ------ - -------- ---- -----<br>--- ------- ---- -- --- -------- --- - ----- ------ ---- --<br>-------- --- -------- -------- --- -------- ---- -- ----- -<br>-------- ---- --- ---------- --------- -- ------- ------ -<br>--------- ----- -----,203826.26000000164,203822.26500008255,203452.67,203460.76000016183,203469.336,203830.43,,11,wouldn't
screen,html.Screen,2_3_1_0_1_12,2021-04-30T13:27:43.746Z,,,,,,,,,,,,,,,,,15,,,,,,,,,,,,,,295.8250000101398,,response,,,,7,F,,,,,,Space,keypress(Space),,,,instrumental,,,,---- --------- ---------- - --- ------- -- --- ------------<br>----- -- -------- testify ---- ------ - -------- ---- -----<br>--- ------- ---- -- --- -------- --- - ----- ------ ---- --<br>-------- --- -------- -------- --- -------- ---- -- ----- -<br>-------- ---- --- ---------- --------- -- ------- ------ -<br>--------- ----- -----,204130.6100001093,204126.25500001013,203813.764,203826.34999998845,203830.43,204147.084,,12,testify
screen,html.Screen,2_3_1_0_1_13,2021-04-30T13:27:44.061Z,,,,,,,,,,,,,,,,,15,,,,,,,,,,,,,,294.15100003479165,,response,,,,7,F,,,,,,Space,keypress(Space),,,,instrumental,,,,---- --------- ---------- - --- ------- -- --- ------------<br>----- -- -------- ------- when ------ - -------- ---- -----<br>--- ------- ---- -- --- -------- --- - ----- ------ ---- --<br>-------- --- -------- -------- --- -------- ---- -- ----- -<br>-------- ---- --- ---------- --------- -- ------- ------ -<br>--------- ----- -----,204445.56500017643,204441.2350000348,204130.418,204130.69500005804,204147.084,204447.072,,13,when
screen,html.Screen,2_3_1_0_1_14,2021-04-30T13:27:44.355Z,,,,,,,,,,,,,,,,,15,,,,,,,,,,,,,,289.00800017704023,,response,,,,7,F,,,,,,Space,keypress(Space),,,,instrumental,,,,---- --------- ---------- - --- ------- -- --- ------------<br>----- -- -------- ------- ---- served - -------- ---- -----<br>--- ------- ---- -- --- -------- --- - ----- ------ ---- --<br>-------- --- -------- -------- --- -------- ---- -- ----- -<br>-------- ---- --- ---------- --------- -- ------- ------ -<br>--------- ----- -----,204740.08500017226,204736.08000017703,204430.406,204445.65500016324,204447.072,204747.06,,14,served
screen,html.Screen,2_3_1_0_1_15,2021-04-30T13:27:44.637Z,,,,,,,,,,,,,,,,,15,,,,,,,,,,,,,,270.1849999954575,,response,,,,7,F,,,,,,Space,keypress(Space),,,,instrumental,,,,---- --------- ---------- - --- ------- -- --- ------------<br>----- -- -------- ------- ---- ------ a -------- ---- -----<br>--- ------- ---- -- --- -------- --- - ----- ------ ---- --<br>-------- --- -------- -------- --- -------- ---- -- ----- -<br>-------- ---- --- ---------- --------- -- ------- ------ -<br>--------- ----- -----,205021.55000017956,205017.24499999546,204730.394,204740.170000121,204747.06,205030.382,,15,a
screen,html.Screen,2_3_1_0_1_16,2021-04-30T13:27:44.942Z,,,,,,,,,,,,,,,,,15,,,,,,,,,,,,,,291.87300000639516,,response,,,,7,F,,,,,,Space,keypress(Space),,,,instrumental,,,,---- --------- ---------- - --- ------- -- --- ------------<br>----- -- -------- ------- ---- ------ - subpoena ---- -----<br>--- ------- ---- -- --- -------- --- - ----- ------ ---- --<br>-------- --- -------- -------- --- -------- ---- -- ----- -<br>-------- ---- --- ---------- --------- -- ------- ------ -<br>--------- ----- -----,205326.42500009388,205322.2550000064,205013.716,205021.64000016637,205030.382,205330.37,,16,subpoena
screen,html.Screen,2_3_1_0_1_17,2021-04-30T13:27:45.517Z,,,,,,,,,,,,,,,,,15,,,,,,,,,,,,,,566.7800000916468,,response,,,,7,F,,,,,,Space,keypress(Space),,,,instrumental,,,,---- --------- ---------- - --- ------- -- --- ------------<br>----- -- -------- ------- ---- ------ - -------- last -----<br>--- ------- ---- -- --- -------- --- - ----- ------ ---- --<br>-------- --- -------- -------- --- -------- ---- -- ----- -<br>-------- ---- --- ---------- --------- -- ------- ------ -<br>--------- ----- -----,205901.56999998726,205897.15000009164,205313.704,205326.51000004262,205330.37,205913.68,,17,last
screen,html.Screen,2_3_1_0_1_18,2021-04-30T13:27:45.828Z,,,,,,,,,,,,,,,,,15,,,,,,,,,,,,,,295.455000128306,,response,,,,7,F,,,,,,Space,keypress(Space),,,,instrumental,,,,---- --------- ---------- - --- ------- -- --- ------------<br>----- -- -------- ------- ---- ------ - -------- ---- week.<br>--- ------- ---- -- --- -------- --- - ----- ------ ---- --<br>-------- --- -------- -------- --- -------- ---- -- ----- -<br>-------- ---- --- ---------- --------- -- ------- ------ -<br>--------- ----- -----,206213.1300000474,206209.1350001283,205897.014,205901.72500000335,205913.68,206230.334,,18,week.
screen,html.Screen,2_3_1_0_1_19,2021-04-30T13:27:46.253Z,,,,,,,,,,,,,,,,,15,,,,,,,,,,,,,,403.756000065041,,response,,,,7,F,,,,,,Space,keypress(Space),,,,instrumental,,,,---- --------- ---------- - --- ------- -- --- ------------<br>----- -- -------- ------- ---- ------ - -------- ---- -----<br>His ------- ---- -- --- -------- --- - ----- ------ ---- --<br>-------- --- -------- -------- --- -------- ---- -- ----- -<br>-------- ---- --- ---------- --------- -- ------- ------ -<br>--------- ----- -----,206637.70000007935,206634.09000006504,206213.668,206213.2200000342,206230.334,206646.984,,19,His
screen,html.Screen,2_3_1_0_1_20,2021-04-30T13:27:46.607Z,,,,,,,,,,,,,,,,,15,,,,,,,,,,,,,,340.381000182766,,response,,,,7,F,,,,,,Space,keypress(Space),,,,instrumental,,,,---- --------- ---------- - --- ------- -- --- ------------<br>----- -- -------- ------- ---- ------ - -------- ---- -----<br>--- lawyers ---- -- --- -------- --- - ----- ------ ---- --<br>-------- --- -------- -------- --- -------- ---- -- ----- -<br>-------- ---- --- ---------- --------- -- ------- ------ -<br>--------- ----- -----,206991.51000007987,206987.36500018276,206630.318,206637.79500010423,206646.984,206996.97,,20,lawyers
screen,html.Screen,2_3_1_0_1_21,2021-04-30T13:27:46.926Z,,,,,,,,,,,,,,,,,15,,,,,,,,,,,,,,309.19999999619904,,response,,,,7,F,,,,,,Space,keypress(Space),,,,instrumental,,,,---- --------- ---------- - --- ------- -- --- ------------<br>----- -- -------- ------- ---- ------ - -------- ---- -----<br>--- ------- said -- --- -------- --- - ----- ------ ---- --<br>-------- --- -------- -------- --- -------- ---- -- ----- -<br>-------- ---- --- ---------- --------- -- ------- ------ -<br>--------- ----- -----,207310.4250000324,207306.1699999962,206980.304,206992.08500003442,206996.97,207313.624,,21,said
screen,html.Screen,2_3_1_0_1_22,2021-04-30T13:27:47.224Z,,,,,,,,,,,,,,,,,15,,,,,,,,,,,,,,291.52600019221427,,response,,,,7,F,,,,,,Space,keypress(Space),,,,instrumental,,,,---- --------- ---------- - --- ------- -- --- ------------<br>----- -- -------- ------- ---- ------ - -------- ---- -----<br>--- ------- ---- he --- -------- --- - ----- ------ ---- --<br>-------- --- -------- -------- --- -------- ---- -- ----- -<br>-------- ---- --- ---------- --------- -- ------- ------ -<br>--------- ----- -----,207609.31000020355,207605.15000019222,207296.958,207310.51500001922,207313.624,207613.612,,22,he
screen,html.Screen,2_3_1_0_1_23,2021-04-30T13:27:47.544Z,,,,,,,,,,,,,,,,,15,,,,,,,,,,,,,,311.4880001095298,,response,,,,7,F,,,,,,Space,keypress(Space),,,,instrumental,,,,---- --------- ---------- - --- ------- -- --- ------------<br>----- -- -------- ------- ---- ------ - -------- ---- -----<br>--- ------- ---- -- was -------- --- - ----- ------ ---- --<br>-------- --- -------- -------- --- -------- ---- -- ----- -<br>-------- ---- --- ---------- --------- -- ------- ------ -<br>--------- ----- -----,207929.35000010766,207925.10000010952,207596.946,207609.3950001523,207613.612,207930.266,,23,was
screen,html.Screen,2_3_1_0_1_24,2021-04-30T13:27:47.848Z,,,,,,,,,,,,,,,,,15,,,,,,,,,,,,,,297.8840000972268,,response,,,,7,F,,,,,,Space,keypress(Space),,,,instrumental,,,,---- --------- ---------- - --- ------- -- --- ------------<br>----- -- -------- ------- ---- ------ - -------- ---- -----<br>--- ------- ---- -- --- prepared --- - ----- ------ ---- --<br>-------- --- -------- -------- --- -------- ---- -- ----- -<br>-------- ---- --- ---------- --------- -- ------- ------ -<br>--------- ----- -----,208233.17000013776,208228.15000009723,207913.6,207929.44000009447,207930.266,208246.92,,24,prepared
screen,html.Screen,2_3_1_0_1_25,2021-04-30T13:27:48.237Z,,,,,,,,,,,,,,,,,15,,,,,,,,,,,,,,371.19999999916763,,response,,,,7,F,,,,,,Space,keypress(Space),,,,instrumental,,,,---- --------- ---------- - --- ------- -- --- ------------<br>----- -- -------- ------- ---- ------ - -------- ---- -----<br>--- ------- ---- -- --- -------- for - ----- ------ ---- --<br>-------- --- -------- -------- --- -------- ---- -- ----- -<br>-------- ---- --- ---------- --------- -- ------- ------ -<br>--------- ----- -----,208622.10500007495,208618.11999999918,208230.254,208233.26000012457,208246.92,208630.238,,25,for
screen,html.Screen,2_3_1_0_1_26,2021-04-30T13:27:48.533Z,,,,,,,,,,,,,,,,,15,,,,,,,,,,,,,,283.75200003001373,,response,,,,7,F,,,,,,Space,keypress(Space),,,,instrumental,,,,---- --------- ---------- - --- ------- -- --- ------------<br>----- -- -------- ------- ---- ------ - -------- ---- -----<br>--- ------- ---- -- --- -------- --- a ----- ------ ---- --<br>-------- --- -------- -------- --- -------- ---- -- ----- -<br>-------- ---- --- ---------- --------- -- ------- ------ -<br>--------- ----- -----,208918.23000018485,208913.99000003003,208613.572,208622.19500006177,208630.238,208930.226,,26,a
screen,html.Screen,2_3_1_0_1_27,2021-04-30T13:27:48.857Z,,,,,,,,,,,,,,,,,15,,,,,,,,,,,,,,307.9340001826931,,response,,,,7,F,,,,,,Space,keypress(Space),,,,instrumental,,,,---- --------- ---------- - --- ------- -- --- ------------<br>----- -- -------- ------- ---- ------ - -------- ---- -----<br>--- ------- ---- -- --- -------- --- - third ------ ---- --<br>-------- --- -------- -------- --- -------- ---- -- ----- -<br>-------- ---- --- ---------- --------- -- ------- ------ -<br>--------- ----- -----,209242.0750001911,209238.1600001827,208913.56,208918.33000001498,208930.226,209246.88,,27,third
screen,html.Screen,2_3_1_0_1_28,2021-04-30T13:27:49.250Z,,,,,,,,,,,,,,,,,15,,,,,,,,,,,,,,384.25000011071097,,response,,,,7,F,,,,,,Space,keypress(Space),,,,instrumental,,,,---- --------- ---------- - --- ------- -- --- ------------<br>----- -- -------- ------- ---- ------ - -------- ---- -----<br>--- ------- ---- -- --- -------- --- - ----- prison ---- --<br>-------- --- -------- -------- --- -------- ---- -- ----- -<br>-------- ---- --- ---------- --------- -- ------- ------ -<br>--------- ----- -----,209635.27500000782,209631.13000011072,209230.214,209242.16000013985,209246.88,209646.864,,28,prison
screen,html.Screen,2_3_1_0_1_29,2021-04-30T13:27:49.676Z,,,,,,,,,,,,,,,,,15,,,,,,,,,,,,,,409.23100012360374,,response,,,,7,F,,,,,,Space,keypress(Space),,,,instrumental,,,,---- --------- ---------- - --- ------- -- --- ------------<br>----- -- -------- ------- ---- ------ - -------- ---- -----<br>--- ------- ---- -- --- -------- --- - ----- ------ stay --<br>-------- --- -------- -------- --- -------- ---- -- ----- -<br>-------- ---- --- ---------- --------- -- ------- ------ -<br>--------- ----- -----,210060.4900000617,210056.0950001236,209630.198,209635.36499999464,209646.864,210063.514,,29,stay
screen,html.Screen,2_3_1_0_1_30,2021-04-30T13:27:50.147Z,,,,,,,,,,,,,,,,,15,,,,,,,,,,,,,,464.5810001906648,,response,,,,7,F,,,,,,Space,keypress(Space),,,,instrumental,,,,---- --------- ---------- - --- ------- -- --- ------------<br>----- -- -------- ------- ---- ------ - -------- ---- -----<br>--- ------- ---- -- --- -------- --- - ----- ------ ---- to<br>-------- --- -------- -------- --- -------- ---- -- ----- -<br>-------- ---- --- ---------- --------- -- ------- ------ -<br>--------- ----- -----,210532.33500011265,210528.09500019066,210046.848,210060.5800000485,210063.514,210546.828,,30,to
screen,html.Screen,2_3_1_0_1_31,2021-04-30T13:27:50.622Z,,,,,,,,,,,,,,,,,15,,,,,,,,,,,,,,450.20200020234915,,response,,,,7,F,,,,,,Space,keypress(Space),,,,instrumental,,,,---- --------- ---------- - --- ------- -- --- ------------<br>----- -- -------- ------- ---- ------ - -------- ---- -----<br>--- ------- ---- -- --- -------- --- - ----- ------ ---- --<br>maintain --- -------- -------- --- -------- ---- -- ----- -<br>-------- ---- --- ---------- --------- -- ------- ------ -<br>--------- ----- -----,211007.06000020728,210997.03000020236,210530.162,210532.42500009947,210546.828,211013.476,,31,maintain
screen,html.Screen,2_3_1_0_1_32,2021-04-30T13:27:50.882Z,,,,,,,,,,,,,,,,,15,,,,,,,,,,,,,,248.60400001498056,,response,,,,7,F,,,,,,Space,keypress(Space),,,,instrumental,,,,---- --------- ---------- - --- ------- -- --- ------------<br>----- -- -------- ------- ---- ------ - -------- ---- -----<br>--- ------- ---- -- --- -------- --- - ----- ------ ---- --<br>-------- his -------- -------- --- -------- ---- -- ----- -<br>-------- ---- --- ---------- --------- -- ------- ------ -<br>--------- ----- -----,211266.43000007607,211262.08000001498,210996.81,211007.15499999933,211013.476,211280.132,,32,his
screen,html.Screen,2_3_1_0_1_33,2021-04-30T13:27:51.189Z,,,,,,,,,,,,,,,,,15,,,,,,,,,,,,,,289.9230000183161,,response,,,,7,F,,,,,,Space,keypress(Space),,,,instrumental,,,,---- --------- ---------- - --- ------- -- --- ------------<br>----- -- -------- ------- ---- ------ - -------- ---- -----<br>--- ------- ---- -- --- -------- --- - ----- ------ ---- --<br>-------- --- silence. -------- --- -------- ---- -- ----- -<br>-------- ---- --- ---------- --------- -- ------- ------ -<br>--------- ----- -----,211574.33000020683,211570.05500001833,211263.466,211266.52000006288,211280.132,211580.12,,33,silence.
screen,html.Screen,2_3_1_0_1_34,2021-04-30T13:27:51.588Z,,,,,,,,,,,,,,,,,15,,,,,,,,,,,,,,388.9000001932727,,response,,,,7,F,,,,,,Space,keypress(Space),,,,instrumental,,,,---- --------- ---------- - --- ------- -- --- ------------<br>----- -- -------- ------- ---- ------ - -------- ---- -----<br>--- ------- ---- -- --- -------- --- - ----- ------ ---- --<br>-------- --- -------- Anderson --- -------- ---- -- ----- -<br>-------- ---- --- ---------- --------- -- ------- ------ -<br>--------- ----- -----,211972.77500014752,211969.02000019327,211563.454,211574.41500015557,211580.12,211980.104,,34,Anderson
screen,html.Screen,2_3_1_0_1_35,2021-04-30T13:27:51.876Z,,,,,,,,,,,,,,,,,15,,,,,,,,,,,,,,276.9610000125249,,response,,,,7,F,,,,,,Space,keypress(Space),,,,instrumental,,,,---- --------- ---------- - --- ------- -- --- ------------<br>----- -- -------- ------- ---- ------ - -------- ---- -----<br>--- ------- ---- -- --- -------- --- - ----- ------ ---- --<br>-------- --- -------- -------- was -------- ---- -- ----- -<br>-------- ---- --- ---------- --------- -- ------- ------ -<br>--------- ----- -----,212261.15999999456,212257.06500001252,211963.438,211972.86500013433,211980.104,212263.426,,35,was
screen,html.Screen,2_3_1_0_1_36,2021-04-30T13:27:52.163Z,,,,,,,,,,,,,,,,,15,,,,,,,,,,,,,,280.59900018476765,,response,,,,7,F,,,,,,Space,keypress(Space),,,,instrumental,,,,---- --------- ---------- - --- ------- -- --- ------------<br>----- -- -------- ------- ---- ------ - -------- ---- -----<br>--- ------- ---- -- --- -------- --- - ----- ------ ---- --<br>-------- --- -------- -------- --- released ---- -- ----- -<br>-------- ---- --- ---------- --------- -- ------- ------ -<br>--------- ----- -----,212548.24999999255,212544.02500018477,212246.76,212261.24999998137,212263.426,212563.414,,36,released
screen,html.Screen,2_3_1_0_1_37,2021-04-30T13:27:52.429Z,,,,,,,,,,,,,,,,,15,,,,,,,,,,,,,,245.61100008233916,,response,,,,7,F,,,,,,Space,keypress(Space),,,,instrumental,,,,---- --------- ---------- - --- ------- -- --- ------------<br>----- -- -------- ------- ---- ------ - -------- ---- -----<br>--- ------- ---- -- --- -------- --- - ----- ------ ---- --<br>-------- --- -------- -------- --- -------- July -- ----- -<br>-------- ---- --- ---------- --------- -- ------- ------ -<br>--------- ----- -----,212813.45000001602,212809.02500008233,212546.748,212548.3400002122,212563.414,212830.07,,37,July
screen,html.Screen,2_3_1_0_1_38,2021-04-30T13:27:52.737Z,,,,,,,,,,,,,,,,,15,,,,,,,,,,,,,,287.8900001778384,,response,,,,7,F,,,,,,Space,keypress(Space),,,,instrumental,,,,---- --------- ---------- - --- ------- -- --- ------------<br>----- -- -------- ------- ---- ------ - -------- ---- -----<br>--- ------- ---- -- --- -------- --- - ----- ------ ---- --<br>-------- --- -------- -------- --- -------- ---- 20 ----- -<br>-------- ---- --- ---------- --------- -- ------- ------ -<br>--------- ----- -----,213122.08000011742,213117.96000017785,212813.404,212813.54000000283,212830.07,213130.058,,38,20
