sender,sender_type,sender_id,timestamp,meta,,Blues,Classical,Country,Dance,Electronic,Folk,Gospel,Hip-Hop,Jazz,Latin,Musical/Film,New-age,Pop,Prolific_id,Provo_ID,R&B,Rap,Reggae,Religious,Rock,Soul,Swing,Traditional,age,artist_name,correct,correctResponse,distraction,duration,education,ended_on,familiarity,gender,headphone_check_performance,item,list,music_frequency,offensiveness,pleasantness,position_correct,preference,response,response_action,snippet_file,song_name,song_rating,sound,stimulus_1,stimulus_2,stimulus_3,text,time_commit,time_end,time_render,time_run,time_show,time_switch,url,word,word_ID
Prolific ID,html.Form,0,2021-04-30T10:38:43.883Z,"{""labjs_version"":""20.2.2"",""labjs_build"":{""flavor"":""production"",""commit"":""a25486e0c714a0ae2ce03ff94b7bb6896854dcfa""},""location"":""https://run.pavlovia.org/mvasilev/prolific_music_c/"",""userAgent"":""Mozilla/5.0 (Macintosh; Intel Mac OS X 10_13_6) AppleWebKit/537.36 (KHTML, like Gecko) Chrome/90.0.4430.93 Safari/537.36"",""platform"":""MacIntel"",""language"":""en-GB"",""locale"":""en-GB"",""timeZone"":""Europe/London"",""timezoneOffset"":-60,""screen_width"":1440,""screen_height"":900,""scroll_width"":1306,""scroll_height"":680,""window_innerWidth"":1306,""window_innerHeight"":728,""devicePixelRatio"":1}",,,,,,,,,,,,,,,5f784d0ac0c40e3ca59f3d71,,,,,,,,,,,,,,,7367.208000387728,,form submission,,,,,,,,,,,,,,,,,,,,,13084.320000372827,13081.570000387728,5697.695,5700.815000105649,5714.362,13081.706,{},,
Introduction,html.Screen,1_0,2021-04-30T10:41:03.398Z,,,,,,,,,,,,,,,,,,,,,,,,,,,,,,,139508.91400038102,,response,,,,,,,,,,,continue,click button,,,,,,,,,152595.93000030145,152590.62000038102,13065.039,13084.885000251234,13081.706,152606.323,,,
Volume calibration,html.Screen,1_1,2021-04-30T10:41:25.161Z,,,,,,,,,,,,,,,,,,,,,,,,,,,,,,,21740.047000392195,,response,,,,,,,,,,,continue,click button,,,,,,,,,174353.36500033736,174346.3700003922,152589.656,152596.2700000964,152606.323,174359.379,,,
Task instructions,html.Screen,1_2,2021-04-30T10:41:31.115Z,,,,,,,,,,,,,,,,,,,,,,,,,,,,,,,5938.601000264956,,response,,,,,,,,,,,continue,click button,,,,,,,,,180300.48000020906,180297.98000026494,174342.712,174353.61500037834,174359.379,180310.038,,,
Sounds,html.Screen,1_3_0_0,2021-04-30T10:41:35.366Z,,,,,,,,,,,,,,,,,,,,,,,,,,,,,,,4250.084999999992,,timeout,,,,,,,,,3,,,,,,,,I,O,S,,184548.37500024587,184543.456,180293.371,180300.9200002998,180310.038,184560.123,,,
Judgement,html.Screen,1_3_0_1,2021-04-30T10:41:36.089Z,,,,,,,,,,,,,,,,,,,,,,,,,,,,true,3,,708.2570002560096,,response,,,,,,,,,3,,3,click #choice-3,,,,,I,O,S,,185271.33000036702,185268.380000256,184543.456,184548.8500003703,184560.123,185277.215,,,
Trial,flow.Sequence,1_3_0,2021-04-30T10:41:36.090Z,,,,,,,,,,,,,,,,,,,,,,,,,,,,,,,4958.3420002560015,,completion,,,,,,,,,3,,,,,,,,I,O,S,,185271.9250000082,185268.380000256,180293.371,180300.81500019878,180310.038,185277.215,,,
Sounds,html.Screen,1_3_1_0,2021-04-30T10:41:40.333Z,,,,,,,,,,,,,,,,,,,,,,,,,,,,,,,4250.084999999992,,timeout,,,,,,,,,2,,,,,,,,I,S,O,,189512.8600001335,189510.633,185260.548,185272.19500020146,185277.215,189527.3,,,
Judgement,html.Screen,1_3_1_1,2021-04-30T10:41:40.859Z,,,,,,,,,,,,,,,,,,,,,,,,,,,,true,2,,508.4699999585864,,response,,,,,,,,,2,,2,click #choice-2,,,,,I,S,O,,190038.61499996856,190035.76999995857,189510.633,189513.07500014082,189527.3,190043.977,,,
Trial,flow.Sequence,1_3_1,2021-04-30T10:41:40.859Z,,,,,,,,,,,,,,,,,,,,,,,,,,,,,,,4758.554999958578,,completion,,,,,,,,,2,,,,,,,,I,S,O,,190038.96000003442,190035.76999995857,185260.548,185272.10499998182,185277.215,190043.977,,,
Sounds,html.Screen,1_3_2_0,2021-04-30T10:41:45.102Z,,,,,,,,,,,,,,,,,,,,,,,,,,,,,,,4250.084999999992,,timeout,,,,,,,,,1,,,,,,,,S,O,I,,194279.81500001624,194277.395,190027.31,190039.195000194,190043.977,194294.062,,,
Judgement,html.Screen,1_3_2_1,2021-04-30T10:41:45.630Z,,,,,,,,,,,,,,,,,,,,,,,,,,,,true,1,,510.7030000080413,,response,,,,,,,,,1,,1,click #choice-1,,,,,S,O,I,,194807.4900000356,194804.76500000805,194277.395,194280.01000033692,194294.062,194810.739,,,
Trial,flow.Sequence,1_3_2,2021-04-30T10:41:45.630Z,,,,,,,,,,,,,,,,,,,,,,,,,,,,,,,4760.788000008033,,completion,,,,,,,,,1,,,,,,,,S,O,I,,194807.83500010148,194804.76500000805,190027.31,190039.12000032142,190043.977,194810.739,,,
Sounds,html.Screen,1_3_3_0,2021-04-30T10:41:49.870Z,,,,,,,,,,,,,,,,,,,,,,,,,,,,,,,4250.084999999992,,timeout,,,,,,,,,1,,,,,,,,S,I,O,,199046.73000006005,199044.157,194794.072,194808.06499999017,194810.739,199060.824,,,
Judgement,html.Screen,1_3_3_1,2021-04-30T10:41:50.322Z,,,,,,,,,,,,,,,,,,,,,,,,,,,,true,1,,435.12600036061485,,response,,,,,,,,,1,,1,click #choice-1,,,,,S,I,O,,199498.5450003296,199495.9500003606,199044.157,199046.92500038072,199060.824,199511.424,,,
Trial,flow.Sequence,1_3_3,2021-04-30T10:41:50.323Z,,,,,,,,,,,,,,,,,,,,,,,,,,,,,,,4685.211000360607,,completion,,,,,,,,,1,,,,,,,,S,I,O,,199498.86000016704,199495.9500003606,194794.072,194807.97500023618,194810.739,199511.424,,,
Sounds,html.Screen,1_3_4_0,2021-04-30T10:41:54.572Z,,,,,,,,,,,,,,,,,,,,,,,,,,,,,,,4250.084999999992,,timeout,,,,,,,,,3,,,,,,,,O,I,S,,203747.02500039712,203744.842,199494.757,199499.2949999869,199511.424,203761.509,,,
Judgement,html.Screen,1_3_4_1,2021-04-30T10:41:55.097Z,,,,,,,,,,,,,,,,,,,,,,,,,,,,true,3,,507.2760003130825,,response,,,,,,,,,3,,3,click #choice-3,,,,,O,I,S,,204271.59000001848,204268.78500031307,203744.842,203747.21499998122,203761.509,204278.186,,,
Trial,flow.Sequence,1_3_4,2021-04-30T10:41:55.097Z,,,,,,,,,,,,,,,,,,,,,,,,,,,,,,,4757.361000313074,,completion,,,,,,,,,3,,,,,,,,O,I,S,,204271.9150003977,204268.78500031307,199494.757,199499.005000107,199511.424,204278.186,,,
Sounds,html.Screen,1_3_5_0,2021-04-30T10:41:59.339Z,,,,,,,,,,,,,,,,,,,,,,,,,,,,,,,4250.085000000021,,timeout,,,,,,,,,2,,,,,,,,O,S,I,,208513.5400001891,208511.604,204261.519,204272.12000032887,204278.186,208528.271,,,
Judgement,html.Screen,1_3_5_1,2021-04-30T10:41:59.834Z,,,,,,,,,,,,,,,,,,,,,,,,,,,,true,2,,477.47400020592613,,response,,,,,,,,,2,,2,click #choice-2,,,,,O,S,I,,209008.38500028476,209005.74500020593,208511.604,208513.72499996796,208528.271,209011.614,,,
Trial,flow.Sequence,1_3_5,2021-04-30T10:41:59.834Z,,,,,,,,,,,,,,,,,,,,,,,,,,,,,,,4727.559000205947,,completion,,,,,,,,,2,,,,,,,,O,S,I,,209008.6799999699,209005.74500020593,204261.519,204272.06000033766,204278.186,209011.614,,,
Task,flow.Loop,1_3,2021-04-30T10:41:59.842Z,,,,,,,,,,,,,,,,,,,,,,,,,,,,,,,28695.707000205934,,completion,,,1,,,,,,,,,,,,,,,,,,209016.3300000131,209005.74500020593,180293.371,180300.7000000216,180310.038,209011.614,,,
Trap,html.Screen,1_4,2021-04-30T10:41:59.844Z,,,,,,,,,,,,,,,,,,,,,,,,,,,,,,,NaN,,skipped,,,,,,,,,,,,,,,,,,,,,209018.3600001037,209005.74500020593,,209018.12500040978,,209011.614,,,
Thanks,html.Screen,1_5,2021-04-30T10:42:03.181Z,,,,,,,,,,,,,,,,,,,,,,,,,,,,,,,3340.94600002846,,response,,,,,,,,,,,continue,click button,,,,,,,,,212355.19500030205,212352.56000002846,208994.947,209018.54000007734,209011.614,215678.998,,,
Headphone screening,flow.Sequence,1,2021-04-30T10:42:03.182Z,,,,,,,,,,,,,,,,,,,,,,,,,,,,,,,199270.85400002846,,completion,,,,,,,,,,,,,,,,,,,,,212355.48999998719,212352.56000002846,13065.039,13084.810000378639,13081.706,215678.998,,,
Instructions,html.Page,2_0,2021-04-30T10:56:29.640Z,,,,,,,,,,,,,,,,,,,,,,,,,,,,,,,863106.3970001299,,form submission,,,,,,,,,,,,,,,,,,,,,1078785.8750000596,1078785.39500013,215662.331,215673.87000005692,215678.998,1078787.284,,,
Holding screen,html.Screen,2_1_0_0,2021-04-30T10:56:39.629Z,,,,,,,,,,,,,,,,,,,,,,,,,,,,,,,10001.793999999994,,timeout,,,,,,,,,,,,,,,,,,,,,1088774.8100003228,1088772.411,1078770.617,1078786.1999999732,1078787.284,1088789.078,,,
screen,html.Screen,2_1_0_1_0,2021-04-30T10:56:40.728Z,,,,,,,,,,,,,,,,,53,,,,,,,,,,,,,,1078.197000084212,,response,,,,99,,,,,,,Space,keypress(Space),,,,,,,,When -- ----- -- ------ - ------- --- ----------<br>------------- ------ ------ ---- ---- ------- ----- -- ----<br>-------- ------- -- ---------- --- - --- ----- ----- ----<br>---- --- --- ----- --- ---- ---- ------- ----- ---- -------<br>--- --- -- ----- -- --- ---- -- --- ---- -- ------ ------<br>--- ----- -- ----,1089874.1950001568,1089867.2750000842,1088772.411,1088775.0950003974,1088789.078,1089889.1,,0,When
screen,html.Screen,2_1_0_1_1,2021-04-30T10:56:41.436Z,,,,,,,,,,,,,,,,,53,,,,,,,,,,,,,,689.7200004025362,,response,,,,99,,,,,,,Space,keypress(Space),,,,,,,,---- it ----- -- ------ - ------- --- ----------<br>------------- ------ ------ ---- ---- ------- ----- -- ----<br>-------- ------- -- ---------- --- - --- ----- ----- ----<br>---- --- --- ----- --- ---- ---- ------- ----- ---- -------<br>--- --- -- ----- -- --- ---- -- --- ---- -- ------ ------<br>--- ----- -- ----,1090581.8950003013,1090578.8200004026,1089872.433,1089874.4350001216,1089889.1,1090589.713,,1,it
screen,html.Screen,2_1_0_1_2,2021-04-30T10:56:41.959Z,,,,,,,,,,,,,,,,,53,,,,,,,,,,,,,,512.192000396084,,response,,,,99,,,,,,,Space,keypress(Space),,,,,,,,---- -- comes -- ------ - ------- --- ----------<br>------------- ------ ------ ---- ---- ------- ----- -- ----<br>-------- ------- -- ---------- --- - --- ----- ----- ----<br>---- --- --- ----- --- ---- ---- ------- ----- ---- -------<br>--- --- -- ----- -- --- ---- -- --- ---- -- ------ ------<br>--- ----- -- ----,1091105.1250002347,1091101.905000396,1090573.046,1090582.085000351,1090589.713,1091106.39,,2,comes
screen,html.Screen,2_1_0_1_3,2021-04-30T10:56:42.406Z,,,,,,,,,,,,,,,,,53,,,,,,,,,,,,,,442.4900001331698,,response,,,,99,,,,,,,Space,keypress(Space),,,,,,,,---- -- ----- to ------ - ------- --- ----------<br>------------- ------ ------ ---- ---- ------- ----- -- ----<br>-------- ------- -- ---------- --- - --- ----- ----- ----<br>---- --- --- ----- --- ---- ---- ------- ----- ---- -------<br>--- --- -- ----- -- --- ---- -- --- ---- -- ------ ------<br>--- ----- -- ----,1091552.1900001913,1091548.880000133,1091089.723,1091105.3050002083,1091106.39,1091556.399,,3,to
screen,html.Screen,2_1_0_1_4,2021-04-30T10:56:43.105Z,,,,,,,,,,,,,,,,,53,,,,,,,,,,,,,,691.4360000456218,,response,,,,99,,,,,,,Space,keypress(Space),,,,,,,,---- -- ----- -- having - ------- --- ----------<br>------------- ------ ------ ---- ---- ------- ----- -- ----<br>-------- ------- -- ---------- --- - --- ----- ----- ----<br>---- --- --- ----- --- ---- ---- ------- ----- ---- -------<br>--- --- -- ----- -- --- ---- -- --- ---- -- ------ ------<br>--- ----- -- ----,1092251.1249999516,1092247.8350000456,1091539.732,1091553.270000033,1091556.399,1092256.413,,4,having
screen,html.Screen,2_1_0_1_5,2021-04-30T10:56:43.562Z,,,,,,,,,,,,,,,,,53,,,,,,,,,,,,,,448.39200021955185,,response,,,,99,,,,,,,Space,keypress(Space),,,,,,,,---- -- ----- -- ------ a ------- --- ----------<br>------------- ------ ------ ---- ---- ------- ----- -- ----<br>-------- ------- -- ---------- --- - --- ----- ----- ----<br>---- --- --- ----- --- ---- ---- ------- ----- ---- -------<br>--- --- -- ----- -- --- ---- -- --- ---- -- ------ ------<br>--- ----- -- ----,1092708.080000244,1092704.8050002195,1092239.746,1092251.310000196,1092256.413,1092723.089,,5,a
screen,html.Screen,2_1_0_1_6,2021-04-30T10:56:44.211Z,,,,,,,,,,,,,,,,,53,,,,,,,,,,,,,,629.675999959698,,response,,,,99,,,,,,,Space,keypress(Space),,,,,,,,---- -- ----- -- ------ - lasting --- ----------<br>------------- ------ ------ ---- ---- ------- ----- -- ----<br>-------- ------- -- ---------- --- - --- ----- ----- ----<br>---- --- --- ----- --- ---- ---- ------- ----- ---- -------<br>--- --- -- ----- -- --- ---- -- --- ---- -- ------ ------<br>--- ----- -- ----,1093356.5050000325,1093352.7649999596,1092706.422,1092708.275000099,1092723.089,1093373.102,,6,lasting
screen,html.Screen,2_1_0_1_7,2021-04-30T10:56:44.698Z,,,,,,,,,,,,,,,,,53,,,,,,,,,,,,,,467.5230001863092,,response,,,,99,,,,,,,Space,keypress(Space),,,,,,,,---- -- ----- -- ------ - ------- and ----------<br>------------- ------ ------ ---- ---- ------- ----- -- ----<br>-------- ------- -- ---------- --- - --- ----- ----- ----<br>---- --- --- ----- --- ---- ---- ------- ----- ---- -------<br>--- --- -- ----- -- --- ---- -- --- ---- -- ------ ------<br>--- ----- -- ----,1093843.9150000922,1093840.6250001863,1093356.435,1093356.6950000823,1093373.102,1093856.445,,7,and
screen,html.Screen,2_1_0_1_8,2021-04-30T10:56:45.243Z,,,,,,,,,,,,,,,,,53,,,,,,,,,,,,,,529.2800004074816,,response,,,,99,,,,,,,Space,keypress(Space),,,,,,,,---- -- ----- -- ------ - ------- --- fulfilling<br>------------- ------ ------ ---- ---- ------- ----- -- ----<br>-------- ------- -- ---------- --- - --- ----- ----- ----<br>---- --- --- ----- --- ---- ---- ------- ----- ---- -------<br>--- --- -- ----- -- --- ---- -- --- ---- -- ------ ------<br>--- ----- -- ----,1094388.7650002725,1094385.7250004075,1093839.778,1093844.105000142,1093856.445,1094389.789,,8,fulfilling
screen,html.Screen,2_1_0_1_9,2021-04-30T10:56:45.816Z,,,,,,,,,,,,,,,,,53,,,,,,,,,,,,,,567.8660000346135,,response,,,,99,,,,,,,Space,keypress(Space),,,,,,,,"---- -- ----- -- ------ - ------- --- ----------<br>relationship, ------ ------ ---- ---- ------- ----- -- ----<br>-------- ------- -- ---------- --- - --- ----- ----- ----<br>---- --- --- ----- --- ---- ---- ------- ----- ---- -------<br>--- --- -- ----- -- --- ---- -- --- ---- -- ------ ------<br>--- ----- -- ----",1094962.0600002818,1094957.6550000347,1094373.122,1094388.9500000514,1094389.789,1094973.134,,9,"relationship,"
screen,html.Screen,2_1_0_1_10,2021-04-30T10:56:46.281Z,,,,,,,,,,,,,,,,,53,,,,,,,,,,,,,,450.5160002443008,,response,,,,99,,,,,,,Space,keypress(Space),,,,,,,,---- -- ----- -- ------ - ------- --- ----------<br>------------- common ------ ---- ---- ------- ----- -- ----<br>-------- ------- -- ---------- --- - --- ----- ----- ----<br>---- --- --- ----- --- ---- ---- ------- ----- ---- -------<br>--- --- -- ----- -- --- ---- -- --- ---- -- ------ ------<br>--- ----- -- ----,1095426.9900000654,1095423.6500002444,1094956.467,1094962.3100003228,1094973.134,1095439.81,,10,common
screen,html.Screen,2_1_0_1_11,2021-04-30T10:56:46.792Z,,,,,,,,,,,,,,,,,53,,,,,,,,,,,,,,494.77000011736527,,response,,,,99,,,,,,,Space,keypress(Space),,,,,,,,---- -- ----- -- ------ - ------- --- ----------<br>------------- ------ wisdom ---- ---- ------- ----- -- ----<br>-------- ------- -- ---------- --- - --- ----- ----- ----<br>---- --- --- ----- --- ---- ---- ------- ----- ---- -------<br>--- --- -- ----- -- --- ---- -- --- ---- -- ------ ------<br>--- ----- -- ----,1095937.7200002782,1095934.5800001174,1095423.143,1095427.1800001152,1095439.81,1095939.82,,11,wisdom
screen,html.Screen,2_1_0_1_12,2021-04-30T10:56:47.312Z,,,,,,,,,,,,,,,,,53,,,,,,,,,,,,,,513.6850000994746,,response,,,,99,,,,,,,Space,keypress(Space),,,,,,,,---- -- ----- -- ------ - ------- --- ----------<br>------------- ------ ------ says ---- ------- ----- -- ----<br>-------- ------- -- ---------- --- - --- ----- ----- ----<br>---- --- --- ----- --- ---- ---- ------- ----- ---- -------<br>--- --- -- ----- -- --- ---- -- --- ---- -- ------ ------<br>--- ----- -- ----,1096457.7450002544,1096453.5050000995,1095923.153,1095937.9000002518,1095939.82,1096473.164,,12,says
screen,html.Screen,2_1_0_1_13,2021-04-30T10:56:47.741Z,,,,,,,,,,,,,,,,,53,,,,,,,,,,,,,,410.39599998737685,,response,,,,99,,,,,,,Space,keypress(Space),,,,,,,,---- -- ----- -- ------ - ------- --- ----------<br>------------- ------ ------ ---- that ------- ----- -- ----<br>-------- ------- -- ---------- --- - --- ----- ----- ----<br>---- --- --- ----- --- ---- ---- ------- ----- ---- -------<br>--- --- -- ----- -- --- ---- -- --- ---- -- ------ ------<br>--- ----- -- ----,1096886.679999996,1096883.5599999875,1096456.497,1096458.0500000156,1096473.164,1096889.839,,13,that
screen,html.Screen,2_1_0_1_14,2021-04-30T10:56:48.165Z,,,,,,,,,,,,,,,,,53,,,,,,,,,,,,,,417.6910003402736,,response,,,,99,,,,,,,Space,keypress(Space),,,,,,,,---- -- ----- -- ------ - ------- --- ----------<br>------------- ------ ------ ---- ---- feeling ----- -- ----<br>-------- ------- -- ---------- --- - --- ----- ----- ----<br>---- --- --- ----- --- ---- ---- ------- ----- ---- -------<br>--- --- -- ----- -- --- ---- -- --- ---- -- ------ ------<br>--- ----- -- ----,1097310.7199999504,1097307.5300003402,1096873.172,1096886.8650002405,1096889.839,1097323.181,,14,feeling
screen,html.Screen,2_1_0_1_15,2021-04-30T10:56:48.692Z,,,,,,,,,,,,,,,,,53,,,,,,,,,,,,,,511.22400032146834,,response,,,,99,,,,,,,Space,keypress(Space),,,,,,,,---- -- ----- -- ------ - ------- --- ----------<br>------------- ------ ------ ---- ---- ------- close -- ----<br>-------- ------- -- ---------- --- - --- ----- ----- ----<br>---- --- --- ----- --- ---- ---- ------- ----- ---- -------<br>--- --- -- ----- -- --- ---- -- --- ---- -- ------ ------<br>--- ----- -- ----,1097837.765000295,1097834.4050003216,1097306.514,1097310.9100000001,1097323.181,1097839.858,,15,close
screen,html.Screen,2_1_0_1_16,2021-04-30T10:56:49.163Z,,,,,,,,,,,,,,,,,53,,,,,,,,,,,,,,465.6120000211522,,response,,,,99,,,,,,,Space,keypress(Space),,,,,,,,---- -- ----- -- ------ - ------- --- ----------<br>------------- ------ ------ ---- ---- ------- ----- to ----<br>-------- ------- -- ---------- --- - --- ----- ----- ----<br>---- --- --- ----- --- ---- ---- ------- ----- ---- -------<br>--- --- -- ----- -- --- ---- -- --- ---- -- ------ ------<br>--- ----- -- ----,1098308.8250001892,1098305.4700000212,1097823.191,1097837.9550003447,1097839.858,1098323.201,,16,to
screen,html.Screen,2_1_0_1_17,2021-04-30T10:56:49.925Z,,,,,,,,,,,,,,,,,53,,,,,,,,,,,,,,744.2240000157617,,response,,,,99,,,,,,,Space,keypress(Space),,,,,,,,---- -- ----- -- ------ - ------- --- ----------<br>------------- ------ ------ ---- ---- ------- ----- -- your<br>-------- ------- -- ---------- --- - --- ----- ----- ----<br>---- --- --- ----- --- ---- ---- ------- ----- ---- -------<br>--- --- -- ----- -- --- ---- -- --- ---- -- ------ ------<br>--- ----- -- ----,1099070.550000295,1099067.4250000156,1098306.534,1098309.0200000443,1098323.201,1099073.216,,17,your
screen,html.Screen,2_1_0_1_18,2021-04-30T10:56:50.414Z,,,,,,,,,,,,,,,,,53,,,,,,,,,,,,,,483.17400004155934,,response,,,,99,,,,,,,Space,keypress(Space),,,,,,,,---- -- ----- -- ------ - ------- --- ----------<br>------------- ------ ------ ---- ---- ------- ----- -- ----<br>romantic ------- -- ---------- --- - --- ----- ----- ----<br>---- --- --- ----- --- ---- ---- ------- ----- ---- -------<br>--- --- -- ----- -- --- ---- -- --- ---- -- ------ ------<br>--- ----- -- ----,1099559.5500003546,1099556.3900000416,1099056.549,1099070.74500015,1099073.216,1099573.226,,18,romantic
screen,html.Screen,2_1_0_1_19,2021-04-30T10:56:50.909Z,,,,,,,,,,,,,,,,,53,,,,,,,,,,,,,,477.1490001080092,,response,,,,99,,,,,,,Space,keypress(Space),,,,,,,,---- -- ----- -- ------ - ------- --- ----------<br>------------- ------ ------ ---- ---- ------- ----- -- ----<br>-------- partner -- ---------- --- - --- ----- ----- ----<br>---- --- --- ----- --- ---- ---- ------- ----- ---- -------<br>--- --- -- ----- -- --- ---- -- --- ---- -- ------ ------<br>--- ----- -- ----,1100054.070000071,1100050.375000108,1099556.559,1099559.7400004044,1099573.226,1100057.091,,19,partner
screen,html.Screen,2_1_0_1_20,2021-04-30T10:56:51.389Z,,,,,,,,,,,,,,,,,53,,,,,,,,,,,,,,473.2440002504736,,response,,,,99,,,,,,,Space,keypress(Space),,,,,,,,---- -- ----- -- ------ - ------- --- ----------<br>------------- ------ ------ ---- ---- ------- ----- -- ----<br>-------- ------- is ---------- --- - --- ----- ----- ----<br>---- --- --- ----- --- ---- ---- ------- ----- ---- -------<br>--- --- -- ----- -- --- ---- -- --- ---- -- ------ ------<br>--- ----- -- ----,1100534.1700003482,1100530.3350002505,1100040.424,1100054.2550003156,1100057.091,1100540.434,,20,is
screen,html.Screen,2_1_0_1_21,2021-04-30T10:56:51.871Z,,,,,,,,,,,,,,,,,53,,,,,,,,,,,,,,472.8359999959357,,response,,,,99,,,,,,,Space,keypress(Space),,,,,,,,---- -- ----- -- ------ - ------- --- ----------<br>------------- ------ ------ ---- ---- ------- ----- -- ----<br>-------- ------- -- paramount. --- - --- ----- ----- ----<br>---- --- --- ----- --- ---- ---- ------- ----- ---- -------<br>--- --- -- ----- -- --- ---- -- --- ---- -- ------ ------<br>--- ----- -- ----,1101016.375000123,1101013.2699999958,1100523.767,1100534.4750001095,1100540.434,1101023.777,,21,paramount.
screen,html.Screen,2_1_0_1_22,2021-04-30T10:56:52.352Z,,,,,,,,,,,,,,,,,53,,,,,,,,,,,,,,470.47299998882227,,response,,,,99,,,,,,,Space,keypress(Space),,,,,,,,---- -- ----- -- ------ - ------- --- ----------<br>------------- ------ ------ ---- ---- ------- ----- -- ----<br>-------- ------- -- ---------- But - --- ----- ----- ----<br>---- --- --- ----- --- ---- ---- ------- ----- ---- -------<br>--- --- -- ----- -- --- ---- -- --- ---- -- ------ ------<br>--- ----- -- ----,1101497.549999971,1101494.2499999888,1101007.11,1101016.5650001727,1101023.777,1101507.12,,22,But
screen,html.Screen,2_1_0_1_23,2021-04-30T10:56:52.782Z,,,,,,,,,,,,,,,,,53,,,,,,,,,,,,,,417.14000023249537,,response,,,,99,,,,,,,Space,keypress(Space),,,,,,,,---- -- ----- -- ------ - ------- --- ----------<br>------------- ------ ------ ---- ---- ------- ----- -- ----<br>-------- ------- -- ---------- --- a --- ----- ----- ----<br>---- --- --- ----- --- ---- ---- ------- ----- ---- -------<br>--- --- -- ----- -- --- ---- -- --- ---- -- ------ ------<br>--- ----- -- ----,1101927.6900002733,1101924.2600002326,1101490.453,1101497.7550003678,1101507.12,1101940.462,,23,a
screen,html.Screen,2_1_0_1_24,2021-04-30T10:56:53.187Z,,,,,,,,,,,,,,,,,53,,,,,,,,,,,,,,388.7629999939818,,response,,,,99,,,,,,,Space,keypress(Space),,,,,,,,---- -- ----- -- ------ - ------- --- ----------<br>------------- ------ ------ ---- ---- ------- ----- -- ----<br>-------- ------- -- ---------- --- - new ----- ----- ----<br>---- --- --- ----- --- ---- ---- ------- ----- ---- -------<br>--- --- -- ----- -- --- ---- -- --- ---- -- ------ ------<br>--- ----- -- ----,1102332.3000003584,1102329.224999994,1101923.795,1101927.8750000522,1101940.462,1102340.47,,24,new
screen,html.Screen,2_1_0_1_25,2021-04-30T10:56:53.718Z,,,,,,,,,,,,,,,,,53,,,,,,,,,,,,,,519.7250001903158,,response,,,,99,,,,,,,Space,keypress(Space),,,,,,,,---- -- ----- -- ------ - ------- --- ----------<br>------------- ------ ------ ---- ---- ------- ----- -- ----<br>-------- ------- -- ---------- --- - --- study ----- ----<br>---- --- --- ----- --- ---- ---- ------- ----- ---- -------<br>--- --- -- ----- -- --- ---- -- --- ---- -- ------ ------<br>--- ----- -- ----,1102863.5100000538,1102860.1950001903,1102323.803,1102332.4850001372,1102340.47,1102873.814,,25,study
screen,html.Screen,2_1_0_1_26,2021-04-30T10:56:54.119Z,,,,,,,,,,,,,,,,,53,,,,,,,,,,,,,,387.36100010876544,,response,,,,99,,,,,,,Space,keypress(Space),,,,,,,,---- -- ----- -- ------ - ------- --- ----------<br>------------- ------ ------ ---- ---- ------- ----- -- ----<br>-------- ------- -- ---------- --- - --- ----- finds ----<br>---- --- --- ----- --- ---- ---- ------- ----- ---- -------<br>--- --- -- ----- -- --- ---- -- --- ---- -- ------ ------<br>--- ----- -- ----,1103264.535000082,1103261.1750001088,1102857.147,1102863.7050003745,1102873.814,1103273.822,,26,finds
screen,html.Screen,2_1_0_1_27,2021-04-30T10:56:54.498Z,,,,,,,,,,,,,,,,,53,,,,,,,,,,,,,,366.32800034130923,,response,,,,99,,,,,,,Space,keypress(Space),,,,,,,,---- -- ----- -- ------ - ------- --- ----------<br>------------- ------ ------ ---- ---- ------- ----- -- ----<br>-------- ------- -- ---------- --- - --- ----- ----- that<br>---- --- --- ----- --- ---- ---- ------- ----- ---- -------<br>--- --- -- ----- -- --- ---- -- --- ---- -- ------ ------<br>--- ----- -- ----,1103643.3850000612,1103640.1500003412,1103257.155,1103264.7200003266,1103273.822,1103657.163,,27,that
screen,html.Screen,2_1_0_1_28,2021-04-30T10:56:54.951Z,,,,,,,,,,,,,,,,,53,,,,,,,,,,,,,,435.9020001392346,,response,,,,99,,,,,,,Space,keypress(Space),,,,,,,,---- -- ----- -- ------ - ------- --- ----------<br>------------- ------ ------ ---- ---- ------- ----- -- ----<br>-------- ------- -- ---------- --- - --- ----- ----- ----<br>it's --- --- ----- --- ---- ---- ------- ----- ---- -------<br>--- --- -- ----- -- --- ---- -- --- ---- -- ------ ------<br>--- ----- -- ----,1104096.2500004098,1104093.0650001392,1103640.496,1103643.5700003058,1103657.163,1104107.172,,28,it's
screen,html.Screen,2_1_0_1_29,2021-04-30T10:56:55.356Z,,,,,,,,,,,,,,,,,53,,,,,,,,,,,,,,390.93800004408695,,response,,,,99,,,,,,,Space,keypress(Space),,,,,,,,---- -- ----- -- ------ - ------- --- ----------<br>------------- ------ ------ ---- ---- ------- ----- -- ----<br>-------- ------- -- ---------- --- - --- ----- ----- ----<br>---- not --- ----- --- ---- ---- ------- ----- ---- -------<br>--- --- -- ----- -- --- ---- -- --- ---- -- ------ ------<br>--- ----- -- ----,1104501.2300000526,1104498.110000044,1104090.505,1104096.45000007,1104107.172,1104507.18,,29,not
screen,html.Screen,2_1_0_1_30,2021-04-30T10:56:55.932Z,,,,,,,,,,,,,,,,,53,,,,,,,,,,,,,,566.8550000560936,,response,,,,99,,,,,,,Space,keypress(Space),,,,,,,,---- -- ----- -- ------ - ------- --- ----------<br>------------- ------ ------ ---- ---- ------- ----- -- ----<br>-------- ------- -- ---------- --- - --- ----- ----- ----<br>---- --- how ----- --- ---- ---- ------- ----- ---- -------<br>--- --- -- ----- -- --- ---- -- --- ---- -- ------ ------<br>--- ----- -- ----,1105077.3000000045,1105074.035000056,1104490.513,1104501.4200001024,1104507.18,1105090.525,,30,how
screen,html.Screen,2_1_0_1_31,2021-04-30T10:56:56.301Z,,,,,,,,,,,,,,,,,53,,,,,,,,,,,,,,352.4800002411939,,response,,,,99,,,,,,,Space,keypress(Space),,,,,,,,---- -- ----- -- ------ - ------- --- ----------<br>------------- ------ ------ ---- ---- ------- ----- -- ----<br>-------- ------- -- ---------- --- - --- ----- ----- ----<br>---- --- --- close --- ---- ---- ------- ----- ---- -------<br>--- --- -- ----- -- --- ---- -- --- ---- -- ------ ------<br>--- ----- -- ----,1105446.1550000124,1105443.005000241,1105073.858,1105077.485000249,1105090.525,1105457.199,,31,close
screen,html.Screen,2_1_0_1_32,2021-04-30T10:56:56.680Z,,,,,,,,,,,,,,,,,53,,,,,,,,,,,,,,363.8210001485422,,response,,,,99,,,,,,,Space,keypress(Space),,,,,,,,---- -- ----- -- ------ - ------- --- ----------<br>------------- ------ ------ ---- ---- ------- ----- -- ----<br>-------- ------- -- ---------- --- - --- ----- ----- ----<br>---- --- --- ----- you ---- ---- ------- ----- ---- -------<br>--- --- -- ----- -- --- ---- -- --- ---- -- ------ ------<br>--- ----- -- ----,1105824.9000003561,1105821.0200001486,1105440.532,1105446.3550001383,1105457.199,1105840.54,,32,you
screen,html.Screen,2_1_0_1_33,2021-04-30T10:56:57.068Z,,,,,,,,,,,,,,,,,53,,,,,,,,,,,,,,369.43500000517815,,response,,,,99,,,,,,,Space,keypress(Space),,,,,,,,---- -- ----- -- ------ - ------- --- ----------<br>------------- ------ ------ ---- ---- ------- ----- -- ----<br>-------- ------- -- ---------- --- - --- ----- ----- ----<br>---- --- --- ----- --- feel ---- ------- ----- ---- -------<br>--- --- -- ----- -- --- ---- -- --- ---- -- ------ ------<br>--- ----- -- ----,1106213.2500000298,1106209.9750000052,1105823.873,1105825.2000003122,1105840.54,1106223.881,,33,feel
screen,html.Screen,2_1_0_1_34,2021-04-30T10:56:57.454Z,,,,,,,,,,,,,,,,,53,,,,,,,,,,,,,,372.0940004112199,,response,,,,99,,,,,,,Space,keypress(Space),,,,,,,,---- -- ----- -- ------ - ------- --- ----------<br>------------- ------ ------ ---- ---- ------- ----- -- ----<br>-------- ------- -- ---------- --- - --- ----- ----- ----<br>---- --- --- ----- --- ---- that ------- ----- ---- -------<br>--- --- -- ----- -- --- ---- -- --- ---- -- ------ ------<br>--- ----- -- ----,1106599.2900002748,1106595.9750004113,1106207.214,1106215.0000003166,1106223.881,1106607.222,,34,that
screen,html.Screen,2_1_0_1_35,2021-04-30T10:56:57.824Z,,,,,,,,,,,,,,,,,53,,,,,,,,,,,,,,358.5830001598224,,response,,,,99,,,,,,,Space,keypress(Space),,,,,,,,---- -- ----- -- ------ - ------- --- ----------<br>------------- ------ ------ ---- ---- ------- ----- -- ----<br>-------- ------- -- ---------- --- - --- ----- ----- ----<br>---- --- --- ----- --- ---- ---- matters ----- ---- -------<br>--- --- -- ----- -- --- ---- -- --- ---- -- ------ ------<br>--- ----- -- ----,1106969.0249999985,1106965.80500016,1106590.555,1106599.4700002484,1106607.222,1106973.896,,35,matters
screen,html.Screen,2_1_0_1_36,2021-04-30T10:56:58.228Z,,,,,,,,,,,,,,,,,53,,,,,,,,,,,,,,396.02900023921393,,response,,,,99,,,,,,,Space,keypress(Space),,,,,,,,"---- -- ----- -- ------ - ------- --- ----------<br>------------- ------ ------ ---- ---- ------- ----- -- ----<br>-------- ------- -- ---------- --- - --- ----- ----- ----<br>---- --- --- ----- --- ---- ---- ------- most, ---- -------<br>--- --- -- ----- -- --- ---- -- --- ---- -- ------ ------<br>--- ----- -- ----",1107373.2400001027,1107369.9250002392,1106957.229,1106970.0700002722,1106973.896,1107390.571,,36,"most,"
screen,html.Screen,2_1_0_1_37,2021-04-30T10:56:58.701Z,,,,,,,,,,,,,,,,,53,,,,,,,,,,,,,,452.17400003084913,,response,,,,99,,,,,,,Space,keypress(Space),,,,,,,,---- -- ----- -- ------ - ------- --- ----------<br>------------- ------ ------ ---- ---- ------- ----- -- ----<br>-------- ------- -- ---------- --- - --- ----- ----- ----<br>---- --- --- ----- --- ---- ---- ------- ----- it's -------<br>--- --- -- ----- -- --- ---- -- --- ---- -- ------ ------<br>--- ----- -- ----,1107845.8750001155,1107842.7450000308,1107373.904,1107373.4200000763,1107390.571,1107857.247,,37,it's
screen,html.Screen,2_1_0_1_38,2021-04-30T10:56:59.208Z,,,,,,,,,,,,,,,,,53,,,,,,,,,,,,,,491.6180000654422,,response,,,,99,,,,,,,Space,keypress(Space),,,,,,,,---- -- ----- -- ------ - ------- --- ----------<br>------------- ------ ------ ---- ---- ------- ----- -- ----<br>-------- ------- -- ---------- --- - --- ----- ----- ----<br>---- --- --- ----- --- ---- ---- ------- ----- ---- whether<br>--- --- -- ----- -- --- ---- -- --- ---- -- ------ ------<br>--- ----- -- ----,1108352.8550001793,1108348.8650000654,1107840.58,1107846.055000089,1107857.247,1108357.257,,38,whether
screen,html.Screen,2_1_0_1_39,2021-04-30T10:56:59.621Z,,,,,,,,,,,,,,,,,53,,,,,,,,,,,,,,405.5880002521444,,response,,,,99,,,,,,,Space,keypress(Space),,,,,,,,---- -- ----- -- ------ - ------- --- ----------<br>------------- ------ ------ ---- ---- ------- ----- -- ----<br>-------- ------- -- ---------- --- - --- ----- ----- ----<br>---- --- --- ----- --- ---- ---- ------- ----- ---- -------<br>you --- -- ----- -- --- ---- -- --- ---- -- ------ ------<br>--- ----- -- ----,1108765.9700000659,1108762.8450002521,1108340.59,1108353.0900003389,1108357.257,1108773.932,,39,you
screen,html.Screen,2_1_0_1_40,2021-04-30T10:56:59.998Z,,,,,,,,,,,,,,,,,53,,,,,,,,,,,,,,365.89299996197224,,response,,,,99,,,,,,,Space,keypress(Space),,,,,,,,---- -- ----- -- ------ - ------- --- ----------<br>------------- ------ ------ ---- ---- ------- ----- -- ----<br>-------- ------- -- ---------- --- - --- ----- ----- ----<br>---- --- --- ----- --- ---- ---- ------- ----- ---- -------<br>--- are -- ----- -- --- ---- -- --- ---- -- ------ ------<br>--- ----- -- ----,1109143.1100000627,1109139.824999962,1108757.265,1108766.1500000395,1108773.932,1109157.273,,40,are
screen,html.Screen,2_1_0_1_41,2021-04-30T10:57:00.408Z,,,,,,,,,,,,,,,,,53,,,,,,,,,,,,,,392.52700015343726,,response,,,,99,,,,,,,Space,keypress(Space),,,,,,,,---- -- ----- -- ------ - ------- --- ----------<br>------------- ------ ------ ---- ---- ------- ----- -- ----<br>-------- ------- -- ---------- --- - --- ----- ----- ----<br>---- --- --- ----- --- ---- ---- ------- ----- ---- -------<br>--- --- as ----- -- --- ---- -- --- ---- -- ------ ------<br>--- ----- -- ----,1109552.9350000434,1109549.8000001535,1109140.606,1109143.2900000364,1109157.273,1109557.281,,41,as
screen,html.Screen,2_1_0_1_42,2021-04-30T10:57:00.782Z,,,,,,,,,,,,,,,,,53,,,,,,,,,,,,,,366.5040001082234,,response,,,,99,,,,,,,Space,keypress(Space),,,,,,,,---- -- ----- -- ------ - ------- --- ----------<br>------------- ------ ------ ---- ---- ------- ----- -- ----<br>-------- ------- -- ---------- --- - --- ----- ----- ----<br>---- --- --- ----- --- ---- ---- ------- ----- ---- -------<br>--- --- -- close -- --- ---- -- --- ---- -- ------ ------<br>--- ----- -- ----,1109926.9900000654,1109923.7850001082,1109540.614,1109553.1250000931,1109557.281,1109941.008,,42,close
screen,html.Screen,2_1_0_1_43,2021-04-30T10:57:01.184Z,,,,,,,,,,,,,,,,,53,,,,,,,,,,,,,,384.73200023313984,,response,,,,99,,,,,,,Space,keypress(Space),,,,,,,,---- -- ----- -- ------ - ------- --- ----------<br>------------- ------ ------ ---- ---- ------- ----- -- ----<br>-------- ------- -- ---------- --- - --- ----- ----- ----<br>---- --- --- ----- --- ---- ---- ------- ----- ---- -------<br>--- --- -- ----- as --- ---- -- --- ---- -- ------ ------<br>--- ----- -- ----,1110329.3050001375,1110325.740000233,1109924.341,1109927.1650002338,1109941.008,1110341.016,,43,as
screen,html.Screen,2_1_0_1_44,2021-04-30T10:57:01.580Z,,,,,,,,,,,,,,,,,53,,,,,,,,,,,,,,380.53900017100386,,response,,,,99,,,,,,,Space,keypress(Space),,,,,,,,---- -- ----- -- ------ - ------- --- ----------<br>------------- ------ ------ ---- ---- ------- ----- -- ----<br>-------- ------- -- ---------- --- - --- ----- ----- ----<br>---- --- --- ----- --- ---- ---- ------- ----- ---- -------<br>--- --- -- ----- -- you ---- -- --- ---- -- ------ ------<br>--- ----- -- ----,1110724.700000137,1110721.555000171,1110324.349,1110329.490000382,1110341.016,1110741.024,,44,you
screen,html.Screen,2_1_0_1_45,2021-04-30T10:57:01.945Z,,,,,,,,,,,,,,,,,53,,,,,,,,,,,,,,345.6860004107002,,response,,,,99,,,,,,,Space,keypress(Space),,,,,,,,---- -- ----- -- ------ - ------- --- ----------<br>------------- ------ ------ ---- ---- ------- ----- -- ----<br>-------- ------- -- ---------- --- - --- ----- ----- ----<br>---- --- --- ----- --- ---- ---- ------- ----- ---- -------<br>--- --- -- ----- -- --- want -- --- ---- -- ------ ------<br>--- ----- -- ----,1111089.8450003006,1111086.7100004107,1110724.357,1110724.8900001869,1110741.024,1111091.031,,45,want
screen,html.Screen,2_1_0_1_46,2021-04-30T10:57:02.298Z,,,,,,,,,,,,,,,,,53,,,,,,,,,,,,,,348.6540001067333,,response,,,,99,,,,,,,Space,keypress(Space),,,,,,,,---- -- ----- -- ------ - ------- --- ----------<br>------------- ------ ------ ---- ---- ------- ----- -- ----<br>-------- ------- -- ---------- --- - --- ----- ----- ----<br>---- --- --- ----- --- ---- ---- ------- ----- ---- -------<br>--- --- -- ----- -- --- ---- to --- ---- -- ------ ------<br>--- ----- -- ----,1111442.9350001737,1111439.6850001067,1111074.364,1111090.0200000033,1111091.031,1111457.705,,46,to
screen,html.Screen,2_1_0_1_47,2021-04-30T10:57:02.672Z,,,,,,,,,,,,,,,,,53,,,,,,,,,,,,,,355.95499998517334,,response,,,,99,,,,,,,Space,keypress(Space),,,,,,,,"---- -- ----- -- ------ - ------- --- ----------<br>------------- ------ ------ ---- ---- ------- ----- -- ----<br>-------- ------- -- ---------- --- - --- ----- ----- ----<br>---- --- --- ----- --- ---- ---- ------- ----- ---- -------<br>--- --- -- ----- -- --- ---- -- be, ---- -- ------ ------<br>--- ----- -- ----",1111817.1149999835,1111813.6599999852,1111441.038,1111443.1100003421,1111457.705,1111824.379,,47,"be,"
screen,html.Screen,2_1_0_1_48,2021-04-30T10:57:03.119Z,,,,,,,,,,,,,,,,,53,,,,,,,,,,,,,,436.2609999931883,,response,,,,99,,,,,,,Space,keypress(Space),,,,,,,,---- -- ----- -- ------ - ------- --- ----------<br>------------- ------ ------ ---- ---- ------- ----- -- ----<br>-------- ------- -- ---------- --- - --- ----- ----- ----<br>---- --- --- ----- --- ---- ---- ------- ----- ---- -------<br>--- --- -- ----- -- --- ---- -- --- even -- ------ ------<br>--- ----- -- ----,1112263.9000001363,1112260.6399999931,1111807.712,1111817.294999957,1111824.379,1112274.388,,48,even
screen,html.Screen,2_1_0_1_49,2021-04-30T10:57:03.478Z,,,,,,,,,,,,,,,,,53,,,,,,,,,,,,,,345.25200016447343,,response,,,,99,,,,,,,Space,keypress(Space),,,,,,,,---- -- ----- -- ------ - ------- --- ----------<br>------------- ------ ------ ---- ---- ------- ----- -- ----<br>-------- ------- -- ---------- --- - --- ----- ----- ----<br>---- --- --- ----- --- ---- ---- ------- ----- ---- -------<br>--- --- -- ----- -- --- ---- -- --- ---- if ------ ------<br>--- ----- -- ----,1112622.810000088,1112619.6400001645,1112257.721,1112264.0650002286,1112274.388,1112624.395,,49,if
screen,html.Screen,2_1_0_1_50,2021-04-30T10:57:04.217Z,,,,,,,,,,,,,,,,,53,,,,,,,,,,,,,,734.1900000381283,,response,,,,99,,,,,,,Space,keypress(Space),,,,,,,,---- -- ----- -- ------ - ------- --- ----------<br>------------- ------ ------ ---- ---- ------- ----- -- ----<br>-------- ------- -- ---------- --- - --- ----- ----- ----<br>---- --- --- ----- --- ---- ---- ------- ----- ---- -------<br>--- --- -- ----- -- --- ---- -- --- ---- -- that's ------<br>--- ----- -- ----,1113361.775000114,1113358.5850000381,1112607.728,1112622.9900000617,1112624.395,1113374.41,,50,that's
screen,html.Screen,2_1_0_1_51,2021-04-30T10:57:04.775Z,,,,,,,,,,,,,,,,,53,,,,,,,,,,,,,,542.1300001221243,,response,,,,99,,,,,,,Space,keypress(Space),,,,,,,,---- -- ----- -- ------ - ------- --- ----------<br>------------- ------ ------ ---- ---- ------- ----- -- ----<br>-------- ------- -- ---------- --- - --- ----- ----- ----<br>---- --- --- ----- --- ---- ---- ------- ----- ---- -------<br>--- --- -- ----- -- --- ---- -- --- ---- -- ------ really<br>--- ----- -- ----,1113919.7100000456,1113916.540000122,1113357.743,1113361.9500002824,1113374.41,1113924.421,,51,really
screen,html.Screen,2_1_0_1_52,2021-04-30T10:57:05.206Z,,,,,,,,,,,,,,,,,53,,,,,,,,,,,,,,423.08900022506714,,response,,,,99,,,,,,,Space,keypress(Space),,,,,,,,---- -- ----- -- ------ - ------- --- ----------<br>------------- ------ ------ ---- ---- ------- ----- -- ----<br>-------- ------- -- ---------- --- - --- ----- ----- ----<br>---- --- --- ----- --- ---- ---- ------- ----- ---- -------<br>--- --- -- ----- -- --- ---- -- --- ---- -- ------ ------<br>not ----- -- ----,1114350.6700000726,1114347.5100002252,1113907.754,1113919.8800004087,1113924.421,1114357.763,,52,not
screen,html.Screen,2_1_0_1_53,2021-04-30T10:57:05.588Z,,,,,,,,,,,,,,,,,53,,,,,,,,,,,,,,370.72700012498535,,response,,,,99,,,,,,,Space,keypress(Space),,,,,,,,---- -- ----- -- ------ - ------- --- ----------<br>------------- ------ ------ ---- ---- ------- ----- -- ----<br>-------- ------- -- ---------- --- - --- ----- ----- ----<br>---- --- --- ----- --- ---- ---- ------- ----- ---- -------<br>--- --- -- ----- -- --- ---- -- --- ---- -- ------ ------<br>--- close -- ----,1114732.58500034,1114728.490000125,1114341.096,1114350.83999997,1114357.763,1114741.104,,53,close
screen,html.Screen,2_1_0_1_54,2021-04-30T10:57:06.020Z,,,,,,,,,,,,,,,,,53,,,,,,,,,,,,,,421.2310000008438,,response,,,,99,,,,,,,Space,keypress(Space),,,,,,,,---- -- ----- -- ------ - ------- --- ----------<br>------------- ------ ------ ---- ---- ------- ----- -- ----<br>-------- ------- -- ---------- --- - --- ----- ----- ----<br>---- --- --- ----- --- ---- ---- ------- ----- ---- -------<br>--- --- -- ----- -- --- ---- -- --- ---- -- ------ ------<br>--- ----- at ----,1115165.4050000943,1115162.335000001,1114724.437,1114732.8449999914,1114741.104,1115174.446,,54,at
screen,html.Screen,2_1_0_1_55,2021-04-30T10:57:07.113Z,,,,,,,,,,,,,,,,,53,,,,,,,,,,,,,,1079.9240002133884,,response,,,,99,,,,,,,Space,keypress(Space),,,,,,,,---- -- ----- -- ------ - ------- --- ----------<br>------------- ------ ------ ---- ---- ------- ----- -- ----<br>-------- ------- -- ---------- --- - --- ----- ----- ----<br>---- --- --- ----- --- ---- ---- ------- ----- ---- -------<br>--- --- -- ----- -- --- ---- -- --- ---- -- ------ ------<br>--- ----- -- all.,1116258.0699999817,1116254.3700002134,1115157.779,1115165.5800002627,1115174.446,1116274.468,,55,all.
Item 99,flow.Loop,2_1_0_1,2021-04-30T10:57:07.114Z,,,,,,,,,,,,,,,,,,,,,,,,,,,,,,,27465.292000213405,,completion,,,,,C,,,,,,,,,,,silence,,,,,1116258.6300000548,1116254.3700002134,1088772.411,1088775.015000254,1088789.078,1116274.468,,,
Question 1,html.Screen,2_1_0_2,2021-04-30T10:57:13.682Z,,,,,,,,,,,,,,,,,,,,,,,,,,,,true,FALSE,,6549.88700016425,,response,,,,99,C,,,,,,FALSE,click #choice-2,,,,silence,,,,,1122827.0849999972,1122824.3550001644,1116257.801,1116258.9050000533,1116274.468,1122841.858,,,
Question 2,html.Screen,2_1_0_3,2021-04-30T10:57:23.456Z,,,,,,,,,,,,,,,,,,,,,,,,,,,,true,TRUE,,9755.987000214867,,response,,,,99,C,,,,,,TRUE,click #choice-1,,,,silence,,,,,1132600.3800001927,1132597.8450002149,1122825.191,1122827.2700002417,1122841.858,1132609.185,,,
Item 99,flow.Sequence,2_1_0,2021-04-30T10:57:23.456Z,,,,,,,,,,,,,,,,,,,,,,,,,,,,,,,53810.56100021489,,completion,,,,,,,,,,,,,,,,,,,,,1132600.650000386,1132597.8450002149,1078770.617,1078786.1450002529,1078787.284,1132609.185,,,
Holding screen,html.Screen,2_1_1_0,2021-04-30T10:57:33.452Z,,,,,,,,,,,,,,,,,,,,,,,,,,,,,,,10000.783999999985,,timeout,,,,,,,,,,,,,,,,,,,,,1142595.7200000994,1142593.302,1132592.518,1132600.8250000887,1132609.185,1142609.969,,,
screen,html.Screen,2_1_1_1_0,2021-04-30T10:57:34.531Z,,,,,,,,,,,,,,,,,54,,,,,,,,,,,,,,1059.6310001392849,,response,,,,100,,,,,,,Space,keypress(Space),,,,,,,,At --- ---- --- ------ ----- ------- ---- -- --- ------- --<br>------- ---------- ------ -- ----- -- ----- -- ---- ------<br>--- ----- --- --- ------ -------- ----- --- ------ ----- --<br>----- ----- ---------- --- --- ------ ------ ---- -- ------<br>------- --- ------ ----- --- ---- ------- -- ---- --- --<br>------- ------,1143674.6950000525,1143669.6000001393,1142593.302,1142595.9350001067,1142609.969,1143676.657,,0,At
screen,html.Screen,2_1_1_1_1,2021-04-30T10:57:35.093Z,,,,,,,,,,,,,,,,,54,,,,,,,,,,,,,,557.6530002036598,,response,,,,100,,,,,,,Space,keypress(Space),,,,,,,,-- the ---- --- ------ ----- ------- ---- -- --- ------- --<br>------- ---------- ------ -- ----- -- ----- -- ---- ------<br>--- ----- --- --- ------ -------- ----- --- ------ ----- --<br>----- ----- ---------- --- --- ------ ------ ---- -- ------<br>------- --- ------ ----- --- ---- ------- -- ---- --- --<br>------- ------,1144237.3850001022,1144234.3100002035,1143659.99,1143674.985000398,1143676.657,1144243.335,,1,the
screen,html.Screen,2_1_1_1_2,2021-04-30T10:57:35.586Z,,,,,,,,,,,,,,,,,54,,,,,,,,,,,,,,483.8100003609434,,response,,,,100,,,,,,,Space,keypress(Space),,,,,,,,-- --- time --- ------ ----- ------- ---- -- --- ------- --<br>------- ---------- ------ -- ----- -- ----- -- ---- ------<br>--- ----- --- --- ------ -------- ----- --- ------ ----- --<br>----- ----- ---------- --- --- ------ ------ ---- -- ------<br>------- --- ------ ----- --- ---- ------- -- ---- --- --<br>------- ------,1144730.380000081,1144727.145000361,1144226.668,1144237.5549999997,1144243.335,1144743.345,,2,time
screen,html.Screen,2_1_1_1_3,2021-04-30T10:57:36.103Z,,,,,,,,,,,,,,,,,54,,,,,,,,,,,,,,500.78500000643544,,response,,,,100,,,,,,,Space,keypress(Space),,,,,,,,-- --- ---- the ------ ----- ------- ---- -- --- ------- --<br>------- ---------- ------ -- ----- -- ----- -- ---- ------<br>--- ----- --- --- ------ -------- ----- --- ------ ----- --<br>----- ----- ---------- --- --- ------ ------ ---- -- ------<br>------- --- ------ ----- --- ---- ------- -- ---- --- --<br>------- ------,1145247.4750000983,1145244.1300000064,1144726.678,1144730.5499999784,1144743.345,1145260.022,,3,the
screen,html.Screen,2_1_1_1_4,2021-04-30T10:57:36.704Z,,,,,,,,,,,,,,,,,54,,,,,,,,,,,,,,585.0330003907438,,response,,,,100,,,,,,,Space,keypress(Space),,,,,,,,-- --- ---- --- French ----- ------- ---- -- --- ------- --<br>------- ---------- ------ -- ----- -- ----- -- ---- ------<br>--- ----- --- --- ------ -------- ----- --- ------ ----- --<br>----- ----- ---------- --- --- ------ ------ ---- -- ------<br>------- --- ------ ----- --- ---- ------- -- ---- --- --<br>------- ------,1145848.2000003569,1145845.0550003909,1145243.355,1145247.6500002667,1145260.022,1145860.034,,4,French
screen,html.Screen,2_1_1_1_5,2021-04-30T10:57:37.230Z,,,,,,,,,,,,,,,,,54,,,,,,,,,,,,,,511.15100005455315,,response,,,,100,,,,,,,Space,keypress(Space),,,,,,,,-- --- ---- --- ------ crown ------- ---- -- --- ------- --<br>------- ---------- ------ -- ----- -- ----- -- ---- ------<br>--- ----- --- --- ------ -------- ----- --- ------ ----- --<br>----- ----- ---------- --- --- ------ ------ ---- -- ------<br>------- --- ------ ----- --- ---- ------- -- ---- --- --<br>------- ------,1146374.310000334,1146371.1850000545,1145843.367,1145848.3750000596,1145860.034,1146376.711,,5,crown
screen,html.Screen,2_1_1_1_6,2021-04-30T10:57:37.842Z,,,,,,,,,,,,,,,,,54,,,,,,,,,,,,,,606.4390002184082,,response,,,,100,,,,,,,Space,keypress(Space),,,,,,,,-- --- ---- --- ------ ----- secured ---- -- --- ------- --<br>------- ---------- ------ -- ----- -- ----- -- ---- ------<br>--- ----- --- --- ------ -------- ----- --- ------ ----- --<br>----- ----- ---------- --- --- ------ ------ ---- -- ------<br>------- --- ------ ----- --- ---- ------- -- ---- --- --<br>------- ------,1146986.385000404,1146983.1500002183,1146360.044,1146374.4850000367,1146376.711,1146993.39,,6,secured
screen,html.Screen,2_1_1_1_7,2021-04-30T10:57:38.760Z,,,,,,,,,,,,,,,,,54,,,,,,,,,,,,,,907.710000366671,,response,,,,100,,,,,,,Space,keypress(Space),,,,,,,,-- --- ---- --- ------ ----- ------- much -- --- ------- --<br>------- ---------- ------ -- ----- -- ----- -- ---- ------<br>--- ----- --- --- ------ -------- ----- --- ------ ----- --<br>----- ----- ---------- --- --- ------ ------ ---- -- ------<br>------- --- ------ ----- --- ---- ------- -- ---- --- --<br>------- ------,1147904.155000113,1147901.1000003666,1146976.723,1146986.5500000305,1146993.39,1147910.075,,7,much
screen,html.Screen,2_1_1_1_8,2021-04-30T10:57:39.365Z,,,,,,,,,,,,,,,,,54,,,,,,,,,,,,,,596.0100000009406,,response,,,,100,,,,,,,Space,keypress(Space),,,,,,,,-- --- ---- --- ------ ----- ------- ---- of --- ------- --<br>------- ---------- ------ -- ----- -- ----- -- ---- ------<br>--- ----- --- --- ------ -------- ----- --- ------ ----- --<br>----- ----- ---------- --- --- ------ ------ ---- -- ------<br>------- --- ------ ----- --- ---- ------- -- ---- --- --<br>------- ------,1148509.4550000504,1148506.085000001,1147893.408,1147904.3250000104,1147910.075,1148526.754,,8,of
screen,html.Screen,2_1_1_1_9,2021-04-30T10:57:39.948Z,,,,,,,,,,,,,,,,,54,,,,,,,,,,,,,,562.2660003050696,,response,,,,100,,,,,,,Space,keypress(Space),,,,,,,,-- --- ---- --- ------ ----- ------- ---- -- its ------- --<br>------- ---------- ------ -- ----- -- ----- -- ---- ------<br>--- ----- --- --- ------ -------- ----- --- ------ ----- --<br>----- ----- ---------- --- --- ------ ------ ---- -- ------<br>------- --- ------ ----- --- ---- ------- -- ---- --- --<br>------- ------,1149092.1800001524,1149089.020000305,1148510.087,1148509.6249999478,1148526.754,1149093.432,,9,its
screen,html.Screen,2_1_1_1_10,2021-04-30T10:57:40.614Z,,,,,,,,,,,,,,,,,54,,,,,,,,,,,,,,661.5530000068247,,response,,,,100,,,,,,,Space,keypress(Space),,,,,,,,-- --- ---- --- ------ ----- ------- ---- -- --- revenue --<br>------- ---------- ------ -- ----- -- ----- -- ---- ------<br>--- ----- --- --- ------ -------- ----- --- ------ ----- --<br>----- ----- ---------- --- --- ------ ------ ---- -- ------<br>------- --- ------ ----- --- ---- ------- -- ---- --- --<br>------- ------,1149758.1600002013,1149754.9850000069,1149076.765,1149092.35000005,1149093.432,1149760.112,,10,revenue
screen,html.Screen,2_1_1_1_11,2021-04-30T10:57:41.234Z,,,,,,,,,,,,,,,,,54,,,,,,,,,,,,,,614.8529999663588,,response,,,,100,,,,,,,Space,keypress(Space),,,,,,,,-- --- ---- --- ------ ----- ------- ---- -- --- ------- by<br>------- ---------- ------ -- ----- -- ----- -- ---- ------<br>--- ----- --- --- ------ -------- ----- --- ------ ----- --<br>----- ----- ---------- --- --- ------ ------ ---- -- ------<br>------- --- ------ ----- --- ---- ------- -- ---- --- --<br>------- ------,1150378.144999966,1150374.9649999663,1149743.445,1149758.3300000988,1149760.112,1150393.458,,11,by
screen,html.Screen,2_1_1_1_12,2021-04-30T10:57:41.777Z,,,,,,,,,,,,,,,,,54,,,,,,,,,,,,,,524.4570001144893,,response,,,,100,,,,,,,Space,keypress(Space),,,,,,,,-- --- ---- --- ------ ----- ------- ---- -- --- ------- --<br>issuing ---------- ------ -- ----- -- ----- -- ---- ------<br>--- ----- --- --- ------ -------- ----- --- ------ ----- --<br>----- ----- ---------- --- --- ------ ------ ---- -- ------<br>------- --- ------ ----- --- ---- ------- -- ---- --- --<br>------- ------,1150921.140000224,1150917.9150001146,1150376.791,1150378.3250004053,1150393.458,1150926.802,,12,issuing
screen,html.Screen,2_1_1_1_13,2021-04-30T10:57:42.392Z,,,,,,,,,,,,,,,,,54,,,,,,,,,,,,,,606.0830001097638,,response,,,,100,,,,,,,Space,keypress(Space),,,,,,,,-- --- ---- --- ------ ----- ------- ---- -- --- ------- --<br>------- government ------ -- ----- -- ----- -- ---- ------<br>--- ----- --- --- ------ -------- ----- --- ------ ----- --<br>----- ----- ---------- --- --- ------ ------ ---- -- ------<br>------- --- ------ ----- --- ---- ------- -- ---- --- --<br>------- ------,1151536.044999957,1151532.8850001097,1150910.135,1150921.3100001216,1150926.802,1151543.481,,13,government
screen,html.Screen,2_1_1_1_14,2021-04-30T10:57:43.343Z,,,,,,,,,,,,,,,,,54,,,,,,,,,,,,,,940.3440000030678,,response,,,,100,,,,,,,Space,keypress(Space),,,,,,,,-- --- ---- --- ------ ----- ------- ---- -- --- ------- --<br>------- ---------- bonds. -- ----- -- ----- -- ---- ------<br>--- ----- --- --- ------ -------- ----- --- ------ ----- --<br>----- ----- ---------- --- --- ------ ------ ---- -- ------<br>------- --- ------ ----- --- ---- ------- -- ---- --- --<br>------- ------,1152487.2900000773,1152483.825000003,1151526.814,1151536.2100000493,1151543.481,1152494.001,,14,bonds.
screen,html.Screen,2_1_1_1_15,2021-04-30T10:57:43.916Z,,,,,,,,,,,,,,,,,54,,,,,,,,,,,,,,562.7940000987146,,response,,,,100,,,,,,,Space,keypress(Space),,,,,,,,-- --- ---- --- ------ ----- ------- ---- -- --- ------- --<br>------- ---------- ------ In ----- -- ----- -- ---- ------<br>--- ----- --- --- ------ -------- ----- --- ------ ----- --<br>----- ----- ---------- --- --- ------ ------ ---- -- ------<br>------- --- ------ ----- --- ---- ------- -- ---- --- --<br>------- ------,1153059.960000217,1153056.7950000986,1152477.334,1152487.470000051,1152494.001,1153077.346,,15,In
screen,html.Screen,2_1_1_1_16,2021-04-30T10:57:45.495Z,,,,,,,,,,,,,,,,,54,,,,,,,,,,,,,,1556.3490003170446,,response,,,,100,,,,,,,Space,keypress(Space),,,,,,,,"-- --- ---- --- ------ ----- ------- ---- -- --- ------- --<br>------- ---------- ------ -- 1727, -- ----- -- ---- ------<br>--- ----- --- --- ------ -------- ----- --- ------ ----- --<br>----- ----- ---------- --- --- ------ ------ ---- -- ------<br>------- --- ------ ----- --- ---- ------- -- ---- --- --<br>------- ------",1154638.6700002477,1154633.695000317,1153060.679,1153060.1400001906,1153077.346,1154644.044,,16,"1727,"
screen,html.Screen,2_1_1_1_17,2021-04-30T10:57:46.726Z,,,,,,,,,,,,,,,,,54,,,,,,,,,,,,,,1222.5510000286158,,response,,,,100,,,,,,,Space,keypress(Space),,,,,,,,-- --- ---- --- ------ ----- ------- ---- -- --- ------- --<br>------- ---------- ------ -- ----- in ----- -- ---- ------<br>--- ----- --- --- ------ -------- ----- --- ------ ----- --<br>----- ----- ---------- --- --- ------ ------ ---- -- ------<br>------- --- ------ ----- --- ---- ------- -- ---- --- --<br>------- ------,1155869.6750001982,1155866.5950000286,1154627.377,1154639.030000195,1154644.044,1155877.402,,17,in
screen,html.Screen,2_1_1_1_18,2021-04-30T10:57:47.261Z,,,,,,,,,,,,,,,,,54,,,,,,,,,,,,,,524.1130000341218,,response,,,,100,,,,,,,Space,keypress(Space),,,,,,,,-- --- ---- --- ------ ----- ------- ---- -- --- ------- --<br>------- ---------- ------ -- ----- -- order -- ---- ------<br>--- ----- --- --- ------ -------- ----- --- ------ ----- --<br>----- ----- ---------- --- --- ------ ------ ---- -- ------<br>------- --- ------ ----- --- ---- ------- -- ---- --- --<br>------- ------,1156404.8300003633,1156401.5150000341,1155860.735,1155869.8500003666,1155877.402,1156410.746,,18,order
screen,html.Screen,2_1_1_1_19,2021-04-30T10:57:47.699Z,,,,,,,,,,,,,,,,,54,,,,,,,,,,,,,,428.81400022585876,,response,,,,100,,,,,,,Space,keypress(Space),,,,,,,,-- --- ---- --- ------ ----- ------- ---- -- --- ------- --<br>------- ---------- ------ -- ----- -- ----- to ---- ------<br>--- ----- --- --- ------ -------- ----- --- ------ ----- --<br>----- ----- ---------- --- --- ------ ------ ---- -- ------<br>------- --- ------ ----- --- ---- ------- -- ---- --- --<br>------- ------,1156842.7500003017,1156839.560000226,1156394.079,1156405.0500001758,1156410.746,1156844.088,,19,to
screen,html.Screen,2_1_1_1_20,2021-04-30T10:57:48.126Z,,,,,,,,,,,,,,,,,54,,,,,,,,,,,,,,419.4170001554303,,response,,,,100,,,,,,,Space,keypress(Space),,,,,,,,-- --- ---- --- ------ ----- ------- ---- -- --- ------- --<br>------- ---------- ------ -- ----- -- ----- -- save ------<br>--- ----- --- --- ------ -------- ----- --- ------ ----- --<br>----- ----- ---------- --- --- ------ ------ ---- -- ------<br>------- --- ------ ----- --- ---- ------- -- ---- --- --<br>------- ------,1157269.9500001036,1157263.5050001554,1156827.421,1156842.9250000045,1156844.088,1157277.43,,20,save
screen,html.Screen,2_1_1_1_21,2021-04-30T10:57:48.977Z,,,,,,,,,,,,,,,,,54,,,,,,,,,,,,,,840.0600000915583,,response,,,,100,,,,,,,Space,keypress(Space),,,,,,,,"-- --- ---- --- ------ ----- ------- ---- -- --- ------- --<br>------- ---------- ------ -- ----- -- ----- -- ---- money,<br>--- ----- --- --- ------ -------- ----- --- ------ ----- --<br>----- ----- ---------- --- --- ------ ------ ---- -- ------<br>------- --- ------ ----- --- ---- ------- -- ---- --- --<br>------- ------",1158120.5750000663,1158117.4900000915,1157260.763,1157270.125000272,1157277.43,1158127.447,,21,"money,"
screen,html.Screen,2_1_1_1_22,2021-04-30T10:57:49.494Z,,,,,,,,,,,,,,,,,54,,,,,,,,,,,,,,507.0130003213417,,response,,,,100,,,,,,,Space,keypress(Space),,,,,,,,-- --- ---- --- ------ ----- ------- ---- -- --- ------- --<br>------- ---------- ------ -- ----- -- ----- -- ---- ------<br>the ----- --- --- ------ -------- ----- --- ------ ----- --<br>----- ----- ---------- --- --- ------ ------ ---- -- ------<br>------- --- ------ ----- --- ---- ------- -- ---- --- --<br>------- ------,1158637.9500003532,1158634.4600003213,1158110.78,1158120.7449999638,1158127.447,1158644.124,,22,the
screen,html.Screen,2_1_1_1_23,2021-04-30T10:57:50.054Z,,,,,,,,,,,,,,,,,54,,,,,,,,,,,,,,550.2960000724997,,response,,,,100,,,,,,,Space,keypress(Space),,,,,,,,-- --- ---- --- ------ ----- ------- ---- -- --- ------- --<br>------- ---------- ------ -- ----- -- ----- -- ---- ------<br>--- state --- --- ------ -------- ----- --- ------ ----- --<br>----- ----- ---------- --- --- ------ ------ ---- -- ------<br>------- --- ------ ----- --- ---- ------- -- ---- --- --<br>------- ------,1159197.6149999537,1159194.4200000726,1158627.457,1158638.1149999797,1158644.124,1159210.802,,23,state
screen,html.Screen,2_1_1_1_24,2021-04-30T10:57:50.802Z,,,,,,,,,,,,,,,,,54,,,,,,,,,,,,,,731.5730001006741,,response,,,,100,,,,,,,Space,keypress(Space),,,,,,,,-- --- ---- --- ------ ----- ------- ---- -- --- ------- --<br>------- ---------- ------ -- ----- -- ----- -- ---- ------<br>--- ----- cut --- ------ -------- ----- --- ------ ----- --<br>----- ----- ---------- --- --- ------ ------ ---- -- ------<br>------- --- ------ ----- --- ---- ------- -- ---- --- --<br>------- ------,1159945.7499999553,1159942.3750001006,1159194.135,1159197.7750002407,1159210.802,1159960.817,,24,cut
screen,html.Screen,2_1_1_1_25,2021-04-30T10:57:51.814Z,,,,,,,,,,,,,,,,,54,,,,,,,,,,,,,,993.3280003161635,,response,,,,100,,,,,,,Space,keypress(Space),,,,,,,,-- --- ---- --- ------ ----- ------- ---- -- --- ------- --<br>------- ---------- ------ -- ----- -- ----- -- ---- ------<br>--- ----- --- the ------ -------- ----- --- ------ ----- --<br>----- ----- ---------- --- --- ------ ------ ---- -- ------<br>------- --- ------ ----- --- ---- ------- -- ---- --- --<br>------- ------,1160957.3900001124,1160954.1450003162,1159944.15,1159945.9250001237,1159960.817,1160960.837,,25,the
screen,html.Screen,2_1_1_1_26,2021-04-30T10:57:52.649Z,,,,,,,,,,,,,,,,,54,,,,,,,,,,,,,,827.3030003097374,,response,,,,100,,,,,,,Space,keypress(Space),,,,,,,,-- --- ---- --- ------ ----- ------- ---- -- --- ------- --<br>------- ---------- ------ -- ----- -- ----- -- ---- ------<br>--- ----- --- --- bonds' -------- ----- --- ------ ----- --<br>----- ----- ---------- --- --- ------ ------ ---- -- ------<br>------- --- ------ ----- --- ---- ------- -- ---- --- --<br>------- ------,1161792.3200000077,1161788.1400003098,1160944.17,1160957.5600000098,1160960.837,1161794.187,,26,bonds'
screen,html.Screen,2_1_1_1_27,2021-04-30T10:57:54.051Z,,,,,,,,,,,,,,,,,54,,,,,,,,,,,,,,1396.9930000817403,,response,,,,100,,,,,,,Space,keypress(Space),,,,,,,,-- --- ---- --- ------ ----- ------- ---- -- --- ------- --<br>------- ---------- ------ -- ----- -- ----- -- ---- ------<br>--- ----- --- --- ------ interest ----- --- ------ ----- --<br>----- ----- ---------- --- --- ------ ------ ---- -- ------<br>------- --- ------ ----- --- ---- ------- -- ---- --- --<br>------- ------,1163194.4099999964,1163191.1800000817,1161777.52,1161792.5599999726,1161794.187,1163211.37,,27,interest
screen,html.Screen,2_1_1_1_28,2021-04-30T10:57:55.790Z,,,,,,,,,,,,,,,,,54,,,,,,,,,,,,,,1718.645000048913,,response,,,,100,,,,,,,Space,keypress(Space),,,,,,,,-- --- ---- --- ------ ----- ------- ---- -- --- ------- --<br>------- ---------- ------ -- ----- -- ----- -- ---- ------<br>--- ----- --- --- ------ -------- rate. --- ------ ----- --<br>----- ----- ---------- --- --- ------ ------ ---- -- ------<br>------- --- ------ ----- --- ---- ------- -- ---- --- --<br>------- ------,1164933.7900001556,1164930.015000049,1163194.703,1163194.5800003596,1163211.37,1164944.738,,28,rate.
screen,html.Screen,2_1_1_1_29,2021-04-30T10:57:56.478Z,,,,,,,,,,,,,,,,,54,,,,,,,,,,,,,,673.3020000886172,,response,,,,100,,,,,,,Space,keypress(Space),,,,,,,,-- --- ---- --- ------ ----- ------- ---- -- --- ------- --<br>------- ---------- ------ -- ----- -- ----- -- ---- ------<br>--- ----- --- --- ------ -------- ----- The ------ ----- --<br>----- ----- ---------- --- --- ------ ------ ---- -- ------<br>------- --- ------ ----- --- ---- ------- -- ---- --- --<br>------- ------,1165621.2400002405,1165618.0400000885,1164928.071,1164933.9700001292,1164944.738,1165628.085,,29,The
screen,html.Screen,2_1_1_1_30,2021-04-30T10:57:57.205Z,,,,,,,,,,,,,,,,,54,,,,,,,,,,,,,,715.8950003543869,,response,,,,100,,,,,,,Space,keypress(Space),,,,,,,,-- --- ---- --- ------ ----- ------- ---- -- --- ------- --<br>------- ---------- ------ -- ----- -- ----- -- ---- ------<br>--- ----- --- --- ------ -------- ----- --- market ----- --<br>----- ----- ---------- --- --- ------ ------ ---- -- ------<br>------- --- ------ ----- --- ---- ------- -- ---- --- --<br>------- ------,1166348.2200000435,1166343.9800003543,1165611.418,1165621.410000138,1165628.085,1166361.433,,30,market
screen,html.Screen,2_1_1_1_31,2021-04-30T10:57:57.943Z,,,,,,,,,,,,,,,,,54,,,,,,,,,,,,,,721.5219999908004,,response,,,,100,,,,,,,Space,keypress(Space),,,,,,,,-- --- ---- --- ------ ----- ------- ---- -- --- ------- --<br>------- ---------- ------ -- ----- -- ----- -- ---- ------<br>--- ----- --- --- ------ -------- ----- --- ------ value --<br>----- ----- ---------- --- --- ------ ------ ---- -- ------<br>------- --- ------ ----- --- ---- ------- -- ---- --- --<br>------- ------,1167086.0250000842,1167082.9549999908,1166344.766,1166348.4100000933,1166361.433,1167094.781,,31,value
screen,html.Screen,2_1_1_1_32,2021-04-30T10:57:58.547Z,,,,,,,,,,,,,,,,,54,,,,,,,,,,,,,,591.0840003560297,,response,,,,100,,,,,,,Space,keypress(Space),,,,,,,,-- --- ---- --- ------ ----- ------- ---- -- --- ------- --<br>------- ---------- ------ -- ----- -- ----- -- ---- ------<br>--- ----- --- --- ------ -------- ----- --- ------ ----- of<br>----- ----- ---------- --- --- ------ ------ ---- -- ------<br>------- --- ------ ----- --- ---- ------- -- ---- --- --<br>------- ------,1167690.1650000364,1167685.865000356,1167078.114,1167086.1900001764,1167094.781,1167694.793,,32,of
screen,html.Screen,2_1_1_1_33,2021-04-30T10:57:59.109Z,,,,,,,,,,,,,,,,,54,,,,,,,,,,,,,,554.1220003529452,,response,,,,100,,,,,,,Space,keypress(Space),,,,,,,,-- --- ---- --- ------ ----- ------- ---- -- --- ------- --<br>------- ---------- ------ -- ----- -- ----- -- ---- ------<br>--- ----- --- --- ------ -------- ----- --- ------ ----- --<br>these ----- ---------- --- --- ------ ------ ---- -- ------<br>------- --- ------ ----- --- ---- ------- -- ---- --- --<br>------- ------,1168252.0350003615,1168248.915000353,1167678.126,1167690.4250001535,1167694.793,1168261.471,,33,these
screen,html.Screen,2_1_1_1_34,2021-04-30T10:57:59.718Z,,,,,,,,,,,,,,,,,54,,,,,,,,,,,,,,596.3840000675991,,response,,,,100,,,,,,,Space,keypress(Space),,,,,,,,-- --- ---- --- ------ ----- ------- ---- -- --- ------- --<br>------- ---------- ------ -- ----- -- ----- -- ---- ------<br>--- ----- --- --- ------ -------- ----- --- ------ ----- --<br>----- bonds ---------- --- --- ------ ------ ---- -- ------<br>------- --- ------ ----- --- ---- ------- -- ---- --- --<br>------- ------,1168861.0050003044,1168857.8550000675,1168244.804,1168252.205000259,1168261.471,1168878.15,,34,bonds
screen,html.Screen,2_1_1_1_35,2021-04-30T10:58:00.817Z,,,,,,,,,,,,,,,,,54,,,,,,,,,,,,,,1078.6300001242198,,response,,,,100,,,,,,,Space,keypress(Space),,,,,,,,"-- --- ---- --- ------ ----- ------- ---- -- --- ------- --<br>------- ---------- ------ -- ----- -- ----- -- ---- ------<br>--- ----- --- --- ------ -------- ----- --- ------ ----- --<br>----- ----- plummeted, --- --- ------ ------ ---- -- ------<br>------- --- ------ ----- --- ---- ------- -- ---- --- --<br>------- ------",1169959.9999999627,1169956.7800001241,1168861.483,1168861.1800000072,1168878.15,1169961.505,,35,"plummeted,"
screen,html.Screen,2_1_1_1_36,2021-04-30T10:58:01.309Z,,,,,,,,,,,,,,,,,54,,,,,,,,,,,,,,487.26000032853335,,response,,,,100,,,,,,,Space,keypress(Space),,,,,,,,-- --- ---- --- ------ ----- ------- ---- -- --- ------- --<br>------- ---------- ------ -- ----- -- ----- -- ---- ------<br>--- ----- --- --- ------ -------- ----- --- ------ ----- --<br>----- ----- ---------- and --- ------ ------ ---- -- ------<br>------- --- ------ ----- --- ---- ------- -- ---- --- --<br>------- ------,1170452.730000019,1170448.7650003284,1169944.838,1169960.170000326,1169961.505,1170461.515,,36,and
screen,html.Screen,2_1_1_1_37,2021-04-30T10:58:01.751Z,,,,,,,,,,,,,,,,,54,,,,,,,,,,,,,,430.2150002650451,,response,,,,100,,,,,,,Space,keypress(Space),,,,,,,,-- --- ---- --- ------ ----- ------- ---- -- --- ------- --<br>------- ---------- ------ -- ----- -- ----- -- ---- ------<br>--- ----- --- --- ------ -------- ----- --- ------ ----- --<br>----- ----- ---------- --- the ------ ------ ---- -- ------<br>------- --- ------ ----- --- ---- ------- -- ---- --- --<br>------- ------,1170894.820000045,1170891.730000265,1170444.848,1170452.9900001362,1170461.515,1170911.524,,37,the
screen,html.Screen,2_1_1_1_38,2021-04-30T10:58:02.327Z,,,,,,,,,,,,,,,,,54,,,,,,,,,,,,,,556.1310002768878,,response,,,,100,,,,,,,Space,keypress(Space),,,,,,,,-- --- ---- --- ------ ----- ------- ---- -- --- ------- --<br>------- ---------- ------ -- ----- -- ----- -- ---- ------<br>--- ----- --- --- ------ -------- ----- --- ------ ----- --<br>----- ----- ---------- --- --- market ------ ---- -- ------<br>------- --- ------ ----- --- ---- ------- -- ---- --- --<br>------- ------,1171470.8050000481,1171467.6550002769,1170894.857,1170894.9850001372,1170911.524,1171478.202,,38,market
screen,html.Screen,2_1_1_1_39,2021-04-30T10:58:03.245Z,,,,,,,,,,,,,,,,,54,,,,,,,,,,,,,,906.4280002187006,,response,,,,100,,,,,,,Space,keypress(Space),,,,,,,,-- --- ---- --- ------ ----- ------- ---- -- --- ------- --<br>------- ---------- ------ -- ----- -- ----- -- ---- ------<br>--- ----- --- --- ------ -------- ----- --- ------ ----- --<br>----- ----- ---------- --- --- ------ became ---- -- ------<br>------- --- ------ ----- --- ---- ------- -- ---- --- --<br>------- ------,1172388.0900000222,1172384.6300002187,1171461.535,1171470.9700001404,1171478.202,1172394.887,,39,became
screen,html.Screen,2_1_1_1_40,2021-04-30T10:58:03.975Z,,,,,,,,,,,,,,,,,54,,,,,,,,,,,,,,719.6380000989884,,response,,,,100,,,,,,,Space,keypress(Space),,,,,,,,-- --- ---- --- ------ ----- ------- ---- -- --- ------- --<br>------- ---------- ------ -- ----- -- ----- -- ---- ------<br>--- ----- --- --- ------ -------- ----- --- ------ ----- --<br>----- ----- ---------- --- --- ------ ------ wary -- ------<br>------- --- ------ ----- --- ---- ------- -- ---- --- --<br>------- ------,1173117.770000361,1173114.525000099,1172378.22,1172388.2550001144,1172394.887,1173128.784,,40,wary
screen,html.Screen,2_1_1_1_41,2021-04-30T10:58:04.596Z,,,,,,,,,,,,,,,,,54,,,,,,,,,,,,,,606.7660003323108,,response,,,,100,,,,,,,Space,keypress(Space),,,,,,,,-- --- ---- --- ------ ----- ------- ---- -- --- ------- --<br>------- ---------- ------ -- ----- -- ----- -- ---- ------<br>--- ----- --- --- ------ -------- ----- --- ------ ----- --<br>----- ----- ---------- --- --- ------ ------ ---- of ------<br>------- --- ------ ----- --- ---- ------- -- ---- --- --<br>------- ------,1173738.9050000347,1173735.5500003323,1173112.117,1173117.9500003345,1173128.784,1173745.463,,41,of
screen,html.Screen,2_1_1_1_42,2021-04-30T10:58:05.289Z,,,,,,,,,,,,,,,,,54,,,,,,,,,,,,,,683.0320001165383,,response,,,,100,,,,,,,Space,keypress(Space),,,,,,,,-- --- ---- --- ------ ----- ------- ---- -- --- ------- --<br>------- ---------- ------ -- ----- -- ----- -- ---- ------<br>--- ----- --- --- ------ -------- ----- --- ------ ----- --<br>----- ----- ---------- --- --- ------ ------ ---- -- French<br>------- --- ------ ----- --- ---- ------- -- ---- --- --<br>------- ------,1174431.760000065,1174428.4950001165,1173728.796,1173739.080000203,1173745.463,1174445.477,,42,French
screen,html.Screen,2_1_1_1_43,2021-04-30T10:58:06.479Z,,,,,,,,,,,,,,,,,54,,,,,,,,,,,,,,1170.9630000125617,,response,,,,100,,,,,,,Space,keypress(Space),,,,,,,,-- --- ---- --- ------ ----- ------- ---- -- --- ------- --<br>------- ---------- ------ -- ----- -- ----- -- ---- ------<br>--- ----- --- --- ------ -------- ----- --- ------ ----- --<br>----- ----- ---------- --- --- ------ ------ ---- -- ------<br>credit. --- ------ ----- --- ---- ------- -- ---- --- --<br>------- ------,1175622.2300003283,1175616.4400000125,1174428.81,1174431.9299999624,1174445.477,1175628.834,,43,credit.
screen,html.Screen,2_1_1_1_44,2021-04-30T10:58:07.211Z,,,,,,,,,,,,,,,,,54,,,,,,,,,,,,,,722.5310000095051,,response,,,,100,,,,,,,Space,keypress(Space),,,,,,,,-- --- ---- --- ------ ----- ------- ---- -- --- ------- --<br>------- ---------- ------ -- ----- -- ----- -- ---- ------<br>--- ----- --- --- ------ -------- ----- --- ------ ----- --<br>----- ----- ---------- --- --- ------ ------ ---- -- ------<br>------- The ------ ----- --- ---- ------- -- ---- --- --<br>------- ------,1176354.5300001279,1176351.3650000095,1175612.167,1175622.6000003517,1175628.834,1176362.182,,44,The
screen,html.Screen,2_1_1_1_45,2021-04-30T10:58:07.800Z,,,,,,,,,,,,,,,,,54,,,,,,,,,,,,,,577.0580002106726,,response,,,,100,,,,,,,Space,keypress(Space),,,,,,,,-- --- ---- --- ------ ----- ------- ---- -- --- ------- --<br>------- ---------- ------ -- ----- -- ----- -- ---- ------<br>--- ----- --- --- ------ -------- ----- --- ------ ----- --<br>----- ----- ---------- --- --- ------ ------ ---- -- ------<br>------- --- French ----- --- ---- ------- -- ---- --- --<br>------- ------,1176942.7100000903,1176939.2400002107,1176345.515,1176354.7000000253,1176362.182,1176945.527,,45,French
screen,html.Screen,2_1_1_1_46,2021-04-30T10:58:08.417Z,,,,,,,,,,,,,,,,,54,,,,,,,,,,,,,,611.798000409035,,response,,,,100,,,,,,,Space,keypress(Space),,,,,,,,-- --- ---- --- ------ ----- ------- ---- -- --- ------- --<br>------- ---------- ------ -- ----- -- ----- -- ---- ------<br>--- ----- --- --- ------ -------- ----- --- ------ ----- --<br>----- ----- ---------- --- --- ------ ------ ---- -- ------<br>------- --- ------ state --- ---- ------- -- ---- --- --<br>------- ------,1177560.5650004,1177557.325000409,1176928.86,1176942.8850002587,1176945.527,1177562.206,,46,state
screen,html.Screen,2_1_1_1_47,2021-04-30T10:58:08.931Z,,,,,,,,,,,,,,,,,54,,,,,,,,,,,,,,508.9240000548307,,response,,,,100,,,,,,,Space,keypress(Space),,,,,,,,-- --- ---- --- ------ ----- ------- ---- -- --- ------- --<br>------- ---------- ------ -- ----- -- ----- -- ---- ------<br>--- ----- --- --- ------ -------- ----- --- ------ ----- --<br>----- ----- ---------- --- --- ------ ------ ---- -- ------<br>------- --- ------ ----- was ---- ------- -- ---- --- --<br>------- ------,1178074.3750003166,1178071.1300000548,1177545.539,1177560.7450003736,1177562.206,1178078.883,,47,was
screen,html.Screen,2_1_1_1_48,2021-04-30T10:58:09.439Z,,,,,,,,,,,,,,,,,54,,,,,,,,,,,,,,500.3870001039468,,response,,,,100,,,,,,,Space,keypress(Space),,,,,,,,-- --- ---- --- ------ ----- ------- ---- -- --- ------- --<br>------- ---------- ------ -- ----- -- ----- -- ---- ------<br>--- ----- --- --- ------ -------- ----- --- ------ ----- --<br>----- ----- ---------- --- --- ------ ------ ---- -- ------<br>------- --- ------ ----- --- left ------- -- ---- --- --<br>------- ------,1178582.5249999762,1178579.2700001039,1178062.216,1178074.5500000194,1178078.883,1178595.56,,48,left
screen,html.Screen,2_1_1_1_49,2021-04-30T10:58:10.084Z,,,,,,,,,,,,,,,,,54,,,,,,,,,,,,,,628.6600002073683,,response,,,,100,,,,,,,Space,keypress(Space),,,,,,,,-- --- ---- --- ------ ----- ------- ---- -- --- ------- --<br>------- ---------- ------ -- ----- -- ----- -- ---- ------<br>--- ----- --- --- ------ -------- ----- --- ------ ----- --<br>----- ----- ---------- --- --- ------ ------ ---- -- ------<br>------- --- ------ ----- --- ---- without -- ---- --- --<br>------- ------,1179227.3800000548,1179224.2200002074,1178578.893,1178582.6900000684,1178595.56,1179228.906,,49,without
screen,html.Screen,2_1_1_1_50,2021-04-30T10:58:10.662Z,,,,,,,,,,,,,,,,,54,,,,,,,,,,,,,,573.2790003861301,,response,,,,100,,,,,,,Space,keypress(Space),,,,,,,,-- --- ---- --- ------ ----- ------- ---- -- --- ------- --<br>------- ---------- ------ -- ----- -- ----- -- ---- ------<br>--- ----- --- --- ------ -------- ----- --- ------ ----- --<br>----- ----- ---------- --- --- ------ ------ ---- -- ------<br>------- --- ------ ----- --- ---- ------- an ---- --- --<br>------- ------,1179805.4550001398,1179802.185000386,1179212.239,1179227.5499999523,1179228.906,1179812.251,,50,an
screen,html.Screen,2_1_1_1_51,2021-04-30T10:58:11.263Z,,,,,,,,,,,,,,,,,54,,,,,,,,,,,,,,590.903999949107,,response,,,,100,,,,,,,Space,keypress(Space),,,,,,,,-- --- ---- --- ------ ----- ------- ---- -- --- ------- --<br>------- ---------- ------ -- ----- -- ----- -- ---- ------<br>--- ----- --- --- ------ -------- ----- --- ------ ----- --<br>----- ----- ---------- --- --- ------ ------ ---- -- ------<br>------- --- ------ ----- --- ---- ------- -- easy --- --<br>------- ------,1180406.3850003295,1180403.154999949,1179795.584,1179805.6300003082,1179812.251,1180412.263,,51,easy
screen,html.Screen,2_1_1_1_52,2021-04-30T10:58:11.786Z,,,,,,,,,,,,,,,,,54,,,,,,,,,,,,,,513.8620002309326,,response,,,,100,,,,,,,Space,keypress(Space),,,,,,,,-- --- ---- --- ------ ----- ------- ---- -- --- ------- --<br>------- ---------- ------ -- ----- -- ----- -- ---- ------<br>--- ----- --- --- ------ -------- ----- --- ------ ----- --<br>----- ----- ---------- --- --- ------ ------ ---- -- ------<br>------- --- ------ ----- --- ---- ------- -- ---- way --<br>------- ------,1180929.4050000608,1180926.125000231,1180395.596,1180406.565000303,1180412.263,1180945.607,,52,way
screen,html.Screen,2_1_1_1_53,2021-04-30T10:58:12.332Z,,,,,,,,,,,,,,,,,54,,,,,,,,,,,,,,526.4980001680087,,response,,,,100,,,,,,,Space,keypress(Space),,,,,,,,-- --- ---- --- ------ ----- ------- ---- -- --- ------- --<br>------- ---------- ------ -- ----- -- ----- -- ---- ------<br>--- ----- --- --- ------ -------- ----- --- ------ ----- --<br>----- ----- ---------- --- --- ------ ------ ---- -- ------<br>------- --- ------ ----- --- ---- ------- -- ---- --- of<br>------- ------,1181475.250000134,1181472.105000168,1180928.94,1180929.5900003053,1180945.607,1181478.951,,53,of
screen,html.Screen,2_1_1_1_54,2021-04-30T10:58:12.976Z,,,,,,,,,,,,,,,,,54,,,,,,,,,,,,,,637.0790001503192,,response,,,,100,,,,,,,Space,keypress(Space),,,,,,,,-- --- ---- --- ------ ----- ------- ---- -- --- ------- --<br>------- ---------- ------ -- ----- -- ----- -- ---- ------<br>--- ----- --- --- ------ -------- ----- --- ------ ----- --<br>----- ----- ---------- --- --- ------ ------ ---- -- ------<br>------- --- ------ ----- --- ---- ------- -- ---- --- --<br>raising ------,1182119.3350004032,1182116.0300001502,1181462.284,1181475.4150002263,1181478.951,1182128.964,,54,raising
screen,html.Screen,2_1_1_1_55,2021-04-30T10:58:13.917Z,,,,,,,,,,,,,,,,,54,,,,,,,,,,,,,,928.0360000298824,,response,,,,100,,,,,,,Space,keypress(Space),,,,,,,,-- --- ---- --- ------ ----- ------- ---- -- --- ------- --<br>------- ---------- ------ -- ----- -- ----- -- ---- ------<br>--- ----- --- --- ------ -------- ----- --- ------ ----- --<br>----- ----- ---------- --- --- ------ ------ ---- -- ------<br>------- --- ------ ----- --- ---- ------- -- ---- --- --<br>------- money.,1183060.2550003678,1183057.0000000298,1182112.297,1182119.5050003007,1182128.964,1183062.316,,55,money.
Item 100,flow.Loop,2_1_1_1,2021-04-30T10:58:13.918Z,,,,,,,,,,,,,,,,,,,,,,,,,,,,,,,40447.03100002976,,completion,,,,,C,,,,,,,,,,,silence,,,,,1183060.5650004,1183057.0000000298,1142593.302,1142595.8800003864,1142609.969,1183062.316,,,
Question 1,html.Screen,2_1_1_2,2021-04-30T10:58:16.730Z,,,,,,,,,,,,,,,,,,,,,,,,,,,,true,TRUE,,2808.3340004044585,,response,,,,100,C,,,,,,TRUE,click #choice-1,,,,silence,,,,,1185873.2500001788,1185870.6500004046,1183045.649,1183060.7000002638,1183062.316,1185879.44,,,
Question 2,html.Screen,2_1_1_3,2021-04-30T10:58:20.832Z,,,,,,,,,,,,,,,,,,,,,,,,,,,,true,FALSE,,4092.4250002033077,,response,,,,100,C,,,,,,FALSE,click #choice-2,,,,silence,,,,,1189974.4049999863,1189971.8650002033,1185862.773,1185873.4349999577,1185879.44,1189979.522,,,
Item 100,flow.Sequence,2_1_1,2021-04-30T10:58:20.832Z,,,,,,,,,,,,,,,,,,,,,,,,,,,,,,,57362.680000203196,,completion,,,,,,,,,,,,,,,,,,,,,1189974.6750001796,1189971.8650002033,1132592.518,1132600.7750001736,1132609.185,1189979.522,,,
End of Practice,html.Page,2_1_2,2021-04-30T10:58:40.824Z,,,,,,,,,,,,,,,,,,,,,,,,,,,,,,,20000.399999999907,,timeout,,,,,,,,,,,,,,,,,,,,,1209965.7300002873,1209963.255,1189962.855,1189974.8100000434,1189979.522,1209979.922,,,
Practice,flow.Sequence,2_1,2021-04-30T10:58:40.824Z,,,,,,,,,,,,,,,,,,,,,,,,,,,,,,,131175.9709999999,,completion,,,,,,,,,,,,,,,,,,,,,1209965.9800003283,1209963.255,1078770.617,1078786.0799999908,1078787.284,1209979.922,,,
Trap_instruction,html.Page,2_2_0,2021-04-30T10:59:00.254Z,,,,,,,,,,,,,,,,,,,,,,,,,,,,,,,19415.263000263134,,form submission,,,,,,,,,,,,,,,,,,,,,1229395.5650003627,1229395.1850002632,1209963.255,1209966.155000031,1209979.922,1229398.446,,,
trap_trial,html.Screen,2_2_1,2021-04-30T10:59:03.263Z,,,,,,,,,,,,,,,,,,,,,,,,,,,,true,1,,3003.7740000472404,,response,,,,,,,,,,,1,click #choice-1,,,,,,,,,1232404.860000126,1232402.2200000472,1229381.779,1229395.78000037,1229398.446,1232416.087,,,
end of trap trial,html.Page,2_2_2,2021-04-30T10:59:05.310Z,,,,,,,,,,,,,,,,,,,,,,,,,,,,,,,2034.7680004101712,,form submission,,,,,,,,,,,,,,,,,,,,,1234451.2100000866,1234450.8550004102,1232399.42,1232405.0650000572,1232416.087,1234466.128,,,
Trap 1,flow.Sequence,2_2,2021-04-30T10:59:05.310Z,,,,,,,,,,,,,,,,,,,,,,,,,,,,,,,24470.93300041021,,completion,,,,,,,,,,,,,,,,,,,,,1234451.5050002374,1234450.8550004102,1209963.255,1209966.105000116,1209979.922,1234466.128,,,
Standby,html.Page,2_3_0,2021-04-30T10:59:13.311Z,,,,,,,,,,,,,,,,,,,,,,,,,,,,,,,8000.159999999916,,timeout,,,,,,,,,,,,,,,,,,,,,1242452.090000268,1242449.621,1234449.461,1234451.6950002871,1234466.128,1242466.288,,,
Holding screen,html.Screen,2_3_1_0_0,2021-04-30T10:59:20.312Z,,,,,,,,,,,,,,,,,,,,,,,,,,,,,,,7000.800999999978,,timeout,,,,,,,,,,,,,,,,,,,,,1249452.640000265,1249450.422,1242449.621,1242452.3450001143,1242466.288,1249467.089,,,
screen,html.Screen,2_3_1_0_1_0,2021-04-30T10:59:21.945Z,,,,,,,,,,,,,,,,,11,,,,,,,,,,,,,,1613.9360001960304,,response,,,,4,C,,,,,,Space,keypress(Space),,,,instrumental,,,,Known -- ---- --- -- --- -------- ------------ ---------- --<br>- ------- ------ --------- -- ------------ -- --- ---- -----<br>------ ---- ---- ------ ------ ------- --- ----- ---------<br>---- --- -------- -------- --- --- -- ------- --- --- -----<br>-- --- ------ ------- --- --- -------- ---- --------- --<br>---------- -- -------- ----------------,1251085.7450002804,1251081.025000196,1249450.422,1249452.8600000776,1249467.089,1251100.455,,0,Known
screen,html.Screen,2_3_1_0_1_1,2021-04-30T10:59:22.531Z,,,,,,,,,,,,,,,,,11,,,,,,,,,,,,,,568.4300000499934,,response,,,,4,C,,,,,,Space,keypress(Space),,,,instrumental,,,,----- as ---- --- -- --- -------- ------------ ---------- --<br>- ------- ------ --------- -- ------------ -- --- ---- -----<br>------ ---- ---- ------ ------ ------- --- ----- ---------<br>---- --- -------- -------- --- --- -- ------- --- --- -----<br>-- --- ------ ------- --- --- -------- ---- --------- --<br>---------- -- -------- ----------------,1251672.2200000659,1251668.88500005,1251083.788,1251086.0050003976,1251100.455,1251683.8,,1,as
screen,html.Screen,2_3_1_0_1_2,2021-04-30T10:59:23.157Z,,,,,,,,,,,,,,,,,11,,,,,,,,,,,,,,610.9550001553725,,response,,,,4,C,,,,,,Space,keypress(Space),,,,instrumental,,,,----- -- Rapa --- -- --- -------- ------------ ---------- --<br>- ------- ------ --------- -- ------------ -- --- ---- -----<br>------ ---- ---- ------ ------ ------- --- ----- ---------<br>---- --- -------- -------- --- --- -- ------- --- --- -----<br>-- --- ------ ------- --- --- -------- ---- --------- --<br>---------- -- -------- ----------------,1252297.990000341,1252294.7550001554,1251667.133,1251672.385000158,1251683.8,1252300.479,,2,Rapa
screen,html.Screen,2_3_1_0_1_3,2021-04-30T10:59:23.668Z,,,,,,,,,,,,,,,,,11,,,,,,,,,,,,,,505.2560004091356,,response,,,,4,C,,,,,,Space,keypress(Space),,,,instrumental,,,,----- -- ---- Nui -- --- -------- ------------ ---------- --<br>- ------- ------ --------- -- ------------ -- --- ---- -----<br>------ ---- ---- ------ ------ ------- --- ----- ---------<br>---- --- -------- -------- --- --- -- ------- --- --- -----<br>-- --- ------ ------- --- --- -------- ---- --------- --<br>---------- -- -------- ----------------,1252808.9450001717,1252805.7350004092,1252283.812,1252298.1600002386,1252300.479,1252817.156,,3,Nui
screen,html.Screen,2_3_1_0_1_4,2021-04-30T10:59:24.342Z,,,,,,,,,,,,,,,,,11,,,,,,,,,,,,,,662.6690002786927,,response,,,,4,C,,,,,,Space,keypress(Space),,,,instrumental,,,,----- -- ---- --- to --- -------- ------------ ---------- --<br>- ------- ------ --------- -- ------------ -- --- ---- -----<br>------ ---- ---- ------ ------ ------- --- ----- ---------<br>---- --- -------- -------- --- --- -- ------- --- --- -----<br>-- --- ------ ------- --- --- -------- ---- --------- --<br>---------- -- -------- ----------------,1253483.1500002183,1253479.8250002787,1252800.489,1252809.110000264,1252817.156,1253500.503,,4,to
screen,html.Screen,2_3_1_0_1_5,2021-04-30T10:59:24.742Z,,,,,,,,,,,,,,,,,11,,,,,,,,,,,,,,379.1670001694001,,response,,,,4,C,,,,,,Space,keypress(Space),,,,instrumental,,,,----- -- ---- --- -- the -------- ------------ ---------- --<br>- ------- ------ --------- -- ------------ -- --- ---- -----<br>------ ---- ---- ------ ------ ------- --- ----- ---------<br>---- --- -------- -------- --- --- -- ------- --- --- -----<br>-- --- ------ ------- --- --- -------- ---- --------- --<br>---------- -- -------- ----------------,1253882.9600000754,1253879.6700001694,1253483.836,1253483.3150003105,1253500.503,1253884.356,,5,the
screen,html.Screen,2_3_1_0_1_6,2021-04-30T10:59:25.230Z,,,,,,,,,,,,,,,,,11,,,,,,,,,,,,,,483.4190001662355,,response,,,,4,C,,,,,,Space,keypress(Space),,,,instrumental,,,,----- -- ---- --- -- --- island's ------------ ---------- --<br>- ------- ------ --------- -- ------------ -- --- ---- -----<br>------ ---- ---- ------ ------ ------- --- ----- ---------<br>---- --- -------- -------- --- --- -- ------- --- --- -----<br>-- --- ------ ------- --- --- -------- ---- --------- --<br>---------- -- -------- ----------------,1254371.2300001644,1254367.7750001661,1253867.689,1253883.1299999729,1253884.356,1254384.366,,6,island's
screen,html.Screen,2_3_1_0_1_7,2021-04-30T10:59:25.961Z,,,,,,,,,,,,,,,,,11,,,,,,,,,,,,,,714.184000228066,,response,,,,4,C,,,,,,Space,keypress(Space),,,,instrumental,,,,"----- -- ---- --- -- --- -------- inhabitants, ---------- --<br>- ------- ------ --------- -- ------------ -- --- ---- -----<br>------ ---- ---- ------ ------ ------- --- ----- ---------<br>---- --- -------- -------- --- --- -- ------- --- --- -----<br>-- --- ------ ------- --- --- -------- ---- --------- --<br>---------- -- -------- ----------------",1255101.9550003111,1255098.550000228,1254367.699,1254371.3950002566,1254384.366,1255117.714,,7,"inhabitants,"
screen,html.Screen,2_3_1_0_1_8,2021-04-30T10:59:27.852Z,,,,,,,,,,,,,,,,,11,,,,,,,,,,,,,,1871.8660002851393,,response,,,,4,C,,,,,,Space,keypress(Space),,,,instrumental,,,,----- -- ---- --- -- --- -------- ------------ Rongorongo --<br>- ------- ------ --------- -- ------------ -- --- ---- -----<br>------ ---- ---- ------ ------ ------- --- ----- ---------<br>---- --- -------- -------- --- --- -- ------- --- --- -----<br>-- --- ------ ------- --- --- -------- ---- --------- --<br>---------- -- -------- ----------------,1256993.1900002994,1256989.580000285,1255101.047,1255102.1250002086,1255117.714,1257001.085,,8,Rongorongo
screen,html.Screen,2_3_1_0_1_9,2021-04-30T10:59:28.702Z,,,,,,,,,,,,,,,,,11,,,,,,,,,,,,,,838.444999997504,,response,,,,4,C,,,,,,Space,keypress(Space),,,,instrumental,,,,----- -- ---- --- -- --- -------- ------------ ---------- is<br>- ------- ------ --------- -- ------------ -- --- ---- -----<br>------ ---- ---- ------ ------ ------- --- ----- ---------<br>---- --- -------- -------- --- --- -- ------- --- --- -----<br>-- --- ------ ------- --- --- -------- ---- --------- --<br>---------- -- -------- ----------------,1257842.755000107,1257839.5299999975,1256984.418,1256993.370000273,1257001.085,1257851.102,,9,is
screen,html.Screen,2_3_1_0_1_10,2021-04-30T10:59:29.474Z,,,,,,,,,,,,,,,,,11,,,,,,,,,,,,,,758.4180004056543,,response,,,,4,C,,,,,,Space,keypress(Space),,,,instrumental,,,,----- -- ---- --- -- --- -------- ------------ ---------- --<br>a ------- ------ --------- -- ------------ -- --- ---- -----<br>------ ---- ---- ------ ------ ------- --- ----- ---------<br>---- --- -------- -------- --- --- -- ------- --- --- -----<br>-- --- ------ ------- --- --- -------- ---- --------- --<br>---------- -- -------- ----------------,1258614.2350002192,1258609.5200004056,1257834.435,1257842.9250000045,1257851.102,1258617.784,,10,a
screen,html.Screen,2_3_1_0_1_11,2021-04-30T10:59:30.089Z,,,,,,,,,,,,,,,,,11,,,,,,,,,,,,,,608.6910003814846,,response,,,,4,C,,,,,,Space,keypress(Space),,,,instrumental,,,,----- -- ---- --- -- --- -------- ------------ ---------- --<br>- writing ------ --------- -- ------------ -- --- ---- -----<br>------ ---- ---- ------ ------ ------- --- ----- ---------<br>---- --- -------- -------- --- --- -- ------- --- --- -----<br>-- --- ------ ------- --- --- -------- ---- --------- --<br>---------- -- -------- ----------------,1259229.7100001015,1259226.4750003815,1258601.117,1258614.5000001416,1258617.784,1259234.463,,11,writing
screen,html.Screen,2_3_1_0_1_12,2021-04-30T10:59:30.593Z,,,,,,,,,,,,,,,,,11,,,,,,,,,,,,,,496.07200009701774,,response,,,,4,C,,,,,,Space,keypress(Space),,,,instrumental,,,,----- -- ---- --- -- --- -------- ------------ ---------- --<br>- ------- system --------- -- ------------ -- --- ---- -----<br>------ ---- ---- ------ ------ ------- --- ----- ---------<br>---- --- -------- -------- --- --- -- ------- --- --- -----<br>-- --- ------ ------- --- --- -------- ---- --------- --<br>---------- -- -------- ----------------,1259733.69500041,1259730.535000097,1259217.796,1259229.879999999,1259234.463,1259734.473,,12,system
screen,html.Screen,2_3_1_0_1_13,2021-04-30T10:59:31.619Z,,,,,,,,,,,,,,,,,11,,,,,,,,,,,,,,1021.9070001516957,,response,,,,4,C,,,,,,Space,keypress(Space),,,,instrumental,,,,----- -- ---- --- -- --- -------- ------------ ---------- --<br>- ------- ------ comprised -- ------------ -- --- ---- -----<br>------ ---- ---- ------ ------ ------- --- ----- ---------<br>---- --- -------- -------- --- --- -- ------- --- --- -----<br>-- --- ------ ------- --- --- -------- ---- --------- --<br>---------- -- -------- ----------------,1260759.6249999478,1260756.3800001517,1259717.806,1259733.8650003076,1259734.473,1260767.827,,13,comprised
screen,html.Screen,2_3_1_0_1_14,2021-04-30T10:59:32.078Z,,,,,,,,,,,,,,,,,11,,,,,,,,,,,,,,446.3680000077002,,response,,,,4,C,,,,,,Space,keypress(Space),,,,instrumental,,,,----- -- ---- --- -- --- -------- ------------ ---------- --<br>- ------- ------ --------- of ------------ -- --- ---- -----<br>------ ---- ---- ------ ------ ------- --- ----- ---------<br>---- --- -------- -------- --- --- -- ------- --- --- -----<br>-- --- ------ ------- --- --- -------- ---- --------- --<br>---------- -- -------- ----------------,1261218.150000088,1261214.1950000077,1260751.16,1260759.8000001162,1260767.827,1261234.503,,14,of
screen,html.Screen,2_3_1_0_1_15,2021-04-30T10:59:33.693Z,,,,,,,,,,,,,,,,,11,,,,,,,,,,,,,,1595.8720003687777,,response,,,,4,C,,,,,,Space,keypress(Space),,,,instrumental,,,,----- -- ---- --- -- --- -------- ------------ ---------- --<br>- ------- ------ --------- -- pictographs. -- --- ---- -----<br>------ ---- ---- ------ ------ ------- --- ----- ---------<br>---- --- -------- -------- --- --- -- ------- --- --- -----<br>-- --- ------ ------- --- --- -------- ---- --------- --<br>---------- -- -------- ----------------,1262833.7400001474,1262830.3750003688,1261217.836,1261218.3250002563,1261234.503,1262834.535,,15,pictographs.
screen,html.Screen,2_3_1_0_1_16,2021-04-30T10:59:34.197Z,,,,,,,,,,,,,,,,,11,,,,,,,,,,,,,,499.69500015326776,,response,,,,4,C,,,,,,Space,keypress(Space),,,,instrumental,,,,----- -- ---- --- -- --- -------- ------------ ---------- --<br>- ------- ------ --------- -- ------------ It --- ---- -----<br>------ ---- ---- ------ ------ ------- --- ----- ---------<br>---- --- -------- -------- --- --- -- ------- --- --- -----<br>-- --- ------ ------- --- --- -------- ---- --------- --<br>---------- -- -------- ----------------,1263337.6350002363,1263334.2300001532,1262817.868,1262833.9150003158,1262834.535,1263351.212,,16,It
screen,html.Screen,2_3_1_0_1_17,2021-04-30T10:59:34.639Z,,,,,,,,,,,,,,,,,11,,,,,,,,,,,,,,425.1080001790542,,response,,,,4,C,,,,,,Space,keypress(Space),,,,instrumental,,,,----- -- ---- --- -- --- -------- ------------ ---------- --<br>- ------- ------ --------- -- ------------ -- has ---- -----<br>------ ---- ---- ------ ------ ------- --- ----- ---------<br>---- --- -------- -------- --- --- -- ------- --- --- -----<br>-- --- ------ ------- --- --- -------- ---- --------- --<br>---------- -- -------- ----------------,1263779.5850001276,1263776.320000179,1263334.545,1263337.8200000152,1263351.212,1263784.954,,17,has
screen,html.Screen,2_3_1_0_1_18,2021-04-30T10:59:35.091Z,,,,,,,,,,,,,,,,,11,,,,,,,,,,,,,,443.22600009292364,,response,,,,4,C,,,,,,Space,keypress(Space),,,,instrumental,,,,----- -- ---- --- -- --- -------- ------------ ---------- --<br>- ------- ------ --------- -- ------------ -- --- been -----<br>------ ---- ---- ------ ------ ------- --- ----- ---------<br>---- --- -------- -------- --- --- -- ------- --- --- -----<br>-- --- ------ ------- --- --- -------- ---- --------- --<br>---------- -- -------- ----------------,1264231.7650001496,1264228.1800000928,1263768.287,1263779.755000025,1263784.954,1264234.963,,18,been
screen,html.Screen,2_3_1_0_1_19,2021-04-30T10:59:35.692Z,,,,,,,,,,,,,,,,,11,,,,,,,,,,,,,,594.1770000453107,,response,,,,4,C,,,,,,Space,keypress(Space),,,,instrumental,,,,----- -- ---- --- -- --- -------- ------------ ---------- --<br>- ------- ------ --------- -- ------------ -- --- ---- found<br>------ ---- ---- ------ ------ ------- --- ----- ---------<br>---- --- -------- -------- --- --- -- ------- --- --- -----<br>-- --- ------ ------- --- --- -------- ---- --------- --<br>---------- -- -------- ----------------,1264832.3650001548,1264829.1400000453,1264218.296,1264231.9500003941,1264234.963,1264834.975,,19,found
screen,html.Screen,2_3_1_0_1_20,2021-04-30T10:59:36.320Z,,,,,,,,,,,,,,,,,11,,,,,,,,,,,,,,622.1700003421865,,response,,,,4,C,,,,,,Space,keypress(Space),,,,instrumental,,,,----- -- ---- --- -- --- -------- ------------ ---------- --<br>- ------- ------ --------- -- ------------ -- --- ---- -----<br>carved ---- ---- ------ ------ ------- --- ----- ---------<br>---- --- -------- -------- --- --- -- ------- --- --- -----<br>-- --- ------ ------- --- --- -------- ---- --------- --<br>---------- -- -------- ----------------,1265460.4550004005,1265457.1450003423,1264818.308,1264832.5400003232,1264834.975,1265468.321,,20,carved
screen,html.Screen,2_3_1_0_1_21,2021-04-30T10:59:36.882Z,,,,,,,,,,,,,,,,,11,,,,,,,,,,,,,,550.7340000406839,,response,,,,4,C,,,,,,Space,keypress(Space),,,,instrumental,,,,----- -- ---- --- -- --- -------- ------------ ---------- --<br>- ------- ------ --------- -- ------------ -- --- ---- -----<br>------ into ---- ------ ------ ------- --- ----- ---------<br>---- --- -------- -------- --- --- -- ------- --- --- -----<br>-- --- ------ ------- --- --- -------- ---- --------- --<br>---------- -- -------- ----------------,1266022.2400003113,1266019.0550000407,1265451.654,1265460.625000298,1265468.321,1266034.999,,21,into
screen,html.Screen,2_3_1_0_1_22,2021-04-30T10:59:37.326Z,,,,,,,,,,,,,,,,,11,,,,,,,,,,,,,,428.01600033580326,,response,,,,4,C,,,,,,Space,keypress(Space),,,,instrumental,,,,----- -- ---- --- -- --- -------- ------------ ---------- --<br>- ------- ------ --------- -- ------------ -- --- ---- -----<br>------ ---- many ------ ------ ------- --- ----- ---------<br>---- --- -------- -------- --- --- -- ------- --- --- -----<br>-- --- ------ ------- --- --- -------- ---- --------- --<br>---------- -- -------- ----------------,1266466.310000047,1266463.0150003359,1266018.332,1266022.4100002088,1266034.999,1266468.341,,22,many
screen,html.Screen,2_3_1_0_1_23,2021-04-30T10:59:37.723Z,,,,,,,,,,,,,,,,,11,,,,,,,,,,,,,,391.6840002927929,,response,,,,4,C,,,,,,Space,keypress(Space),,,,instrumental,,,,----- -- ---- --- -- --- -------- ------------ ---------- --<br>- ------- ------ --------- -- ------------ -- --- ---- -----<br>------ ---- ---- oblong ------ ------- --- ----- ---------<br>---- --- -------- -------- --- --- -- ------- --- --- -----<br>-- --- ------ ------- --- --- -------- ---- --------- --<br>---------- -- -------- ----------------,1266863.480000291,1266860.0250002928,1266451.674,1266466.4800004102,1266468.341,1266868.349,,23,oblong
screen,html.Screen,2_3_1_0_1_24,2021-04-30T10:59:38.626Z,,,,,,,,,,,,,,,,,11,,,,,,,,,,,,,,894.6360003869049,,response,,,,4,C,,,,,,Space,keypress(Space),,,,instrumental,,,,----- -- ---- --- -- --- -------- ------------ ---------- --<br>- ------- ------ --------- -- ------------ -- --- ---- -----<br>------ ---- ---- ------ wooden ------- --- ----- ---------<br>---- --- -------- -------- --- --- -- ------- --- --- -----<br>-- --- ------ ------- --- --- -------- ---- --------- --<br>---------- -- -------- ----------------,1267766.2600004114,1267762.9850003868,1266851.682,1266863.6549999937,1266868.349,1267768.367,,24,wooden
screen,html.Screen,2_3_1_0_1_25,2021-04-30T10:59:39.165Z,,,,,,,,,,,,,,,,,11,,,,,,,,,,,,,,533.4330000155605,,response,,,,4,C,,,,,,Space,keypress(Space),,,,instrumental,,,,----- -- ---- --- -- --- -------- ------------ ---------- --<br>- ------- ------ --------- -- ------------ -- --- ---- -----<br>------ ---- ---- ------ ------ tablets --- ----- ---------<br>---- --- -------- -------- --- --- -- ------- --- --- -----<br>-- --- ------ ------- --- --- -------- ---- --------- --<br>---------- -- -------- ----------------,1268305.6100001559,1268301.8000000156,1267751.7,1267766.440000385,1267768.367,1268318.378,,25,tablets
screen,html.Screen,2_3_1_0_1_26,2021-04-30T10:59:39.645Z,,,,,,,,,,,,,,,,,11,,,,,,,,,,,,,,463.52700009802356,,response,,,,4,C,,,,,,Space,keypress(Space),,,,instrumental,,,,----- -- ---- --- -- --- -------- ------------ ---------- --<br>- ------- ------ --------- -- ------------ -- --- ---- -----<br>------ ---- ---- ------ ------ ------- and ----- ---------<br>---- --- -------- -------- --- --- -- ------- --- --- -----<br>-- --- ------ ------- --- --- -------- ---- --------- --<br>---------- -- -------- ----------------,1268785.1300002076,1268781.905000098,1268301.711,1268305.7900001295,1268318.378,1268801.721,,26,and
screen,html.Screen,2_3_1_0_1_27,2021-04-30T10:59:40.101Z,,,,,,,,,,,,,,,,,11,,,,,,,,,,,,,,436.11900007445365,,response,,,,4,C,,,,,,Space,keypress(Space),,,,instrumental,,,,----- -- ---- --- -- --- -------- ------------ ---------- --<br>- ------- ------ --------- -- ------------ -- --- ---- -----<br>------ ---- ---- ------ ------ ------- --- other ---------<br>---- --- -------- -------- --- --- -- ------- --- --- -----<br>-- --- ------ ------- --- --- -------- ---- --------- --<br>---------- -- -------- ----------------,1269241.0800000653,1269237.8400000744,1268785.054,1268785.3100001812,1268801.721,1269251.73,,27,other
screen,html.Screen,2_3_1_0_1_28,2021-04-30T10:59:41.133Z,,,,,,,,,,,,,,,,,11,,,,,,,,,,,,,,1018.0750001636334,,response,,,,4,C,,,,,,Space,keypress(Space),,,,instrumental,,,,----- -- ---- --- -- --- -------- ------------ ---------- --<br>- ------- ------ --------- -- ------------ -- --- ---- -----<br>------ ---- ---- ------ ------ ------- --- ----- artifacts<br>---- --- -------- -------- --- --- -- ------- --- --- -----<br>-- --- ------ ------- --- --- -------- ---- --------- --<br>---------- -- -------- ----------------,1270273.4450004064,1270269.8050001636,1269235.063,1269241.260000039,1269251.73,1270285.084,,28,artifacts
screen,html.Screen,2_3_1_0_1_29,2021-04-30T10:59:41.722Z,,,,,,,,,,,,,,,,,11,,,,,,,,,,,,,,573.7810003075283,,response,,,,4,C,,,,,,Space,keypress(Space),,,,instrumental,,,,----- -- ---- --- -- --- -------- ------------ ---------- --<br>- ------- ------ --------- -- ------------ -- --- ---- -----<br>------ ---- ---- ------ ------ ------- --- ----- ---------<br>from --- -------- -------- --- --- -- ------- --- --- -----<br>-- --- ------ ------- --- --- -------- ---- --------- --<br>---------- -- -------- ----------------,1270862.1400003321,1270858.8650003076,1270268.417,1270273.620000109,1270285.084,1270868.429,,29,from
screen,html.Screen,2_3_1_0_1_30,2021-04-30T10:59:42.214Z,,,,,,,,,,,,,,,,,11,,,,,,,,,,,,,,482.3210002160631,,response,,,,4,C,,,,,,Space,keypress(Space),,,,instrumental,,,,----- -- ---- --- -- --- -------- ------------ ---------- --<br>- ------- ------ --------- -- ------------ -- --- ---- -----<br>------ ---- ---- ------ ------ ------- --- ----- ---------<br>---- the -------- -------- --- --- -- ------- --- --- -----<br>-- --- ------ ------- --- --- -------- ---- --------- --<br>---------- -- -------- ----------------,1271354.590000119,1271350.750000216,1270851.762,1270862.3100002296,1270868.429,1271368.439,,30,the
screen,html.Screen,2_3_1_0_1_31,2021-04-30T10:59:42.798Z,,,,,,,,,,,,,,,,,11,,,,,,,,,,,,,,566.2810002521146,,response,,,,4,C,,,,,,Space,keypress(Space),,,,instrumental,,,,----- -- ---- --- -- --- -------- ------------ ---------- --<br>- ------- ------ --------- -- ------------ -- --- ---- -----<br>------ ---- ---- ------ ------ ------- --- ----- ---------<br>---- --- island's -------- --- --- -- ------- --- --- -----<br>-- --- ------ ------- --- --- -------- ---- --------- --<br>---------- -- -------- ----------------,1271938.3249999955,1271934.7200002521,1271351.772,1271354.830000084,1271368.439,1271951.784,,31,island's
screen,html.Screen,2_3_1_0_1_32,2021-04-30T10:59:43.491Z,,,,,,,,,,,,,,,,,11,,,,,,,,,,,,,,675.8860003072768,,response,,,,4,C,,,,,,Space,keypress(Space),,,,instrumental,,,,----- -- ---- --- -- --- -------- ------------ ---------- --<br>- ------- ------ --------- -- ------------ -- --- ---- -----<br>------ ---- ---- ------ ------ ------- --- ----- ---------<br>---- --- -------- history. --- --- -- ------- --- --- -----<br>-- --- ------ ------- --- --- -------- ---- --------- --<br>---------- -- -------- ----------------,1272631.0200002044,1272627.6700003073,1271935.117,1271938.51000024,1271951.784,1272635.131,,32,history.
screen,html.Screen,2_3_1_0_1_33,2021-04-30T10:59:44.034Z,,,,,,,,,,,,,,,,,11,,,,,,,,,,,,,,535.4440003456548,,response,,,,4,C,,,,,,Space,keypress(Space),,,,instrumental,,,,----- -- ---- --- -- --- -------- ------------ ---------- --<br>- ------- ------ --------- -- ------------ -- --- ---- -----<br>------ ---- ---- ------ ------ ------- --- ----- ---------<br>---- --- -------- -------- The --- -- ------- --- --- -----<br>-- --- ------ ------- --- --- -------- ---- --------- --<br>---------- -- -------- ----------------,1273173.764999956,1273170.5750003457,1272618.464,1272631.1950003728,1272635.131,1273185.142,,33,The
screen,html.Screen,2_3_1_0_1_34,2021-04-30T10:59:44.556Z,,,,,,,,,,,,,,,,,11,,,,,,,,,,,,,,508.4679999584332,,response,,,,4,C,,,,,,Space,keypress(Space),,,,instrumental,,,,----- -- ---- --- -- --- -------- ------------ ---------- --<br>- ------- ------ --------- -- ------------ -- --- ---- -----<br>------ ---- ---- ------ ------ ------- --- ----- ---------<br>---- --- -------- -------- --- art -- ------- --- --- -----<br>-- --- ------ ------- --- --- -------- ---- --------- --<br>---------- -- -------- ----------------,1273696.729999967,1273693.6099999584,1273168.475,1273173.935000319,1273185.142,1273701.819,,34,art
screen,html.Screen,2_3_1_0_1_35,2021-04-30T10:59:45.082Z,,,,,,,,,,,,,,,,,11,,,,,,,,,,,,,,516.746000221232,,response,,,,4,C,,,,,,Space,keypress(Space),,,,instrumental,,,,----- -- ---- --- -- --- -------- ------------ ---------- --<br>- ------- ------ --------- -- ------------ -- --- ---- -----<br>------ ---- ---- ------ ------ ------- --- ----- ---------<br>---- --- -------- -------- --- --- of ------- --- --- -----<br>-- --- ------ ------- --- --- -------- ---- --------- --<br>---------- -- -------- ----------------,1274222.1900001168,1274218.5650002211,1273685.152,1273697.140000295,1273701.819,1274235.717,,35,of
screen,html.Screen,2_3_1_0_1_36,2021-04-30T10:59:45.586Z,,,,,,,,,,,,,,,,,11,,,,,,,,,,,,,,486.8280002588872,,response,,,,4,C,,,,,,Space,keypress(Space),,,,instrumental,,,,----- -- ---- --- -- --- -------- ------------ ---------- --<br>- ------- ------ --------- -- ------------ -- --- ---- -----<br>------ ---- ---- ------ ------ ------- --- ----- ---------<br>---- --- -------- -------- --- --- -- writing --- --- -----<br>-- --- ------ ------- --- --- -------- ---- --------- --<br>---------- -- -------- ----------------,1274725.950000342,1274722.5450002588,1274219.05,1274222.450000234,1274235.717,1274735.727,,36,writing
