sender,sender_type,sender_id,timestamp,meta,,Blues,Classical,Country,Dance,Electronic,Folk,Gospel,Hip-Hop,Jazz,Latin,Musical/Film,New-age,Pop,Prolific_id,Provo_ID,R&B,Rap,Reggae,Religious,Rock,Soul,Swing,Traditional,age,artist_name,correct,correctResponse,distraction,duration,education,ended_on,familiarity,gender,headphone_check_performance,item,list,music_frequency,offensiveness,pleasantness,position_correct,preference,response,response_action,snippet_file,song_name,song_rating,sound,stimulus_1,stimulus_2,stimulus_3,text,time_commit,time_end,time_render,time_run,time_show,time_switch,url,word,word_ID
Prolific ID,html.Form,0,2021-04-26T18:59:39.747Z,"{""labjs_version"":""20.2.2"",""labjs_build"":{""flavor"":""production"",""commit"":""a25486e0c714a0ae2ce03ff94b7bb6896854dcfa""},""location"":""https://run.pavlovia.org/mvasilev/prolific_music_d/"",""userAgent"":""Mozilla/5.0 (Macintosh; Intel Mac OS X 11_2_3) AppleWebKit/537.36 (KHTML, like Gecko) Chrome/89.0.4389.128 Safari/537.36"",""platform"":""MacIntel"",""language"":""en-US"",""locale"":""en-GB"",""timeZone"":""Europe/London"",""timezoneOffset"":-60,""screen_width"":1792,""screen_height"":1120,""scroll_width"":1792,""scroll_height"":968,""window_innerWidth"":1792,""window_innerHeight"":1016,""devicePixelRatio"":2}",,,,,,,,,,,,,,,60116d7090cb86053f05e921,,,,,,,,,,,,,,,24013.975000041817,,form submission,,,,,,,,,,,,,,,,,,,,,30862.73000005167,30862.400000041816,6831.759,6832.415000011679,6848.425,30864.95,{},,
Introduction,html.Screen,1_0,2021-04-26T18:59:48.458Z,,,,,,,,,,,,,,,,,,,,,,,,,,,,,,,8700.830000004451,,response,,,,,,,,,,,continue,click button,,,,,,,,,39573.45000002533,39565.78000000445,30848.284,30862.970000016503,30864.95,39581.499,,,
Volume calibration,html.Screen,1_1,2021-04-26T19:00:04.408Z,,,,,,,,,,,,,,,,,,,,,,,,,,,,,,,15939.216000049673,,response,,,,,,,,,,,continue,click button,,,,,,,,,55524.14500003215,55520.71500004968,39564.833,39573.62000003923,39581.499,55531.14,,,
Task instructions,html.Screen,1_2,2021-04-26T19:00:08.619Z,,,,,,,,,,,,,,,,,,,,,,,,,,,,,,,4202.3350000154605,,response,,,,,,,,,,,continue,click button,,,,,,,,,59735.72000005515,59733.47500001546,55514.474,55524.2450000369,55531.14,59747.985,,,
Sounds,html.Screen,1_3_0_0,2021-04-26T19:00:12.869Z,,,,,,,,,,,,,,,,,,,,,,,,,,,,,,,4249.830000000002,,timeout,,,,,,,,,3,,,,,,,,O,I,S,,63985.444999998435,63981.149,59731.319,59735.985000035726,59747.985,63997.815,,,
Judgement,html.Screen,1_3_0_1,2021-04-26T19:00:14.722Z,,,,,,,,,,,,,,,,,,,,,,,,,,,,true,3,,1837.9000000520027,,response,,,,,,,,,3,,3,click #choice-3,,,,,O,I,S,,65838.12500000931,65835.715000052,63981.149,63985.6200000504,63997.815,65847.741,,,
Trial,flow.Sequence,1_3_0,2021-04-26T19:00:14.722Z,,,,,,,,,,,,,,,,,,,,,,,,,,,,,,,6087.7300000520045,,completion,,,,,,,,,3,,,,,,,,O,I,S,,65838.42500002356,65835.715000052,59731.319,59735.93000002438,59747.985,65847.741,,,
Sounds,html.Screen,1_3_1_0,2021-04-26T19:00:18.966Z,,,,,,,,,,,,,,,,,,,,,,,,,,,,,,,4249.830000000002,,timeout,,,,,,,,,1,,,,,,,,S,O,I,,70082.34500000253,70080.905,65831.075,65838.56500004185,65847.741,70097.571,,,
Judgement,html.Screen,1_3_1_1,2021-04-26T19:00:20.604Z,,,,,,,,,,,,,,,,,,,,,,,,,,,,true,1,,1621.4190000230446,,response,,,,,,,,,1,,1,click #choice-1,,,,,S,O,I,,71720.90500005288,71718.99000002304,70080.905,70082.48000004096,70097.571,71731.028,,,
Trial,flow.Sequence,1_3_1,2021-04-26T19:00:20.604Z,,,,,,,,,,,,,,,,,,,,,,,,,,,,,,,5871.249000023046,,completion,,,,,,,,,1,,,,,,,,S,O,I,,71721.08000004664,71718.99000002304,65831.075,65838.52000004845,65847.741,71731.028,,,
Sounds,html.Screen,1_3_2_0,2021-04-26T19:00:24.849Z,,,,,,,,,,,,,,,,,,,,,,,,,,,,,,,4249.829999999987,,timeout,,,,,,,,,3,,,,,,,,I,O,S,,75965.42500000214,75964.192,71714.362,71721.20000002906,71731.028,75980.858,,,
Judgement,html.Screen,1_3_2_1,2021-04-26T19:00:25.287Z,,,,,,,,,,,,,,,,,,,,,,,,,,,,true,3,,421.80200002157653,,response,,,,,,,,,3,,3,click #choice-3,,,,,I,O,S,,76403.9450000273,76402.66000002157,75964.192,75965.5700000003,75980.858,76414.174,,,
Trial,flow.Sequence,1_3_2,2021-04-26T19:00:25.287Z,,,,,,,,,,,,,,,,,,,,,,,,,,,,,,,4671.632000021564,,completion,,,,,,,,,3,,,,,,,,I,O,S,,76404.0700000478,76402.66000002157,71714.362,71721.16000001552,71731.028,76414.174,,,
Sounds,html.Screen,1_3_3_0,2021-04-26T19:00:29.532Z,,,,,,,,,,,,,,,,,,,,,,,,,,,,,,,4249.830000000002,,timeout,,,,,,,,,2,,,,,,,,O,S,I,,80648.84000003804,80647.338,76397.508,76404.16000003461,76414.174,80664.004,,,
Judgement,html.Screen,1_3_3_1,2021-04-26T19:00:30.360Z,,,,,,,,,,,,,,,,,,,,,,,,,,,,true,2,,810.8110000232264,,response,,,,,,,,,2,,2,click #choice-2,,,,,O,S,I,,81476.9550000201,81474.81500002323,80647.338,80648.93500000471,80664.004,81480.991,,,
Trial,flow.Sequence,1_3_3,2021-04-26T19:00:30.360Z,,,,,,,,,,,,,,,,,,,,,,,,,,,,,,,5060.641000023228,,completion,,,,,,,,,2,,,,,,,,O,S,I,,81477.11500001606,81474.81500002323,76397.508,76404.12000002107,76414.174,81480.991,,,
Sounds,html.Screen,1_3_4_0,2021-04-26T19:00:34.599Z,,,,,,,,,,,,,,,,,,,,,,,,,,,,,,,4249.830000000002,,timeout,,,,,,,,,2,,,,,,,,I,S,O,,85715.61500005191,85714.155,81464.325,81477.22000000067,81480.991,85730.821,,,
Judgement,html.Screen,1_3_4_1,2021-04-26T19:00:35.395Z,,,,,,,,,,,,,,,,,,,,,,,,,,,,true,2,,780.0840000319295,,response,,,,,,,,,2,,2,click #choice-2,,,,,I,S,O,,86512.14500004426,86510.90500003193,85714.155,85715.755000012,85730.821,86530.789,,,
Trial,flow.Sequence,1_3_4,2021-04-26T19:00:35.395Z,,,,,,,,,,,,,,,,,,,,,,,,,,,,,,,5029.914000031931,,completion,,,,,,,,,2,,,,,,,,I,S,O,,86512.27500004461,86510.90500003193,81464.325,81477.1850000252,81480.991,86530.789,,,
Sounds,html.Screen,1_3_5_0,2021-04-26T19:00:39.649Z,,,,,,,,,,,,,,,,,,,,,,,,,,,,,,,4249.830000000002,,timeout,,,,,,,,,1,,,,,,,,S,I,O,,90766.37500000652,90763.953,86514.123,86512.36000005156,86530.789,90780.619,,,
Judgement,html.Screen,1_3_5_1,2021-04-26T19:00:40.112Z,,,,,,,,,,,,,,,,,,,,,,,,,,,,true,1,,446.3409999999567,,response,,,,,,,,,1,,1,click #choice-1,,,,,S,I,O,,91229.18000002392,91226.95999999996,90763.953,90766.53500000248,90780.619,91231.016,,,
Trial,flow.Sequence,1_3_5,2021-04-26T19:00:40.112Z,,,,,,,,,,,,,,,,,,,,,,,,,,,,,,,4696.170999999958,,completion,,,,,,,,,1,,,,,,,,S,I,O,,91229.37500005355,91226.95999999996,86514.123,86512.33500003582,86530.789,91231.016,,,
Task,flow.Loop,1_3,2021-04-26T19:00:40.116Z,,,,,,,,,,,,,,,,,,,,,,,,,,,,,,,31478.974999999962,,completion,,,1,,,,,,,,,,,,,,,,,,91233.05999999866,91226.95999999996,59731.319,59735.870000033174,59747.985,91231.016,,,
Trap,html.Screen,1_4,2021-04-26T19:00:40.117Z,,,,,,,,,,,,,,,,,,,,,,,,,,,,,,,NaN,,skipped,,,,,,,,,,,,,,,,,,,,,91234.00500003481,91226.95999999996,,91233.92000002787,,91231.016,,,
Thanks,html.Screen,1_5,2021-04-26T19:00:43.289Z,,,,,,,,,,,,,,,,,,,,,,,,,,,,,,,3174.1390000440297,,response,,,,,,,,,,,continue,click button,,,,,,,,,94406.31000004942,94405.15500004403,91214.35,91234.08000002382,91231.016,96464.14,,,
Headphone screening,flow.Sequence,1,2021-04-26T19:00:43.289Z,,,,,,,,,,,,,,,,,,,,,,,,,,,,,,,63540.205000044036,,completion,,,,,,,,,,,,,,,,,,,,,94406.4200000139,94405.15500004403,30848.284,30862.945000000764,30864.95,96464.14,,,
Instructions,html.Page,2_0,2021-04-26T19:00:59.019Z,,,,,,,,,,,,,,,,,,,,,,,,,,,,,,,13671.740000016187,,form submission,,,,,,,,,,,,,,,,,,,,,110136.15000003483,110135.88000001619,96447.474,96454.50000005076,96464.14,110147.226,,,
Holding screen,html.Screen,2_1_0_0,2021-04-26T19:01:09.015Z,,,,,,,,,,,,,,,,,,,,,,,,,,,,,,,9999.600000000006,,timeout,,,,,,,,,,,,,,,,,,,,,120132.35000002896,120130.16,110130.56,110137.06000003731,110147.226,120146.826,,,
screen,html.Screen,2_1_0_1_0,2021-04-26T19:01:11.286Z,,,,,,,,,,,,,,,,,53,,,,,,,,,,,,,,2251.3540000183275,,response,,,,99,,,,,,,Space,keypress(Space),,,,,,,,When -- ----- -- ------ - ------- --- ----------<br>------------- ------ ------ ---- ---- ------- ----- -- ----<br>-------- ------- -- ---------- --- - --- ----- ----- ----<br>---- --- --- ----- --- ---- ---- ------- ----- ---- -------<br>--- --- -- ----- -- --- ---- -- --- ---- -- ------ ------<br>--- ----- -- ----,122403.91000005184,122398.18000001833,120130.16,120132.55000003846,120146.826,122413.402,,0,When
screen,html.Screen,2_1_0_1_1,2021-04-26T19:01:12.150Z,,,,,,,,,,,,,,,,,53,,,,,,,,,,,,,,850.3030000485014,,response,,,,99,,,,,,,Space,keypress(Space),,,,,,,,---- it ----- -- ------ - ------- --- ----------<br>------------- ------ ------ ---- ---- ------- ----- -- ----<br>-------- ------- -- ---------- --- - --- ----- ----- ----<br>---- --- --- ----- --- ---- ---- ------- ----- ---- -------<br>--- --- -- ----- -- --- ---- -- --- ---- -- ------ ------<br>--- ----- -- ----,123267.4850000185,123263.7050000485,122396.736,122404.03500001412,122413.402,123280.488,,1,it
screen,html.Screen,2_1_0_1_2,2021-04-26T19:01:12.601Z,,,,,,,,,,,,,,,,,53,,,,,,,,,,,,,,433.8570000439795,,response,,,,99,,,,,,,Space,keypress(Space),,,,,,,,---- -- comes -- ------ - ------- --- ----------<br>------------- ------ ------ ---- ---- ------- ----- -- ----<br>-------- ------- -- ---------- --- - --- ----- ----- ----<br>---- --- --- ----- --- ---- ---- ------- ----- ---- -------<br>--- --- -- ----- -- --- ---- -- --- ---- -- ------ ------<br>--- ----- -- ----,123718.60000002198,123714.34500004398,123263.822,123267.58500002325,123280.488,123730.47,,2,comes
screen,html.Screen,2_1_0_1_3,2021-04-26T19:01:13.111Z,,,,,,,,,,,,,,,,,53,,,,,,,,,,,,,,494.6900000308815,,response,,,,99,,,,,,,Space,keypress(Space),,,,,,,,---- -- ----- to ------ - ------- --- ----------<br>------------- ------ ------ ---- ---- ------- ----- -- ----<br>-------- ------- -- ---------- --- - --- ----- ----- ----<br>---- --- --- ----- --- ---- ---- ------- ----- ---- -------<br>--- --- -- ----- -- --- ---- -- --- ---- -- ------ ------<br>--- ----- -- ----,124229.02000002796,124225.16000003088,123713.804,123718.70000002673,123730.47,124230.45,,3,to
screen,html.Screen,2_1_0_1_4,2021-04-26T19:01:13.533Z,,,,,,,,,,,,,,,,,53,,,,,,,,,,,,,,416.3500000459171,,response,,,,99,,,,,,,Space,keypress(Space),,,,,,,,---- -- ----- -- having - ------- --- ----------<br>------------- ------ ------ ---- ---- ------- ----- -- ----<br>-------- ------- -- ---------- --- - --- ----- ----- ----<br>---- --- --- ----- --- ---- ---- ------- ----- ---- -------<br>--- --- -- ----- -- --- ---- -- --- ---- -- ------ ------<br>--- ----- -- ----,124650.735000032,124646.80000004591,124213.784,124229.15000002831,124230.45,124663.766,,4,having
screen,html.Screen,2_1_0_1_5,2021-04-26T19:01:14.004Z,,,,,,,,,,,,,,,,,53,,,,,,,,,,,,,,455.6490000228514,,response,,,,99,,,,,,,Space,keypress(Space),,,,,,,,---- -- ----- -- ------ a ------- --- ----------<br>------------- ------ ------ ---- ---- ------- ----- -- ----<br>-------- ------- -- ---------- --- - --- ----- ----- ----<br>---- --- --- ----- --- ---- ---- ------- ----- ---- -------<br>--- --- -- ----- -- --- ---- -- --- ---- -- ------ ------<br>--- ----- -- ----,125121.64500000654,125119.41500002285,124647.1,124650.83500003675,124663.766,125130.414,,5,a
screen,html.Screen,2_1_0_1_6,2021-04-26T19:01:14.373Z,,,,,,,,,,,,,,,,,53,,,,,,,,,,,,,,357.116000042166,,response,,,,99,,,,,,,Space,keypress(Space),,,,,,,,---- -- ----- -- ------ - lasting --- ----------<br>------------- ------ ------ ---- ---- ------- ----- -- ----<br>-------- ------- -- ---------- --- - --- ----- ----- ----<br>---- --- --- ----- --- ---- ---- ------- ----- ---- -------<br>--- --- -- ----- -- --- ---- -- --- ---- -- ------ ------<br>--- ----- -- ----,125490.9050000133,125487.53000004217,125113.748,125121.71500001568,125130.414,125497.066,,6,lasting
screen,html.Screen,2_1_0_1_7,2021-04-26T19:01:14.838Z,,,,,,,,,,,,,,,,,53,,,,,,,,,,,,,,455.2090000469325,,response,,,,99,,,,,,,Space,keypress(Space),,,,,,,,---- -- ----- -- ------ - ------- and ----------<br>------------- ------ ------ ---- ---- ------- ----- -- ----<br>-------- ------- -- ---------- --- - --- ----- ----- ----<br>---- --- --- ----- --- ---- ---- ------- ----- ---- -------<br>--- --- -- ----- -- --- ---- -- --- ---- -- ------ ------<br>--- ----- -- ----,125955.74500004295,125952.27500004694,125480.4,125491.00000003818,125497.066,125963.714,,7,and
screen,html.Screen,2_1_0_1_8,2021-04-26T19:01:15.413Z,,,,,,,,,,,,,,,,,53,,,,,,,,,,,,,,563.6360000475834,,response,,,,99,,,,,,,Space,keypress(Space),,,,,,,,---- -- ----- -- ------ - ------- --- fulfilling<br>------------- ------ ------ ---- ---- ------- ----- -- ----<br>-------- ------- -- ---------- --- - --- ----- ----- ----<br>---- --- --- ----- --- ---- ---- ------- ----- ---- -------<br>--- --- -- ----- -- --- ---- -- --- ---- -- ------ ------<br>--- ----- -- ----,126531.2200000044,126527.35000004759,125947.048,125955.83500002977,125963.714,126547.024,,8,fulfilling
screen,html.Screen,2_1_0_1_9,2021-04-26T19:01:15.927Z,,,,,,,,,,,,,,,,,53,,,,,,,,,,,,,,494.5860000147659,,response,,,,99,,,,,,,Space,keypress(Space),,,,,,,,"---- -- ----- -- ------ - ------- --- ----------<br>relationship, ------ ------ ---- ---- ------- ----- -- ----<br>-------- ------- -- ---------- --- - --- ----- ----- ----<br>---- --- --- ----- --- ---- ---- ------- ----- ---- -------<br>--- --- -- ----- -- --- ---- -- --- ---- -- ------ ------<br>--- ----- -- ----",127045.07500003092,127041.61000001477,126530.358,126531.31500002928,126547.024,127047.004,,9,"relationship,"
screen,html.Screen,2_1_0_1_10,2021-04-26T19:01:16.549Z,,,,,,,,,,,,,,,,,53,,,,,,,,,,,,,,616.6610000000364,,response,,,,99,,,,,,,Space,keypress(Space),,,,,,,,---- -- ----- -- ------ - ------- --- ----------<br>------------- common ------ ---- ---- ------- ----- -- ----<br>-------- ------- -- ---------- --- - --- ----- ----- ----<br>---- --- --- ----- --- ---- ---- ------- ----- ---- -------<br>--- --- -- ----- -- --- ---- -- --- ---- -- ------ ------<br>--- ----- -- ----,127667.32500004582,127663.66500000004,127030.338,127045.1700000558,127047.004,127680.312,,10,common
screen,html.Screen,2_1_0_1_11,2021-04-26T19:01:17.136Z,,,,,,,,,,,,,,,,,53,,,,,,,,,,,,,,570.8430000053777,,response,,,,99,,,,,,,Space,keypress(Space),,,,,,,,---- -- ----- -- ------ - ------- --- ----------<br>------------- ------ wisdom ---- ---- ------- ----- -- ----<br>-------- ------- -- ---------- --- - --- ----- ----- ----<br>---- --- --- ----- --- ---- ---- ------- ----- ---- -------<br>--- --- -- ----- -- --- ---- -- --- ---- -- ------ ------<br>--- ----- -- ----,128254.3950000545,128251.15500000538,127663.646,127667.42500005057,127680.312,128263.622,,11,wisdom
screen,html.Screen,2_1_0_1_12,2021-04-26T19:01:17.566Z,,,,,,,,,,,,,,,,,53,,,,,,,,,,,,,,416.6730000273965,,response,,,,99,,,,,,,Space,keypress(Space),,,,,,,,---- -- ----- -- ------ - ------- --- ----------<br>------------- ------ ------ says ---- ------- ----- -- ----<br>-------- ------- -- ---------- --- - --- ----- ----- ----<br>---- --- --- ----- --- ---- ---- ------- ----- ---- -------<br>--- --- -- ----- -- --- ---- -- --- ---- -- ------ ------<br>--- ----- -- ----,128683.65500000073,128680.2950000274,128246.956,128254.50000003912,128263.622,128696.938,,12,says
screen,html.Screen,2_1_0_1_13,2021-04-26T19:01:17.963Z,,,,,,,,,,,,,,,,,53,,,,,,,,,,,,,,381.11200001099496,,response,,,,99,,,,,,,Space,keypress(Space),,,,,,,,---- -- ----- -- ------ - ------- --- ----------<br>------------- ------ ------ ---- that ------- ----- -- ----<br>-------- ------- -- ---------- --- - --- ----- ----- ----<br>---- --- --- ----- --- ---- ---- ------- ----- ---- -------<br>--- --- -- ----- -- --- ---- -- --- ---- -- ------ ------<br>--- ----- -- ----,129081.2900000019,129078.05000001099,128680.272,128683.73500002781,128696.938,129096.922,,13,that
screen,html.Screen,2_1_0_1_14,2021-04-26T19:01:18.307Z,,,,,,,,,,,,,,,,,53,,,,,,,,,,,,,,324.5880000146717,,response,,,,99,,,,,,,Space,keypress(Space),,,,,,,,---- -- ----- -- ------ - ------- --- ----------<br>------------- ------ ------ ---- ---- feeling ----- -- ----<br>-------- ------- -- ---------- --- - --- ----- ----- ----<br>---- --- --- ----- --- ---- ---- ------- ----- ---- -------<br>--- --- -- ----- -- --- ---- -- --- ---- -- ------ ------<br>--- ----- -- ----,129425.39000004763,129421.51000001468,129080.256,129081.39000000665,129096.922,129430.242,,14,feeling
screen,html.Screen,2_1_0_1_15,2021-04-26T19:01:18.631Z,,,,,,,,,,,,,,,,,53,,,,,,,,,,,,,,315.18800000994815,,response,,,,99,,,,,,,Space,keypress(Space),,,,,,,,---- -- ----- -- ------ - ------- --- ----------<br>------------- ------ ------ ---- ---- ------- close -- ----<br>-------- ------- -- ---------- --- - --- ----- ----- ----<br>---- --- --- ----- --- ---- ---- ------- ----- ---- -------<br>--- --- -- ----- -- --- ---- -- --- ---- -- ------ ------<br>--- ----- -- ----,129748.89000004623,129745.43000000995,129413.576,129425.4850000143,129430.242,129763.562,,15,close
screen,html.Screen,2_1_0_1_16,2021-04-26T19:01:19.010Z,,,,,,,,,,,,,,,,,53,,,,,,,,,,,,,,360.29800005062134,,response,,,,99,,,,,,,Space,keypress(Space),,,,,,,,---- -- ----- -- ------ - ------- --- ----------<br>------------- ------ ------ ---- ---- ------- ----- to ----<br>-------- ------- -- ---------- --- - --- ----- ----- ----<br>---- --- --- ----- --- ---- ---- ------- ----- ---- -------<br>--- --- -- ----- -- --- ---- -- --- ---- -- ------ ------<br>--- ----- -- ----,130127.63500004075,130123.86000005063,129746.896,129748.99000005098,129763.562,130130.214,,16,to
screen,html.Screen,2_1_0_1_17,2021-04-26T19:01:19.396Z,,,,,,,,,,,,,,,,,53,,,,,,,,,,,,,,379.6510000290873,,response,,,,99,,,,,,,Space,keypress(Space),,,,,,,,---- -- ----- -- ------ - ------- --- ----------<br>------------- ------ ------ ---- ---- ------- ----- -- your<br>-------- ------- -- ---------- --- - --- ----- ----- ----<br>---- --- --- ----- --- ---- ---- ------- ----- ---- -------<br>--- --- -- ----- -- --- ---- -- --- ---- -- ------ ------<br>--- ----- -- ----,130513.78500001738,130509.8650000291,130113.548,130127.7350000455,130130.214,130530.198,,17,your
screen,html.Screen,2_1_0_1_18,2021-04-26T19:01:19.820Z,,,,,,,,,,,,,,,,,53,,,,,,,,,,,,,,403.39200002964935,,response,,,,99,,,,,,,Space,keypress(Space),,,,,,,,---- -- ----- -- ------ - ------- --- ----------<br>------------- ------ ------ ---- ---- ------- ----- -- ----<br>romantic ------- -- ---------- --- - --- ----- ----- ----<br>---- --- --- ----- --- ---- ---- ------- ----- ---- -------<br>--- --- -- ----- -- --- ---- -- --- ---- -- ------ ------<br>--- ----- -- ----,130937.69500002963,130933.59000002965,130513.532,130513.88500002213,130530.198,130946.848,,18,romantic
screen,html.Screen,2_1_0_1_19,2021-04-26T19:01:20.130Z,,,,,,,,,,,,,,,,,53,,,,,,,,,,,,,,297.74200001661666,,response,,,,99,,,,,,,Space,keypress(Space),,,,,,,,---- -- ----- -- ------ - ------- --- ----------<br>------------- ------ ------ ---- ---- ------- ----- -- ----<br>-------- partner -- ---------- --- - --- ----- ----- ----<br>---- --- --- ----- --- ---- ---- ------- ----- ---- -------<br>--- --- -- ----- -- --- ---- -- --- ---- -- ------ ------<br>--- ----- -- ----,131248.03000001702,131244.59000001661,130930.182,130937.79500003438,130946.848,131263.591,,19,partner
screen,html.Screen,2_1_0_1_20,2021-04-26T19:01:20.565Z,,,,,,,,,,,,,,,,,53,,,,,,,,,,,,,,415.319000016927,,response,,,,99,,,,,,,Space,keypress(Space),,,,,,,,---- -- ----- -- ------ - ------- --- ----------<br>------------- ------ ------ ---- ---- ------- ----- -- ----<br>-------- ------- is ---------- --- - --- ----- ----- ----<br>---- --- --- ----- --- ---- ---- ------- ----- ---- -------<br>--- --- -- ----- -- --- ---- -- --- ---- -- ------ ------<br>--- ----- -- ----,131682.52500001108,131678.9100000169,131246.925,131248.1250000419,131263.591,131696.907,,20,is
screen,html.Screen,2_1_0_1_21,2021-04-26T19:01:20.968Z,,,,,,,,,,,,,,,,,53,,,,,,,,,,,,,,385.2530000490369,,response,,,,99,,,,,,,Space,keypress(Space),,,,,,,,---- -- ----- -- ------ - ------- --- ----------<br>------------- ------ ------ ---- ---- ------- ----- -- ----<br>-------- ------- -- paramount. --- - --- ----- ----- ----<br>---- --- --- ----- --- ---- ---- ------- ----- ---- -------<br>--- --- -- ----- -- --- ---- -- --- ---- -- ------ ------<br>--- ----- -- ----,132085.7450000476,132082.16000004904,131680.241,131682.6300000539,131696.907,132096.891,,21,paramount.
screen,html.Screen,2_1_0_1_22,2021-04-26T19:01:21.590Z,,,,,,,,,,,,,,,,,53,,,,,,,,,,,,,,607.3340000522439,,response,,,,99,,,,,,,Space,keypress(Space),,,,,,,,---- -- ----- -- ------ - ------- --- ----------<br>------------- ------ ------ ---- ---- ------- ----- -- ----<br>-------- ------- -- ---------- But - --- ----- ----- ----<br>---- --- --- ----- --- ---- ---- ------- ----- ---- -------<br>--- --- -- ----- -- --- ---- -- --- ---- -- ------ ------<br>--- ----- -- ----,132708.19000003394,132704.22500005225,132080.225,132085.8400000143,132096.891,132713.533,,22,But
screen,html.Screen,2_1_0_1_23,2021-04-26T19:01:22.084Z,,,,,,,,,,,,,,,,,53,,,,,,,,,,,,,,484.3720000081812,,response,,,,99,,,,,,,Space,keypress(Space),,,,,,,,---- -- ----- -- ------ - ------- --- ----------<br>------------- ------ ------ ---- ---- ------- ----- -- ----<br>-------- ------- -- ---------- --- a --- ----- ----- ----<br>---- --- --- ----- --- ---- ---- ------- ----- ---- -------<br>--- --- -- ----- -- --- ---- -- --- ---- -- ------ ------<br>--- ----- -- ----,133201.73500000965,133197.90500000818,132696.867,132708.2900000387,132713.533,133213.513,,23,a
screen,html.Screen,2_1_0_1_24,2021-04-26T19:01:22.553Z,,,,,,,,,,,,,,,,,53,,,,,,,,,,,,,,454.002000037377,,response,,,,99,,,,,,,Space,keypress(Space),,,,,,,,---- -- ----- -- ------ - ------- --- ----------<br>------------- ------ ------ ---- ---- ------- ----- -- ----<br>-------- ------- -- ---------- --- - new ----- ----- ----<br>---- --- --- ----- --- ---- ---- ------- ----- ---- -------<br>--- --- -- ----- -- --- ---- -- --- ---- -- ------ ------<br>--- ----- -- ----,133671.08500003815,133667.51500003738,133196.847,133201.83000003453,133213.513,133680.161,,24,new
screen,html.Screen,2_1_0_1_25,2021-04-26T19:01:22.918Z,,,,,,,,,,,,,,,,,53,,,,,,,,,,,,,,353.04900002325303,,response,,,,99,,,,,,,Space,keypress(Space),,,,,,,,---- -- ----- -- ------ - ------- --- ----------<br>------------- ------ ------ ---- ---- ------- ----- -- ----<br>-------- ------- -- ---------- --- - --- study ----- ----<br>---- --- --- ----- --- ---- ---- ------- ----- ---- -------<br>--- --- -- ----- -- --- ---- -- --- ---- -- ------ ------<br>--- ----- -- ----,134035.89500003727,134033.21000002325,133663.495,133671.1850000429,133680.161,134046.813,,25,study
screen,html.Screen,2_1_0_1_26,2021-04-26T19:01:23.275Z,,,,,,,,,,,,,,,,,53,,,,,,,,,,,,,,342.3820000543201,,response,,,,99,,,,,,,Space,keypress(Space),,,,,,,,---- -- ----- -- ------ - ------- --- ----------<br>------------- ------ ------ ---- ---- ------- ----- -- ----<br>-------- ------- -- ---------- --- - --- ----- finds ----<br>---- --- --- ----- --- ---- ---- ------- ----- ---- -------<br>--- --- -- ----- -- --- ---- -- --- ---- -- ------ ------<br>--- ----- -- ----,134392.7300000214,134389.19500005431,134030.147,134035.98500002408,134046.813,134396.799,,26,finds
screen,html.Screen,2_1_0_1_27,2021-04-26T19:01:23.634Z,,,,,,,,,,,,,,,,,53,,,,,,,,,,,,,,351.2110000393586,,response,,,,99,,,,,,,Space,keypress(Space),,,,,,,,---- -- ----- -- ------ - ------- --- ----------<br>------------- ------ ------ ---- ---- ------- ----- -- ----<br>-------- ------- -- ---------- --- - --- ----- ----- that<br>---- --- --- ----- --- ---- ---- ------- ----- ---- -------<br>--- --- -- ----- -- --- ---- -- --- ---- -- ------ ------<br>--- ----- -- ----,134751.59500003792,134748.01000003936,134380.133,134393.47500004806,134396.799,134763.451,,27,that
screen,html.Screen,2_1_0_1_28,2021-04-26T19:01:24.023Z,,,,,,,,,,,,,,,,,53,,,,,,,,,,,,,,374.42400001490023,,response,,,,99,,,,,,,Space,keypress(Space),,,,,,,,---- -- ----- -- ------ - ------- --- ----------<br>------------- ------ ------ ---- ---- ------- ----- -- ----<br>-------- ------- -- ---------- --- - --- ----- ----- ----<br>it's --- --- ----- --- ---- ---- ------- ----- ---- -------<br>--- --- -- ----- -- --- ---- -- --- ---- -- ------ ------<br>--- ----- -- ----,135141.41500002006,135137.8750000149,134746.785,134752.15500005288,134763.451,135146.769,,28,it's
screen,html.Screen,2_1_0_1_29,2021-04-26T19:01:24.327Z,,,,,,,,,,,,,,,,,53,,,,,,,,,,,,,,294.4360000391898,,response,,,,99,,,,,,,Space,keypress(Space),,,,,,,,---- -- ----- -- ------ - ------- --- ----------<br>------------- ------ ------ ---- ---- ------- ----- -- ----<br>-------- ------- -- ---------- --- - --- ----- ----- ----<br>---- not --- ----- --- ---- ---- ------- ----- ---- -------<br>--- --- -- ----- -- --- ---- -- --- ---- -- ------ ------<br>--- ----- -- ----,135444.82500001322,135441.2050000392,135130.103,135141.5150000248,135146.769,135446.757,,29,not
screen,html.Screen,2_1_0_1_30,2021-04-26T19:01:24.564Z,,,,,,,,,,,,,,,,,53,,,,,,,,,,,,,,231.98300000300515,,response,,,,99,,,,,,,Space,keypress(Space),,,,,,,,---- -- ----- -- ------ - ------- --- ----------<br>------------- ------ ------ ---- ---- ------- ----- -- ----<br>-------- ------- -- ---------- --- - --- ----- ----- ----<br>---- --- how ----- --- ---- ---- ------- ----- ---- -------<br>--- --- -- ----- -- --- ---- -- --- ---- -- ------ ------<br>--- ----- -- ----,135682.5550000067,135678.74000000302,135430.091,135445.7650000113,135446.757,135696.747,,30,how
screen,html.Screen,2_1_0_1_31,2021-04-26T19:01:24.910Z,,,,,,,,,,,,,,,,,53,,,,,,,,,,,,,,328.19800001193653,,response,,,,99,,,,,,,Space,keypress(Space),,,,,,,,---- -- ----- -- ------ - ------- --- ----------<br>------------- ------ ------ ---- ---- ------- ----- -- ----<br>-------- ------- -- ---------- --- - --- ----- ----- ----<br>---- --- --- close --- ---- ---- ------- ----- ---- -------<br>--- --- -- ----- -- --- ---- -- --- ---- -- ------ ------<br>--- ----- -- ----,136028.5300000105,136024.94500001194,135680.081,135682.65500001144,135696.747,136030.067,,31,close
screen,html.Screen,2_1_0_1_32,2021-04-26T19:01:25.154Z,,,,,,,,,,,,,,,,,53,,,,,,,,,,,,,,238.02300002684933,,response,,,,99,,,,,,,Space,keypress(Space),,,,,,,,---- -- ----- -- ------ - ------- --- ----------<br>------------- ------ ------ ---- ---- ------- ----- -- ----<br>-------- ------- -- ---------- --- - --- ----- ----- ----<br>---- --- --- ----- you ---- ---- ------- ----- ---- -------<br>--- --- -- ----- -- --- ---- -- --- ---- -- ------ ------<br>--- ----- -- ----,136271.83500002138,136268.09000002686,136013.401,136028.6250000354,136030.067,136280.057,,32,you
screen,html.Screen,2_1_0_1_33,2021-04-26T19:01:25.398Z,,,,,,,,,,,,,,,,,53,,,,,,,,,,,,,,231.56800004284014,,response,,,,99,,,,,,,Space,keypress(Space),,,,,,,,---- -- ----- -- ------ - ------- --- ----------<br>------------- ------ ------ ---- ---- ------- ----- -- ----<br>-------- ------- -- ---------- --- - --- ----- ----- ----<br>---- --- --- ----- --- feel ---- ------- ----- ---- -------<br>--- --- -- ----- -- --- ---- -- --- ---- -- ------ ------<br>--- ----- -- ----,136515.71500004502,136511.62500004284,136263.391,136271.93000004627,136280.057,136530.047,,33,feel
screen,html.Screen,2_1_0_1_34,2021-04-26T19:01:25.642Z,,,,,,,,,,,,,,,,,53,,,,,,,,,,,,,,226.12800004592282,,response,,,,99,,,,,,,Space,keypress(Space),,,,,,,,---- -- ----- -- ------ - ------- --- ----------<br>------------- ------ ------ ---- ---- ------- ----- -- ----<br>-------- ------- -- ---------- --- - --- ----- ----- ----<br>---- --- --- ----- --- ---- that ------- ----- ---- -------<br>--- --- -- ----- -- --- ---- -- --- ---- -- ------ ------<br>--- ----- -- ----,136760.1700000232,136756.1750000459,136513.381,136515.83500002744,136530.047,136763.371,,34,that
screen,html.Screen,2_1_0_1_35,2021-04-26T19:01:26.240Z,,,,,,,,,,,,,,,,,53,,,,,,,,,,,,,,591.4340000099328,,response,,,,99,,,,,,,Space,keypress(Space),,,,,,,,---- -- ----- -- ------ - ------- --- ----------<br>------------- ------ ------ ---- ---- ------- ----- -- ----<br>-------- ------- -- ---------- --- - --- ----- ----- ----<br>---- --- --- ----- --- ---- ---- matters ----- ---- -------<br>--- --- -- ----- -- --- ---- -- --- ---- -- ------ ------<br>--- ----- -- ----,137358.56500000227,137354.80500000995,136746.705,136760.26000001002,136763.371,137363.347,,35,matters
screen,html.Screen,2_1_0_1_36,2021-04-26T19:01:26.534Z,,,,,,,,,,,,,,,,,53,,,,,,,,,,,,,,284.77300002711127,,response,,,,99,,,,,,,Space,keypress(Space),,,,,,,,"---- -- ----- -- ------ - ------- --- ----------<br>------------- ------ ------ ---- ---- ------- ----- -- ----<br>-------- ------- -- ---------- --- - --- ----- ----- ----<br>---- --- --- ----- --- ---- ---- ------- most, ---- -------<br>--- --- -- ----- -- --- ---- -- --- ---- -- ------ ------<br>--- ----- -- ----",137651.78500005277,137648.12000002712,137346.681,137358.6550000473,137363.347,137663.335,,36,"most,"
screen,html.Screen,2_1_0_1_37,2021-04-26T19:01:26.765Z,,,,,,,,,,,,,,,,,53,,,,,,,,,,,,,,216.115000007645,,response,,,,99,,,,,,,Space,keypress(Space),,,,,,,,---- -- ----- -- ------ - ------- --- ----------<br>------------- ------ ------ ---- ---- ------- ----- -- ----<br>-------- ------- -- ---------- --- - --- ----- ----- ----<br>---- --- --- ----- --- ---- ---- ------- ----- it's -------<br>--- --- -- ----- -- --- ---- -- --- ---- -- ------ ------<br>--- ----- -- ----,137883.41000000946,137879.45000000764,137646.669,137651.88000001945,137663.335,137896.659,,37,it's
screen,html.Screen,2_1_0_1_38,2021-04-26T19:01:27.112Z,,,,,,,,,,,,,,,,,53,,,,,,,,,,,,,,330.0560000552505,,response,,,,99,,,,,,,Space,keypress(Space),,,,,,,,---- -- ----- -- ------ - ------- --- ----------<br>------------- ------ ------ ---- ---- ------- ----- -- ----<br>-------- ------- -- ---------- --- - --- ----- ----- ----<br>---- --- --- ----- --- ---- ---- ------- ----- ---- whether<br>--- --- -- ----- -- --- ---- -- --- ---- -- ------ ------<br>--- ----- -- ----,138230.51500000292,138226.71500005526,137879.993,137883.525000012,137896.659,138246.645,,38,whether
screen,html.Screen,2_1_0_1_39,2021-04-26T19:01:27.550Z,,,,,,,,,,,,,,,,,53,,,,,,,,,,,,,,418.135000050097,,response,,,,99,,,,,,,Space,keypress(Space),,,,,,,,---- -- ----- -- ------ - ------- --- ----------<br>------------- ------ ------ ---- ---- ------- ----- -- ----<br>-------- ------- -- ---------- --- - --- ----- ----- ----<br>---- --- --- ----- --- ---- ---- ------- ----- ---- -------<br>you --- -- ----- -- --- ---- -- --- ---- -- ------ ------<br>--- ----- -- ----,138668.41000004206,138664.7800000501,138229.979,138230.6100000278,138246.645,138679.961,,39,you
screen,html.Screen,2_1_0_1_40,2021-04-26T19:01:27.814Z,,,,,,,,,,,,,,,,,53,,,,,,,,,,,,,,248.47900004696567,,response,,,,99,,,,,,,Space,keypress(Space),,,,,,,,---- -- ----- -- ------ - ------- --- ----------<br>------------- ------ ------ ---- ---- ------- ----- -- ----<br>-------- ------- -- ---------- --- - --- ----- ----- ----<br>---- --- --- ----- --- ---- ---- ------- ----- ---- -------<br>--- are -- ----- -- --- ---- -- --- ---- -- ------ ------<br>--- ----- -- ----,138931.93000002066,138928.44000004698,138663.295,138668.50000002887,138679.961,138946.617,,40,are
screen,html.Screen,2_1_0_1_41,2021-04-26T19:01:28.102Z,,,,,,,,,,,,,,,,,53,,,,,,,,,,,,,,269.61300002000644,,response,,,,99,,,,,,,Space,keypress(Space),,,,,,,,---- -- ----- -- ------ - ------- --- ----------<br>------------- ------ ------ ---- ---- ------- ----- -- ----<br>-------- ------- -- ---------- --- - --- ----- ----- ----<br>---- --- --- ----- --- ---- ---- ------- ----- ---- -------<br>--- --- as ----- -- --- ---- -- --- ---- -- ------ ------<br>--- ----- -- ----,139220.5350000295,139216.23000002,138929.951,138932.02000000747,138946.617,139229.939,,41,as
screen,html.Screen,2_1_0_1_42,2021-04-26T19:01:28.423Z,,,,,,,,,,,,,,,,,53,,,,,,,,,,,,,,307.7510000264738,,response,,,,99,,,,,,,Space,keypress(Space),,,,,,,,---- -- ----- -- ------ - ------- --- ----------<br>------------- ------ ------ ---- ---- ------- ----- -- ----<br>-------- ------- -- ---------- --- - --- ----- ----- ----<br>---- --- --- ----- --- ---- ---- ------- ----- ---- -------<br>--- --- -- close -- --- ---- -- --- ---- -- ------ ------<br>--- ----- -- ----,139541.18500003824,139537.6900000265,139213.273,139220.65000003204,139229.939,139546.593,,42,close
screen,html.Screen,2_1_0_1_43,2021-04-26T19:01:28.928Z,,,,,,,,,,,,,,,,,53,,,,,,,,,,,,,,495.4420000495156,,response,,,,99,,,,,,,Space,keypress(Space),,,,,,,,---- -- ----- -- ------ - ------- --- ----------<br>------------- ------ ------ ---- ---- ------- ----- -- ----<br>-------- ------- -- ---------- --- - --- ----- ----- ----<br>---- --- --- ----- --- ---- ---- ------- ----- ---- -------<br>--- --- -- ----- as --- ---- -- --- ---- -- ------ ------<br>--- ----- -- ----,140045.77500000596,140042.0350000495,139529.927,139541.27500002505,139546.593,140046.573,,43,as
screen,html.Screen,2_1_0_1_44,2021-04-26T19:01:29.277Z,,,,,,,,,,,,,,,,,53,,,,,,,,,,,,,,344.4670000167971,,response,,,,99,,,,,,,Space,keypress(Space),,,,,,,,---- -- ----- -- ------ - ------- --- ----------<br>------------- ------ ------ ---- ---- ------- ----- -- ----<br>-------- ------- -- ---------- --- - --- ----- ----- ----<br>---- --- --- ----- --- ---- ---- ------- ----- ---- -------<br>--- --- -- ----- -- you ---- -- --- ---- -- ------ ------<br>--- ----- -- ----,140394.72500002012,140391.0400000168,140029.907,140045.87000003085,140046.573,140396.559,,44,you
screen,html.Screen,2_1_0_1_45,2021-04-26T19:01:29.647Z,,,,,,,,,,,,,,,,,53,,,,,,,,,,,,,,364.81100002198946,,response,,,,99,,,,,,,Space,keypress(Space),,,,,,,,---- -- ----- -- ------ - ------- --- ----------<br>------------- ------ ------ ---- ---- ------- ----- -- ----<br>-------- ------- -- ---------- --- - --- ----- ----- ----<br>---- --- --- ----- --- ---- ---- ------- ----- ---- -------<br>--- --- -- ----- -- --- want -- --- ---- -- ------ ------<br>--- ----- -- ----,140765.25000005495,140761.370000022,140379.893,140394.81500000693,140396.559,140779.877,,45,want
screen,html.Screen,2_1_0_1_46,2021-04-26T19:01:30.035Z,,,,,,,,,,,,,,,,,53,,,,,,,,,,,,,,369.3130000255478,,response,,,,99,,,,,,,Space,keypress(Space),,,,,,,,---- -- ----- -- ------ - ------- --- ----------<br>------------- ------ ------ ---- ---- ------- ----- -- ----<br>-------- ------- -- ---------- --- - --- ----- ----- ----<br>---- --- --- ----- --- ---- ---- ------- ----- ---- -------<br>--- --- -- ----- -- --- ---- to --- ---- -- ------ ------<br>--- ----- -- ----,141152.7950000018,141149.19000002556,140763.211,140765.3350000037,140779.877,141163.195,,46,to
screen,html.Screen,2_1_0_1_47,2021-04-26T19:01:30.414Z,,,,,,,,,,,,,,,,,53,,,,,,,,,,,,,,365.05000005225884,,response,,,,99,,,,,,,Space,keypress(Space),,,,,,,,"---- -- ----- -- ------ - ------- --- ----------<br>------------- ------ ------ ---- ---- ------- ----- -- ----<br>-------- ------- -- ---------- --- - --- ----- ----- ----<br>---- --- --- ----- --- ---- ---- ------- ----- ---- -------<br>--- --- -- ----- -- --- ---- -- be, ---- -- ------ ------<br>--- ----- -- ----",141531.9550000131,141528.24500005227,141146.529,141152.89000002667,141163.195,141546.804,,47,"be,"
screen,html.Screen,2_1_0_1_48,2021-04-26T19:01:30.782Z,,,,,,,,,,,,,,,,,53,,,,,,,,,,,,,,349.51100001996383,,response,,,,99,,,,,,,Space,keypress(Space),,,,,,,,---- -- ----- -- ------ - ------- --- ----------<br>------------- ------ ------ ---- ---- ------- ----- -- ----<br>-------- ------- -- ---------- --- - --- ----- ----- ----<br>---- --- --- ----- --- ---- ---- ------- ----- ---- -------<br>--- --- -- ----- -- --- ---- -- --- even -- ------ ------<br>--- ----- -- ----,141899.82000004966,141896.31500001997,141530.138,141532.04000002006,141546.804,141913.456,,48,even
screen,html.Screen,2_1_0_1_49,2021-04-26T19:01:31.090Z,,,,,,,,,,,,,,,,,53,,,,,,,,,,,,,,291.29900001338683,,response,,,,99,,,,,,,Space,keypress(Space),,,,,,,,---- -- ----- -- ------ - ------- --- ----------<br>------------- ------ ------ ---- ---- ------- ----- -- ----<br>-------- ------- -- ---------- --- - --- ----- ----- ----<br>---- --- --- ----- --- ---- ---- ------- ----- ---- -------<br>--- --- -- ----- -- --- ---- -- --- ---- if ------ ------<br>--- ----- -- ----,142208.42999999877,142204.7550000134,141896.79,141899.91000003647,141913.456,142213.444,,49,if
screen,html.Screen,2_1_0_1_50,2021-04-26T19:01:31.346Z,,,,,,,,,,,,,,,,,53,,,,,,,,,,,,,,247.1860000450688,,response,,,,99,,,,,,,Space,keypress(Space),,,,,,,,---- -- ----- -- ------ - ------- --- ----------<br>------------- ------ ------ ---- ---- ------- ----- -- ----<br>-------- ------- -- ---------- --- - --- ----- ----- ----<br>---- --- --- ----- --- ---- ---- ------- ----- ---- -------<br>--- --- -- ----- -- --- ---- -- --- ---- -- that's ------<br>--- ----- -- ----,142464.40000005532,142460.63000004506,142196.778,142208.52500002366,142213.444,142480.1,,50,that's
screen,html.Screen,2_1_0_1_51,2021-04-26T19:01:31.785Z,,,,,,,,,,,,,,,,,53,,,,,,,,,,,,,,419.09000002554967,,response,,,,99,,,,,,,Space,keypress(Space),,,,,,,,---- -- ----- -- ------ - ------- --- ----------<br>------------- ------ ------ ---- ---- ------- ----- -- ----<br>-------- ------- -- ---------- --- - --- ----- ----- ----<br>---- --- --- ----- --- ---- ---- ------- ----- ---- -------<br>--- --- -- ----- -- --- ---- -- --- ---- -- ------ really<br>--- ----- -- ----,142903.0849999981,142899.19000002556,142463.434,142464.49000004213,142480.1,142913.416,,51,really
screen,html.Screen,2_1_0_1_52,2021-04-26T19:01:32.171Z,,,,,,,,,,,,,,,,,53,,,,,,,,,,,,,,371.6290000260051,,response,,,,99,,,,,,,Space,keypress(Space),,,,,,,,---- -- ----- -- ------ - ------- --- ----------<br>------------- ------ ------ ---- ---- ------- ----- -- ----<br>-------- ------- -- ---------- --- - --- ----- ----- ----<br>---- --- --- ----- --- ---- ---- ------- ----- ---- -------<br>--- --- -- ----- -- --- ---- -- --- ---- -- ------ ------<br>not ----- -- ----,143288.98500005016,143285.045000026,142896.75,142903.17000000505,142913.416,143296.734,,52,not
screen,html.Screen,2_1_0_1_53,2021-04-26T19:01:32.460Z,,,,,,,,,,,,,,,,,53,,,,,,,,,,,,,,277.521000043198,,response,,,,99,,,,,,,Space,keypress(Space),,,,,,,,---- -- ----- -- ------ - ------- --- ----------<br>------------- ------ ------ ---- ---- ------- ----- -- ----<br>-------- ------- -- ---------- --- - --- ----- ----- ----<br>---- --- --- ----- --- ---- ---- ------- ----- ---- -------<br>--- --- -- ----- -- --- ---- -- --- ---- -- ------ ------<br>--- close -- ----,143578.05500004906,143574.2550000432,143280.068,143289.08000001684,143296.734,143580.056,,53,close
screen,html.Screen,2_1_0_1_54,2021-04-26T19:01:32.813Z,,,,,,,,,,,,,,,,,53,,,,,,,,,,,,,,347.10400002109236,,response,,,,99,,,,,,,Space,keypress(Space),,,,,,,,---- -- ----- -- ------ - ------- --- ----------<br>------------- ------ ------ ---- ---- ------- ----- -- ----<br>-------- ------- -- ---------- --- - --- ----- ----- ----<br>---- --- --- ----- --- ---- ---- ------- ----- ---- -------<br>--- --- -- ----- -- --- ---- -- --- ---- -- ------ ------<br>--- ----- at ----,143930.84500002442,143927.1600000211,143563.39,143578.15000001574,143580.056,143946.708,,54,at
screen,html.Screen,2_1_0_1_55,2021-04-26T19:01:33.423Z,,,,,,,,,,,,,,,,,53,,,,,,,,,,,,,,591.362000009598,,response,,,,99,,,,,,,Space,keypress(Space),,,,,,,,---- -- ----- -- ------ - ------- --- ----------<br>------------- ------ ------ ---- ---- ------- ----- -- ----<br>-------- ------- -- ---------- --- - --- ----- ----- ----<br>---- --- --- ----- --- ---- ---- ------- ----- ---- -------<br>--- --- -- ----- -- --- ---- -- --- ---- -- ------ ------<br>--- ----- -- all.,144541.48000001442,144538.0700000096,143930.042,143930.93000003137,143946.708,144546.684,,55,all.
Item 99,flow.Loop,2_1_0_1,2021-04-26T19:01:33.423Z,,,,,,,,,,,,,,,,,,,,,,,,,,,,,,,24391.24400000961,,completion,,,,,D,,,,,,,,,,,silence,,,,,144541.6650000261,144538.0700000096,120130.16,120132.49000004726,120146.826,144546.684,,,
Question 1,html.Screen,2_1_0_2,2021-04-26T19:01:37.709Z,,,,,,,,,,,,,,,,,,,,,,,,,,,,true,FALSE,,4278.441000032122,,response,,,,99,D,,,,,,FALSE,click #choice-2,,,,silence,,,,,148827.45500002056,148825.12500003213,144530.018,144541.7450000532,144546.684,148829.846,,,
Question 2,html.Screen,2_1_0_3,2021-04-26T19:01:41.745Z,,,,,,,,,,,,,,,,,,,,,,,,,,,,true,TRUE,,4032.344000014389,,response,,,,99,D,,,,,,TRUE,click #choice-1,,,,silence,,,,,152863.75000001863,152862.19000001438,148813.18,148827.55000004545,148829.846,152879.936,,,
Item 99,flow.Sequence,2_1_0,2021-04-26T19:01:41.745Z,,,,,,,,,,,,,,,,,,,,,,,,,,,,,,,42714.964000014385,,completion,,,,,,,,,,,,,,,,,,,,,152863.87000000104,152862.19000001438,110130.56,110137.0300000417,110147.226,152879.936,,,
Holding screen,html.Screen,2_1_1_0,2021-04-26T19:01:51.746Z,,,,,,,,,,,,,,,,,,,,,,,,,,,,,,,9999.852000000014,,timeout,,,,,,,,,,,,,,,,,,,,,162864.4450000138,162863.122,152863.27,152863.94500004826,152879.936,162879.788,,,
screen,html.Screen,2_1_1_1_0,2021-04-26T19:01:52.681Z,,,,,,,,,,,,,,,,,54,,,,,,,,,,,,,,915.0720000236179,,response,,,,100,,,,,,,Space,keypress(Space),,,,,,,,At --- ---- --- ------ ----- ------- ---- -- --- ------- --<br>------- ---------- ------ -- ----- -- ----- -- ---- ------<br>--- ----- --- --- ------ -------- ----- --- ------ ----- --<br>----- ----- ---------- --- --- ------ ------ ---- -- ------<br>------- --- ------ ----- --- ---- ------- -- ---- --- --<br>------- ------,163799.56000001403,163794.86000002362,162863.122,162864.6150000277,162879.788,163813.084,,0,At
screen,html.Screen,2_1_1_1_1,2021-04-26T19:01:53.003Z,,,,,,,,,,,,,,,,,54,,,,,,,,,,,,,,304.58600000690785,,response,,,,100,,,,,,,Space,keypress(Space),,,,,,,,-- the ---- --- ------ ----- ------- ---- -- --- ------- --<br>------- ---------- ------ -- ----- -- ----- -- ---- ------<br>--- ----- --- --- ------ -------- ----- --- ------ ----- --<br>----- ----- ---------- --- --- ------ ------ ---- -- ------<br>------- --- ------ ----- --- ---- ------- -- ---- --- --<br>------- ------,164121.77000002703,164117.6700000069,163796.418,163799.66000001878,163813.084,164129.738,,1,the
screen,html.Screen,2_1_1_1_2,2021-04-26T19:01:53.205Z,,,,,,,,,,,,,,,,,54,,,,,,,,,,,,,,190.1970000358997,,response,,,,100,,,,,,,Space,keypress(Space),,,,,,,,-- --- time --- ------ ----- ------- ---- -- --- ------- --<br>------- ---------- ------ -- ----- -- ----- -- ---- ------<br>--- ----- --- --- ------ -------- ----- --- ------ ----- --<br>----- ----- ---------- --- --- ------ ------ ---- -- ------<br>------- --- ------ ----- --- ---- ------- -- ---- --- --<br>------- ------,164323.52500001434,164319.9350000359,164113.072,164121.86000001384,164129.738,164329.73,,2,time
screen,html.Screen,2_1_1_1_3,2021-04-26T19:01:53.603Z,,,,,,,,,,,,,,,,,54,,,,,,,,,,,,,,387.6200000499084,,response,,,,100,,,,,,,Space,keypress(Space),,,,,,,,-- --- ---- the ------ ----- ------- ---- -- --- ------- --<br>------- ---------- ------ -- ----- -- ----- -- ---- ------<br>--- ----- --- --- ------ -------- ----- --- ------ ----- --<br>----- ----- ---------- --- --- ------ ------ ---- -- ------<br>------- --- ------ ----- --- ---- ------- -- ---- --- --<br>------- ------,164722.05000004033,164717.35000004992,164313.064,164323.61500000115,164329.73,164729.714,,3,the
screen,html.Screen,2_1_1_1_4,2021-04-26T19:01:54.031Z,,,,,,,,,,,,,,,,,54,,,,,,,,,,,,,,416.89600005434477,,response,,,,100,,,,,,,Space,keypress(Space),,,,,,,,-- --- ---- --- French ----- ------- ---- -- --- ------- --<br>------- ---------- ------ -- ----- -- ----- -- ---- ------<br>--- ----- --- --- ------ -------- ----- --- ------ ----- --<br>----- ----- ---------- --- --- ------ ------ ---- -- ------<br>------- --- ------ ----- --- ---- ------- -- ---- --- --<br>------- ------,165149.83500004746,165146.61000005435,164713.048,164722.16500004288,164729.714,165163.03,,4,French
screen,html.Screen,2_1_1_1_5,2021-04-26T19:01:54.441Z,,,,,,,,,,,,,,,,,54,,,,,,,,,,,,,,393.48500000385684,,response,,,,100,,,,,,,Space,keypress(Space),,,,,,,,-- --- ---- --- ------ crown ------- ---- -- --- ------- --<br>------- ---------- ------ -- ----- -- ----- -- ---- ------<br>--- ----- --- --- ------ -------- ----- --- ------ ----- --<br>----- ----- ---------- --- --- ------ ------ ---- -- ------<br>------- --- ------ ----- --- ---- ------- -- ---- --- --<br>------- ------,165560.01500005368,165556.51500000386,165146.364,165149.92500003427,165163.03,165563.014,,5,crown
screen,html.Screen,2_1_1_1_6,2021-04-26T19:01:54.786Z,,,,,,,,,,,,,,,,,54,,,,,,,,,,,,,,337.99100005064975,,response,,,,100,,,,,,,Space,keypress(Space),,,,,,,,-- --- ---- --- ------ ----- secured ---- -- --- ------- --<br>------- ---------- ------ -- ----- -- ----- -- ---- ------<br>--- ----- --- --- ------ -------- ----- --- ------ ----- --<br>----- ----- ---------- --- --- ------ ------ ---- -- ------<br>------- --- ------ ----- --- ---- ------- -- ---- --- --<br>------- ------,165904.44500005106,165901.00500005065,165546.348,165560.1050000405,165563.014,165913,,6,secured
screen,html.Screen,2_1_1_1_7,2021-04-26T19:01:55.142Z,,,,,,,,,,,,,,,,,54,,,,,,,,,,,,,,344.52500002272427,,response,,,,100,,,,,,,Space,keypress(Space),,,,,,,,-- --- ---- --- ------ ----- ------- much -- --- ------- --<br>------- ---------- ------ -- ----- -- ----- -- ---- ------<br>--- ----- --- --- ------ -------- ----- --- ------ ----- --<br>----- ----- ---------- --- --- ------ ------ ---- -- ------<br>------- --- ------ ----- --- ---- ------- -- ---- --- --<br>------- ------,166260.56000002427,166257.52500002272,165896.334,165904.53500003787,165913,166262.986,,7,much
screen,html.Screen,2_1_1_1_8,2021-04-26T19:01:55.537Z,,,,,,,,,,,,,,,,,54,,,,,,,,,,,,,,388.9640000285872,,response,,,,100,,,,,,,Space,keypress(Space),,,,,,,,-- --- ---- --- ------ ----- ------- ---- of --- ------- --<br>------- ---------- ------ -- ----- -- ----- -- ---- ------<br>--- ----- --- --- ------ -------- ----- --- ------ ----- --<br>----- ----- ---------- --- --- ------ ------ ---- -- ------<br>------- --- ------ ----- --- ---- ------- -- ---- --- --<br>------- ------,166655.49000003375,166651.9500000286,166246.32,166260.64500003122,166262.986,166662.97,,8,of
screen,html.Screen,2_1_1_1_9,2021-04-26T19:01:55.843Z,,,,,,,,,,,,,,,,,54,,,,,,,,,,,,,,295.1950000181969,,response,,,,100,,,,,,,Space,keypress(Space),,,,,,,,-- --- ---- --- ------ ----- ------- ---- -- its ------- --<br>------- ---------- ------ -- ----- -- ----- -- ---- ------<br>--- ----- --- --- ------ -------- ----- --- ------ ----- --<br>----- ----- ---------- --- --- ------ ------ ---- -- ------<br>------- --- ------ ----- --- ---- ------- -- ---- --- --<br>------- ------,166961.7600000347,166958.1650000182,166646.304,166655.58000002056,166662.97,166962.958,,9,its
screen,html.Screen,2_1_1_1_10,2021-04-26T19:01:56.092Z,,,,,,,,,,,,,,,,,54,,,,,,,,,,,,,,244.83200001492514,,response,,,,100,,,,,,,Space,keypress(Space),,,,,,,,-- --- ---- --- ------ ----- ------- ---- -- --- revenue --<br>------- ---------- ------ -- ----- -- ----- -- ---- ------<br>--- ----- --- --- ------ -------- ----- --- ------ ----- --<br>----- ----- ---------- --- --- ------ ------ ---- -- ------<br>------- --- ------ ----- --- ---- ------- -- ---- --- --<br>------- ------,167211.22000005562,167207.79000001494,166946.292,166961.8500000215,166962.958,167212.948,,10,revenue
screen,html.Screen,2_1_1_1_11,2021-04-26T19:01:56.509Z,,,,,,,,,,,,,,,,,54,,,,,,,,,,,,,,410.5770000026969,,response,,,,100,,,,,,,Space,keypress(Space),,,,,,,,-- --- ---- --- ------ ----- ------- ---- -- --- ------- by<br>------- ---------- ------ -- ----- -- ----- -- ---- ------<br>--- ----- --- --- ------ -------- ----- --- ------ ----- --<br>----- ----- ---------- --- --- ------ ------ ---- -- ------<br>------- --- ------ ----- --- ---- ------- -- ---- --- --<br>------- ------,167627.54000001587,167623.5250000027,167196.282,167211.31000004243,167212.948,167629.598,,11,by
screen,html.Screen,2_1_1_1_12,2021-04-26T19:01:56.866Z,,,,,,,,,,,,,,,,,54,,,,,,,,,,,,,,350.9770000523422,,response,,,,100,,,,,,,Space,keypress(Space),,,,,,,,-- --- ---- --- ------ ----- ------- ---- -- --- ------- --<br>issuing ---------- ------ -- ----- -- ----- -- ---- ------<br>--- ----- --- --- ------ -------- ----- --- ------ ----- --<br>----- ----- ---------- --- --- ------ ------ ---- -- ------<br>------- --- ------ ----- --- ---- ------- -- ---- --- --<br>------- ------,167984.49500004062,167980.57500005234,167612.932,167627.64000002062,167629.598,167996.25,,12,issuing
screen,html.Screen,2_1_1_1_13,2021-04-26T19:01:57.112Z,,,,,,,,,,,,,,,,,54,,,,,,,,,,,,,,231.10500003909692,,response,,,,100,,,,,,,Space,keypress(Space),,,,,,,,-- --- ---- --- ------ ----- ------- ---- -- --- ------- --<br>------- government ------ -- ----- -- ----- -- ---- ------<br>--- ----- --- --- ------ -------- ----- --- ------ ----- --<br>----- ----- ---------- --- --- ------ ------ ---- -- ------<br>------- --- ------ ----- --- ---- ------- -- ---- --- --<br>------- ------,168231.01500002667,168227.3550000391,167979.584,167984.58500002744,167996.25,168246.24,,13,government
screen,html.Screen,2_1_1_1_14,2021-04-26T19:01:57.531Z,,,,,,,,,,,,,,,,,54,,,,,,,,,,,,,,400.40000004996546,,response,,,,100,,,,,,,Space,keypress(Space),,,,,,,,-- --- ---- --- ------ ----- ------- ---- -- --- ------- --<br>------- ---------- bonds. -- ----- -- ----- -- ---- ------<br>--- ----- --- --- ------ -------- ----- --- ------ ----- --<br>----- ----- ---------- --- --- ------ ------ ---- -- ------<br>------- --- ------ ----- --- ---- ------- -- ---- --- --<br>------- ------,168650.12500004377,168646.64000004996,168229.574,168231.1050000135,168246.24,168662.89,,14,bonds.
screen,html.Screen,2_1_1_1_15,2021-04-26T19:01:57.989Z,,,,,,,,,,,,,,,,,54,,,,,,,,,,,,,,441.2000000370899,,response,,,,100,,,,,,,Space,keypress(Space),,,,,,,,-- --- ---- --- ------ ----- ------- ---- -- --- ------- --<br>------- ---------- ------ In ----- -- ----- -- ---- ------<br>--- ----- --- --- ------ -------- ----- --- ------ ----- --<br>----- ----- ---------- --- --- ------ ------ ---- -- ------<br>------- --- ------ ----- --- ---- ------- -- ---- --- --<br>------- ------,169107.46000002837,169104.0900000371,168646.224,168650.21500003058,168662.89,169112.872,,15,In
screen,html.Screen,2_1_1_1_16,2021-04-26T19:01:58.343Z,,,,,,,,,,,,,,,,,54,,,,,,,,,,,,,,344.80300001238356,,response,,,,100,,,,,,,Space,keypress(Space),,,,,,,,"-- --- ---- --- ------ ----- ------- ---- -- --- ------- --<br>------- ---------- ------ -- 1727, -- ----- -- ---- ------<br>--- ----- --- --- ------ -------- ----- --- ------ ----- --<br>----- ----- ---------- --- --- ------ ------ ---- -- ------<br>------- --- ------ ----- --- ---- ------- -- ---- --- --<br>------- ------",169461.3600000157,169457.6750000124,169096.206,169107.55500005325,169112.872,169462.858,,16,"1727,"
screen,html.Screen,2_1_1_1_17,2021-04-26T19:01:59.205Z,,,,,,,,,,,,,,,,,54,,,,,,,,,,,,,,856.42200005427,,response,,,,100,,,,,,,Space,keypress(Space),,,,,,,,-- --- ---- --- ------ ----- ------- ---- -- --- ------- --<br>------- ---------- ------ -- ----- in ----- -- ---- ------<br>--- ----- --- --- ------ -------- ----- --- ------ ----- --<br>----- ----- ---------- --- --- ------ ------ ---- -- ------<br>------- --- ------ ----- --- ---- ------- -- ---- --- --<br>------- ------,170323.54500005022,170319.28000005428,169446.192,169461.45000000251,169462.858,170329.49,,17,in
screen,html.Screen,2_1_1_1_18,2021-04-26T19:01:59.583Z,,,,,,,,,,,,,,,,,54,,,,,,,,,,,,,,368.7499999979045,,response,,,,100,,,,,,,Space,keypress(Space),,,,,,,,-- --- ---- --- ------ ----- ------- ---- -- --- ------- --<br>------- ---------- ------ -- ----- -- order -- ---- ------<br>--- ----- --- --- ------ -------- ----- --- ------ ----- --<br>----- ----- ---------- --- --- ------ ------ ---- -- ------<br>------- --- ------ ----- --- ---- ------- -- ---- --- --<br>------- ------,170701.6200000071,170698.2399999979,170312.824,170323.63500003703,170329.49,170712.808,,18,order
screen,html.Screen,2_1_1_1_19,2021-04-26T19:01:59.908Z,,,,,,,,,,,,,,,,,54,,,,,,,,,,,,,,311.21200001167017,,response,,,,100,,,,,,,Space,keypress(Space),,,,,,,,-- --- ---- --- ------ ----- ------- ---- -- --- ------- --<br>------- ---------- ------ -- ----- -- ----- to ---- ------<br>--- ----- --- --- ------ -------- ----- --- ------ ----- --<br>----- ----- ---------- --- --- ------ ------ ---- -- ------<br>------- --- ------ ----- --- ---- ------- -- ---- --- --<br>------- ------,171027.0850000088,171024.02000001166,170696.142,170701.71500003198,170712.808,171029.462,,19,to
screen,html.Screen,2_1_1_1_20,2021-04-26T19:02:00.157Z,,,,,,,,,,,,,,,,,54,,,,,,,,,,,,,,243.3280000172672,,response,,,,100,,,,,,,Space,keypress(Space),,,,,,,,-- --- ---- --- ------ ----- ------- ---- -- --- ------- --<br>------- ---------- ------ -- ----- -- ----- -- save ------<br>--- ----- --- --- ------ -------- ----- --- ------ ----- --<br>----- ----- ---------- --- --- ------ ------ ---- -- ------<br>------- --- ------ ----- --- ---- ------- -- ---- --- --<br>------- ------,171275.80500004115,171272.79000001727,171012.796,171027.17500005383,171029.462,171279.452,,20,save
screen,html.Screen,2_1_1_1_21,2021-04-26T19:02:00.386Z,,,,,,,,,,,,,,,,,54,,,,,,,,,,,,,,221.49300003616372,,response,,,,100,,,,,,,Space,keypress(Space),,,,,,,,"-- --- ---- --- ------ ----- ------- ---- -- --- ------- --<br>------- ---------- ------ -- ----- -- ----- -- ---- money,<br>--- ----- --- --- ------ -------- ----- --- ------ ----- --<br>----- ----- ---------- --- --- ------ ------ ---- -- ------<br>------- --- ------ ----- --- ---- ------- -- ---- --- --<br>------- ------",171504.37500001863,171500.94500003615,171262.786,171275.89500002796,171279.452,171513.016,,21,"money,"
screen,html.Screen,2_1_1_1_22,2021-04-26T19:02:00.944Z,,,,,,,,,,,,,,,,,54,,,,,,,,,,,,,,544.7390000161831,,response,,,,100,,,,,,,Space,keypress(Space),,,,,,,,-- --- ---- --- ------ ----- ------- ---- -- --- ------- --<br>------- ---------- ------ -- ----- -- ----- -- ---- ------<br>the ----- --- --- ------ -------- ----- --- ------ ----- --<br>----- ----- ---------- --- --- ------ ------ ---- -- ------<br>------- --- ------ ----- --- ---- ------- -- ---- --- --<br>------- ------,172062.41500005126,172057.7550000162,171496.35,171504.46500000544,171513.016,172062.994,,22,the
screen,html.Screen,2_1_1_1_23,2021-04-26T19:02:01.326Z,,,,,,,,,,,,,,,,,54,,,,,,,,,,,,,,378.50100003549596,,response,,,,100,,,,,,,Space,keypress(Space),,,,,,,,-- --- ---- --- ------ ----- ------- ---- -- --- ------- --<br>------- ---------- ------ -- ----- -- ----- -- ---- ------<br>--- state --- --- ------ -------- ----- --- ------ ----- --<br>----- ----- ---------- --- --- ------ ------ ---- -- ------<br>------- --- ------ ----- --- ---- ------- -- ---- --- --<br>------- ------,172444.80500003556,172441.4950000355,172046.328,172062.5300000538,172062.994,172446.312,,23,state
screen,html.Screen,2_1_1_1_24,2021-04-26T19:02:01.624Z,,,,,,,,,,,,,,,,,54,,,,,,,,,,,,,,292.423000020819,,response,,,,100,,,,,,,Space,keypress(Space),,,,,,,,-- --- ---- --- ------ ----- ------- ---- -- --- ------- --<br>------- ---------- ------ -- ----- -- ----- -- ---- ------<br>--- ----- cut --- ------ -------- ----- --- ------ ----- --<br>----- ----- ---------- --- --- ------ ------ ---- -- ------<br>------- --- ------ ----- --- ---- ------- -- ---- --- --<br>------- ------,172742.69000004278,172738.73500002082,172429.646,172444.89500002237,172446.312,172746.3,,24,cut
screen,html.Screen,2_1_1_1_25,2021-04-26T19:02:01.943Z,,,,,,,,,,,,,,,,,54,,,,,,,,,,,,,,311.4850000118022,,response,,,,100,,,,,,,Space,keypress(Space),,,,,,,,-- --- ---- --- ------ ----- ------- ---- -- --- ------- --<br>------- ---------- ------ -- ----- -- ----- -- ---- ------<br>--- ----- --- the ------ -------- ----- --- ------ ----- --<br>----- ----- ---------- --- --- ------ ------ ---- -- ------<br>------- --- ------ ----- --- ---- ------- -- ---- --- --<br>------- ------,173061.49500003085,173057.7850000118,172729.634,172742.78500000946,172746.3,173062.954,,25,the
screen,html.Screen,2_1_1_1_26,2021-04-26T19:02:02.254Z,,,,,,,,,,,,,,,,,54,,,,,,,,,,,,,,307.7460000285937,,response,,,,100,,,,,,,Space,keypress(Space),,,,,,,,-- --- ---- --- ------ ----- ------- ---- -- --- ------- --<br>------- ---------- ------ -- ----- -- ----- -- ---- ------<br>--- ----- --- --- bonds' -------- ----- --- ------ ----- --<br>----- ----- ---------- --- --- ------ ------ ---- -- ------<br>------- --- ------ ----- --- ---- ------- -- ---- --- --<br>------- ------,173373.18000005325,173370.7000000286,173046.288,173061.58500001766,173062.954,173379.608,,26,bonds'
screen,html.Screen,2_1_1_1_27,2021-04-26T19:02:02.653Z,,,,,,,,,,,,,,,,,54,,,,,,,,,,,,,,388.9420000370592,,response,,,,100,,,,,,,Space,keypress(Space),,,,,,,,-- --- ---- --- ------ ----- ------- ---- -- --- ------- --<br>------- ---------- ------ -- ----- -- ----- -- ---- ------<br>--- ----- --- --- ------ interest ----- --- ------ ----- --<br>----- ----- ---------- --- --- ------ ------ ---- -- ------<br>------- --- ------ ----- --- ---- ------- -- ---- --- --<br>------- ------,173772.265000036,173768.55000003707,173362.942,173373.25500004226,173379.608,173779.592,,27,interest
screen,html.Screen,2_1_1_1_28,2021-04-26T19:02:02.984Z,,,,,,,,,,,,,,,,,54,,,,,,,,,,,,,,319.1080000313814,,response,,,,100,,,,,,,Space,keypress(Space),,,,,,,,-- --- ---- --- ------ ----- ------- ---- -- --- ------- --<br>------- ---------- ------ -- ----- -- ----- -- ---- ------<br>--- ----- --- --- ------ -------- rate. --- ------ ----- --<br>----- ----- ---------- --- --- ------ ------ ---- -- ------<br>------- --- ------ ----- --- ---- ------- -- ---- --- --<br>------- ------,174102.59000002407,174098.7000000314,173762.926,173772.35000004293,173779.592,174112.912,,28,rate.
screen,html.Screen,2_1_1_1_29,2021-04-26T19:02:03.391Z,,,,,,,,,,,,,,,,,54,,,,,,,,,,,,,,393.3480000528507,,response,,,,100,,,,,,,Space,keypress(Space),,,,,,,,-- --- ---- --- ------ ----- ------- ---- -- --- ------- --<br>------- ---------- ------ -- ----- -- ----- -- ---- ------<br>--- ----- --- --- ------ -------- ----- The ------ ----- --<br>----- ----- ---------- --- --- ------ ------ ---- -- ------<br>------- --- ------ ----- --- ---- ------- -- ---- --- --<br>------- ------,174509.81500005582,174506.26000005286,174096.246,174102.675000031,174112.912,174512.896,,29,The
screen,html.Screen,2_1_1_1_30,2021-04-26T19:02:03.783Z,,,,,,,,,,,,,,,,,54,,,,,,,,,,,,,,385.13900002016453,,response,,,,100,,,,,,,Space,keypress(Space),,,,,,,,-- --- ---- --- ------ ----- ------- ---- -- --- ------- --<br>------- ---------- ------ -- ----- -- ----- -- ---- ------<br>--- ----- --- --- ------ -------- ----- --- market ----- --<br>----- ----- ---------- --- --- ------ ------ ---- -- ------<br>------- --- ------ ----- --- ---- ------- -- ---- --- --<br>------- ------,174901.45000000484,174898.03500002017,174496.23,174509.90000000456,174512.896,174912.88,,30,market
screen,html.Screen,2_1_1_1_31,2021-04-26T19:02:04.115Z,,,,,,,,,,,,,,,,,54,,,,,,,,,,,,,,316.58500004035886,,response,,,,100,,,,,,,Space,keypress(Space),,,,,,,,-- --- ---- --- ------ ----- ------- ---- -- --- ------- --<br>------- ---------- ------ -- ----- -- ----- -- ---- ------<br>--- ----- --- --- ------ -------- ----- --- ------ value --<br>----- ----- ---------- --- --- ------ ------ ---- -- ------<br>------- --- ------ ----- --- ---- ------- -- ---- --- --<br>------- ------,175233.6050000158,175229.46500004036,174896.214,174901.54000004986,174912.88,175246.2,,31,value
screen,html.Screen,2_1_1_1_32,2021-04-26T19:02:04.423Z,,,,,,,,,,,,,,,,,54,,,,,,,,,,,,,,291.89000004547415,,response,,,,100,,,,,,,Space,keypress(Space),,,,,,,,-- --- ---- --- ------ ----- ------- ---- -- --- ------- --<br>------- ---------- ------ -- ----- -- ----- -- ---- ------<br>--- ----- --- --- ------ -------- ----- --- ------ ----- of<br>----- ----- ---------- --- --- ------ ------ ---- -- ------<br>------- --- ------ ----- --- ---- ------- -- ---- --- --<br>------- ------,175541.69500002172,175538.0900000455,175229.534,175233.69500000263,175246.2,175546.188,,32,of
screen,html.Screen,2_1_1_1_33,2021-04-26T19:02:04.791Z,,,,,,,,,,,,,,,,,54,,,,,,,,,,,,,,360.29700004318147,,response,,,,100,,,,,,,Space,keypress(Space),,,,,,,,-- --- ---- --- ------ ----- ------- ---- -- --- ------- --<br>------- ---------- ------ -- ----- -- ----- -- ---- ------<br>--- ----- --- --- ------ -------- ----- --- ------ ----- --<br>these ----- ---------- --- --- ------ ------ ---- -- ------<br>------- --- ------ ----- --- ---- ------- -- ---- --- --<br>------- ------,175909.7400000319,175906.48500004318,175529.522,175541.78500000853,175546.188,175912.84,,33,these
screen,html.Screen,2_1_1_1_34,2021-04-26T19:02:05.237Z,,,,,,,,,,,,,,,,,54,,,,,,,,,,,,,,438.6050000366231,,response,,,,100,,,,,,,Space,keypress(Space),,,,,,,,-- --- ---- --- ------ ----- ------- ---- -- --- ------- --<br>------- ---------- ------ -- ----- -- ----- -- ---- ------<br>--- ----- --- --- ------ -------- ----- --- ------ ----- --<br>----- bonds ---------- --- --- ------ ------ ---- -- ------<br>------- --- ------ ----- --- ---- ------- -- ---- --- --<br>------- ------,176355.51500000292,176351.44500003662,175896.174,175909.8300000187,175912.84,176362.822,,34,bonds
screen,html.Screen,2_1_1_1_35,2021-04-26T19:02:05.473Z,,,,,,,,,,,,,,,,,54,,,,,,,,,,,,,,225.6630000147852,,response,,,,100,,,,,,,Space,keypress(Space),,,,,,,,"-- --- ---- --- ------ ----- ------- ---- -- --- ------- --<br>------- ---------- ------ -- ----- -- ----- -- ---- ------<br>--- ----- --- --- ------ -------- ----- --- ------ ----- --<br>----- ----- plummeted, --- --- ------ ------ ---- -- ------<br>------- --- ------ ----- --- ---- ------- -- ---- --- --<br>------- ------",176592.0299999998,176588.48500001477,176346.156,176355.60500004794,176362.822,176596.146,,35,"plummeted,"
screen,html.Screen,2_1_1_1_36,2021-04-26T19:02:05.849Z,,,,,,,,,,,,,,,,,54,,,,,,,,,,,,,,367.9590000209282,,response,,,,100,,,,,,,Space,keypress(Space),,,,,,,,-- --- ---- --- ------ ----- ------- ---- -- --- ------- --<br>------- ---------- ------ -- ----- -- ----- -- ---- ------<br>--- ----- --- --- ------ -------- ----- --- ------ ----- --<br>----- ----- ---------- and --- ------ ------ ---- -- ------<br>------- --- ------ ----- --- ---- ------- -- ---- --- --<br>------- ------,176967.8000000422,176964.10500002094,176579.48,176592.12000004482,176596.146,176979.464,,36,and
screen,html.Screen,2_1_1_1_37,2021-04-26T19:02:06.240Z,,,,,,,,,,,,,,,,,54,,,,,,,,,,,,,,376.2460000325518,,response,,,,100,,,,,,,Space,keypress(Space),,,,,,,,-- --- ---- --- ------ ----- ------- ---- -- --- ------- --<br>------- ---------- ------ -- ----- -- ----- -- ---- ------<br>--- ----- --- --- ------ -------- ----- --- ------ ----- --<br>----- ----- ---------- --- the ------ ------ ---- -- ------<br>------- --- ------ ----- --- ---- ------- -- ---- --- --<br>------- ------,177359.1750000487,177355.71000003256,176962.798,176967.890000029,176979.464,177362.782,,37,the
screen,html.Screen,2_1_1_1_38,2021-04-26T19:02:06.672Z,,,,,,,,,,,,,,,,,54,,,,,,,,,,,,,,424.4830000499496,,response,,,,100,,,,,,,Space,keypress(Space),,,,,,,,-- --- ---- --- ------ ----- ------- ---- -- --- ------- --<br>------- ---------- ------ -- ----- -- ----- -- ---- ------<br>--- ----- --- --- ------ -------- ----- --- ------ ----- --<br>----- ----- ---------- --- --- market ------ ---- -- ------<br>------- --- ------ ----- --- ---- ------- -- ---- --- --<br>------- ------,177790.5600000522,177787.26500004996,177346.116,177359.2700000154,177362.782,177796.098,,38,market
screen,html.Screen,2_1_1_1_39,2021-04-26T19:02:06.967Z,,,,,,,,,,,,,,,,,54,,,,,,,,,,,,,,285.8420000036713,,response,,,,100,,,,,,,Space,keypress(Space),,,,,,,,-- --- ---- --- ------ ----- ------- ---- -- --- ------- --<br>------- ---------- ------ -- ----- -- ----- -- ---- ------<br>--- ----- --- --- ------ -------- ----- --- ------ ----- --<br>----- ----- ---------- --- --- ------ became ---- -- ------<br>------- --- ------ ----- --- ---- ------- -- ---- --- --<br>------- ------,178085.65000002272,178081.94000000367,177779.432,177790.65000003902,177796.098,178096.086,,39,became
screen,html.Screen,2_1_1_1_40,2021-04-26T19:02:07.282Z,,,,,,,,,,,,,,,,,54,,,,,,,,,,,,,,301.5440000212984,,response,,,,100,,,,,,,Space,keypress(Space),,,,,,,,-- --- ---- --- ------ ----- ------- ---- -- --- ------- --<br>------- ---------- ------ -- ----- -- ----- -- ---- ------<br>--- ----- --- --- ------ -------- ----- --- ------ ----- --<br>----- ----- ---------- --- --- ------ ------ wary -- ------<br>------- --- ------ ----- --- ---- ------- -- ---- --- --<br>------- ------,178401.41500002937,178397.6300000213,178079.42,178085.74000000954,178096.086,178412.74,,40,wary
screen,html.Screen,2_1_1_1_41,2021-04-26T19:02:07.674Z,,,,,,,,,,,,,,,,,54,,,,,,,,,,,,,,376.06500001833774,,response,,,,100,,,,,,,Space,keypress(Space),,,,,,,,-- --- ---- --- ------ ----- ------- ---- -- --- ------- --<br>------- ---------- ------ -- ----- -- ----- -- ---- ------<br>--- ----- --- --- ------ -------- ----- --- ------ ----- --<br>----- ----- ---------- --- --- ------ ------ ---- of ------<br>------- --- ------ ----- --- ---- ------- -- ---- --- --<br>------- ------,178792.86000004504,178788.80500001833,178396.074,178401.5050000162,178412.74,178796.058,,41,of
screen,html.Screen,2_1_1_1_42,2021-04-26T19:02:07.934Z,,,,,,,,,,,,,,,,,54,,,,,,,,,,,,,,253.3070000426087,,response,,,,100,,,,,,,Space,keypress(Space),,,,,,,,-- --- ---- --- ------ ----- ------- ---- -- --- ------- --<br>------- ---------- ------ -- ----- -- ----- -- ---- ------<br>--- ----- --- --- ------ -------- ----- --- ------ ----- --<br>----- ----- ---------- --- --- ------ ------ ---- -- French<br>------- --- ------ ----- --- ---- ------- -- ---- --- --<br>------- ------,179053.01000003237,179049.3650000426,178779.392,178792.9750000476,178796.058,179062.714,,42,French
screen,html.Screen,2_1_1_1_43,2021-04-26T19:02:08.470Z,,,,,,,,,,,,,,,,,54,,,,,,,,,,,,,,522.6160000308009,,response,,,,100,,,,,,,Space,keypress(Space),,,,,,,,-- --- ---- --- ------ ----- ------- ---- -- --- ------- --<br>------- ---------- ------ -- ----- -- ----- -- ---- ------<br>--- ----- --- --- ------ -------- ----- --- ------ ----- --<br>----- ----- ---------- --- --- ------ ------ ---- -- ------<br>credit. --- ------ ----- --- ---- ------- -- ---- --- --<br>------- ------,179588.79500004696,179585.3300000308,179046.048,179053.10000001919,179062.714,179596.026,,43,credit.
screen,html.Screen,2_1_1_1_44,2021-04-26T19:02:08.899Z,,,,,,,,,,,,,,,,,54,,,,,,,,,,,,,,418.3640000257292,,response,,,,100,,,,,,,Space,keypress(Space),,,,,,,,-- --- ---- --- ------ ----- ------- ---- -- --- ------- --<br>------- ---------- ------ -- ----- -- ----- -- ---- ------<br>--- ----- --- --- ------ -------- ----- --- ------ ----- --<br>----- ----- ---------- --- --- ------ ------ ---- -- ------<br>------- The ------ ----- --- ---- ------- -- ---- --- --<br>------- ------,180018.10500002466,180014.39000002574,179579.36,179588.88500003377,179596.026,180029.342,,44,The
screen,html.Screen,2_1_1_1_45,2021-04-26T19:02:09.260Z,,,,,,,,,,,,,,,,,54,,,,,,,,,,,,,,346.7680000119726,,response,,,,100,,,,,,,Space,keypress(Space),,,,,,,,-- --- ---- --- ------ ----- ------- ---- -- --- ------- --<br>------- ---------- ------ -- ----- -- ----- -- ---- ------<br>--- ----- --- --- ------ -------- ----- --- ------ ----- --<br>----- ----- ---------- --- --- ------ ------ ---- -- ------<br>------- --- French ----- --- ---- ------- -- ---- --- --<br>------- ------,180379.4850000413,180376.11000001198,180012.676,180018.19500001147,180029.342,180395.994,,45,French
screen,html.Screen,2_1_1_1_46,2021-04-26T19:02:09.500Z,,,,,,,,,,,,,,,,,54,,,,,,,,,,,,,,219.7310000396683,,response,,,,100,,,,,,,Space,keypress(Space),,,,,,,,-- --- ---- --- ------ ----- ------- ---- -- --- ------- --<br>------- ---------- ------ -- ----- -- ----- -- ---- ------<br>--- ----- --- --- ------ -------- ----- --- ------ ----- --<br>----- ----- ---------- --- --- ------ ------ ---- -- ------<br>------- --- ------ state --- ---- ------- -- ---- --- --<br>------- ------,180619.2550000269,180615.72500003967,180379.328,180379.57500002813,180395.994,180629.318,,46,state
screen,html.Screen,2_1_1_1_47,2021-04-26T19:02:09.736Z,,,,,,,,,,,,,,,,,54,,,,,,,,,,,,,,222.0720000252768,,response,,,,100,,,,,,,Space,keypress(Space),,,,,,,,-- --- ---- --- ------ ----- ------- ---- -- --- ------- --<br>------- ---------- ------ -- ----- -- ----- -- ---- ------<br>--- ----- --- --- ------ -------- ----- --- ------ ----- --<br>----- ----- ---------- --- --- ------ ------ ---- -- ------<br>------- --- ------ ----- was ---- ------- -- ---- --- --<br>------- ------,180854.7050000052,180851.39000002528,180612.652,180619.35000005178,180629.318,180862.642,,47,was
screen,html.Screen,2_1_1_1_48,2021-04-26T19:02:10.049Z,,,,,,,,,,,,,,,,,54,,,,,,,,,,,,,,302.1230000522919,,response,,,,100,,,,,,,Space,keypress(Space),,,,,,,,-- --- ---- --- ------ ----- ------- ---- -- --- ------- --<br>------- ---------- ------ -- ----- -- ----- -- ---- ------<br>--- ----- --- --- ------ -------- ----- --- ------ ----- --<br>----- ----- ---------- --- --- ------ ------ ---- -- ------<br>------- --- ------ ----- --- left ------- -- ---- --- --<br>------- ------,181168.35000005085,181164.76500005228,180845.976,180854.79500005022,180862.642,181179.296,,48,left
screen,html.Screen,2_1_1_1_49,2021-04-26T19:02:10.311Z,,,,,,,,,,,,,,,,,54,,,,,,,,,,,,,,246.70900001571863,,response,,,,100,,,,,,,Space,keypress(Space),,,,,,,,-- --- ---- --- ------ ----- ------- ---- -- --- ------- --<br>------- ---------- ------ -- ----- -- ----- -- ---- ------<br>--- ----- --- --- ------ -------- ----- --- ------ ----- --<br>----- ----- ---------- --- --- ------ ------ ---- -- ------<br>------- --- ------ ----- --- ---- without -- ---- --- --<br>------- ------,181429.64000004577,181426.00500001572,181162.63,181168.44500001753,181179.296,181445.952,,49,without
screen,html.Screen,2_1_1_1_50,2021-04-26T19:02:10.743Z,,,,,,,,,,,,,,,,,54,,,,,,,,,,,,,,412.6830000114278,,response,,,,100,,,,,,,Space,keypress(Space),,,,,,,,-- --- ---- --- ------ ----- ------- ---- -- --- ------- --<br>------- ---------- ------ -- ----- -- ----- -- ---- ------<br>--- ----- --- --- ------ -------- ----- --- ------ ----- --<br>----- ----- ---------- --- --- ------ ------ ---- -- ------<br>------- --- ------ ----- --- ---- ------- an ---- --- --<br>------- ------,181862.22000000998,181858.63500001142,181429.286,181429.73500001244,181445.952,181862.908,,50,an
screen,html.Screen,2_1_1_1_51,2021-04-26T19:02:11.012Z,,,,,,,,,,,,,,,,,54,,,,,,,,,,,,,,264.307000044093,,response,,,,100,,,,,,,Space,keypress(Space),,,,,,,,-- --- ---- --- ------ ----- ------- ---- -- --- ------- --<br>------- ---------- ------ -- ----- -- ----- -- ---- ------<br>--- ----- --- --- ------ -------- ----- --- ------ ----- --<br>----- ----- ---------- --- --- ------ ------ ---- -- ------<br>------- --- ------ ----- --- ---- ------- -- easy --- --<br>------- ------,182130.73500001337,182127.2150000441,181846.242,181862.310000055,181862.908,182146.23,,51,easy
screen,html.Screen,2_1_1_1_52,2021-04-26T19:02:11.333Z,,,,,,,,,,,,,,,,,54,,,,,,,,,,,,,,302.2600000388629,,response,,,,100,,,,,,,Space,keypress(Space),,,,,,,,-- --- ---- --- ------ ----- ------- ---- -- --- ------- --<br>------- ---------- ------ -- ----- -- ----- -- ---- ------<br>--- ----- --- --- ------ -------- ----- --- ------ ----- --<br>----- ----- ---------- --- --- ------ ------ ---- -- ------<br>------- --- ------ ----- --- ---- ------- -- ---- way --<br>------- ------,182452.2500000312,182448.49000003887,182129.564,182130.8250000002,182146.23,182462.884,,52,way
screen,html.Screen,2_1_1_1_53,2021-04-26T19:02:11.610Z,,,,,,,,,,,,,,,,,54,,,,,,,,,,,,,,263.15099999969243,,response,,,,100,,,,,,,Space,keypress(Space),,,,,,,,-- --- ---- --- ------ ----- ------- ---- -- --- ------- --<br>------- ---------- ------ -- ----- -- ----- -- ---- ------<br>--- ----- --- --- ------ -------- ----- --- ------ ----- --<br>----- ----- ---------- --- --- ------ ------ ---- -- ------<br>------- --- ------ ----- --- ---- ------- -- ---- --- of<br>------- ------,182729.5350000495,182726.03499999968,182446.218,182452.37000001362,182462.884,182746.206,,53,of
screen,html.Screen,2_1_1_1_54,2021-04-26T19:02:11.967Z,,,,,,,,,,,,,,,,,54,,,,,,,,,,,,,,336.4540000145789,,response,,,,100,,,,,,,Space,keypress(Space),,,,,,,,-- --- ---- --- ------ ----- ------- ---- -- --- ------- --<br>------- ---------- ------ -- ----- -- ----- -- ---- ------<br>--- ----- --- --- ------ -------- ----- --- ------ ----- --<br>----- ----- ---------- --- --- ------ ------ ---- -- ------<br>------- --- ------ ----- --- ---- ------- -- ---- --- --<br>raising ------,183086.33499999996,183082.66000001458,182729.54,182729.62500003632,182746.206,183096.192,,54,raising
screen,html.Screen,2_1_1_1_55,2021-04-26T19:02:12.405Z,,,,,,,,,,,,,,,,,54,,,,,,,,,,,,,,423.8530000120227,,response,,,,100,,,,,,,Space,keypress(Space),,,,,,,,-- --- ---- --- ------ ----- ------- ---- -- --- ------- --<br>------- ---------- ------ -- ----- -- ----- -- ---- ------<br>--- ----- --- --- ------ -------- ----- --- ------ ----- --<br>----- ----- ---------- --- --- ------ ------ ---- -- ------<br>------- --- ------ ----- --- ---- ------- -- ---- --- --<br>------- money.,183523.64000002854,183520.04500001203,183079.526,183086.42500004498,183096.192,183529.508,,55,money.
Item 100,flow.Loop,2_1_1_1,2021-04-26T19:02:12.405Z,,,,,,,,,,,,,,,,,,,,,,,,,,,,,,,20640.257000012032,,completion,,,,,D,,,,,,,,,,,silence,,,,,183523.8750000135,183520.04500001203,162863.122,162864.5700000343,162879.788,183529.508,,,
Question 1,html.Screen,2_1_1_2,2021-04-26T19:02:16.509Z,,,,,,,,,,,,,,,,,,,,,,,,,,,,true,TRUE,,4096.947000019631,,response,,,,100,D,,,,,,TRUE,click #choice-1,,,,silence,,,,,187628.07000003522,187626.45500001963,183512.842,183523.95000000251,183529.508,187629.344,,,
Question 2,html.Screen,2_1_1_3,2021-04-26T19:02:22.064Z,,,,,,,,,,,,,,,,,,,,,,,,,,,,true,FALSE,,5552.181000021781,,response,,,,100,D,,,,,,FALSE,click #choice-2,,,,silence,,,,,193182.90500005241,193181.5250000218,187612.678,187628.17000003997,187629.344,193195.967,,,
Item 100,flow.Sequence,2_1_1,2021-04-26T19:02:22.064Z,,,,,,,,,,,,,,,,,,,,,,,,,,,,,,,40301.589000021806,,completion,,,,,,,,,,,,,,,,,,,,,193183.0600000103,193181.5250000218,152863.27,152863.9250000124,152879.936,193195.967,,,
End of Practice,html.Page,2_1_2,2021-04-26T19:02:26.182Z,,,,,,,,,,,,,,,,,,,,,,,,,,,,,,,4105.287999998487,,form submission,,,,,,,,,,,,,,,,,,,,,197301.5149999992,197301.2549999985,193179.301,193183.13000001945,193195.967,197312.469,,,
Practice,flow.Sequence,2_1,2021-04-26T19:02:26.182Z,,,,,,,,,,,,,,,,,,,,,,,,,,,,,,,87154.0289999985,,completion,,,,,,,,,,,,,,,,,,,,,197301.63000000175,197301.2549999985,110130.56,110136.99500000803,110147.226,197312.469,,,
Trap_instruction,html.Page,2_2_0,2021-04-26T19:02:28.853Z,,,,,,,,,,,,,,,,,,,,,,,,,,,,,,,2659.7410000362725,,form submission,,,,,,,,,,,,,,,,,,,,,199972.40000002785,199972.21000003628,197295.803,197301.6850000131,197312.469,199979.029,,,
trap_trial,html.Screen,2_2_1,2021-04-26T19:02:32.653Z,,,,,,,,,,,,,,,,,,,,,,,,,,,,true,1,,3792.4710000316554,,response,,,,,,,,,,,1,click #choice-1,,,,,,,,,203773.00500002457,203771.50000003166,199962.363,199972.4850000348,199979.029,203778.877,,,
end of trap trial,html.Page,2_2_2,2021-04-26T19:02:34.199Z,,,,,,,,,,,,,,,,,,,,,,,,,,,,,,,1539.3930000470427,,form submission,,,,,,,,,,,,,,,,,,,,,205318.4600000386,205318.27000004705,203762.211,203773.06500001578,203778.877,205329.141,,,
Trap 1,flow.Sequence,2_2,2021-04-26T19:02:34.199Z,,,,,,,,,,,,,,,,,,,,,,,,,,,,,,,8005.8010000470385,,completion,,,,,,,,,,,,,,,,,,,,,205318.58000002103,205318.27000004705,197295.803,197301.6700000153,197312.469,205329.141,,,
Standby,html.Page,2_3_0,2021-04-26T19:02:42.193Z,,,,,,,,,,,,,,,,,,,,,,,,,,,,,,,7999.679999999993,,timeout,,,,,,,,,,,,,,,,,,,,,213312.86500004353,213312.155,205312.475,205318.65500001004,205329.141,213328.821,,,
Holding screen,html.Screen,2_3_1_0_0,2021-04-26T19:02:49.194Z,,,,,,,,,,,,,,,,,,,,,,,,,,,,,,,7000.0380000000005,,timeout,,,,,,,,,,,,,,,,,,,,,220313.74000001233,220312.193,213312.155,213313.04500001715,213328.821,220328.859,,,
screen,html.Screen,2_3_1_0_1_0,2021-04-26T19:02:50.874Z,,,,,,,,,,,,,,,,,2,,,,,,,,,,,,,,1660.24100000615,,response,,,,1,D,,,,,,Space,keypress(Space),,,,silence,,,,Two ---- ------ --- ------- ---------- ------- ----------<br>--- --------- --- ----------- ------- ----- ------- ---<br>--------- ---- -- --- ---- -- --------- -- ---- -------<br>-- --------- ------ --- ----- ------ ---- --- --------- --<br>------ - ---- -- --- ----------- ------- ---- ----- -----<br>--- -------- - ------ ---- -- ----- ---- --- --- -----------<br>-- -------,221993.9800000284,221989.10000000615,220312.193,220313.92500002403,220328.859,221995.459,,0,Two
screen,html.Screen,2_3_1_0_1_1,2021-04-26T19:02:51.246Z,,,,,,,,,,,,,,,,,2,,,,,,,,,,,,,,367.05600004436565,,response,,,,1,D,,,,,,Space,keypress(Space),,,,silence,,,,--- days ------ --- ------- ---------- ------- ----------<br>--- --------- --- ----------- ------- ----- ------- ---<br>--------- ---- -- --- ---- -- --------- -- ---- -------<br>-- --------- ------ --- ----- ------ ---- --- --------- --<br>------ - ---- -- --- ----------- ------- ---- ----- -----<br>--- -------- - ------ ---- -- ----- ---- --- --- -----------<br>-- -------,222366.20500002755,222362.51500004437,221978.793,221994.085000013,221995.459,222378.777,,1,days
screen,html.Screen,2_3_1_0_1_2,2021-04-26T19:02:51.589Z,,,,,,,,,,,,,,,,,2,,,,,,,,,,,,,,326.868000038201,,response,,,,1,D,,,,,,Space,keypress(Space),,,,silence,,,,"--- ---- later, --- ------- ---------- ------- ----------<br>--- --------- --- ----------- ------- ----- ------- ---<br>--------- ---- -- --- ---- -- --------- -- ---- -------<br>-- --------- ------ --- ----- ------ ---- --- --------- --<br>------ - ---- -- --- ----------- ------- ---- ----- -----<br>--- -------- - ------ ---- -- ----- ---- --- --- -----------<br>-- -------",222708.6850000196,222705.6450000382,222362.111,222366.29500001436,222378.777,222712.097,,2,"later,"
screen,html.Screen,2_3_1_0_1_3,2021-04-26T19:02:51.955Z,,,,,,,,,,,,,,,,,2,,,,,,,,,,,,,,358.89800001640106,,response,,,,1,D,,,,,,Space,keypress(Space),,,,silence,,,,--- ---- ------ the ------- ---------- ------- ----------<br>--- --------- --- ----------- ------- ----- ------- ---<br>--------- ---- -- --- ---- -- --------- -- ---- -------<br>-- --------- ------ --- ----- ------ ---- --- --------- --<br>------ - ---- -- --- ----------- ------- ---- ----- -----<br>--- -------- - ------ ---- -- ----- ---- --- --- -----------<br>-- -------,223074.62000002852,223070.9950000164,222695.431,222708.76000000862,222712.097,223078.749,,3,the
screen,html.Screen,2_3_1_0_1_4,2021-04-26T19:02:52.228Z,,,,,,,,,,,,,,,,,2,,,,,,,,,,,,,,266.37600005074637,,response,,,,1,D,,,,,,Space,keypress(Space),,,,silence,,,,--- ---- ------ --- British ---------- ------- ----------<br>--- --------- --- ----------- ------- ----- ------- ---<br>--------- ---- -- --- ---- -- --------- -- ---- -------<br>-- --------- ------ --- ----- ------ ---- --- --------- --<br>------ - ---- -- --- ----------- ------- ---- ----- -----<br>--- -------- - ------ ---- -- ----- ---- --- --- -----------<br>-- -------,223348.38000003947,223345.12500005076,223062.083,223074.71000001533,223078.749,223362.071,,4,British
screen,html.Screen,2_3_1_0_1_5,2021-04-26T19:02:52.607Z,,,,,,,,,,,,,,,,,2,,,,,,,,,,,,,,361.2990000215359,,response,,,,1,D,,,,,,Space,keypress(Space),,,,silence,,,,--- ---- ------ --- ------- astronomer ------- ----------<br>--- --------- --- ----------- ------- ----- ------- ---<br>--------- ---- -- --- ---- -- --------- -- ---- -------<br>-- --------- ------ --- ----- ------ ---- --- --------- --<br>------ - ---- -- --- ----------- ------- ---- ----- -----<br>--- -------- - ------ ---- -- ----- ---- --- --- -----------<br>-- -------,223726.76500002854,223723.37000002153,223345.405,223348.46500004642,223362.071,223728.723,,5,astronomer
screen,html.Screen,2_3_1_0_1_6,2021-04-26T19:02:53.010Z,,,,,,,,,,,,,,,,,2,,,,,,,,,,,,,,398.06200002948754,,response,,,,1,D,,,,,,Space,keypress(Space),,,,silence,,,,--- ---- ------ --- ------- ---------- Richard ----------<br>--- --------- --- ----------- ------- ----- ------- ---<br>--------- ---- -- --- ---- -- --------- -- ---- -------<br>-- --------- ------ --- ----- ------ ---- --- --------- --<br>------ - ---- -- --- ----------- ------- ---- ----- -----<br>--- -------- - ------ ---- -- ----- ---- --- --- -----------<br>-- -------,224130.19000005443,224126.7850000295,223712.057,223726.85500001535,223728.723,224145.373,,6,Richard
screen,html.Screen,2_3_1_0_1_7,2021-04-26T19:02:53.429Z,,,,,,,,,,,,,,,,,2,,,,,,,,,,,,,,399.5670000507089,,response,,,,1,D,,,,,,Space,keypress(Space),,,,silence,,,,--- ---- ------ --- ------- ---------- ------- Carrington<br>--- --------- --- ----------- ------- ----- ------- ---<br>--------- ---- -- --- ---- -- --------- -- ---- -------<br>-- --------- ------ --- ----- ------ ---- --- --------- --<br>------ - ---- -- --- ----------- ------- ---- ----- -----<br>--- -------- - ------ ---- -- ----- ---- --- --- -----------<br>-- -------,224548.63000003388,224544.9400000507,224128.707,224130.2850000211,224145.373,224562.023,,7,Carrington
screen,html.Screen,2_3_1_0_1_8,2021-04-26T19:02:53.848Z,,,,,,,,,,,,,,,,,2,,,,,,,,,,,,,,402.107000036689,,response,,,,1,D,,,,,,Space,keypress(Space),,,,silence,,,,--- ---- ------ --- ------- ---------- ------- ----------<br>was --------- --- ----------- ------- ----- ------- ---<br>--------- ---- -- --- ---- -- --------- -- ---- -------<br>-- --------- ------ --- ----- ------ ---- --- --------- --<br>------ - ---- -- --- ----------- ------- ---- ----- -----<br>--- -------- - ------ ---- -- ----- ---- --- --- -----------<br>-- -------,224967.7650000085,224964.13000003668,224545.357,224548.73999999836,224562.023,224978.673,,8,was
screen,html.Screen,2_3_1_0_1_9,2021-04-26T19:02:54.321Z,,,,,,,,,,,,,,,,,2,,,,,,,,,,,,,,458.6920000197715,,response,,,,1,D,,,,,,Space,keypress(Space),,,,silence,,,,--- ---- ------ --- ------- ---------- ------- ----------<br>--- observing --- ----------- ------- ----- ------- ---<br>--------- ---- -- --- ---- -- --------- -- ---- -------<br>-- --------- ------ --- ----- ------ ---- --- --------- --<br>------ - ---- -- --- ----------- ------- ---- ----- -----<br>--- -------- - ------ ---- -- ----- ---- --- --- -----------<br>-- -------,225441.48500001756,225437.36500001978,224962.007,224967.8600000334,224978.673,225445.594,,9,observing
screen,html.Screen,2_3_1_0_1_10,2021-04-26T19:02:54.623Z,,,,,,,,,,,,,,,,,2,,,,,,,,,,,,,,294.1860000035085,,response,,,,1,D,,,,,,Space,keypress(Space),,,,silence,,,,--- ---- ------ --- ------- ---------- ------- ----------<br>--- --------- the ----------- ------- ----- ------- ---<br>--------- ---- -- --- ---- -- --------- -- ---- -------<br>-- --------- ------ --- ----- ------ ---- --- --------- --<br>------ - ---- -- --- ----------- ------- ---- ----- -----<br>--- -------- - ------ ---- -- ----- ---- --- --- -----------<br>-- -------,225743.5650000116,225739.78000000352,225428.928,225441.60499999998,225445.594,225745.582,,10,the
screen,html.Screen,2_3_1_0_1_11,2021-04-26T19:02:55.117Z,,,,,,,,,,,,,,,,,2,,,,,,,,,,,,,,487.5630000056117,,response,,,,1,D,,,,,,Space,keypress(Space),,,,silence,,,,--- ---- ------ --- ------- ---------- ------- ----------<br>--- --------- --- interesting ------- ----- ------- ---<br>--------- ---- -- --- ---- -- --------- -- ---- -------<br>-- --------- ------ --- ----- ------ ---- --- --------- --<br>------ - ---- -- --- ----------- ------- ---- ----- -----<br>--- -------- - ------ ---- -- ----- ---- --- --- -----------<br>-- -------,226236.66000005323,226233.1450000056,225728.916,225743.6850000522,225745.582,226245.562,,11,interesting
screen,html.Screen,2_3_1_0_1_12,2021-04-26T19:02:55.501Z,,,,,,,,,,,,,,,,,2,,,,,,,,,,,,,,371.8330000083952,,response,,,,1,D,,,,,,Space,keypress(Space),,,,silence,,,,--- ---- ------ --- ------- ---------- ------- ----------<br>--- --------- --- ----------- sunspot ----- ------- ---<br>--------- ---- -- --- ---- -- --------- -- ---- -------<br>-- --------- ------ --- ----- ------ ---- --- --------- --<br>------ - ---- -- --- ----------- ------- ---- ----- -----<br>--- -------- - ------ ---- -- ----- ---- --- --- -----------<br>-- -------,226620.81500003114,226617.3950000084,226228.896,226236.75000004005,226245.562,226628.88,,12,sunspot
screen,html.Screen,2_3_1_0_1_13,2021-04-26T19:02:56.090Z,,,,,,,,,,,,,,,,,2,,,,,,,,,,,,,,577.1250000436557,,response,,,,1,D,,,,,,Space,keypress(Space),,,,silence,,,,--- ---- ------ --- ------- ---------- ------- ----------<br>--- --------- --- ----------- ------- group ------- ---<br>--------- ---- -- --- ---- -- --------- -- ---- -------<br>-- --------- ------ --- ----- ------ ---- --- --------- --<br>------ - ---- -- --- ----------- ------- ---- ----- -----<br>--- -------- - ------ ---- -- ----- ---- --- --- -----------<br>-- -------,227209.765000036,227206.00500004366,226612.214,226620.9000000381,226628.88,227212.19,,13,group
screen,html.Screen,2_3_1_0_1_14,2021-04-26T19:02:56.486Z,,,,,,,,,,,,,,,,,2,,,,,,,,,,,,,,390.14500000322005,,response,,,,1,D,,,,,,Space,keypress(Space),,,,silence,,,,--- ---- ------ --- ------- ---------- ------- ----------<br>--- --------- --- ----------- ------- ----- through ---<br>--------- ---- -- --- ---- -- --------- -- ---- -------<br>-- --------- ------ --- ----- ------ ---- --- --------- --<br>------ - ---- -- --- ----------- ------- ---- ----- -----<br>--- -------- - ------ ---- -- ----- ---- --- --- -----------<br>-- -------,227606.10000003362,227602.33500000322,227195.524,227209.840000025,227212.19,227612.174,,14,through
screen,html.Screen,2_3_1_0_1_15,2021-04-26T19:02:56.817Z,,,,,,,,,,,,,,,,,2,,,,,,,,,,,,,,321.6310000369558,,response,,,,1,D,,,,,,Space,keypress(Space),,,,silence,,,,--- ---- ------ --- ------- ---------- ------- ----------<br>--- --------- --- ----------- ------- ----- ------- his<br>--------- ---- -- --- ---- -- --------- -- ---- -------<br>-- --------- ------ --- ----- ------ ---- --- --------- --<br>------ - ---- -- --- ----------- ------- ---- ----- -----<br>--- -------- - ------ ---- -- ----- ---- --- --- -----------<br>-- -------,227937.43500002893,227933.80500003695,227595.508,227606.19000002043,227612.174,227945.494,,15,his
screen,html.Screen,2_3_1_0_1_16,2021-04-26T19:02:57.283Z,,,,,,,,,,,,,,,,,2,,,,,,,,,,,,,,453.49600001604995,,response,,,,1,D,,,,,,Space,keypress(Space),,,,silence,,,,--- ---- ------ --- ------- ---------- ------- ----------<br>--- --------- --- ----------- ------- ----- ------- ---<br>telescope ---- -- --- ---- -- --------- -- ---- -------<br>-- --------- ------ --- ----- ------ ---- --- --------- --<br>------ - ---- -- --- ----------- ------- ---- ----- -----<br>--- -------- - ------ ---- -- ----- ---- --- --- -----------<br>-- -------,228403.31000002334,228398.99000001606,227928.828,227937.55000003148,227945.494,228412.142,,16,telescope
screen,html.Screen,2_3_1_0_1_17,2021-04-26T19:02:57.752Z,,,,,,,,,,,,,,,,,2,,,,,,,,,,,,,,456.72300002584234,,response,,,,1,D,,,,,,Space,keypress(Space),,,,silence,,,,--- ---- ------ --- ------- ---------- ------- ----------<br>--- --------- --- ----------- ------- ----- ------- ---<br>--------- when -- --- ---- -- --------- -- ---- -------<br>-- --------- ------ --- ----- ------ ---- --- --------- --<br>------ - ---- -- --- ----------- ------- ---- ----- -----<br>--- -------- - ------ ---- -- ----- ---- --- --- -----------<br>-- -------,228872.5900000427,228868.86500002583,228395.476,228403.40500004822,228412.142,228878.79,,17,when
screen,html.Screen,2_3_1_0_1_18,2021-04-26T19:02:58.257Z,,,,,,,,,,,,,,,,,2,,,,,,,,,,,,,,494.3150000060268,,response,,,,1,D,,,,,,Space,keypress(Space),,,,silence,,,,--- ---- ------ --- ------- ---------- ------- ----------<br>--- --------- --- ----------- ------- ----- ------- ---<br>--------- ---- he --- ---- -- --------- -- ---- -------<br>-- --------- ------ --- ----- ------ ---- --- --------- --<br>------ - ---- -- --- ----------- ------- ---- ----- -----<br>--- -------- - ------ ---- -- ----- ---- --- --- -----------<br>-- -------,229376.73000001814,229373.10500000603,228862.124,228872.6800000295,228878.79,229378.77,,18,he
screen,html.Screen,2_3_1_0_1_19,2021-04-26T19:02:58.610Z,,,,,,,,,,,,,,,,,2,,,,,,,,,,,,,,347.0500000505999,,response,,,,1,D,,,,,,Space,keypress(Space),,,,silence,,,,--- ---- ------ --- ------- ---------- ------- ----------<br>--- --------- --- ----------- ------- ----- ------- ---<br>--------- ---- -- saw ---- -- --------- -- ---- -------<br>-- --------- ------ --- ----- ------ ---- --- --------- --<br>------ - ---- -- --- ----------- ------- ---- ----- -----<br>--- -------- - ------ ---- -- ----- ---- --- --- -----------<br>-- -------,229729.82500004582,229725.8200000506,229362.104,229376.82500004303,229378.77,229745.422,,19,saw
screen,html.Screen,2_3_1_0_1_20,2021-04-26T19:02:58.927Z,,,,,,,,,,,,,,,,,2,,,,,,,,,,,,,,297.9430000486609,,response,,,,1,D,,,,,,Space,keypress(Space),,,,silence,,,,--- ---- ------ --- ------- ---------- ------- ----------<br>--- --------- --- ----------- ------- ----- ------- ---<br>--------- ---- -- --- what -- --------- -- ---- -------<br>-- --------- ------ --- ----- ------ ---- --- --------- --<br>------ - ---- -- --- ----------- ------- ---- ----- -----<br>--- -------- - ------ ---- -- ----- ---- --- --- -----------<br>-- -------,230046.8600000022,230043.36500004865,229728.756,229729.91500003263,229745.422,230062.076,,20,what
screen,html.Screen,2_3_1_0_1_21,2021-04-26T19:02:59.175Z,,,,,,,,,,,,,,,,,2,,,,,,,,,,,,,,229.38400003674906,,response,,,,1,D,,,,,,Space,keypress(Space),,,,silence,,,,--- ---- ------ --- ------- ---------- ------- ----------<br>--- --------- --- ----------- ------- ----- ------- ---<br>--------- ---- -- --- ---- he --------- -- ---- -------<br>-- --------- ------ --- ----- ------ ---- --- --------- --<br>------ - ---- -- --- ----------- ------- ---- ----- -----<br>--- -------- - ------ ---- -- ----- ---- --- --- -----------<br>-- -------,230295.02000001958,230291.46000003675,230045.41,230046.95000004722,230062.076,230312.066,,21,he
screen,html.Screen,2_3_1_0_1_22,2021-04-26T19:02:59.391Z,,,,,,,,,,,,,,,,,2,,,,,,,,,,,,,,195.04900004400406,,response,,,,1,D,,,,,,Space,keypress(Space),,,,silence,,,,--- ---- ------ --- ------- ---------- ------- ----------<br>--- --------- --- ----------- ------- ----- ------- ---<br>--------- ---- -- --- ---- -- described -- ---- -------<br>-- --------- ------ --- ----- ------ ---- --- --------- --<br>------ - ---- -- --- ----------- ------- ---- ----- -----<br>--- -------- - ------ ---- -- ----- ---- --- --- -----------<br>-- -------,230510.73500001803,230507.115000044,230295.4,230295.1100000064,230312.066,230512.058,,22,described
screen,html.Screen,2_3_1_0_1_23,2021-04-26T19:02:59.755Z,,,,,,,,,,,,,,,,,2,,,,,,,,,,,,,,359.54200001314166,,response,,,,1,D,,,,,,Space,keypress(Space),,,,silence,,,,--- ---- ------ --- ------- ---------- ------- ----------<br>--- --------- --- ----------- ------- ----- ------- ---<br>--------- ---- -- --- ---- -- --------- as ---- -------<br>-- --------- ------ --- ----- ------ ---- --- --------- --<br>------ - ---- -- --- ----------- ------- ---- ----- -----<br>--- -------- - ------ ---- -- ----- ---- --- --- -----------<br>-- -------,230875.15000003623,230871.60000001313,230495.392,230510.84000000264,230512.058,230878.71,,23,as
screen,html.Screen,2_3_1_0_1_24,2021-04-26T19:02:59.985Z,,,,,,,,,,,,,,,,,2,,,,,,,,,,,,,,223.31500002925168,,response,,,,1,D,,,,,,Space,keypress(Space),,,,silence,,,,"--- ---- ------ --- ------- ---------- ------- ----------<br>--- --------- --- ----------- ------- ----- ------- ---<br>--------- ---- -- --- ---- -- --------- -- ""two -------<br>-- --------- ------ --- ----- ------ ---- --- --------- --<br>------ - ---- -- --- ----------- ------- ---- ----- -----<br>--- -------- - ------ ---- -- ----- ---- --- --- -----------<br>-- -------",231105.51500000292,231102.02500002924,230862.044,230875.2600000007,230878.71,231112.034,,24,"""two"
screen,html.Screen,2_3_1_0_1_25,2021-04-26T19:03:00.394Z,,,,,,,,,,,,,,,,,2,,,,,,,,,,,,,,399.1010000370152,,response,,,,1,D,,,,,,Space,keypress(Space),,,,silence,,,,--- ---- ------ --- ------- ---------- ------- ----------<br>--- --------- --- ----------- ------- ----- ------- ---<br>--------- ---- -- --- ---- -- --------- -- ---- patches<br>-- --------- ------ --- ----- ------ ---- --- --------- --<br>------ - ---- -- --- ----------- ------- ---- ----- -----<br>--- -------- - ------ ---- -- ----- ---- --- --- -----------<br>-- -------,231514.5800000173,231511.13500003703,231095.368,231105.60500004794,231112.034,231528.684,,25,patches
screen,html.Screen,2_3_1_0_1_26,2021-04-26T19:03:00.727Z,,,,,,,,,,,,,,,,,2,,,,,,,,,,,,,,314.25600000226405,,response,,,,1,D,,,,,,Space,keypress(Space),,,,silence,,,,--- ---- ------ --- ------- ---------- ------- ----------<br>--- --------- --- ----------- ------- ----- ------- ---<br>--------- ---- -- --- ---- -- --------- -- ---- -------<br>of --------- ------ --- ----- ------ ---- --- --------- --<br>------ - ---- -- --- ----------- ------- ---- ----- -----<br>--- -------- - ------ ---- -- ----- ---- --- --- -----------<br>-- -------,231846.80500003742,231842.94000000227,231512.018,231514.67000000412,231528.684,231862.004,,26,of
screen,html.Screen,2_3_1_0_1_27,2021-04-26T19:03:00.935Z,,,,,,,,,,,,,,,,,2,,,,,,,,,,,,,,189.5610000306915,,response,,,,1,D,,,,,,Space,keypress(Space),,,,silence,,,,--- ---- ------ --- ------- ---------- ------- ----------<br>--- --------- --- ----------- ------- ----- ------- ---<br>--------- ---- -- --- ---- -- --------- -- ---- -------<br>-- intensely ------ --- ----- ------ ---- --- --------- --<br>------ - ---- -- --- ----------- ------- ---- ----- -----<br>--- -------- - ------ ---- -- ----- ---- --- --- -----------<br>-- -------,232055.67500001052,232051.56500003068,231845.338,231846.90500004217,231862.004,232061.996,,27,intensely
screen,html.Screen,2_3_1_0_1_28,2021-04-26T19:03:01.423Z,,,,,,,,,,,,,,,,,2,,,,,,,,,,,,,,477.9090000123542,,response,,,,1,D,,,,,,Space,keypress(Space),,,,silence,,,,--- ---- ------ --- ------- ---------- ------- ----------<br>--- --------- --- ----------- ------- ----- ------- ---<br>--------- ---- -- --- ---- -- --------- -- ---- -------<br>-- --------- bright --- ----- ------ ---- --- --------- --<br>------ - ---- -- --- ----------- ------- ---- ----- -----<br>--- -------- - ------ ---- -- ----- ---- --- --- -----------<br>-- -------,232542.9100000183,232539.90500001237,232045.33,232055.7700000354,232061.996,232545.31,,28,bright
screen,html.Screen,2_3_1_0_1_29,2021-04-26T19:03:01.714Z,,,,,,,,,,,,,,,,,2,,,,,,,,,,,,,,286.6200000439421,,response,,,,1,D,,,,,,Space,keypress(Space),,,,silence,,,,--- ---- ------ --- ------- ---------- ------- ----------<br>--- --------- --- ----------- ------- ----- ------- ---<br>--------- ---- -- --- ---- -- --------- -- ---- -------<br>-- --------- ------ and ----- ------ ---- --- --------- --<br>------ - ---- -- --- ----------- ------- ---- ----- -----<br>--- -------- - ------ ---- -- ----- ---- --- --- -----------<br>-- -------,232834.44500004407,232831.93000004394,232528.644,232543.0050000432,232545.31,232845.298,,29,and
screen,html.Screen,2_3_1_0_1_30,2021-04-26T19:03:01.961Z,,,,,,,,,,,,,,,,,2,,,,,,,,,,,,,,233.0170000497601,,response,,,,1,D,,,,,,Space,keypress(Space),,,,silence,,,,--- ---- ------ --- ------- ---------- ------- ----------<br>--- --------- --- ----------- ------- ----- ------- ---<br>--------- ---- -- --- ---- -- --------- -- ---- -------<br>-- --------- ------ --- white ------ ---- --- --------- --<br>------ - ---- -- --- ----------- ------- ---- ----- -----<br>--- -------- - ------ ---- -- ----- ---- --- --- -----------<br>-- -------,233081.09500003047,233078.31500004977,232828.632,232834.52000003308,232845.298,233095.288,,30,white
screen,html.Screen,2_3_1_0_1_31,2021-04-26T19:03:02.309Z,,,,,,,,,,,,,,,,,2,,,,,,,,,,,,,,331.0120000501047,,response,,,,1,D,,,,,,Space,keypress(Space),,,,silence,,,,"--- ---- ------ --- ------- ---------- ------- ----------<br>--- --------- --- ----------- ------- ----- ------- ---<br>--------- ---- -- --- ---- -- --------- -- ---- -------<br>-- --------- ------ --- ----- light"" ---- --- --------- --<br>------ - ---- -- --- ----------- ------- ---- ----- -----<br>--- -------- - ------ ---- -- ----- ---- --- --- -----------<br>-- -------",233428.91500005499,233426.3000000501,233078.622,233081.18500001729,233095.288,233445.274,,31,"light"""
screen,html.Screen,2_3_1_0_1_32,2021-04-26T19:03:02.682Z,,,,,,,,,,,,,,,,,2,,,,,,,,,,,,,,353.831000041886,,response,,,,1,D,,,,,,Space,keypress(Space),,,,silence,,,,--- ---- ------ --- ------- ---------- ------- ----------<br>--- --------- --- ----------- ------- ----- ------- ---<br>--------- ---- -- --- ---- -- --------- -- ---- -------<br>-- --------- ------ --- ----- ------ over --- --------- --<br>------ - ---- -- --- ----------- ------- ---- ----- -----<br>--- -------- - ------ ---- -- ----- ---- --- --- -----------<br>-- -------,233802.62500001118,233799.1050000419,233428.608,233428.990000044,233445.274,233811.926,,32,over
screen,html.Screen,2_3_1_0_1_33,2021-04-26T19:03:02.922Z,,,,,,,,,,,,,,,,,2,,,,,,,,,,,,,,226.6790000088222,,response,,,,1,D,,,,,,Space,keypress(Space),,,,silence,,,,--- ---- ------ --- ------- ---------- ------- ----------<br>--- --------- --- ----------- ------- ----- ------- ---<br>--------- ---- -- --- ---- -- --------- -- ---- -------<br>-- --------- ------ --- ----- ------ ---- the --------- --<br>------ - ---- -- --- ----------- ------- ---- ----- -----<br>--- -------- - ------ ---- -- ----- ---- --- --- -----------<br>-- -------,234041.81000002427,234038.60500000883,233795.26,233802.714999998,233811.926,234045.25,,33,the
screen,html.Screen,2_3_1_0_1_34,2021-04-26T19:03:03.236Z,,,,,,,,,,,,,,,,,2,,,,,,,,,,,,,,307.6600000159815,,response,,,,1,D,,,,,,Space,keypress(Space),,,,silence,,,,--- ---- ------ --- ------- ---------- ------- ----------<br>--- --------- --- ----------- ------- ----- ------- ---<br>--------- ---- -- --- ---- -- --------- -- ---- -------<br>-- --------- ------ --- ----- ------ ---- --- sunspots. --<br>------ - ---- -- --- ----------- ------- ---- ----- -----<br>--- -------- - ------ ---- -- ----- ---- --- --- -----------<br>-- -------,234356.43500002334,234352.91000001598,234028.584,234041.90000001108,234045.25,234361.904,,34,sunspots.
screen,html.Screen,2_3_1_0_1_35,2021-04-26T19:03:03.740Z,,,,,,,,,,,,,,,,,2,,,,,,,,,,,,,,494.44600001638173,,response,,,,1,D,,,,,,Space,keypress(Space),,,,silence,,,,--- ---- ------ --- ------- ---------- ------- ----------<br>--- --------- --- ----------- ------- ----- ------- ---<br>--------- ---- -- --- ---- -- --------- -- ---- -------<br>-- --------- ------ --- ----- ------ ---- --- --------- He<br>------ - ---- -- --- ----------- ------- ---- ----- -----<br>--- -------- - ------ ---- -- ----- ---- --- --- -----------<br>-- -------,234859.92500005523,234856.3500000164,234345.238,234356.53000004822,234361.904,234861.884,,35,He
screen,html.Screen,2_3_1_0_1_36,2021-04-26T19:03:04.112Z,,,,,,,,,,,,,,,,,2,,,,,,,,,,,,,,367.15600000563427,,response,,,,1,D,,,,,,Space,keypress(Space),,,,silence,,,,--- ---- ------ --- ------- ---------- ------- ----------<br>--- --------- --- ----------- ------- ----- ------- ---<br>--------- ---- -- --- ---- -- --------- -- ---- -------<br>-- --------- ------ --- ----- ------ ---- --- --------- --<br>jotted - ---- -- --- ----------- ------- ---- ----- -----<br>--- -------- - ------ ---- -- ----- ---- --- --- -----------<br>-- -------,235232.7150000492,235229.04000000563,234845.218,234860.01500004204,234861.884,235245.202,,36,jotted
