sender,sender_type,sender_id,timestamp,meta,,Blues,Classical,Country,Dance,Electronic,Folk,Gospel,Hip-Hop,Jazz,Latin,Musical/Film,New-age,Pop,Prolific_id,Provo_ID,R&B,Rap,Reggae,Religious,Rock,Soul,Swing,Traditional,age,artist_name,correct,correctResponse,distraction,duration,education,ended_on,familiarity,gender,headphone_check_performance,item,list,music_frequency,offensiveness,pleasantness,position_correct,preference,response,response_action,snippet_file,song_name,song_rating,sound,stimulus_1,stimulus_2,stimulus_3,text,time_commit,time_end,time_render,time_run,time_show,time_switch,url,word,word_ID
Prolific ID,html.Form,0,2021-04-26T11:11:47.367Z,"{""labjs_version"":""20.2.2"",""labjs_build"":{""flavor"":""production"",""commit"":""a25486e0c714a0ae2ce03ff94b7bb6896854dcfa""},""location"":""https://run.pavlovia.org/mvasilev/prolific_music_b/"",""userAgent"":""Mozilla/5.0 (Windows NT 10.0; Win64; x64) AppleWebKit/537.36 (KHTML, like Gecko) Chrome/90.0.4430.72 Safari/537.36"",""platform"":""Win32"",""language"":""en-GB"",""locale"":""en-GB"",""timeZone"":""Europe/London"",""timezoneOffset"":-60,""screen_width"":1920,""screen_height"":1080,""scroll_width"":1920,""scroll_height"":929,""window_innerWidth"":1920,""window_innerHeight"":977,""devicePixelRatio"":1}",,,,,,,,,,,,,,,604f684950227bd07a37376d,,,,,,,,,,,,,,,7347.589999982752,,form submission,,,,,,,,,,,,,,,,,,,,,13535.984999965876,13535.604999982752,6171.245,6176.3499999651685,6188.015,13537.961,{},,
Introduction,html.Screen,1_0,2021-04-26T11:11:52.457Z,,,,,,,,,,,,,,,,,,,,,,,,,,,,,,,5087.179000018292,,response,,,,,,,,,,,continue,click button,,,,,,,,,18626.730000018142,18625.14000001829,13521.324,13536.270000040531,13537.961,18637.962,,,
Volume calibration,html.Screen,1_1,2021-04-26T11:12:11.693Z,,,,,,,,,,,,,,,,,,,,,,,,,,,,,,,19223.068000029132,,response,,,,,,,,,,,continue,click button,,,,,,,,,37862.760000047274,37861.03000002913,18621.315,18626.825000043027,18637.962,37871.246,,,
Task instructions,html.Screen,1_2,2021-04-26T11:12:21.485Z,,,,,,,,,,,,,,,,,,,,,,,,,,,,,,,9782.203999983423,,response,,,,,,,,,,,continue,click button,,,,,,,,,47654.05500004999,47653.44999998342,37854.658,37862.835000036284,37871.246,47681.895,,,
Sounds,html.Screen,1_3_0_0,2021-04-26T11:12:25.754Z,,,,,,,,,,,,,,,,,,,,,,,,,,,,,,,4256.178,,timeout,,,,,,,,,3,,,,,,,,O,I,S,,51923.070000018924,51921.49,47637.905,47654.24499998335,47681.895,51938.073,,,
Judgement,html.Screen,1_3_0_1,2021-04-26T11:12:26.714Z,,,,,,,,,,,,,,,,,,,,,,,,,,,,true,3,,945.3469999691952,,response,,,,,,,,,3,,3,click #choice-3,,,,,O,I,S,,52883.98000004236,52883.41999996919,51921.49,51923.16999996547,51938.073,52887.986,,,
Trial,flow.Sequence,1_3_0,2021-04-26T11:12:26.715Z,,,,,,,,,,,,,,,,,,,,,,,,,,,,,,,5201.524999969195,,completion,,,,,,,,,3,,,,,,,,O,I,S,,52884.19500004966,52883.41999996919,47637.905,47654.205000028014,47681.895,52887.986,,,
Sounds,html.Screen,1_3_1_0,2021-04-26T11:12:30.953Z,,,,,,,,,,,,,,,,,,,,,,,,,,,,,,,4249.924000000006,,timeout,,,,,,,,,1,,,,,,,,S,O,I,,57122.07499996293,57121.296,52871.546,52884.274999960326,52887.986,57137.91,,,
Judgement,html.Screen,1_3_1_1,2021-04-26T11:12:31.523Z,,,,,,,,,,,,,,,,,,,,,,,,,,,,true,1,,553.4900000106136,,response,,,,,,,,,1,,1,click #choice-1,,,,,S,O,I,,57692.03499995638,57691.40000001062,57121.296,57122.2350000171,57137.91,57704.652,,,
Trial,flow.Sequence,1_3_1,2021-04-26T11:12:31.523Z,,,,,,,,,,,,,,,,,,,,,,,,,,,,,,,4803.41400001062,,completion,,,,,,,,,1,,,,,,,,S,O,I,,57692.30500003323,57691.40000001062,52871.546,52884.250000002794,52887.986,57704.652,,,
Sounds,html.Screen,1_3_2_0,2021-04-26T11:12:35.769Z,,,,,,,,,,,,,,,,,,,,,,,,,,,,,,,4250.248999999996,,timeout,,,,,,,,,2,,,,,,,,O,S,I,,61938.60999995377,61938.057,57687.897,57692.38999998197,57704.652,61954.901,,,
Judgement,html.Screen,1_3_2_1,2021-04-26T11:12:36.209Z,,,,,,,,,,,,,,,,,,,,,,,,,,,,true,2,,422.69900000708003,,response,,,,,,,,,2,,2,click #choice-2,,,,,O,S,I,,62378.35999997333,62377.60000000708,61938.057,61938.68000002112,61954.901,62387.913,,,
Trial,flow.Sequence,1_3_2,2021-04-26T11:12:36.209Z,,,,,,,,,,,,,,,,,,,,,,,,,,,,,,,4672.948000007076,,completion,,,,,,,,,2,,,,,,,,O,S,I,,62378.469999996014,62377.60000000708,57687.897,57692.359999986365,57704.652,62387.913,,,
Sounds,html.Screen,1_3_3_0,2021-04-26T11:12:40.453Z,,,,,,,,,,,,,,,,,,,,,,,,,,,,,,,4249.994999999995,,timeout,,,,,,,,,3,,,,,,,,I,O,S,,66622.74500005879,66621.352,62371.253,62378.54000006337,62387.913,66637.908,,,
Judgement,html.Screen,1_3_3_1,2021-04-26T11:12:40.923Z,,,,,,,,,,,,,,,,,,,,,,,,,,,,true,3,,454.2169999664766,,response,,,,,,,,,3,,3,click #choice-3,,,,,I,O,S,,67092.62500004843,67092.12499996647,66621.352,66623.01500001922,66637.908,67104.633,,,
Trial,flow.Sequence,1_3_3,2021-04-26T11:12:40.923Z,,,,,,,,,,,,,,,,,,,,,,,,,,,,,,,4704.211999966472,,completion,,,,,,,,,3,,,,,,,,I,O,S,,67092.76500006672,67092.12499996647,62371.253,62378.51499998942,62387.913,67104.633,,,
Sounds,html.Screen,1_3_4_0,2021-04-26T11:12:45.169Z,,,,,,,,,,,,,,,,,,,,,,,,,,,,,,,4249.940000000002,,timeout,,,,,,,,,2,,,,,,,,I,S,O,,71338.4800000349,71337.904,67087.906,67092.86500001326,67104.633,71354.573,,,
Judgement,html.Screen,1_3_4_1,2021-04-26T11:12:45.666Z,,,,,,,,,,,,,,,,,,,,,,,,,,,,true,2,,480.6970000395959,,response,,,,,,,,,2,,2,click #choice-2,,,,,I,S,O,,71835.86500003003,71835.2700000396,71337.904,71338.55500002392,71354.573,71837.906,,,
Trial,flow.Sequence,1_3_4,2021-04-26T11:12:45.667Z,,,,,,,,,,,,,,,,,,,,,,,,,,,,,,,4730.637000039598,,completion,,,,,,,,,2,,,,,,,,I,S,O,,71836.00999996997,71835.2700000396,67087.906,67092.84000005573,67104.633,71837.906,,,
Sounds,html.Screen,1_3_5_0,2021-04-26T11:12:49.903Z,,,,,,,,,,,,,,,,,,,,,,,,,,,,,,,4249.968999999997,,timeout,,,,,,,,,1,,,,,,,,S,I,O,,76072.40499998443,76071.263,71821.536,71836.10499999486,71837.906,76087.875,,,
Judgement,html.Screen,1_3_5_1,2021-04-26T11:12:54.430Z,,,,,,,,,,,,,,,,,,,,,,,,,,,,true,1,,4510.669999957085,,response,,,,,,,,,1,,1,click #choice-1,,,,,S,I,O,,80599.15500006173,80598.54499995708,76071.263,76072.67500006128,76087.875,80604.549,,,
Trial,flow.Sequence,1_3_5,2021-04-26T11:12:54.430Z,,,,,,,,,,,,,,,,,,,,,,,,,,,,,,,8760.638999957082,,completion,,,,,,,,,1,,,,,,,,S,I,O,,80599.27000000607,80598.54499995708,71821.536,71836.07499999925,71837.906,80604.549,,,
Task,flow.Loop,1_3,2021-04-26T11:12:54.432Z,,,,,,,,,,,,,,,,,,,,,,,,,,,,,,,32916.64999995709,,completion,,,1,,,,,,,,,,,,,,,,,,80601.91500000656,80598.54499995708,47637.905,47654.16000003461,47681.895,80604.549,,,
Trap,html.Screen,1_4,2021-04-26T11:12:54.433Z,,,,,,,,,,,,,,,,,,,,,,,,,,,,,,,NaN,,skipped,,,,,,,,,,,,,,,,,,,,,80602.57500002626,80598.54499995708,,80602.51500003505,,80604.549,,,
Thanks,html.Screen,1_5,2021-04-26T11:13:00.971Z,,,,,,,,,,,,,,,,,,,,,,,,,,,,,,,6534.901000016951,,response,,,,,,,,,,,continue,click button,,,,,,,,,87140.33500000369,87139.45000001695,80587.954,80602.6299999794,80604.549,90671.174,,,
Headphone screening,flow.Sequence,1,2021-04-26T11:13:00.971Z,,,,,,,,,,,,,,,,,,,,,,,,,,,,,,,73601.48900001695,,completion,,,,,,,,,,,,,,,,,,,,,87140.4399999883,87139.45000001695,13521.324,13536.235000006855,13537.961,90671.174,,,
Instructions,html.Page,2_0,2021-04-26T11:14:11.472Z,,,,,,,,,,,,,,,,,,,,,,,,,,,,,,,66970.54599995597,,form submission,,,,,,,,,,,,,,,,,,,,,157642.08000001963,157641.71999995597,90654.508,90673.87499997858,90671.174,157654.423,,,
Holding screen,html.Screen,2_1_0_0,2021-04-26T11:14:21.469Z,,,,,,,,,,,,,,,,,,,,,,,,,,,,,,,9999.968999999983,,timeout,,,,,,,,,,,,,,,,,,,,,167638.86499998625,167637.799,157637.901,157642.20000000205,157654.423,167654.392,,,
screen,html.Screen,2_1_0_1_0,2021-04-26T11:14:24.537Z,,,,,,,,,,,,,,,,,53,,,,,,,,,,,,,,3051.022999974899,,response,,,,99,,,,,,,Space,keypress(Space),,,,,,,,When -- ----- -- ------ - ------- --- ----------<br>------------- ------ ------ ---- ---- ------- ----- -- ----<br>-------- ------- -- ---------- --- - --- ----- ----- ----<br>---- --- --- ----- --- ---- ---- ------- ----- ---- -------<br>--- --- -- ----- -- --- ---- -- --- ---- -- ------ ------<br>--- ----- -- ----,170706.75999997184,170705.4149999749,167637.799,167639.42999998108,167654.392,170721.15,,0,When
screen,html.Screen,2_1_0_1_1,2021-04-26T11:14:25.727Z,,,,,,,,,,,,,,,,,53,,,,,,,,,,,,,,1175.9150000264926,,response,,,,99,,,,,,,Space,keypress(Space),,,,,,,,---- it ----- -- ------ - ------- --- ----------<br>------------- ------ ------ ---- ---- ------- ----- -- ----<br>-------- ------- -- ---------- --- - --- ----- ----- ----<br>---- --- --- ----- --- ---- ---- ------- ----- ---- -------<br>--- --- -- ----- -- --- ---- -- --- ---- -- ------ ------<br>--- ----- -- ----,171897.45499996934,171897.0650000265,170704.321,170706.845000037,170721.15,171904.457,,1,it
screen,html.Screen,2_1_0_1_2,2021-04-26T11:14:26.400Z,,,,,,,,,,,,,,,,,53,,,,,,,,,,,,,,664.872999969346,,response,,,,99,,,,,,,Space,keypress(Space),,,,,,,,---- -- comes -- ------ - ------- --- ----------<br>------------- ------ ------ ---- ---- ------- ----- -- ----<br>-------- ------- -- ---------- --- - --- ----- ----- ----<br>---- --- --- ----- --- ---- ---- ------- ----- ---- -------<br>--- --- -- ----- -- --- ---- -- --- ---- -- ------ ------<br>--- ----- -- ----,172570.08500001393,172569.32999996934,171888.091,171897.53499999642,171904.457,172571.085,,2,comes
screen,html.Screen,2_1_0_1_3,2021-04-26T11:14:26.975Z,,,,,,,,,,,,,,,,,53,,,,,,,,,,,,,,573.9849999695725,,response,,,,99,,,,,,,Space,keypress(Space),,,,,,,,---- -- ----- to ------ - ------- --- ----------<br>------------- ------ ------ ---- ---- ------- ----- -- ----<br>-------- ------- -- ---------- --- - --- ----- ----- ----<br>---- --- --- ----- --- ---- ---- ------- ----- ---- -------<br>--- --- -- ----- -- --- ---- -- --- ---- -- ------ ------<br>--- ----- -- ----,173145.41999995708,173145.06999996956,172554.376,172570.3500000527,172571.085,173154.354,,3,to
screen,html.Screen,2_1_0_1_4,2021-04-26T11:14:27.560Z,,,,,,,,,,,,,,,,,53,,,,,,,,,,,,,,575.181000049517,,response,,,,99,,,,,,,Space,keypress(Space),,,,,,,,---- -- ----- -- having - ------- --- ----------<br>------------- ------ ------ ---- ---- ------- ----- -- ----<br>-------- ------- -- ---------- --- - --- ----- ----- ----<br>---- --- --- ----- --- ---- ---- ------- ----- ---- -------<br>--- --- -- ----- -- --- ---- -- --- ---- -- ------ ------<br>--- ----- -- ----,173730.08000000846,173729.5350000495,173137.772,173145.49000002444,173154.354,173737.83,,4,having
screen,html.Screen,2_1_0_1_5,2021-04-26T11:14:28.015Z,,,,,,,,,,,,,,,,,53,,,,,,,,,,,,,,447.2750000405067,,response,,,,99,,,,,,,Space,keypress(Space),,,,,,,,---- -- ----- -- ------ a ------- --- ----------<br>------------- ------ ------ ---- ---- ------- ----- -- ----<br>-------- ------- -- ---------- --- - --- ----- ----- ----<br>---- --- --- ----- --- ---- ---- ------- ----- ---- -------<br>--- --- -- ----- -- --- ---- -- --- ---- -- ------ ------<br>--- ----- -- ----,174185.5350000551,174185.1050000405,173720.982,173730.14500003774,173737.83,174187.732,,5,a
screen,html.Screen,2_1_0_1_6,2021-04-26T11:14:28.679Z,,,,,,,,,,,,,,,,,53,,,,,,,,,,,,,,661.3679999921878,,response,,,,99,,,,,,,Space,keypress(Space),,,,,,,,---- -- ----- -- ------ - lasting --- ----------<br>------------- ------ ------ ---- ---- ------- ----- -- ----<br>-------- ------- -- ---------- --- - --- ----- ----- ----<br>---- --- --- ----- --- ---- ---- ------- ----- ---- -------<br>--- --- -- ----- -- --- ---- -- --- ---- -- ------ ------<br>--- ----- -- ----,174849.50000001118,174849.09999999218,174171.154,174185.6400000397,174187.732,174854.441,,6,lasting
screen,html.Screen,2_1_0_1_7,2021-04-26T11:14:29.144Z,,,,,,,,,,,,,,,,,53,,,,,,,,,,,,,,458.88399999553803,,response,,,,99,,,,,,,Space,keypress(Space),,,,,,,,---- -- ----- -- ------ - ------- and ----------<br>------------- ------ ------ ---- ---- ------- ----- -- ----<br>-------- ------- -- ---------- --- - --- ----- ----- ----<br>---- --- --- ----- --- ---- ---- ------- ----- ---- -------<br>--- --- -- ----- -- --- ---- -- --- ---- -- ------ ------<br>--- ----- -- ----,175313.98500001524,175313.32499999553,174837.696,174849.589999998,174854.441,175321.034,,7,and
screen,html.Screen,2_1_0_1_8,2021-04-26T11:14:29.763Z,,,,,,,,,,,,,,,,,53,,,,,,,,,,,,,,610.3110000481538,,response,,,,99,,,,,,,Space,keypress(Space),,,,,,,,---- -- ----- -- ------ - ------- --- fulfilling<br>------------- ------ ------ ---- ---- ------- ----- -- ----<br>-------- ------- -- ---------- --- - --- ----- ----- ----<br>---- --- --- ----- --- ---- ---- ------- ----- ---- -------<br>--- --- -- ----- -- --- ---- -- --- ---- -- ------ ------<br>--- ----- -- ----,175932.78999999166,175931.34500004817,175304.448,175314.1900000628,175321.034,175937.737,,8,fulfilling
screen,html.Screen,2_1_0_1_9,2021-04-26T11:14:30.840Z,,,,,,,,,,,,,,,,,53,,,,,,,,,,,,,,1071.647999983019,,response,,,,99,,,,,,,Space,keypress(Space),,,,,,,,"---- -- ----- -- ------ - ------- --- ----------<br>relationship, ------ ------ ---- ---- ------- ----- -- ----<br>-------- ------- -- ---------- --- - --- ----- ----- ----<br>---- --- --- ----- --- ---- ---- ------- ----- ---- -------<br>--- --- -- ----- -- --- ---- -- --- ---- -- ------ ------<br>--- ----- -- ----",177009.88500006497,177009.384999983,175921.067,175932.99999996088,175937.737,177021.098,,9,"relationship,"
screen,html.Screen,2_1_0_1_10,2021-04-26T11:14:31.503Z,,,,,,,,,,,,,,,,,53,,,,,,,,,,,,,,652.0520000460092,,response,,,,99,,,,,,,Space,keypress(Space),,,,,,,,---- -- ----- -- ------ - ------- --- ----------<br>------------- common ------ ---- ---- ------- ----- -- ----<br>-------- ------- -- ---------- --- - --- ----- ----- ----<br>---- --- --- ----- --- ---- ---- ------- ----- ---- -------<br>--- --- -- ----- -- --- ---- -- --- ---- -- ------ ------<br>--- ----- -- ----,177673.5350000672,177673.150000046,177004.415,177010.0000000093,177021.098,177687.741,,10,common
screen,html.Screen,2_1_0_1_11,2021-04-26T11:14:32.335Z,,,,,,,,,,,,,,,,,53,,,,,,,,,,,,,,817.374000065407,,response,,,,99,,,,,,,Space,keypress(Space),,,,,,,,---- -- ----- -- ------ - ------- --- ----------<br>------------- ------ wisdom ---- ---- ------- ----- -- ----<br>-------- ------- -- ---------- --- - --- ----- ----- ----<br>---- --- --- ----- --- ---- ---- ------- ----- ---- -------<br>--- --- -- ----- -- --- ---- -- --- ---- -- ------ ------<br>--- ----- -- ----,178505.49000001047,178505.11500006542,177671.02,177673.62999997567,177687.741,178521.053,,11,wisdom
screen,html.Screen,2_1_0_1_12,2021-04-26T11:14:32.896Z,,,,,,,,,,,,,,,,,53,,,,,,,,,,,,,,544.3570000392501,,response,,,,99,,,,,,,Space,keypress(Space),,,,,,,,---- -- ----- -- ------ - ------- --- ----------<br>------------- ------ ------ says ---- ------- ----- -- ----<br>-------- ------- -- ---------- --- - --- ----- ----- ----<br>---- --- --- ----- --- ---- ---- ------- ----- ---- -------<br>--- --- -- ----- -- --- ---- -- --- ---- -- ------ ------<br>--- ----- -- ----,179066.0800000187,179065.41000003926,178504.393,178505.5599999614,178521.053,179071.051,,12,says
screen,html.Screen,2_1_0_1_13,2021-04-26T11:14:33.311Z,,,,,,,,,,,,,,,,,53,,,,,,,,,,,,,,410.1190000427596,,response,,,,99,,,,,,,Space,keypress(Space),,,,,,,,---- -- ----- -- ------ - ------- --- ----------<br>------------- ------ ------ ---- that ------- ----- -- ----<br>-------- ------- -- ---------- --- - --- ----- ----- ----<br>---- --- --- ----- --- ---- ---- ------- ----- ---- -------<br>--- --- -- ----- -- --- ---- -- --- ---- -- ------ ------<br>--- ----- -- ----,179481.49000003468,179481.17000004277,179054.693,179066.27000006847,179071.051,179487.737,,13,that
screen,html.Screen,2_1_0_1_14,2021-04-26T11:14:33.783Z,,,,,,,,,,,,,,,,,53,,,,,,,,,,,,,,465.3730000022042,,response,,,,99,,,,,,,Space,keypress(Space),,,,,,,,---- -- ----- -- ------ - ------- --- ----------<br>------------- ------ ------ ---- ---- feeling ----- -- ----<br>-------- ------- -- ---------- --- - --- ----- ----- ----<br>---- --- --- ----- --- ---- ---- ------- ----- ---- -------<br>--- --- -- ----- -- --- ---- -- --- ---- -- ------ ------<br>--- ----- -- ----,179953.44499999192,179953.1100000022,179471.123,179481.55999998562,179487.737,179954.388,,14,feeling
screen,html.Screen,2_1_0_1_15,2021-04-26T11:14:34.447Z,,,,,,,,,,,,,,,,,53,,,,,,,,,,,,,,662.7570000256237,,response,,,,99,,,,,,,Space,keypress(Space),,,,,,,,---- -- ----- -- ------ - ------- --- ----------<br>------------- ------ ------ ---- ---- ------- close -- ----<br>-------- ------- -- ---------- --- - --- ----- ----- ----<br>---- --- --- ----- --- ---- ---- ------- ----- ---- -------<br>--- --- -- ----- -- --- ---- -- --- ---- -- ------ ------<br>--- ----- -- ----,180617.47499997728,180617.14500002563,179937.655,179953.51500005927,179954.388,180621.063,,15,close
screen,html.Screen,2_1_0_1_16,2021-04-26T11:14:34.888Z,,,,,,,,,,,,,,,,,53,,,,,,,,,,,,,,436.27700005759834,,response,,,,99,,,,,,,Space,keypress(Space),,,,,,,,---- -- ----- -- ------ - ------- --- ----------<br>------------- ------ ------ ---- ---- ------- ----- to ----<br>-------- ------- -- ---------- --- - --- ----- ----- ----<br>---- --- --- ----- --- ---- ---- ------- ----- ---- -------<br>--- --- -- ----- -- --- ---- -- --- ---- -- ------ ------<br>--- ----- -- ----,181057.70999996457,181057.3400000576,180604.37,180617.54500004463,180621.063,181071.123,,16,to
screen,html.Screen,2_1_0_1_17,2021-04-26T11:14:35.320Z,,,,,,,,,,,,,,,,,53,,,,,,,,,,,,,,418.2019999731856,,response,,,,99,,,,,,,Space,keypress(Space),,,,,,,,---- -- ----- -- ------ - ------- --- ----------<br>------------- ------ ------ ---- ---- ------- ----- -- your<br>-------- ------- -- ---------- --- - --- ----- ----- ----<br>---- --- --- ----- --- ---- ---- ------- ----- ---- -------<br>--- --- -- ----- -- --- ---- -- --- ---- -- ------ ------<br>--- ----- -- ----,181489.79500005953,181489.32499997318,181054.402,181057.78499995358,181071.123,181504.461,,17,your
screen,html.Screen,2_1_0_1_18,2021-04-26T11:14:36.256Z,,,,,,,,,,,,,,,,,53,,,,,,,,,,,,,,920.7439999777125,,response,,,,99,,,,,,,Space,keypress(Space),,,,,,,,---- -- ----- -- ------ - ------- --- ----------<br>------------- ------ ------ ---- ---- ------- ----- -- ----<br>romantic ------- -- ---------- --- - --- ----- ----- ----<br>---- --- --- ----- --- ---- ---- ------- ----- ---- -------<br>--- --- -- ----- -- --- ---- -- --- ---- -- ------ ------<br>--- ----- -- ----,182425.87499995716,182425.20499997772,181487.699,181489.889999968,181504.461,182437.73,,18,romantic
screen,html.Screen,2_1_0_1_19,2021-04-26T11:14:37.247Z,,,,,,,,,,,,,,,,,53,,,,,,,,,,,,,,979.4400000297173,,response,,,,99,,,,,,,Space,keypress(Space),,,,,,,,---- -- ----- -- ------ - ------- --- ----------<br>------------- ------ ------ ---- ---- ------- ----- -- ----<br>-------- partner -- ---------- --- - --- ----- ----- ----<br>---- --- --- ----- --- ---- ---- ------- ----- ---- -------<br>--- --- -- ----- -- --- ---- -- --- ---- -- ------ ------<br>--- ----- -- ----,183417.52500005532,183417.17000002973,182421.216,182425.95499998424,182437.73,183421.131,,19,partner
screen,html.Screen,2_1_0_1_20,2021-04-26T11:14:37.759Z,,,,,,,,,,,,,,,,,53,,,,,,,,,,,,,,507.8740000418038,,response,,,,99,,,,,,,Space,keypress(Space),,,,,,,,---- -- ----- -- ------ - ------- --- ----------<br>------------- ------ ------ ---- ---- ------- ----- -- ----<br>-------- ------- is ---------- --- - --- ----- ----- ----<br>---- --- --- ----- --- ---- ---- ------- ----- ---- -------<br>--- --- -- ----- -- --- ---- -- --- ---- -- ------ ------<br>--- ----- -- ----,183929.47500001173,183929.0050000418,183404.413,183417.604999966,183421.131,183937.682,,20,is
screen,html.Screen,2_1_0_1_21,2021-04-26T11:14:39.095Z,,,,,,,,,,,,,,,,,53,,,,,,,,,,,,,,1327.38300004325,,response,,,,99,,,,,,,Space,keypress(Space),,,,,,,,---- -- ----- -- ------ - ------- --- ----------<br>------------- ------ ------ ---- ---- ------- ----- -- ----<br>-------- ------- -- paramount. --- - --- ----- ----- ----<br>---- --- --- ----- --- ---- ---- ------- ----- ---- -------<br>--- --- -- ----- -- --- ---- -- --- ---- -- ------ ------<br>--- ----- -- ----,185265.4549999861,185265.06500004325,183921.343,183929.54000004102,183937.682,185271.031,,21,paramount.
screen,html.Screen,2_1_0_1_22,2021-04-26T11:14:39.543Z,,,,,,,,,,,,,,,,,53,,,,,,,,,,,,,,441.8690000422939,,response,,,,99,,,,,,,Space,keypress(Space),,,,,,,,---- -- ----- -- ------ - ------- --- ----------<br>------------- ------ ------ ---- ---- ------- ----- -- ----<br>-------- ------- -- ---------- But - --- ----- ----- ----<br>---- --- --- ----- --- ---- ---- ------- ----- ---- -------<br>--- --- -- ----- -- --- ---- -- --- ---- -- ------ ------<br>--- ----- -- ----,185713.27000006568,185712.90000004228,185254.313,185265.52999997512,185271.031,185721.041,,22,But
screen,html.Screen,2_1_0_1_23,2021-04-26T11:14:39.967Z,,,,,,,,,,,,,,,,,53,,,,,,,,,,,,,,416.20900002887356,,response,,,,99,,,,,,,Space,keypress(Space),,,,,,,,---- -- ----- -- ------ - ------- --- ----------<br>------------- ------ ------ ---- ---- ------- ----- -- ----<br>-------- ------- -- ---------- --- a --- ----- ----- ----<br>---- --- --- ----- --- ---- ---- ------- ----- ---- -------<br>--- --- -- ----- -- --- ---- -- --- ---- -- ------ ------<br>--- ----- -- ----,186137.6000000164,186137.25000002887,185704.317,185713.34000001661,185721.041,186154.434,,23,a
screen,html.Screen,2_1_0_1_24,2021-04-26T11:14:40.431Z,,,,,,,,,,,,,,,,,53,,,,,,,,,,,,,,446.59600001981016,,response,,,,99,,,,,,,Space,keypress(Space),,,,,,,,---- -- ----- -- ------ - ------- --- ----------<br>------------- ------ ------ ---- ---- ------- ----- -- ----<br>-------- ------- -- ---------- --- - new ----- ----- ----<br>---- --- --- ----- --- ---- ---- ------- ----- ---- -------<br>--- --- -- ----- -- --- ---- -- --- ---- -- ------ ------<br>--- ----- -- ----,186601.3850000454,186601.03000001982,186137.671,186137.68000004347,186154.434,186604.447,,24,new
screen,html.Screen,2_1_0_1_25,2021-04-26T11:14:40.903Z,,,,,,,,,,,,,,,,,53,,,,,,,,,,,,,,468.5079999814625,,response,,,,99,,,,,,,Space,keypress(Space),,,,,,,,---- -- ----- -- ------ - ------- --- ----------<br>------------- ------ ------ ---- ---- ------- ----- -- ----<br>-------- ------- -- ---------- --- - --- study ----- ----<br>---- --- --- ----- --- ---- ---- ------- ----- ---- -------<br>--- --- -- ----- -- --- ---- -- --- ---- -- ------ ------<br>--- ----- -- ----,187073.31000000704,187072.95499998145,186587.713,186601.47500003222,186604.447,187087.668,,25,study
screen,html.Screen,2_1_0_1_26,2021-04-26T11:14:41.399Z,,,,,,,,,,,,,,,,,53,,,,,,,,,,,,,,481.3970000469708,,response,,,,99,,,,,,,Space,keypress(Space),,,,,,,,---- -- ----- -- ------ - ------- --- ----------<br>------------- ------ ------ ---- ---- ------- ----- -- ----<br>-------- ------- -- ---------- --- - --- ----- finds ----<br>---- --- --- ----- --- ---- ---- ------- ----- ---- -------<br>--- --- -- ----- -- --- ---- -- --- ---- -- ------ ------<br>--- ----- -- ----,187569.74000006448,187569.06500004698,187071.1,187073.38499999605,187087.668,187571.016,,26,finds
screen,html.Screen,2_1_0_1_27,2021-04-26T11:14:41.847Z,,,,,,,,,,,,,,,,,53,,,,,,,,,,,,,,445.8790000079316,,response,,,,99,,,,,,,Space,keypress(Space),,,,,,,,---- -- ----- -- ------ - ------- --- ----------<br>------------- ------ ------ ---- ---- ------- ----- -- ----<br>-------- ------- -- ---------- --- - --- ----- ----- that<br>---- --- --- ----- --- ---- ---- ------- ----- ---- -------<br>--- --- -- ----- -- --- ---- -- --- ---- -- ------ ------<br>--- ----- -- ----,188017.18500000425,188016.89500000793,187554.296,187569.81000001542,187571.016,188021.093,,27,that
screen,html.Screen,2_1_0_1_28,2021-04-26T11:14:42.527Z,,,,,,,,,,,,,,,,,53,,,,,,,,,,,,,,675.9269999632379,,response,,,,99,,,,,,,Space,keypress(Space),,,,,,,,---- -- ----- -- ------ - ------- --- ----------<br>------------- ------ ------ ---- ---- ------- ----- -- ----<br>-------- ------- -- ---------- --- - --- ----- ----- ----<br>it's --- --- ----- --- ---- ---- ------- ----- ---- -------<br>--- --- -- ----- -- --- ---- -- --- ---- -- ------ ------<br>--- ----- -- ----,188697.37499998882,188697.01999996323,188004.402,188017.90500001516,188021.093,188704.449,,28,it's
screen,html.Screen,2_1_0_1_29,2021-04-26T11:14:43.279Z,,,,,,,,,,,,,,,,,53,,,,,,,,,,,,,,744.751000031858,,response,,,,99,,,,,,,Space,keypress(Space),,,,,,,,---- -- ----- -- ------ - ------- --- ----------<br>------------- ------ ------ ---- ---- ------- ----- -- ----<br>-------- ------- -- ---------- --- - --- ----- ----- ----<br>---- not --- ----- --- ---- ---- ------- ----- ---- -------<br>--- --- -- ----- -- --- ---- -- --- ---- -- ------ ------<br>--- ----- -- ----,189449.5749999769,189449.20000003185,188687.646,188697.44999997783,188704.449,189454.449,,29,not
screen,html.Screen,2_1_0_1_30,2021-04-26T11:14:43.880Z,,,,,,,,,,,,,,,,,53,,,,,,,,,,,,,,595.9760000231036,,response,,,,99,,,,,,,Space,keypress(Space),,,,,,,,---- -- ----- -- ------ - ------- --- ----------<br>------------- ------ ------ ---- ---- ------- ----- -- ----<br>-------- ------- -- ---------- --- - --- ----- ----- ----<br>---- --- how ----- --- ---- ---- ------- ----- ---- -------<br>--- --- -- ----- -- --- ---- -- --- ---- -- ------ ------<br>--- ----- -- ----,190050.69499998353,190050.4250000231,189438.001,189449.655000004,189454.449,190054.329,,30,how
screen,html.Screen,2_1_0_1_31,2021-04-26T11:14:44.519Z,,,,,,,,,,,,,,,,,53,,,,,,,,,,,,,,634.7160000064468,,response,,,,99,,,,,,,Space,keypress(Space),,,,,,,,---- -- ----- -- ------ - ------- --- ----------<br>------------- ------ ------ ---- ---- ------- ----- -- ----<br>-------- ------- -- ---------- --- - --- ----- ----- ----<br>---- --- --- close --- ---- ---- ------- ----- ---- -------<br>--- --- -- ----- -- --- ---- -- --- ---- -- ------ ------<br>--- ----- -- ----,190689.43999998737,190689.04500000644,190037.74,190050.76000001281,190054.329,190704.463,,31,close
screen,html.Screen,2_1_0_1_32,2021-04-26T11:14:45.143Z,,,,,,,,,,,,,,,,,53,,,,,,,,,,,,,,609.1620000679977,,response,,,,99,,,,,,,Space,keypress(Space),,,,,,,,---- -- ----- -- ------ - ------- --- ----------<br>------------- ------ ------ ---- ---- ------- ----- -- ----<br>-------- ------- -- ---------- --- - --- ----- ----- ----<br>---- --- --- ----- you ---- ---- ------- ----- ---- -------<br>--- --- -- ----- -- --- ---- -- --- ---- -- ------ ------<br>--- ----- -- ----,191314.03000000864,191313.625000068,190687.654,190689.51000005472,190704.463,191321.044,,32,you
screen,html.Screen,2_1_0_1_33,2021-04-26T11:14:45.559Z,,,,,,,,,,,,,,,,,53,,,,,,,,,,,,,,408.3009999997448,,response,,,,99,,,,,,,Space,keypress(Space),,,,,,,,---- -- ----- -- ------ - ------- --- ----------<br>------------- ------ ------ ---- ---- ------- ----- -- ----<br>-------- ------- -- ---------- --- - --- ----- ----- ----<br>---- --- --- ----- --- feel ---- ------- ----- ---- -------<br>--- --- -- ----- -- --- ---- -- --- ---- -- ------ ------<br>--- ----- -- ----,191729.67000002973,191729.34499999974,191304.59,191314.12999995518,191321.044,191737.772,,33,feel
screen,html.Screen,2_1_0_1_34,2021-04-26T11:14:46.047Z,,,,,,,,,,,,,,,,,53,,,,,,,,,,,,,,479.2779999774648,,response,,,,99,,,,,,,Space,keypress(Space),,,,,,,,---- -- ----- -- ------ - ------- --- ----------<br>------------- ------ ------ ---- ---- ------- ----- -- ----<br>-------- ------- -- ---------- --- - --- ----- ----- ----<br>---- --- --- ----- --- ---- that ------- ----- ---- -------<br>--- --- -- ----- -- --- ---- -- --- ---- -- ------ ------<br>--- ----- -- ----,192217.46499999426,192217.04999997746,191721.122,191729.74500001874,191737.772,192221.08,,34,that
screen,html.Screen,2_1_0_1_35,2021-04-26T11:14:46.719Z,,,,,,,,,,,,,,,,,53,,,,,,,,,,,,,,667.9349999642873,,response,,,,99,,,,,,,Space,keypress(Space),,,,,,,,---- -- ----- -- ------ - ------- --- ----------<br>------------- ------ ------ ---- ---- ------- ----- -- ----<br>-------- ------- -- ---------- --- - --- ----- ----- ----<br>---- --- --- ----- --- ---- ---- matters ----- ---- -------<br>--- --- -- ----- -- --- ---- -- --- ---- -- ------ ------<br>--- ----- -- ----,192889.53000004403,192889.01499996427,192204.361,192217.53000002354,192221.08,192904.324,,35,matters
screen,html.Screen,2_1_0_1_36,2021-04-26T11:14:47.623Z,,,,,,,,,,,,,,,,,53,,,,,,,,,,,,,,889.026000050857,,response,,,,99,,,,,,,Space,keypress(Space),,,,,,,,"---- -- ----- -- ------ - ------- --- ----------<br>------------- ------ ------ ---- ---- ------- ----- -- ----<br>-------- ------- -- ---------- --- - --- ----- ----- ----<br>---- --- --- ----- --- ---- ---- ------- most, ---- -------<br>--- --- -- ----- -- --- ---- -- --- ---- -- ------ ------<br>--- ----- -- ----",193793.7699999893,193793.35000005085,192887.982,192889.9799999781,192904.324,193804.451,,36,"most,"
screen,html.Screen,2_1_0_1_37,2021-04-26T11:14:48.231Z,,,,,,,,,,,,,,,,,53,,,,,,,,,,,,,,596.639000057592,,response,,,,99,,,,,,,Space,keypress(Space),,,,,,,,---- -- ----- -- ------ - ------- --- ----------<br>------------- ------ ------ ---- ---- ------- ----- -- ----<br>-------- ------- -- ---------- --- - --- ----- ----- ----<br>---- --- --- ----- --- ---- ---- ------- ----- it's -------<br>--- --- -- ----- -- --- ---- -- --- ---- -- ------ ------<br>--- ----- -- ----,194401.42000000924,194401.0900000576,193787.903,193793.87000005227,193804.451,194404.453,,37,it's
screen,html.Screen,2_1_0_1_38,2021-04-26T11:14:48.759Z,,,,,,,,,,,,,,,,,53,,,,,,,,,,,,,,524.937000062986,,response,,,,99,,,,,,,Space,keypress(Space),,,,,,,,---- -- ----- -- ------ - ------- --- ----------<br>------------- ------ ------ ---- ---- ------- ----- -- ----<br>-------- ------- -- ---------- --- - --- ----- ----- ----<br>---- --- --- ----- --- ---- ---- ------- ----- ---- whether<br>--- --- -- ----- -- --- ---- -- --- ---- -- ------ ------<br>--- ----- -- ----,194930.03000004683,194929.390000063,194387.668,194401.48999996018,194404.453,194937.716,,38,whether
screen,html.Screen,2_1_0_1_39,2021-04-26T11:14:49.135Z,,,,,,,,,,,,,,,,,53,,,,,,,,,,,,,,367.30399997069617,,response,,,,99,,,,,,,Space,keypress(Space),,,,,,,,---- -- ----- -- ------ - ------- --- ----------<br>------------- ------ ------ ---- ---- ------- ----- -- ----<br>-------- ------- -- ---------- --- - --- ----- ----- ----<br>---- --- --- ----- --- ---- ---- ------- ----- ---- -------<br>you --- -- ----- -- --- ---- -- --- ---- -- ------ ------<br>--- ----- -- ----,195305.36500003655,195305.01999997068,194921.017,194930.09999999776,194937.716,195321.022,,39,you
screen,html.Screen,2_1_0_1_40,2021-04-26T11:14:49.551Z,,,,,,,,,,,,,,,,,53,,,,,,,,,,,,,,400.2880000517471,,response,,,,99,,,,,,,Space,keypress(Space),,,,,,,,---- -- ----- -- ------ - ------- --- ----------<br>------------- ------ ------ ---- ---- ------- ----- -- ----<br>-------- ------- -- ---------- --- - --- ----- ----- ----<br>---- --- --- ----- --- ---- ---- ------- ----- ---- -------<br>--- are -- ----- -- --- ---- -- --- ---- -- ------ ------<br>--- ----- -- ----,195721.8700000085,195721.31000005174,195304.454,195305.44000002556,195321.022,195737.717,,40,are
screen,html.Screen,2_1_0_1_41,2021-04-26T11:14:49.935Z,,,,,,,,,,,,,,,,,53,,,,,,,,,,,,,,367.38300004432676,,response,,,,99,,,,,,,Space,keypress(Space),,,,,,,,---- -- ----- -- ------ - ------- --- ----------<br>------------- ------ ------ ---- ---- ------- ----- -- ----<br>-------- ------- -- ---------- --- - --- ----- ----- ----<br>---- --- --- ----- --- ---- ---- ------- ----- ---- -------<br>--- --- as ----- -- --- ---- -- --- ---- -- ------ ------<br>--- ----- -- ----,196105.42999999598,196105.10000004433,195721.009,195721.9749999931,195737.717,196120.999,,41,as
screen,html.Screen,2_1_0_1_42,2021-04-26T11:14:50.351Z,,,,,,,,,,,,,,,,,53,,,,,,,,,,,,,,399.9510000346345,,response,,,,99,,,,,,,Space,keypress(Space),,,,,,,,---- -- ----- -- ------ - ------- --- ----------<br>------------- ------ ------ ---- ---- ------- ----- -- ----<br>-------- ------- -- ---------- --- - --- ----- ----- ----<br>---- --- --- ----- --- ---- ---- ------- ----- ---- -------<br>--- --- -- close -- --- ---- -- --- ---- -- ------ ------<br>--- ----- -- ----,196521.2799999863,196520.95000003465,196104.306,196105.504999985,196120.999,196537.709,,42,close
screen,html.Screen,2_1_0_1_43,2021-04-26T11:14:50.727Z,,,,,,,,,,,,,,,,,53,,,,,,,,,,,,,,359.6210000652645,,response,,,,99,,,,,,,Space,keypress(Space),,,,,,,,---- -- ----- -- ------ - ------- --- ----------<br>------------- ------ ------ ---- ---- ------- ----- -- ----<br>-------- ------- -- ---------- --- - --- ----- ----- ----<br>---- --- --- ----- --- ---- ---- ------- ----- ---- -------<br>--- --- -- ----- as --- ---- -- --- ---- -- ------ ------<br>--- ----- -- ----,196897.69999997225,196897.33000006527,196521.016,196521.35000005364,196537.709,196904.345,,43,as
screen,html.Screen,2_1_0_1_44,2021-04-26T11:14:51.183Z,,,,,,,,,,,,,,,,,53,,,,,,,,,,,,,,448.95999999690684,,response,,,,99,,,,,,,Space,keypress(Space),,,,,,,,---- -- ----- -- ------ - ------- --- ----------<br>------------- ------ ------ ---- ---- ------- ----- -- ----<br>-------- ------- -- ---------- --- - --- ----- ----- ----<br>---- --- --- ----- --- ---- ---- ------- ----- ---- -------<br>--- --- -- ----- -- you ---- -- --- ---- -- ------ ------<br>--- ----- -- ----,197353.65499998443,197353.3049999969,196887.675,196897.7700000396,196904.345,197354.374,,44,you
screen,html.Screen,2_1_0_1_45,2021-04-26T11:14:51.647Z,,,,,,,,,,,,,,,,,53,,,,,,,,,,,,,,462.9760000266251,,response,,,,99,,,,,,,Space,keypress(Space),,,,,,,,---- -- ----- -- ------ - ------- --- ----------<br>------------- ------ ------ ---- ---- ------- ----- -- ----<br>-------- ------- -- ---------- --- - --- ----- ----- ----<br>---- --- --- ----- --- ---- ---- ------- ----- ---- -------<br>--- --- -- ----- -- --- want -- --- ---- -- ------ ------<br>--- ----- -- ----,197817.81999999657,197817.35000002664,197337.704,197353.72999997344,197354.374,197821.135,,45,want
screen,html.Screen,2_1_0_1_46,2021-04-26T11:14:52.047Z,,,,,,,,,,,,,,,,,53,,,,,,,,,,,,,,396.2600000433158,,response,,,,99,,,,,,,Space,keypress(Space),,,,,,,,---- -- ----- -- ------ - ------- --- ----------<br>------------- ------ ------ ---- ---- ------- ----- -- ----<br>-------- ------- -- ---------- --- - --- ----- ----- ----<br>---- --- --- ----- --- ---- ---- ------- ----- ---- -------<br>--- --- -- ----- -- --- ---- to --- ---- -- ------ ------<br>--- ----- -- ----,198217.75499999058,198217.39500004333,197804.419,197817.89000006393,197821.135,198221.002,,46,to
screen,html.Screen,2_1_0_1_47,2021-04-26T11:14:52.423Z,,,,,,,,,,,,,,,,,53,,,,,,,,,,,,,,371.9929999554006,,response,,,,99,,,,,,,Space,keypress(Space),,,,,,,,"---- -- ----- -- ------ - ------- --- ----------<br>------------- ------ ------ ---- ---- ------- ----- -- ----<br>-------- ------- -- ---------- --- - --- ----- ----- ----<br>---- --- --- ----- --- ---- ---- ------- ----- ---- -------<br>--- --- -- ----- -- --- ---- -- be, ---- -- ------ ------<br>--- ----- -- ----",198593.31000002567,198592.9949999554,198204.664,198217.82000001986,198221.002,198604.439,,47,"be,"
screen,html.Screen,2_1_0_1_48,2021-04-26T11:14:52.879Z,,,,,,,,,,,,,,,,,53,,,,,,,,,,,,,,444.58599995658733,,response,,,,99,,,,,,,Space,keypress(Space),,,,,,,,---- -- ----- -- ------ - ------- --- ----------<br>------------- ------ ------ ---- ---- ------- ----- -- ----<br>-------- ------- -- ---------- --- - --- ----- ----- ----<br>---- --- --- ----- --- ---- ---- ------- ----- ---- -------<br>--- --- -- ----- -- --- ---- -- --- even -- ------ ------<br>--- ----- -- ----,199049.43500005174,199049.0249999566,198587.74,198593.37500005495,198604.439,199054.363,,48,even
screen,html.Screen,2_1_0_1_49,2021-04-26T11:14:53.263Z,,,,,,,,,,,,,,,,,53,,,,,,,,,,,,,,378.68699999235105,,response,,,,99,,,,,,,Space,keypress(Space),,,,,,,,---- -- ----- -- ------ - ------- --- ----------<br>------------- ------ ------ ---- ---- ------- ----- -- ----<br>-------- ------- -- ---------- --- - --- ----- ----- ----<br>---- --- --- ----- --- ---- ---- ------- ----- ---- -------<br>--- --- -- ----- -- --- ---- -- --- ---- if ------ ------<br>--- ----- -- ----,199433.36999998428,199433.04999999236,199037.728,199049.49500004295,199054.363,199437.748,,49,if
screen,html.Screen,2_1_0_1_50,2021-04-26T11:14:53.679Z,,,,,,,,,,,,,,,,,53,,,,,,,,,,,,,,411.3620000683295,,response,,,,99,,,,,,,Space,keypress(Space),,,,,,,,---- -- ----- -- ------ - ------- --- ----------<br>------------- ------ ------ ---- ---- ------- ----- -- ----<br>-------- ------- -- ---------- --- - --- ----- ----- ----<br>---- --- --- ----- --- ---- ---- ------- ----- ---- -------<br>--- --- -- ----- -- --- ---- -- --- ---- -- that's ------<br>--- ----- -- ----,199849.48500001337,199849.11000006832,199421.171,199433.43500001356,199437.748,199854.539,,50,that's
screen,html.Screen,2_1_0_1_51,2021-04-26T11:14:54.159Z,,,,,,,,,,,,,,,,,53,,,,,,,,,,,,,,474.5459999757586,,response,,,,99,,,,,,,Space,keypress(Space),,,,,,,,---- -- ----- -- ------ - ------- --- ----------<br>------------- ------ ------ ---- ---- ------- ----- -- ----<br>-------- ------- -- ---------- --- - --- ----- ----- ----<br>---- --- --- ----- --- ---- ---- ------- ----- ---- -------<br>--- --- -- ----- -- --- ---- -- --- ---- -- ------ really<br>--- ----- -- ----,200329.57499998156,200329.08499997575,199837.669,199849.5549999643,199854.539,200338.106,,51,really
screen,html.Screen,2_1_0_1_52,2021-04-26T11:14:54.544Z,,,,,,,,,,,,,,,,,53,,,,,,,,,,,,,,375.4340000261145,,response,,,,99,,,,,,,Space,keypress(Space),,,,,,,,---- -- ----- -- ------ - ------- --- ----------<br>------------- ------ ------ ---- ---- ------- ----- -- ----<br>-------- ------- -- ---------- --- - --- ----- ----- ----<br>---- --- --- ----- --- ---- ---- ------- ----- ---- -------<br>--- --- -- ----- -- --- ---- -- --- ---- -- ------ ------<br>not ----- -- ----,200714.35999998357,200713.5400000261,200321.105,200329.63499997277,200338.106,200721.115,,52,not
screen,html.Screen,2_1_0_1_53,2021-04-26T11:14:54.863Z,,,,,,,,,,,,,,,,,53,,,,,,,,,,,,,,311.9900000386406,,response,,,,99,,,,,,,Space,keypress(Space),,,,,,,,---- -- ----- -- ------ - ------- --- ----------<br>------------- ------ ------ ---- ---- ------- ----- -- ----<br>-------- ------- -- ---------- --- - --- ----- ----- ----<br>---- --- --- ----- --- ---- ---- ------- ----- ---- -------<br>--- --- -- ----- -- --- ---- -- --- ---- -- ------ ------<br>--- close -- ----,201033.4149999544,201033.10500003863,200704.342,200714.80499999598,200721.115,201037.701,,53,close
screen,html.Screen,2_1_0_1_54,2021-04-26T11:14:55.175Z,,,,,,,,,,,,,,,,,53,,,,,,,,,,,,,,307.7690000584116,,response,,,,99,,,,,,,Space,keypress(Space),,,,,,,,---- -- ----- -- ------ - ------- --- ----------<br>------------- ------ ------ ---- ---- ------- ----- -- ----<br>-------- ------- -- ---------- --- - --- ----- ----- ----<br>---- --- --- ----- --- ---- ---- ------- ----- ---- -------<br>--- --- -- ----- -- --- ---- -- --- ---- -- ------ ------<br>--- ----- at ----,201345.93499999028,201345.4700000584,201021.305,201033.47500006203,201037.701,201354.753,,54,at
screen,html.Screen,2_1_0_1_55,2021-04-26T11:14:55.591Z,,,,,,,,,,,,,,,,,53,,,,,,,,,,,,,,406.35200004142825,,response,,,,99,,,,,,,Space,keypress(Space),,,,,,,,---- -- ----- -- ------ - ------- --- ----------<br>------------- ------ ------ ---- ---- ------- ----- -- ----<br>-------- ------- -- ---------- --- - --- ----- ----- ----<br>---- --- --- ----- --- ---- ---- ------- ----- ---- -------<br>--- --- -- ----- -- --- ---- -- --- ---- -- ------ ------<br>--- ----- -- all.,201761.50999998208,201761.10500004143,201337.634,201346.04500001296,201354.753,201771.162,,55,all.
Item 99,flow.Loop,2_1_0_1,2021-04-26T11:14:55.591Z,,,,,,,,,,,,,,,,,,,,,,,,,,,,,,,34106.71300004143,,completion,,,,,B,,,,,,,,,,,silence,,,,,201761.6899999557,201761.10500004143,167637.799,167639.27000004333,167654.392,201771.162,,,
Question 1,html.Screen,2_1_0_2,2021-04-26T11:15:03.492Z,,,,,,,,,,,,,,,,,,,,,,,,,,,,true,FALSE,,7890.628000041936,,response,,,,99,B,,,,,,FALSE,click #choice-2,,,,silence,,,,,209662.21500001848,209661.79000004195,201754.428,201761.77500002086,201771.162,209671.143,,,
Question 2,html.Screen,2_1_0_3,2021-04-26T11:15:08.835Z,,,,,,,,,,,,,,,,,,,,,,,,,,,,true,TRUE,,5333.797000013437,,response,,,,99,B,,,,,,TRUE,click #choice-1,,,,silence,,,,,215005.4249999812,215004.94000001345,209654.334,209662.28000004776,209671.143,215020.949,,,
Item 99,flow.Sequence,2_1_0,2021-04-26T11:15:08.835Z,,,,,,,,,,,,,,,,,,,,,,,,,,,,,,,57350.51700001344,,completion,,,,,,,,,,,,,,,,,,,,,215005.52500004414,215004.94000001345,157637.901,157642.18500000425,157654.423,215020.949,,,
Holding screen,html.Screen,2_1_1_0,2021-04-26T11:15:18.834Z,,,,,,,,,,,,,,,,,,,,,,,,,,,,,,,10000.029999999999,,timeout,,,,,,,,,,,,,,,,,,,,,225004.8249999527,225004.324,215004.304,215006.29000004847,215020.949,225020.979,,,
screen,html.Screen,2_1_1_1_0,2021-04-26T11:15:19.551Z,,,,,,,,,,,,,,,,,54,,,,,,,,,,,,,,700.301000056148,,response,,,,100,,,,,,,Space,keypress(Space),,,,,,,,At --- ---- --- ------ ----- ------- ---- -- --- ------- --<br>------- ---------- ------ -- ----- -- ----- -- ---- ------<br>--- ----- --- --- ------ -------- ----- --- ------ ----- --<br>----- ----- ---------- --- --- ------ ------ ---- -- ------<br>------- --- ------ ----- --- ---- ------- -- ---- --- --<br>------- ------,225721.74000006635,225721.28000005614,225004.324,225004.91000001784,225020.979,225737.714,,0,At
screen,html.Screen,2_1_1_1_1,2021-04-26T11:15:19.935Z,,,,,,,,,,,,,,,,,54,,,,,,,,,,,,,,367.3560000487196,,response,,,,100,,,,,,,Space,keypress(Space),,,,,,,,-- the ---- --- ------ ----- ------- ---- -- --- ------- --<br>------- ---------- ------ -- ----- -- ----- -- ---- ------<br>--- ----- --- --- ------ -------- ----- --- ------ ----- --<br>----- ----- ---------- --- --- ------ ------ ---- -- ------<br>------- --- ------ ----- --- ---- ------- -- ---- --- --<br>------- ------,226105.42000003625,226105.07000004873,225721.031,225721.8049999792,225737.714,226120.964,,1,the
screen,html.Screen,2_1_1_1_2,2021-04-26T11:15:20.343Z,,,,,,,,,,,,,,,,,54,,,,,,,,,,,,,,392.4010000207054,,response,,,,100,,,,,,,Space,keypress(Space),,,,,,,,-- --- time --- ------ ----- ------- ---- -- --- ------- --<br>------- ---------- ------ -- ----- -- ----- -- ---- ------<br>--- ----- --- --- ------ -------- ----- --- ------ ----- --<br>----- ----- ---------- --- --- ------ ------ ---- -- ------<br>------- --- ------ ----- --- ---- ------- -- ---- --- --<br>------- ------,226513.72499996796,226513.3650000207,226104.372,226105.49500002526,226120.964,226521.051,,2,time
screen,html.Screen,2_1_1_1_3,2021-04-26T11:15:20.719Z,,,,,,,,,,,,,,,,,54,,,,,,,,,,,,,,368.13399997816305,,response,,,,100,,,,,,,Space,keypress(Space),,,,,,,,-- --- ---- the ------ ----- ------- ---- -- --- ------- --<br>------- ---------- ------ -- ----- -- ----- -- ---- ------<br>--- ----- --- --- ------ -------- ----- --- ------ ----- --<br>----- ----- ---------- --- --- ------ ------ ---- -- ------<br>------- --- ------ ----- --- ---- ------- -- ---- --- --<br>------- ------,226889.63500002865,226889.18499997817,226504.307,226513.79500003532,226521.051,226904.433,,3,the
screen,html.Screen,2_1_1_1_4,2021-04-26T11:15:21.319Z,,,,,,,,,,,,,,,,,54,,,,,,,,,,,,,,584.6570000464271,,response,,,,100,,,,,,,Space,keypress(Space),,,,,,,,-- --- ---- --- French ----- ------- ---- -- --- ------- --<br>------- ---------- ------ -- ----- -- ----- -- ---- ------<br>--- ----- --- --- ------ -------- ----- --- ------ ----- --<br>----- ----- ---------- --- --- ------ ------ ---- -- ------<br>------- --- ------ ----- --- ---- ------- -- ---- --- --<br>------- ------,227489.56500005443,227489.09000004642,226887.793,226889.70000005793,226904.433,227504.627,,4,French
screen,html.Screen,2_1_1_1_5,2021-04-26T11:15:21.815Z,,,,,,,,,,,,,,,,,54,,,,,,,,,,,,,,480.37800002409494,,response,,,,100,,,,,,,Space,keypress(Space),,,,,,,,-- --- ---- --- ------ crown ------- ---- -- --- ------- --<br>------- ---------- ------ -- ----- -- ----- -- ---- ------<br>--- ----- --- --- ------ -------- ----- --- ------ ----- --<br>----- ----- ---------- --- --- ------ ------ ---- -- ------<br>------- --- ------ ----- --- ---- ------- -- ---- --- --<br>------- ------,227985.3900000453,227985.0050000241,227487.681,227489.6449999651,227504.627,227987.618,,5,crown
screen,html.Screen,2_1_1_1_6,2021-04-26T11:15:22.327Z,,,,,,,,,,,,,,,,,54,,,,,,,,,,,,,,509.73699999952805,,response,,,,100,,,,,,,Space,keypress(Space),,,,,,,,-- --- ---- --- ------ ----- secured ---- -- --- ------- --<br>------- ---------- ------ -- ----- -- ----- -- ---- ------<br>--- ----- --- --- ------ -------- ----- --- ------ ----- --<br>----- ----- ---------- --- --- ------ ------ ---- -- ------<br>------- --- ------ ----- --- ---- ------- -- ---- --- --<br>------- ------,228497.71500006318,228497.35499999952,227971.039,227985.4500000365,227987.618,228504.352,,6,secured
screen,html.Screen,2_1_1_1_7,2021-04-26T11:15:22.919Z,,,,,,,,,,,,,,,,,54,,,,,,,,,,,,,,584.7080000275164,,response,,,,100,,,,,,,Space,keypress(Space),,,,,,,,-- --- ---- --- ------ ----- ------- much -- --- ------- --<br>------- ---------- ------ -- ----- -- ----- -- ---- ------<br>--- ----- --- --- ------ -------- ----- --- ------ ----- --<br>----- ----- ---------- --- --- ------ ------ ---- -- ------<br>------- --- ------ ----- --- ---- ------- -- ---- --- --<br>------- ------,229089.50500003994,229089.06000002753,228487.7,228497.78500001412,228504.352,229104.721,,7,much
screen,html.Screen,2_1_1_1_8,2021-04-26T11:15:23.415Z,,,,,,,,,,,,,,,,,54,,,,,,,,,,,,,,480.2939999605587,,response,,,,100,,,,,,,Space,keypress(Space),,,,,,,,-- --- ---- --- ------ ----- ------- ---- of --- ------- --<br>------- ---------- ------ -- ----- -- ----- -- ---- ------<br>--- ----- --- --- ------ -------- ----- --- ------ ----- --<br>----- ----- ---------- --- --- ------ ------ ---- -- ------<br>------- --- ------ ----- --- ---- ------- -- ---- --- --<br>------- ------,229585.33999999054,229585.01499996055,229087.646,229089.60000006482,229104.721,229587.64,,8,of
screen,html.Screen,2_1_1_1_9,2021-04-26T11:15:30.911Z,,,,,,,,,,,,,,,,,54,,,,,,,,,,,,,,7493.479999987991,,response,,,,100,,,,,,,Space,keypress(Space),,,,,,,,-- --- ---- --- ------ ----- ------- ---- -- its ------- --<br>------- ---------- ------ -- ----- -- ----- -- ---- ------<br>--- ----- --- --- ------ -------- ----- --- ------ ----- --<br>----- ----- ---------- --- --- ------ ------ ---- -- ------<br>------- --- ------ ----- --- ---- ------- -- ---- --- --<br>------- ------,237081.40999998432,237081.119999988,229571.186,229585.4550000513,229587.64,237087.708,,9,its
screen,html.Screen,2_1_1_1_10,2021-04-26T11:15:31.687Z,,,,,,,,,,,,,,,,,54,,,,,,,,,,,,,,769.2570000426786,,response,,,,100,,,,,,,Space,keypress(Space),,,,,,,,-- --- ---- --- ------ ----- ------- ---- -- --- revenue --<br>------- ---------- ------ -- ----- -- ----- -- ---- ------<br>--- ----- --- --- ------ -------- ----- --- ------ ----- --<br>----- ----- ---------- --- --- ------ ------ ---- -- ------<br>------- --- ------ ----- --- ---- ------- -- ---- --- --<br>------- ------,237857.28999995627,237856.9650000427,237070.755,237081.4750000136,237087.708,237871.022,,10,revenue
screen,html.Screen,2_1_1_1_11,2021-04-26T11:15:32.375Z,,,,,,,,,,,,,,,,,54,,,,,,,,,,,,,,674.2680000382243,,response,,,,100,,,,,,,Space,keypress(Space),,,,,,,,-- --- ---- --- ------ ----- ------- ---- -- --- ------- by<br>------- ---------- ------ -- ----- -- ----- -- ---- ------<br>--- ----- --- --- ------ -------- ----- --- ------ ----- --<br>----- ----- ---------- --- --- ------ ------ ---- -- ------<br>------- --- ------ ----- --- ---- ------- -- ---- --- --<br>------- ------,238545.61000003014,238545.29000003822,237854.236,237857.3500000639,237871.022,238554.394,,11,by
screen,html.Screen,2_1_1_1_12,2021-04-26T11:15:34.807Z,,,,,,,,,,,,,,,,,54,,,,,,,,,,,,,,2422.601000033639,,response,,,,100,,,,,,,Space,keypress(Space),,,,,,,,-- --- ---- --- ------ ----- ------- ---- -- --- ------- --<br>issuing ---------- ------ -- ----- -- ----- -- ---- ------<br>--- ----- --- --- ------ -------- ----- --- ------ ----- --<br>----- ----- ---------- --- --- ------ ------ ---- -- ------<br>------- --- ------ ----- --- ---- ------- -- ---- --- --<br>------- ------,240977.37500001676,240976.99500003364,238537.685,238545.67500005942,238554.394,240987.694,,12,issuing
screen,html.Screen,2_1_1_1_13,2021-04-26T11:15:35.551Z,,,,,,,,,,,,,,,,,54,,,,,,,,,,,,,,733.3560000510479,,response,,,,100,,,,,,,Space,keypress(Space),,,,,,,,-- --- ---- --- ------ ----- ------- ---- -- --- ------- --<br>------- government ------ -- ----- -- ----- -- ---- ------<br>--- ----- --- --- ------ -------- ----- --- ------ ----- --<br>----- ----- ---------- --- --- ------ ------ ---- -- ------<br>------- --- ------ ----- --- ---- ------- -- ---- --- --<br>------- ------,241721.39500000048,241721.05000005104,240970.931,240977.45500004385,240987.694,241737.773,,13,government
screen,html.Screen,2_1_1_1_14,2021-04-26T11:15:36.703Z,,,,,,,,,,,,,,,,,54,,,,,,,,,,,,,,1135.131999996549,,response,,,,100,,,,,,,Space,keypress(Space),,,,,,,,-- --- ---- --- ------ ----- ------- ---- -- --- ------- --<br>------- ---------- bonds. -- ----- -- ----- -- ---- ------<br>--- ----- --- --- ------ -------- ----- --- ------ ----- --<br>----- ----- ---------- --- --- ------ ------ ---- -- ------<br>------- --- ------ ----- --- ---- ------- -- ---- --- --<br>------- ------,242873.24500002433,242872.90499999654,241720.985,241721.46000002977,241737.773,242887.66,,14,bonds.
screen,html.Screen,2_1_1_1_15,2021-04-26T11:15:37.119Z,,,,,,,,,,,,,,,,,54,,,,,,,,,,,,,,401.33999998975196,,response,,,,100,,,,,,,Space,keypress(Space),,,,,,,,-- --- ---- --- ------ ----- ------- ---- -- --- ------- --<br>------- ---------- ------ In ----- -- ----- -- ---- ------<br>--- ----- --- --- ------ -------- ----- --- ------ ----- --<br>----- ----- ---------- --- --- ------ ------ ---- -- ------<br>------- --- ------ ----- --- ---- ------- -- ---- --- --<br>------- ------,243289.50499999337,243288.99999998976,242870.906,242873.32000001334,242887.66,243304.304,,15,In
screen,html.Screen,2_1_1_1_16,2021-04-26T11:15:38.423Z,,,,,,,,,,,,,,,,,54,,,,,,,,,,,,,,1288.6860000337474,,response,,,,100,,,,,,,Space,keypress(Space),,,,,,,,"-- --- ---- --- ------ ----- ------- ---- -- --- ------- --<br>------- ---------- ------ -- 1727, -- ----- -- ---- ------<br>--- ----- --- --- ------ -------- ----- --- ------ ----- --<br>----- ----- ---------- --- --- ------ ------ ---- -- ------<br>------- --- ------ ----- --- ---- ------- -- ---- --- --<br>------- ------",244593.29500002787,244592.99000003375,243287.573,243289.57000002265,243304.304,244604.357,,16,"1727,"
screen,html.Screen,2_1_1_1_17,2021-04-26T11:15:38.999Z,,,,,,,,,,,,,,,,,54,,,,,,,,,,,,,,564.9380000288074,,response,,,,100,,,,,,,Space,keypress(Space),,,,,,,,-- --- ---- --- ------ ----- ------- ---- -- --- ------- --<br>------- ---------- ------ -- ----- in ----- -- ---- ------<br>--- ----- --- --- ------ -------- ----- --- ------ ----- --<br>----- ----- ---------- --- --- ------ ------ ---- -- ------<br>------- --- ------ ----- --- ---- ------- -- ---- --- --<br>------- ------,245169.8500000639,245169.2950000288,244587.684,244593.36000005715,244604.357,245170.941,,17,in
screen,html.Screen,2_1_1_1_18,2021-04-26T11:15:39.431Z,,,,,,,,,,,,,,,,,54,,,,,,,,,,,,,,429.9690000374103,,response,,,,100,,,,,,,Space,keypress(Space),,,,,,,,-- --- ---- --- ------ ----- ------- ---- -- --- ------- --<br>------- ---------- ------ -- ----- -- order -- ---- ------<br>--- ----- --- --- ------ -------- ----- --- ------ ----- --<br>----- ----- ---------- --- --- ------ ------ ---- -- ------<br>------- --- ------ ----- --- ---- ------- -- ---- --- --<br>------- ------,245601.22499999125,245600.9100000374,245154.368,245169.91499997675,245170.941,245604.434,,18,order
screen,html.Screen,2_1_1_1_19,2021-04-26T11:15:39.792Z,,,,,,,,,,,,,,,,,54,,,,,,,,,,,,,,357.41100004164036,,response,,,,100,,,,,,,Space,keypress(Space),,,,,,,,-- --- ---- --- ------ ----- ------- ---- -- --- ------- --<br>------- ---------- ------ -- ----- -- ----- to ---- ------<br>--- ----- --- --- ------ -------- ----- --- ------ ----- --<br>----- ----- ---------- --- --- ------ ------ ---- -- ------<br>------- --- ------ ----- --- ---- ------- -- ---- --- --<br>------- ------,245962.12499996182,245961.84500004165,245587.602,245601.28499998245,245604.434,245970.942,,19,to
screen,html.Screen,2_1_1_1_20,2021-04-26T11:15:40.135Z,,,,,,,,,,,,,,,,,54,,,,,,,,,,,,,,334.408000038733,,response,,,,100,,,,,,,Space,keypress(Space),,,,,,,,-- --- ---- --- ------ ----- ------- ---- -- --- ------- --<br>------- ---------- ------ -- ----- -- ----- -- save ------<br>--- ----- --- --- ------ -------- ----- --- ------ ----- --<br>----- ----- ---------- --- --- ------ ------ ---- -- ------<br>------- --- ------ ----- --- ---- ------- -- ---- --- --<br>------- ------,246305.85500004236,246305.35000003874,245954.275,245962.1899999911,245970.942,246320.945,,20,save
screen,html.Screen,2_1_1_1_21,2021-04-26T11:15:40.543Z,,,,,,,,,,,,,,,,,54,,,,,,,,,,,,,,392.38999997853534,,response,,,,100,,,,,,,Space,keypress(Space),,,,,,,,"-- --- ---- --- ------ ----- ------- ---- -- --- ------- --<br>------- ---------- ------ -- ----- -- ----- -- ---- money,<br>--- ----- --- --- ------ -------- ----- --- ------ ----- --<br>----- ----- ---------- --- --- ------ ------ ---- -- ------<br>------- --- ------ ----- --- ---- ------- -- ---- --- --<br>------- ------",246713.67500000633,246713.33499997854,246304.243,246305.95000006724,246320.945,246721.001,,21,"money,"
screen,html.Screen,2_1_1_1_22,2021-04-26T11:15:40.967Z,,,,,,,,,,,,,,,,,54,,,,,,,,,,,,,,416.1639999637264,,response,,,,100,,,,,,,Space,keypress(Space),,,,,,,,-- --- ---- --- ------ ----- ------- ---- -- --- ------- --<br>------- ---------- ------ -- ----- -- ----- -- ---- ------<br>the ----- --- --- ------ -------- ----- --- ------ ----- --<br>----- ----- ---------- --- --- ------ ------ ---- -- ------<br>------- --- ------ ----- --- ---- ------- -- ---- --- --<br>------- ------,247137.4899999937,247137.16499996372,246704.55,246713.74999999534,246721.001,247154.379,,22,the
screen,html.Screen,2_1_1_1_23,2021-04-26T11:15:41.279Z,,,,,,,,,,,,,,,,,54,,,,,,,,,,,,,,295.02100004136446,,response,,,,100,,,,,,,Space,keypress(Space),,,,,,,,-- --- ---- --- ------ ----- ------- ---- -- --- ------- --<br>------- ---------- ------ -- ----- -- ----- -- ---- ------<br>--- state --- --- ------ -------- ----- --- ------ ----- --<br>----- ----- ---------- --- --- ------ ------ ---- -- ------<br>------- --- ------ ----- --- ---- ------- -- ---- --- --<br>------- ------,247449.79500002228,247449.40000004135,247137.679,247137.55500002299,247154.379,247454.297,,23,state
screen,html.Screen,2_1_1_1_24,2021-04-26T11:15:41.631Z,,,,,,,,,,,,,,,,,54,,,,,,,,,,,,,,346.70800001572934,,response,,,,100,,,,,,,Space,keypress(Space),,,,,,,,-- --- ---- --- ------ ----- ------- ---- -- --- ------- --<br>------- ---------- ------ -- ----- -- ----- -- ---- ------<br>--- ----- cut --- ------ -------- ----- --- ------ ----- --<br>----- ----- ---------- --- --- ------ ------ ---- -- ------<br>------- --- ------ ----- --- ---- ------- -- ---- --- --<br>------- ------,247801.3300000457,247801.00500001572,247437.851,247449.87500004936,247454.297,247804.328,,24,cut
screen,html.Screen,2_1_1_1_25,2021-04-26T11:15:41.983Z,,,,,,,,,,,,,,,,,54,,,,,,,,,,,,,,348.5219999549154,,response,,,,100,,,,,,,Space,keypress(Space),,,,,,,,-- --- ---- --- ------ ----- ------- ---- -- --- ------- --<br>------- ---------- ------ -- ----- -- ----- -- ---- ------<br>--- ----- --- the ------ -------- ----- --- ------ ----- --<br>----- ----- ---------- --- --- ------ ------ ---- -- ------<br>------- --- ------ ----- --- ---- ------- -- ---- --- --<br>------- ------,248153.1749999849,248152.84999995492,247787.741,247801.39499995857,247804.328,248154.281,,25,the
screen,html.Screen,2_1_1_1_26,2021-04-26T11:15:42.296Z,,,,,,,,,,,,,,,,,54,,,,,,,,,,,,,,311.7090000551834,,response,,,,100,,,,,,,Space,keypress(Space),,,,,,,,-- --- ---- --- ------ ----- ------- ---- -- --- ------- --<br>------- ---------- ------ -- ----- -- ----- -- ---- ------<br>--- ----- --- --- bonds' -------- ----- --- ------ ----- --<br>----- ----- ---------- --- --- ------ ------ ---- -- ------<br>------- --- ------ ----- --- ---- ------- -- ---- --- --<br>------- ------,248466.34499996435,248465.99000005517,248137.609,248153.2400000142,248154.281,248470.962,,26,bonds'
screen,html.Screen,2_1_1_1_27,2021-04-26T11:15:42.767Z,,,,,,,,,,,,,,,,,54,,,,,,,,,,,,,,466.2980000351672,,response,,,,100,,,,,,,Space,keypress(Space),,,,,,,,-- --- ---- --- ------ ----- ------- ---- -- --- ------- --<br>------- ---------- ------ -- ----- -- ----- -- ---- ------<br>--- ----- --- --- ------ interest ----- --- ------ ----- --<br>----- ----- ---------- --- --- ------ ------ ---- -- ------<br>------- --- ------ ----- --- ---- ------- -- ---- --- --<br>------- ------,248937.6250000205,248937.26000003517,248454.259,248466.40999999363,248470.962,248954.652,,27,interest
screen,html.Screen,2_1_1_1_28,2021-04-26T11:15:43.207Z,,,,,,,,,,,,,,,,,54,,,,,,,,,,,,,,422.33299998077564,,response,,,,100,,,,,,,Space,keypress(Space),,,,,,,,-- --- ---- --- ------ ----- ------- ---- -- --- ------- --<br>------- ---------- ------ -- ----- -- ----- -- ---- ------<br>--- ----- --- --- ------ -------- rate. --- ------ ----- --<br>----- ----- ---------- --- --- ------ ------ ---- -- ------<br>------- --- ------ ----- --- ---- ------- -- ---- --- --<br>------- ------,249377.35500000417,249376.98499998078,248937.571,248937.69499997143,248954.652,249387.66,,28,rate.
screen,html.Screen,2_1_1_1_29,2021-04-26T11:15:43.839Z,,,,,,,,,,,,,,,,,54,,,,,,,,,,,,,,621.2400000152702,,response,,,,100,,,,,,,Space,keypress(Space),,,,,,,,-- --- ---- --- ------ ----- ------- ---- -- --- ------- --<br>------- ---------- ------ -- ----- -- ----- -- ---- ------<br>--- ----- --- --- ------ -------- ----- The ------ ----- --<br>----- ----- ---------- --- --- ------ ------ ---- -- ------<br>------- --- ------ ----- --- ---- ------- -- ---- --- --<br>------- ------,250009.28999995813,250008.90000001527,249370.929,249378.24500002898,249387.66,250020.952,,29,The
screen,html.Screen,2_1_1_1_30,2021-04-26T11:15:44.192Z,,,,,,,,,,,,,,,,,54,,,,,,,,,,,,,,340.7780000041821,,response,,,,100,,,,,,,Space,keypress(Space),,,,,,,,-- --- ---- --- ------ ----- ------- ---- -- --- ------- --<br>------- ---------- ------ -- ----- -- ----- -- ---- ------<br>--- ----- --- --- ------ -------- ----- --- market ----- --<br>----- ----- ---------- --- --- ------ ------ ---- -- ------<br>------- --- ------ ----- --- ---- ------- -- ---- --- --<br>------- ------,250362.10500006564,250361.73000000417,250004.217,250009.3549999874,250020.952,250370.941,,30,market
screen,html.Screen,2_1_1_1_31,2021-04-26T11:15:44.687Z,,,,,,,,,,,,,,,,,54,,,,,,,,,,,,,,485.86900002660695,,response,,,,100,,,,,,,Space,keypress(Space),,,,,,,,-- --- ---- --- ------ ----- ------- ---- -- --- ------- --<br>------- ---------- ------ -- ----- -- ----- -- ---- ------<br>--- ----- --- --- ------ -------- ----- --- ------ value --<br>----- ----- ---------- --- --- ------ ------ ---- -- ------<br>------- --- ------ ----- --- ---- ------- -- ---- --- --<br>------- ------,250857.1000000229,250856.8100000266,250354.273,250362.1699999785,250370.941,250870.893,,31,value
screen,html.Screen,2_1_1_1_32,2021-04-26T11:15:45.127Z,,,,,,,,,,,,,,,,,54,,,,,,,,,,,,,,425.93199996851035,,response,,,,100,,,,,,,Space,keypress(Space),,,,,,,,-- --- ---- --- ------ ----- ------- ---- -- --- ------- --<br>------- ---------- ------ -- ----- -- ----- -- ---- ------<br>--- ----- --- --- ------ -------- ----- --- ------ ----- of<br>----- ----- ---------- --- --- ------ ------ ---- -- ------<br>------- --- ------ ----- --- ---- ------- -- ---- --- --<br>------- ------,251297.17499995604,251296.82499996852,250854.262,250857.16999997385,250870.893,251304.265,,32,of
screen,html.Screen,2_1_1_1_33,2021-04-26T11:15:45.511Z,,,,,,,,,,,,,,,,,54,,,,,,,,,,,,,,377.0350000547478,,response,,,,100,,,,,,,Space,keypress(Space),,,,,,,,-- --- ---- --- ------ ----- ------- ---- -- --- ------- --<br>------- ---------- ------ -- ----- -- ----- -- ---- ------<br>--- ----- --- --- ------ -------- ----- --- ------ ----- --<br>these ----- ---------- --- --- ------ ------ ---- -- ------<br>------- --- ------ ----- --- ---- ------- -- ---- --- --<br>------- ------,251681.63999996614,251681.30000005476,251287.532,251297.23500006367,251304.265,251687.6,,33,these
screen,html.Screen,2_1_1_1_34,2021-04-26T11:15:45.895Z,,,,,,,,,,,,,,,,,54,,,,,,,,,,,,,,377.55000003855093,,response,,,,100,,,,,,,Space,keypress(Space),,,,,,,,-- --- ---- --- ------ ----- ------- ---- -- --- ------- --<br>------- ---------- ------ -- ----- -- ----- -- ---- ------<br>--- ----- --- --- ------ -------- ----- --- ------ ----- --<br>----- bonds ---------- --- --- ------ ------ ---- -- ------<br>------- --- ------ ----- --- ---- ------- -- ---- --- --<br>------- ------,252065.53000002168,252065.15000003856,251670.907,251681.71499995515,251687.6,252071.052,,34,bonds
screen,html.Screen,2_1_1_1_35,2021-04-26T11:15:46.375Z,,,,,,,,,,,,,,,,,54,,,,,,,,,,,,,,474.17300000894465,,response,,,,100,,,,,,,Space,keypress(Space),,,,,,,,"-- --- ---- --- ------ ----- ------- ---- -- --- ------- --<br>------- ---------- ------ -- ----- -- ----- -- ---- ------<br>--- ----- --- --- ------ -------- ----- --- ------ ----- --<br>----- ----- plummeted, --- --- ------ ------ ---- -- ------<br>------- --- ------ ----- --- ---- ------- -- ---- --- --<br>------- ------",252545.88500002865,252545.22500000894,252054.267,252065.61000004876,252071.052,252554.255,,35,"plummeted,"
screen,html.Screen,2_1_1_1_36,2021-04-26T11:15:46.847Z,,,,,,,,,,,,,,,,,54,,,,,,,,,,,,,,462.69499996106606,,response,,,,100,,,,,,,Space,keypress(Space),,,,,,,,-- --- ---- --- ------ ----- ------- ---- -- --- ------- --<br>------- ---------- ------ -- ----- -- ----- -- ---- ------<br>--- ----- --- --- ------ -------- ----- --- ------ ----- --<br>----- ----- ---------- and --- ------ ------ ---- -- ------<br>------- --- ------ ----- --- ---- ------- -- ---- --- --<br>------- ------,253017.31000002474,253016.94999996107,252537.599,252545.97500001546,252554.255,253020.917,,36,and
screen,html.Screen,2_1_1_1_37,2021-04-26T11:15:47.207Z,,,,,,,,,,,,,,,,,54,,,,,,,,,,,,,,356.028000025457,,response,,,,100,,,,,,,Space,keypress(Space),,,,,,,,-- --- ---- --- ------ ----- ------- ---- -- --- ------- --<br>------- ---------- ------ -- ----- -- ----- -- ---- ------<br>--- ----- --- --- ------ -------- ----- --- ------ ----- --<br>----- ----- ---------- --- the ------ ------ ---- -- ------<br>------- --- ------ ----- --- ---- ------- -- ---- --- --<br>------- ------,253377.2749999771,253376.94500002544,253004.203,253017.38500001375,253020.917,253387.606,,37,the
screen,html.Screen,2_1_1_1_38,2021-04-26T11:15:47.687Z,,,,,,,,,,,,,,,,,54,,,,,,,,,,,,,,469.44399999143207,,response,,,,100,,,,,,,Space,keypress(Space),,,,,,,,-- --- ---- --- ------ ----- ------- ---- -- --- ------- --<br>------- ---------- ------ -- ----- -- ----- -- ---- ------<br>--- ----- --- --- ------ -------- ----- --- ------ ----- --<br>----- ----- ---------- --- --- market ------ ---- -- ------<br>------- --- ------ ----- --- ---- ------- -- ---- --- --<br>------- ------,253857.37500002142,253857.04999999143,253370.909,253377.34000000637,253387.606,253870.992,,38,market
screen,html.Screen,2_1_1_1_39,2021-04-26T11:15:48.271Z,,,,,,,,,,,,,,,,,54,,,,,,,,,,,,,,569.9779999960156,,response,,,,100,,,,,,,Space,keypress(Space),,,,,,,,-- --- ---- --- ------ ----- ------- ---- -- --- ------- --<br>------- ---------- ------ -- ----- -- ----- -- ---- ------<br>--- ----- --- --- ------ -------- ----- --- ------ ----- --<br>----- ----- ---------- --- --- ------ became ---- -- ------<br>------- --- ------ ----- --- ---- ------- -- ---- --- --<br>------- ------,254441.30000006407,254440.969999996,253854.249,253857.45999997016,253870.992,254454.361,,39,became
screen,html.Screen,2_1_1_1_40,2021-04-26T11:15:48.696Z,,,,,,,,,,,,,,,,,54,,,,,,,,,,,,,,411.2290000594512,,response,,,,100,,,,,,,Space,keypress(Space),,,,,,,,-- --- ---- --- ------ ----- ------- ---- -- --- ------- --<br>------- ---------- ------ -- ----- -- ----- -- ---- ------<br>--- ----- --- --- ------ -------- ----- --- ------ ----- --<br>----- ----- ---------- --- --- ------ ------ wary -- ------<br>------- --- ------ ----- --- ---- ------- -- ---- --- --<br>------- ------,254866.38999998104,254865.59000005946,254437.586,254441.370000015,254454.361,254870.947,,40,wary
screen,html.Screen,2_1_1_1_41,2021-04-26T11:15:49.039Z,,,,,,,,,,,,,,,,,54,,,,,,,,,,,,,,338.04299995553447,,response,,,,100,,,,,,,Space,keypress(Space),,,,,,,,-- --- ---- --- ------ ----- ------- ---- -- --- ------- --<br>------- ---------- ------ -- ----- -- ----- -- ---- ------<br>--- ----- --- --- ------ -------- ----- --- ------ ----- --<br>----- ----- ---------- --- --- ------ ------ ---- of ------<br>------- --- ------ ----- --- ---- ------- -- ---- --- --<br>------- ------,255209.40499997232,255208.98999995552,254854.328,254866.6300000623,254870.947,255220.947,,41,of
screen,html.Screen,2_1_1_1_42,2021-04-26T11:15:49.567Z,,,,,,,,,,,,,,,,,54,,,,,,,,,,,,,,515.8579999931972,,response,,,,100,,,,,,,Space,keypress(Space),,,,,,,,-- --- ---- --- ------ ----- ------- ---- -- --- ------- --<br>------- ---------- ------ -- ----- -- ----- -- ---- ------<br>--- ----- --- --- ------ -------- ----- --- ------ ----- --<br>----- ----- ---------- --- --- ------ ------ ---- -- French<br>------- --- ------ ----- --- ---- ------- -- ---- --- --<br>------- ------,255737.15000005905,255736.80499999318,255204.572,255209.47500003967,255220.947,255737.627,,42,French
screen,html.Screen,2_1_1_1_43,2021-04-26T11:15:50.023Z,,,,,,,,,,,,,,,,,54,,,,,,,,,,,,,,455.36800004853285,,response,,,,100,,,,,,,Space,keypress(Space),,,,,,,,-- --- ---- --- ------ ----- ------- ---- -- --- ------- --<br>------- ---------- ------ -- ----- -- ----- -- ---- ------<br>--- ----- --- --- ------ -------- ----- --- ------ ----- --<br>----- ----- ---------- --- --- ------ ------ ---- -- ------<br>credit. --- ------ ----- --- ---- ------- -- ---- --- --<br>------- ------,256193.36000003386,256192.99500004854,255720.978,255737.2149999719,255737.627,256204.563,,43,credit.
screen,html.Screen,2_1_1_1_44,2021-04-26T11:15:50.487Z,,,,,,,,,,,,,,,,,54,,,,,,,,,,,,,,452.6720000497007,,response,,,,100,,,,,,,Space,keypress(Space),,,,,,,,-- --- ---- --- ------ ----- ------- ---- -- --- ------- --<br>------- ---------- ------ -- ----- -- ----- -- ---- ------<br>--- ----- --- --- ------ -------- ----- --- ------ ----- --<br>----- ----- ---------- --- --- ------ ------ ---- -- ------<br>------- The ------ ----- --- ---- ------- -- ---- --- --<br>------- ------,256657.58999995887,256657.2350000497,256187.558,256193.4449999826,256204.563,256671.039,,44,The
screen,html.Screen,2_1_1_1_45,2021-04-26T11:15:50.784Z,,,,,,,,,,,,,,,,,54,,,,,,,,,,,,,,282.4260000278009,,response,,,,100,,,,,,,Space,keypress(Space),,,,,,,,-- --- ---- --- ------ ----- ------- ---- -- --- ------- --<br>------- ---------- ------ -- ----- -- ----- -- ---- ------<br>--- ----- --- --- ------ -------- ----- --- ------ ----- --<br>----- ----- ---------- --- --- ------ ------ ---- -- ------<br>------- --- French ----- --- ---- ------- -- ---- --- --<br>------- ------,256954.50999995228,256953.4650000278,256654.469,256657.6650000643,256671.039,256971.002,,45,French
screen,html.Screen,2_1_1_1_46,2021-04-26T11:15:51.143Z,,,,,,,,,,,,,,,,,54,,,,,,,,,,,,,,342.18800001530326,,response,,,,100,,,,,,,Space,keypress(Space),,,,,,,,-- --- ---- --- ------ ----- ------- ---- -- --- ------- --<br>------- ---------- ------ -- ----- -- ----- -- ---- ------<br>--- ----- --- --- ------ -------- ----- --- ------ ----- --<br>----- ----- ---------- --- --- ------ ------ ---- -- ------<br>------- --- ------ state --- ---- ------- -- ---- --- --<br>------- ------,257313.5300000431,257313.1900000153,256954.653,256954.80499998666,256971.002,257320.965,,46,state
screen,html.Screen,2_1_1_1_47,2021-04-26T11:15:51.823Z,,,,,,,,,,,,,,,,,54,,,,,,,,,,,,,,671.9650000658294,,response,,,,100,,,,,,,Space,keypress(Space),,,,,,,,-- --- ---- --- ------ ----- ------- ---- -- --- ------- --<br>------- ---------- ------ -- ----- -- ----- -- ---- ------<br>--- ----- --- --- ------ -------- ----- --- ------ ----- --<br>----- ----- ---------- --- --- ------ ------ ---- -- ------<br>------- --- ------ ----- was ---- ------- -- ---- --- --<br>------- ------,257993.23500005994,257992.93000006583,257304.239,257313.59999999404,257320.965,258004.361,,47,was
screen,html.Screen,2_1_1_1_48,2021-04-26T11:15:52.687Z,,,,,,,,,,,,,,,,,54,,,,,,,,,,,,,,852.4990000580729,,response,,,,100,,,,,,,Space,keypress(Space),,,,,,,,-- --- ---- --- ------ ----- ------- ---- -- --- ------- --<br>------- ---------- ------ -- ----- -- ----- -- ---- ------<br>--- ----- --- --- ------ -------- ----- --- ------ ----- --<br>----- ----- ---------- --- --- ------ ------ ---- -- ------<br>------- --- ------ ----- --- left ------- -- ---- --- --<br>------- ------,258857.1950000478,258856.86000005808,257987.632,257993.2999999728,258004.361,258871.053,,48,left
screen,html.Screen,2_1_1_1_49,2021-04-26T11:15:53.151Z,,,,,,,,,,,,,,,,,54,,,,,,,,,,,,,,449.9170000006561,,response,,,,100,,,,,,,Space,keypress(Space),,,,,,,,-- --- ---- --- ------ ----- ------- ---- -- --- ------- --<br>------- ---------- ------ -- ----- -- ----- -- ---- ------<br>--- ----- --- --- ------ -------- ----- --- ------ ----- --<br>----- ----- ---------- --- --- ------ ------ ---- -- ------<br>------- --- ------ ----- --- ---- without -- ---- --- --<br>------- ------,259321.29999995232,259320.97000000067,258854.224,258857.25999996066,258871.053,259337.618,,49,without
screen,html.Screen,2_1_1_1_50,2021-04-26T11:15:53.559Z,,,,,,,,,,,,,,,,,54,,,,,,,,,,,,,,391.3370000568975,,response,,,,100,,,,,,,Space,keypress(Space),,,,,,,,-- --- ---- --- ------ ----- ------- ---- -- --- ------- --<br>------- ---------- ------ -- ----- -- ----- -- ---- ------<br>--- ----- --- --- ------ -------- ----- --- ------ ----- --<br>----- ----- ---------- --- --- ------ ------ ---- -- ------<br>------- --- ------ ----- --- ---- ------- an ---- --- --<br>------- ------,259729.40499999095,259728.95500005689,259321.349,259321.36000005994,259337.618,259737.847,,50,an
screen,html.Screen,2_1_1_1_51,2021-04-26T11:15:53.967Z,,,,,,,,,,,,,,,,,54,,,,,,,,,,,,,,399.20300001936266,,response,,,,100,,,,,,,Space,keypress(Space),,,,,,,,-- --- ---- --- ------ ----- ------- ---- -- --- ------- --<br>------- ---------- ------ -- ----- -- ----- -- ---- ------<br>--- ----- --- --- ------ -------- ----- --- ------ ----- --<br>----- ----- ---------- --- --- ------ ------ ---- -- ------<br>------- --- ------ ----- --- ---- ------- -- easy --- --<br>------- ------,260137.3850000091,260137.05000001937,259721,259729.5500000473,259737.847,260154.339,,51,easy
screen,html.Screen,2_1_1_1_52,2021-04-26T11:15:54.399Z,,,,,,,,,,,,,,,,,54,,,,,,,,,,,,,,414.65599997961544,,response,,,,100,,,,,,,Space,keypress(Space),,,,,,,,-- --- ---- --- ------ ----- ------- ---- -- --- ------- --<br>------- ---------- ------ -- ----- -- ----- -- ---- ------<br>--- ----- --- --- ------ -------- ----- --- ------ ----- --<br>----- ----- ---------- --- --- ------ ------ ---- -- ------<br>------- --- ------ ----- --- ---- ------- -- ---- way --<br>------- ------,260569.4150000345,260568.99499997962,260121.159,260137.45499996003,260154.339,260570.919,,52,way
screen,html.Screen,2_1_1_1_53,2021-04-26T11:15:54.863Z,,,,,,,,,,,,,,,,,54,,,,,,,,,,,,,,462.06100001814775,,response,,,,100,,,,,,,Space,keypress(Space),,,,,,,,-- --- ---- --- ------ ----- ------- ---- -- --- ------- --<br>------- ---------- ------ -- ----- -- ----- -- ---- ------<br>--- ----- --- --- ------ -------- ----- --- ------ ----- --<br>----- ----- ---------- --- --- ------ ------ ---- -- ------<br>------- --- ------ ----- --- ---- ------- -- ---- --- of<br>------- ------,261033.3249999676,261032.98000001814,260554.332,260569.49500006158,260570.919,261037.597,,53,of
screen,html.Screen,2_1_1_1_54,2021-04-26T11:15:55.391Z,,,,,,,,,,,,,,,,,54,,,,,,,,,,,,,,523.3130000001402,,response,,,,100,,,,,,,Space,keypress(Space),,,,,,,,-- --- ---- --- ------ ----- ------- ---- -- --- ------- --<br>------- ---------- ------ -- ----- -- ----- -- ---- ------<br>--- ----- --- --- ------ -------- ----- --- ------ ----- --<br>----- ----- ---------- --- --- ------ ------ ---- -- ------<br>------- --- ------ ----- --- ---- ------- -- ---- --- --<br>raising ------,261561.44499999937,261560.91000000015,261020.994,261033.39500003494,261037.597,261571.01,,54,raising
screen,html.Screen,2_1_1_1_55,2021-04-26T11:15:56.256Z,,,,,,,,,,,,,,,,,54,,,,,,,,,,,,,,854.4549999784213,,response,,,,100,,,,,,,Space,keypress(Space),,,,,,,,-- --- ---- --- ------ ----- ------- ---- -- --- ------- --<br>------- ---------- ------ -- ----- -- ----- -- ---- ------<br>--- ----- --- --- ------ -------- ----- --- ------ ----- --<br>----- ----- ---------- --- --- ------ ------ ---- -- ------<br>------- --- ------ ----- --- ---- ------- -- ---- --- --<br>------- money.,262426.2350000208,262425.46499997843,261554.242,261561.51999998838,261571.01,262437.635,,55,money.
Item 100,flow.Loop,2_1_1_1,2021-04-26T11:15:56.256Z,,,,,,,,,,,,,,,,,,,,,,,,,,,,,,,37404.48599997844,,completion,,,,,B,,,,,,,,,,,silence,,,,,262426.6500000376,262425.46499997843,225004.324,225004.8850000603,225020.979,262437.635,,,
Question 1,html.Screen,2_1_1_2,2021-04-26T11:15:59.219Z,,,,,,,,,,,,,,,,,,,,,,,,,,,,true,TRUE,,2951.349999968661,,response,,,,100,B,,,,,,TRUE,click #choice-1,,,,silence,,,,,265389.33999999426,265388.98499996867,262420.902,262426.8500000471,262437.635,265404.689,,,
Question 2,html.Screen,2_1_1_3,2021-04-26T11:16:02.501Z,,,,,,,,,,,,,,,,,,,,,,,,,,,,true,FALSE,,3266.1960000286344,,response,,,,100,B,,,,,,FALSE,click #choice-2,,,,silence,,,,,268671.41000006814,268670.88500002865,265387.55,265389.40500002354,265404.689,268687.668,,,
Item 100,flow.Sequence,2_1_1,2021-04-26T11:16:02.501Z,,,,,,,,,,,,,,,,,,,,,,,,,,,,,,,53649.936000028654,,completion,,,,,,,,,,,,,,,,,,,,,268671.5199999744,268670.88500002865,215004.304,215005.57000003755,215020.949,268687.668,,,
End of Practice,html.Page,2_1_2,2021-04-26T11:16:09.617Z,,,,,,,,,,,,,,,,,,,,,,,,,,,,,,,7099.7970000594505,,form submission,,,,,,,,,,,,,,,,,,,,,275787.9350000294,275787.46500005946,268670.946,268671.5799999656,268687.668,275787.595,,,
Practice,flow.Sequence,2_1,2021-04-26T11:16:09.618Z,,,,,,,,,,,,,,,,,,,,,,,,,,,,,,,118133.04200005945,,completion,,,,,,,,,,,,,,,,,,,,,275788.06499997154,275787.46500005946,157637.901,157642.16499996837,157654.423,275787.595,,,
Trap_instruction,html.Page,2_2_0,2021-04-26T11:16:14.600Z,,,,,,,,,,,,,,,,,,,,,,,,,,,,,,,4981.780000032624,,form submission,,,,,,,,,,,,,,,,,,,,,280770.3100000508,280769.3750000326,275770.911,275788.1500000367,275787.595,280770.899,,,
trap_trial,html.Screen,2_2_1,2021-04-26T11:16:18.301Z,,,,,,,,,,,,,,,,,,,,,,,,,,,,true,1,,3699.925999967614,,response,,,,,,,,,,,1,click #choice-1,,,,,,,,,284471.6999999946,284470.8249999676,280754.296,280770.39499999955,280770.899,284487.597,,,
end of trap trial,html.Page,2_2_2,2021-04-26T11:16:20.611Z,,,,,,,,,,,,,,,,,,,,,,,,,,,,,,,2293.70300003147,,form submission,,,,,,,,,,,,,,,,,,,,,286781.5150000388,286781.3000000315,284471.292,284471.8049999792,284487.597,286787.571,,,
Trap 1,flow.Sequence,2_2,2021-04-26T11:16:20.611Z,,,,,,,,,,,,,,,,,,,,,,,,,,,,,,,10993.705000031507,,completion,,,,,,,,,,,,,,,,,,,,,286781.62500006147,286781.3000000315,275770.911,275788.12499996275,275787.595,286787.571,,,
Standby,html.Page,2_3_0,2021-04-26T11:16:28.601Z,,,,,,,,,,,,,,,,,,,,,,,,,,,,,,,7999.981000000029,,timeout,,,,,,,,,,,,,,,,,,,,,294771.6350000119,294771.084,286771.334,286781.6950000124,286787.571,294787.552,,,
Holding screen,html.Screen,2_3_1_0_0,2021-04-26T11:16:35.601Z,,,,,,,,,,,,,,,,,,,,,,,,,,,,,,,7000.094999999972,,timeout,,,,,,,,,,,,,,,,,,,,,301771.5549999848,301771.096,294771.084,294771.85500005726,294787.552,301787.647,,,
screen,html.Screen,2_3_1_0_1_0,2021-04-26T11:16:42.600Z,,,,,,,,,,,,,,,,,11,,,,,,,,,,,,,,6999.9220000000205,,timeout,,,,4,B,,,,,,,,,,,lyrical,,,,Known -- ---- --- -- --- -------- ------------ ---------- --<br>- ------- ------ --------- -- ------------ -- --- ---- -----<br>------ ---- ---- ------ ------ ------- --- ----- ---------<br>---- --- -------- -------- --- --- -- ------- --- --- -----<br>-- --- ------ ------- --- --- -------- ---- --------- --<br>---------- -- -------- ----------------,308771.4599999599,308771.093,301771.096,301771.6950000031,301787.647,308787.569,,0,Known
screen,html.Screen,2_3_1_0_1_1,2021-04-26T11:16:49.600Z,,,,,,,,,,,,,,,,,11,,,,,,,,,,,,,,7000.054999999993,,timeout,,,,4,B,,,,,,,,,,,lyrical,,,,----- as ---- --- -- --- -------- ------------ ---------- --<br>- ------- ------ --------- -- ------------ -- --- ---- -----<br>------ ---- ---- ------ ------ ------- --- ----- ---------<br>---- --- -------- -------- --- --- -- ------- --- --- -----<br>-- --- ------ ------- --- --- -------- ---- --------- --<br>---------- -- -------- ----------------,315771.38000004925,315770.935,308771.093,308771.53000002727,308787.569,315787.624,,1,as
screen,html.Screen,2_3_1_0_1_2,2021-04-26T11:16:56.600Z,,,,,,,,,,,,,,,,,11,,,,,,,,,,,,,,6999.879000000015,,timeout,,,,4,B,,,,,,,,,,,lyrical,,,,----- -- Rapa --- -- --- -------- ------------ ---------- --<br>- ------- ------ --------- -- ------------ -- --- ---- -----<br>------ ---- ---- ------ ------ ------- --- ----- ---------<br>---- --- -------- -------- --- --- -- ------- --- --- -----<br>-- --- ------ ------- --- --- -------- ---- --------- --<br>---------- -- -------- ----------------,322771.33000001777,322770.823,315770.935,315771.4500000002,315787.624,322787.503,,2,Rapa
screen,html.Screen,2_3_1_0_1_3,2021-04-26T11:16:57.406Z,,,,,,,,,,,,,,,,,11,,,,,,,,,,,,,,789.641999988351,,response,,,,4,B,,,,,,Space,keypress(Space),,,,lyrical,,,,----- -- ---- Nui -- --- -------- ------------ ---------- --<br>- ------- ------ --------- -- ------------ -- --- ---- -----<br>------ ---- ---- ------ ------ ------- --- ----- ---------<br>---- --- -------- -------- --- --- -- ------- --- --- -----<br>-- --- ------ ------- --- --- -------- ---- --------- --<br>---------- -- -------- ----------------,323577.5249999715,323577.1449999884,322770.823,322771.4449999621,322787.503,323587.514,,3,Nui
screen,html.Screen,2_3_1_0_1_4,2021-04-26T11:16:58.054Z,,,,,,,,,,,,,,,,,11,,,,,,,,,,,,,,637.330999960599,,response,,,,4,B,,,,,,Space,keypress(Space),,,,lyrical,,,,----- -- ---- --- to --- -------- ------------ ---------- --<br>- ------- ------ --------- -- ------------ -- --- ---- -----<br>------ ---- ---- ------ ------ ------- --- ----- ---------<br>---- --- -------- -------- --- --- -- ------- --- --- -----<br>-- --- ------ ------- --- --- -------- ---- --------- --<br>---------- -- -------- ----------------,324225.25500005577,324224.8449999606,323570.796,323577.59500003885,323587.514,324237.796,,4,to
screen,html.Screen,2_3_1_0_1_5,2021-04-26T11:16:58.767Z,,,,,,,,,,,,,,,,,11,,,,,,,,,,,,,,699.4589999971213,,response,,,,4,B,,,,,,Space,keypress(Space),,,,lyrical,,,,----- -- ---- --- -- the -------- ------------ ---------- --<br>- ------- ------ --------- -- ------------ -- --- ---- -----<br>------ ---- ---- ------ ------ ------- --- ----- ---------<br>---- --- -------- -------- --- --- -- ------- --- --- -----<br>-- --- ------ ------- --- --- -------- ---- --------- --<br>---------- -- -------- ----------------,324937.75499996264,324937.2549999971,324220.804,324225.33499996644,324237.796,324954.193,,5,the
screen,html.Screen,2_3_1_0_1_6,2021-04-26T11:16:59.662Z,,,,,,,,,,,,,,,,,11,,,,,,,,,,,,,,878.6270000105142,,response,,,,4,B,,,,,,Space,keypress(Space),,,,lyrical,,,,----- -- ---- --- -- --- island's ------------ ---------- --<br>- ------- ------ --------- -- ------------ -- --- ---- -----<br>------ ---- ---- ------ ------ ------- --- ----- ---------<br>---- --- -------- -------- --- --- -- ------- --- --- -----<br>-- --- ------ ------- --- --- -------- ---- --------- --<br>---------- -- -------- ----------------,325833.21499999147,325832.82000001054,324937.488,324937.86000006367,324954.193,325837.522,,6,island's
screen,html.Screen,2_3_1_0_1_7,2021-04-26T11:17:00.638Z,,,,,,,,,,,,,,,,,11,,,,,,,,,,,,,,971.6530000603525,,response,,,,4,B,,,,,,Space,keypress(Space),,,,lyrical,,,,"----- -- ---- --- -- --- -------- inhabitants, ---------- --<br>- ------- ------ --------- -- ------------ -- --- ---- -----<br>------ ---- ---- ------ ------ ------- --- ----- ---------<br>---- --- -------- -------- --- --- -- ------- --- --- -----<br>-- --- ------ ------- --- --- -------- ---- --------- --<br>---------- -- -------- ----------------",326809.68000006396,326809.17500006035,325820.835,325833.2899999805,325837.522,326837.539,,7,"inhabitants,"
screen,html.Screen,2_3_1_0_1_8,2021-04-26T11:17:02.926Z,,,,,,,,,,,,,,,,,11,,,,,,,,,,,,,,2259.5610000136076,,response,,,,4,B,,,,,,Space,keypress(Space),,,,lyrical,,,,----- -- ---- --- -- --- -------- ------------ Rongorongo --<br>- ------- ------ --------- -- ------------ -- --- ---- -----<br>------ ---- ---- ------ ------ ------- --- ----- ---------<br>---- --- -------- -------- --- --- -- ------- --- --- -----<br>-- --- ------ ------- --- --- -------- ---- --------- --<br>---------- -- -------- ----------------,329097.65999997035,329097.1000000136,326820.88,326809.8450000398,326837.539,329104.225,,8,Rongorongo
screen,html.Screen,2_3_1_0_1_9,2021-04-26T11:17:04.086Z,,,,,,,,,,,,,,,,,11,,,,,,,,,,,,,,1152.57499997376,,response,,,,4,B,,,,,,Space,keypress(Space),,,,lyrical,,,,----- -- ---- --- -- --- -------- ------------ ---------- is<br>- ------- ------ --------- -- ------------ -- --- ---- -----<br>------ ---- ---- ------ ------ ------- --- ----- ---------<br>---- --- -------- -------- --- --- -- ------- --- --- -----<br>-- --- ------ ------- --- --- -------- ---- --------- --<br>---------- -- -------- ----------------,330257.16499995906,330256.79999997374,329087.438,329097.8100000648,329104.225,330270.841,,9,is
screen,html.Screen,2_3_1_0_1_10,2021-04-26T11:17:05.545Z,,,,,,,,,,,,,,,,,11,,,,,,,,,,,,,,1444.919000050053,,response,,,,4,B,,,,,,Space,keypress(Space),,,,lyrical,,,,----- -- ---- --- -- --- -------- ------------ ---------- --<br>a ------- ------ --------- -- ------------ -- --- ---- -----<br>------ ---- ---- ------ ------ ------- --- ----- ---------<br>---- --- -------- -------- --- --- -- ------- --- --- -----<br>-- --- ------ ------- --- --- -------- ---- --------- --<br>---------- -- -------- ----------------,331716.58999996725,331715.76000005007,330254.351,330257.2350000264,330270.841,331737.543,,10,a
screen,html.Screen,2_3_1_0_1_11,2021-04-26T11:17:07.398Z,,,,,,,,,,,,,,,,,11,,,,,,,,,,,,,,1831.4519999796175,,response,,,,4,B,,,,,,Space,keypress(Space),,,,lyrical,,,,----- -- ---- --- -- --- -------- ------------ ---------- --<br>- writing ------ --------- -- ------------ -- --- ---- -----<br>------ ---- ---- ------ ------ ------- --- ----- ---------<br>---- --- -------- -------- --- --- -- ------- --- --- -----<br>-- --- ------ ------- --- --- -------- ---- --------- --<br>---------- -- -------- ----------------,333569.6000000462,333568.9949999796,331704.386,331716.82500001043,331737.543,333570.839,,11,writing
screen,html.Screen,2_3_1_0_1_12,2021-04-26T11:17:08.215Z,,,,,,,,,,,,,,,,,11,,,,,,,,,,,,,,814.5660000664066,,response,,,,4,B,,,,,,Space,keypress(Space),,,,lyrical,,,,----- -- ---- --- -- --- -------- ------------ ---------- --<br>- ------- system --------- -- ------------ -- --- ---- -----<br>------ ---- ---- ------ ------ ------- --- ----- ---------<br>---- --- -------- -------- --- --- -- ------- --- --- -----<br>-- --- ------ ------- --- --- -------- ---- --------- --<br>---------- -- -------- ----------------,334385.79500000924,334385.4050000664,333554.101,333569.66499995906,333570.839,334387.459,,12,system
screen,html.Screen,2_3_1_0_1_13,2021-04-26T11:17:09.014Z,,,,,,,,,,,,,,,,,11,,,,,,,,,,,,,,797.6059999687714,,response,,,,4,B,,,,,,Space,keypress(Space),,,,lyrical,,,,----- -- ---- --- -- --- -------- ------------ ---------- --<br>- ------- ------ comprised -- ------------ -- --- ---- -----<br>------ ---- ---- ------ ------ ------- --- ----- ---------<br>---- --- -------- -------- --- --- -- ------- --- --- -----<br>-- --- ------ ------- --- --- -------- ---- --------- --<br>---------- -- -------- ----------------,335185.5050000595,335185.06499996874,334370.79,334385.8750000363,334387.459,335187.488,,13,comprised
screen,html.Screen,2_3_1_0_1_14,2021-04-26T11:17:09.774Z,,,,,,,,,,,,,,,,,11,,,,,,,,,,,,,,757.2970000578789,,response,,,,4,B,,,,,,Space,keypress(Space),,,,lyrical,,,,----- -- ---- --- -- --- -------- ------------ ---------- --<br>- ------- ------ --------- of ------------ -- --- ---- -----<br>------ ---- ---- ------ ------ ------- --- ----- ---------<br>---- --- -------- -------- --- --- -- ------- --- --- -----<br>-- --- ------ ------- --- --- -------- ---- --------- --<br>---------- -- -------- ----------------,335945.2250000322,335944.7850000579,335170.822,335185.59999996796,335187.488,335954.156,,14,of
screen,html.Screen,2_3_1_0_1_15,2021-04-26T11:17:11.270Z,,,,,,,,,,,,,,,,,11,,,,,,,,,,,,,,1486.7189999711118,,response,,,,4,B,,,,,,Space,keypress(Space),,,,lyrical,,,,----- -- ---- --- -- --- -------- ------------ ---------- --<br>- ------- ------ --------- -- pictographs. -- --- ---- -----<br>------ ---- ---- ------ ------ ------- --- ----- ---------<br>---- --- -------- -------- --- --- -- ------- --- --- -----<br>-- --- ------ ------- --- --- -------- ---- --------- --<br>---------- -- -------- ----------------,337441.2149999989,337440.8749999711,335937.53,335945.2900000615,335954.156,337454.132,,15,pictographs.
screen,html.Screen,2_3_1_0_1_16,2021-04-26T11:17:12.030Z,,,,,,,,,,,,,,,,,11,,,,,,,,,,,,,,746.6080000002403,,response,,,,4,B,,,,,,Space,keypress(Space),,,,lyrical,,,,----- -- ---- --- -- --- -------- ------------ ---------- --<br>- ------- ------ --------- -- ------------ It --- ---- -----<br>------ ---- ---- ------ ------ ------- --- ----- ---------<br>---- --- -------- -------- --- --- -- ------- --- --- -----<br>-- --- ------ ------- --- --- -------- ---- --------- --<br>---------- -- -------- ----------------,338201.1000000639,338200.7400000002,337437.387,337441.2749999901,337454.132,338204.157,,16,It
screen,html.Screen,2_3_1_0_1_17,2021-04-26T11:17:12.918Z,,,,,,,,,,,,,,,,,11,,,,,,,,,,,,,,884.6630000626901,,response,,,,4,B,,,,,,Space,keypress(Space),,,,lyrical,,,,----- -- ---- --- -- --- -------- ------------ ---------- --<br>- ------- ------ --------- -- ------------ -- has ---- -----<br>------ ---- ---- ------ ------ ------- --- ----- ---------<br>---- --- -------- -------- --- --- -- ------- --- --- -----<br>-- --- ------ ------- --- --- -------- ---- --------- --<br>---------- -- -------- ----------------,339089.42500001285,339088.8200000627,338187.444,338201.1700000148,338204.157,339104.163,,17,has
screen,html.Screen,2_3_1_0_1_18,2021-04-26T11:17:13.742Z,,,,,,,,,,,,,,,,,11,,,,,,,,,,,,,,808.7619999532471,,response,,,,4,B,,,,,,Space,keypress(Space),,,,lyrical,,,,----- -- ---- --- -- --- -------- ------------ ---------- --<br>- ------- ------ --------- -- ------------ -- --- been -----<br>------ ---- ---- ------ ------ ------- --- ----- ---------<br>---- --- -------- -------- --- --- -- ------- --- --- -----<br>-- --- ------ ------- --- --- -------- ---- --------- --<br>---------- -- -------- ----------------,339913.2750000572,339912.92499995325,339087.512,339089.4949999638,339104.163,339920.819,,18,been
screen,html.Screen,2_3_1_0_1_19,2021-04-26T11:17:14.486Z,,,,,,,,,,,,,,,,,11,,,,,,,,,,,,,,736.0660000621574,,response,,,,4,B,,,,,,Space,keypress(Space),,,,lyrical,,,,----- -- ---- --- -- --- -------- ------------ ---------- --<br>- ------- ------ --------- -- ------------ -- --- ---- found<br>------ ---- ---- ------ ------ ------- --- ----- ---------<br>---- --- -------- -------- --- --- -- ------- --- --- -----<br>-- --- ------ ------- --- --- -------- ---- --------- --<br>---------- -- -------- ----------------,340657.31499996036,340656.8850000622,339904.107,339913.33999997005,339920.819,340670.804,,19,found
screen,html.Screen,2_3_1_0_1_20,2021-04-26T11:17:15.143Z,,,,,,,,,,,,,,,,,11,,,,,,,,,,,,,,642.6960000474937,,response,,,,4,B,,,,,,Space,keypress(Space),,,,lyrical,,,,----- -- ---- --- -- --- -------- ------------ ---------- --<br>- ------- ------ --------- -- ------------ -- --- ---- -----<br>carved ---- ---- ------ ------ ------- --- ----- ---------<br>---- --- -------- -------- --- --- -- ------- --- --- -----<br>-- --- ------ ------- --- --- -------- ---- --------- --<br>---------- -- -------- ----------------,341314.4049999537,341313.5000000475,340654.419,340657.39499998745,340670.804,341320.858,,20,carved
screen,html.Screen,2_3_1_0_1_21,2021-04-26T11:17:15.815Z,,,,,,,,,,,,,,,,,11,,,,,,,,,,,,,,664.2319999728352,,response,,,,4,B,,,,,,Space,keypress(Space),,,,lyrical,,,,----- -- ---- --- -- --- -------- ------------ ---------- --<br>- ------- ------ --------- -- ------------ -- --- ---- -----<br>------ into ---- ------ ------ ------- --- ----- ---------<br>---- --- -------- -------- --- --- -- ------- --- --- -----<br>-- --- ------ ------- --- --- -------- ---- --------- --<br>---------- -- -------- ----------------,341986.0800000606,341985.08999997284,341304.107,341314.72000002395,341320.858,341987.445,,21,into
screen,html.Screen,2_3_1_0_1_22,2021-04-26T11:17:16.343Z,,,,,,,,,,,,,,,,,11,,,,,,,,,,,,,,525.620000064664,,response,,,,4,B,,,,,,Space,keypress(Space),,,,lyrical,,,,----- -- ---- --- -- --- -------- ------------ ---------- --<br>- ------- ------ --------- -- ------------ -- --- ---- -----<br>------ ---- many ------ ------ ------- --- ----- ---------<br>---- --- -------- -------- --- --- -- ------- --- --- -----<br>-- --- ------ ------- --- --- -------- ---- --------- --<br>---------- -- -------- ----------------,342513.7950000353,342513.0650000647,341970.791,341986.23000003863,341987.445,342520.816,,22,many
screen,html.Screen,2_3_1_0_1_23,2021-04-26T11:17:17.102Z,,,,,,,,,,,,,,,,,11,,,,,,,,,,,,,,752.1090000557015,,response,,,,4,B,,,,,,Space,keypress(Space),,,,lyrical,,,,----- -- ---- --- -- --- -------- ------------ ---------- --<br>- ------- ------ --------- -- ------------ -- --- ---- -----<br>------ ---- ---- oblong ------ ------- --- ----- ---------<br>---- --- -------- -------- --- --- -- ------- --- --- -----<br>-- --- ------ ------- --- --- -------- ---- --------- --<br>---------- -- -------- ----------------,343273.41000002343,343272.9250000557,342504.045,342513.9350000536,342520.816,343287.554,,23,oblong
screen,html.Screen,2_3_1_0_1_24,2021-04-26T11:17:17.870Z,,,,,,,,,,,,,,,,,11,,,,,,,,,,,,,,753.3409999837168,,response,,,,4,B,,,,,,Space,keypress(Space),,,,lyrical,,,,----- -- ---- --- -- --- -------- ------------ ---------- --<br>- ------- ------ --------- -- ------------ -- --- ---- -----<br>------ ---- ---- ------ wooden ------- --- ----- ---------<br>---- --- -------- -------- --- --- -- ------- --- --- -----<br>-- --- ------ ------- --- --- -------- ---- --------- --<br>---------- -- -------- ----------------,344041.33499995805,344040.8949999837,343271.086,343273.57499999925,343287.554,344054.14,,24,wooden
screen,html.Screen,2_3_1_0_1_25,2021-04-26T11:17:18.766Z,,,,,,,,,,,,,,,,,11,,,,,,,,,,,,,,882.944999983185,,response,,,,4,B,,,,,,Space,keypress(Space),,,,lyrical,,,,----- -- ---- --- -- --- -------- ------------ ---------- --<br>- ------- ------ --------- -- ------------ -- --- ---- -----<br>------ ---- ---- ------ ------ tablets --- ----- ---------<br>---- --- -------- -------- --- --- -- ------- --- --- -----<br>-- --- ------ ------- --- --- -------- ---- --------- --<br>---------- -- -------- ----------------,344937.4700000044,344937.0849999832,344037.432,344041.435000021,344054.14,344954.156,,25,tablets
screen,html.Screen,2_3_1_0_1_26,2021-04-26T11:17:19.342Z,,,,,,,,,,,,,,,,,11,,,,,,,,,,,,,,558.6590000236756,,response,,,,4,B,,,,,,Space,keypress(Space),,,,lyrical,,,,----- -- ---- --- -- --- -------- ------------ ---------- --<br>- ------- ------ --------- -- ------------ -- --- ---- -----<br>------ ---- ---- ------ ------ ------- and ----- ---------<br>---- --- -------- -------- --- --- -- ------- --- --- -----<br>-- --- ------ ------- --- --- -------- ---- --------- --<br>---------- -- -------- ----------------,345513.1700000493,345512.8150000237,344937.658,344937.53999995533,344954.156,345520.8,,26,and
screen,html.Screen,2_3_1_0_1_27,2021-04-26T11:17:20.063Z,,,,,,,,,,,,,,,,,11,,,,,,,,,,,,,,712.5749999525142,,response,,,,4,B,,,,,,Space,keypress(Space),,,,lyrical,,,,----- -- ---- --- -- --- -------- ------------ ---------- --<br>- ------- ------ --------- -- ------------ -- --- ---- -----<br>------ ---- ---- ------ ------ ------- --- other ---------<br>---- --- -------- -------- --- --- -- ------- --- --- -----<br>-- --- ------ ------- --- --- -------- ---- --------- --<br>---------- -- -------- ----------------,346233.71000005864,346233.3749999525,345504.22,345513.23499996215,345520.8,346237.575,,27,other
screen,html.Screen,2_3_1_0_1_28,2021-04-26T11:17:21.126Z,,,,,,,,,,,,,,,,,11,,,,,,,,,,,,,,1059.5249999670195,,response,,,,4,B,,,,,,Space,keypress(Space),,,,lyrical,,,,----- -- ---- --- -- --- -------- ------------ ---------- --<br>- ------- ------ --------- -- ------------ -- --- ---- -----<br>------ ---- ---- ------ ------ ------- --- ----- artifacts<br>---- --- -------- -------- --- --- -- ------- --- --- -----<br>-- --- ------ ------- --- --- -------- ---- --------- --<br>---------- -- -------- ----------------,347297.4699999904,347297.09999996703,346220.834,346233.7749999715,346237.575,347304.119,,28,artifacts
screen,html.Screen,2_3_1_0_1_29,2021-04-26T11:17:22.174Z,,,,,,,,,,,,,,,,,11,,,,,,,,,,,,,,1041.0059999925434,,response,,,,4,B,,,,,,Space,keypress(Space),,,,lyrical,,,,----- -- ---- --- -- --- -------- ------------ ---------- --<br>- ------- ------ --------- -- ------------ -- --- ---- -----<br>------ ---- ---- ------ ------ ------- --- ----- ---------<br>from --- -------- -------- --- --- -- ------- --- --- -----<br>-- --- ------ ------- --- --- -------- ---- --------- --<br>---------- -- -------- ----------------,348345.55500000715,348345.12499999255,347287.517,347297.54499997944,347304.119,348354.224,,29,from
screen,html.Screen,2_3_1_0_1_30,2021-04-26T11:17:23.238Z,,,,,,,,,,,,,,,,,11,,,,,,,,,,,,,,1054.8659999719239,,response,,,,4,B,,,,,,Space,keypress(Space),,,,lyrical,,,,----- -- ---- --- -- --- -------- ------------ ---------- --<br>- ------- ------ --------- -- ------------ -- --- ---- -----<br>------ ---- ---- ------ ------ ------- --- ----- ---------<br>---- the -------- -------- --- --- -- ------- --- --- -----<br>-- --- ------ ------- --- --- -------- ---- --------- --<br>---------- -- -------- ----------------,349409.5400000224,349409.0899999719,348337.4,348345.6399999559,348354.224,349420.815,,30,the
screen,html.Screen,2_3_1_0_1_31,2021-04-26T11:17:24.343Z,,,,,,,,,,,,,,,,,11,,,,,,,,,,,,,,1092.7249999562628,,response,,,,4,B,,,,,,Space,keypress(Space),,,,lyrical,,,,----- -- ---- --- -- --- -------- ------------ ---------- --<br>- ------- ------ --------- -- ------------ -- --- ---- -----<br>------ ---- ---- ------ ------ ------- --- ----- ---------<br>---- --- island's -------- --- --- -- ------- --- --- -----<br>-- --- ------ ------- --- --- -------- ---- --------- --<br>---------- -- -------- ----------------,350513.8550000265,350513.53999995627,349404.064,349409.6300000092,349420.815,350520.796,,31,island's
screen,html.Screen,2_3_1_0_1_32,2021-04-26T11:17:26.142Z,,,,,,,,,,,,,,,,,11,,,,,,,,,,,,,,1792.309000066598,,response,,,,4,B,,,,,,Space,keypress(Space),,,,lyrical,,,,----- -- ---- --- -- --- -------- ------------ ---------- --<br>- ------- ------ --------- -- ------------ -- --- ---- -----<br>------ ---- ---- ------ ------ ------- --- ----- ---------<br>---- --- -------- history. --- --- -- ------- --- --- -----<br>-- --- ------ ------- --- --- -------- ---- --------- --<br>---------- -- -------- ----------------,352313.4650000138,352313.1050000666,350504.092,350513.91500001773,350520.796,352320.815,,32,history.
screen,html.Screen,2_3_1_0_1_33,2021-04-26T11:17:26.910Z,,,,,,,,,,,,,,,,,11,,,,,,,,,,,,,,760.1900000436581,,response,,,,4,B,,,,,,Space,keypress(Space),,,,lyrical,,,,----- -- ---- --- -- --- -------- ------------ ---------- --<br>- ------- ------ --------- -- ------------ -- --- ---- -----<br>------ ---- ---- ------ ------ ------- --- ----- ---------<br>---- --- -------- -------- The --- -- ------- --- --- -----<br>-- --- ------ ------- --- --- -------- ---- --------- --<br>---------- -- -------- ----------------,353081.5400000429,353081.00500004366,352304.112,352313.54999996256,352320.815,353087.511,,33,The
screen,html.Screen,2_3_1_0_1_34,2021-04-26T11:17:28.190Z,,,,,,,,,,,,,,,,,11,,,,,,,,,,,,,,1273.5540000628098,,response,,,,4,B,,,,,,Space,keypress(Space),,,,lyrical,,,,----- -- ---- --- -- --- -------- ------------ ---------- --<br>- ------- ------ --------- -- ------------ -- --- ---- -----<br>------ ---- ---- ------ ------ ------- --- ----- ---------<br>---- --- -------- -------- --- art -- ------- --- --- -----<br>-- --- ------ ------- --- --- -------- ---- --------- --<br>---------- -- -------- ----------------,354361.4649999654,354361.0650000628,353071.103,353081.68000006117,353087.511,354370.873,,34,art
screen,html.Screen,2_3_1_0_1_35,2021-04-26T11:17:29.864Z,,,,,,,,,,,,,,,,,11,,,,,,,,,,,,,,1663.257000043639,,response,,,,4,B,,,,,,Space,keypress(Space),,,,lyrical,,,,----- -- ---- --- -- --- -------- ------------ ---------- --<br>- ------- ------ --------- -- ------------ -- --- ---- -----<br>------ ---- ---- ------ ------ ------- --- ----- ---------<br>---- --- -------- -------- --- --- of ------- --- --- -----<br>-- --- ------ ------- --- --- -------- ---- --------- --<br>---------- -- -------- ----------------,356035.0500000641,356034.13000004366,354354.065,354361.53500003275,354370.873,356037.53,,35,of
screen,html.Screen,2_3_1_0_1_36,2021-04-26T11:17:32.630Z,,,,,,,,,,,,,,,,,11,,,,,,,,,,,,,,2763.215000014985,,response,,,,4,B,,,,,,Space,keypress(Space),,,,lyrical,,,,----- -- ---- --- -- --- -------- ------------ ---------- --<br>- ------- ------ --------- -- ------------ -- --- ---- -----<br>------ ---- ---- ------ ------ ------- --- ----- ---------<br>---- --- -------- -------- --- --- -- writing --- --- -----<br>-- --- ------ ------- --- --- -------- ---- --------- --<br>---------- -- -------- ----------------,358801.070000045,358800.745000015,356021.097,356035.3200000245,356037.53,358804.239,,36,writing
screen,html.Screen,2_3_1_0_1_37,2021-04-26T11:17:33.247Z,,,,,,,,,,,,,,,,,11,,,,,,,,,,,,,,613.1559999967576,,response,,,,4,B,,,,,,Space,keypress(Space),,,,lyrical,,,,----- -- ---- --- -- --- -------- ------------ ---------- --<br>- ------- ------ --------- -- ------------ -- --- ---- -----<br>------ ---- ---- ------ ------ ------- --- ----- ---------<br>---- --- -------- -------- --- --- -- ------- was --- -----<br>-- --- ------ ------- --- --- -------- ---- --------- --<br>---------- -- -------- ----------------,359417.98000002746,359417.39499999676,358787.387,358801.1300000362,358804.239,359420.802,,37,was
