sender,sender_type,sender_id,timestamp,meta,,Blues,Classical,Country,Dance,Electronic,Folk,Gospel,Hip-Hop,Jazz,Latin,Musical/Film,New-age,Pop,Prolific_id,Provo_ID,R&B,Rap,Reggae,Religious,Rock,Soul,Swing,Traditional,age,artist_name,correct,correctResponse,distraction,duration,education,ended_on,familiarity,gender,headphone_check_performance,item,list,music_frequency,offensiveness,pleasantness,position_correct,preference,response,response_action,snippet_file,song_name,song_rating,sound,stimulus_1,stimulus_2,stimulus_3,text,time_commit,time_end,time_render,time_run,time_show,time_switch,url,word,word_ID
Prolific ID,html.Form,0,2021-04-30T15:36:32.286Z,"{""labjs_version"":""20.2.2"",""labjs_build"":{""flavor"":""production"",""commit"":""a25486e0c714a0ae2ce03ff94b7bb6896854dcfa""},""location"":""https://run.pavlovia.org/mvasilev/prolific_music_b/"",""userAgent"":""Mozilla/5.0 (Windows NT 10.0; Win64; x64) AppleWebKit/537.36 (KHTML, like Gecko) Chrome/89.0.4389.128 Safari/537.36"",""platform"":""Win32"",""language"":""en-US"",""locale"":""en-US"",""timeZone"":""Europe/London"",""timezoneOffset"":-60,""screen_width"":1536,""screen_height"":864,""scroll_width"":1536,""scroll_height"":706,""window_innerWidth"":1536,""window_innerHeight"":754,""devicePixelRatio"":1.25}",,,,,,,,,,,,,,,5e237caac530bd62e210d540,,,,,,,,,,,,,,,5494.640000005355,,form submission,,,,,,,,,,,,,,,,,,,,,12843.594999998459,12843.250000005355,7331.938,7334.705000001122,7348.61,12854.646,{},,
Introduction,html.Screen,1_0,2021-04-30T15:36:38.229Z,,,,,,,,,,,,,,,,,,,,,,,,,,,,,,,5930.2940000122835,,response,,,,,,,,,,,continue,click button,,,,,,,,,18787.2650000063,18784.940000012284,12838.269,12843.820000009146,12854.646,18794.665,,,
Volume calibration,html.Screen,1_1,2021-04-30T15:37:07.670Z,,,,,,,,,,,,,,,,,,,,,,,,,,,,,,,29430.249999998872,,response,,,,,,,,,,,continue,click button,,,,,,,,,48227.780000001076,48224.91499999887,18777.91,18787.414999998873,18794.665,48227.025,,,
Task instructions,html.Screen,1_2,2021-04-30T15:37:27.988Z,,,,,,,,,,,,,,,,,,,,,,,,,,,,,,,20317.869999999086,,response,,,,,,,,,,,continue,click button,,,,,,,,,68545.75499999919,68544.89499999909,48210.496,48227.88500000024,48227.025,68549.371,,,
Sounds,html.Screen,1_3_0_0,2021-04-30T15:37:32.231Z,,,,,,,,,,,,,,,,,,,,,,,,,,,,,,,4254.956000000006,,timeout,,,,,,,,,1,,,,,,,,S,I,O,,72789.37500000757,72787.567,68532.906,68545.95500000869,68549.371,72804.327,,,
Judgement,html.Screen,1_3_0_1,2021-04-30T15:37:33.851Z,,,,,,,,,,,,,,,,,,,,,,,,,,,,true,1,,1604.368000005532,,response,,,,,,,,,1,,1,click #choice-1,,,,,S,I,O,,74409.51500000665,74408.69500000554,72787.567,72789.50500000792,72804.327,74422.613,,,
Trial,flow.Sequence,1_3_0,2021-04-30T15:37:33.852Z,,,,,,,,,,,,,,,,,,,,,,,,,,,,,,,5859.3240000055375,,completion,,,,,,,,,1,,,,,,,,S,I,O,,74409.76500000397,74408.69500000554,68532.906,68545.9150000097,68549.371,74422.613,,,
Sounds,html.Screen,1_3_1_0,2021-04-30T15:37:38.103Z,,,,,,,,,,,,,,,,,,,,,,,,,,,,,,,4254.762000000002,,timeout,,,,,,,,,2,,,,,,,,I,S,O,,78661.17000000668,78660.549,74406.022,74409.88500000094,74422.613,78677.375,,,
Judgement,html.Screen,1_3_1_1,2021-04-30T15:37:38.716Z,,,,,,,,,,,,,,,,,,,,,,,,,,,,true,2,,595.4650000050897,,response,,,,,,,,,2,,2,click #choice-2,,,,,I,S,O,,79273.62500000163,79272.84000000509,78660.549,78661.28000000026,78677.375,79277.948,,,
Trial,flow.Sequence,1_3_1,2021-04-30T15:37:38.716Z,,,,,,,,,,,,,,,,,,,,,,,,,,,,,,,4850.227000005092,,completion,,,,,,,,,2,,,,,,,,I,S,O,,79273.79000000656,79272.84000000509,74406.022,74409.85000001092,74422.613,79277.948,,,
Sounds,html.Screen,1_3_2_0,2021-04-30T15:37:42.958Z,,,,,,,,,,,,,,,,,,,,,,,,,,,,,,,4254.796999999991,,timeout,,,,,,,,,3,,,,,,,,O,I,S,,83516.49000000907,83515.923,79261.187,79273.89500000572,79277.948,83532.745,,,
Judgement,html.Screen,1_3_2_1,2021-04-30T15:37:43.540Z,,,,,,,,,,,,,,,,,,,,,,,,,,,,true,3,,564.1700000019046,,response,,,,,,,,,3,,3,click #choice-3,,,,,O,I,S,,84097.68000000622,84096.9150000019,83515.923,83516.58999999927,83532.745,84099.86,,,
Trial,flow.Sequence,1_3_2,2021-04-30T15:37:43.540Z,,,,,,,,,,,,,,,,,,,,,,,,,,,,,,,4818.967000001896,,completion,,,,,,,,,3,,,,,,,,O,I,S,,84097.84000000218,84096.9150000019,79261.187,79273.86500001012,79277.948,84099.86,,,
Sounds,html.Screen,1_3_3_0,2021-04-30T15:37:47.781Z,,,,,,,,,,,,,,,,,,,,,,,,,,,,,,,4254.671000000002,,timeout,,,,,,,,,3,,,,,,,,I,O,S,,88338.7100000109,88337.926,84083.204,84097.95000001031,84099.86,88354.531,,,
Judgement,html.Screen,1_3_3_1,2021-04-30T15:37:48.291Z,,,,,,,,,,,,,,,,,,,,,,,,,,,,true,3,,494.0640000031126,,response,,,,,,,,,3,,3,click #choice-3,,,,,I,O,S,,88849.4800000044,88848.59500000312,88337.926,88338.80000001227,88354.531,88855.192,,,
Trial,flow.Sequence,1_3_3,2021-04-30T15:37:48.292Z,,,,,,,,,,,,,,,,,,,,,,,,,,,,,,,4748.735000003115,,completion,,,,,,,,,3,,,,,,,,I,O,S,,88849.62500000256,88848.59500000312,84083.204,84097.91500000574,84099.86,88855.192,,,
Sounds,html.Screen,1_3_4_0,2021-04-30T15:37:52.536Z,,,,,,,,,,,,,,,,,,,,,,,,,,,,,,,4254.775999999998,,timeout,,,,,,,,,1,,,,,,,,S,O,I,,93093.9500000095,93093.14,88838.515,88849.72500000731,88855.192,93109.968,,,
Judgement,html.Screen,1_3_4_1,2021-04-30T15:37:53.100Z,,,,,,,,,,,,,,,,,,,,,,,,,,,,true,1,,546.9570000029635,,response,,,,,,,,,1,,1,click #choice-1,,,,,S,O,I,,93657.63500001049,93656.92500000296,93093.14,93094.0499999997,93109.968,93677.249,,,
Trial,flow.Sequence,1_3_4,2021-04-30T15:37:53.100Z,,,,,,,,,,,,,,,,,,,,,,,,,,,,,,,4801.7330000029615,,completion,,,,,,,,,1,,,,,,,,S,O,I,,93658.49500001059,93656.92500000296,88838.515,88849.6950000117,88855.192,93677.249,,,
Sounds,html.Screen,1_3_5_0,2021-04-30T15:37:57.359Z,,,,,,,,,,,,,,,,,,,,,,,,,,,,,,,4254.72600000001,,timeout,,,,,,,,,2,,,,,,,,O,S,I,,97917.17000000062,97915.102,93643.715,93658.59000000637,93677.249,97931.975,,,
Judgement,html.Screen,1_3_5_1,2021-04-30T15:37:57.932Z,,,,,,,,,,,,,,,,,,,,,,,,,,,,true,2,,556.8250000064436,,response,,,,,,,,,2,,2,click #choice-2,,,,,O,S,I,,98489.52000000281,98488.80000000645,97915.102,97917.24500000419,97931.975,98499.09,,,
Trial,flow.Sequence,1_3_5,2021-04-30T15:37:57.932Z,,,,,,,,,,,,,,,,,,,,,,,,,,,,,,,4811.551000006453,,completion,,,,,,,,,2,,,,,,,,O,S,I,,98489.66000000655,98488.80000000645,93643.715,93658.56000001077,93677.249,98499.09,,,
Task,flow.Loop,1_3,2021-04-30T15:37:57.935Z,,,,,,,,,,,,,,,,,,,,,,,,,,,,,,,29939.42900000645,,completion,,,1,,,,,,,,,,,,,,,,,,98493.3549999987,98488.80000000645,68532.906,68545.86000001291,68549.371,98499.09,,,
Trap,html.Screen,1_4,2021-04-30T15:37:57.936Z,,,,,,,,,,,,,,,,,,,,,,,,,,,,,,,NaN,,skipped,,,,,,,,,,,,,,,,,,,,,98494.35500000254,98488.80000000645,,98494.21000000439,,98499.09,,,
Thanks,html.Screen,1_5,2021-04-30T15:38:01.236Z,,,,,,,,,,,,,,,,,,,,,,,,,,,,,,,3293.695000012376,,response,,,,,,,,,,,continue,click button,,,,,,,,,101794.1400000127,101792.78500001237,98482.439,98494.51000000408,98499.09,104589.068,,,
Headphone screening,flow.Sequence,1,2021-04-30T15:38:01.236Z,,,,,,,,,,,,,,,,,,,,,,,,,,,,,,,88938.13900001236,,completion,,,,,,,,,,,,,,,,,,,,,101794.34500000207,101792.78500001237,12838.269,12843.795000007958,12854.646,104589.068,,,
Instructions,html.Page,2_0,2021-04-30T15:38:21.044Z,,,,,,,,,,,,,,,,,,,,,,,,,,,,,,,17013.107000007265,,form submission,,,,,,,,,,,,,,,,,,,,,121602.34000001219,121602.17500000726,104572.421,104589.6400000056,104589.068,121607.847,,,
Holding screen,html.Screen,2_1_0_0,2021-04-30T15:38:31.028Z,,,,,,,,,,,,,,,,,,,,,,,,,,,,,,,9994.368000000002,,timeout,,,,,,,,,,,,,,,,,,,,,131586.21000000858,131585.693,121591.218,121602.48000000138,121607.847,131602.215,,,
screen,html.Screen,2_1_0_1_0,2021-04-30T15:38:31.965Z,,,,,,,,,,,,,,,,,53,,,,,,,,,,,,,,919.2099999990023,,response,,,,99,,,,,,,Space,keypress(Space),,,,,,,,When -- ----- -- ------ - ------- --- ----------<br>------------- ------ ------ ---- ---- ------- ----- -- ----<br>-------- ------- -- ---------- --- - --- ----- ----- ----<br>---- --- --- ----- --- ---- ---- ------- ----- ---- -------<br>--- --- -- ----- -- --- ---- -- --- ---- -- ------ ------<br>--- ----- -- ----,132523.4000000055,132521.424999999,131585.693,131586.36000000115,131602.215,132536.585,,0,When
screen,html.Screen,2_1_0_1_1,2021-04-30T15:38:32.331Z,,,,,,,,,,,,,,,,,53,,,,,,,,,,,,,,352.54000000152155,,response,,,,99,,,,,,,Space,keypress(Space),,,,,,,,---- it ----- -- ------ - ------- --- ----------<br>------------- ------ ------ ---- ---- ------- ----- -- ----<br>-------- ------- -- ---------- --- - --- ----- ----- ----<br>---- --- --- ----- --- ---- ---- ------- ----- ---- -------<br>--- --- -- ----- -- --- ---- -- --- ---- -- ------ ------<br>--- ----- -- ----,132889.66000000073,132889.1250000015,132519.974,132523.51500000805,132536.585,132903.696,,1,it
screen,html.Screen,2_1_0_1_2,2021-04-30T15:38:32.683Z,,,,,,,,,,,,,,,,,53,,,,,,,,,,,,,,337.6340000043856,,response,,,,99,,,,,,,Space,keypress(Space),,,,,,,,---- -- comes -- ------ - ------- --- ----------<br>------------- ------ ------ ---- ---- ------- ----- -- ----<br>-------- ------- -- ---------- --- - --- ----- ----- ----<br>---- --- --- ----- --- ---- ---- ------- ----- ---- -------<br>--- --- -- ----- -- --- ---- -- --- ---- -- ------ ------<br>--- ----- -- ----,133241.8550000002,133241.33000000438,132887.04,132889.76000000548,132903.696,133254.115,,2,comes
screen,html.Screen,2_1_0_1_3,2021-04-30T15:38:33.027Z,,,,,,,,,,,,,,,,,53,,,,,,,,,,,,,,331.14000001270324,,response,,,,99,,,,,,,Space,keypress(Space),,,,,,,,---- -- ----- to ------ - ------- --- ----------<br>------------- ------ ------ ---- ---- ------- ----- -- ----<br>-------- ------- -- ---------- --- - --- ----- ----- ----<br>---- --- --- ----- --- ---- ---- ------- ----- ---- -------<br>--- --- -- ----- -- --- ---- -- --- ---- -- ------ ------<br>--- ----- -- ----,133585.72000000277,133585.2550000127,133237.337,133241.95000001055,133254.115,133587.738,,3,to
screen,html.Screen,2_1_0_1_4,2021-04-30T15:38:33.419Z,,,,,,,,,,,,,,,,,53,,,,,,,,,,,,,,389.5670000076061,,response,,,,99,,,,,,,Space,keypress(Space),,,,,,,,---- -- ----- -- having - ------- --- ----------<br>------------- ------ ------ ---- ---- ------- ----- -- ----<br>-------- ------- -- ---------- --- - --- ----- ----- ----<br>---- --- --- ----- --- ---- ---- ------- ----- ---- -------<br>--- --- -- ----- -- --- ---- -- --- ---- -- ------ ------<br>--- ----- -- ----,133977.79499999888,133977.30500000762,133571.054,133585.81499999855,133587.738,133988.249,,4,having
screen,html.Screen,2_1_0_1_5,2021-04-30T15:38:33.755Z,,,,,,,,,,,,,,,,,53,,,,,,,,,,,,,,325.09100000787294,,response,,,,99,,,,,,,Space,keypress(Space),,,,,,,,---- -- ----- -- ------ a ------- --- ----------<br>------------- ------ ------ ---- ---- ------- ----- -- ----<br>-------- ------- -- ---------- --- - --- ----- ----- ----<br>---- --- --- ----- --- ---- ---- ------- ----- ---- -------<br>--- --- -- ----- -- --- ---- -- --- ---- -- ------ ------<br>--- ----- -- ----,134313.8450000115,134313.34000000788,133971.659,133977.8900000092,133988.249,134321.945,,5,a
screen,html.Screen,2_1_0_1_6,2021-04-30T15:38:34.043Z,,,,,,,,,,,,,,,,,53,,,,,,,,,,,,,,279.40000000275904,,response,,,,99,,,,,,,Space,keypress(Space),,,,,,,,---- -- ----- -- ------ - lasting --- ----------<br>------------- ------ ------ ---- ---- ------- ----- -- ----<br>-------- ------- -- ---------- --- - --- ----- ----- ----<br>---- --- --- ----- --- ---- ---- ------- ----- ---- -------<br>--- --- -- ----- -- --- ---- -- --- ---- -- ------ ------<br>--- ----- -- ----,134601.87500000757,134601.34500000277,134305.203,134313.93500001286,134321.945,134605.537,,6,lasting
screen,html.Screen,2_1_0_1_7,2021-04-30T15:38:34.411Z,,,,,,,,,,,,,,,,,53,,,,,,,,,,,,,,363.73800001037307,,response,,,,99,,,,,,,Space,keypress(Space),,,,,,,,---- -- ----- -- ------ - ------- and ----------<br>------------- ------ ------ ---- ---- ------- ----- -- ----<br>-------- ------- -- ---------- --- - --- ----- ----- ----<br>---- --- --- ----- --- ---- ---- ------- ----- ---- -------<br>--- --- -- ----- -- --- ---- -- --- ---- -- ------ ------<br>--- ----- -- ----,134969.77500000503,134969.27500001038,134589.058,134601.97000000335,134605.537,134972.607,,7,and
screen,html.Screen,2_1_0_1_8,2021-04-30T15:38:34.795Z,,,,,,,,,,,,,,,,,53,,,,,,,,,,,,,,380.76800000606454,,response,,,,99,,,,,,,Space,keypress(Space),,,,,,,,---- -- ----- -- ------ - ------- --- fulfilling<br>------------- ------ ------ ---- ---- ------- ----- -- ----<br>-------- ------- -- ---------- --- - --- ----- ----- ----<br>---- --- --- ----- --- ---- ---- ------- ----- ---- -------<br>--- --- -- ----- -- --- ---- -- --- ---- -- ------ ------<br>--- ----- -- ----,135353.86500001187,135353.37500000605,134955.952,134969.8700000008,134972.607,135373.037,,8,fulfilling
screen,html.Screen,2_1_0_1_9,2021-04-30T15:38:35.331Z,,,,,,,,,,,,,,,,,53,,,,,,,,,,,,,,516.1780000028666,,response,,,,99,,,,,,,Space,keypress(Space),,,,,,,,"---- -- ----- -- ------ - ------- --- ----------<br>relationship, ------ ------ ---- ---- ------- ----- -- ----<br>-------- ------- -- ---------- --- - --- ----- ----- ----<br>---- --- --- ----- --- ---- ---- ------- ----- ---- -------<br>--- --- -- ----- -- --- ---- -- --- ---- -- ------ ------<br>--- ----- -- ----",135889.7350000043,135889.21500000288,135339.849,135353.95499999868,135373.037,135919.022,,9,"relationship,"
screen,html.Screen,2_1_0_1_10,2021-04-30T15:38:35.779Z,,,,,,,,,,,,,,,,,53,,,,,,,,,,,,,,418.1380000100471,,response,,,,99,,,,,,,Space,keypress(Space),,,,,,,,---- -- ----- -- ------ - ------- --- ----------<br>------------- common ------ ---- ---- ------- ----- -- ----<br>-------- ------- -- ---------- --- - --- ----- ----- ----<br>---- --- --- ----- --- ---- ---- ------- ----- ---- -------<br>--- --- -- ----- -- --- ---- -- --- ---- -- ------ ------<br>--- ----- -- ----,136337.77500000724,136337.16000001004,135873.76,135889.83500000904,135919.022,136340.776,,10,common
screen,html.Screen,2_1_0_1_11,2021-04-30T15:38:36.115Z,,,,,,,,,,,,,,,,,53,,,,,,,,,,,,,,332.58400000067195,,response,,,,99,,,,,,,Space,keypress(Space),,,,,,,,---- -- ----- -- ------ - ------- --- ----------<br>------------- ------ wisdom ---- ---- ------- ----- -- ----<br>-------- ------- -- ---------- --- - --- ----- ----- ----<br>---- --- --- ----- --- ---- ---- ------- ----- ---- -------<br>--- --- -- ----- -- --- ---- -- --- ---- -- ------ ------<br>--- ----- -- ----,136673.8350000087,136673.36000000068,136324.185,136337.85500000522,136340.776,136700.73,,11,wisdom
screen,html.Screen,2_1_0_1_12,2021-04-30T15:38:36.499Z,,,,,,,,,,,,,,,,,53,,,,,,,,,,,,,,356.53500001036446,,response,,,,99,,,,,,,Space,keypress(Space),,,,,,,,---- -- ----- -- ------ - ------- --- ----------<br>------------- ------ ------ says ---- ------- ----- -- ----<br>-------- ------- -- ---------- --- - --- ----- ----- ----<br>---- --- --- ----- --- ---- ---- ------- ----- ---- -------<br>--- --- -- ----- -- --- ---- -- --- ---- -- ------ ------<br>--- ----- -- ----,137057.76500000502,137057.26500001037,136657.818,136673.92500001006,136700.73,137075.086,,12,says
screen,html.Screen,2_1_0_1_13,2021-04-30T15:38:36.819Z,,,,,,,,,,,,,,,,,53,,,,,,,,,,,,,,301.93399999989197,,response,,,,99,,,,,,,Space,keypress(Space),,,,,,,,---- -- ----- -- ------ - ------- --- ----------<br>------------- ------ ------ ---- that ------- ----- -- ----<br>-------- ------- -- ---------- --- - --- ----- ----- ----<br>---- --- --- ----- --- ---- ---- ------- ----- ---- -------<br>--- --- -- ----- -- --- ---- -- --- ---- -- ------ ------<br>--- ----- -- ----,137377.52500000352,137377.0199999999,137041.589,137057.8600000008,137075.086,137391.93,,13,that
screen,html.Screen,2_1_0_1_14,2021-04-30T15:38:37.131Z,,,,,,,,,,,,,,,,,53,,,,,,,,,,,,,,297.2950000091805,,response,,,,99,,,,,,,Space,keypress(Space),,,,,,,,---- -- ----- -- ------ - ------- --- ----------<br>------------- ------ ------ ---- ---- feeling ----- -- ----<br>-------- ------- -- ---------- --- - --- ----- ----- ----<br>---- --- --- ----- --- ---- ---- ------- ----- ---- -------<br>--- --- -- ----- -- --- ---- -- --- ---- -- ------ ------<br>--- ----- -- ----,137689.71500000043,137689.22500000917,137375.39,137377.6199999993,137391.93,137692.244,,14,feeling
screen,html.Screen,2_1_0_1_15,2021-04-30T15:38:37.595Z,,,,,,,,,,,,,,,,,53,,,,,,,,,,,,,,461.0860000009998,,response,,,,99,,,,,,,Space,keypress(Space),,,,,,,,---- -- ----- -- ------ - ------- --- ----------<br>------------- ------ ------ ---- ---- ------- close -- ----<br>-------- ------- -- ---------- --- - --- ----- ----- ----<br>---- --- --- ----- --- ---- ---- ------- ----- ---- -------<br>--- --- -- ----- -- --- ---- -- --- ---- -- ------ ------<br>--- ----- -- ----,138153.8150000124,138153.330000001,137675.551,137689.8199999996,137692.244,138159.498,,15,close
screen,html.Screen,2_1_0_1_16,2021-04-30T15:38:37.939Z,,,,,,,,,,,,,,,,,53,,,,,,,,,,,,,,337.86200000849203,,response,,,,99,,,,,,,Space,keypress(Space),,,,,,,,---- -- ----- -- ------ - ------- --- ----------<br>------------- ------ ------ ---- ---- ------- ----- to ----<br>-------- ------- -- ---------- --- - --- ----- ----- ----<br>---- --- --- ----- --- ---- ---- ------- ----- ---- -------<br>--- --- -- ----- -- --- ---- -- --- ---- -- ------ ------<br>--- ----- -- ----,138497.84500000533,138497.36000000848,138142.95,138153.91000000818,138159.498,138509.998,,16,to
screen,html.Screen,2_1_0_1_17,2021-04-30T15:38:38.355Z,,,,,,,,,,,,,,,,,53,,,,,,,,,,,,,,403.33700000474346,,response,,,,99,,,,,,,Space,keypress(Space),,,,,,,,---- -- ----- -- ------ - ------- --- ----------<br>------------- ------ ------ ---- ---- ------- ----- -- your<br>-------- ------- -- ---------- --- - --- ----- ----- ----<br>---- --- --- ----- --- ---- ---- ------- ----- ---- -------<br>--- --- -- ----- -- --- ---- -- --- ---- -- ------ ------<br>--- ----- -- ----,138913.82000000158,138913.33500000474,138493.331,138497.94500001008,138509.998,138927.086,,17,your
screen,html.Screen,2_1_0_1_18,2021-04-30T15:38:38.747Z,,,,,,,,,,,,,,,,,53,,,,,,,,,,,,,,378.1790000026813,,response,,,,99,,,,,,,Space,keypress(Space),,,,,,,,---- -- ----- -- ------ - ------- --- ----------<br>------------- ------ ------ ---- ---- ------- ----- -- ----<br>romantic ------- -- ---------- --- - --- ----- ----- ----<br>---- --- --- ----- --- ---- ---- ------- ----- ---- -------<br>--- --- -- ----- -- --- ---- -- --- ---- -- ------ ------<br>--- ----- -- ----,139305.87500000547,139305.2650000027,138910.414,138913.92000000633,138927.086,139310.822,,18,romantic
screen,html.Screen,2_1_0_1_19,2021-04-30T15:38:39.123Z,,,,,,,,,,,,,,,,,53,,,,,,,,,,,,,,370.4830000055372,,response,,,,99,,,,,,,Space,keypress(Space),,,,,,,,---- -- ----- -- ------ - ------- --- ----------<br>------------- ------ ------ ---- ---- ------- ----- -- ----<br>-------- partner -- ---------- --- - --- ----- ----- ----<br>---- --- --- ----- --- ---- ---- ------- ----- ---- -------<br>--- --- -- ----- -- --- ---- -- --- ---- -- ------ ------<br>--- ----- -- ----,139681.81000000914,139681.30500000552,139294.168,139305.99500000244,139310.822,139694.552,,19,partner
screen,html.Screen,2_1_0_1_20,2021-04-30T15:38:39.483Z,,,,,,,,,,,,,,,,,53,,,,,,,,,,,,,,346.7530000061088,,response,,,,99,,,,,,,Space,keypress(Space),,,,,,,,---- -- ----- -- ------ - ------- --- ----------<br>------------- ------ ------ ---- ---- ------- ----- -- ----<br>-------- ------- is ---------- --- - --- ----- ----- ----<br>---- --- --- ----- --- ---- ---- ------- ----- ---- -------<br>--- --- -- ----- -- --- ---- -- --- ---- -- ------ ------<br>--- ----- -- ----,140041.78500000853,140041.3050000061,139677.798,139681.90500000492,139694.552,140044.902,,20,is
screen,html.Screen,2_1_0_1_21,2021-04-30T15:38:39.811Z,,,,,,,,,,,,,,,,,53,,,,,,,,,,,,,,324.43300001032185,,response,,,,99,,,,,,,Space,keypress(Space),,,,,,,,---- -- ----- -- ------ - ------- --- ----------<br>------------- ------ ------ ---- ---- ------- ----- -- ----<br>-------- ------- -- paramount. --- - --- ----- ----- ----<br>---- --- --- ----- --- ---- ---- ------- ----- ---- -------<br>--- --- -- ----- -- --- ---- -- --- ---- -- ------ ------<br>--- ----- -- ----,140369.84500000835,140369.33500001032,140028.18,140041.8750000099,140044.902,140378.618,,21,paramount.
screen,html.Screen,2_1_0_1_22,2021-04-30T15:38:40.307Z,,,,,,,,,,,,,,,,,53,,,,,,,,,,,,,,486.62700000815676,,response,,,,99,,,,,,,Space,keypress(Space),,,,,,,,---- -- ----- -- ------ - ------- --- ----------<br>------------- ------ ------ ---- ---- ------- ----- -- ----<br>-------- ------- -- ---------- But - --- ----- ----- ----<br>---- --- --- ----- --- ---- ---- ------- ----- ---- -------<br>--- --- -- ----- -- --- ---- -- --- ---- -- ------ ------<br>--- ----- -- ----,140865.7450000028,140865.24500000814,140361.934,140369.94000000414,140378.618,140879.272,,22,But
screen,html.Screen,2_1_0_1_23,2021-04-30T15:38:40.683Z,,,,,,,,,,,,,,,,,53,,,,,,,,,,,,,,362.133000007947,,response,,,,99,,,,,,,Space,keypress(Space),,,,,,,,---- -- ----- -- ------ - ------- --- ----------<br>------------- ------ ------ ---- ---- ------- ----- -- ----<br>-------- ------- -- ---------- --- a --- ----- ----- ----<br>---- --- --- ----- --- ---- ---- ------- ----- ---- -------<br>--- --- -- ----- -- --- ---- -- --- ---- -- ------ ------<br>--- ----- -- ----,141241.8900000048,141241.40500000794,140862.437,140865.83500000415,140879.272,141246.232,,23,a
screen,html.Screen,2_1_0_1_24,2021-04-30T15:38:41.300Z,,,,,,,,,,,,,,,,,53,,,,,,,,,,,,,,611.3680000030145,,response,,,,99,,,,,,,Space,keypress(Space),,,,,,,,---- -- ----- -- ------ - ------- --- ----------<br>------------- ------ ------ ---- ---- ------- ----- -- ----<br>-------- ------- -- ---------- --- - new ----- ----- ----<br>---- --- --- ----- --- ---- ---- ------- ----- ---- -------<br>--- --- -- ----- -- --- ---- -- --- ---- -- ------ ------<br>--- ----- -- ----,141858.189999999,141857.600000003,141229.521,141241.98000000615,141246.232,141863.598,,24,new
screen,html.Screen,2_1_0_1_25,2021-04-30T15:38:41.707Z,,,,,,,,,,,,,,,,,53,,,,,,,,,,,,,,401.7770000026794,,response,,,,99,,,,,,,Space,keypress(Space),,,,,,,,---- -- ----- -- ------ - ------- --- ----------<br>------------- ------ ------ ---- ---- ------- ----- -- ----<br>-------- ------- -- ---------- --- - --- study ----- ----<br>---- --- --- ----- --- ---- ---- ------- ----- ---- -------<br>--- --- -- ----- -- --- ---- -- --- ---- -- ------ ------<br>--- ----- -- ----,142265.8550000051,142265.37500000268,141847.023,141858.34500000055,141863.598,142280.799,,25,study
screen,html.Screen,2_1_0_1_26,2021-04-30T15:38:42.076Z,,,,,,,,,,,,,,,,,53,,,,,,,,,,,,,,352.70100001082756,,response,,,,99,,,,,,,Space,keypress(Space),,,,,,,,---- -- ----- -- ------ - ------- --- ----------<br>------------- ------ ------ ---- ---- ------- ----- -- ----<br>-------- ------- -- ---------- --- - --- ----- finds ----<br>---- --- --- ----- --- ---- ---- ------- ----- ---- -------<br>--- --- -- ----- -- --- ---- -- --- ---- -- ------ ------<br>--- ----- -- ----,142634.0049999999,142633.50000001083,142264.155,142265.95000000088,142280.799,142647.866,,26,finds
screen,html.Screen,2_1_0_1_27,2021-04-30T15:38:42.427Z,,,,,,,,,,,,,,,,,53,,,,,,,,,,,,,,337.47900000822847,,response,,,,99,,,,,,,Space,keypress(Space),,,,,,,,---- -- ----- -- ------ - ------- --- ----------<br>------------- ------ ------ ---- ---- ------- ----- -- ----<br>-------- ------- -- ---------- --- - --- ----- ----- that<br>---- --- --- ----- --- ---- ---- ------- ----- ---- -------<br>--- --- -- ----- -- --- ---- -- --- ---- -- ------ ------<br>--- ----- -- ----,142985.84000000847,142985.34500000824,142631.02,142634.10000001022,142647.866,142998.198,,27,that
screen,html.Screen,2_1_0_1_28,2021-04-30T15:38:42.779Z,,,,,,,,,,,,,,,,,53,,,,,,,,,,,,,,338.79700000511366,,response,,,,99,,,,,,,Space,keypress(Space),,,,,,,,---- -- ----- -- ------ - ------- --- ----------<br>------------- ------ ------ ---- ---- ------- ----- -- ----<br>-------- ------- -- ---------- --- - --- ----- ----- ----<br>it's --- --- ----- --- ---- ---- ------- ----- ---- -------<br>--- --- -- ----- -- --- ---- -- --- ---- -- ------ ------<br>--- ----- -- ----,143337.48000000196,143336.99500000512,142981.41,142986.52500000026,142998.198,143348.648,,28,it's
screen,html.Screen,2_1_0_1_29,2021-04-30T15:38:43.067Z,,,,,,,,,,,,,,,,,53,,,,,,,,,,,,,,276.54200000612764,,response,,,,99,,,,,,,Space,keypress(Space),,,,,,,,---- -- ----- -- ------ - ------- --- ----------<br>------------- ------ ------ ---- ---- ------- ----- -- ----<br>-------- ------- -- ---------- --- - --- ----- ----- ----<br>---- not --- ----- --- ---- ---- ------- ----- ---- -------<br>--- --- -- ----- -- --- ---- -- --- ---- -- ------ ------<br>--- ----- -- ----,143625.81000001228,143625.1900000061,143331.843,143337.6100000023,143348.648,143632.213,,29,not
screen,html.Screen,2_1_0_1_30,2021-04-30T15:38:43.403Z,,,,,,,,,,,,,,,,,53,,,,,,,,,,,,,,329.1320000033593,,response,,,,99,,,,,,,Space,keypress(Space),,,,,,,,---- -- ----- -- ------ - ------- --- ----------<br>------------- ------ ------ ---- ---- ------- ----- -- ----<br>-------- ------- -- ---------- --- - --- ----- ----- ----<br>---- --- how ----- --- ---- ---- ------- ----- ---- -------<br>--- --- -- ----- -- --- ---- -- --- ---- -- ------ ------<br>--- ----- -- ----,143961.90000000934,143961.34500000335,143615.624,143625.89500000468,143632.213,143965.892,,30,how
screen,html.Screen,2_1_0_1_31,2021-04-30T15:38:43.867Z,,,,,,,,,,,,,,,,,53,,,,,,,,,,,,,,459.45800000499,,response,,,,99,,,,,,,Space,keypress(Space),,,,,,,,---- -- ----- -- ------ - ------- --- ----------<br>------------- ------ ------ ---- ---- ------- ----- -- ----<br>-------- ------- -- ---------- --- - --- ----- ----- ----<br>---- --- --- close --- ---- ---- ------- ----- ---- -------<br>--- --- -- ----- -- --- ---- -- --- ---- -- ------ ------<br>--- ----- -- ----,144425.8450000052,144425.35000000498,143949.146,143961.99500000512,143965.892,144433.105,,31,close
screen,html.Screen,2_1_0_1_32,2021-04-30T15:38:44.139Z,,,,,,,,,,,,,,,,,53,,,,,,,,,,,,,,264.0550000106159,,response,,,,99,,,,,,,Space,keypress(Space),,,,,,,,---- -- ----- -- ------ - ------- --- ----------<br>------------- ------ ------ ---- ---- ------- ----- -- ----<br>-------- ------- -- ---------- --- - --- ----- ----- ----<br>---- --- --- ----- you ---- ---- ------- ----- ---- -------<br>--- --- -- ----- -- --- ---- -- --- ---- -- ------ ------<br>--- ----- -- ----,144697.67000000866,144697.16000001063,144416.486,144425.93000001216,144433.105,144699.963,,32,you
screen,html.Screen,2_1_0_1_33,2021-04-30T15:38:44.435Z,,,,,,,,,,,,,,,,,53,,,,,,,,,,,,,,293.3170000097016,,response,,,,99,,,,,,,Space,keypress(Space),,,,,,,,---- -- ----- -- ------ - ------- --- ----------<br>------------- ------ ------ ---- ---- ------- ----- -- ----<br>-------- ------- -- ---------- --- - --- ----- ----- ----<br>---- --- --- ----- --- feel ---- ------- ----- ---- -------<br>--- --- -- ----- -- --- ---- -- --- ---- -- ------ ------<br>--- ----- -- ----,144993.77500000992,144993.2800000097,144683.47,144697.75500000105,144699.963,145000.387,,33,feel
screen,html.Screen,2_1_0_1_34,2021-04-30T15:38:44.915Z,,,,,,,,,,,,,,,,,53,,,,,,,,,,,,,,472.9280000102008,,response,,,,99,,,,,,,Space,keypress(Space),,,,,,,,---- -- ----- -- ------ - ------- --- ----------<br>------------- ------ ------ ---- ---- ------- ----- -- ----<br>-------- ------- -- ---------- --- - --- ----- ----- ----<br>---- --- --- ----- --- ---- that ------- ----- ---- -------<br>--- --- -- ----- -- --- ---- -- --- ---- -- ------ ------<br>--- ----- -- ----,145473.81999999925,145473.3150000102,144983.601,144993.86500001128,145000.387,145484.261,,34,that
screen,html.Screen,2_1_0_1_35,2021-04-30T15:38:45.187Z,,,,,,,,,,,,,,,,,53,,,,,,,,,,,,,,260.96900000044843,,response,,,,99,,,,,,,Space,keypress(Space),,,,,,,,---- -- ----- -- ------ - ------- --- ----------<br>------------- ------ ------ ---- ---- ------- ----- -- ----<br>-------- ------- -- ---------- --- - --- ----- ----- ----<br>---- --- --- ----- --- ---- ---- matters ----- ---- -------<br>--- --- -- ----- -- --- ---- -- --- ---- -- ------ ------<br>--- ----- -- ----,145745.72000000626,145745.23000000045,145467.519,145473.9050000062,145484.261,145751.263,,35,matters
screen,html.Screen,2_1_0_1_36,2021-04-30T15:38:45.419Z,,,,,,,,,,,,,,,,,53,,,,,,,,,,,,,,226.0170000064245,,response,,,,99,,,,,,,Space,keypress(Space),,,,,,,,"---- -- ----- -- ------ - ------- --- ----------<br>------------- ------ ------ ---- ---- ------- ----- -- ----<br>-------- ------- -- ---------- --- - --- ----- ----- ----<br>---- --- --- ----- --- ---- ---- ------- most, ---- -------<br>--- --- -- ----- -- --- ---- -- --- ---- -- ------ ------<br>--- ----- -- ----",145977.77000001224,145977.28000000643,145734.457,145745.81000000762,145751.263,145984.796,,36,"most,"
screen,html.Screen,2_1_0_1_37,2021-04-30T15:38:45.771Z,,,,,,,,,,,,,,,,,53,,,,,,,,,,,,,,344.5289999987872,,response,,,,99,,,,,,,Space,keypress(Space),,,,,,,,---- -- ----- -- ------ - ------- --- ----------<br>------------- ------ ------ ---- ---- ------- ----- -- ----<br>-------- ------- -- ---------- --- - --- ----- ----- ----<br>---- --- --- ----- --- ---- ---- ------- ----- it's -------<br>--- --- -- ----- -- --- ---- -- --- ---- -- ------ ------<br>--- ----- -- ----,146329.80500000122,146329.3249999988,145968.19,145977.85999999905,145984.796,146335.176,,37,it's
screen,html.Screen,2_1_0_1_38,2021-04-30T15:38:46.107Z,,,,,,,,,,,,,,,,,53,,,,,,,,,,,,,,330.0590000076627,,response,,,,99,,,,,,,Space,keypress(Space),,,,,,,,---- -- ----- -- ------ - ------- --- ----------<br>------------- ------ ------ ---- ---- ------- ----- -- ----<br>-------- ------- -- ---------- --- - --- ----- ----- ----<br>---- --- --- ----- --- ---- ---- ------- ----- ---- whether<br>--- --- -- ----- -- --- ---- -- --- ---- -- ------ ------<br>--- ----- -- ----,146665.7200000045,146665.23500000767,146318.496,146329.89000000816,146335.176,146668.884,,38,whether
screen,html.Screen,2_1_0_1_39,2021-04-30T15:38:46.403Z,,,,,,,,,,,,,,,,,53,,,,,,,,,,,,,,292.4110000009823,,response,,,,99,,,,,,,Space,keypress(Space),,,,,,,,---- -- ----- -- ------ - ------- --- ----------<br>------------- ------ ------ ---- ---- ------- ----- -- ----<br>-------- ------- -- ---------- --- - --- ----- ----- ----<br>---- --- --- ----- --- ---- ---- ------- ----- ---- -------<br>you --- -- ----- -- --- ---- -- --- ---- -- ------ ------<br>--- ----- -- ----,146961.81000000797,146961.29500000097,146652.163,146665.81000000588,146668.884,146969.237,,39,you
screen,html.Screen,2_1_0_1_40,2021-04-30T15:38:46.667Z,,,,,,,,,,,,,,,,,53,,,,,,,,,,,,,,256.1280000057013,,response,,,,99,,,,,,,Space,keypress(Space),,,,,,,,---- -- ----- -- ------ - ------- --- ----------<br>------------- ------ ------ ---- ---- ------- ----- -- ----<br>-------- ------- -- ---------- --- - --- ----- ----- ----<br>---- --- --- ----- --- ---- ---- ------- ----- ---- -------<br>--- are -- ----- -- --- ---- -- --- ---- -- ------ ------<br>--- ----- -- ----,147225.84500000812,147225.3650000057,146952.658,146961.89000000595,146969.237,147236.345,,40,are
screen,html.Screen,2_1_0_1_41,2021-04-30T15:38:46.931Z,,,,,,,,,,,,,,,,,53,,,,,,,,,,,,,,252.95500000109314,,response,,,,99,,,,,,,Space,keypress(Space),,,,,,,,---- -- ----- -- ------ - ------- --- ----------<br>------------- ------ ------ ---- ---- ------- ----- -- ----<br>-------- ------- -- ---------- --- - --- ----- ----- ----<br>---- --- --- ----- --- ---- ---- ------- ----- ---- -------<br>--- --- as ----- -- --- ---- -- --- ---- -- ------ ------<br>--- ----- -- ----,147489.77000000014,147489.3000000011,147219.45,147227.02000000572,147236.345,147503.13,,41,as
screen,html.Screen,2_1_0_1_42,2021-04-30T15:38:47.443Z,,,,,,,,,,,,,,,,,53,,,,,,,,,,,,,,498.26000000489876,,response,,,,99,,,,,,,Space,keypress(Space),,,,,,,,---- -- ----- -- ------ - ------- --- ----------<br>------------- ------ ------ ---- ---- ------- ----- -- ----<br>-------- ------- -- ---------- --- - --- ----- ----- ----<br>---- --- --- ----- --- ---- ---- ------- ----- ---- -------<br>--- --- -- close -- --- ---- -- --- ---- -- ------ ------<br>--- ----- -- ----,148001.87000000733,148001.3900000049,147486.463,147489.8450000037,147503.13,148003.632,,42,close
screen,html.Screen,2_1_0_1_43,2021-04-30T15:38:47.667Z,,,,,,,,,,,,,,,,,53,,,,,,,,,,,,,,221.74300000906806,,response,,,,99,,,,,,,Space,keypress(Space),,,,,,,,---- -- ----- -- ------ - ------- --- ----------<br>------------- ------ ------ ---- ---- ------- ----- -- ----<br>-------- ------- -- ---------- --- - --- ----- ----- ----<br>---- --- --- ----- --- ---- ---- ------- ----- ---- -------<br>--- --- -- ----- as --- ---- -- --- ---- -- ------ ------<br>--- ----- -- ----,148225.86000000592,148225.37500000908,147987.102,148001.9600000087,148003.632,148237.307,,43,as
screen,html.Screen,2_1_0_1_44,2021-04-30T15:38:47.955Z,,,,,,,,,,,,,,,,,53,,,,,,,,,,,,,,276.0230000015872,,response,,,,99,,,,,,,Space,keypress(Space),,,,,,,,---- -- ----- -- ------ - ------- --- ----------<br>------------- ------ ------ ---- ---- ------- ----- -- ----<br>-------- ------- -- ---------- --- - --- ----- ----- ----<br>---- --- --- ----- --- ---- ---- ------- ----- ---- -------<br>--- --- -- ----- -- you ---- -- --- ---- -- ------ ------<br>--- ----- -- ----,148513.81499999843,148513.3300000016,148220.581,148225.94500001287,148237.307,148520.935,,44,you
screen,html.Screen,2_1_0_1_45,2021-04-30T15:38:48.196Z,,,,,,,,,,,,,,,,,53,,,,,,,,,,,,,,232.64000000973465,,response,,,,99,,,,,,,Space,keypress(Space),,,,,,,,---- -- ----- -- ------ - ------- --- ----------<br>------------- ------ ------ ---- ---- ------- ----- -- ----<br>-------- ------- -- ---------- --- - --- ----- ----- ----<br>---- --- --- ----- --- ---- ---- ------- ----- ---- -------<br>--- --- -- ----- -- --- want -- --- ---- -- ------ ------<br>--- ----- -- ----,148754.11500000337,148753.57500000973,148504.149,148513.9049999998,148520.935,148771.334,,45,want
screen,html.Screen,2_1_0_1_46,2021-04-30T15:38:48.435Z,,,,,,,,,,,,,,,,,53,,,,,,,,,,,,,,221.95100000410457,,response,,,,99,,,,,,,Space,keypress(Space),,,,,,,,---- -- ----- -- ------ - ------- --- ----------<br>------------- ------ ------ ---- ---- ------- ----- -- ----<br>-------- ------- -- ---------- --- - --- ----- ----- ----<br>---- --- --- ----- --- ---- ---- ------- ----- ---- -------<br>--- --- -- ----- -- --- ---- to --- ---- -- ------ ------<br>--- ----- -- ----,148993.78000000434,148993.2850000041,148737.914,148754.20500000473,148771.334,149004.819,,46,to
screen,html.Screen,2_1_0_1_47,2021-04-30T15:38:48.667Z,,,,,,,,,,,,,,,,,53,,,,,,,,,,,,,,220.49600000333157,,response,,,,99,,,,,,,Space,keypress(Space),,,,,,,,"---- -- ----- -- ------ - ------- --- ----------<br>------------- ------ ------ ---- ---- ------- ----- -- ----<br>-------- ------- -- ---------- --- - --- ----- ----- ----<br>---- --- --- ----- --- ---- ---- ------- ----- ---- -------<br>--- --- -- ----- -- --- ---- -- be, ---- -- ------ ------<br>--- ----- -- ----",149225.78500000236,149225.31500000332,148988.2,148993.8700000057,149004.819,149238.33,,47,"be,"
screen,html.Screen,2_1_0_1_48,2021-04-30T15:38:48.923Z,,,,,,,,,,,,,,,,,53,,,,,,,,,,,,,,243.04000000862288,,response,,,,99,,,,,,,Space,keypress(Space),,,,,,,,---- -- ----- -- ------ - ------- --- ----------<br>------------- ------ ------ ---- ---- ------- ----- -- ----<br>-------- ------- -- ---------- --- - --- ----- ----- ----<br>---- --- --- ----- --- ---- ---- ------- ----- ---- -------<br>--- --- -- ----- -- --- ---- -- --- even -- ------ ------<br>--- ----- -- ----,149481.85000001104,149481.3700000086,149221.804,149225.87500000373,149238.33,149488.659,,48,even
screen,html.Screen,2_1_0_1_49,2021-04-30T15:38:49.212Z,,,,,,,,,,,,,,,,,53,,,,,,,,,,,,,,280.6159999987285,,response,,,,99,,,,,,,Space,keypress(Space),,,,,,,,---- -- ----- -- ------ - ------- --- ----------<br>------------- ------ ------ ---- ---- ------- ----- -- ----<br>-------- ------- -- ---------- --- - --- ----- ----- ----<br>---- --- --- ----- --- ---- ---- ------- ----- ---- -------<br>--- --- -- ----- -- --- ---- -- --- ---- if ------ ------<br>--- ----- -- ----,149769.96000000509,149769.27499999874,149471.934,149481.9550000102,149488.659,149772.227,,49,if
screen,html.Screen,2_1_0_1_50,2021-04-30T15:38:49.483Z,,,,,,,,,,,,,,,,,53,,,,,,,,,,,,,,269.0880000094767,,response,,,,99,,,,,,,Space,keypress(Space),,,,,,,,---- -- ----- -- ------ - ------- --- ----------<br>------------- ------ ------ ---- ---- ------- ----- -- ----<br>-------- ------- -- ---------- --- - --- ----- ----- ----<br>---- --- --- ----- --- ---- ---- ------- ----- ---- -------<br>--- --- -- ----- -- --- ---- -- --- ---- -- that's ------<br>--- ----- -- ----,150041.79000000295,150041.3150000095,149755.542,149770.05000000645,149772.227,150056.023,,50,that's
screen,html.Screen,2_1_0_1_51,2021-04-30T15:38:49.763Z,,,,,,,,,,,,,,,,,53,,,,,,,,,,,,,,265.2869999993709,,response,,,,99,,,,,,,Space,keypress(Space),,,,,,,,---- -- ----- -- ------ - ------- --- ----------<br>------------- ------ ------ ---- ---- ------- ----- -- ----<br>-------- ------- -- ---------- --- - --- ----- ----- ----<br>---- --- --- ----- --- ---- ---- ------- ----- ---- -------<br>--- --- -- ----- -- --- ---- -- --- ---- -- ------ really<br>--- ----- -- ----,150321.79000000178,150321.30999999936,150039.361,150041.8750000099,150056.023,150343.958,,51,really
screen,html.Screen,2_1_0_1_52,2021-04-30T15:38:50.027Z,,,,,,,,,,,,,,,,,53,,,,,,,,,,,,,,241.31200001048273,,response,,,,99,,,,,,,Space,keypress(Space),,,,,,,,---- -- ----- -- ------ - ------- --- ----------<br>------------- ------ ------ ---- ---- ------- ----- -- ----<br>-------- ------- -- ---------- --- - --- ----- ----- ----<br>---- --- --- ----- --- ---- ---- ------- ----- ---- -------<br>--- --- -- ----- -- --- ---- -- --- ---- -- ------ ------<br>not ----- -- ----,150585.76500001072,150585.2700000105,150306.195,150321.86999999976,150343.958,150589.807,,52,not
screen,html.Screen,2_1_0_1_53,2021-04-30T15:38:50.259Z,,,,,,,,,,,,,,,,,53,,,,,,,,,,,,,,227.3580000003858,,response,,,,99,,,,,,,Space,keypress(Space),,,,,,,,---- -- ----- -- ------ - ------- --- ----------<br>------------- ------ ------ ---- ---- ------- ----- -- ----<br>-------- ------- -- ---------- --- - --- ----- ----- ----<br>---- --- --- ----- --- ---- ---- ------- ----- ---- -------<br>--- --- -- ----- -- --- ---- -- --- ---- -- ------ ------<br>--- close -- ----,150817.710000003,150817.1650000004,150573.168,150585.85000000312,150589.807,150823.378,,53,close
screen,html.Screen,2_1_0_1_54,2021-04-30T15:38:50.635Z,,,,,,,,,,,,,,,,,53,,,,,,,,,,,,,,369.68200000506476,,response,,,,99,,,,,,,Space,keypress(Space),,,,,,,,---- -- ----- -- ------ - ------- --- ----------<br>------------- ------ ------ ---- ---- ------- ----- -- ----<br>-------- ------- -- ---------- --- - --- ----- ----- ----<br>---- --- --- ----- --- ---- ---- ------- ----- ---- -------<br>--- --- -- ----- -- --- ---- -- --- ---- -- ------ ------<br>--- ----- at ----,151193.56500000868,151193.06000000506,150806.865,150817.78500000655,150823.378,151207.259,,54,at
screen,html.Screen,2_1_0_1_55,2021-04-30T15:38:50.995Z,,,,,,,,,,,,,,,,,53,,,,,,,,,,,,,,346.16100001111045,,response,,,,99,,,,,,,Space,keypress(Space),,,,,,,,---- -- ----- -- ------ - ------- --- ----------<br>------------- ------ ------ ---- ---- ------- ----- -- ----<br>-------- ------- -- ---------- --- - --- ----- ----- ----<br>---- --- --- ----- --- ---- ---- ------- ----- ---- -------<br>--- --- -- ----- -- --- ---- -- --- ---- -- ------ ------<br>--- ----- -- all.,151553.91000000236,151553.4200000111,151190.466,151193.66000000446,151207.259,151557.55,,55,all.
Item 99,flow.Loop,2_1_0_1,2021-04-30T15:38:50.996Z,,,,,,,,,,,,,,,,,,,,,,,,,,,,,,,19951.205000011105,,completion,,,,,B,,,,,,,,,,,silence,,,,,151554.08500001067,151553.4200000111,131585.693,131586.32000000216,131602.215,151557.55,,,
Question 1,html.Screen,2_1_0_2,2021-04-30T15:38:56.659Z,,,,,,,,,,,,,,,,,,,,,,,,,,,,true,FALSE,,5659.255000003672,,response,,,,99,B,,,,,,FALSE,click #choice-2,,,,silence,,,,,157217.5750000024,157216.80500000366,151541.017,151554.17000000307,151557.55,157230.568,,,
Question 2,html.Screen,2_1_0_3,2021-04-30T15:39:02.355Z,,,,,,,,,,,,,,,,,,,,,,,,,,,,true,TRUE,,5682.297000005696,,response,,,,99,B,,,,,,TRUE,click #choice-1,,,,silence,,,,,162913.59999999986,162912.8650000057,157213.872,157217.66500000376,157230.568,162920.102,,,
Item 99,flow.Sequence,2_1_0,2021-04-30T15:39:02.355Z,,,,,,,,,,,,,,,,,,,,,,,,,,,,,,,41305.0180000057,,completion,,,,,,,,,,,,,,,,,,,,,162913.7300000002,162912.8650000057,121591.218,121602.46000000916,121607.847,162920.102,,,
Holding screen,html.Screen,2_1_1_0,2021-04-30T15:39:12.342Z,,,,,,,,,,,,,,,,,,,,,,,,,,,,,,,9994.402999999991,,timeout,,,,,,,,,,,,,,,,,,,,,172900.02500000992,172897.778,162903.526,162913.82500001055,162920.102,172914.505,,,
screen,html.Screen,2_1_1_1_0,2021-04-30T15:39:13.140Z,,,,,,,,,,,,,,,,,54,,,,,,,,,,,,,,782.955000010319,,response,,,,100,,,,,,,Space,keypress(Space),,,,,,,,At --- ---- --- ------ ----- ------- ---- -- --- ------- --<br>------- ---------- ------ -- ----- -- ----- -- ---- ------<br>--- ----- --- --- ------ -------- ----- --- ------ ----- --<br>----- ----- ---------- --- --- ------ ------ ---- -- ------<br>------- --- ------ ----- --- ---- ------- -- ---- --- --<br>------- ------,173698.00500001293,173697.46000001032,172897.778,172900.14000001247,172914.505,173722.908,,0,At
screen,html.Screen,2_1_1_1_1,2021-04-30T15:39:13.443Z,,,,,,,,,,,,,,,,,54,,,,,,,,,,,,,,278.3169999999809,,response,,,,100,,,,,,,Space,keypress(Space),,,,,,,,-- the ---- --- ------ ----- ------- ---- -- --- ------- --<br>------- ---------- ------ -- ----- -- ----- -- ---- ------<br>--- ----- --- --- ------ -------- ----- --- ------ ----- --<br>----- ----- ---------- --- --- ------ ------ ---- -- ------<br>------- --- ------ ----- --- ---- ------- -- ---- --- --<br>------- ------,174001.67000001238,174001.22499999998,173681.943,173698.1100000121,173722.908,174015.769,,1,the
screen,html.Screen,2_1_1_1_2,2021-04-30T15:39:13.643Z,,,,,,,,,,,,,,,,,54,,,,,,,,,,,,,,185.32100000229548,,response,,,,100,,,,,,,Space,keypress(Space),,,,,,,,-- --- time --- ------ ----- ------- ---- -- --- ------- --<br>------- ---------- ------ -- ----- -- ----- -- ---- ------<br>--- ----- --- --- ------ -------- ----- --- ------ ----- --<br>----- ----- ---------- --- --- ------ ------ ---- -- ------<br>------- --- ------ ----- --- ---- ------- -- ---- --- --<br>------- ------,174201.5950000059,174201.0900000023,173999.033,174001.7599999992,174015.769,174216.028,,2,time
screen,html.Screen,2_1_1_1_3,2021-04-30T15:39:13.963Z,,,,,,,,,,,,,,,,,54,,,,,,,,,,,,,,305.2669999986538,,response,,,,100,,,,,,,Space,keypress(Space),,,,,,,,-- --- ---- the ------ ----- ------- ---- -- --- ------- --<br>------- ---------- ------ -- ----- -- ----- -- ---- ------<br>--- ----- --- --- ------ -------- ----- --- ------ ----- --<br>----- ----- ---------- --- --- ------ ------ ---- -- ------<br>------- --- ------ ----- --- ---- ------- -- ---- --- --<br>------- ------,174521.77500000107,174521.29499999864,174199.168,174201.6750000039,174216.028,174532.886,,3,the
screen,html.Screen,2_1_1_1_4,2021-04-30T15:39:14.227Z,,,,,,,,,,,,,,,,,54,,,,,,,,,,,,,,252.3240000018268,,response,,,,100,,,,,,,Space,keypress(Space),,,,,,,,-- --- ---- --- French ----- ------- ---- -- --- ------- --<br>------- ---------- ------ -- ----- -- ----- -- ---- ------<br>--- ----- --- --- ------ -------- ----- --- ------ ----- --<br>----- ----- ---------- --- --- ------ ------ ---- -- ------<br>------- --- ------ ----- --- ---- ------- -- ---- --- --<br>------- ------,174785.71000001102,174785.21000000183,174516.332,174521.86000000802,174532.886,174799.834,,4,French
screen,html.Screen,2_1_1_1_5,2021-04-30T15:39:14.483Z,,,,,,,,,,,,,,,,,54,,,,,,,,,,,,,,241.3859999991546,,response,,,,100,,,,,,,Space,keypress(Space),,,,,,,,-- --- ---- --- ------ crown ------- ---- -- --- ------- --<br>------- ---------- ------ -- ----- -- ----- -- ---- ------<br>--- ----- --- --- ------ -------- ----- --- ------ ----- --<br>----- ----- ---------- --- --- ------ ------ ---- -- ------<br>------- --- ------ ----- --- ---- ------- -- ---- --- --<br>------- ------,175041.70000000158,175041.21999999916,174783.319,174785.79500000342,174799.834,175050.18,,5,crown
screen,html.Screen,2_1_1_1_6,2021-04-30T15:39:14.747Z,,,,,,,,,,,,,,,,,54,,,,,,,,,,,,,,255.05000001267763,,response,,,,100,,,,,,,Space,keypress(Space),,,,,,,,-- --- ---- --- ------ ----- secured ---- -- --- ------- --<br>------- ---------- ------ -- ----- -- ----- -- ---- ------<br>--- ----- --- --- ------ -------- ----- --- ------ ----- --<br>----- ----- ---------- --- --- ------ ------ ---- -- ------<br>------- --- ------ ----- --- ---- ------- -- ---- --- --<br>------- ------,175305.73500000173,175305.23000001267,175033.564,175041.78500000853,175050.18,175317.068,,6,secured
screen,html.Screen,2_1_1_1_7,2021-04-30T15:39:15.163Z,,,,,,,,,,,,,,,,,54,,,,,,,,,,,,,,404.2020000090997,,response,,,,100,,,,,,,Space,keypress(Space),,,,,,,,-- --- ---- --- ------ ----- ------- much -- --- ------- --<br>------- ---------- ------ -- ----- -- ----- -- ---- ------<br>--- ----- --- --- ------ -------- ----- --- ------ ----- --<br>----- ----- ---------- --- --- ------ ------ ---- -- ------<br>------- --- ------ ----- --- ---- ------- -- ---- --- --<br>------- ------,175721.73000000475,175721.2700000091,175300.387,175305.8549999987,175317.068,175734.144,,7,much
screen,html.Screen,2_1_1_1_8,2021-04-30T15:39:15.427Z,,,,,,,,,,,,,,,,,54,,,,,,,,,,,,,,250.99100000990438,,response,,,,100,,,,,,,Space,keypress(Space),,,,,,,,-- --- ---- --- ------ ----- ------- ---- of --- ------- --<br>------- ---------- ------ -- ----- -- ----- -- ---- ------<br>--- ----- --- --- ------ -------- ----- --- ------ ----- --<br>----- ----- ---------- --- --- ------ ------ ---- -- ------<br>------- --- ------ ----- --- ---- ------- -- ---- --- --<br>------- ------,175985.65500001132,175985.1350000099,175717.651,175721.8150000117,175734.144,176001.341,,8,of
screen,html.Screen,2_1_1_1_9,2021-04-30T15:39:15.715Z,,,,,,,,,,,,,,,,,54,,,,,,,,,,,,,,271.77400000361376,,response,,,,100,,,,,,,Space,keypress(Space),,,,,,,,-- --- ---- --- ------ ----- ------- ---- -- its ------- --<br>------- ---------- ------ -- ----- -- ----- -- ---- ------<br>--- ----- --- --- ------ -------- ----- --- ------ ----- --<br>----- ----- ---------- --- --- ------ ------ ---- -- ------<br>------- --- ------ ----- --- ---- ------- -- ---- --- --<br>------- ------,176273.61000000383,176273.1150000036,175984.628,175985.7350000093,176001.341,176284.923,,9,its
screen,html.Screen,2_1_1_1_10,2021-04-30T15:39:15.923Z,,,,,,,,,,,,,,,,,54,,,,,,,,,,,,,,196.002000010747,,response,,,,100,,,,,,,Space,keypress(Space),,,,,,,,-- --- ---- --- ------ ----- ------- ---- -- --- revenue --<br>------- ---------- ------ -- ----- -- ----- -- ---- ------<br>--- ----- --- --- ------ -------- ----- --- ------ ----- --<br>----- ----- ---------- --- --- ------ ------ ---- -- ------<br>------- --- ------ ----- --- ---- ------- -- ---- --- --<br>------- ------,176481.42000001098,176480.92500001076,176268.266,176273.7000000052,176284.923,176485.01,,10,revenue
screen,html.Screen,2_1_1_1_11,2021-04-30T15:39:16.155Z,,,,,,,,,,,,,,,,,54,,,,,,,,,,,,,,228.26500000187661,,response,,,,100,,,,,,,Space,keypress(Space),,,,,,,,-- --- ---- --- ------ ----- ------- ---- -- --- ------- by<br>------- ---------- ------ -- ----- -- ----- -- ---- ------<br>--- ----- --- --- ------ -------- ----- --- ------ ----- --<br>----- ----- ---------- --- --- ------ ------ ---- -- ------<br>------- --- ------ ----- --- ---- ------- -- ---- --- --<br>------- ------,176713.7650000077,176713.2750000019,176468.308,176481.51000001235,176485.01,176718.668,,11,by
screen,html.Screen,2_1_1_1_12,2021-04-30T15:39:16.419Z,,,,,,,,,,,,,,,,,54,,,,,,,,,,,,,,258.35200000571785,,response,,,,100,,,,,,,Space,keypress(Space),,,,,,,,-- --- ---- --- ------ ----- ------- ---- -- --- ------- --<br>issuing ---------- ------ -- ----- -- ----- -- ---- ------<br>--- ----- --- --- ------ -------- ----- --- ------ ----- --<br>----- ----- ---------- --- --- ------ ------ ---- -- ------<br>------- --- ------ ----- --- ---- ------- -- ---- --- --<br>------- ------,176977.53000000375,176977.02000000572,176701.927,176713.8500000001,176718.668,176985.634,,12,issuing
screen,html.Screen,2_1_1_1_13,2021-04-30T15:39:16.627Z,,,,,,,,,,,,,,,,,54,,,,,,,,,,,,,,199.6460000051593,,response,,,,100,,,,,,,Space,keypress(Space),,,,,,,,-- --- ---- --- ------ ----- ------- ---- -- --- ------- --<br>------- government ------ -- ----- -- ----- -- ---- ------<br>--- ----- --- --- ------ -------- ----- --- ------ ----- --<br>----- ----- ---------- --- --- ------ ------ ---- -- ------<br>------- --- ------ ----- --- ---- ------- -- ---- --- --<br>------- ------,177185.81500000437,177185.28000000515,176968.885,176977.6150000107,176985.634,177202.667,,13,government
screen,html.Screen,2_1_1_1_14,2021-04-30T15:39:16.787Z,,,,,,,,,,,,,,,,,54,,,,,,,,,,,,,,142.61300000865594,,response,,,,100,,,,,,,Space,keypress(Space),,,,,,,,-- --- ---- --- ------ ----- ------- ---- -- --- ------- --<br>------- ---------- bonds. -- ----- -- ----- -- ---- ------<br>--- ----- --- --- ------ -------- ----- --- ------ ----- --<br>----- ----- ---------- --- --- ------ ------ ---- -- ------<br>------- --- ------ ----- --- ---- ------- -- ---- --- --<br>------- ------,177345.7400000043,177345.28000000864,177185.777,177185.94999999914,177202.667,177352.779,,14,bonds.
screen,html.Screen,2_1_1_1_15,2021-04-30T15:39:17.547Z,,,,,,,,,,,,,,,,,54,,,,,,,,,,,,,,752.3060000028636,,response,,,,100,,,,,,,Space,keypress(Space),,,,,,,,-- --- ---- --- ------ ----- ------- ---- -- --- ------- --<br>------- ---------- ------ In ----- -- ----- -- ---- ------<br>--- ----- --- --- ------ -------- ----- --- ------ ----- --<br>----- ----- ---------- --- --- ------ ------ ---- -- ------<br>------- --- ------ ----- --- ---- ------- -- ---- --- --<br>------- ------,178105.58500001207,178105.08500000287,177336.076,177345.83000000566,177352.779,178120.219,,15,In
screen,html.Screen,2_1_1_1_16,2021-04-30T15:39:17.787Z,,,,,,,,,,,,,,,,,54,,,,,,,,,,,,,,225.08600000981824,,response,,,,100,,,,,,,Space,keypress(Space),,,,,,,,"-- --- ---- --- ------ ----- ------- ---- -- --- ------- --<br>------- ---------- ------ -- 1727, -- ----- -- ---- ------<br>--- ----- --- --- ------ -------- ----- --- ------ ----- --<br>----- ----- ---------- --- --- ------ ------ ---- -- ------<br>------- --- ------ ----- --- ---- ------- -- ---- --- --<br>------- ------",178345.7800000033,178345.30500000983,178103.553,178105.68000000785,178120.219,178353.803,,16,"1727,"
screen,html.Screen,2_1_1_1_17,2021-04-30T15:39:18.323Z,,,,,,,,,,,,,,,,,54,,,,,,,,,,,,,,527.4970000081812,,response,,,,100,,,,,,,Space,keypress(Space),,,,,,,,-- --- ---- --- ------ ----- ------- ---- -- --- ------- --<br>------- ---------- ------ -- ----- in ----- -- ---- ------<br>--- ----- --- --- ------ -------- ----- --- ------ ----- --<br>----- ----- ---------- --- --- ------ ------ ---- -- ------<br>------- --- ------ ----- --- ---- ------- -- ---- --- --<br>------- ------,178881.78000001062,178881.3000000082,178337.145,178345.86500001024,178353.803,178887.727,,17,in
screen,html.Screen,2_1_1_1_18,2021-04-30T15:39:18.883Z,,,,,,,,,,,,,,,,,54,,,,,,,,,,,,,,553.3030000017607,,response,,,,100,,,,,,,Space,keypress(Space),,,,,,,,-- --- ---- --- ------ ----- ------- ---- -- --- ------- --<br>------- ---------- ------ -- ----- -- order -- ---- ------<br>--- ----- --- --- ------ -------- ----- --- ------ ----- --<br>----- ----- ---------- --- --- ------ ------ ---- -- ------<br>------- --- ------ ----- --- ---- ------- -- ---- --- --<br>------- ------,179441.51499999862,179441.03000000177,178870.98,178881.86500000302,178887.727,179454.976,,18,order
screen,html.Screen,2_1_1_1_19,2021-04-30T15:39:19.203Z,,,,,,,,,,,,,,,,,54,,,,,,,,,,,,,,306.28900000828435,,response,,,,100,,,,,,,Space,keypress(Space),,,,,,,,-- --- ---- --- ------ ----- ------- ---- -- --- ------- --<br>------- ---------- ------ -- ----- -- ----- to ---- ------<br>--- ----- --- --- ------ -------- ----- --- ------ ----- --<br>----- ----- ---------- --- --- ------ ------ ---- -- ------<br>------- --- ------ ----- --- ---- ------- -- ---- --- --<br>------- ------,179761.75499999954,179761.26500000828,179438.284,179441.60000000556,179454.976,179771.991,,19,to
screen,html.Screen,2_1_1_1_20,2021-04-30T15:39:19.515Z,,,,,,,,,,,,,,,,,54,,,,,,,,,,,,,,301.30400000922964,,response,,,,100,,,,,,,Space,keypress(Space),,,,,,,,-- --- ---- --- ------ ----- ------- ---- -- --- ------- --<br>------- ---------- ------ -- ----- -- ----- -- save ------<br>--- ----- --- --- ------ -------- ----- --- ------ ----- --<br>----- ----- ---------- --- --- ------ ------ ---- -- ------<br>------- --- ------ ----- --- ---- ------- -- ---- --- --<br>------- ------,180073.7700000027,180073.29500000924,179755.295,179761.8400000065,179771.991,180089.154,,20,save
screen,html.Screen,2_1_1_1_21,2021-04-30T15:39:19.851Z,,,,,,,,,,,,,,,,,54,,,,,,,,,,,,,,319.8760000097973,,response,,,,100,,,,,,,Space,keypress(Space),,,,,,,,"-- --- ---- --- ------ ----- ------- ---- -- --- ------- --<br>------- ---------- ------ -- ----- -- ----- -- ---- money,<br>--- ----- --- --- ------ -------- ----- --- ------ ----- --<br>----- ----- ---------- --- --- ------ ------ ---- -- ------<br>------- --- ------ ----- --- ---- ------- -- ---- --- --<br>------- ------",180409.52500001004,180409.0300000098,180072.445,180073.85500000964,180089.154,180422.712,,21,"money,"
screen,html.Screen,2_1_1_1_22,2021-04-30T15:39:20.395Z,,,,,,,,,,,,,,,,,54,,,,,,,,,,,,,,530.6479999995208,,response,,,,100,,,,,,,Space,keypress(Space),,,,,,,,-- --- ---- --- ------ ----- ------- ---- -- --- ------- --<br>------- ---------- ------ -- ----- -- ----- -- ---- ------<br>the ----- --- --- ------ -------- ----- --- ------ ----- --<br>----- ----- ---------- --- --- ------ ------ ---- -- ------<br>------- --- ------ ----- --- ---- ------- -- ---- --- --<br>------- ------,180953.85000000533,180953.35999999952,180406.073,180409.61000000243,180422.712,180956.616,,22,the
screen,html.Screen,2_1_1_1_23,2021-04-30T15:39:20.659Z,,,,,,,,,,,,,,,,,54,,,,,,,,,,,,,,260.56400000691065,,response,,,,100,,,,,,,Space,keypress(Space),,,,,,,,-- --- ---- --- ------ ----- ------- ---- -- --- ------- --<br>------- ---------- ------ -- ----- -- ----- -- ---- ------<br>--- state --- --- ------ -------- ----- --- ------ ----- --<br>----- ----- ---------- --- --- ------ ------ ---- -- ------<br>------- --- ------ ----- --- ---- ------- -- ---- --- --<br>------- ------,181217.68500001053,181217.18000000692,180939.909,180953.93500001228,180956.616,181223.726,,23,state
screen,html.Screen,2_1_1_1_24,2021-04-30T15:39:20.883Z,,,,,,,,,,,,,,,,,54,,,,,,,,,,,,,,217.3839999997581,,response,,,,100,,,,,,,Space,keypress(Space),,,,,,,,-- --- ---- --- ------ ----- ------- ---- -- --- ------- --<br>------- ---------- ------ -- ----- -- ----- -- ---- ------<br>--- ----- cut --- ------ -------- ----- --- ------ ----- --<br>----- ----- ---------- --- --- ------ ------ ---- -- ------<br>------- --- ------ ----- --- ---- ------- -- ---- --- --<br>------- ------,181441.61000000895,181441.10999999975,181206.903,181217.77000000293,181223.726,181457.192,,24,cut
screen,html.Screen,2_1_1_1_25,2021-04-30T15:39:21.123Z,,,,,,,,,,,,,,,,,54,,,,,,,,,,,,,,224.1230000088981,,response,,,,100,,,,,,,Space,keypress(Space),,,,,,,,-- --- ---- --- ------ ----- ------- ---- -- --- ------- --<br>------- ---------- ------ -- ----- -- ----- -- ---- ------<br>--- ----- --- the ------ -------- ----- --- ------ ----- --<br>----- ----- ---------- --- --- ------ ------ ---- -- ------<br>------- --- ------ ----- --- ---- ------- -- ---- --- --<br>------- ------,181681.81500000355,181681.3150000089,181440.604,181441.69500000135,181457.192,181690.768,,25,the
screen,html.Screen,2_1_1_1_26,2021-04-30T15:39:21.419Z,,,,,,,,,,,,,,,,,54,,,,,,,,,,,,,,286.4269999994722,,response,,,,100,,,,,,,Space,keypress(Space),,,,,,,,-- --- ---- --- ------ ----- ------- ---- -- --- ------- --<br>------- ---------- ------ -- ----- -- ----- -- ---- ------<br>--- ----- --- --- bonds' -------- ----- --- ------ ----- --<br>----- ----- ---------- --- --- ------ ------ ---- -- ------<br>------- --- ------ ----- --- ---- ------- -- ---- --- --<br>------- ------,181977.7000000031,181977.19499999948,181674.234,181681.9000000105,181690.768,181991.11,,26,bonds'
screen,html.Screen,2_1_1_1_27,2021-04-30T15:39:21.859Z,,,,,,,,,,,,,,,,,54,,,,,,,,,,,,,,426.1200000063982,,response,,,,100,,,,,,,Space,keypress(Space),,,,,,,,-- --- ---- --- ------ ----- ------- ---- -- --- ------- --<br>------- ---------- ------ -- ----- -- ----- -- ---- ------<br>--- ----- --- --- ------ interest ----- --- ------ ----- --<br>----- ----- ---------- --- --- ------ ------ ---- -- ------<br>------- --- ------ ----- --- ---- ------- -- ---- --- --<br>------- ------,182417.73500001,182417.23000000638,181974.426,181977.79000000446,181991.11,182425.03,,27,interest
screen,html.Screen,2_1_1_1_28,2021-04-30T15:39:22.195Z,,,,,,,,,,,,,,,,,54,,,,,,,,,,,,,,328.24000000106753,,response,,,,100,,,,,,,Space,keypress(Space),,,,,,,,-- --- ---- --- ------ ----- ------- ---- -- --- ------- --<br>------- ---------- ------ -- ----- -- ----- -- ---- ------<br>--- ----- --- --- ------ -------- rate. --- ------ ----- --<br>----- ----- ---------- --- --- ------ ------ ---- -- ------<br>------- --- ------ ----- --- ---- ------- -- ---- --- --<br>------- ------,182753.7650000013,182753.27000000107,182408.177,182417.82500001136,182425.03,182758.652,,28,rate.
screen,html.Screen,2_1_1_1_29,2021-04-30T15:39:22.707Z,,,,,,,,,,,,,,,,,54,,,,,,,,,,,,,,506.4980000065407,,response,,,,100,,,,,,,Space,keypress(Space),,,,,,,,-- --- ---- --- ------ ----- ------- ---- -- --- ------- --<br>------- ---------- ------ -- ----- -- ----- -- ---- ------<br>--- ----- --- --- ------ -------- ----- The ------ ----- --<br>----- ----- ---------- --- --- ------ ------ ---- -- ------<br>------- --- ------ ----- --- ---- ------- -- ---- --- --<br>------- ------,183265.61500001117,183265.15000000654,182742.002,182753.85500000266,182758.652,183275.993,,29,The
screen,html.Screen,2_1_1_1_30,2021-04-30T15:39:23.035Z,,,,,,,,,,,,,,,,,54,,,,,,,,,,,,,,317.3170000111277,,response,,,,100,,,,,,,Space,keypress(Space),,,,,,,,-- --- ---- --- ------ ----- ------- ---- -- --- ------- --<br>------- ---------- ------ -- ----- -- ----- -- ---- ------<br>--- ----- --- --- ------ -------- ----- --- market ----- --<br>----- ----- ---------- --- --- ------ ------ ---- -- ------<br>------- --- ------ ----- --- ---- ------- -- ---- --- --<br>------- ------,183593.82000000915,183593.31000001112,183259.217,183265.70500001253,183275.993,183609.682,,30,market
screen,html.Screen,2_1_1_1_31,2021-04-30T15:39:23.444Z,,,,,,,,,,,,,,,,,54,,,,,,,,,,,,,,392.538000009401,,response,,,,100,,,,,,,Space,keypress(Space),,,,,,,,-- --- ---- --- ------ ----- ------- ---- -- --- ------- --<br>------- ---------- ------ -- ----- -- ----- -- ---- ------<br>--- ----- --- --- ------ -------- ----- --- ------ value --<br>----- ----- ---------- --- --- ------ ------ ---- -- ------<br>------- --- ------ ----- --- ---- ------- -- ---- --- --<br>------- ------,184002.78999999864,184002.2200000094,183592.996,183593.90500000154,183609.682,184010.089,,31,value
screen,html.Screen,2_1_1_1_32,2021-04-30T15:39:23.811Z,,,,,,,,,,,,,,,,,54,,,,,,,,,,,,,,359.2160000001604,,response,,,,100,,,,,,,Space,keypress(Space),,,,,,,,-- --- ---- --- ------ ----- ------- ---- -- --- ------- --<br>------- ---------- ------ -- ----- -- ----- -- ---- ------<br>--- ----- --- --- ------ -------- ----- --- ------ ----- of<br>----- ----- ---------- --- --- ------ ------ ---- -- ------<br>------- --- ------ ----- --- ---- ------- -- ---- --- --<br>------- ------,184369.81500001275,184369.30500000017,183993.311,184002.9050000012,184010.089,184376.989,,32,of
screen,html.Screen,2_1_1_1_33,2021-04-30T15:39:24.075Z,,,,,,,,,,,,,,,,,54,,,,,,,,,,,,,,256.3259999991278,,response,,,,100,,,,,,,Space,keypress(Space),,,,,,,,-- --- ---- --- ------ ----- ------- ---- -- --- ------- --<br>------- ---------- ------ -- ----- -- ----- -- ---- ------<br>--- ----- --- --- ------ -------- ----- --- ------ ----- --<br>these ----- ---------- --- --- ------ ------ ---- -- ------<br>------- --- ------ ----- --- ---- ------- -- ---- --- --<br>------- ------,184634.00000000547,184633.31499999913,184360.513,184369.90499999956,184376.989,184644.13,,33,these
screen,html.Screen,2_1_1_1_34,2021-04-30T15:39:24.339Z,,,,,,,,,,,,,,,,,54,,,,,,,,,,,,,,252.83000001276378,,response,,,,100,,,,,,,Space,keypress(Space),,,,,,,,-- --- ---- --- ------ ----- ------- ---- -- --- ------- --<br>------- ---------- ------ -- ----- -- ----- -- ---- ------<br>--- ----- --- --- ------ -------- ----- --- ------ ----- --<br>----- bonds ---------- --- --- ------ ------ ---- -- ------<br>------- --- ------ ----- --- ---- ------- -- ---- --- --<br>------- ------,184897.5000000064,184896.96000001277,184627.495,184634.12000000244,184644.13,184910.957,,34,bonds
screen,html.Screen,2_1_1_1_35,2021-04-30T15:39:24.763Z,,,,,,,,,,,,,,,,,54,,,,,,,,,,,,,,410.35800000833115,,response,,,,100,,,,,,,Space,keypress(Space),,,,,,,,"-- --- ---- --- ------ ----- ------- ---- -- --- ------- --<br>------- ---------- ------ -- ----- -- ----- -- ---- ------<br>--- ----- --- --- ------ -------- ----- --- ------ ----- --<br>----- ----- plummeted, --- --- ------ ------ ---- -- ------<br>------- --- ------ ----- --- ---- ------- -- ---- --- --<br>------- ------",185321.82500000636,185321.31500000833,184894.364,184897.5849999988,184910.957,185328.17,,35,"plummeted,"
screen,html.Screen,2_1_1_1_36,2021-04-30T15:39:25.267Z,,,,,,,,,,,,,,,,,54,,,,,,,,,,,,,,496.9050000006391,,response,,,,100,,,,,,,Space,keypress(Space),,,,,,,,-- --- ---- --- ------ ----- ------- ---- -- --- ------- --<br>------- ---------- ------ -- ----- -- ----- -- ---- ------<br>--- ----- --- --- ------ -------- ----- --- ------ ----- --<br>----- ----- ---------- and --- ------ ------ ---- -- ------<br>------- --- ------ ----- --- ---- ------- -- ---- --- --<br>------- ------,185825.55500000308,185825.07500000065,185311.455,185321.90999999875,185328.17,185828.719,,36,and
screen,html.Screen,2_1_1_1_37,2021-04-30T15:39:25.523Z,,,,,,,,,,,,,,,,,54,,,,,,,,,,,,,,252.41600000034668,,response,,,,100,,,,,,,Space,keypress(Space),,,,,,,,-- --- ---- --- ------ ----- ------- ---- -- --- ------- --<br>------- ---------- ------ -- ----- -- ----- -- ---- ------<br>--- ----- --- --- ------ -------- ----- --- ------ ----- --<br>----- ----- ---------- --- the ------ ------ ---- -- ------<br>------- --- ------ ----- --- ---- ------- -- ---- --- --<br>------- ------,186081.64000000397,186081.13500000036,185811.975,185825.64000001003,185828.719,186095.751,,37,the
screen,html.Screen,2_1_1_1_38,2021-04-30T15:39:25.883Z,,,,,,,,,,,,,,,,,54,,,,,,,,,,,,,,345.47400000231573,,response,,,,100,,,,,,,Space,keypress(Space),,,,,,,,-- --- ---- --- ------ ----- ------- ---- -- --- ------- --<br>------- ---------- ------ -- ----- -- ----- -- ---- ------<br>--- ----- --- --- ------ -------- ----- --- ------ ----- --<br>----- ----- ---------- --- --- market ------ ---- -- ------<br>------- --- ------ ----- --- ---- ------- -- ---- --- --<br>------- ------,186441.72000000253,186441.2250000023,186078.947,186081.72500001092,186095.751,186446.034,,38,market
screen,html.Screen,2_1_1_1_39,2021-04-30T15:39:26.203Z,,,,,,,,,,,,,,,,,54,,,,,,,,,,,,,,315.00600001213024,,response,,,,100,,,,,,,Space,keypress(Space),,,,,,,,-- --- ---- --- ------ ----- ------- ---- -- --- ------- --<br>------- ---------- ------ -- ----- -- ----- -- ---- ------<br>--- ----- --- --- ------ -------- ----- --- ------ ----- --<br>----- ----- ---------- --- --- ------ became ---- -- ------<br>------- --- ------ ----- --- ---- ------- -- ---- --- --<br>------- ------,186761.55000001017,186761.04000001214,186429.321,186441.80500000948,186446.034,186762.96,,39,became
screen,html.Screen,2_1_1_1_40,2021-04-30T15:39:26.500Z,,,,,,,,,,,,,,,,,54,,,,,,,,,,,,,,294.6100000044971,,response,,,,100,,,,,,,Space,keypress(Space),,,,,,,,-- --- ---- --- ------ ----- ------- ---- -- --- ------- --<br>------- ---------- ------ -- ----- -- ----- -- ---- ------<br>--- ----- --- --- ------ -------- ----- --- ------ ----- --<br>----- ----- ---------- --- --- ------ ------ wary -- ------<br>------- --- ------ ----- --- ---- ------- -- ---- --- --<br>------- ------,187058.1150000071,187057.5700000045,186746.486,186761.64000001154,186762.96,187063.426,,40,wary
screen,html.Screen,2_1_1_1_41,2021-04-30T15:39:26.779Z,,,,,,,,,,,,,,,,,54,,,,,,,,,,,,,,273.80400000463123,,response,,,,100,,,,,,,Space,keypress(Space),,,,,,,,-- --- ---- --- ------ ----- ------- ---- -- --- ------- --<br>------- ---------- ------ -- ----- -- ----- -- ---- ------<br>--- ----- --- --- ------ -------- ----- --- ------ ----- --<br>----- ----- ---------- --- --- ------ ------ ---- of ------<br>------- --- ------ ----- --- ---- ------- -- ---- --- --<br>------- ------,187337.73500000825,187337.23000000464,187046.887,187058.19000001065,187063.426,187347.008,,41,of
screen,html.Screen,2_1_1_1_42,2021-04-30T15:39:27.147Z,,,,,,,,,,,,,,,,,54,,,,,,,,,,,,,,358.22200000684825,,response,,,,100,,,,,,,Space,keypress(Space),,,,,,,,-- --- ---- --- ------ ----- ------- ---- -- --- ------- --<br>------- ---------- ------ -- ----- -- ----- -- ---- ------<br>--- ----- --- --- ------ -------- ----- --- ------ ----- --<br>----- ----- ---------- --- --- ------ ------ ---- -- French<br>------- --- ------ ----- --- ---- ------- -- ---- --- --<br>------- ------,187705.6900000025,187705.23000000685,187330.402,187337.82000000065,187347.008,187714.207,,42,French
screen,html.Screen,2_1_1_1_43,2021-04-30T15:39:27.411Z,,,,,,,,,,,,,,,,,54,,,,,,,,,,,,,,254.91800000326475,,response,,,,100,,,,,,,Space,keypress(Space),,,,,,,,-- --- ---- --- ------ ----- ------- ---- -- --- ------- --<br>------- ---------- ------ -- ----- -- ----- -- ---- ------<br>--- ----- --- --- ------ -------- ----- --- ------ ----- --<br>----- ----- ---------- --- --- ------ ------ ---- -- ------<br>credit. --- ------ ----- --- ---- ------- -- ---- --- --<br>------- ------,187969.6499999991,187969.12500000326,187697.399,187705.77000000048,187714.207,187981.008,,43,credit.
screen,html.Screen,2_1_1_1_44,2021-04-30T15:39:27.859Z,,,,,,,,,,,,,,,,,54,,,,,,,,,,,,,,436.21200000299723,,response,,,,100,,,,,,,Space,keypress(Space),,,,,,,,-- --- ---- --- ------ ----- ------- ---- -- --- ------- --<br>------- ---------- ------ -- ----- -- ----- -- ---- ------<br>--- ----- --- --- ------ -------- ----- --- ------ ----- --<br>----- ----- ---------- --- --- ------ ------ ---- -- ------<br>------- The ------ ----- --- ---- ------- -- ---- --- --<br>------- ------,188417.7200000122,188417.220000003,187964.471,187969.74000000046,187981.008,188431.595,,44,The
screen,html.Screen,2_1_1_1_45,2021-04-30T15:39:28.115Z,,,,,,,,,,,,,,,,,54,,,,,,,,,,,,,,241.70500000947504,,response,,,,100,,,,,,,Space,keypress(Space),,,,,,,,-- --- ---- --- ------ ----- ------- ---- -- --- ------- --<br>------- ---------- ------ -- ----- -- ----- -- ---- ------<br>--- ----- --- --- ------ -------- ----- --- ------ ----- --<br>----- ----- ---------- --- --- ------ ------ ---- -- ------<br>------- --- French ----- --- ---- ------- -- ---- --- --<br>------- ------,188673.80000000412,188673.30000000948,188414.849,188417.80000001017,188431.595,188681.803,,45,French
screen,html.Screen,2_1_1_1_46,2021-04-30T15:39:28.459Z,,,,,,,,,,,,,,,,,54,,,,,,,,,,,,,,335.1970000070869,,response,,,,100,,,,,,,Space,keypress(Space),,,,,,,,-- --- ---- --- ------ ----- ------- ---- -- --- ------- --<br>------- ---------- ------ -- ----- -- ----- -- ---- ------<br>--- ----- --- --- ------ -------- ----- --- ------ ----- --<br>----- ----- ---------- --- --- ------ ------ ---- -- ------<br>------- --- ------ state --- ---- ------- -- ---- --- --<br>------- ------,189017.48500000394,189017.0000000071,188665.093,188673.88500001107,188681.803,189032.211,,46,state
screen,html.Screen,2_1_1_1_47,2021-04-30T15:39:28.779Z,,,,,,,,,,,,,,,,,54,,,,,,,,,,,,,,304.89399999869056,,response,,,,100,,,,,,,Space,keypress(Space),,,,,,,,-- --- ---- --- ------ ----- ------- ---- -- --- ------- --<br>------- ---------- ------ -- ----- -- ----- -- ---- ------<br>--- ----- --- --- ------ -------- ----- --- ------ ----- --<br>----- ----- ---------- --- --- ------ ------ ---- -- ------<br>------- --- ------ ----- was ---- ------- -- ---- --- --<br>------- ------,189337.59999999893,189337.1049999987,189015.497,189017.57999999973,189032.211,189349.311,,47,was
screen,html.Screen,2_1_1_1_48,2021-04-30T15:39:29.083Z,,,,,,,,,,,,,,,,,54,,,,,,,,,,,,,,292.0439999997616,,response,,,,100,,,,,,,Space,keypress(Space),,,,,,,,-- --- ---- --- ------ ----- ------- ---- -- --- ------- --<br>------- ---------- ------ -- ----- -- ----- -- ---- ------<br>--- ----- --- --- ------ -------- ----- --- ------ ----- --<br>----- ----- ---------- --- --- ------ ------ ---- -- ------<br>------- --- ------ ----- --- left ------- -- ---- --- --<br>------- ------,189641.84500000556,189641.35499999975,189332.459,189337.68500000588,189349.311,189649.585,,48,left
screen,html.Screen,2_1_1_1_49,2021-04-30T15:39:29.459Z,,,,,,,,,,,,,,,,,54,,,,,,,,,,,,,,367.5900000008696,,response,,,,100,,,,,,,Space,keypress(Space),,,,,,,,-- --- ---- --- ------ ----- ------- ---- -- --- ------- --<br>------- ---------- ------ -- ----- -- ----- -- ---- ------<br>--- ----- --- --- ------ -------- ----- --- ------ ----- --<br>----- ----- ---------- --- --- ------ ------ ---- -- ------<br>------- --- ------ ----- --- ---- without -- ---- --- --<br>------- ------,190017.63500001107,190017.17500000086,189632.861,189641.93500000692,189649.585,190033.445,,49,without
screen,html.Screen,2_1_1_1_50,2021-04-30T15:39:29.803Z,,,,,,,,,,,,,,,,,54,,,,,,,,,,,,,,327.4299999984796,,response,,,,100,,,,,,,Space,keypress(Space),,,,,,,,-- --- ---- --- ------ ----- ------- ---- -- --- ------- --<br>------- ---------- ------ -- ----- -- ----- -- ---- ------<br>--- ----- --- --- ------ -------- ----- --- ------ ----- --<br>----- ----- ---------- --- --- ------ ------ ---- -- ------<br>------- --- ------ ----- --- ---- ------- an ---- --- --<br>------- ------,190361.58500000602,190360.8749999985,190016.776,190017.72000000346,190033.445,190366.949,,50,an
screen,html.Screen,2_1_1_1_51,2021-04-30T15:39:30.067Z,,,,,,,,,,,,,,,,,54,,,,,,,,,,,,,,258.36100000308943,,response,,,,100,,,,,,,Space,keypress(Space),,,,,,,,-- --- ---- --- ------ ----- ------- ---- -- --- ------- --<br>------- ---------- ------ -- ----- -- ----- -- ---- ------<br>--- ----- --- --- ------ -------- ----- --- ------ ----- --<br>----- ----- ---------- --- --- ------ ------ ---- -- ------<br>------- --- ------ ----- --- ---- ------- -- easy --- --<br>------- ------,190625.81000001228,190625.31000000308,190350.494,190361.66000000958,190366.949,190634.031,,51,easy
screen,html.Screen,2_1_1_1_52,2021-04-30T15:39:30.275Z,,,,,,,,,,,,,,,,,54,,,,,,,,,,,,,,199.31400000638678,,response,,,,100,,,,,,,Space,keypress(Space),,,,,,,,-- --- ---- --- ------ ----- ------- ---- -- --- ------- --<br>------- ---------- ------ -- ----- -- ----- -- ---- ------<br>--- ----- --- --- ------ -------- ----- --- ------ ----- --<br>----- ----- ---------- --- --- ------ ------ ---- -- ------<br>------- --- ------ ----- --- ---- ------- -- ---- way --<br>------- ------,190833.8350000122,190833.34500000637,190617.245,190625.89500000468,190634.031,190867.505,,52,way
screen,html.Screen,2_1_1_1_53,2021-04-30T15:39:30.643Z,,,,,,,,,,,,,,,,,54,,,,,,,,,,,,,,333.89999999979045,,response,,,,100,,,,,,,Space,keypress(Space),,,,,,,,-- --- ---- --- ------ ----- ------- ---- -- --- ------- --<br>------- ---------- ------ -- ----- -- ----- -- ---- ------<br>--- ----- --- --- ------ -------- ----- --- ------ ----- --<br>----- ----- ---------- --- --- ------ ------ ---- -- ------<br>------- --- ------ ----- --- ---- ------- -- ---- --- of<br>------- ------,191201.9200000068,191201.4049999998,190850.872,190833.91500001017,190867.505,191218.071,,53,of
screen,html.Screen,2_1_1_1_54,2021-04-30T15:39:31.012Z,,,,,,,,,,,,,,,,,54,,,,,,,,,,,,,,352.3139999990817,,response,,,,100,,,,,,,Space,keypress(Space),,,,,,,,-- --- ---- --- ------ ----- ------- ---- -- --- ------- --<br>------- ---------- ------ -- ----- -- ----- -- ---- ------<br>--- ----- --- --- ------ -------- ----- --- ------ ----- --<br>----- ----- ---------- --- --- ------ ------ ---- -- ------<br>------- --- ------ ----- --- ---- ------- -- ---- --- --<br>raising ------,191570.95000000845,191570.38499999908,191201.38,191202.01000000816,191218.071,191601.679,,54,raising
screen,html.Screen,2_1_1_1_55,2021-04-30T15:39:31.451Z,,,,,,,,,,,,,,,,,54,,,,,,,,,,,,,,407.2510000108741,,response,,,,100,,,,,,,Space,keypress(Space),,,,,,,,-- --- ---- --- ------ ----- ------- ---- -- --- ------- --<br>------- ---------- ------ -- ----- -- ----- -- ---- ------<br>--- ----- --- --- ------ -------- ----- --- ------ ----- --<br>----- ----- ---------- --- --- ------ ------ ---- -- ------<br>------- --- ------ ----- --- ---- ------- -- ---- --- --<br>------- money.,192009.43000000552,192008.93000001088,191585.036,191571.07000000542,191601.679,192018.802,,55,money.
Item 100,flow.Loop,2_1_1_1,2021-04-30T15:39:31.451Z,,,,,,,,,,,,,,,,,,,,,,,,,,,,,,,19094.425000010873,,completion,,,,,B,,,,,,,,,,,silence,,,,,192009.59500001045,192008.93000001088,172897.778,172900.1050000079,172914.505,192018.802,,,
Question 1,html.Screen,2_1_1_2,2021-04-30T15:39:34.028Z,,,,,,,,,,,,,,,,,,,,,,,,,,,,true,TRUE,,2566.4580000071146,,response,,,,100,B,,,,,,TRUE,click #choice-1,,,,silence,,,,,194586.06000000145,194585.2600000071,192002.33,192009.66999999946,192018.802,194588.291,,,
Question 2,html.Screen,2_1_1_3,2021-04-30T15:39:36.204Z,,,,,,,,,,,,,,,,,,,,,,,,,,,,true,FALSE,,2173.264000004594,,response,,,,100,B,,,,,,FALSE,click #choice-2,,,,silence,,,,,196762.29500000773,196761.5550000046,194571.786,194586.1450000084,194588.291,196774.19,,,
Item 100,flow.Sequence,2_1_1,2021-04-30T15:39:36.204Z,,,,,,,,,,,,,,,,,,,,,,,,,,,,,,,33841.45300000458,,completion,,,,,,,,,,,,,,,,,,,,,196762.4050000013,196761.5550000046,162903.526,162913.80000000936,162920.102,196774.19,,,
End of Practice,html.Page,2_1_2,2021-04-30T15:39:41.092Z,,,,,,,,,,,,,,,,,,,,,,,,,,,,,,,4875.645000003802,,form submission,,,,,,,,,,,,,,,,,,,,,201650.11500001128,201649.8350000038,196757.499,196762.49500000267,196774.19,201662.983,,,
Practice,flow.Sequence,2_1,2021-04-30T15:39:41.092Z,,,,,,,,,,,,,,,,,,,,,,,,,,,,,,,80041.98800000381,,completion,,,,,,,,,,,,,,,,,,,,,201650.29499999946,201649.8350000038,121591.218,121602.429999999,121607.847,201662.983,,,
Trap_instruction,html.Page,2_2_0,2021-04-30T15:39:44.779Z,,,,,,,,,,,,,,,,,,,,,,,,,,,,,,,3674.6620000068797,,form submission,,,,,,,,,,,,,,,,,,,,,205337.78500001063,205337.6450000069,201646.231,201650.4350000032,201662.983,205350.11,,,
trap_trial,html.Screen,2_2_1,2021-04-30T15:39:47.811Z,,,,,,,,,,,,,,,,,,,,,,,,,,,,true,1,,3018.5500000073807,,response,,,,,,,,,,,1,click #choice-1,,,,,,,,,208369.43500000052,208368.66000000737,205333.489,205337.85999999964,205350.11,208393.513,,,
end of trap trial,html.Page,2_2_2,2021-04-30T15:39:49.004Z,,,,,,,,,,,,,,,,,,,,,,,,,,,,,,,1168.5870000100986,,form submission,,,,,,,,,,,,,,,,,,,,,209562.2399999993,209562.1000000101,208353.493,208369.56500000088,208393.513,209588.145,,,
Trap 1,flow.Sequence,2_2,2021-04-30T15:39:49.004Z,,,,,,,,,,,,,,,,,,,,,,,,,,,,,,,7899.117000010097,,completion,,,,,,,,,,,,,,,,,,,,,209562.36500000523,209562.1000000101,201646.231,201650.3900000098,201662.983,209588.145,,,
Standby,html.Page,2_3_0,2021-04-30T15:39:57.006Z,,,,,,,,,,,,,,,,,,,,,,,,,,,,,,,7992.15300000002,,timeout,,,,,,,,,,,,,,,,,,,,,217564.2150000058,217563.784,209571.638,209562.4550000066,209588.145,217580.298,,,
Holding screen,html.Screen,2_3_1_0_0,2021-04-30T15:40:04.014Z,,,,,,,,,,,,,,,,,,,,,,,,,,,,,,,7007.899999999994,,timeout,,,,,,,,,,,,,,,,,,,,,224572.17500000843,224571.352,217563.784,217564.3650000129,217580.298,224588.198,,,
screen,html.Screen,2_3_1_0_1_0,2021-04-30T15:40:04.757Z,,,,,,,,,,,,,,,,,15,,,,,,,,,,,,,,726.3320000032836,,response,,,,7,B,,,,,,Space,keypress(Space),,,,lyrical,,,,Greg --------- ---------- - --- ------- -- --- ------------<br>----- -- -------- ------- ---- ------ - -------- ---- -----<br>--- ------- ---- -- --- -------- --- - ----- ------ ---- --<br>-------- --- -------- -------- --- -------- ---- -- ----- -<br>-------- ---- --- ---------- --------- -- ------- ------ -<br>--------- ----- -----,225315.22000000405,225314.5300000033,224571.352,224572.2999999998,224588.198,225338.995,,0,Greg
screen,html.Screen,2_3_1_0_1_1,2021-04-30T15:40:05.075Z,,,,,,,,,,,,,,,,,15,,,,,,,,,,,,,,294.29500001249835,,response,,,,7,B,,,,,,Space,keypress(Space),,,,lyrical,,,,"---- Anderson, ---------- - --- ------- -- --- ------------<br>----- -- -------- ------- ---- ------ - -------- ---- -----<br>--- ------- ---- -- --- -------- --- - ----- ------ ---- --<br>-------- --- -------- -------- --- -------- ---- -- ----- -<br>-------- ---- --- ---------- --------- -- ------- ------ -<br>--------- ----- -----",225633.79000000714,225633.2900000125,225322.185,225315.38500000897,225338.995,225639.259,,1,"Anderson,"
screen,html.Screen,2_3_1_0_1_2,2021-04-30T15:40:05.635Z,,,,,,,,,,,,,,,,,15,,,,,,,,,,,,,,553.9560000066122,,response,,,,7,B,,,,,,Space,keypress(Space),,,,lyrical,,,,---- --------- considered - --- ------- -- --- ------------<br>----- -- -------- ------- ---- ------ - -------- ---- -----<br>--- ------- ---- -- --- -------- --- - ----- ------ ---- --<br>-------- --- -------- -------- --- -------- ---- -- ----- -<br>-------- ---- --- ---------- --------- -- ------- ------ -<br>--------- ----- -----,226193.67000000784,226193.2150000066,225622.516,225633.87499999953,225639.259,226223.285,,2,considered
screen,html.Screen,2_3_1_0_1_3,2021-04-30T15:40:05.924Z,,,,,,,,,,,,,,,,,15,,,,,,,,,,,,,,259.090000006865,,response,,,,7,B,,,,,,Space,keypress(Space),,,,lyrical,,,,---- --------- ---------- a --- ------- -- --- ------------<br>----- -- -------- ------- ---- ------ - -------- ---- -----<br>--- ------- ---- -- --- -------- --- - ----- ------ ---- --<br>-------- --- -------- -------- --- -------- ---- -- ----- -<br>-------- ---- --- ---------- --------- -- ------- ------ -<br>--------- ----- -----,226483.00500000187,226482.37500000687,226206.675,226193.75500000024,226223.285,226506.894,,3,a
screen,html.Screen,2_3_1_0_1_4,2021-04-30T15:40:06.163Z,,,,,,,,,,,,,,,,,15,,,,,,,,,,,,,,214.33600001010927,,response,,,,7,B,,,,,,Space,keypress(Space),,,,lyrical,,,,---- --------- ---------- - key ------- -- --- ------------<br>----- -- -------- ------- ---- ------ - -------- ---- -----<br>--- ------- ---- -- --- -------- --- - ----- ------ ---- --<br>-------- --- -------- -------- --- -------- ---- -- ----- -<br>-------- ---- --- ---------- --------- -- ------- ------ -<br>--------- ----- -----,226721.68500001135,226721.2300000101,226490.244,226483.189999999,226506.894,226723.684,,4,key
screen,html.Screen,2_3_1_0_1_5,2021-04-30T15:40:06.419Z,,,,,,,,,,,,,,,,,15,,,,,,,,,,,,,,253.7810000035679,,response,,,,7,B,,,,,,Space,keypress(Space),,,,lyrical,,,,---- --------- ---------- - --- witness -- --- ------------<br>----- -- -------- ------- ---- ------ - -------- ---- -----<br>--- ------- ---- -- --- -------- --- - ----- ------ ---- --<br>-------- --- -------- -------- --- -------- ---- -- ----- -<br>-------- ---- --- ---------- --------- -- ------- ------ -<br>--------- ----- -----,226977.9150000104,226977.46500000358,226707.041,226721.77000000374,226723.684,226990.754,,5,witness
screen,html.Screen,2_3_1_0_1_6,2021-04-30T15:40:06.699Z,,,,,,,,,,,,,,,,,15,,,,,,,,,,,,,,266.2010000043956,,response,,,,7,B,,,,,,Space,keypress(Space),,,,lyrical,,,,---- --------- ---------- - --- ------- by --- ------------<br>----- -- -------- ------- ---- ------ - -------- ---- -----<br>--- ------- ---- -- --- -------- --- - ----- ------ ---- --<br>-------- --- -------- -------- --- -------- ---- -- ----- -<br>-------- ---- --- ---------- --------- -- ------- ------ -<br>--------- ----- -----,227257.45499999903,227256.95500000438,226974.154,226978.0000000028,226990.754,227291.142,,6,by
screen,html.Screen,2_3_1_0_1_7,2021-04-30T15:40:06.963Z,,,,,,,,,,,,,,,,,15,,,,,,,,,,,,,,230.0230000128504,,response,,,,7,B,,,,,,Space,keypress(Space),,,,lyrical,,,,---- --------- ---------- - --- ------- -- the ------------<br>----- -- -------- ------- ---- ------ - -------- ---- -----<br>--- ------- ---- -- --- -------- --- - ----- ------ ---- --<br>-------- --- -------- -------- --- -------- ---- -- ----- -<br>-------- ---- --- ---------- --------- -- ------- ------ -<br>--------- ----- -----,227521.69000000868,227521.16500001284,227274.341,227257.54000000597,227291.142,227524.555,,7,the
screen,html.Screen,2_3_1_0_1_8,2021-04-30T15:40:07.195Z,,,,,,,,,,,,,,,,,15,,,,,,,,,,,,,,228.62000000529224,,response,,,,7,B,,,,,,Space,keypress(Space),,,,lyrical,,,,"---- --------- ---------- - --- ------- -- --- prosecution,<br>----- -- -------- ------- ---- ------ - -------- ---- -----<br>--- ------- ---- -- --- -------- --- - ----- ------ ---- --<br>-------- --- -------- -------- --- -------- ---- -- ----- -<br>-------- ---- --- ---------- --------- -- ------- ------ -<br>--------- ----- -----",227753.63500000094,227753.17500000529,227507.848,227521.78000001004,227524.555,227758.147,,8,"prosecution,"
screen,html.Screen,2_3_1_0_1_9,2021-04-30T15:40:07.771Z,,,,,,,,,,,,,,,,,15,,,,,,,,,,,,,,570.9880000072299,,response,,,,7,B,,,,,,Space,keypress(Space),,,,lyrical,,,,---- --------- ---------- - --- ------- -- --- ------------<br>vowed -- -------- ------- ---- ------ - -------- ---- -----<br>--- ------- ---- -- --- -------- --- - ----- ------ ---- --<br>-------- --- -------- -------- --- -------- ---- -- ----- -<br>-------- ---- --- ---------- --------- -- ------- ------ -<br>--------- ----- -----,228329.62000000407,228329.13500000723,227741.451,227753.73000001127,227758.147,228342.303,,9,vowed
screen,html.Screen,2_3_1_0_1_10,2021-04-30T15:40:08.003Z,,,,,,,,,,,,,,,,,15,,,,,,,,,,,,,,218.7570000072592,,response,,,,7,B,,,,,,Space,keypress(Space),,,,lyrical,,,,---- --------- ---------- - --- ------- -- --- ------------<br>----- he -------- ------- ---- ------ - -------- ---- -----<br>--- ------- ---- -- --- -------- --- - ----- ------ ---- --<br>-------- --- -------- -------- --- -------- ---- -- ----- -<br>-------- ---- --- ---------- --------- -- ------- ------ -<br>--------- ----- -----,228561.5550000075,228561.06000000727,228325.482,228329.70500001102,228342.303,228575.832,,10,he
screen,html.Screen,2_3_1_0_1_11,2021-04-30T15:40:08.283Z,,,,,,,,,,,,,,,,,15,,,,,,,,,,,,,,265.38300000765594,,response,,,,7,B,,,,,,Space,keypress(Space),,,,lyrical,,,,---- --------- ---------- - --- ------- -- --- ------------<br>----- -- wouldn't ------- ---- ------ - -------- ---- -----<br>--- ------- ---- -- --- -------- --- - ----- ------ ---- --<br>-------- --- -------- -------- --- -------- ---- -- ----- -<br>-------- ---- --- ---------- --------- -- ------- ------ -<br>--------- ----- -----,228841.6900000011,228841.21500000765,228559.246,228561.6399999999,228575.832,228865.683,,11,wouldn't
screen,html.Screen,2_3_1_0_1_12,2021-04-30T15:40:08.539Z,,,,,,,,,,,,,,,,,15,,,,,,,,,,,,,,231.2869999987015,,response,,,,7,B,,,,,,Space,keypress(Space),,,,lyrical,,,,---- --------- ---------- - --- ------- -- --- ------------<br>----- -- -------- testify ---- ------ - -------- ---- -----<br>--- ------- ---- -- --- -------- --- - ----- ------ ---- --<br>-------- --- -------- -------- --- -------- ---- -- ----- -<br>-------- ---- --- ---------- --------- -- ------- ------ -<br>--------- ----- -----,229097.4550000101,229096.9699999987,228826.166,228841.7699999991,228865.683,229109.82,,12,testify
screen,html.Screen,2_3_1_0_1_13,2021-04-30T15:40:08.907Z,,,,,,,,,,,,,,,,,15,,,,,,,,,,,,,,355.19500000885455,,response,,,,7,B,,,,,,Space,keypress(Space),,,,lyrical,,,,---- --------- ---------- - --- ------- -- --- ------------<br>----- -- -------- ------- when ------ - -------- ---- -----<br>--- ------- ---- -- --- -------- --- - ----- ------ ---- --<br>-------- --- -------- -------- --- -------- ---- -- ----- -<br>-------- ---- --- ---------- --------- -- ------- ------ -<br>--------- ----- -----,229465.5100000091,229465.01500000886,229093.204,229097.54500001145,229109.82,229476.703,,13,when
screen,html.Screen,2_3_1_0_1_14,2021-04-30T15:40:09.203Z,,,,,,,,,,,,,,,,,15,,,,,,,,,,,,,,284.36700000774,,response,,,,7,B,,,,,,Space,keypress(Space),,,,lyrical,,,,---- --------- ---------- - --- ------- -- --- ------------<br>----- -- -------- ------- ---- served - -------- ---- -----<br>--- ------- ---- -- --- -------- --- - ----- ------ ---- --<br>-------- --- -------- -------- --- -------- ---- -- ----- -<br>-------- ---- --- ---------- --------- -- ------- ------ -<br>--------- ----- -----,229761.5700000024,229761.07000000775,229460.079,229465.5950000015,229476.703,229777.093,,14,served
screen,html.Screen,2_3_1_0_1_15,2021-04-30T15:40:09.659Z,,,,,,,,,,,,,,,,,15,,,,,,,,,,,,,,439.9320000053849,,response,,,,7,B,,,,,,Space,keypress(Space),,,,lyrical,,,,---- --------- ---------- - --- ------- -- --- ------------<br>----- -- -------- ------- ---- ------ a -------- ---- -----<br>--- ------- ---- -- --- -------- --- - ----- ------ ---- --<br>-------- --- -------- -------- --- -------- ---- -- ----- -<br>-------- ---- --- ---------- --------- -- ------- ------ -<br>--------- ----- -----,230217.5050000078,230217.02500000538,229760.378,229761.65000000037,229777.093,230227.747,,15,a
screen,html.Screen,2_3_1_0_1_16,2021-04-30T15:40:09.955Z,,,,,,,,,,,,,,,,,15,,,,,,,,,,,,,,285.13300000931486,,response,,,,7,B,,,,,,Space,keypress(Space),,,,lyrical,,,,---- --------- ---------- - --- ------- -- --- ------------<br>----- -- -------- ------- ---- ------ - subpoena ---- -----<br>--- ------- ---- -- --- -------- --- - ----- ------ ---- --<br>-------- --- -------- -------- --- -------- ---- -- ----- -<br>-------- ---- --- ---------- --------- -- ------- ------ -<br>--------- ----- -----,230513.37000000058,230512.88000000932,230210.872,230217.5900000002,230227.747,230528.05,,16,subpoena
screen,html.Screen,2_3_1_0_1_17,2021-04-30T15:40:10.403Z,,,,,,,,,,,,,,,,,15,,,,,,,,,,,,,,433.1200000095996,,response,,,,7,B,,,,,,Space,keypress(Space),,,,lyrical,,,,---- --------- ---------- - --- ------- -- --- ------------<br>----- -- -------- ------- ---- ------ - -------- last -----<br>--- ------- ---- -- --- -------- --- - ----- ------ ---- --<br>-------- --- -------- -------- --- -------- ---- -- ----- -<br>-------- ---- --- ---------- --------- -- ------- ------ -<br>--------- ----- -----,230961.66000000085,230961.1700000096,230511.38,230513.45500000753,230528.05,230978.58,,17,last
screen,html.Screen,2_3_1_0_1_18,2021-04-30T15:40:10.691Z,,,,,,,,,,,,,,,,,15,,,,,,,,,,,,,,270.5850000010978,,response,,,,7,B,,,,,,Space,keypress(Space),,,,lyrical,,,,---- --------- ---------- - --- ------- -- --- ------------<br>----- -- -------- ------- ---- ------ - -------- ---- week.<br>--- ------- ---- -- --- -------- --- - ----- ------ ---- --<br>-------- --- -------- -------- --- -------- ---- -- ----- -<br>-------- ---- --- ---------- --------- -- ------- ------ -<br>--------- ----- -----,231249.6450000035,231249.16500000108,230961.713,230961.7750000034,230978.58,231262.205,,18,week.
screen,html.Screen,2_3_1_0_1_19,2021-04-30T15:40:11.755Z,,,,,,,,,,,,,,,,,15,,,,,,,,,,,,,,1050.8750000071886,,response,,,,7,B,,,,,,Space,keypress(Space),,,,lyrical,,,,---- --------- ---------- - --- ------- -- --- ------------<br>----- -- -------- ------- ---- ------ - -------- ---- -----<br>His ------- ---- -- --- -------- --- - ----- ------ ---- --<br>-------- --- -------- -------- --- -------- ---- -- ----- -<br>-------- ---- --- ---------- --------- -- ------- ------ -<br>--------- ----- -----,232313.6150000064,232313.08000000718,231245.509,231249.7250000015,231262.205,232330.051,,19,His
screen,html.Screen,2_3_1_0_1_20,2021-04-30T15:40:11.987Z,,,,,,,,,,,,,,,,,15,,,,,,,,,,,,,,214.78900000228896,,response,,,,7,B,,,,,,Space,keypress(Space),,,,lyrical,,,,---- --------- ---------- - --- ------- -- --- ------------<br>----- -- -------- ------- ---- ------ - -------- ---- -----<br>--- lawyers ---- -- --- -------- --- - ----- ------ ---- --<br>-------- --- -------- -------- --- -------- ---- -- ----- -<br>-------- ---- --- ---------- --------- -- ------- ------ -<br>--------- ----- -----,232545.36500001268,232544.8400000023,232313.364,232313.6999999988,232330.051,232572.854,,20,lawyers
screen,html.Screen,2_3_1_0_1_21,2021-04-30T15:40:12.286Z,,,,,,,,,,,,,,,,,15,,,,,,,,,,,,,,271.18100000190316,,response,,,,7,B,,,,,,Space,keypress(Space),,,,lyrical,,,,---- --------- ---------- - --- ------- -- --- ------------<br>----- -- -------- ------- ---- ------ - -------- ---- -----<br>--- ------- said -- --- -------- --- - ----- ------ ---- --<br>-------- --- -------- -------- --- -------- ---- -- ----- -<br>-------- ---- --- ---------- --------- -- ------- ------ -<br>--------- ----- -----,232844.66000000248,232844.0350000019,232530.189,232545.46000000846,232572.854,232864.004,,21,said
screen,html.Screen,2_3_1_0_1_22,2021-04-30T15:40:12.547Z,,,,,,,,,,,,,,,,,15,,,,,,,,,,,,,,241.24600000781356,,response,,,,7,B,,,,,,Space,keypress(Space),,,,lyrical,,,,---- --------- ---------- - --- ------- -- --- ------------<br>----- -- -------- ------- ---- ------ - -------- ---- -----<br>--- ------- ---- he --- -------- --- - ----- ------ ---- --<br>-------- --- -------- -------- --- -------- ---- -- ----- -<br>-------- ---- --- ---------- --------- -- ------- ------ -<br>--------- ----- -----,233105.73999999906,233105.2500000078,232847.206,232844.77500000503,232864.004,233114.225,,22,he
screen,html.Screen,2_3_1_0_1_23,2021-04-30T15:40:12.867Z,,,,,,,,,,,,,,,,,15,,,,,,,,,,,,,,310.8949999998731,,response,,,,7,B,,,,,,Space,keypress(Space),,,,lyrical,,,,---- --------- ---------- - --- ------- -- --- ------------<br>----- -- -------- ------- ---- ------ - -------- ---- -----<br>--- ------- ---- -- was -------- --- - ----- ------ ---- --<br>-------- --- -------- -------- --- -------- ---- -- ----- -<br>-------- ---- --- ---------- --------- -- ------- ------ -<br>--------- ----- -----,233425.71999999927,233425.11999999988,233097.553,233105.83000000042,233114.225,233447.871,,23,was
screen,html.Screen,2_3_1_0_1_24,2021-04-30T15:40:13.131Z,,,,,,,,,,,,,,,,,15,,,,,,,,,,,,,,241.57400001087808,,response,,,,7,B,,,,,,Space,keypress(Space),,,,lyrical,,,,---- --------- ---------- - --- ------- -- --- ------------<br>----- -- -------- ------- ---- ------ - -------- ---- -----<br>--- ------- ---- -- --- prepared --- - ----- ------ ---- --<br>-------- --- -------- -------- --- -------- ---- -- ----- -<br>-------- ---- --- ---------- --------- -- ------- ------ -<br>--------- ----- -----,233689.92499999877,233689.4450000109,233431.333,233425.8150000096,233447.871,233714.83,,24,prepared
screen,html.Screen,2_3_1_0_1_25,2021-04-30T15:40:13.555Z,,,,,,,,,,,,,,,,,15,,,,,,,,,,,,,,398.34500000588014,,response,,,,7,B,,,,,,Space,keypress(Space),,,,lyrical,,,,---- --------- ---------- - --- ------- -- --- ------------<br>----- -- -------- ------- ---- ------ - -------- ---- -----<br>--- ------- ---- -- --- -------- for - ----- ------ ---- --<br>-------- --- -------- -------- --- -------- ---- -- ----- -<br>-------- ---- --- ---------- --------- -- ------- ------ -<br>--------- ----- -----,234113.64999999932,234113.17500000587,233698.215,233690.0100000057,233714.83,234115.162,,25,for
screen,html.Screen,2_3_1_0_1_26,2021-04-30T15:40:13.915Z,,,,,,,,,,,,,,,,,15,,,,,,,,,,,,,,357.94300001184456,,response,,,,7,B,,,,,,Space,keypress(Space),,,,lyrical,,,,---- --------- ---------- - --- ------- -- --- ------------<br>----- -- -------- ------- ---- ------ - -------- ---- -----<br>--- ------- ---- -- --- -------- --- a ----- ------ ---- --<br>-------- --- -------- -------- --- -------- ---- -- ----- -<br>-------- ---- --- ---------- --------- -- ------- ------ -<br>--------- ----- -----,234473.60000001208,234473.10500001186,234098.592,234113.74500000966,234115.162,234482.334,,26,a
screen,html.Screen,2_3_1_0_1_27,2021-04-30T15:40:14.395Z,,,,,,,,,,,,,,,,,15,,,,,,,,,,,,,,470.6110000118206,,response,,,,7,B,,,,,,Space,keypress(Space),,,,lyrical,,,,---- --------- ---------- - --- ------- -- --- ------------<br>----- -- -------- ------- ---- ------ - -------- ---- -----<br>--- ------- ---- -- --- -------- --- - third ------ ---- --<br>-------- --- -------- -------- --- -------- ---- -- ----- -<br>-------- ---- --- ---------- --------- -- ------- ------ -<br>--------- ----- -----,234953.45000000088,234952.94500001182,234465.602,234473.68500000448,234482.334,234966.282,,27,third
screen,html.Screen,2_3_1_0_1_28,2021-04-30T15:40:14.611Z,,,,,,,,,,,,,,,,,15,,,,,,,,,,,,,,202.87800000491552,,response,,,,7,B,,,,,,Space,keypress(Space),,,,lyrical,,,,---- --------- ---------- - --- ------- -- --- ------------<br>----- -- -------- ------- ---- ------ - -------- ---- -----<br>--- ------- ---- -- --- -------- --- - ----- prison ---- --<br>-------- --- -------- -------- --- -------- ---- -- ----- -<br>-------- ---- --- ---------- --------- -- ------- ------ -<br>--------- ----- -----,235169.63500001293,235169.16000000492,234949.606,234953.54500001122,234966.282,235183.032,,28,prison
screen,html.Screen,2_3_1_0_1_29,2021-04-30T15:40:15.147Z,,,,,,,,,,,,,,,,,15,,,,,,,,,,,,,,522.2179999990622,,response,,,,7,B,,,,,,Space,keypress(Space),,,,lyrical,,,,---- --------- ---------- - --- ------- -- --- ------------<br>----- -- -------- ------- ---- ------ - -------- ---- -----<br>--- ------- ---- -- --- -------- --- - ----- ------ stay --<br>-------- --- -------- -------- --- -------- ---- -- ----- -<br>-------- ---- --- ---------- --------- -- ------- ------ -<br>--------- ----- -----,235705.74000000488,235705.24999999907,235166.412,235169.72499999974,235183.032,235716.903,,29,stay
screen,html.Screen,2_3_1_0_1_30,2021-04-30T15:40:15.547Z,,,,,,,,,,,,,,,,,15,,,,,,,,,,,,,,388.23200000525685,,response,,,,7,B,,,,,,Space,keypress(Space),,,,lyrical,,,,---- --------- ---------- - --- ------- -- --- ------------<br>----- -- -------- ------- ---- ------ - -------- ---- -----<br>--- ------- ---- -- --- -------- --- - ----- ------ ---- to<br>-------- --- -------- -------- --- -------- ---- -- ----- -<br>-------- ---- --- ---------- --------- -- ------- ------ -<br>--------- ----- -----,236105.5950000009,236105.13500000525,235700.572,235705.82500001183,235716.903,236117.562,,30,to
screen,html.Screen,2_3_1_0_1_31,2021-04-30T15:40:15.987Z,,,,,,,,,,,,,,,,,15,,,,,,,,,,,,,,427.90300000287243,,response,,,,7,B,,,,,,Space,keypress(Space),,,,lyrical,,,,---- --------- ---------- - --- ------- -- --- ------------<br>----- -- -------- ------- ---- ------ - -------- ---- -----<br>--- ------- ---- -- --- -------- --- - ----- ------ ---- --<br>maintain --- -------- -------- --- -------- ---- -- ----- -<br>-------- ---- --- ---------- --------- -- ------- ------ -<br>--------- ----- -----,236545.9550000087,236545.46500000288,236100.702,236105.67499999888,236117.562,236551.275,,31,maintain
screen,html.Screen,2_3_1_0_1_32,2021-04-30T15:40:16.627Z,,,,,,,,,,,,,,,,,15,,,,,,,,,,,,,,633.860000007,,response,,,,7,B,,,,,,Space,keypress(Space),,,,lyrical,,,,---- --------- ---------- - --- ------- -- --- ------------<br>----- -- -------- ------- ---- ------ - -------- ---- -----<br>--- ------- ---- -- --- -------- --- - ----- ------ ---- --<br>-------- his -------- -------- --- -------- ---- -- ----- -<br>-------- ---- --- ---------- --------- -- ------- ------ -<br>--------- ----- -----,237185.76000000758,237185.135000007,236534.681,236546.04000000108,236551.275,237201.968,,32,his
screen,html.Screen,2_3_1_0_1_33,2021-04-30T15:40:17.091Z,,,,,,,,,,,,,,,,,15,,,,,,,,,,,,,,447.2970000000205,,response,,,,7,B,,,,,,Space,keypress(Space),,,,lyrical,,,,---- --------- ---------- - --- ------- -- --- ------------<br>----- -- -------- ------- ---- ------ - -------- ---- -----<br>--- ------- ---- -- --- -------- --- - ----- ------ ---- --<br>-------- --- silence. -------- --- -------- ---- -- ----- -<br>-------- ---- --- ---------- --------- -- ------- ------ -<br>--------- ----- -----,237649.81000000262,237649.265,237185.238,237185.85500000336,237201.968,237652.435,,33,silence.
screen,html.Screen,2_3_1_0_1_34,2021-04-30T15:40:17.683Z,,,,,,,,,,,,,,,,,15,,,,,,,,,,,,,,588.7200000106241,,response,,,,7,B,,,,,,Space,keypress(Space),,,,lyrical,,,,---- --------- ---------- - --- ------- -- --- ------------<br>----- -- -------- ------- ---- ------ - -------- ---- -----<br>--- ------- ---- -- --- -------- --- - ----- ------ ---- --<br>-------- --- -------- Anderson --- -------- ---- -- ----- -<br>-------- ---- --- ---------- --------- -- ------- ------ -<br>--------- ----- -----,238241.62500000966,238241.15500001062,237635.838,237649.88500000618,237652.435,238253.111,,34,Anderson
screen,html.Screen,2_3_1_0_1_35,2021-04-30T15:40:18.035Z,,,,,,,,,,,,,,,,,15,,,,,,,,,,,,,,340.0490000039863,,response,,,,7,B,,,,,,Space,keypress(Space),,,,lyrical,,,,---- --------- ---------- - --- ------- -- --- ------------<br>----- -- -------- ------- ---- ------ - -------- ---- -----<br>--- ------- ---- -- --- -------- --- - ----- ------ ---- --<br>-------- --- -------- -------- was -------- ---- -- ----- -<br>-------- ---- --- ---------- --------- -- ------- ------ -<br>--------- ----- -----,238593.6650000076,238593.160000004,238236.358,238241.71000000206,238253.111,238603.541,,35,was
screen,html.Screen,2_3_1_0_1_36,2021-04-30T15:40:18.291Z,,,,,,,,,,,,,,,,,15,,,,,,,,,,,,,,245.58900000233552,,response,,,,7,B,,,,,,Space,keypress(Space),,,,lyrical,,,,---- --------- ---------- - --- ------- -- --- ------------<br>----- -- -------- ------- ---- ------ - -------- ---- -----<br>--- ------- ---- -- --- -------- --- - ----- ------ ---- --<br>-------- --- -------- -------- --- released ---- -- ----- -<br>-------- ---- --- ---------- --------- -- ------- ------ -<br>--------- ----- -----,238849.62000000814,238849.13000000233,238586.73,238593.75,238603.541,238853.822,,36,released
screen,html.Screen,2_3_1_0_1_37,2021-04-30T15:40:18.571Z,,,,,,,,,,,,,,,,,15,,,,,,,,,,,,,,275.26800000219373,,response,,,,7,B,,,,,,Space,keypress(Space),,,,lyrical,,,,---- --------- ---------- - --- ------- -- --- ------------<br>----- -- -------- ------- ---- ------ - -------- ---- -----<br>--- ------- ---- -- --- -------- --- - ----- ------ ---- --<br>-------- --- -------- -------- --- -------- July -- ----- -<br>-------- ---- --- ---------- --------- -- ------- ------ -<br>--------- ----- -----,239129.5700000046,239129.09000000218,238837.051,238849.70500000054,238853.822,239137.464,,37,July
screen,html.Screen,2_3_1_0_1_38,2021-04-30T15:40:19.123Z,,,,,,,,,,,,,,,,,15,,,,,,,,,,,,,,543.7360000063491,,response,,,,7,B,,,,,,Space,keypress(Space),,,,lyrical,,,,---- --------- ---------- - --- ------- -- --- ------------<br>----- -- -------- ------- ---- ------ - -------- ---- -----<br>--- ------- ---- -- --- -------- --- - ----- ------ ---- --<br>-------- --- -------- -------- --- -------- ---- 20 ----- -<br>-------- ---- --- ---------- --------- -- ------- ------ -<br>--------- ----- -----,239681.70500000997,239681.20000000636,239120.799,239129.65500001155,239137.464,239688.13,,38,20
