sender,sender_type,sender_id,timestamp,meta,,Blues,Classical,Country,Dance,Electronic,Folk,Gospel,Hip-Hop,Jazz,Latin,Musical/Film,New-age,Pop,Prolific_id,Provo_ID,R&B,Rap,Reggae,Religious,Rock,Soul,Swing,Traditional,age,artist_name,correct,correctResponse,distraction,duration,education,ended_on,familiarity,gender,headphone_check_performance,item,list,music_frequency,offensiveness,pleasantness,position_correct,preference,response,response_action,snippet_file,song_name,song_rating,sound,stimulus_1,stimulus_2,stimulus_3,text,time_commit,time_end,time_render,time_run,time_show,time_switch,url,word,word_ID
Prolific ID,html.Form,0,2021-04-30T09:49:26.521Z,"{""labjs_version"":""20.2.2"",""labjs_build"":{""flavor"":""production"",""commit"":""a25486e0c714a0ae2ce03ff94b7bb6896854dcfa""},""location"":""https://run.pavlovia.org/mvasilev/prolific_music_b/"",""userAgent"":""Mozilla/5.0 (Windows NT 10.0; Win64; x64) AppleWebKit/537.36 (KHTML, like Gecko) Chrome/90.0.4430.93 Safari/537.36"",""platform"":""Win32"",""language"":""en-GB"",""locale"":""en-GB"",""timeZone"":""Europe/London"",""timezoneOffset"":-60,""screen_width"":1366,""screen_height"":768,""scroll_width"":1366,""scroll_height"":609,""window_innerWidth"":1366,""window_innerHeight"":657,""devicePixelRatio"":1}",,,,,,,,,,,,,,,55f42b6a32af740005170bd0,,,,,,,,,,,,,,,20802.672999991264,,form submission,,,,,,,,,,,,,,,,,,,,,36660.13999999268,36659.619999991264,15806.575,15818.174999993062,15856.947,36672.61,{},,
Introduction,html.Screen,1_0,2021-04-30T09:49:30.561Z,,,,,,,,,,,,,,,,,,,,,,,,,,,,,,,4025.5350000021135,,response,,,,,,,,,,,continue,click button,,,,,,,,,40700.59500000207,40698.145000002114,36656.014,36660.52499998477,36672.61,40705.753,,,
Volume calibration,html.Screen,1_1,2021-04-30T09:49:59.946Z,,,,,,,,,,,,,,,,,,,,,,,,,,,,,,,29376.202000001475,,response,,,,,,,,,,,continue,click button,,,,,,,,,70085.16499999678,70081.95500000147,40689.119,40700.78499999363,40705.753,70087.657,,,
Task instructions,html.Screen,1_2,2021-04-30T09:50:08.888Z,,,,,,,,,,,,,,,,,,,,,,,,,,,,,,,8938.143000003067,,response,,,,,,,,,,,continue,click button,,,,,,,,,79026.66500001214,79025.80000000307,70071.066,70085.38500001305,70087.657,79037.187,,,
Sounds,html.Screen,1_3_0_0,2021-04-30T09:50:13.134Z,,,,,,,,,,,,,,,,,,,,,,,,,,,,,,,4249.86099999999,,timeout,,,,,,,,,2,,,,,,,,O,S,I,,83272.90999999968,83270.447,79020.637,79027.02999999747,79037.187,83287.048,,,
Judgement,html.Screen,1_3_0_1,2021-04-30T09:50:13.992Z,,,,,,,,,,,,,,,,,,,,,,,,,,,,true,2,,843.0170000048383,,response,,,,,,,,,2,,2,click #choice-2,,,,,O,S,I,,84130.9299999848,84130.06500000483,83270.447,83273.09500001138,83287.048,84136.991,,,
Trial,flow.Sequence,1_3_0,2021-04-30T09:50:13.993Z,,,,,,,,,,,,,,,,,,,,,,,,,,,,,,,5092.878000004828,,completion,,,,,,,,,2,,,,,,,,O,S,I,,84131.3000000082,84130.06500000483,79020.637,79026.96499999729,79037.187,84136.991,,,
Sounds,html.Screen,1_3_1_0,2021-04-30T09:50:18.232Z,,,,,,,,,,,,,,,,,,,,,,,,,,,,,,,4249.805000000008,,timeout,,,,,,,,,1,,,,,,,,S,I,O,,88370.83500000881,88370.084,84120.364,84131.47500000196,84136.991,88386.796,,,
Judgement,html.Screen,1_3_1_1,2021-04-30T09:50:18.840Z,,,,,,,,,,,,,,,,,,,,,,,,,,,,true,1,,591.1139999868756,,response,,,,,,,,,1,,1,click #choice-1,,,,,S,I,O,,88978.72499999357,88977.90999998688,88370.084,88370.98000000697,88386.796,88986.772,,,
Trial,flow.Sequence,1_3_1,2021-04-30T09:50:18.840Z,,,,,,,,,,,,,,,,,,,,,,,,,,,,,,,4840.918999986883,,completion,,,,,,,,,1,,,,,,,,S,I,O,,88978.96000000765,88977.90999998688,84120.364,84131.42499999958,84136.991,88986.772,,,
Sounds,html.Screen,1_3_2_0,2021-04-30T09:50:23.082Z,,,,,,,,,,,,,,,,,,,,,,,,,,,,,,,4249.7880000000005,,timeout,,,,,,,,,2,,,,,,,,I,S,O,,93220.57999999379,93219.918,88970.063,88979.11499999464,88986.772,93236.56,,,
Judgement,html.Screen,1_3_2_1,2021-04-30T09:50:23.624Z,,,,,,,,,,,,,,,,,,,,,,,,,,,,true,2,,525.4000000034575,,response,,,,,,,,,2,,2,click #choice-2,,,,,I,S,O,,93762.77999999002,93761.96000000346,93219.918,93220.71500000311,93236.56,93769.818,,,
Trial,flow.Sequence,1_3_2,2021-04-30T09:50:23.624Z,,,,,,,,,,,,,,,,,,,,,,,,,,,,,,,4775.188000003458,,completion,,,,,,,,,2,,,,,,,,I,S,O,,93763.00000000629,93761.96000000346,88970.063,88979.06499999226,88986.772,93769.818,,,
Sounds,html.Screen,1_3_3_0,2021-04-30T09:50:27.865Z,,,,,,,,,,,,,,,,,,,,,,,,,,,,,,,4249.864000000001,,timeout,,,,,,,,,3,,,,,,,,O,I,S,,98003.70500001009,98003.018,93753.247,93763.16000000224,93769.818,98019.682,,,
Judgement,html.Screen,1_3_3_1,2021-04-30T09:50:28.320Z,,,,,,,,,,,,,,,,,,,,,,,,,,,,true,3,,438.32299999313545,,response,,,,,,,,,3,,3,click #choice-3,,,,,O,I,S,,98458.80500000203,98458.00499999314,98003.018,98003.83500001044,98019.682,98469.676,,,
Trial,flow.Sequence,1_3_3,2021-04-30T09:50:28.320Z,,,,,,,,,,,,,,,,,,,,,,,,,,,,,,,4688.186999993137,,completion,,,,,,,,,3,,,,,,,,O,I,S,,98459.02999999817,98458.00499999314,93753.247,93763.10000001104,93769.818,98469.676,,,
Sounds,html.Screen,1_3_4_0,2021-04-30T09:50:32.565Z,,,,,,,,,,,,,,,,,,,,,,,,,,,,,,,4249.756999999998,,timeout,,,,,,,,,1,,,,,,,,S,O,I,,102703.50500001223,102702.815,98452.941,98459.17499999632,98469.676,102719.433,,,
Judgement,html.Screen,1_3_4_1,2021-04-30T09:50:33.128Z,,,,,,,,,,,,,,,,,,,,,,,,,,,,true,1,,546.5269999897137,,response,,,,,,,,,1,,1,click #choice-1,,,,,S,O,I,,103266.86000000336,103265.95999998972,102702.815,102703.63999999245,102719.433,103269.433,,,
Trial,flow.Sequence,1_3_4,2021-04-30T09:50:33.128Z,,,,,,,,,,,,,,,,,,,,,,,,,,,,,,,4796.283999989711,,completion,,,,,,,,,1,,,,,,,,S,O,I,,103267.06000001286,103265.95999998972,98452.941,98459.13000000292,98469.676,103269.433,,,
Sounds,html.Screen,1_3_5_0,2021-04-30T09:50:37.364Z,,,,,,,,,,,,,,,,,,,,,,,,,,,,,,,4249.777000000002,,timeout,,,,,,,,,3,,,,,,,,I,O,S,,107503.05500000832,107502.567,103252.768,103267.20000000205,103269.433,107519.21,,,
Judgement,html.Screen,1_3_5_1,2021-04-30T09:50:37.856Z,,,,,,,,,,,,,,,,,,,,,,,,,,,,true,3,,474.8149999926827,,response,,,,,,,,,3,,3,click #choice-3,,,,,I,O,S,,107994.87500000396,107994.02499999269,107502.567,107503.18999998854,107519.21,108002.481,,,
Trial,flow.Sequence,1_3_5,2021-04-30T09:50:37.856Z,,,,,,,,,,,,,,,,,,,,,,,,,,,,,,,4724.591999992685,,completion,,,,,,,,,3,,,,,,,,I,O,S,,107995.08500000229,107994.02499999269,103252.768,103267.15999998851,103269.433,108002.481,,,
Task,flow.Loop,1_3,2021-04-30T09:50:37.861Z,,,,,,,,,,,,,,,,,,,,,,,,,,,,,,,28956.837999992684,,completion,,,1,,,,,,,,,,,,,,,,,,107999.72500000149,107994.02499999269,79020.637,79026.89000000828,79037.187,108002.481,,,
Trap,html.Screen,1_4,2021-04-30T09:50:37.862Z,,,,,,,,,,,,,,,,,,,,,,,,,,,,,,,NaN,,skipped,,,,,,,,,,,,,,,,,,,,,108001.19000000996,107994.02499999269,,108001.04000000283,,108002.481,,,
Thanks,html.Screen,1_5,2021-04-30T09:50:40.808Z,,,,,,,,,,,,,,,,,,,,,,,,,,,,,,,2943.4590000050666,,response,,,,,,,,,,,continue,click button,,,,,,,,,110946.7949999962,110945.94000000507,107985.814,108001.32000001031,108002.481,113085.554,,,
Headphone screening,flow.Sequence,1,2021-04-30T09:50:40.808Z,,,,,,,,,,,,,,,,,,,,,,,,,,,,,,,74273.33000000507,,completion,,,,,,,,,,,,,,,,,,,,,110946.99999998556,110945.94000000507,36656.014,36660.47999999137,36672.61,113085.554,,,
Instructions,html.Page,2_0,2021-04-30T09:50:54.016Z,,,,,,,,,,,,,,,,,,,,,,,,,,,,,,,11069.035999991,,form submission,,,,,,,,,,,,,,,,,,,,,124154.82999998494,124154.589999991,113018.916,113078.34499998717,113085.554,124185.099,,,
Holding screen,html.Screen,2_1_0_0,2021-04-30T09:51:04.030Z,,,,,,,,,,,,,,,,,,,,,,,,,,,,,,,9999.507999999987,,timeout,,,,,,,,,,,,,,,,,,,,,134168.78999999608,134167.941,124168.339,124155.05500001018,124185.099,134184.607,,,
screen,html.Screen,2_1_0_1_0,2021-04-30T09:51:04.883Z,,,,,,,,,,,,,,,,,53,,,,,,,,,,,,,,834.7080000122951,,response,,,,99,,,,,,,Space,keypress(Space),,,,,,,,When -- ----- -- ------ - ------- --- ----------<br>------------- ------ ------ ---- ---- ------- ----- -- ----<br>-------- ------- -- ---------- --- - --- ----- ----- ----<br>---- --- --- ----- --- ---- ---- ------- ----- ---- -------<br>--- --- -- ----- -- --- ---- -- --- ---- -- ------ ------<br>--- ----- -- ----,135021.7849999899,135019.31500001228,134167.941,134168.9849999966,134184.607,135034.536,,0,When
screen,html.Screen,2_1_0_1_1,2021-04-30T09:51:05.057Z,,,,,,,,,,,,,,,,,53,,,,,,,,,,,,,,160.93400000603287,,response,,,,99,,,,,,,Space,keypress(Space),,,,,,,,---- it ----- -- ------ - ------- --- ----------<br>------------- ------ ------ ---- ---- ------- ----- -- ----<br>-------- ------- -- ---------- --- - --- ----- ----- ----<br>---- --- --- ----- --- ---- ---- ------- ----- ---- -------<br>--- --- -- ----- -- --- ---- -- --- ---- -- ------ ------<br>--- ----- -- ----,135195.97000000067,135195.47000000603,135017.895,135021.940000006,135034.536,135201.179,,1,it
screen,html.Screen,2_1_0_1_2,2021-04-30T09:51:05.265Z,,,,,,,,,,,,,,,,,53,,,,,,,,,,,,,,202.15600000997074,,response,,,,99,,,,,,,Space,keypress(Space),,,,,,,,---- -- comes -- ------ - ------- --- ----------<br>------------- ------ ------ ---- ---- ------- ----- -- ----<br>-------- ------- -- ---------- --- - --- ----- ----- ----<br>---- --- --- ----- --- ---- ---- ------- ----- ---- -------<br>--- --- -- ----- -- --- ---- -- --- ---- -- ------ ------<br>--- ----- -- ----,135403.95000000717,135403.33500000997,135184.584,135197.0100000035,135201.179,135417.906,,2,comes
screen,html.Screen,2_1_0_1_3,2021-04-30T09:51:05.696Z,,,,,,,,,,,,,,,,,53,,,,,,,,,,,,,,416.4240000124264,,response,,,,99,,,,,,,Space,keypress(Space),,,,,,,,---- -- ----- to ------ - ------- --- ----------<br>------------- ------ ------ ---- ---- ------- ----- -- ----<br>-------- ------- -- ---------- --- - --- ----- ----- ----<br>---- --- --- ----- --- ---- ---- ------- ----- ---- -------<br>--- --- -- ----- -- --- ---- -- --- ---- -- ------ ------<br>--- ----- -- ----,135834.8699999915,135834.3300000124,135401.221,135404.16499998537,135417.906,135851.207,,3,to
screen,html.Screen,2_1_0_1_4,2021-04-30T09:51:05.981Z,,,,,,,,,,,,,,,,,53,,,,,,,,,,,,,,268.07799999340205,,response,,,,99,,,,,,,Space,keypress(Space),,,,,,,,---- -- ----- -- having - ------- --- ----------<br>------------- ------ ------ ---- ---- ------- ----- -- ----<br>-------- ------- -- ---------- --- - --- ----- ----- ----<br>---- --- --- ----- --- ---- ---- ------- ----- ---- -------<br>--- --- -- ----- -- --- ---- -- --- ---- -- ------ ------<br>--- ----- -- ----,136119.84500000835,136119.2849999934,135834.537,135834.99999999185,135851.207,136134.553,,4,having
screen,html.Screen,2_1_0_1_5,2021-04-30T09:51:06.195Z,,,,,,,,,,,,,,,,,53,,,,,,,,,,,,,,198.90699999436038,,response,,,,99,,,,,,,Space,keypress(Space),,,,,,,,---- -- ----- -- ------ a ------- --- ----------<br>------------- ------ ------ ---- ---- ------- ----- -- ----<br>-------- ------- -- ---------- --- - --- ----- ----- ----<br>---- --- --- ----- --- ---- ---- ------- ----- ---- -------<br>--- --- -- ----- -- --- ---- -- --- ---- -- ------ ------<br>--- ----- -- ----,136334.02999999817,136333.45999999437,136117.868,136119.9750000087,136134.553,136351.181,,5,a
screen,html.Screen,2_1_0_1_6,2021-04-30T09:51:06.453Z,,,,,,,,,,,,,,,,,53,,,,,,,,,,,,,,240.93400000673137,,response,,,,99,,,,,,,Space,keypress(Space),,,,,,,,---- -- ----- -- ------ - lasting --- ----------<br>------------- ------ ------ ---- ---- ------- ----- -- ----<br>-------- ------- -- ---------- --- - --- ----- ----- ----<br>---- --- --- ----- --- ---- ---- ------- ----- ---- -------<br>--- --- -- ----- -- --- ---- -- --- ---- -- ------ ------<br>--- ----- -- ----,136592.644999997,136592.11500000674,136334.502,136334.2249999987,136351.181,136601.19,,6,lasting
screen,html.Screen,2_1_0_1_7,2021-04-30T09:51:06.741Z,,,,,,,,,,,,,,,,,53,,,,,,,,,,,,,,278.3550000034156,,response,,,,99,,,,,,,Space,keypress(Space),,,,,,,,---- -- ----- -- ------ - ------- and ----------<br>------------- ------ ------ ---- ---- ------- ----- -- ----<br>-------- ------- -- ---------- --- - --- ----- ----- ----<br>---- --- --- ----- --- ---- ---- ------- ----- ---- -------<br>--- --- -- ----- -- --- ---- -- --- ---- -- ------ ------<br>--- ----- -- ----,136880.10499998927,136879.54500000342,136584.507,136592.77499999735,136601.19,136884.483,,7,and
screen,html.Screen,2_1_0_1_8,2021-04-30T09:51:06.975Z,,,,,,,,,,,,,,,,,53,,,,,,,,,,,,,,229.71700001088902,,response,,,,99,,,,,,,Space,keypress(Space),,,,,,,,---- -- ----- -- ------ - ------- --- fulfilling<br>------------- ------ ------ ---- ---- ------- ----- -- ----<br>-------- ------- -- ---------- --- - --- ----- ----- ----<br>---- --- --- ----- --- ---- ---- ------- ----- ---- -------<br>--- --- -- ----- -- --- ---- -- --- ---- -- ------ ------<br>--- ----- -- ----,137114.6899999876,137114.2000000109,136867.813,136880.23499998963,136884.483,137117.711,,8,fulfilling
screen,html.Screen,2_1_0_1_9,2021-04-30T09:51:07.419Z,,,,,,,,,,,,,,,,,53,,,,,,,,,,,,,,440.2040000121342,,response,,,,99,,,,,,,Space,keypress(Space),,,,,,,,"---- -- ----- -- ------ - ------- --- ----------<br>relationship, ------ ------ ---- ---- ------- ----- -- ----<br>-------- ------- -- ---------- --- - --- ----- ----- ----<br>---- --- --- ----- --- ---- ---- ------- ----- ---- -------<br>--- --- -- ----- -- --- ---- -- --- ---- -- ------ ------<br>--- ----- -- ----",137558.4450000024,137557.91500001214,137101.144,137114.8300000059,137117.711,137567.797,,9,"relationship,"
screen,html.Screen,2_1_0_1_10,2021-04-30T09:51:07.675Z,,,,,,,,,,,,,,,,,53,,,,,,,,,,,,,,245.50300000890275,,response,,,,99,,,,,,,Space,keypress(Space),,,,,,,,---- -- ----- -- ------ - ------- --- ----------<br>------------- common ------ ---- ---- ------- ----- -- ----<br>-------- ------- -- ---------- --- - --- ----- ----- ----<br>---- --- --- ----- --- ---- ---- ------- ----- ---- -------<br>--- --- -- ----- -- --- ---- -- --- ---- -- ------ ------<br>--- ----- -- ----,137813.80000000354,137813.3000000089,137551.18,137558.58000001172,137567.797,137817.653,,10,common
screen,html.Screen,2_1_0_1_11,2021-04-30T09:51:07.852Z,,,,,,,,,,,,,,,,,53,,,,,,,,,,,,,,173.14199999062112,,response,,,,99,,,,,,,Space,keypress(Space),,,,,,,,---- -- ----- -- ------ - ------- --- ----------<br>------------- ------ wisdom ---- ---- ------- ----- -- ----<br>-------- ------- -- ---------- --- - --- ----- ----- ----<br>---- --- --- ----- --- ---- ---- ------- ----- ---- -------<br>--- --- -- ----- -- --- ---- -- --- ---- -- ------ ------<br>--- ----- -- ----,137991.32500000997,137990.7949999906,137801.117,137813.93500001286,137817.653,138001.101,,11,wisdom
screen,html.Screen,2_1_0_1_12,2021-04-30T09:51:08.282Z,,,,,,,,,,,,,,,,,53,,,,,,,,,,,,,,419.74899999497575,,response,,,,99,,,,,,,Space,keypress(Space),,,,,,,,---- -- ----- -- ------ - ------- --- ----------<br>------------- ------ ------ says ---- ------- ----- -- ----<br>-------- ------- -- ---------- --- - --- ----- ----- ----<br>---- --- --- ----- --- ---- ---- ------- ----- ---- -------<br>--- --- -- ----- -- --- ---- -- --- ---- -- ------ ------<br>--- ----- -- ----,138421.37999998522,138420.84999999497,137984.46,137991.45999999018,138001.101,138434.454,,12,says
screen,html.Screen,2_1_0_1_13,2021-04-30T09:51:08.544Z,,,,,,,,,,,,,,,,,53,,,,,,,,,,,,,,248.00100000193925,,response,,,,99,,,,,,,Space,keypress(Space),,,,,,,,---- -- ----- -- ------ - ------- --- ----------<br>------------- ------ ------ ---- that ------- ----- -- ----<br>-------- ------- -- ---------- --- - --- ----- ----- ----<br>---- --- --- ----- --- ---- ---- ------- ----- ---- -------<br>--- --- -- ----- -- --- ---- -- --- ---- -- ------ ------<br>--- ----- -- ----,138682.94500000775,138682.45500000194,138417.615,138421.50999998557,138434.454,138715.613,,13,that
screen,html.Screen,2_1_0_1_14,2021-04-30T09:51:08.858Z,,,,,,,,,,,,,,,,,53,,,,,,,,,,,,,,281.10699999553617,,response,,,,99,,,,,,,Space,keypress(Space),,,,,,,,---- -- ----- -- ------ - ------- --- ----------<br>------------- ------ ------ ---- ---- feeling ----- -- ----<br>-------- ------- -- ---------- --- - --- ----- ----- ----<br>---- --- --- ----- --- ---- ---- ------- ----- ---- -------<br>--- --- -- ----- -- --- ---- -- --- ---- -- ------ ------<br>--- ----- -- ----,138997.26000000373,138996.71999999555,138667.715,138683.07999998797,138715.613,139001.079,,14,feeling
screen,html.Screen,2_1_0_1_15,2021-04-30T09:51:09.192Z,,,,,,,,,,,,,,,,,53,,,,,,,,,,,,,,329.5460000023304,,response,,,,99,,,,,,,Space,keypress(Space),,,,,,,,---- -- ----- -- ------ - ------- --- ----------<br>------------- ------ ------ ---- ---- ------- close -- ----<br>-------- ------- -- ---------- --- - --- ----- ----- ----<br>---- --- --- ----- --- ---- ---- ------- ----- ---- -------<br>--- --- -- ----- -- --- ---- -- --- ---- -- ------ ------<br>--- ----- -- ----,139331.20499999495,139330.62500000233,138984.355,138997.39500001306,139001.079,139334.291,,15,close
screen,html.Screen,2_1_0_1_16,2021-04-30T09:51:09.615Z,,,,,,,,,,,,,,,,,53,,,,,,,,,,,,,,419.6289999882865,,response,,,,99,,,,,,,Space,keypress(Space),,,,,,,,---- -- ----- -- ------ - ------- --- ----------<br>------------- ------ ------ ---- ---- ------- ----- to ----<br>-------- ------- -- ---------- --- - --- ----- ----- ----<br>---- --- --- ----- --- ---- ---- ------- ----- ---- -------<br>--- --- -- ----- -- --- ---- -- --- ---- -- ------ ------<br>--- ----- -- ----,139754.48999999207,139753.91999998828,139317.605,139331.34000000427,139334.291,139767.679,,16,to
screen,html.Screen,2_1_0_1_17,2021-04-30T09:51:10.084Z,,,,,,,,,,,,,,,,,53,,,,,,,,,,,,,,454.55099998484366,,response,,,,99,,,,,,,Space,keypress(Space),,,,,,,,---- -- ----- -- ------ - ------- --- ----------<br>------------- ------ ------ ---- ---- ------- ----- -- your<br>-------- ------- -- ---------- --- - --- ----- ----- ----<br>---- --- --- ----- --- ---- ---- ------- ----- ---- -------<br>--- --- -- ----- -- --- ---- -- --- ---- -- ------ ------<br>--- ----- -- ----,140222.83000001335,140222.22999998485,139750.984,139754.6250000014,139767.679,140234.328,,17,your
screen,html.Screen,2_1_0_1_18,2021-04-30T09:51:10.520Z,,,,,,,,,,,,,,,,,53,,,,,,,,,,,,,,424.65200000742334,,response,,,,99,,,,,,,Space,keypress(Space),,,,,,,,---- -- ----- -- ------ - ------- --- ----------<br>------------- ------ ------ ---- ---- ------- ----- -- ----<br>romantic ------- -- ---------- --- - --- ----- ----- ----<br>---- --- --- ----- --- ---- ---- ------- ----- ---- -------<br>--- --- -- ----- -- --- ---- -- --- ---- -- ------ ------<br>--- ----- -- ----,140659.4899999909,140658.98000000743,140217.646,140222.97000000253,140234.328,140667.635,,18,romantic
screen,html.Screen,2_1_0_1_19,2021-04-30T09:51:10.752Z,,,,,,,,,,,,,,,,,53,,,,,,,,,,,,,,222.6200000056997,,response,,,,99,,,,,,,Space,keypress(Space),,,,,,,,---- -- ----- -- ------ - ------- --- ----------<br>------------- ------ ------ ---- ---- ------- ----- -- ----<br>-------- partner -- ---------- --- - --- ----- ----- ----<br>---- --- --- ----- --- ---- ---- ------- ----- ---- -------<br>--- --- -- ----- -- --- ---- -- --- ---- -- ------ ------<br>--- ----- -- ----,140890.8100000117,140890.2550000057,140650.911,140659.61999999126,140667.635,140900.925,,19,partner
screen,html.Screen,2_1_0_1_20,2021-04-30T09:51:11.038Z,,,,,,,,,,,,,,,,,53,,,,,,,,,,,,,,275.7700000019395,,response,,,,99,,,,,,,Space,keypress(Space),,,,,,,,---- -- ----- -- ------ - ------- --- ----------<br>------------- ------ ------ ---- ---- ------- ----- -- ----<br>-------- ------- is ---------- --- - --- ----- ----- ----<br>---- --- --- ----- --- ---- ---- ------- ----- ---- -------<br>--- --- -- ----- -- --- ---- -- --- ---- -- ------ ------<br>--- ----- -- ----,141177.25999999675,141176.69500000193,140884.294,140890.95500000985,140900.925,141184.297,,20,is
screen,html.Screen,2_1_0_1_21,2021-04-30T09:51:11.288Z,,,,,,,,,,,,,,,,,53,,,,,,,,,,,,,,242.86299999200855,,response,,,,99,,,,,,,Space,keypress(Space),,,,,,,,---- -- ----- -- ------ - ------- --- ----------<br>------------- ------ ------ ---- ---- ------- ----- -- ----<br>-------- ------- -- paramount. --- - --- ----- ----- ----<br>---- --- --- ----- --- ---- ---- ------- ----- ---- -------<br>--- --- -- ----- -- --- ---- -- --- ---- -- ------ ------<br>--- ----- -- ----,141427.64000000898,141427.159999992,141167.619,141177.39500000607,141184.297,141434.268,,21,paramount.
screen,html.Screen,2_1_0_1_22,2021-04-30T09:51:12.219Z,,,,,,,,,,,,,,,,,53,,,,,,,,,,,,,,923.5720000114816,,response,,,,99,,,,,,,Space,keypress(Space),,,,,,,,---- -- ----- -- ------ - ------- --- ----------<br>------------- ------ ------ ---- ---- ------- ----- -- ----<br>-------- ------- -- ---------- But - --- ----- ----- ----<br>---- --- --- ----- --- ---- ---- ------- ----- ---- -------<br>--- --- -- ----- -- --- ---- -- --- ---- -- ------ ------<br>--- ----- -- ----,142358.32500000834,142357.8400000115,141417.555,141427.76500000036,141434.268,142367.535,,22,But
screen,html.Screen,2_1_0_1_23,2021-04-30T09:51:12.546Z,,,,,,,,,,,,,,,,,53,,,,,,,,,,,,,,316.95499998508603,,response,,,,99,,,,,,,Space,keypress(Space),,,,,,,,---- -- ----- -- ------ - ------- --- ----------<br>------------- ------ ------ ---- ---- ------- ----- -- ----<br>-------- ------- -- ---------- --- a --- ----- ----- ----<br>---- --- --- ----- --- ---- ---- ------- ----- ---- -------<br>--- --- -- ----- -- --- ---- -- --- ---- -- ------ ------<br>--- ----- -- ----,142685.00500000664,142684.4899999851,142350.805,142358.44999999972,142367.535,142700.889,,23,a
screen,html.Screen,2_1_0_1_24,2021-04-30T09:51:12.764Z,,,,,,,,,,,,,,,,,53,,,,,,,,,,,,,,201.99599998860504,,response,,,,99,,,,,,,Space,keypress(Space),,,,,,,,---- -- ----- -- ------ - ------- --- ----------<br>------------- ------ ------ ---- ---- ------- ----- -- ----<br>-------- ------- -- ---------- --- - new ----- ----- ----<br>---- --- --- ----- --- ---- ---- ------- ----- ---- -------<br>--- --- -- ----- -- --- ---- -- --- ---- -- ------ ------<br>--- ----- -- ----,142903.41999998782,142902.8849999886,142684.171,142685.135000007,142700.889,142917.528,,24,new
screen,html.Screen,2_1_0_1_25,2021-04-30T09:51:13.483Z,,,,,,,,,,,,,,,,,53,,,,,,,,,,,,,,704.5070000076084,,response,,,,99,,,,,,,Space,keypress(Space),,,,,,,,---- -- ----- -- ------ - ------- --- ----------<br>------------- ------ ------ ---- ---- ------- ----- -- ----<br>-------- ------- -- ---------- --- - --- study ----- ----<br>---- --- --- ----- --- ---- ---- ------- ----- ---- -------<br>--- --- -- ----- -- --- ---- -- --- ---- -- ------ ------<br>--- ----- -- ----,143622.52999999328,143622.0350000076,142900.851,142903.54999998817,142917.528,143634.184,,25,study
screen,html.Screen,2_1_0_1_26,2021-04-30T09:51:13.885Z,,,,,,,,,,,,,,,,,53,,,,,,,,,,,,,,389.24099999212194,,response,,,,99,,,,,,,Space,keypress(Space),,,,,,,,---- -- ----- -- ------ - ------- --- ----------<br>------------- ------ ------ ---- ---- ------- ----- -- ----<br>-------- ------- -- ---------- --- - --- ----- finds ----<br>---- --- --- ----- --- ---- ---- ------- ----- ---- -------<br>--- --- -- ----- -- --- ---- -- --- ---- -- ------ ------<br>--- ----- -- ----,144023.95500001148,144023.42499999213,143617.469,143622.68999998923,143634.184,144034.073,,26,finds
screen,html.Screen,2_1_0_1_27,2021-04-30T09:51:14.145Z,,,,,,,,,,,,,,,,,53,,,,,,,,,,,,,,249.3720000082103,,response,,,,99,,,,,,,Space,keypress(Space),,,,,,,,---- -- ----- -- ------ - ------- --- ----------<br>------------- ------ ------ ---- ---- ------- ----- -- ----<br>-------- ------- -- ---------- --- - --- ----- ----- that<br>---- --- --- ----- --- ---- ---- ------- ----- ---- -------<br>--- --- -- ----- -- --- ---- -- --- ---- -- ------ ------<br>--- ----- -- ----,144283.93499998492,144283.4450000082,144017.412,144024.0899999917,144034.073,144300.785,,27,that
screen,html.Screen,2_1_0_1_28,2021-04-30T09:51:14.667Z,,,,,,,,,,,,,,,,,53,,,,,,,,,,,,,,504.48000000268803,,response,,,,99,,,,,,,Space,keypress(Space),,,,,,,,---- -- ----- -- ------ - ------- --- ----------<br>------------- ------ ------ ---- ---- ------- ----- -- ----<br>-------- ------- -- ---------- --- - --- ----- ----- ----<br>it's --- --- ----- --- ---- ---- ------- ----- ---- -------<br>--- --- -- ----- -- --- ---- -- --- ---- -- ------ ------<br>--- ----- -- ----,144805.7700000063,144805.2650000027,144284.11,144284.06999999424,144300.785,144817.442,,28,it's
screen,html.Screen,2_1_0_1_29,2021-04-30T09:51:14.974Z,,,,,,,,,,,,,,,,,53,,,,,,,,,,,,,,295.1030000108585,,response,,,,99,,,,,,,Space,keypress(Space),,,,,,,,---- -- ----- -- ------ - ------- --- ----------<br>------------- ------ ------ ---- ---- ------- ----- -- ----<br>-------- ------- -- ---------- --- - --- ----- ----- ----<br>---- not --- ----- --- ---- ---- ------- ----- ---- -------<br>--- --- -- ----- -- --- ---- -- --- ---- -- ------ ------<br>--- ----- -- ----,145113.06000000332,145112.54500001087,144800.773,144805.90000000666,144817.442,145117.342,,29,not
screen,html.Screen,2_1_0_1_30,2021-04-30T09:51:15.176Z,,,,,,,,,,,,,,,,,53,,,,,,,,,,,,,,196.90799999580486,,response,,,,99,,,,,,,Space,keypress(Space),,,,,,,,---- -- ----- -- ------ - ------- --- ----------<br>------------- ------ ------ ---- ---- ------- ----- -- ----<br>-------- ------- -- ---------- --- - --- ----- ----- ----<br>---- --- how ----- --- ---- ---- ------- ----- ---- -------<br>--- --- -- ----- -- --- ---- -- --- ---- -- ------ ------<br>--- ----- -- ----,145314.75499999942,145314.2499999958,145100.748,145113.1849999947,145117.342,145317.317,,30,how
screen,html.Screen,2_1_0_1_31,2021-04-30T09:51:15.387Z,,,,,,,,,,,,,,,,,53,,,,,,,,,,,,,,208.68300001256284,,response,,,,99,,,,,,,Space,keypress(Space),,,,,,,,---- -- ----- -- ------ - ------- --- ----------<br>------------- ------ ------ ---- ---- ------- ----- -- ----<br>-------- ------- -- ---------- --- - --- ----- ----- ----<br>---- --- --- close --- ---- ---- ------- ----- ---- -------<br>--- --- -- ----- -- --- ---- -- --- ---- -- ------ ------<br>--- ----- -- ----,145526.47499999148,145526.00000001257,145300.635,145314.8949999886,145317.317,145534.099,,31,close
screen,html.Screen,2_1_0_1_32,2021-04-30T09:51:15.586Z,,,,,,,,,,,,,,,,,53,,,,,,,,,,,,,,190.45100001356332,,response,,,,99,,,,,,,Space,keypress(Space),,,,,,,,---- -- ----- -- ------ - ------- --- ----------<br>------------- ------ ------ ---- ---- ------- ----- -- ----<br>-------- ------- -- ---------- --- - --- ----- ----- ----<br>---- --- --- ----- you ---- ---- ------- ----- ---- -------<br>--- --- -- ----- -- --- ---- -- --- ---- -- ------ ------<br>--- ----- -- ----,145725.08500001277,145724.55000001355,145517.413,145526.6249999986,145534.099,145734.101,,32,you
screen,html.Screen,2_1_0_1_33,2021-04-30T09:51:15.986Z,,,,,,,,,,,,,,,,,53,,,,,,,,,,,,,,390.2489999982354,,response,,,,99,,,,,,,Space,keypress(Space),,,,,,,,---- -- ----- -- ------ - ------- --- ----------<br>------------- ------ ------ ---- ---- ------- ----- -- ----<br>-------- ------- -- ---------- --- - --- ----- ----- ----<br>---- --- --- ----- --- feel ---- ------- ----- ---- -------<br>--- --- -- ----- -- --- ---- -- --- ---- -- ------ ------<br>--- ----- -- ----,146124.845000013,146124.34999999823,145717.329,145725.2349999908,145734.101,146133.944,,33,feel
screen,html.Screen,2_1_0_1_34,2021-04-30T09:51:16.287Z,,,,,,,,,,,,,,,,,53,,,,,,,,,,,,,,291.92099999744096,,response,,,,99,,,,,,,Space,keypress(Space),,,,,,,,---- -- ----- -- ------ - ------- --- ----------<br>------------- ------ ------ ---- ---- ------- ----- -- ----<br>-------- ------- -- ---------- --- - --- ----- ----- ----<br>---- --- --- ----- --- ---- that ------- ----- ---- -------<br>--- --- -- ----- -- --- ---- -- --- ---- -- ------ ------<br>--- ----- -- ----,146426.55500001274,146425.86499999743,146117.348,146125.83999999333,146133.944,146434.031,,34,that
screen,html.Screen,2_1_0_1_35,2021-04-30T09:51:16.720Z,,,,,,,,,,,,,,,,,53,,,,,,,,,,,,,,424.6289999980654,,response,,,,99,,,,,,,Space,keypress(Space),,,,,,,,---- -- ----- -- ------ - ------- --- ----------<br>------------- ------ ------ ---- ---- ------- ----- -- ----<br>-------- ------- -- ---------- --- - --- ----- ----- ----<br>---- --- --- ----- --- ---- ---- matters ----- ---- -------<br>--- --- -- ----- -- --- ---- -- --- ---- -- ------ ------<br>--- ----- -- ----,146859.15500001283,146858.65999999805,146417.244,146426.68000000413,146434.031,146867.251,,35,matters
screen,html.Screen,2_1_0_1_36,2021-04-30T09:51:17.069Z,,,,,,,,,,,,,,,,,53,,,,,,,,,,,,,,340.04900000913767,,response,,,,99,,,,,,,Space,keypress(Space),,,,,,,,"---- -- ----- -- ------ - ------- --- ----------<br>------------- ------ ------ ---- ---- ------- ----- -- ----<br>-------- ------- -- ---------- --- - --- ----- ----- ----<br>---- --- --- ----- --- ---- ---- ------- most, ---- -------<br>--- --- -- ----- -- --- ---- -- --- ---- -- ------ ------<br>--- ----- -- ----",147207.77000000817,147207.30000000913,146850.547,146859.8650000058,146867.251,147217.279,,36,"most,"
screen,html.Screen,2_1_0_1_37,2021-04-30T09:51:17.430Z,,,,,,,,,,,,,,,,,53,,,,,,,,,,,,,,351.83100001126877,,response,,,,99,,,,,,,Space,keypress(Space),,,,,,,,---- -- ----- -- ------ - ------- --- ----------<br>------------- ------ ------ ---- ---- ------- ----- -- ----<br>-------- ------- -- ---------- --- - --- ----- ----- ----<br>---- --- --- ----- --- ---- ---- ------- ----- it's -------<br>--- --- -- ----- -- --- ---- -- --- ---- -- ------ ------<br>--- ----- -- ----,147569.59500000812,147569.11000001128,147200.648,147207.97499999753,147217.279,147583.926,,37,it's
screen,html.Screen,2_1_0_1_38,2021-04-30T09:51:17.893Z,,,,,,,,,,,,,,,,,53,,,,,,,,,,,,,,447.35900000456604,,response,,,,99,,,,,,,Space,keypress(Space),,,,,,,,---- -- ----- -- ------ - ------- --- ----------<br>------------- ------ ------ ---- ---- ------- ----- -- ----<br>-------- ------- -- ---------- --- - --- ----- ----- ----<br>---- --- --- ----- --- ---- ---- ------- ----- ---- whether<br>--- --- -- ----- -- --- ---- -- --- ---- -- ------ ------<br>--- ----- -- ----,148031.90500001074,148031.28500000457,147567.243,147569.72999998834,147583.926,148033.846,,38,whether
screen,html.Screen,2_1_0_1_39,2021-04-30T09:51:18.260Z,,,,,,,,,,,,,,,,,53,,,,,,,,,,,,,,365.27899999628426,,response,,,,99,,,,,,,Space,keypress(Space),,,,,,,,---- -- ----- -- ------ - ------- --- ----------<br>------------- ------ ------ ---- ---- ------- ----- -- ----<br>-------- ------- -- ---------- --- - --- ----- ----- ----<br>---- --- --- ----- --- ---- ---- ------- ----- ---- -------<br>you --- -- ----- -- --- ---- -- --- ---- -- ------ ------<br>--- ----- -- ----,148399.6150000021,148399.12499999627,148017.178,148032.11999998894,148033.846,148425.017,,39,you
screen,html.Screen,2_1_0_1_40,2021-04-30T09:51:18.574Z,,,,,,,,,,,,,,,,,53,,,,,,,,,,,,,,287.8229999928735,,response,,,,99,,,,,,,Space,keypress(Space),,,,,,,,---- -- ----- -- ------ - ------- --- ----------<br>------------- ------ ------ ---- ---- ------- ----- -- ----<br>-------- ------- -- ---------- --- - --- ----- ----- ----<br>---- --- --- ----- --- ---- ---- ------- ----- ---- -------<br>--- are -- ----- -- --- ---- -- --- ---- -- ------ ------<br>--- ----- -- ----,148713.3549999853,148712.83999999287,148383.927,148399.74500000244,148425.017,148717.277,,40,are
screen,html.Screen,2_1_0_1_41,2021-04-30T09:51:18.797Z,,,,,,,,,,,,,,,,,53,,,,,,,,,,,,,,218.37800000840798,,response,,,,99,,,,,,,Space,keypress(Space),,,,,,,,---- -- ----- -- ------ - ------- --- ----------<br>------------- ------ ------ ---- ---- ------- ----- -- ----<br>-------- ------- -- ---------- --- - --- ----- ----- ----<br>---- --- --- ----- --- ---- ---- ------- ----- ---- -------<br>--- --- as ----- -- --- ---- -- --- ---- -- ------ ------<br>--- ----- -- ----,148936.14000000525,148935.6550000084,148700.578,148713.48499998567,148717.277,148950.572,,41,as
screen,html.Screen,2_1_0_1_42,2021-04-30T09:51:19.199Z,,,,,,,,,,,,,,,,,53,,,,,,,,,,,,,,387.3380000020261,,response,,,,99,,,,,,,Space,keypress(Space),,,,,,,,---- -- ----- -- ------ - ------- --- ----------<br>------------- ------ ------ ---- ---- ------- ----- -- ----<br>-------- ------- -- ---------- --- - --- ----- ----- ----<br>---- --- --- ----- --- ---- ---- ------- ----- ---- -------<br>--- --- -- close -- --- ---- -- --- ---- -- ------ ------<br>--- ----- -- ----,149338.39499999885,149337.910000002,148933.922,148936.2700000056,148950.572,149350.484,,42,close
screen,html.Screen,2_1_0_1_43,2021-04-30T09:51:19.552Z,,,,,,,,,,,,,,,,,53,,,,,,,,,,,,,,340.6510000009439,,response,,,,99,,,,,,,Space,keypress(Space),,,,,,,,---- -- ----- -- ------ - ------- --- ----------<br>------------- ------ ------ ---- ---- ------- ----- -- ----<br>-------- ------- -- ---------- --- - --- ----- ----- ----<br>---- --- --- ----- --- ---- ---- ------- ----- ---- -------<br>--- --- -- ----- as --- ---- -- --- ---- -- ------ ------<br>--- ----- -- ----,149691.6649999912,149691.13500000094,149333.87,149338.51999999024,149350.484,149700.476,,43,as
screen,html.Screen,2_1_0_1_44,2021-04-30T09:51:19.842Z,,,,,,,,,,,,,,,,,53,,,,,,,,,,,,,,279.94400000714813,,response,,,,99,,,,,,,Space,keypress(Space),,,,,,,,---- -- ----- -- ------ - ------- --- ----------<br>------------- ------ ------ ---- ---- ------- ----- -- ----<br>-------- ------- -- ---------- --- - --- ----- ----- ----<br>---- --- --- ----- --- ---- ---- ------- ----- ---- -------<br>--- --- -- ----- -- you ---- -- --- ---- -- ------ ------<br>--- ----- -- ----,149980.91000001295,149980.42000000714,149683.838,149691.79499999154,149700.476,149983.762,,44,you
screen,html.Screen,2_1_0_1_45,2021-04-30T09:51:20.107Z,,,,,,,,,,,,,,,,,53,,,,,,,,,,,,,,262.2729999892181,,response,,,,99,,,,,,,Space,keypress(Space),,,,,,,,---- -- ----- -- ------ - ------- --- ----------<br>------------- ------ ------ ---- ---- ------- ----- -- ----<br>-------- ------- -- ---------- --- - --- ----- ----- ----<br>---- --- --- ----- --- ---- ---- ------- ----- ---- -------<br>--- --- -- ----- -- --- want -- --- ---- -- ------ ------<br>--- ----- -- ----,150246.6950000089,150246.0349999892,149967.169,149981.03500000434,149983.762,150250.585,,45,want
screen,html.Screen,2_1_0_1_46,2021-04-30T09:51:20.508Z,,,,,,,,,,,,,,,,,53,,,,,,,,,,,,,,395.87000000916305,,response,,,,99,,,,,,,Space,keypress(Space),,,,,,,,---- -- ----- -- ------ - ------- --- ----------<br>------------- ------ ------ ---- ---- ------- ----- -- ----<br>-------- ------- -- ---------- --- - --- ----- ----- ----<br>---- --- --- ----- --- ---- ---- ------- ----- ---- -------<br>--- --- -- ----- -- --- ---- to --- ---- -- ------ ------<br>--- ----- -- ----,150646.94499998586,150646.45500000915,150233.795,150246.81499999133,150250.585,150650.441,,46,to
screen,html.Screen,2_1_0_1_47,2021-04-30T09:51:20.869Z,,,,,,,,,,,,,,,,,53,,,,,,,,,,,,,,357.69899999082554,,response,,,,99,,,,,,,Space,keypress(Space),,,,,,,,"---- -- ----- -- ------ - ------- --- ----------<br>------------- ------ ------ ---- ---- ------- ----- -- ----<br>-------- ------- -- ---------- --- - --- ----- ----- ----<br>---- --- --- ----- --- ---- ---- ------- ----- ---- -------<br>--- --- -- ----- -- --- ---- -- be, ---- -- ------ ------<br>--- ----- -- ----",151008.60999998986,151008.13999999082,150633.832,150647.06499999738,150650.441,151017.071,,47,"be,"
screen,html.Screen,2_1_0_1_48,2021-04-30T09:51:21.254Z,,,,,,,,,,,,,,,,,53,,,,,,,,,,,,,,375.1589999976568,,response,,,,99,,,,,,,Space,keypress(Space),,,,,,,,---- -- ----- -- ------ - ------- --- ----------<br>------------- ------ ------ ---- ---- ------- ----- -- ----<br>-------- ------- -- ---------- --- - --- ----- ----- ----<br>---- --- --- ----- --- ---- ---- ------- ----- ---- -------<br>--- --- -- ----- -- --- ---- -- --- even -- ------ ------<br>--- ----- -- ----,151392.85999999265,151392.22999999765,151000.487,151008.73000000138,151017.071,151400.446,,48,even
screen,html.Screen,2_1_0_1_49,2021-04-30T09:51:21.523Z,,,,,,,,,,,,,,,,,53,,,,,,,,,,,,,,261.3139999881387,,response,,,,99,,,,,,,Space,keypress(Space),,,,,,,,---- -- ----- -- ------ - ------- --- ----------<br>------------- ------ ------ ---- ---- ------- ----- -- ----<br>-------- ------- -- ---------- --- - --- ----- ----- ----<br>---- --- --- ----- --- ---- ---- ------- ----- ---- -------<br>--- --- -- ----- -- --- ---- -- --- ---- if ------ ------<br>--- ----- -- ----,151662.2400000051,151661.75999998813,151383.784,151393.03000000655,151400.446,151667.027,,49,if
screen,html.Screen,2_1_0_1_50,2021-04-30T09:51:21.713Z,,,,,,,,,,,,,,,,,53,,,,,,,,,,,,,,184.28800000716,,response,,,,99,,,,,,,Space,keypress(Space),,,,,,,,---- -- ----- -- ------ - ------- --- ----------<br>------------- ------ ------ ---- ---- ------- ----- -- ----<br>-------- ------- -- ---------- --- - --- ----- ----- ----<br>---- --- --- ----- --- ---- ---- ------- ----- ---- -------<br>--- --- -- ----- -- --- ---- -- --- ---- -- that's ------<br>--- ----- -- ----,151851.80500001297,151851.31500000716,151650.443,151662.35500000766,151667.027,151867.097,,50,that's
screen,html.Screen,2_1_0_1_51,2021-04-30T09:51:22.122Z,,,,,,,,,,,,,,,,,53,,,,,,,,,,,,,,393.95300000096904,,response,,,,99,,,,,,,Space,keypress(Space),,,,,,,,---- -- ----- -- ------ - ------- --- ----------<br>------------- ------ ------ ---- ---- ------- ----- -- ----<br>-------- ------- -- ---------- --- - --- ----- ----- ----<br>---- --- --- ----- --- ---- ---- ------- ----- ---- -------<br>--- --- -- ----- -- --- ---- -- --- ---- -- ------ really<br>--- ----- -- ----,152261.57999999123,152261.05000000098,151850.429,151851.9249999954,151867.097,152267.081,,51,really
screen,html.Screen,2_1_0_1_52,2021-04-30T09:51:22.455Z,,,,,,,,,,,,,,,,,53,,,,,,,,,,,,,,326.3539999879431,,response,,,,99,,,,,,,Space,keypress(Space),,,,,,,,---- -- ----- -- ------ - ------- --- ----------<br>------------- ------ ------ ---- ---- ------- ----- -- ----<br>-------- ------- -- ---------- --- - --- ----- ----- ----<br>---- --- --- ----- --- ---- ---- ------- ----- ---- -------<br>--- --- -- ----- -- --- ---- -- --- ---- -- ------ ------<br>not ----- -- ----,152593.91500000493,152593.43499998795,152250.411,152261.70000000275,152267.081,152600.366,,52,not
screen,html.Screen,2_1_0_1_53,2021-04-30T09:51:22.726Z,,,,,,,,,,,,,,,,,53,,,,,,,,,,,,,,264.06899999585585,,response,,,,99,,,,,,,Space,keypress(Space),,,,,,,,---- -- ----- -- ------ - ------- --- ----------<br>------------- ------ ------ ---- ---- ------- ----- -- ----<br>-------- ------- -- ---------- --- - --- ----- ----- ----<br>---- --- --- ----- --- ---- ---- ------- ----- ---- -------<br>--- --- -- ----- -- --- ---- -- --- ---- -- ------ ------<br>--- close -- ----,152865.01999999746,152864.43499999586,152583.719,152594.06000000308,152600.366,152866.939,,53,close
screen,html.Screen,2_1_0_1_54,2021-04-30T09:51:23.108Z,,,,,,,,,,,,,,,,,53,,,,,,,,,,,,,,379.3609999988694,,response,,,,99,,,,,,,Space,keypress(Space),,,,,,,,---- -- ----- -- ------ - ------- --- ----------<br>------------- ------ ------ ---- ---- ------- ----- -- ----<br>-------- ------- -- ---------- --- - --- ----- ----- ----<br>---- --- --- ----- --- ---- ---- ------- ----- ---- -------<br>--- --- -- ----- -- --- ---- -- --- ---- -- ------ ------<br>--- ----- at ----,153246.81499999133,153246.29999999888,152850.358,152865.1499999978,152866.939,153250.344,,54,at
screen,html.Screen,2_1_0_1_55,2021-04-30T09:51:24.814Z,,,,,,,,,,,,,,,,,53,,,,,,,,,,,,,,1702.1459999960207,,response,,,,99,,,,,,,Space,keypress(Space),,,,,,,,---- -- ----- -- ------ - ------- --- ----------<br>------------- ------ ------ ---- ---- ------- ----- -- ----<br>-------- ------- -- ---------- --- - --- ----- ----- ----<br>---- --- --- ----- --- ---- ---- ------- ----- ---- -------<br>--- --- -- ----- -- --- ---- -- --- ---- -- ------ ------<br>--- ----- -- all.,154952.99499999965,154952.48999999603,153233.589,153246.93500000285,153250.344,154966.948,,55,all.
Item 99,flow.Loop,2_1_0_1,2021-04-30T09:51:24.814Z,,,,,,,,,,,,,,,,,,,,,,,,,,,,,,,20767.882999996044,,completion,,,,,B,,,,,,,,,,,silence,,,,,154953.23499999358,154952.48999999603,134167.941,134168.92999998527,134184.607,154966.948,,,
Question 1,html.Screen,2_1_0_2,2021-04-30T09:51:28.215Z,,,,,,,,,,,,,,,,,,,,,,,,,,,,true,FALSE,,3386.8119999981427,,response,,,,99,B,,,,,,FALSE,click #choice-2,,,,silence,,,,,158354.56999999587,158353.75999999815,154950.204,154953.34499998717,154966.948,158366.772,,,
Question 2,html.Screen,2_1_0_3,2021-04-30T09:51:32.879Z,,,,,,,,,,,,,,,,,,,,,,,,,,,,true,TRUE,,4651.067999985884,,response,,,,99,B,,,,,,TRUE,click #choice-1,,,,silence,,,,,163018.6349999858,163017.83999998588,158350.132,158354.70999998506,158366.772,163033.176,,,
Item 99,flow.Sequence,2_1_0,2021-04-30T09:51:32.880Z,,,,,,,,,,,,,,,,,,,,,,,,,,,,,,,38832.74099998588,,completion,,,,,,,,,,,,,,,,,,,,,163018.84500001324,163017.83999998588,124168.339,124155.0200000056,124185.099,163033.176,,,
Holding screen,html.Screen,2_1_1_0,2021-04-30T09:51:42.877Z,,,,,,,,,,,,,,,,,,,,,,,,,,,,,,,9999.511999999988,,timeout,,,,,,,,,,,,,,,,,,,,,173016.57000000705,173016.062,163016.551,163018.97999999346,163033.176,173032.688,,,
screen,html.Screen,2_1_1_1_0,2021-04-30T09:51:43.578Z,,,,,,,,,,,,,,,,,54,,,,,,,,,,,,,,683.4720000108646,,response,,,,100,,,,,,,Space,keypress(Space),,,,,,,,At --- ---- --- ------ ----- ------- ---- -- --- ------- --<br>------- ---------- ------ -- ----- -- ----- -- ---- ------<br>--- ----- --- --- ------ -------- ----- --- ------ ----- --<br>----- ----- ---------- --- --- ------ ------ ---- -- ------<br>------- --- ------ ----- --- ---- ------- -- ---- --- --<br>------- ------,173716.82500001043,173716.16000001086,173016.062,173016.730000003,173032.688,173732.677,,0,At
screen,html.Screen,2_1_1_1_1,2021-04-30T09:51:43.779Z,,,,,,,,,,,,,,,,,54,,,,,,,,,,,,,,184.66799999438808,,response,,,,100,,,,,,,Space,keypress(Space),,,,,,,,-- the ---- --- ------ ----- ------- ---- -- --- ------- --<br>------- ---------- ------ -- ----- -- ----- -- ---- ------<br>--- ----- --- --- ------ -------- ----- --- ------ ----- --<br>----- ----- ---------- --- --- ------ ------ ---- -- ------<br>------- --- ------ ----- --- ---- ------- -- ---- --- --<br>------- ------,173917.8050000046,173917.34499999438,173716.019,173716.94499999285,173732.677,173932.663,,1,the
screen,html.Screen,2_1_1_1_2,2021-04-30T09:51:44.017Z,,,,,,,,,,,,,,,,,54,,,,,,,,,,,,,,222.7269999998971,,response,,,,100,,,,,,,Space,keypress(Space),,,,,,,,-- --- time --- ------ ----- ------- ---- -- --- ------- --<br>------- ---------- ------ -- ----- -- ----- -- ---- ------<br>--- ----- --- --- ------ -------- ----- --- ------ ----- --<br>----- ----- ---------- --- --- ------ ------ ---- -- ------<br>------- --- ------ ----- --- ---- ------- -- ---- --- --<br>------- ------,174155.8500000101,174155.3899999999,173916.034,173917.92999999598,173932.663,174166.041,,2,time
screen,html.Screen,2_1_1_1_3,2021-04-30T09:51:44.336Z,,,,,,,,,,,,,,,,,54,,,,,,,,,,,,,,308.59399999139714,,response,,,,100,,,,,,,Space,keypress(Space),,,,,,,,-- --- ---- the ------ ----- ------- ---- -- --- ------- --<br>------- ---------- ------ -- ----- -- ----- -- ---- ------<br>--- ----- --- --- ------ -------- ----- --- ------ ----- --<br>----- ----- ---------- --- --- ------ ------ ---- -- ------<br>------- --- ------ ----- --- ---- ------- -- ---- --- --<br>------- ------,174475.17499999958,174474.6349999914,174149.27,174155.96999999252,174166.041,174482.666,,3,the
screen,html.Screen,2_1_1_1_4,2021-04-30T09:51:44.520Z,,,,,,,,,,,,,,,,,54,,,,,,,,,,,,,,176.20899999371613,,response,,,,100,,,,,,,Space,keypress(Space),,,,,,,,-- --- ---- --- French ----- ------- ---- -- --- ------- --<br>------- ---------- ------ -- ----- -- ----- -- ---- ------<br>--- ----- --- --- ------ -------- ----- --- ------ ----- --<br>----- ----- ---------- --- --- ------ ------ ---- -- ------<br>------- --- ------ ----- --- ---- ------- -- ---- --- --<br>------- ------,174659.40500001307,174658.8749999937,174465.952,174475.2950000111,174482.666,174666.011,,4,French
screen,html.Screen,2_1_1_1_5,2021-04-30T09:51:44.704Z,,,,,,,,,,,,,,,,,54,,,,,,,,,,,,,,176.29900000727503,,response,,,,100,,,,,,,Space,keypress(Space),,,,,,,,-- --- ---- --- ------ crown ------- ---- -- --- ------- --<br>------- ---------- ------ -- ----- -- ----- -- ---- ------<br>--- ----- --- --- ------ -------- ----- --- ------ ----- --<br>----- ----- ---------- --- --- ------ ------ ---- -- ------<br>------- --- ------ ----- --- ---- ------- -- ---- --- --<br>------- ------,174842.7650000085,174842.31000000727,174649.325,174659.52499999548,174666.011,174849.307,,5,crown
screen,html.Screen,2_1_1_1_6,2021-04-30T09:51:45.114Z,,,,,,,,,,,,,,,,,54,,,,,,,,,,,,,,403.8829999885347,,response,,,,100,,,,,,,Space,keypress(Space),,,,,,,,-- --- ---- --- ------ ----- secured ---- -- --- ------- --<br>------- ---------- ------ -- ----- -- ----- -- ---- ------<br>--- ----- --- --- ------ -------- ----- --- ------ ----- --<br>----- ----- ---------- --- --- ------ ------ ---- -- ------<br>------- --- ------ ----- --- ---- ------- -- ---- --- --<br>------- ------,175253.6550000077,175253.18999998854,174832.636,174842.8899999999,174849.307,175265.993,,6,secured
screen,html.Screen,2_1_1_1_7,2021-04-30T09:51:45.487Z,,,,,,,,,,,,,,,,,54,,,,,,,,,,,,,,360.056999991677,,response,,,,100,,,,,,,Space,keypress(Space),,,,,,,,-- --- ---- --- ------ ----- ------- much -- --- ------- --<br>------- ---------- ------ -- ----- -- ----- -- ---- ------<br>--- ----- --- --- ------ -------- ----- --- ------ ----- --<br>----- ----- ---------- --- --- ------ ------ ---- -- ------<br>------- --- ------ ----- --- ---- ------- -- ---- --- --<br>------- ------,175626.51500001084,175626.04999999166,175249.252,175253.77499999013,175265.993,175632.615,,7,much
screen,html.Screen,2_1_1_1_8,2021-04-30T09:51:45.938Z,,,,,,,,,,,,,,,,,54,,,,,,,,,,,,,,444.2699999876786,,response,,,,100,,,,,,,Space,keypress(Space),,,,,,,,-- --- ---- --- ------ ----- ------- ---- of --- ------- --<br>------- ---------- ------ -- ----- -- ----- -- ---- ------<br>--- ----- --- --- ------ -------- ----- --- ------ ----- --<br>----- ----- ---------- --- --- ------ ------ ---- -- ------<br>------- --- ------ ----- --- ---- ------- -- ---- --- --<br>------- ------,176077.39500000025,176076.88499998767,175615.923,175626.63499999326,175632.615,176082.507,,8,of
screen,html.Screen,2_1_1_1_9,2021-04-30T09:51:46.223Z,,,,,,,,,,,,,,,,,54,,,,,,,,,,,,,,279.4629999980971,,response,,,,100,,,,,,,Space,keypress(Space),,,,,,,,-- --- ---- --- ------ ----- ------- ---- -- its ------- --<br>------- ---------- ------ -- ----- -- ----- -- ---- ------<br>--- ----- --- --- ------ -------- ----- --- ------ ----- --<br>----- ----- ---------- --- --- ------ ------ ---- -- ------<br>------- --- ------ ----- --- ---- ------- -- ---- --- --<br>------- ------,176362.5549999997,176361.9699999981,176065.907,176077.51999999164,176082.507,176365.812,,9,its
screen,html.Screen,2_1_1_1_10,2021-04-30T09:51:46.454Z,,,,,,,,,,,,,,,,,54,,,,,,,,,,,,,,226.90799998599687,,response,,,,100,,,,,,,Space,keypress(Space),,,,,,,,-- --- ---- --- ------ ----- ------- ---- -- --- revenue --<br>------- ---------- ------ -- ----- -- ----- -- ---- ------<br>--- ----- --- --- ------ -------- ----- --- ------ ----- --<br>----- ----- ---------- --- --- ------ ------ ---- -- ------<br>------- --- ------ ----- --- ---- ------- -- ---- --- --<br>------- ------,176593.20000000298,176592.719999986,176349.218,176362.68500000006,176365.812,176599.227,,10,revenue
screen,html.Screen,2_1_1_1_11,2021-04-30T09:51:46.898Z,,,,,,,,,,,,,,,,,54,,,,,,,,,,,,,,437.08800000482006,,response,,,,100,,,,,,,Space,keypress(Space),,,,,,,,-- --- ---- --- ------ ----- ------- ---- -- --- ------- by<br>------- ---------- ------ -- ----- -- ----- -- ---- ------<br>--- ----- --- --- ------ -------- ----- --- ------ ----- --<br>----- ----- ---------- --- --- ------ ------ ---- -- ------<br>------- --- ------ ----- --- ---- ------- -- ---- --- --<br>------- ------,177036.83500000625,177036.31500000483,176582.594,176593.3199999854,176599.227,177049.211,,11,by
screen,html.Screen,2_1_1_1_12,2021-04-30T09:51:47.385Z,,,,,,,,,,,,,,,,,54,,,,,,,,,,,,,,474.65399999555666,,response,,,,100,,,,,,,Space,keypress(Space),,,,,,,,-- --- ---- --- ------ ----- ------- ---- -- --- ------- --<br>issuing ---------- ------ -- ----- -- ----- -- ---- ------<br>--- ----- --- --- ------ -------- ----- --- ------ ----- --<br>----- ----- ---------- --- --- ------ ------ ---- -- ------<br>------- --- ------ ----- --- ---- ------- -- ---- --- --<br>------- ------,177524.34500001254,177523.86499999557,177032.518,177036.9950000022,177049.211,177532.519,,12,issuing
screen,html.Screen,2_1_1_1_13,2021-04-30T09:51:47.936Z,,,,,,,,,,,,,,,,,54,,,,,,,,,,,,,,542.2360000087356,,response,,,,100,,,,,,,Space,keypress(Space),,,,,,,,-- --- ---- --- ------ ----- ------- ---- -- --- ------- --<br>------- government ------ -- ----- -- ----- -- ---- ------<br>--- ----- --- --- ------ -------- ----- --- ------ ----- --<br>----- ----- ---------- --- --- ------ ------ ---- -- ------<br>------- --- ------ ----- --- ---- ------- -- ---- --- --<br>------- ------,178075.22999998764,178074.75500000874,177515.846,177524.47999999276,177532.519,178082.447,,13,government
screen,html.Screen,2_1_1_1_14,2021-04-30T09:51:48.291Z,,,,,,,,,,,,,,,,,54,,,,,,,,,,,,,,347.6430000089458,,response,,,,100,,,,,,,Space,keypress(Space),,,,,,,,-- --- ---- --- ------ ----- ------- ---- -- --- ------- --<br>------- ---------- bonds. -- ----- -- ----- -- ---- ------<br>--- ----- --- --- ------ -------- ----- --- ------ ----- --<br>----- ----- ---------- --- --- ------ ------ ---- -- ------<br>------- --- ------ ----- --- ---- ------- -- ---- --- --<br>------- ------,178430.5699999968,178430.09000000893,178065.751,178075.359999988,178082.447,178432.374,,14,bonds.
screen,html.Screen,2_1_1_1_15,2021-04-30T09:51:50.561Z,,,,,,,,,,,,,,,,,54,,,,,,,,,,,,,,2267.015999994299,,response,,,,100,,,,,,,Space,keypress(Space),,,,,,,,-- --- ---- --- ------ ----- ------- ---- -- --- ------- --<br>------- ---------- ------ In ----- -- ----- -- ---- ------<br>--- ----- --- --- ------ -------- ----- --- ------ ----- --<br>----- ----- ---------- --- --- ------ ------ ---- -- ------<br>------- --- ------ ----- --- ---- ------- -- ---- --- --<br>------- ------,180699.90499998676,180699.3899999943,178415.739,178430.68499999936,178432.374,180715.688,,15,In
screen,html.Screen,2_1_1_1_16,2021-04-30T09:51:51.374Z,,,,,,,,,,,,,,,,,54,,,,,,,,,,,,,,796.987000005407,,response,,,,100,,,,,,,Space,keypress(Space),,,,,,,,"-- --- ---- --- ------ ----- ------- ---- -- --- ------- --<br>------- ---------- ------ -- 1727, -- ----- -- ---- ------<br>--- ----- --- --- ------ -------- ----- --- ------ ----- --<br>----- ----- ---------- --- --- ------ ------ ---- -- ------<br>------- --- ------ ----- --- ---- ------- -- ---- --- --<br>------- ------",181513.18499998888,181512.6750000054,180698.944,180700.02499999828,180715.688,181515.558,,16,"1727,"
screen,html.Screen,2_1_1_1_17,2021-04-30T09:51:52.333Z,,,,,,,,,,,,,,,,,54,,,,,,,,,,,,,,955.8870000028692,,response,,,,100,,,,,,,Space,keypress(Space),,,,,,,,-- --- ---- --- ------ ----- ------- ---- -- --- ------- --<br>------- ---------- ------ -- ----- in ----- -- ---- ------<br>--- ----- --- --- ------ -------- ----- --- ------ ----- --<br>----- ----- ---------- --- --- ------ ------ ---- -- ------<br>------- --- ------ ----- --- ---- ------- -- ---- --- --<br>------- ------,182471.93999998854,182471.44500000286,181498.935,181513.31000000937,181515.558,182482.212,,17,in
screen,html.Screen,2_1_1_1_18,2021-04-30T09:51:52.697Z,,,,,,,,,,,,,,,,,54,,,,,,,,,,,,,,353.452999991423,,response,,,,100,,,,,,,Space,keypress(Space),,,,,,,,-- --- ---- --- ------ ----- ------- ---- -- --- ------- --<br>------- ---------- ------ -- ----- -- order -- ---- ------<br>--- ----- --- --- ------ -------- ----- --- ------ ----- --<br>----- ----- ---------- --- --- ------ ------ ---- -- ------<br>------- --- ------ ----- --- ---- ------- -- ---- --- --<br>------- ------,182836.13499999046,182835.66499999142,182465.48,182472.08000000683,182482.212,182848.927,,18,order
screen,html.Screen,2_1_1_1_19,2021-04-30T09:51:52.962Z,,,,,,,,,,,,,,,,,54,,,,,,,,,,,,,,252.45300000734278,,response,,,,100,,,,,,,Space,keypress(Space),,,,,,,,-- --- ---- --- ------ ----- ------- ---- -- --- ------- --<br>------- ---------- ------ -- ----- -- ----- to ---- ------<br>--- ----- --- --- ------ -------- ----- --- ------ ----- --<br>----- ----- ---------- --- --- ------ ------ ---- -- ------<br>------- --- ------ ----- --- ---- ------- -- ---- --- --<br>------- ------,183101.8599999952,183101.38000000734,182832.258,182836.25500000198,182848.927,183115.602,,19,to
screen,html.Screen,2_1_1_1_20,2021-04-30T09:51:53.130Z,,,,,,,,,,,,,,,,,54,,,,,,,,,,,,,,153.66799998976057,,response,,,,100,,,,,,,Space,keypress(Space),,,,,,,,-- --- ---- --- ------ ----- ------- ---- -- --- ------- --<br>------- ---------- ------ -- ----- -- ----- -- save ------<br>--- ----- --- --- ------ -------- ----- --- ------ ----- --<br>----- ----- ---------- --- --- ------ ------ ---- -- ------<br>------- --- ------ ----- --- ---- ------- -- ---- --- --<br>------- ------,183269.78000000236,183269.26999998977,183098.899,183102.00499999337,183115.602,183282.245,,20,save
screen,html.Screen,2_1_1_1_21,2021-04-30T09:51:53.515Z,,,,,,,,,,,,,,,,,54,,,,,,,,,,,,,,371.15000000118744,,response,,,,100,,,,,,,Space,keypress(Space),,,,,,,,"-- --- ---- --- ------ ----- ------- ---- -- --- ------- --<br>------- ---------- ------ -- ----- -- ----- -- ---- money,<br>--- ----- --- --- ------ -------- ----- --- ------ ----- --<br>----- ----- ---------- --- --- ------ ------ ---- -- ------<br>------- --- ------ ----- --- ---- ------- -- ---- --- --<br>------- ------",183653.885000007,183653.39500000118,183265.564,183269.9100000027,183282.245,183665.582,,21,"money,"
screen,html.Screen,2_1_1_1_22,2021-04-30T09:51:54.412Z,,,,,,,,,,,,,,,,,54,,,,,,,,,,,,,,885.2929999862681,,response,,,,100,,,,,,,Space,keypress(Space),,,,,,,,-- --- ---- --- ------ ----- ------- ---- -- --- ------- --<br>------- ---------- ------ -- ----- -- ----- -- ---- ------<br>the ----- --- --- ------ -------- ----- --- ------ ----- --<br>----- ----- ---------- --- --- ------ ------ ---- -- ------<br>------- --- ------ ----- --- ---- ------- -- ---- --- --<br>------- ------,184551.37999998988,184550.87499998626,183648.82,183654.0049999894,183665.582,184565.471,,22,the
screen,html.Screen,2_1_1_1_23,2021-04-30T09:51:55.183Z,,,,,,,,,,,,,,,,,54,,,,,,,,,,,,,,756.7340000040422,,response,,,,100,,,,,,,Space,keypress(Space),,,,,,,,-- --- ---- --- ------ ----- ------- ---- -- --- ------- --<br>------- ---------- ------ -- ----- -- ----- -- ---- ------<br>--- state --- --- ------ -------- ----- --- ------ ----- --<br>----- ----- ---------- --- --- ------ ------ ---- -- ------<br>------- --- ------ ----- --- ---- ------- -- ---- --- --<br>------- ------,185322.69000000088,185322.20500000403,184548.788,184551.49499999243,184565.471,185332.13,,23,state
screen,html.Screen,2_1_1_1_24,2021-04-30T09:51:55.618Z,,,,,,,,,,,,,,,,,54,,,,,,,,,,,,,,424.62999998929445,,response,,,,100,,,,,,,Space,keypress(Space),,,,,,,,-- --- ---- --- ------ ----- ------- ---- -- --- ------- --<br>------- ---------- ------ -- ----- -- ----- -- ---- ------<br>--- ----- cut --- ------ -------- ----- --- ------ ----- --<br>----- ----- ---------- --- --- ------ ------ ---- -- ------<br>------- --- ------ ----- --- ---- ------- -- ---- --- --<br>------- ------,185757.3299999931,185756.7599999893,185315.442,185322.83499999903,185332.13,185765.433,,24,cut
screen,html.Screen,2_1_1_1_25,2021-04-30T09:51:55.887Z,,,,,,,,,,,,,,,,,54,,,,,,,,,,,,,,260.2969999939378,,response,,,,100,,,,,,,Space,keypress(Space),,,,,,,,-- --- ---- --- ------ ----- ------- ---- -- --- ------- --<br>------- ---------- ------ -- ----- -- ----- -- ---- ------<br>--- ----- --- the ------ -------- ----- --- ------ ----- --<br>----- ----- ---------- --- --- ------ ------ ---- -- ------<br>------- --- ------ ----- --- ---- ------- -- ---- --- --<br>------- ------,186026.37000000686,186025.72999999393,185748.781,185757.4500000046,185765.433,186032.085,,25,the
screen,html.Screen,2_1_1_1_26,2021-04-30T09:51:56.118Z,,,,,,,,,,,,,,,,,54,,,,,,,,,,,,,,224.43499999537016,,response,,,,100,,,,,,,Space,keypress(Space),,,,,,,,-- --- ---- --- ------ ----- ------- ---- -- --- ------- --<br>------- ---------- ------ -- ----- -- ----- -- ---- ------<br>--- ----- --- --- bonds' -------- ----- --- ------ ----- --<br>----- ----- ---------- --- --- ------ ------ ---- -- ------<br>------- --- ------ ----- --- ---- ------- -- ---- --- --<br>------- ------,186257.01500001014,186256.51999999536,186015.434,186026.48999998928,186032.085,186265.437,,26,bonds'
screen,html.Screen,2_1_1_1_27,2021-04-30T09:51:56.472Z,,,,,,,,,,,,,,,,,54,,,,,,,,,,,,,,345.5079999930749,,response,,,,100,,,,,,,Space,keypress(Space),,,,,,,,-- --- ---- --- ------ ----- ------- ---- -- --- ------- --<br>------- ---------- ------ -- ----- -- ----- -- ---- ------<br>--- ----- --- --- ------ interest ----- --- ------ ----- --<br>----- ----- ---------- --- --- ------ ------ ---- -- ------<br>------- --- ------ ----- --- ---- ------- -- ---- --- --<br>------- ------,186611.4200000011,186610.94499999308,186248.735,186257.13499999256,186265.437,186615.414,,27,interest
screen,html.Screen,2_1_1_1_28,2021-04-30T09:51:56.686Z,,,,,,,,,,,,,,,,,54,,,,,,,,,,,,,,209.45600001129787,,response,,,,100,,,,,,,Space,keypress(Space),,,,,,,,-- --- ---- --- ------ ----- ------- ---- -- --- ------- --<br>------- ---------- ------ -- ----- -- ----- -- ---- ------<br>--- ----- --- --- ------ -------- rate. --- ------ ----- --<br>----- ----- ---------- --- --- ------ ------ ---- -- ------<br>------- --- ------ ----- --- ---- ------- -- ---- --- --<br>------- ------,186825.35500000813,186824.8700000113,186598.716,186611.56499999925,186615.414,186832.05,,28,rate.
screen,html.Screen,2_1_1_1_29,2021-04-30T09:51:57.878Z,,,,,,,,,,,,,,,,,54,,,,,,,,,,,,,,1185.144999993092,,response,,,,100,,,,,,,Space,keypress(Space),,,,,,,,-- --- ---- --- ------ ----- ------- ---- -- --- ------- --<br>------- ---------- ------ -- ----- -- ----- -- ---- ------<br>--- ----- --- --- ------ -------- ----- The ------ ----- --<br>----- ----- ---------- --- --- ------ ------ ---- -- ------<br>------- --- ------ ----- --- ---- ------- -- ---- --- --<br>------- ------,188017.70500000566,188017.19499999308,186815.389,186825.49499999732,186832.05,188031.914,,29,The
screen,html.Screen,2_1_1_1_30,2021-04-30T09:51:58.239Z,,,,,,,,,,,,,,,,,54,,,,,,,,,,,,,,345.5710000045365,,response,,,,100,,,,,,,Space,keypress(Space),,,,,,,,-- --- ---- --- ------ ----- ------- ---- -- --- ------- --<br>------- ---------- ------ -- ----- -- ----- -- ---- ------<br>--- ----- --- --- ------ -------- ----- --- market ----- --<br>----- ----- ---------- --- --- ------ ------ ---- -- ------<br>------- --- ------ ----- --- ---- ------- -- ---- --- --<br>------- ------,188377.92999998783,188377.48500000453,188015.283,188017.83999998588,188031.914,188381.955,,30,market
screen,html.Screen,2_1_1_1_31,2021-04-30T09:51:58.490Z,,,,,,,,,,,,,,,,,54,,,,,,,,,,,,,,246.94500001062988,,response,,,,100,,,,,,,Space,keypress(Space),,,,,,,,-- --- ---- --- ------ ----- ------- ---- -- --- ------- --<br>------- ---------- ------ -- ----- -- ----- -- ---- ------<br>--- ----- --- --- ------ -------- ----- --- ------ value --<br>----- ----- ---------- --- --- ------ ------ ---- -- ------<br>------- --- ------ ----- --- ---- ------- -- ---- --- --<br>------- ------,188629.38500000746,188628.90000001062,188365.288,188378.05500000832,188381.955,188631.88,,31,value
screen,html.Screen,2_1_1_1_32,2021-04-30T09:51:58.838Z,,,,,,,,,,,,,,,,,54,,,,,,,,,,,,,,344.9749999862397,,response,,,,100,,,,,,,Space,keypress(Space),,,,,,,,-- --- ---- --- ------ ----- ------- ---- -- --- ------- --<br>------- ---------- ------ -- ----- -- ----- -- ---- ------<br>--- ----- --- --- ------ -------- ----- --- ------ ----- of<br>----- ----- ---------- --- --- ------ ------ ---- -- ------<br>------- --- ------ ----- --- ---- ------- -- ---- --- --<br>------- ------,188977.37499998766,188976.85499998624,188615.335,188629.50999999885,188631.88,188981.876,,32,of
screen,html.Screen,2_1_1_1_33,2021-04-30T09:51:59.215Z,,,,,,,,,,,,,,,,,54,,,,,,,,,,,,,,372.0540000120527,,response,,,,100,,,,,,,Space,keypress(Space),,,,,,,,-- --- ---- --- ------ ----- ------- ---- -- --- ------- --<br>------- ---------- ------ -- ----- -- ----- -- ---- ------<br>--- ----- --- --- ------ -------- ----- --- ------ ----- --<br>these ----- ---------- --- --- ------ ------ ---- -- ------<br>------- --- ------ ----- --- ---- ------- -- ---- --- --<br>------- ------,189354.70999998506,189353.93000001204,188965.277,188977.49499999918,188981.876,189365.275,,33,these
screen,html.Screen,2_1_1_1_34,2021-04-30T09:51:59.476Z,,,,,,,,,,,,,,,,,54,,,,,,,,,,,,,,249.1549999869021,,response,,,,100,,,,,,,Space,keypress(Space),,,,,,,,-- --- ---- --- ------ ----- ------- ---- -- --- ------- --<br>------- ---------- ------ -- ----- -- ----- -- ---- ------<br>--- ----- --- --- ------ -------- ----- --- ------ ----- --<br>----- bonds ---------- --- --- ------ ------ ---- -- ------<br>------- --- ------ ----- --- ---- ------- -- ---- --- --<br>------- ------,189614.9499999883,189614.4299999869,189348.57,189354.82999999658,189365.275,189631.964,,34,bonds
screen,html.Screen,2_1_1_1_35,2021-04-30T09:51:59.848Z,,,,,,,,,,,,,,,,,54,,,,,,,,,,,,,,355.3710000125284,,response,,,,100,,,,,,,Space,keypress(Space),,,,,,,,"-- --- ---- --- ------ ----- ------- ---- -- --- ------- --<br>------- ---------- ------ -- ----- -- ----- -- ---- ------<br>--- ----- --- --- ------ -------- ----- --- ------ ----- --<br>----- ----- plummeted, --- --- ------ ------ ---- -- ------<br>------- --- ------ ----- --- ---- ------- -- ---- --- --<br>------- ------",189987.8000000026,189987.33500001254,189615.134,189615.0750000088,189631.964,189998.586,,35,"plummeted,"
screen,html.Screen,2_1_1_1_36,2021-04-30T09:52:01.790Z,,,,,,,,,,,,,,,,,54,,,,,,,,,,,,,,1930.3239999877987,,response,,,,100,,,,,,,Space,keypress(Space),,,,,,,,-- --- ---- --- ------ ----- ------- ---- -- --- ------- --<br>------- ---------- ------ -- ----- -- ----- -- ---- ------<br>--- ----- --- --- ------ -------- ----- --- ------ ----- --<br>----- ----- ---------- and --- ------ ------ ---- -- ------<br>------- --- ------ ----- --- ---- ------- -- ---- --- --<br>------- ------,191929.41000001156,191928.9099999878,189981.9,189987.924999994,189998.586,191931.706,,36,and
screen,html.Screen,2_1_1_1_37,2021-04-30T09:52:02.664Z,,,,,,,,,,,,,,,,,54,,,,,,,,,,,,,,871.4639999992214,,response,,,,100,,,,,,,Space,keypress(Space),,,,,,,,-- --- ---- --- ------ ----- ------- ---- -- --- ------- --<br>------- ---------- ------ -- ----- -- ----- -- ---- ------<br>--- ----- --- --- ------ -------- ----- --- ------ ----- --<br>----- ----- ---------- --- the ------ ------ ---- -- ------<br>------- --- ------ ----- --- ---- ------- -- ---- --- --<br>------- ------,192803.67500000284,192803.16999999923,191914.953,191929.53500000294,191931.706,192815.1,,37,the
screen,html.Screen,2_1_1_1_38,2021-04-30T09:52:03.003Z,,,,,,,,,,,,,,,,,54,,,,,,,,,,,,,,326.99999999729334,,response,,,,100,,,,,,,Space,keypress(Space),,,,,,,,-- --- ---- --- ------ ----- ------- ---- -- --- ------- --<br>------- ---------- ------ -- ----- -- ----- -- ---- ------<br>--- ----- --- --- ------ -------- ----- --- ------ ----- --<br>----- ----- ---------- --- --- market ------ ---- -- ------<br>------- --- ------ ----- --- ---- ------- -- ---- --- --<br>------- ------,193142.58499999414,193142.0999999973,192798.388,192803.79499998526,192815.1,193148.422,,38,market
screen,html.Screen,2_1_1_1_39,2021-04-30T09:52:03.317Z,,,,,,,,,,,,,,,,,54,,,,,,,,,,,,,,307.67300000137766,,response,,,,100,,,,,,,Space,keypress(Space),,,,,,,,-- --- ---- --- ------ ----- ------- ---- -- --- ------- --<br>------- ---------- ------ -- ----- -- ----- -- ---- ------<br>--- ----- --- --- ------ -------- ----- --- ------ ----- --<br>----- ----- ---------- --- --- ------ became ---- -- ------<br>------- --- ------ ----- --- ---- ------- -- ---- --- --<br>------- ------,193456.594999996,193456.09500000137,193131.742,193142.70999998553,193148.422,193465.069,,39,became
screen,html.Screen,2_1_1_1_40,2021-04-30T09:52:03.672Z,,,,,,,,,,,,,,,,,54,,,,,,,,,,,,,,345.72099998863996,,response,,,,100,,,,,,,Space,keypress(Space),,,,,,,,-- --- ---- --- ------ ----- ------- ---- -- --- ------- --<br>------- ---------- ------ -- ----- -- ----- -- ---- ------<br>--- ----- --- --- ------ -------- ----- --- ------ ----- --<br>----- ----- ---------- --- --- ------ ------ wary -- ------<br>------- --- ------ ----- --- ---- ------- -- ---- --- --<br>------- ------,193811.3000000012,193810.78999998863,193448.3,193456.71500000753,193465.069,193815.061,,40,wary
screen,html.Screen,2_1_1_1_41,2021-04-30T09:52:03.916Z,,,,,,,,,,,,,,,,,54,,,,,,,,,,,,,,239.76900000823662,,response,,,,100,,,,,,,Space,keypress(Space),,,,,,,,-- --- ---- --- ------ ----- ------- ---- -- --- ------- --<br>------- ---------- ------ -- ----- -- ----- -- ---- ------<br>--- ----- --- --- ------ -------- ----- --- ------ ----- --<br>----- ----- ---------- --- --- ------ ------ ---- of ------<br>------- --- ------ ----- --- ---- ------- -- ---- --- --<br>------- ------,194055.3399999917,194054.83000000822,193798.364,193811.4399999904,193815.061,194065.07,,41,of
screen,html.Screen,2_1_1_1_42,2021-04-30T09:52:04.267Z,,,,,,,,,,,,,,,,,54,,,,,,,,,,,,,,340.8649999879417,,response,,,,100,,,,,,,Space,keypress(Space),,,,,,,,-- --- ---- --- ------ ----- ------- ---- -- --- ------- --<br>------- ---------- ------ -- ----- -- ----- -- ---- ------<br>--- ----- --- --- ------ -------- ----- --- ------ ----- --<br>----- ----- ---------- --- --- ------ ------ ---- -- French<br>------- --- ------ ----- --- ---- ------- -- ---- --- --<br>------- ------,194406.4350000117,194405.93499998795,194048.376,194055.48499998986,194065.07,194415.058,,42,French
screen,html.Screen,2_1_1_1_43,2021-04-30T09:52:04.612Z,,,,,,,,,,,,,,,,,54,,,,,,,,,,,,,,335.8420000136539,,response,,,,100,,,,,,,Space,keypress(Space),,,,,,,,-- --- ---- --- ------ ----- ------- ---- -- --- ------- --<br>------- ---------- ------ -- ----- -- ----- -- ---- ------<br>--- ----- --- --- ------ -------- ----- --- ------ ----- --<br>----- ----- ---------- --- --- ------ ------ ---- -- ------<br>credit. --- ------ ----- --- ---- ------- -- ---- --- --<br>------- ------,194751.4150000061,194750.90000001364,194398.345,194406.58000000985,194415.058,194764.909,,43,credit.
screen,html.Screen,2_1_1_1_44,2021-04-30T09:52:05.703Z,,,,,,,,,,,,,,,,,54,,,,,,,,,,,,,,1076.8059999877296,,response,,,,100,,,,,,,Space,keypress(Space),,,,,,,,-- --- ---- --- ------ ----- ------- ---- -- --- ------- --<br>------- ---------- ------ -- ----- -- ----- -- ---- ------<br>--- ----- --- --- ------ -------- ----- --- ------ ----- --<br>----- ----- ---------- --- --- ------ ------ ---- -- ------<br>------- The ------ ----- --- ---- ------- -- ---- --- --<br>------- ------,195842.19500000472,195841.71499998774,194748.233,194751.5349999885,194764.909,195848.297,,44,The
screen,html.Screen,2_1_1_1_45,2021-04-30T09:52:06.116Z,,,,,,,,,,,,,,,,,54,,,,,,,,,,,,,,407.0480000123207,,response,,,,100,,,,,,,Space,keypress(Space),,,,,,,,-- --- ---- --- ------ ----- ------- ---- -- --- ------- --<br>------- ---------- ------ -- ----- -- ----- -- ---- ------<br>--- ----- --- --- ------ -------- ----- --- ------ ----- --<br>----- ----- ---------- --- --- ------ ------ ---- -- ------<br>------- --- French ----- --- ---- ------- -- ---- --- --<br>------- ------,196255.86000000476,196255.3450000123,195831.525,195842.31499998714,195848.297,196264.932,,45,French
screen,html.Screen,2_1_1_1_46,2021-04-30T09:52:06.508Z,,,,,,,,,,,,,,,,,54,,,,,,,,,,,,,,381.95800000362215,,response,,,,100,,,,,,,Space,keypress(Space),,,,,,,,-- --- ---- --- ------ ----- ------- ---- -- --- ------- --<br>------- ---------- ------ -- ----- -- ----- -- ---- ------<br>--- ----- --- --- ------ -------- ----- --- ------ ----- --<br>----- ----- ---------- --- --- ------ ------ ---- -- ------<br>------- --- ------ state --- ---- ------- -- ---- --- --<br>------- ------,196647.42500000284,196646.89000000362,196248.241,196255.98499999614,196264.932,196673.579,,46,state
screen,html.Screen,2_1_1_1_47,2021-04-30T09:52:06.806Z,,,,,,,,,,,,,,,,,54,,,,,,,,,,,,,,271.4609999914246,,response,,,,100,,,,,,,Space,keypress(Space),,,,,,,,-- --- ---- --- ------ ----- ------- ---- -- --- ------- --<br>------- ---------- ------ -- ----- -- ----- -- ---- ------<br>--- ----- --- --- ------ -------- ----- --- ------ ----- --<br>----- ----- ---------- --- --- ------ ------ ---- -- ------<br>------- --- ------ ----- was ---- ------- -- ---- --- --<br>------- ------,196945.55500001297,196945.03999999142,196631.567,196647.54499998526,196673.579,196948.139,,47,was
screen,html.Screen,2_1_1_1_48,2021-04-30T09:52:07.098Z,,,,,,,,,,,,,,,,,54,,,,,,,,,,,,,,288.33100000346894,,response,,,,100,,,,,,,Space,keypress(Space),,,,,,,,-- --- ---- --- ------ ----- ------- ---- -- --- ------- --<br>------- ---------- ------ -- ----- -- ----- -- ---- ------<br>--- ----- --- --- ------ -------- ----- --- ------ ----- --<br>----- ----- ---------- --- --- ------ ------ ---- -- ------<br>------- --- ------ ----- --- left ------- -- ---- --- --<br>------- ------,197236.99499998474,197236.47000000346,196931.569,196945.6749999954,196948.139,197248.223,,48,left
screen,html.Screen,2_1_1_1_49,2021-04-30T09:52:07.723Z,,,,,,,,,,,,,,,,,54,,,,,,,,,,,,,,613.6119999887887,,response,,,,100,,,,,,,Space,keypress(Space),,,,,,,,-- --- ---- --- ------ ----- ------- ---- -- --- ------- --<br>------- ---------- ------ -- ----- -- ----- -- ---- ------<br>--- ----- --- --- ------ -------- ----- --- ------ ----- --<br>----- ----- ---------- --- --- ------ ------ ---- -- ------<br>------- --- ------ ----- --- ---- without -- ---- --- --<br>------- ------,197862.33000000357,197861.8349999888,197231.548,197237.12000000523,197248.223,197864.764,,49,without
screen,html.Screen,2_1_1_1_50,2021-04-30T09:52:08.067Z,,,,,,,,,,,,,,,,,54,,,,,,,,,,,,,,340.81099999995786,,response,,,,100,,,,,,,Space,keypress(Space),,,,,,,,-- --- ---- --- ------ ----- ------- ---- -- --- ------- --<br>------- ---------- ------ -- ----- -- ----- -- ---- ------<br>--- ----- --- --- ------ -------- ----- --- ------ ----- --<br>----- ----- ---------- --- --- ------ ------ ---- -- ------<br>------- --- ------ ----- --- ---- ------- an ---- --- --<br>------- ------,198206.044999999,198205.57499999995,197848.172,197862.44500000612,197864.764,198214.872,,50,an
screen,html.Screen,2_1_1_1_51,2021-04-30T09:52:08.354Z,,,,,,,,,,,,,,,,,54,,,,,,,,,,,,,,278.01799999407376,,response,,,,100,,,,,,,Space,keypress(Space),,,,,,,,-- --- ---- --- ------ ----- ------- ---- -- --- ------- --<br>------- ---------- ------ -- ----- -- ----- -- ---- ------<br>--- ----- --- --- ------ -------- ----- --- ------ ----- --<br>----- ----- ---------- --- --- ------ ------ ---- -- ------<br>------- --- ------ ----- --- ---- ------- -- easy --- --<br>------- ------,198493.37499999092,198492.88999999408,198198.19,198206.18499998818,198214.872,198498.085,,51,easy
screen,html.Screen,2_1_1_1_52,2021-04-30T09:52:08.734Z,,,,,,,,,,,,,,,,,54,,,,,,,,,,,,,,374.47499998888816,,response,,,,100,,,,,,,Space,keypress(Space),,,,,,,,-- --- ---- --- ------ ----- ------- ---- -- --- ------- --<br>------- ---------- ------ -- ----- -- ----- -- ---- ------<br>--- ----- --- --- ------ -------- ----- --- ------ ----- --<br>----- ----- ---------- --- --- ------ ------ ---- -- ------<br>------- --- ------ ----- --- ---- ------- -- ---- way --<br>------- ------,198873.04000000586,198872.55999998888,198481.464,198493.5150000092,198498.085,198881.462,,52,way
screen,html.Screen,2_1_1_1_53,2021-04-30T09:52:09.020Z,,,,,,,,,,,,,,,,,54,,,,,,,,,,,,,,277.27800001349533,,response,,,,100,,,,,,,Space,keypress(Space),,,,,,,,-- --- ---- --- ------ ----- ------- ---- -- --- ------- --<br>------- ---------- ------ -- ----- -- ----- -- ---- ------<br>--- ----- --- --- ------ -------- ----- --- ------ ----- --<br>----- ----- ---------- --- --- ------ ------ ---- -- ------<br>------- --- ------ ----- --- ---- ------- -- ---- --- of<br>------- ------,199159.25500000594,199158.7400000135,198864.791,198873.15999998827,198881.462,199164.722,,53,of
screen,html.Screen,2_1_1_1_54,2021-04-30T09:52:09.867Z,,,,,,,,,,,,,,,,,54,,,,,,,,,,,,,,841.0679999956046,,response,,,,100,,,,,,,Space,keypress(Space),,,,,,,,-- --- ---- --- ------ ----- ------- ---- -- --- ------- --<br>------- ---------- ------ -- ----- -- ----- -- ---- ------<br>--- ----- --- --- ------ -------- ----- --- ------ ----- --<br>----- ----- ---------- --- --- ------ ------ ---- -- ------<br>------- --- ------ ----- --- ---- ------- -- ---- --- --<br>raising ------,200006.30499998806,200005.7899999956,199148.134,199159.37999999733,199164.722,200014.74,,54,raising
screen,html.Screen,2_1_1_1_55,2021-04-30T09:52:10.611Z,,,,,,,,,,,,,,,,,54,,,,,,,,,,,,,,735.1949999998324,,response,,,,100,,,,,,,Space,keypress(Space),,,,,,,,-- --- ---- --- ------ ----- ------- ---- -- --- ------- --<br>------- ---------- ------ -- ----- -- ----- -- ---- ------<br>--- ----- --- --- ------ -------- ----- --- ------ ----- --<br>----- ----- ---------- --- --- ------ ------ ---- -- ------<br>------- --- ------ ----- --- ---- ------- -- ---- --- --<br>------- money.,200750.44000000344,200749.93499999982,199998.03,200006.44500000635,200014.74,200764.698,,55,money.
Item 100,flow.Loop,2_1_1_1,2021-04-30T09:52:10.611Z,,,,,,,,,,,,,,,,,,,,,,,,,,,,,,,27717.24699999983,,completion,,,,,B,,,,,,,,,,,silence,,,,,200750.72999999975,200749.93499999982,173016.062,173016.68999998947,173032.688,200764.698,,,
Question 1,html.Screen,2_1_1_2,2021-04-30T09:52:13.783Z,,,,,,,,,,,,,,,,,,,,,,,,,,,,true,TRUE,,3157.002000006236,,response,,,,100,B,,,,,,TRUE,click #choice-1,,,,silence,,,,,203922.4899999972,203921.70000000624,200748.022,200750.82499999553,200764.698,203931.179,,,
Question 2,html.Screen,2_1_1_3,2021-04-30T09:52:15.311Z,,,,,,,,,,,,,,,,,,,,,,,,,,,,true,FALSE,,1518.5260000063572,,response,,,,100,B,,,,,,FALSE,click #choice-2,,,,silence,,,,,205450.4650000017,205449.70500000636,203914.568,203922.61499998858,203931.179,205464.524,,,
Item 100,flow.Sequence,2_1_1,2021-04-30T09:52:15.311Z,,,,,,,,,,,,,,,,,,,,,,,,,,,,,,,42416.529000006354,,completion,,,,,,,,,,,,,,,,,,,,,205450.65499999328,205449.70500000636,163016.551,163018.9449999889,163033.176,205464.524,,,
End of Practice,html.Page,2_1_2,2021-04-30T09:52:19.935Z,,,,,,,,,,,,,,,,,,,,,,,,,,,,,,,4610.001000003627,,form submission,,,,,,,,,,,,,,,,,,,,,210074.74000001093,210074.52500000363,205447.79,205450.74999998906,205464.524,210080.851,,,
Practice,flow.Sequence,2_1,2021-04-30T09:52:19.936Z,,,,,,,,,,,,,,,,,,,,,,,,,,,,,,,85889.42600000363,,completion,,,,,,,,,,,,,,,,,,,,,210074.92000001366,210074.52500000363,124168.339,124154.9750000122,124185.099,210080.851,,,
Trap_instruction,html.Page,2_2_0,2021-04-30T09:52:23.687Z,,,,,,,,,,,,,,,,,,,,,,,,,,,,,,,3745.6540000045497,,form submission,,,,,,,,,,,,,,,,,,,,,213826.70499998494,213826.50500000454,210064.248,210075.05499999388,210080.851,213830.684,,,
trap_trial,html.Screen,2_2_1,2021-04-30T09:52:26.527Z,,,,,,,,,,,,,,,,,,,,,,,,,,,,true,1,,2834.9960000055144,,response,,,,,,,,,,,1,click #choice-1,,,,,,,,,216666.46000000765,216665.68000000552,213814.091,213826.8199999875,213830.684,216680.611,,,
end of trap trial,html.Page,2_2_2,2021-04-30T09:52:28.463Z,,,,,,,,,,,,,,,,,,,,,,,,,,,,,,,1921.7940000123635,,form submission,,,,,,,,,,,,,,,,,,,,,218602.6000000129,218602.40500001237,216663.908,216667.37999999896,216680.611,218613.867,,,
Trap 1,flow.Sequence,2_2,2021-04-30T09:52:28.463Z,,,,,,,,,,,,,,,,,,,,,,,,,,,,,,,8521.554000012373,,completion,,,,,,,,,,,,,,,,,,,,,218602.77500000666,218602.40500001237,210064.248,210075.0199999893,210080.851,218613.867,,,
Standby,html.Page,2_3_0,2021-04-30T09:52:36.458Z,,,,,,,,,,,,,,,,,,,,,,,,,,,,,,,7999.5899999999965,,timeout,,,,,,,,,,,,,,,,,,,,,226597.33499999857,226596.804,218597.212,218602.89999999804,218613.867,226613.457,,,
Holding screen,html.Screen,2_3_1_0_0,2021-04-30T09:52:43.458Z,,,,,,,,,,,,,,,,,,,,,,,,,,,,,,,6999.641000000003,,timeout,,,,,,,,,,,,,,,,,,,,,233596.9899999909,233596.467,226596.804,226597.52000001026,226613.457,233613.098,,,
screen,html.Screen,2_3_1_0_1_0,2021-04-30T09:52:44.364Z,,,,,,,,,,,,,,,,,51,,,,,,,,,,,,,,889.372000006726,,response,,,,13,B,,,,,,Space,keypress(Space),,,,lyrical,,,,American -------- --- --- ---- --- --- ------ -- --------<br>---- --------- --- ------- ------------ ---------- ---------<br>--- ---------- ------- ---------- ------- -- -------- ----<br>---- --- ------ ----- ------ -- ---- --- ----- -- - -------<br>-------- -- --- --- -- ----- ----------- ----- -----------<br>---- --- ---------- --- ---- --- -- ----------,234503.17000001087,234502.47000000672,233596.467,233597.16499998467,233613.098,234513.047,,0,American
screen,html.Screen,2_3_1_0_1_1,2021-04-30T09:52:44.673Z,,,,,,,,,,,,,,,,,51,,,,,,,,,,,,,,298.7780000116036,,response,,,,13,B,,,,,,Space,keypress(Space),,,,lyrical,,,,-------- industry --- --- ---- --- --- ------ -- --------<br>---- --------- --- ------- ------------ ---------- ---------<br>--- ---------- ------- ---------- ------- -- -------- ----<br>---- --- ------ ----- ------ -- ---- --- ----- -- - -------<br>-------- -- --- --- -- ----- ----------- ----- -----------<br>---- --- ---------- --- ---- --- -- ----------,234812.31000000844,234811.8250000116,234496.329,234503.3049999911,234513.047,234840.858,,1,industry
screen,html.Screen,2_3_1_0_1_2,2021-04-30T09:52:45.068Z,,,,,,,,,,,,,,,,,51,,,,,,,,,,,,,,365.58200000901707,,response,,,,13,B,,,,,,Space,keypress(Space),,,,lyrical,,,,-------- -------- may --- ---- --- --- ------ -- --------<br>---- --------- --- ------- ------------ ---------- ---------<br>--- ---------- ------- ---------- ------- -- -------- ----<br>---- --- ------ ----- ------ -- ---- --- ----- -- - -------<br>-------- -- --- --- -- ----- ----------- ----- -----------<br>---- --- ---------- --- ---- --- -- ----------,235206.96000001044,235206.44000000902,234796.368,234812.425000011,234840.858,235213.033,,2,may
screen,html.Screen,2_3_1_0_1_3,2021-04-30T09:52:45.463Z,,,,,,,,,,,,,,,,,51,,,,,,,,,,,,,,388.54200000787387,,response,,,,13,B,,,,,,Space,keypress(Space),,,,lyrical,,,,-------- -------- --- not ---- --- --- ------ -- --------<br>---- --------- --- ------- ------------ ---------- ---------<br>--- ---------- ------- ---------- ------- -- -------- ----<br>---- --- ------ ----- ------ -- ---- --- ----- -- - -------<br>-------- -- --- --- -- ----- ----------- ----- -----------<br>---- --- ---------- --- ---- --- -- ----------,235602.09999998915,235601.57500000787,235196.396,235207.08500000183,235213.033,235613.038,,3,not
screen,html.Screen,2_3_1_0_1_4,2021-04-30T09:52:45.743Z,,,,,,,,,,,,,,,,,51,,,,,,,,,,,,,,268.33199998823693,,response,,,,13,B,,,,,,Space,keypress(Space),,,,lyrical,,,,-------- -------- --- --- know --- --- ------ -- --------<br>---- --------- --- ------- ------------ ---------- ---------<br>--- ---------- ------- ---------- ------- -- -------- ----<br>---- --- ------ ----- ------ -- ---- --- ----- -- - -------<br>-------- -- --- --- -- ----- ----------- ----- -----------<br>---- --- ---------- --- ---- --- -- ----------,235881.89499999862,235881.36999998824,235596.318,235602.2149999917,235613.038,235896.34,,4,know
screen,html.Screen,2_3_1_0_1_5,2021-04-30T09:52:45.995Z,,,,,,,,,,,,,,,,,51,,,,,,,,,,,,,,237.99500000974513,,response,,,,13,B,,,,,,Space,keypress(Space),,,,lyrical,,,,"-------- -------- --- --- ---- it, --- ------ -- --------<br>---- --------- --- ------- ------------ ---------- ---------<br>--- ---------- ------- ---------- ------- -- -------- ----<br>---- --- ------ ----- ------ -- ---- --- ----- -- - -------<br>-------- -- --- --- -- ----- ----------- ----- -----------<br>---- --- ---------- --- ---- --- -- ----------",236134.84499999322,236134.33500000974,235879.655,235882.01999999,235896.34,236146.349,,5,"it,"
screen,html.Screen,2_3_1_0_1_6,2021-04-30T09:52:46.805Z,,,,,,,,,,,,,,,,,51,,,,,,,,,,,,,,797.3959999968647,,response,,,,13,B,,,,,,Space,keypress(Space),,,,lyrical,,,,-------- -------- --- --- ---- --- but ------ -- --------<br>---- --------- --- ------- ------------ ---------- ---------<br>--- ---------- ------- ---------- ------- -- -------- ----<br>---- --- ------ ----- ------ -- ---- --- ----- -- - -------<br>-------- -- --- --- -- ----- ----------- ----- -----------<br>---- --- ---------- --- ---- --- -- ----------,236944.27000000724,236943.74499999685,236129.613,236134.9700000137,236146.349,236946.185,,6,but
screen,html.Screen,2_3_1_0_1_7,2021-04-30T09:52:47.245Z,,,,,,,,,,,,,,,,,51,,,,,,,,,,,,,,437.5800000059535,,response,,,,13,B,,,,,,Space,keypress(Space),,,,lyrical,,,,-------- -------- --- --- ---- --- --- debate -- --------<br>---- --------- --- ------- ------------ ---------- ---------<br>--- ---------- ------- ---------- ------- -- -------- ----<br>---- --- ------ ----- ------ -- ---- --- ----- -- - -------<br>-------- -- --- --- -- ----- ----------- ----- -----------<br>---- --- ---------- --- ---- --- -- ----------,237384.30000000517,237383.76500000595,236929.6,236944.39499999862,236946.185,237396.264,,7,debate
screen,html.Screen,2_3_1_0_1_8,2021-04-30T09:52:47.442Z,,,,,,,,,,,,,,,,,51,,,,,,,,,,,,,,184.2810000043537,,response,,,,13,B,,,,,,Space,keypress(Space),,,,lyrical,,,,-------- -------- --- --- ---- --- --- ------ in --------<br>---- --------- --- ------- ------------ ---------- ---------<br>--- ---------- ------- ---------- ------- -- -------- ----<br>---- --- ------ ----- ------ -- ---- --- ----- -- - -------<br>-------- -- --- --- -- ----- ----------- ----- -----------<br>---- --- ---------- --- ---- --- -- ----------,237581.1500000127,237580.54500000435,237379.59,237384.4199999876,237396.264,237596.265,,8,in
screen,html.Screen,2_3_1_0_1_9,2021-04-30T09:52:47.793Z,,,,,,,,,,,,,,,,,51,,,,,,,,,,,,,,335.25999999267515,,response,,,,13,B,,,,,,Space,keypress(Space),,,,lyrical,,,,-------- -------- --- --- ---- --- --- ------ -- Congress<br>---- --------- --- ------- ------------ ---------- ---------<br>--- ---------- ------- ---------- ------- -- -------- ----<br>---- --- ------ ----- ------ -- ---- --- ----- -- - -------<br>-------- -- --- --- -- ----- ----------- ----- -----------<br>---- --- ---------- --- ---- --- -- ----------,237932.05500001204,237931.5249999927,237579.602,237581.26999999513,237596.265,237946.225,,9,Congress
screen,html.Screen,2_3_1_0_1_10,2021-04-30T09:52:48.233Z,,,,,,,,,,,,,,,,,51,,,,,,,,,,,,,,425.9499999967811,,response,,,,13,B,,,,,,Space,keypress(Space),,,,lyrical,,,,-------- -------- --- --- ---- --- --- ------ -- --------<br>over --------- --- ------- ------------ ---------- ---------<br>--- ---------- ------- ---------- ------- -- -------- ----<br>---- --- ------ ----- ------ -- ---- --- ----- -- - -------<br>-------- -- --- --- -- ----- ----------- ----- -----------<br>---- --- ---------- --- ---- --- -- ----------,238372.71999998484,238372.1749999968,237929.555,237932.18000000343,237946.225,238379.54,,10,over
screen,html.Screen,2_3_1_0_1_11,2021-04-30T09:52:48.574Z,,,,,,,,,,,,,,,,,51,,,,,,,,,,,,,,333.2400000016496,,response,,,,13,B,,,,,,Space,keypress(Space),,,,lyrical,,,,-------- -------- --- --- ---- --- --- ------ -- --------<br>---- reforming --- ------- ------------ ---------- ---------<br>--- ---------- ------- ---------- ------- -- -------- ----<br>---- --- ------ ----- ------ -- ---- --- ----- -- - -------<br>-------- -- --- --- -- ----- ----------- ----- -----------<br>---- --- ---------- --- ---- --- -- ----------,238713.30000000307,238712.78000000166,238362.841,238372.83999999636,238379.54,238729.54,,11,reforming
screen,html.Screen,2_3_1_0_1_12,2021-04-30T09:52:49.422Z,,,,,,,,,,,,,,,,,51,,,,,,,,,,,,,,831.7399999944319,,response,,,,13,B,,,,,,Space,keypress(Space),,,,lyrical,,,,-------- -------- --- --- ---- --- --- ------ -- --------<br>---- --------- the ------- ------------ ---------- ---------<br>--- ---------- ------- ---------- ------- -- -------- ----<br>---- --- ------ ----- ------ -- ---- --- ----- -- - -------<br>-------- -- --- --- -- ----- ----------- ----- -----------<br>---- --- ---------- --- ---- --- -- ----------,239561.77999998908,239561.27999999444,238712.86,238713.41500000563,238729.54,239582.25,,12,the
screen,html.Screen,2_3_1_0_1_13,2021-04-30T09:52:49.976Z,,,,,,,,,,,,,,,,,51,,,,,,,,,,,,,,532.5800000058953,,response,,,,13,B,,,,,,Space,keypress(Space),,,,lyrical,,,,-------- -------- --- --- ---- --- --- ------ -- --------<br>---- --------- --- federal ------------ ---------- ---------<br>--- ---------- ------- ---------- ------- -- -------- ----<br>---- --- ------ ----- ------ -- ---- --- ----- -- - -------<br>-------- -- --- --- -- ----- ----------- ----- -----------<br>---- --- ---------- --- ---- --- -- ----------,240115.3200000117,240114.8300000059,239546.137,239561.89499999164,239582.25,240129.505,,13,federal
screen,html.Screen,2_3_1_0_1_14,2021-04-30T09:52:50.578Z,,,,,,,,,,,,,,,,,51,,,,,,,,,,,,,,587.0900000053225,,response,,,,13,B,,,,,,Space,keypress(Space),,,,lyrical,,,,-------- -------- --- --- ---- --- --- ------ -- --------<br>---- --------- --- ------- government's ---------- ---------<br>--- ---------- ------- ---------- ------- -- -------- ----<br>---- --- ------ ----- ------ -- ---- --- ----- -- - -------<br>-------- -- --- --- -- ----- ----------- ----- -----------<br>---- --- ---------- --- ---- --- -- ----------,240717.10000000894,240716.59500000533,240112.752,240115.4450000031,240129.505,240729.391,,14,government's
screen,html.Screen,2_3_1_0_1_15,2021-04-30T09:52:51.124Z,,,,,,,,,,,,,,,,,51,,,,,,,,,,,,,,533.3589999944088,,response,,,,13,B,,,,,,Space,keypress(Space),,,,lyrical,,,,-------- -------- --- --- ---- --- --- ------ -- --------<br>---- --------- --- ------- ------------ regulatory ---------<br>--- ---------- ------- ---------- ------- -- -------- ----<br>---- --- ------ ----- ------ -- ---- --- ----- -- - -------<br>-------- -- --- --- -- ----- ----------- ----- -----------<br>---- --- ---------- --- ---- --- -- ----------,241263.24000000022,241262.7499999944,240712.742,240717.2150000115,240729.391,241279.408,,15,regulatory
screen,html.Screen,2_3_1_0_1_16,2021-04-30T09:52:55.458Z,,,,,,,,,,,,,,,,,51,,,,,,,,,,,,,,4316.401999998896,,response,,,,13,B,,,,,,Space,keypress(Space),,,,lyrical,,,,-------- -------- --- --- ---- --- --- ------ -- --------<br>---- --------- --- ------- ------------ ---------- apparatus<br>--- ---------- ------- ---------- ------- -- -------- ----<br>---- --- ------ ----- ------ -- ---- --- ----- -- - -------<br>-------- -- --- --- -- ----- ----------- ----- -----------<br>---- --- ---------- --- ---- --- -- ----------,245596.33500000928,245595.8099999989,241262.717,241263.36000001174,241279.408,245612.549,,16,apparatus
screen,html.Screen,2_3_1_0_1_17,2021-04-30T09:52:55.843Z,,,,,,,,,,,,,,,,,51,,,,,,,,,,,,,,368.48099999537226,,response,,,,13,B,,,,,,Space,keypress(Space),,,,lyrical,,,,-------- -------- --- --- ---- --- --- ------ -- --------<br>---- --------- --- ------- ------------ ---------- ---------<br>may ---------- ------- ---------- ------- -- -------- ----<br>---- --- ------ ----- ------ -- ---- --- ----- -- - -------<br>-------- -- --- --- -- ----- ----------- ----- -----------<br>---- --- ---------- --- ---- --- -- ----------,245981.58500000136,245981.02999999537,245595.634,245596.4549999917,245612.549,245995.86,,17,may
screen,html.Screen,2_3_1_0_1_18,2021-04-30T09:52:56.161Z,,,,,,,,,,,,,,,,,51,,,,,,,,,,,,,,302.7799999936251,,response,,,,13,B,,,,,,Space,keypress(Space),,,,lyrical,,,,-------- -------- --- --- ---- --- --- ------ -- --------<br>---- --------- --- ------- ------------ ---------- ---------<br>--- profoundly ------- ---------- ------- -- -------- ----<br>---- --- ------ ----- ------ -- ---- --- ----- -- - -------<br>-------- -- --- --- -- ----- ----------- ----- -----------<br>---- --- ---------- --- ---- --- -- ----------,246299.14499999722,246298.6399999936,245979.173,245981.7000000039,245995.86,246312.506,,18,profoundly
screen,html.Screen,2_3_1_0_1_19,2021-04-30T09:52:56.550Z,,,,,,,,,,,,,,,,,51,,,,,,,,,,,,,,375.4139999966719,,response,,,,13,B,,,,,,Space,keypress(Space),,,,lyrical,,,,-------- -------- --- --- ---- --- --- ------ -- --------<br>---- --------- --- ------- ------------ ---------- ---------<br>--- ---------- improve ---------- ------- -- -------- ----<br>---- --- ------ ----- ------ -- ---- --- ----- -- - -------<br>-------- -- --- --- -- ----- ----------- ----- -----------<br>---- --- ---------- --- ---- --- -- ----------,246688.44500000705,246687.91999999667,246295.844,246299.2849999864,246312.506,246695.799,,19,improve
screen,html.Screen,2_3_1_0_1_20,2021-04-30T09:52:56.966Z,,,,,,,,,,,,,,,,,51,,,,,,,,,,,,,,408.6059999909485,,response,,,,13,B,,,,,,Space,keypress(Space),,,,lyrical,,,,-------- -------- --- --- ---- --- --- ------ -- --------<br>---- --------- --- ------- ------------ ---------- ---------<br>--- ---------- ------- companies' ------- -- -------- ----<br>---- --- ------ ----- ------ -- ---- --- ----- -- - -------<br>-------- -- --- --- -- ----- ----------- ----- -----------<br>---- --- ---------- --- ---- --- -- ----------,247104.89499999676,247104.40499999095,246679.143,246688.57999998727,246695.799,247112.487,,20,companies'
screen,html.Screen,2_3_1_0_1_21,2021-04-30T09:52:57.383Z,,,,,,,,,,,,,,,,,51,,,,,,,,,,,,,,408.81299999306793,,response,,,,13,B,,,,,,Space,keypress(Space),,,,lyrical,,,,-------- -------- --- --- ---- --- --- ------ -- --------<br>---- --------- --- ------- ------------ ---------- ---------<br>--- ---------- ------- ---------- ability -- -------- ----<br>---- --- ------ ----- ------ -- ---- --- ----- -- - -------<br>-------- -- --- --- -- ----- ----------- ----- -----------<br>---- --- ---------- --- ---- --- -- ----------,247521.82500000345,247521.29999999306,247095.775,247105.01500000828,247112.487,247529.044,,21,ability
screen,html.Screen,2_3_1_0_1_22,2021-04-30T09:52:57.673Z,,,,,,,,,,,,,,,,,51,,,,,,,,,,,,,,281.43100000568666,,response,,,,13,B,,,,,,Space,keypress(Space),,,,lyrical,,,,-------- -------- --- --- ---- --- --- ------ -- --------<br>---- --------- --- ------- ------------ ---------- ---------<br>--- ---------- ------- ---------- ------- to -------- ----<br>---- --- ------ ----- ------ -- ---- --- ----- -- - -------<br>-------- -- --- --- -- ----- ----------- ----- -----------<br>---- --- ---------- --- ---- --- -- ----------,247811.12999998732,247810.47500000568,247512.34,247521.94999999483,247529.044,247837.238,,22,to
screen,html.Screen,2_3_1_0_1_23,2021-04-30T09:53:02.053Z,,,,,,,,,,,,,,,,,51,,,,,,,,,,,,,,4354.001999985543,,response,,,,13,B,,,,,,Space,keypress(Space),,,,lyrical,,,,-------- -------- --- --- ---- --- --- ------ -- --------<br>---- --------- --- ------- ------------ ---------- ---------<br>--- ---------- ------- ---------- ------- -- survive. ----<br>---- --- ------ ----- ------ -- ---- --- ----- -- - -------<br>-------- -- --- --- -- ----- ----------- ----- -----------<br>---- --- ---------- --- ---- --- -- ----------,252191.79000001168,252191.23999998556,247795.704,247811.24999999884,247837.238,252195.508,,23,survive.
screen,html.Screen,2_3_1_0_1_24,2021-04-30T09:53:02.412Z,,,,,,,,,,,,,,,,,51,,,,,,,,,,,,,,354.6269999976794,,response,,,,13,B,,,,,,Space,keypress(Space),,,,lyrical,,,,-------- -------- --- --- ---- --- --- ------ -- --------<br>---- --------- --- ------- ------------ ---------- ---------<br>--- ---------- ------- ---------- ------- -- -------- This<br>---- --- ------ ----- ------ -- ---- --- ----- -- - -------<br>-------- -- --- --- -- ----- ----------- ----- -----------<br>---- --- ---------- --- ---- --- -- ----------,252550.66000000807,252550.13499999768,252178.683,252191.90499998513,252195.508,252562.211,,24,This
screen,html.Screen,2_3_1_0_1_25,2021-04-30T09:53:02.916Z,,,,,,,,,,,,,,,,,51,,,,,,,,,,,,,,491.73399999237154,,response,,,,13,B,,,,,,Space,keypress(Space),,,,lyrical,,,,-------- -------- --- --- ---- --- --- ------ -- --------<br>---- --------- --- ------- ------------ ---------- ---------<br>--- ---------- ------- ---------- ------- -- -------- ----<br>week --- ------ ----- ------ -- ---- --- ----- -- - -------<br>-------- -- --- --- -- ----- ----------- ----- -----------<br>---- --- ---------- --- ---- --- -- ----------,253054.45500000496,253053.94499999238,252545.527,252550.8400000108,252562.211,253062.177,,25,week
screen,html.Screen,2_3_1_0_1_26,2021-04-30T09:53:03.293Z,,,,,,,,,,,,,,,,,51,,,,,,,,,,,,,,369.17299999893294,,response,,,,13,B,,,,,,Space,keypress(Space),,,,lyrical,,,,-------- -------- --- --- ---- --- --- ------ -- --------<br>---- --------- --- ------- ------------ ---------- ---------<br>--- ---------- ------- ---------- ------- -- -------- ----<br>---- the ------ ----- ------ -- ---- --- ----- -- - -------<br>-------- -- --- --- -- ----- ----------- ----- -----------<br>---- --- ---------- --- ---- --- -- ----------,253431.87999998918,253431.34999999893,253045.488,253054.57499998738,253062.177,253445.486,,26,the
screen,html.Screen,2_3_1_0_1_27,2021-04-30T09:53:04.021Z,,,,,,,,,,,,,,,,,51,,,,,,,,,,,,,,713.7939999925729,,response,,,,13,B,,,,,,Space,keypress(Space),,,,lyrical,,,,-------- -------- --- --- ---- --- --- ------ -- --------<br>---- --------- --- ------- ------------ ---------- ---------<br>--- ---------- ------- ---------- ------- -- -------- ----<br>---- --- Senate ----- ------ -- ---- --- ----- -- - -------<br>-------- -- --- --- -- ----- ----------- ----- -----------<br>---- --- ---------- --- ---- --- -- ----------,254159.77999998722,254159.27999999258,253428.816,253431.99499999173,253445.486,254162.029,,27,Senate
screen,html.Screen,2_3_1_0_1_28,2021-04-30T09:53:04.424Z,,,,,,,,,,,,,,,,,51,,,,,,,,,,,,,,399.87600000956445,,response,,,,13,B,,,,,,Space,keypress(Space),,,,lyrical,,,,-------- -------- --- --- ---- --- --- ------ -- --------<br>---- --------- --- ------- ------------ ---------- ---------<br>--- ---------- ------- ---------- ------- -- -------- ----<br>---- --- ------ seems ------ -- ---- --- ----- -- - -------<br>-------- -- --- --- -- ----- ----------- ----- -----------<br>---- --- ---------- --- ---- --- -- ----------,254562.38499999745,254561.90500000957,254145.442,254159.90999998758,254162.029,254578.734,,28,seems
screen,html.Screen,2_3_1_0_1_29,2021-04-30T09:53:04.645Z,,,,,,,,,,,,,,,,,51,,,,,,,,,,,,,,204.41600000293693,,response,,,,13,B,,,,,,Space,keypress(Space),,,,lyrical,,,,-------- -------- --- --- ---- --- --- ------ -- --------<br>---- --------- --- ------- ------------ ---------- ---------<br>--- ---------- ------- ---------- ------- -- -------- ----<br>---- --- ------ ----- poised -- ---- --- ----- -- - -------<br>-------- -- --- --- -- ----- ----------- ----- -----------<br>---- --- ---------- --- ---- --- -- ----------,254783.62500001094,254783.15000000293,254562.121,254562.52000000677,254578.734,254795.361,,29,poised
screen,html.Screen,2_3_1_0_1_30,2021-04-30T09:53:04.822Z,,,,,,,,,,,,,,,,,51,,,,,,,,,,,,,,164.6189999850758,,response,,,,13,B,,,,,,Space,keypress(Space),,,,lyrical,,,,-------- -------- --- --- ---- --- --- ------ -- --------<br>---- --------- --- ------- ------------ ---------- ---------<br>--- ---------- ------- ---------- ------- -- -------- ----<br>---- --- ------ ----- ------ to ---- --- ----- -- - -------<br>-------- -- --- --- -- ----- ----------- ----- -----------<br>---- --- ---------- --- ---- --- -- ----------,254960.44500000426,254959.97999998508,254778.749,254783.73500000453,254795.361,254961.993,,30,to
screen,html.Screen,2_3_1_0_1_31,2021-04-30T09:53:05.193Z,,,,,,,,,,,,,,,,,51,,,,,,,,,,,,,,369.24699999953737,,response,,,,13,B,,,,,,Space,keypress(Space),,,,lyrical,,,,-------- -------- --- --- ---- --- --- ------ -- --------<br>---- --------- --- ------- ------------ ---------- ---------<br>--- ---------- ------- ---------- ------- -- -------- ----<br>---- --- ------ ----- ------ -- join --- ----- -- - -------<br>-------- -- --- --- -- ----- ----------- ----- -----------<br>---- --- ---------- --- ---- --- -- ----------,255331.71500000753,255331.23999999953,254945.412,254960.55499999784,254961.993,255345.4,,31,join
screen,html.Screen,2_3_1_0_1_32,2021-04-30T09:53:05.515Z,,,,,,,,,,,,,,,,,51,,,,,,,,,,,,,,307.17499998552375,,response,,,,13,B,,,,,,Space,keypress(Space),,,,lyrical,,,,-------- -------- --- --- ---- --- --- ------ -- --------<br>---- --------- --- ------- ------------ ---------- ---------<br>--- ---------- ------- ---------- ------- -- -------- ----<br>---- --- ------ ----- ------ -- ---- the ----- -- - -------<br>-------- -- --- --- -- ----- ----------- ----- -----------<br>---- --- ---------- --- ---- --- -- ----------,255653.09000000707,255652.57499998552,255328.752,255331.8300000101,255345.4,255662.054,,32,the
screen,html.Screen,2_3_1_0_1_33,2021-04-30T09:53:05.715Z,,,,,,,,,,,,,,,,,51,,,,,,,,,,,,,,190.97099998942576,,response,,,,13,B,,,,,,Space,keypress(Space),,,,lyrical,,,,-------- -------- --- --- ---- --- --- ------ -- --------<br>---- --------- --- ------- ------------ ---------- ---------<br>--- ---------- ------- ---------- ------- -- -------- ----<br>---- --- ------ ----- ------ -- ---- --- House -- - -------<br>-------- -- --- --- -- ----- ----------- ----- -----------<br>---- --- ---------- --- ---- --- -- ----------,255853.5050000064,255853.02499998943,255645.364,255653.20500000962,255662.054,255862.042,,33,House
screen,html.Screen,2_3_1_0_1_34,2021-04-30T09:53:06.014Z,,,,,,,,,,,,,,,,,51,,,,,,,,,,,,,,289.2729999955336,,response,,,,13,B,,,,,,Space,keypress(Space),,,,lyrical,,,,-------- -------- --- --- ---- --- --- ------ -- --------<br>---- --------- --- ------- ------------ ---------- ---------<br>--- ---------- ------- ---------- ------- -- -------- ----<br>---- --- ------ ----- ------ -- ---- --- ----- in - -------<br>-------- -- --- --- -- ----- ----------- ----- -----------<br>---- --- ---------- --- ---- --- -- ----------,256152.02000000863,256151.31499999552,255845.39,255853.615,255862.042,256162.022,,34,in
screen,html.Screen,2_3_1_0_1_35,2021-04-30T09:53:06.381Z,,,,,,,,,,,,,,,,,51,,,,,,,,,,,,,,356.7329999973299,,response,,,,13,B,,,,,,Space,keypress(Space),,,,lyrical,,,,-------- -------- --- --- ---- --- --- ------ -- --------<br>---- --------- --- ------- ------------ ---------- ---------<br>--- ---------- ------- ---------- ------- -- -------- ----<br>---- --- ------ ----- ------ -- ---- --- ----- -- a -------<br>-------- -- --- --- -- ----- ----------- ----- -----------<br>---- --- ---------- --- ---- --- -- ----------,256519.23000000534,256518.75499999733,256145.348,256152.20499999123,256162.022,256528.675,,35,a
screen,html.Screen,2_3_1_0_1_36,2021-04-30T09:53:06.742Z,,,,,,,,,,,,,,,,,51,,,,,,,,,,,,,,351.4649999938556,,response,,,,13,B,,,,,,Space,keypress(Space),,,,lyrical,,,,-------- -------- --- --- ---- --- --- ------ -- --------<br>---- --------- --- ------- ------------ ---------- ---------<br>--- ---------- ------- ---------- ------- -- -------- ----<br>---- --- ------ ----- ------ -- ---- --- ----- -- - massive<br>-------- -- --- --- -- ----- ----------- ----- -----------<br>---- --- ---------- --- ---- --- -- ----------,256880.62999999966,256880.13999999384,256512.012,256519.3450000079,256528.675,256895.34,,36,massive
