sender,sender_type,sender_id,timestamp,meta,,Blues,Classical,Country,Dance,Electronic,Folk,Gospel,Hip-Hop,Jazz,Latin,Musical/Film,New-age,Pop,Prolific_id,Provo_ID,R&B,Rap,Reggae,Religious,Rock,Soul,Swing,Traditional,age,artist_name,correct,correctResponse,distraction,duration,education,ended_on,familiarity,gender,headphone_check_performance,item,list,music_frequency,offensiveness,pleasantness,position_correct,preference,response,response_action,snippet_file,song_name,song_rating,sound,stimulus_1,stimulus_2,stimulus_3,text,time_commit,time_end,time_render,time_run,time_show,time_switch,url,word,word_ID
Prolific ID,html.Form,0,2021-04-26T11:24:17.568Z,"{""labjs_version"":""20.2.2"",""labjs_build"":{""flavor"":""production"",""commit"":""a25486e0c714a0ae2ce03ff94b7bb6896854dcfa""},""location"":""https://run.pavlovia.org/mvasilev/prolific_music_b/"",""userAgent"":""Mozilla/5.0 (Macintosh; Intel Mac OS X 10_15_6) AppleWebKit/605.1.15 (KHTML, like Gecko) Version/14.0.3 Safari/605.1.15"",""platform"":""MacIntel"",""language"":""en-gb"",""locale"":""en-GB"",""timeZone"":""Europe/London"",""timezoneOffset"":-60,""screen_width"":1440,""screen_height"":900,""scroll_width"":1440,""scroll_height"":662,""window_innerWidth"":1440,""window_innerHeight"":710,""devicePixelRatio"":1}",,,,,,,,,,,,,,,603307b722a1fb3938b8d740,,,,,,,,,,,,,,,4250,,form submission,,,,,,,,,,,,,,,,,,,,,12501,12500,8237,8219,8250,12529,{},,
Introduction,html.Screen,1_0,2021-04-26T11:24:21.837Z,,,,,,,,,,,,,,,,,,,,,,,,,,,,,,,4096,,response,,,,,,,,,,,continue,click button,,,,,,,,,16770,16608,12512,12501,12529,16790,,,
Volume calibration,html.Screen,1_1,2021-04-26T11:24:50.945Z,,,,,,,,,,,,,,,,,,,,,,,,,,,,,,,28939,,response,,,,,,,,,,,continue,click button,,,,,,,,,45877,45713,16774,16770,16790,45901,,,
Task instructions,html.Screen,1_2,2021-04-26T11:25:05.232Z,,,,,,,,,,,,,,,,,,,,,,,,,,,,,,,14117.000000000007,,response,,,,,,,,,,,continue,click button,,,,,,,,,60164,60001.00000000001,45884,45877,45901,60189,,,
Sounds,html.Screen,1_3_0_0,2021-04-26T11:25:09.486Z,,,,,,,,,,,,,,,,,,,,,,,,,,,,,,,4244,,timeout,,,,,,,,,3,,,,,,,,I,O,S,,64418.00000000001,64417,60173,60164,60189,64433,,,
Judgement,html.Screen,1_3_0_1,2021-04-26T11:25:11.013Z,,,,,,,,,,,,,,,,,,,,,,,,,,,,true,3,,1364,,response,,,,,,,,,3,,3,click #choice-3,,,,,I,O,S,,65944,65781,64417,64418.00000000001,64433,65972,,,
Trial,flow.Sequence,1_3_0,2021-04-26T11:25:11.014Z,,,,,,,,,,,,,,,,,,,,,,,,,,,,,,,5592,,completion,,,,,,,,,3,,,,,,,,I,O,S,,65945.00000000001,65781,60173,60164,60189,65972,,,
Sounds,html.Screen,1_3_1_0,2021-04-26T11:25:15.268Z,,,,,,,,,,,,,,,,,,,,,,,,,,,,,,,4244,,timeout,,,,,,,,,3,,,,,,,,O,I,S,,70199,70199,65955,65945.00000000001,65972,70216,,,
Judgement,html.Screen,1_3_1_1,2021-04-26T11:25:16.169Z,,,,,,,,,,,,,,,,,,,,,,,,,,,,true,3,,739,,response,,,,,,,,,3,,3,click #choice-3,,,,,O,I,S,,71101,70938,70199,70199,70216,71135,,,
Trial,flow.Sequence,1_3_1,2021-04-26T11:25:16.170Z,,,,,,,,,,,,,,,,,,,,,,,,,,,,,,,4966,,completion,,,,,,,,,3,,,,,,,,O,I,S,,71101,70938,65955,65945.00000000001,65972,71135,,,
Sounds,html.Screen,1_3_2_0,2021-04-26T11:25:20.432Z,,,,,,,,,,,,,,,,,,,,,,,,,,,,,,,4244,,timeout,,,,,,,,,2,,,,,,,,O,S,I,,75363,75362,71119,71101,71135,75379,,,
Judgement,html.Screen,1_3_2_1,2021-04-26T11:25:21.320Z,,,,,,,,,,,,,,,,,,,,,,,,,,,,true,2,,725,,response,,,,,,,,,2,,2,click #choice-2,,,,,O,S,I,,76251,76087,75362,75363,75379,76282,,,
Trial,flow.Sequence,1_3_2,2021-04-26T11:25:21.320Z,,,,,,,,,,,,,,,,,,,,,,,,,,,,,,,4952,,completion,,,,,,,,,2,,,,,,,,O,S,I,,76251,76087,71119,71101,71135,76282,,,
Sounds,html.Screen,1_3_3_0,2021-04-26T11:25:25.579Z,,,,,,,,,,,,,,,,,,,,,,,,,,,,,,,4244,,timeout,,,,,,,,,2,,,,,,,,I,S,O,,80510,80509,76265,76251,76282,80526,,,
Judgement,html.Screen,1_3_3_1,2021-04-26T11:25:26.479Z,,,,,,,,,,,,,,,,,,,,,,,,,,,,true,2,,737,,response,,,,,,,,,2,,2,click #choice-2,,,,,I,S,O,,81409,81246,80509,80510,80526,81428,,,
Trial,flow.Sequence,1_3_3,2021-04-26T11:25:26.479Z,,,,,,,,,,,,,,,,,,,,,,,,,,,,,,,4964,,completion,,,,,,,,,2,,,,,,,,I,S,O,,81410,81246,76265,76251,76282,81428,,,
Sounds,html.Screen,1_3_4_0,2021-04-26T11:25:30.726Z,,,,,,,,,,,,,,,,,,,,,,,,,,,,,,,4245,,timeout,,,,,,,,,1,,,,,,,,S,I,O,,85657,85657,81413,81410,81428,85673,,,
Judgement,html.Screen,1_3_4_1,2021-04-26T11:25:32.627Z,,,,,,,,,,,,,,,,,,,,,,,,,,,,false,1,,1737,,response,,,,,,,,,1,,2,click #choice-2,,,,,S,I,O,,87558,87394,85657,85657,85673,87579,,,
Trial,flow.Sequence,1_3_4,2021-04-26T11:25:32.627Z,,,,,,,,,,,,,,,,,,,,,,,,,,,,,,,5966,,completion,,,,,,,,,1,,,,,,,,S,I,O,,87558,87394,81413,81410,81428,87579,,,
Sounds,html.Screen,1_3_5_0,2021-04-26T11:25:36.876Z,,,,,,,,,,,,,,,,,,,,,,,,,,,,,,,4244,,timeout,,,,,,,,,1,,,,,,,,S,O,I,,91807,91806,87562,87558,87579,91823,,,
Judgement,html.Screen,1_3_5_1,2021-04-26T11:25:37.602Z,,,,,,,,,,,,,,,,,,,,,,,,,,,,true,1,,563,,response,,,,,,,,,1,,1,click #choice-1,,,,,S,O,I,,92532,92369,91806,91807,91823,92559,,,
Trial,flow.Sequence,1_3_5,2021-04-26T11:25:37.602Z,,,,,,,,,,,,,,,,,,,,,,,,,,,,,,,4790,,completion,,,,,,,,,1,,,,,,,,S,O,I,,92533,92369,87562,87558,87579,92559,,,
Task,flow.Loop,1_3,2021-04-26T11:25:37.605Z,,,,,,,,,,,,,,,,,,,,,,,,,,,,,,,32180,,completion,,,0.8333333333333334,,,,,,,,,,,,,,,,,,92535,92369,60173,60164,60189,92559,,,
Trap,html.Screen,1_4,2021-04-26T11:25:37.606Z,,,,,,,,,,,,,,,,,,,,,,,,,,,,,,,NaN,,skipped,,,,,,,,,,,,,,,,,,,,,92536,92369,,92536,,92559,,,
Thanks,html.Screen,1_5,2021-04-26T11:25:40.416Z,,,,,,,,,,,,,,,,,,,,,,,,,,,,,,,2641,,response,,,,,,,,,,,continue,click button,,,,,,,,,95347.00000000001,95183,92542,92537,92559,97404,,,
Headphone screening,flow.Sequence,1,2021-04-26T11:25:40.417Z,,,,,,,,,,,,,,,,,,,,,,,,,,,,,,,82654,,completion,,,,,,,,,,,,,,,,,,,,,95347.00000000001,95183,12512,12501,12529,97404,,,
Instructions,html.Page,2_0,2021-04-26T11:25:51.862Z,,,,,,,,,,,,,,,,,,,,,,,,,,,,,,,9387,,form submission,,,,,,,,,,,,,,,,,,,,,106792,106791,97388,97374,97404,106814,,,
Holding screen,html.Screen,2_1_0_0,2021-04-26T11:26:01.861Z,,,,,,,,,,,,,,,,,,,,,,,,,,,,,,,9996,,timeout,,,,,,,,,,,,,,,,,,,,,116791,116791,106798,106792,106814,116810,,,
screen,html.Screen,2_1_0_1_0,2021-04-26T11:26:02.869Z,,,,,,,,,,,,,,,,,53,,,,,,,,,,,,,,841,,response,,,,99,,,,,,,Space,keypress(Space),,,,,,,,When -- ----- -- ------ - ------- --- ----------<br>------------- ------ ------ ---- ---- ------- ----- -- ----<br>-------- ------- -- ---------- --- - --- ----- ----- ----<br>---- --- --- ----- --- ---- ---- ------- ----- ---- -------<br>--- --- -- ----- -- --- ---- -- --- ---- -- ------ ------<br>--- ----- -- ----,117798,117632,116791,116792,116810,117827,,0,When
screen,html.Screen,2_1_0_1_1,2021-04-26T11:26:03.310Z,,,,,,,,,,,,,,,,,53,,,,,,,,,,,,,,265,,response,,,,99,,,,,,,Space,keypress(Space),,,,,,,,---- it ----- -- ------ - ------- --- ----------<br>------------- ------ ------ ---- ---- ------- ----- -- ----<br>-------- ------- -- ---------- --- - --- ----- ----- ----<br>---- --- --- ----- --- ---- ---- ------- ----- ---- -------<br>--- --- -- ----- -- --- ---- -- --- ---- -- ------ ------<br>--- ----- -- ----,118240.00000000001,118074,117809,117799,117827,118278,,1,it
screen,html.Screen,2_1_0_1_2,2021-04-26T11:26:03.652Z,,,,,,,,,,,,,,,,,53,,,,,,,,,,,,,,148,,response,,,,99,,,,,,,Space,keypress(Space),,,,,,,,---- -- comes -- ------ - ------- --- ----------<br>------------- ------ ------ ---- ---- ------- ----- -- ----<br>-------- ------- -- ---------- --- - --- ----- ----- ----<br>---- --- --- ----- --- ---- ---- ------- ----- ---- -------<br>--- --- -- ----- -- --- ---- -- --- ---- -- ------ ------<br>--- ----- -- ----,118581,118409,118261,118240.00000000001,118278,118612,,2,comes
screen,html.Screen,2_1_0_1_3,2021-04-26T11:26:04.019Z,,,,,,,,,,,,,,,,,53,,,,,,,,,,,,,,188,,response,,,,99,,,,,,,Space,keypress(Space),,,,,,,,---- -- ----- to ------ - ------- --- ----------<br>------------- ------ ------ ---- ---- ------- ----- -- ----<br>-------- ------- -- ---------- --- - --- ----- ----- ----<br>---- --- --- ----- --- ---- ---- ------- ----- ---- -------<br>--- --- -- ----- -- --- ---- -- --- ---- -- ------ ------<br>--- ----- -- ----,118949,118783,118595,118582.00000000001,118612,118980,,3,to
screen,html.Screen,2_1_0_1_4,2021-04-26T11:26:04.376Z,,,,,,,,,,,,,,,,,53,,,,,,,,,,,,,,177,,response,,,,99,,,,,,,Space,keypress(Space),,,,,,,,---- -- ----- -- having - ------- --- ----------<br>------------- ------ ------ ---- ---- ------- ----- -- ----<br>-------- ------- -- ---------- --- - --- ----- ----- ----<br>---- --- --- ----- --- ---- ---- ------- ----- ---- -------<br>--- --- -- ----- -- --- ---- -- --- ---- -- ------ ------<br>--- ----- -- ----,119306,119140,118963,118949,118980,119331,,4,having
screen,html.Screen,2_1_0_1_5,2021-04-26T11:26:04.678Z,,,,,,,,,,,,,,,,,53,,,,,,,,,,,,,,128,,response,,,,99,,,,,,,Space,keypress(Space),,,,,,,,---- -- ----- -- ------ a ------- --- ----------<br>------------- ------ ------ ---- ---- ------- ----- -- ----<br>-------- ------- -- ---------- --- - --- ----- ----- ----<br>---- --- --- ----- --- ---- ---- ------- ----- ---- -------<br>--- --- -- ----- -- --- ---- -- --- ---- -- ------ ------<br>--- ----- -- ----,119608,119442,119314,119306,119331,119632,,5,a
screen,html.Screen,2_1_0_1_6,2021-04-26T11:26:04.986Z,,,,,,,,,,,,,,,,,53,,,,,,,,,,,,,,135,,response,,,,99,,,,,,,Space,keypress(Space),,,,,,,,---- -- ----- -- ------ - lasting --- ----------<br>------------- ------ ------ ---- ---- ------- ----- -- ----<br>-------- ------- -- ---------- --- - --- ----- ----- ----<br>---- --- --- ----- --- ---- ---- ------- ----- ---- -------<br>--- --- -- ----- -- --- ---- -- --- ---- -- ------ ------<br>--- ----- -- ----,119916,119750,119615,119608,119632,119949,,6,lasting
screen,html.Screen,2_1_0_1_7,2021-04-26T11:26:05.293Z,,,,,,,,,,,,,,,,,53,,,,,,,,,,,,,,125,,response,,,,99,,,,,,,Space,keypress(Space),,,,,,,,---- -- ----- -- ------ - ------- and ----------<br>------------- ------ ------ ---- ---- ------- ----- -- ----<br>-------- ------- -- ---------- --- - --- ----- ----- ----<br>---- --- --- ----- --- ---- ---- ------- ----- ---- -------<br>--- --- -- ----- -- --- ---- -- --- ---- -- ------ ------<br>--- ----- -- ----,120223,120057,119932,119916,119949,120250,,7,and
screen,html.Screen,2_1_0_1_8,2021-04-26T11:26:05.568Z,,,,,,,,,,,,,,,,,53,,,,,,,,,,,,,,99.00000000001455,,response,,,,99,,,,,,,Space,keypress(Space),,,,,,,,---- -- ----- -- ------ - ------- --- fulfilling<br>------------- ------ ------ ---- ---- ------- ----- -- ----<br>-------- ------- -- ---------- --- - --- ----- ----- ----<br>---- --- --- ----- --- ---- ---- ------- ----- ---- -------<br>--- --- -- ----- -- --- ---- -- --- ---- -- ------ ------<br>--- ----- -- ----,120498,120332.00000000001,120233,120223,120250,120517,,8,fulfilling
screen,html.Screen,2_1_0_1_9,2021-04-26T11:26:06.121Z,,,,,,,,,,,,,,,,,53,,,,,,,,,,,,,,385,,response,,,,99,,,,,,,Space,keypress(Space),,,,,,,,"---- -- ----- -- ------ - ------- --- ----------<br>relationship, ------ ------ ---- ---- ------- ----- -- ----<br>-------- ------- -- ---------- --- - --- ----- ----- ----<br>---- --- --- ----- --- ---- ---- ------- ----- ---- -------<br>--- --- -- ----- -- --- ---- -- --- ---- -- ------ ------<br>--- ----- -- ----",121051,120885,120500,120498,120517,121085,,9,"relationship,"
screen,html.Screen,2_1_0_1_10,2021-04-26T11:26:06.495Z,,,,,,,,,,,,,,,,,53,,,,,,,,,,,,,,190,,response,,,,99,,,,,,,Space,keypress(Space),,,,,,,,---- -- ----- -- ------ - ------- --- ----------<br>------------- common ------ ---- ---- ------- ----- -- ----<br>-------- ------- -- ---------- --- - --- ----- ----- ----<br>---- --- --- ----- --- ---- ---- ------- ----- ---- -------<br>--- --- -- ----- -- --- ---- -- --- ---- -- ------ ------<br>--- ----- -- ----,121425,121259,121069,121051,121085,121453,,10,common
screen,html.Screen,2_1_0_1_11,2021-04-26T11:26:06.826Z,,,,,,,,,,,,,,,,,53,,,,,,,,,,,,,,154,,response,,,,99,,,,,,,Space,keypress(Space),,,,,,,,---- -- ----- -- ------ - ------- --- ----------<br>------------- ------ wisdom ---- ---- ------- ----- -- ----<br>-------- ------- -- ---------- --- - --- ----- ----- ----<br>---- --- --- ----- --- ---- ---- ------- ----- ---- -------<br>--- --- -- ----- -- --- ---- -- --- ---- -- ------ ------<br>--- ----- -- ----,121756,121590,121436,121425,121453,121787,,11,wisdom
screen,html.Screen,2_1_0_1_12,2021-04-26T11:26:07.214Z,,,,,,,,,,,,,,,,,53,,,,,,,,,,,,,,207.00000000001455,,response,,,,99,,,,,,,Space,keypress(Space),,,,,,,,---- -- ----- -- ------ - ------- --- ----------<br>------------- ------ ------ says ---- ------- ----- -- ----<br>-------- ------- -- ---------- --- - --- ----- ----- ----<br>---- --- --- ----- --- ---- ---- ------- ----- ---- -------<br>--- --- -- ----- -- --- ---- -- --- ---- -- ------ ------<br>--- ----- -- ----,122144,121978.00000000001,121771,121756,121787,122172,,12,says
screen,html.Screen,2_1_0_1_13,2021-04-26T11:26:07.623Z,,,,,,,,,,,,,,,,,53,,,,,,,,,,,,,,232,,response,,,,99,,,,,,,Space,keypress(Space),,,,,,,,---- -- ----- -- ------ - ------- --- ----------<br>------------- ------ ------ ---- that ------- ----- -- ----<br>-------- ------- -- ---------- --- - --- ----- ----- ----<br>---- --- --- ----- --- ---- ---- ------- ----- ---- -------<br>--- --- -- ----- -- --- ---- -- --- ---- -- ------ ------<br>--- ----- -- ----,122552,122387,122155,122144,122172,122590,,13,that
screen,html.Screen,2_1_0_1_14,2021-04-26T11:26:08.073Z,,,,,,,,,,,,,,,,,53,,,,,,,,,,,,,,264,,response,,,,99,,,,,,,Space,keypress(Space),,,,,,,,---- -- ----- -- ------ - ------- --- ----------<br>------------- ------ ------ ---- ---- feeling ----- -- ----<br>-------- ------- -- ---------- --- - --- ----- ----- ----<br>---- --- --- ----- --- ---- ---- ------- ----- ---- -------<br>--- --- -- ----- -- --- ---- -- --- ---- -- ------ ------<br>--- ----- -- ----,123002.00000000001,122837,122573,122553,122590,123040,,14,feeling
screen,html.Screen,2_1_0_1_15,2021-04-26T11:26:08.772Z,,,,,,,,,,,,,,,,,53,,,,,,,,,,,,,,512,,response,,,,99,,,,,,,Space,keypress(Space),,,,,,,,---- -- ----- -- ------ - ------- --- ----------<br>------------- ------ ------ ---- ---- ------- close -- ----<br>-------- ------- -- ---------- --- - --- ----- ----- ----<br>---- --- --- ----- --- ---- ---- ------- ----- ---- -------<br>--- --- -- ----- -- --- ---- -- --- ---- -- ------ ------<br>--- ----- -- ----,123702,123536,123024,123003,123040,123742,,15,close
screen,html.Screen,2_1_0_1_16,2021-04-26T11:26:09.160Z,,,,,,,,,,,,,,,,,53,,,,,,,,,,,,,,199,,response,,,,99,,,,,,,Space,keypress(Space),,,,,,,,---- -- ----- -- ------ - ------- --- ----------<br>------------- ------ ------ ---- ---- ------- ----- to ----<br>-------- ------- -- ---------- --- - --- ----- ----- ----<br>---- --- --- ----- --- ---- ---- ------- ----- ---- -------<br>--- --- -- ----- -- --- ---- -- --- ---- -- ------ ------<br>--- ----- -- ----,124089,123924,123725,123702,123742,124110,,16,to
screen,html.Screen,2_1_0_1_17,2021-04-26T11:26:09.487Z,,,,,,,,,,,,,,,,,53,,,,,,,,,,,,,,157,,response,,,,99,,,,,,,Space,keypress(Space),,,,,,,,---- -- ----- -- ------ - ------- --- ----------<br>------------- ------ ------ ---- ---- ------- ----- -- your<br>-------- ------- -- ---------- --- - --- ----- ----- ----<br>---- --- --- ----- --- ---- ---- ------- ----- ---- -------<br>--- --- -- ----- -- --- ---- -- --- ---- -- ------ ------<br>--- ----- -- ----,124416,124251,124094,124089,124110,124444,,17,your
screen,html.Screen,2_1_0_1_18,2021-04-26T11:26:09.862Z,,,,,,,,,,,,,,,,,53,,,,,,,,,,,,,,198,,response,,,,99,,,,,,,Space,keypress(Space),,,,,,,,---- -- ----- -- ------ - ------- --- ----------<br>------------- ------ ------ ---- ---- ------- ----- -- ----<br>romantic ------- -- ---------- --- - --- ----- ----- ----<br>---- --- --- ----- --- ---- ---- ------- ----- ---- -------<br>--- --- -- ----- -- --- ---- -- --- ---- -- ------ ------<br>--- ----- -- ----,124791,124626,124428,124417,124444,124812,,18,romantic
screen,html.Screen,2_1_0_1_19,2021-04-26T11:26:10.224Z,,,,,,,,,,,,,,,,,53,,,,,,,,,,,,,,193,,response,,,,99,,,,,,,Space,keypress(Space),,,,,,,,---- -- ----- -- ------ - ------- --- ----------<br>------------- ------ ------ ---- ---- ------- ----- -- ----<br>-------- partner -- ---------- --- - --- ----- ----- ----<br>---- --- --- ----- --- ---- ---- ------- ----- ---- -------<br>--- --- -- ----- -- --- ---- -- --- ---- -- ------ ------<br>--- ----- -- ----,125153,124988,124795,124792,124812,125180,,19,partner
screen,html.Screen,2_1_0_1_20,2021-04-26T11:26:10.707Z,,,,,,,,,,,,,,,,,53,,,,,,,,,,,,,,309,,response,,,,99,,,,,,,Space,keypress(Space),,,,,,,,---- -- ----- -- ------ - ------- --- ----------<br>------------- ------ ------ ---- ---- ------- ----- -- ----<br>-------- ------- is ---------- --- - --- ----- ----- ----<br>---- --- --- ----- --- ---- ---- ------- ----- ---- -------<br>--- --- -- ----- -- --- ---- -- --- ---- -- ------ ------<br>--- ----- -- ----,125636,125471,125162,125154,125180,125665,,20,is
screen,html.Screen,2_1_0_1_21,2021-04-26T11:26:11.306Z,,,,,,,,,,,,,,,,,53,,,,,,,,,,,,,,423,,response,,,,99,,,,,,,Space,keypress(Space),,,,,,,,---- -- ----- -- ------ - ------- --- ----------<br>------------- ------ ------ ---- ---- ------- ----- -- ----<br>-------- ------- -- paramount. --- - --- ----- ----- ----<br>---- --- --- ----- --- ---- ---- ------- ----- ---- -------<br>--- --- -- ----- -- --- ---- -- --- ---- -- ------ ------<br>--- ----- -- ----,126236,126071,125648,125636,125665,126266,,21,paramount.
screen,html.Screen,2_1_0_1_22,2021-04-26T11:26:12.089Z,,,,,,,,,,,,,,,,,53,,,,,,,,,,,,,,604.0000000000146,,response,,,,99,,,,,,,Space,keypress(Space),,,,,,,,---- -- ----- -- ------ - ------- --- ----------<br>------------- ------ ------ ---- ---- ------- ----- -- ----<br>-------- ------- -- ---------- But - --- ----- ----- ----<br>---- --- --- ----- --- ---- ---- ------- ----- ---- -------<br>--- --- -- ----- -- --- ---- -- --- ---- -- ------ ------<br>--- ----- -- ----,127018,126853.00000000001,126249,126236,126266,127051,,22,But
screen,html.Screen,2_1_0_1_23,2021-04-26T11:26:12.399Z,,,,,,,,,,,,,,,,,53,,,,,,,,,,,,,,128,,response,,,,99,,,,,,,Space,keypress(Space),,,,,,,,---- -- ----- -- ------ - ------- --- ----------<br>------------- ------ ------ ---- ---- ------- ----- -- ----<br>-------- ------- -- ---------- --- a --- ----- ----- ----<br>---- --- --- ----- --- ---- ---- ------- ----- ---- -------<br>--- --- -- ----- -- --- ---- -- --- ---- -- ------ ------<br>--- ----- -- ----,127328,127163,127035,127018,127051,127352,,23,a
screen,html.Screen,2_1_0_1_24,2021-04-26T11:26:12.801Z,,,,,,,,,,,,,,,,,53,,,,,,,,,,,,,,229,,response,,,,99,,,,,,,Space,keypress(Space),,,,,,,,---- -- ----- -- ------ - ------- --- ----------<br>------------- ------ ------ ---- ---- ------- ----- -- ----<br>-------- ------- -- ---------- --- - new ----- ----- ----<br>---- --- --- ----- --- ---- ---- ------- ----- ---- -------<br>--- --- -- ----- -- --- ---- -- --- ---- -- ------ ------<br>--- ----- -- ----,127730,127565,127336,127329.00000000001,127352,127770,,24,new
screen,html.Screen,2_1_0_1_25,2021-04-26T11:26:13.254Z,,,,,,,,,,,,,,,,,53,,,,,,,,,,,,,,265,,response,,,,99,,,,,,,Space,keypress(Space),,,,,,,,---- -- ----- -- ------ - ------- --- ----------<br>------------- ------ ------ ---- ---- ------- ----- -- ----<br>-------- ------- -- ---------- --- - --- study ----- ----<br>---- --- --- ----- --- ---- ---- ------- ----- ---- -------<br>--- --- -- ----- -- --- ---- -- --- ---- -- ------ ------<br>--- ----- -- ----,128183,128018,127753,127731.00000000001,127770,128221,,25,study
screen,html.Screen,2_1_0_1_26,2021-04-26T11:26:13.627Z,,,,,,,,,,,,,,,,,53,,,,,,,,,,,,,,185.00000000001455,,response,,,,99,,,,,,,Space,keypress(Space),,,,,,,,---- -- ----- -- ------ - ------- --- ----------<br>------------- ------ ------ ---- ---- ------- ----- -- ----<br>-------- ------- -- ---------- --- - --- ----- finds ----<br>---- --- --- ----- --- ---- ---- ------- ----- ---- -------<br>--- --- -- ----- -- --- ---- -- --- ---- -- ------ ------<br>--- ----- -- ----,128556.00000000001,128390.00000000001,128205,128183,128221,128589,,26,finds
screen,html.Screen,2_1_0_1_27,2021-04-26T11:26:14.112Z,,,,,,,,,,,,,,,,,53,,,,,,,,,,,,,,303,,response,,,,99,,,,,,,Space,keypress(Space),,,,,,,,---- -- ----- -- ------ - ------- --- ----------<br>------------- ------ ------ ---- ---- ------- ----- -- ----<br>-------- ------- -- ---------- --- - --- ----- ----- that<br>---- --- --- ----- --- ---- ---- ------- ----- ---- -------<br>--- --- -- ----- -- --- ---- -- --- ---- -- ------ ------<br>--- ----- -- ----,129041,128875,128572,128556.00000000001,128589,129073,,27,that
screen,html.Screen,2_1_0_1_28,2021-04-26T11:26:14.558Z,,,,,,,,,,,,,,,,,53,,,,,,,,,,,,,,265,,response,,,,99,,,,,,,Space,keypress(Space),,,,,,,,---- -- ----- -- ------ - ------- --- ----------<br>------------- ------ ------ ---- ---- ------- ----- -- ----<br>-------- ------- -- ---------- --- - --- ----- ----- ----<br>it's --- --- ----- --- ---- ---- ------- ----- ---- -------<br>--- --- -- ----- -- --- ---- -- --- ---- -- ------ ------<br>--- ----- -- ----,129488,129322,129057,129041,129073,129525,,28,it's
screen,html.Screen,2_1_0_1_29,2021-04-26T11:26:14.934Z,,,,,,,,,,,,,,,,,53,,,,,,,,,,,,,,186.00000000001455,,response,,,,99,,,,,,,Space,keypress(Space),,,,,,,,---- -- ----- -- ------ - ------- --- ----------<br>------------- ------ ------ ---- ---- ------- ----- -- ----<br>-------- ------- -- ---------- --- - --- ----- ----- ----<br>---- not --- ----- --- ---- ---- ------- ----- ---- -------<br>--- --- -- ----- -- --- ---- -- --- ---- -- ------ ------<br>--- ----- -- ----,129864,129694.00000000001,129508,129488,129525,129892,,29,not
screen,html.Screen,2_1_0_1_30,2021-04-26T11:26:15.344Z,,,,,,,,,,,,,,,,,53,,,,,,,,,,,,,,231,,response,,,,99,,,,,,,Space,keypress(Space),,,,,,,,---- -- ----- -- ------ - ------- --- ----------<br>------------- ------ ------ ---- ---- ------- ----- -- ----<br>-------- ------- -- ---------- --- - --- ----- ----- ----<br>---- --- how ----- --- ---- ---- ------- ----- ---- -------<br>--- --- -- ----- -- --- ---- -- --- ---- -- ------ ------<br>--- ----- -- ----,130273,130107,129876,129864,129892,130309,,30,how
screen,html.Screen,2_1_0_1_31,2021-04-26T11:26:15.816Z,,,,,,,,,,,,,,,,,53,,,,,,,,,,,,,,287.00000000001455,,response,,,,99,,,,,,,Space,keypress(Space),,,,,,,,---- -- ----- -- ------ - ------- --- ----------<br>------------- ------ ------ ---- ---- ------- ----- -- ----<br>-------- ------- -- ---------- --- - --- ----- ----- ----<br>---- --- --- close --- ---- ---- ------- ----- ---- -------<br>--- --- -- ----- -- --- ---- -- --- ---- -- ------ ------<br>--- ----- -- ----,130746.00000000001,130580.00000000001,130293,130273,130309,130778,,31,close
screen,html.Screen,2_1_0_1_32,2021-04-26T11:26:16.173Z,,,,,,,,,,,,,,,,,53,,,,,,,,,,,,,,175,,response,,,,99,,,,,,,Space,keypress(Space),,,,,,,,---- -- ----- -- ------ - ------- --- ----------<br>------------- ------ ------ ---- ---- ------- ----- -- ----<br>-------- ------- -- ---------- --- - --- ----- ----- ----<br>---- --- --- ----- you ---- ---- ------- ----- ---- -------<br>--- --- -- ----- -- --- ---- -- --- ---- -- ------ ------<br>--- ----- -- ----,131102,130936,130761,130746.00000000001,130778,131128,,32,you
screen,html.Screen,2_1_0_1_33,2021-04-26T11:26:16.854Z,,,,,,,,,,,,,,,,,53,,,,,,,,,,,,,,505,,response,,,,99,,,,,,,Space,keypress(Space),,,,,,,,---- -- ----- -- ------ - ------- --- ----------<br>------------- ------ ------ ---- ---- ------- ----- -- ----<br>-------- ------- -- ---------- --- - --- ----- ----- ----<br>---- --- --- ----- --- feel ---- ------- ----- ---- -------<br>--- --- -- ----- -- --- ---- -- --- ---- -- ------ ------<br>--- ----- -- ----,131783.00000000003,131617,131112,131102,131128,131814,,33,feel
screen,html.Screen,2_1_0_1_34,2021-04-26T11:26:17.472Z,,,,,,,,,,,,,,,,,53,,,,,,,,,,,,,,437,,response,,,,99,,,,,,,Space,keypress(Space),,,,,,,,---- -- ----- -- ------ - ------- --- ----------<br>------------- ------ ------ ---- ---- ------- ----- -- ----<br>-------- ------- -- ---------- --- - --- ----- ----- ----<br>---- --- --- ----- --- ---- that ------- ----- ---- -------<br>--- --- -- ----- -- --- ---- -- --- ---- -- ------ ------<br>--- ----- -- ----,132401,132235,131798,131783.00000000003,131814,132433,,34,that
screen,html.Screen,2_1_0_1_35,2021-04-26T11:26:18.033Z,,,,,,,,,,,,,,,,,53,,,,,,,,,,,,,,381,,response,,,,99,,,,,,,Space,keypress(Space),,,,,,,,---- -- ----- -- ------ - ------- --- ----------<br>------------- ------ ------ ---- ---- ------- ----- -- ----<br>-------- ------- -- ---------- --- - --- ----- ----- ----<br>---- --- --- ----- --- ---- ---- matters ----- ---- -------<br>--- --- -- ----- -- --- ---- -- --- ---- -- ------ ------<br>--- ----- -- ----,132963,132797,132416,132401,132433,133001,,35,matters
screen,html.Screen,2_1_0_1_36,2021-04-26T11:26:19.254Z,,,,,,,,,,,,,,,,,53,,,,,,,,,,,,,,1035,,response,,,,99,,,,,,,Space,keypress(Space),,,,,,,,"---- -- ----- -- ------ - ------- --- ----------<br>------------- ------ ------ ---- ---- ------- ----- -- ----<br>-------- ------- -- ---------- --- - --- ----- ----- ----<br>---- --- --- ----- --- ---- ---- ------- most, ---- -------<br>--- --- -- ----- -- --- ---- -- --- ---- -- ------ ------<br>--- ----- -- ----",134184,134018,132983,132963,133001,134220,,36,"most,"
screen,html.Screen,2_1_0_1_37,2021-04-26T11:26:20.393Z,,,,,,,,,,,,,,,,,53,,,,,,,,,,,,,,953,,response,,,,99,,,,,,,Space,keypress(Space),,,,,,,,---- -- ----- -- ------ - ------- --- ----------<br>------------- ------ ------ ---- ---- ------- ----- -- ----<br>-------- ------- -- ---------- --- - --- ----- ----- ----<br>---- --- --- ----- --- ---- ---- ------- ----- it's -------<br>--- --- -- ----- -- --- ---- -- --- ---- -- ------ ------<br>--- ----- -- ----,135323,135157,134204,134184,134220,135357,,37,it's
screen,html.Screen,2_1_0_1_38,2021-04-26T11:26:20.967Z,,,,,,,,,,,,,,,,,53,,,,,,,,,,,,,,391,,response,,,,99,,,,,,,Space,keypress(Space),,,,,,,,---- -- ----- -- ------ - ------- --- ----------<br>------------- ------ ------ ---- ---- ------- ----- -- ----<br>-------- ------- -- ---------- --- - --- ----- ----- ----<br>---- --- --- ----- --- ---- ---- ------- ----- ---- whether<br>--- --- -- ----- -- --- ---- -- --- ---- -- ------ ------<br>--- ----- -- ----,135897,135731,135340,135323,135357,135925,,38,whether
screen,html.Screen,2_1_0_1_39,2021-04-26T11:26:21.356Z,,,,,,,,,,,,,,,,,53,,,,,,,,,,,,,,210,,response,,,,99,,,,,,,Space,keypress(Space),,,,,,,,---- -- ----- -- ------ - ------- --- ----------<br>------------- ------ ------ ---- ---- ------- ----- -- ----<br>-------- ------- -- ---------- --- - --- ----- ----- ----<br>---- --- --- ----- --- ---- ---- ------- ----- ---- -------<br>you --- -- ----- -- --- ---- -- --- ---- -- ------ ------<br>--- ----- -- ----,136285,136119,135909,135897,135925,136310,,39,you
screen,html.Screen,2_1_0_1_40,2021-04-26T11:26:21.662Z,,,,,,,,,,,,,,,,,53,,,,,,,,,,,,,,133.0000000000291,,response,,,,99,,,,,,,Space,keypress(Space),,,,,,,,---- -- ----- -- ------ - ------- --- ----------<br>------------- ------ ------ ---- ---- ------- ----- -- ----<br>-------- ------- -- ---------- --- - --- ----- ----- ----<br>---- --- --- ----- --- ---- ---- ------- ----- ---- -------<br>--- are -- ----- -- --- ---- -- --- ---- -- ------ ------<br>--- ----- -- ----,136591,136426.00000000003,136293,136285,136310,136610,,40,are
screen,html.Screen,2_1_0_1_41,2021-04-26T11:26:21.945Z,,,,,,,,,,,,,,,,,53,,,,,,,,,,,,,,116,,response,,,,99,,,,,,,Space,keypress(Space),,,,,,,,---- -- ----- -- ------ - ------- --- ----------<br>------------- ------ ------ ---- ---- ------- ----- -- ----<br>-------- ------- -- ---------- --- - --- ----- ----- ----<br>---- --- --- ----- --- ---- ---- ------- ----- ---- -------<br>--- --- as ----- -- --- ---- -- --- ---- -- ------ ------<br>--- ----- -- ----,136875,136709,136593,136592,136610,136894,,41,as
screen,html.Screen,2_1_0_1_42,2021-04-26T11:26:22.294Z,,,,,,,,,,,,,,,,,53,,,,,,,,,,,,,,181,,response,,,,99,,,,,,,Space,keypress(Space),,,,,,,,---- -- ----- -- ------ - ------- --- ----------<br>------------- ------ ------ ---- ---- ------- ----- -- ----<br>-------- ------- -- ---------- --- - --- ----- ----- ----<br>---- --- --- ----- --- ---- ---- ------- ----- ---- -------<br>--- --- -- close -- --- ---- -- --- ---- -- ------ ------<br>--- ----- -- ----,137224,137058,136877,136875,136894,137245,,42,close
screen,html.Screen,2_1_0_1_43,2021-04-26T11:26:22.688Z,,,,,,,,,,,,,,,,,53,,,,,,,,,,,,,,223,,response,,,,99,,,,,,,Space,keypress(Space),,,,,,,,---- -- ----- -- ------ - ------- --- ----------<br>------------- ------ ------ ---- ---- ------- ----- -- ----<br>-------- ------- -- ---------- --- - --- ----- ----- ----<br>---- --- --- ----- --- ---- ---- ------- ----- ---- -------<br>--- --- -- ----- as --- ---- -- --- ---- -- ------ ------<br>--- ----- -- ----,137618,137452,137229,137224,137245,137646,,43,as
screen,html.Screen,2_1_0_1_44,2021-04-26T11:26:23.022Z,,,,,,,,,,,,,,,,,53,,,,,,,,,,,,,,156,,response,,,,99,,,,,,,Space,keypress(Space),,,,,,,,---- -- ----- -- ------ - ------- --- ----------<br>------------- ------ ------ ---- ---- ------- ----- -- ----<br>-------- ------- -- ---------- --- - --- ----- ----- ----<br>---- --- --- ----- --- ---- ---- ------- ----- ---- -------<br>--- --- -- ----- -- you ---- -- --- ---- -- ------ ------<br>--- ----- -- ----,137951,137786,137630,137618,137646,137981,,44,you
screen,html.Screen,2_1_0_1_45,2021-04-26T11:26:23.378Z,,,,,,,,,,,,,,,,,53,,,,,,,,,,,,,,178,,response,,,,99,,,,,,,Space,keypress(Space),,,,,,,,---- -- ----- -- ------ - ------- --- ----------<br>------------- ------ ------ ---- ---- ------- ----- -- ----<br>-------- ------- -- ---------- --- - --- ----- ----- ----<br>---- --- --- ----- --- ---- ---- ------- ----- ---- -------<br>--- --- -- ----- -- --- want -- --- ---- -- ------ ------<br>--- ----- -- ----,138308,138142,137964,137952,137981,138332,,45,want
screen,html.Screen,2_1_0_1_46,2021-04-26T11:26:23.727Z,,,,,,,,,,,,,,,,,53,,,,,,,,,,,,,,175,,response,,,,99,,,,,,,Space,keypress(Space),,,,,,,,---- -- ----- -- ------ - ------- --- ----------<br>------------- ------ ------ ---- ---- ------- ----- -- ----<br>-------- ------- -- ---------- --- - --- ----- ----- ----<br>---- --- --- ----- --- ---- ---- ------- ----- ---- -------<br>--- --- -- ----- -- --- ---- to --- ---- -- ------ ------<br>--- ----- -- ----,138656,138490,138315,138308,138332,138683,,46,to
screen,html.Screen,2_1_0_1_47,2021-04-26T11:26:24.114Z,,,,,,,,,,,,,,,,,53,,,,,,,,,,,,,,211,,response,,,,99,,,,,,,Space,keypress(Space),,,,,,,,"---- -- ----- -- ------ - ------- --- ----------<br>------------- ------ ------ ---- ---- ------- ----- -- ----<br>-------- ------- -- ---------- --- - --- ----- ----- ----<br>---- --- --- ----- --- ---- ---- ------- ----- ---- -------<br>--- --- -- ----- -- --- ---- -- be, ---- -- ------ ------<br>--- ----- -- ----",139044,138877,138666,138657,138683,139067,,47,"be,"
screen,html.Screen,2_1_0_1_48,2021-04-26T11:26:24.482Z,,,,,,,,,,,,,,,,,53,,,,,,,,,,,,,,196,,response,,,,99,,,,,,,Space,keypress(Space),,,,,,,,---- -- ----- -- ------ - ------- --- ----------<br>------------- ------ ------ ---- ---- ------- ----- -- ----<br>-------- ------- -- ---------- --- - --- ----- ----- ----<br>---- --- --- ----- --- ---- ---- ------- ----- ---- -------<br>--- --- -- ----- -- --- ---- -- --- even -- ------ ------<br>--- ----- -- ----,139412,139246,139050,139044,139067,139435,,48,even
screen,html.Screen,2_1_0_1_49,2021-04-26T11:26:24.867Z,,,,,,,,,,,,,,,,,53,,,,,,,,,,,,,,213,,response,,,,99,,,,,,,Space,keypress(Space),,,,,,,,---- -- ----- -- ------ - ------- --- ----------<br>------------- ------ ------ ---- ---- ------- ----- -- ----<br>-------- ------- -- ---------- --- - --- ----- ----- ----<br>---- --- --- ----- --- ---- ---- ------- ----- ---- -------<br>--- --- -- ----- -- --- ---- -- --- ---- if ------ ------<br>--- ----- -- ----,139796,139630,139417,139412,139435,139818,,49,if
screen,html.Screen,2_1_0_1_50,2021-04-26T11:26:25.286Z,,,,,,,,,,,,,,,,,53,,,,,,,,,,,,,,247,,response,,,,99,,,,,,,Space,keypress(Space),,,,,,,,---- -- ----- -- ------ - ------- --- ----------<br>------------- ------ ------ ---- ---- ------- ----- -- ----<br>-------- ------- -- ---------- --- - --- ----- ----- ----<br>---- --- --- ----- --- ---- ---- ------- ----- ---- -------<br>--- --- -- ----- -- --- ---- -- --- ---- -- that's ------<br>--- ----- -- ----,140215,140049,139802,139797,139818,140253,,50,that's
screen,html.Screen,2_1_0_1_51,2021-04-26T11:26:25.702Z,,,,,,,,,,,,,,,,,53,,,,,,,,,,,,,,228,,response,,,,99,,,,,,,Space,keypress(Space),,,,,,,,---- -- ----- -- ------ - ------- --- ----------<br>------------- ------ ------ ---- ---- ------- ----- -- ----<br>-------- ------- -- ---------- --- - --- ----- ----- ----<br>---- --- --- ----- --- ---- ---- ------- ----- ---- -------<br>--- --- -- ----- -- --- ---- -- --- ---- -- ------ really<br>--- ----- -- ----,140631,140465,140237,140215,140253,140671,,51,really
screen,html.Screen,2_1_0_1_52,2021-04-26T11:26:26.136Z,,,,,,,,,,,,,,,,,53,,,,,,,,,,,,,,245,,response,,,,99,,,,,,,Space,keypress(Space),,,,,,,,---- -- ----- -- ------ - ------- --- ----------<br>------------- ------ ------ ---- ---- ------- ----- -- ----<br>-------- ------- -- ---------- --- - --- ----- ----- ----<br>---- --- --- ----- --- ---- ---- ------- ----- ---- -------<br>--- --- -- ----- -- --- ---- -- --- ---- -- ------ ------<br>not ----- -- ----,141065,140899,140654,140632,140671,141106,,52,not
screen,html.Screen,2_1_0_1_53,2021-04-26T11:26:26.520Z,,,,,,,,,,,,,,,,,53,,,,,,,,,,,,,,194.0000000000291,,response,,,,99,,,,,,,Space,keypress(Space),,,,,,,,---- -- ----- -- ------ - ------- --- ----------<br>------------- ------ ------ ---- ---- ------- ----- -- ----<br>-------- ------- -- ---------- --- - --- ----- ----- ----<br>---- --- --- ----- --- ---- ---- ------- ----- ---- -------<br>--- --- -- ----- -- --- ---- -- --- ---- -- ------ ------<br>--- close -- ----,141449,141283.00000000003,141089,141066,141106,141473,,53,close
screen,html.Screen,2_1_0_1_54,2021-04-26T11:26:26.955Z,,,,,,,,,,,,,,,,,53,,,,,,,,,,,,,,261,,response,,,,99,,,,,,,Space,keypress(Space),,,,,,,,---- -- ----- -- ------ - ------- --- ----------<br>------------- ------ ------ ---- ---- ------- ----- -- ----<br>-------- ------- -- ---------- --- - --- ----- ----- ----<br>---- --- --- ----- --- ---- ---- ------- ----- ---- -------<br>--- --- -- ----- -- --- ---- -- --- ---- -- ------ ------<br>--- ----- at ----,141884,141718,141457,141450.00000000003,141473,141924,,54,at
screen,html.Screen,2_1_0_1_55,2021-04-26T11:26:27.633Z,,,,,,,,,,,,,,,,,53,,,,,,,,,,,,,,488.0000000000291,,response,,,,99,,,,,,,Space,keypress(Space),,,,,,,,---- -- ----- -- ------ - ------- --- ----------<br>------------- ------ ------ ---- ---- ------- ----- -- ----<br>-------- ------- -- ---------- --- - --- ----- ----- ----<br>---- --- --- ----- --- ---- ---- ------- ----- ---- -------<br>--- --- -- ----- -- --- ---- -- --- ---- -- ------ ------<br>--- ----- -- all.,142562,142396.00000000003,141908,141884,141924,142593,,55,all.
Item 99,flow.Loop,2_1_0_1,2021-04-26T11:26:27.634Z,,,,,,,,,,,,,,,,,,,,,,,,,,,,,,,25586.00000000003,,completion,,,,,B,,,,,,,,,,,silence,,,,,142563.00000000003,142396.00000000003,116791,116791,116810,142593,,,
Question 1,html.Screen,2_1_0_2,2021-04-26T11:26:37.273Z,,,,,,,,,,,,,,,,,,,,,,,,,,,,true,FALSE,,9459,,response,,,,99,B,,,,,,FALSE,click #choice-2,,,,silence,,,,,152202,152035,142576,142563.00000000003,142593,152235,,,
Question 2,html.Screen,2_1_0_3,2021-04-26T11:26:45.102Z,,,,,,,,,,,,,,,,,,,,,,,,,,,,true,TRUE,,7645,,response,,,,99,B,,,,,,TRUE,click #choice-1,,,,silence,,,,,160030,159863,152218,152202,152235,160067,,,
Item 99,flow.Sequence,2_1_0,2021-04-26T11:26:45.102Z,,,,,,,,,,,,,,,,,,,,,,,,,,,,,,,53049,,completion,,,,,,,,,,,,,,,,,,,,,160030,159863,106798,106792,106814,160067,,,
Holding screen,html.Screen,2_1_1_0,2021-04-26T11:26:55.122Z,,,,,,,,,,,,,,,,,,,,,,,,,,,,,,,9999,,timeout,,,,,,,,,,,,,,,,,,,,,170050,170050,160039,160031,160067,170066,,,
screen,html.Screen,2_1_1_1_0,2021-04-26T11:26:56.162Z,,,,,,,,,,,,,,,,,54,,,,,,,,,,,,,,872,,response,,,,100,,,,,,,Space,keypress(Space),,,,,,,,At --- ---- --- ------ ----- ------- ---- -- --- ------- --<br>------- ---------- ------ -- ----- -- ----- -- ---- ------<br>--- ----- --- --- ------ -------- ----- --- ------ ----- --<br>----- ----- ---------- --- --- ------ ------ ---- -- ------<br>------- --- ------ ----- --- ---- ------- -- ---- --- --<br>------- ------,171090,170922,170050,170050,170066,171118,,0,At
screen,html.Screen,2_1_1_1_1,2021-04-26T11:26:57.343Z,,,,,,,,,,,,,,,,,54,,,,,,,,,,,,,,1002,,response,,,,100,,,,,,,Space,keypress(Space),,,,,,,,-- the ---- --- ------ ----- ------- ---- -- --- ------- --<br>------- ---------- ------ -- ----- -- ----- -- ---- ------<br>--- ----- --- --- ------ -------- ----- --- ------ ----- --<br>----- ----- ---------- --- --- ------ ------ ---- -- ------<br>------- --- ------ ----- --- ---- ------- -- ---- --- --<br>------- ------,172271.00000000003,172104,171102,171090,171118,172306,,1,the
screen,html.Screen,2_1_1_1_2,2021-04-26T11:26:57.769Z,,,,,,,,,,,,,,,,,54,,,,,,,,,,,,,,241,,response,,,,100,,,,,,,Space,keypress(Space),,,,,,,,-- --- time --- ------ ----- ------- ---- -- --- ------- --<br>------- ---------- ------ -- ----- -- ----- -- ---- ------<br>--- ----- --- --- ------ -------- ----- --- ------ ----- --<br>----- ----- ---------- --- --- ------ ------ ---- -- ------<br>------- --- ------ ----- --- ---- ------- -- ---- --- --<br>------- ------,172697,172530,172289,172272,172306,172740,,2,time
screen,html.Screen,2_1_1_1_3,2021-04-26T11:26:58.500Z,,,,,,,,,,,,,,,,,54,,,,,,,,,,,,,,538,,response,,,,100,,,,,,,Space,keypress(Space),,,,,,,,-- --- ---- the ------ ----- ------- ---- -- --- ------- --<br>------- ---------- ------ -- ----- -- ----- -- ---- ------<br>--- ----- --- --- ------ -------- ----- --- ------ ----- --<br>----- ----- ---------- --- --- ------ ------ ---- -- ------<br>------- --- ------ ----- --- ---- ------- -- ---- --- --<br>------- ------,173428,173261,172723,172698,172740,173459,,3,the
screen,html.Screen,2_1_1_1_4,2021-04-26T11:26:58.869Z,,,,,,,,,,,,,,,,,54,,,,,,,,,,,,,,188,,response,,,,100,,,,,,,Space,keypress(Space),,,,,,,,-- --- ---- --- French ----- ------- ---- -- --- ------- --<br>------- ---------- ------ -- ----- -- ----- -- ---- ------<br>--- ----- --- --- ------ -------- ----- --- ------ ----- --<br>----- ----- ---------- --- --- ------ ------ ---- -- ------<br>------- --- ------ ----- --- ---- ------- -- ---- --- --<br>------- ------,173797,173630,173442,173428,173459,173826,,4,French
screen,html.Screen,2_1_1_1_5,2021-04-26T11:26:59.191Z,,,,,,,,,,,,,,,,,54,,,,,,,,,,,,,,142,,response,,,,100,,,,,,,Space,keypress(Space),,,,,,,,-- --- ---- --- ------ crown ------- ---- -- --- ------- --<br>------- ---------- ------ -- ----- -- ----- -- ---- ------<br>--- ----- --- --- ------ -------- ----- --- ------ ----- --<br>----- ----- ---------- --- --- ------ ------ ---- -- ------<br>------- --- ------ ----- --- ---- ------- -- ---- --- --<br>------- ------,174119,173952,173810,173797,173826,174144,,5,crown
screen,html.Screen,2_1_1_1_6,2021-04-26T11:26:59.528Z,,,,,,,,,,,,,,,,,54,,,,,,,,,,,,,,162.0000000000291,,response,,,,100,,,,,,,Space,keypress(Space),,,,,,,,-- --- ---- --- ------ ----- secured ---- -- --- ------- --<br>------- ---------- ------ -- ----- -- ----- -- ---- ------<br>--- ----- --- --- ------ -------- ----- --- ------ ----- --<br>----- ----- ---------- --- --- ------ ------ ---- -- ------<br>------- --- ------ ----- --- ---- ------- -- ---- --- --<br>------- ------,174456.00000000003,174289.00000000003,174127,174119,174144,174478,,6,secured
screen,html.Screen,2_1_1_1_7,2021-04-26T11:26:59.928Z,,,,,,,,,,,,,,,,,54,,,,,,,,,,,,,,228,,response,,,,100,,,,,,,Space,keypress(Space),,,,,,,,-- --- ---- --- ------ ----- ------- much -- --- ------- --<br>------- ---------- ------ -- ----- -- ----- -- ---- ------<br>--- ----- --- --- ------ -------- ----- --- ------ ----- --<br>----- ----- ---------- --- --- ------ ------ ---- -- ------<br>------- --- ------ ----- --- ---- ------- -- ---- --- --<br>------- ------,174856,174689,174461,174456.00000000003,174478,174896,,7,much
screen,html.Screen,2_1_1_1_8,2021-04-26T11:27:00.402Z,,,,,,,,,,,,,,,,,54,,,,,,,,,,,,,,284,,response,,,,100,,,,,,,Space,keypress(Space),,,,,,,,-- --- ---- --- ------ ----- ------- ---- of --- ------- --<br>------- ---------- ------ -- ----- -- ----- -- ---- ------<br>--- ----- --- --- ------ -------- ----- --- ------ ----- --<br>----- ----- ---------- --- --- ------ ------ ---- -- ------<br>------- --- ------ ----- --- ---- ------- -- ---- --- --<br>------- ------,175330,175163,174879,174857,174896,175364,,8,of
screen,html.Screen,2_1_1_1_9,2021-04-26T11:27:00.801Z,,,,,,,,,,,,,,,,,54,,,,,,,,,,,,,,215,,response,,,,100,,,,,,,Space,keypress(Space),,,,,,,,-- --- ---- --- ------ ----- ------- ---- -- its ------- --<br>------- ---------- ------ -- ----- -- ----- -- ---- ------<br>--- ----- --- --- ------ -------- ----- --- ------ ----- --<br>----- ----- ---------- --- --- ------ ------ ---- -- ------<br>------- --- ------ ----- --- ---- ------- -- ---- --- --<br>------- ------,175729,175562,175347,175330,175364,175748,,9,its
screen,html.Screen,2_1_1_1_10,2021-04-26T11:27:01.260Z,,,,,,,,,,,,,,,,,54,,,,,,,,,,,,,,290.0000000000291,,response,,,,100,,,,,,,Space,keypress(Space),,,,,,,,-- --- ---- --- ------ ----- ------- ---- -- --- revenue --<br>------- ---------- ------ -- ----- -- ----- -- ---- ------<br>--- ----- --- --- ------ -------- ----- --- ------ ----- --<br>----- ----- ---------- --- --- ------ ------ ---- -- ------<br>------- --- ------ ----- --- ---- ------- -- ---- --- --<br>------- ------,176188.00000000003,176021.00000000003,175731,175729,175748,176216,,10,revenue
screen,html.Screen,2_1_1_1_11,2021-04-26T11:27:02.369Z,,,,,,,,,,,,,,,,,54,,,,,,,,,,,,,,931,,response,,,,100,,,,,,,Space,keypress(Space),,,,,,,,-- --- ---- --- ------ ----- ------- ---- -- --- ------- by<br>------- ---------- ------ -- ----- -- ----- -- ---- ------<br>--- ----- --- --- ------ -------- ----- --- ------ ----- --<br>----- ----- ---------- --- --- ------ ------ ---- -- ------<br>------- --- ------ ----- --- ---- ------- -- ---- --- --<br>------- ------,177297,177130,176199,176188.00000000003,176216,177336,,11,by
screen,html.Screen,2_1_1_1_12,2021-04-26T11:27:02.752Z,,,,,,,,,,,,,,,,,54,,,,,,,,,,,,,,194,,response,,,,100,,,,,,,Space,keypress(Space),,,,,,,,-- --- ---- --- ------ ----- ------- ---- -- --- ------- --<br>issuing ---------- ------ -- ----- -- ----- -- ---- ------<br>--- ----- --- --- ------ -------- ----- --- ------ ----- --<br>----- ----- ---------- --- --- ------ ------ ---- -- ------<br>------- --- ------ ----- --- ---- ------- -- ---- --- --<br>------- ------,177680,177513,177319,177297,177336,177703,,12,issuing
screen,html.Screen,2_1_1_1_13,2021-04-26T11:27:03.489Z,,,,,,,,,,,,,,,,,54,,,,,,,,,,,,,,563,,response,,,,100,,,,,,,Space,keypress(Space),,,,,,,,-- --- ---- --- ------ ----- ------- ---- -- --- ------- --<br>------- government ------ -- ----- -- ----- -- ---- ------<br>--- ----- --- --- ------ -------- ----- --- ------ ----- --<br>----- ----- ---------- --- --- ------ ------ ---- -- ------<br>------- --- ------ ----- --- ---- ------- -- ---- --- --<br>------- ------,178417,178250,177687,177680,177703,178455,,13,government
screen,html.Screen,2_1_1_1_14,2021-04-26T11:27:04.060Z,,,,,,,,,,,,,,,,,54,,,,,,,,,,,,,,382,,response,,,,100,,,,,,,Space,keypress(Space),,,,,,,,-- --- ---- --- ------ ----- ------- ---- -- --- ------- --<br>------- ---------- bonds. -- ----- -- ----- -- ---- ------<br>--- ----- --- --- ------ -------- ----- --- ------ ----- --<br>----- ----- ---------- --- --- ------ ------ ---- -- ------<br>------- --- ------ ----- --- ---- ------- -- ---- --- --<br>------- ------,178988,178821,178439,178417,178455,179024,,14,bonds.
screen,html.Screen,2_1_1_1_15,2021-04-26T11:27:04.689Z,,,,,,,,,,,,,,,,,54,,,,,,,,,,,,,,443.0000000000291,,response,,,,100,,,,,,,Space,keypress(Space),,,,,,,,-- --- ---- --- ------ ----- ------- ---- -- --- ------- --<br>------- ---------- ------ In ----- -- ----- -- ---- ------<br>--- ----- --- --- ------ -------- ----- --- ------ ----- --<br>----- ----- ---------- --- --- ------ ------ ---- -- ------<br>------- --- ------ ----- --- ---- ------- -- ---- --- --<br>------- ------,179617,179450.00000000003,179007,178988,179024,179659,,15,In
screen,html.Screen,2_1_1_1_16,2021-04-26T11:27:06.292Z,,,,,,,,,,,,,,,,,54,,,,,,,,,,,,,,1412,,response,,,,100,,,,,,,Space,keypress(Space),,,,,,,,"-- --- ---- --- ------ ----- ------- ---- -- --- ------- --<br>------- ---------- ------ -- 1727, -- ----- -- ---- ------<br>--- ----- --- --- ------ -------- ----- --- ------ ----- --<br>----- ----- ---------- --- --- ------ ------ ---- -- ------<br>------- --- ------ ----- --- ---- ------- -- ---- --- --<br>------- ------",181220,181053,179641,179617,179659,181263,,16,"1727,"
screen,html.Screen,2_1_1_1_17,2021-04-26T11:27:06.661Z,,,,,,,,,,,,,,,,,54,,,,,,,,,,,,,,175,,response,,,,100,,,,,,,Space,keypress(Space),,,,,,,,-- --- ---- --- ------ ----- ------- ---- -- --- ------- --<br>------- ---------- ------ -- ----- in ----- -- ---- ------<br>--- ----- --- --- ------ -------- ----- --- ------ ----- --<br>----- ----- ---------- --- --- ------ ------ ---- -- ------<br>------- --- ------ ----- --- ---- ------- -- ---- --- --<br>------- ------,181589,181421,181246,181220,181263,181614,,17,in
screen,html.Screen,2_1_1_1_18,2021-04-26T11:27:07.132Z,,,,,,,,,,,,,,,,,54,,,,,,,,,,,,,,296,,response,,,,100,,,,,,,Space,keypress(Space),,,,,,,,-- --- ---- --- ------ ----- ------- ---- -- --- ------- --<br>------- ---------- ------ -- ----- -- order -- ---- ------<br>--- ----- --- --- ------ -------- ----- --- ------ ----- --<br>----- ----- ---------- --- --- ------ ------ ---- -- ------<br>------- --- ------ ----- --- ---- ------- -- ---- --- --<br>------- ------,182060,181892,181596,181589,181614,182098,,18,order
screen,html.Screen,2_1_1_1_19,2021-04-26T11:27:07.555Z,,,,,,,,,,,,,,,,,54,,,,,,,,,,,,,,233,,response,,,,100,,,,,,,Space,keypress(Space),,,,,,,,-- --- ---- --- ------ ----- ------- ---- -- --- ------- --<br>------- ---------- ------ -- ----- -- ----- to ---- ------<br>--- ----- --- --- ------ -------- ----- --- ------ ----- --<br>----- ----- ---------- --- --- ------ ------ ---- -- ------<br>------- --- ------ ----- --- ---- ------- -- ---- --- --<br>------- ------,182483,182315,182082,182060,182098,182516,,19,to
screen,html.Screen,2_1_1_1_20,2021-04-26T11:27:07.894Z,,,,,,,,,,,,,,,,,54,,,,,,,,,,,,,,154,,response,,,,100,,,,,,,Space,keypress(Space),,,,,,,,-- --- ---- --- ------ ----- ------- ---- -- --- ------- --<br>------- ---------- ------ -- ----- -- ----- -- save ------<br>--- ----- --- --- ------ -------- ----- --- ------ ----- --<br>----- ----- ---------- --- --- ------ ------ ---- -- ------<br>------- --- ------ ----- --- ---- ------- -- ---- --- --<br>------- ------,182822,182654,182500,182483,182516,182850,,20,save
screen,html.Screen,2_1_1_1_21,2021-04-26T11:27:08.313Z,,,,,,,,,,,,,,,,,54,,,,,,,,,,,,,,239,,response,,,,100,,,,,,,Space,keypress(Space),,,,,,,,"-- --- ---- --- ------ ----- ------- ---- -- --- ------- --<br>------- ---------- ------ -- ----- -- ----- -- ---- money,<br>--- ----- --- --- ------ -------- ----- --- ------ ----- --<br>----- ----- ---------- --- --- ------ ------ ---- -- ------<br>------- --- ------ ----- --- ---- ------- -- ---- --- --<br>------- ------",183240,183073,182834,182822,182850,183268,,21,"money,"
screen,html.Screen,2_1_1_1_22,2021-04-26T11:27:08.677Z,,,,,,,,,,,,,,,,,54,,,,,,,,,,,,,,185,,response,,,,100,,,,,,,Space,keypress(Space),,,,,,,,-- --- ---- --- ------ ----- ------- ---- -- --- ------- --<br>------- ---------- ------ -- ----- -- ----- -- ---- ------<br>the ----- --- --- ------ -------- ----- --- ------ ----- --<br>----- ----- ---------- --- --- ------ ------ ---- -- ------<br>------- --- ------ ----- --- ---- ------- -- ---- --- --<br>------- ------,183604,183437,183252,183241,183268,183636,,22,the
screen,html.Screen,2_1_1_1_23,2021-04-26T11:27:08.965Z,,,,,,,,,,,,,,,,,54,,,,,,,,,,,,,,106,,response,,,,100,,,,,,,Space,keypress(Space),,,,,,,,-- --- ---- --- ------ ----- ------- ---- -- --- ------- --<br>------- ---------- ------ -- ----- -- ----- -- ---- ------<br>--- state --- --- ------ -------- ----- --- ------ ----- --<br>----- ----- ---------- --- --- ------ ------ ---- -- ------<br>------- --- ------ ----- --- ---- ------- -- ---- --- --<br>------- ------,183893,183725,183619,183605,183636,183920,,23,state
screen,html.Screen,2_1_1_1_24,2021-04-26T11:27:09.240Z,,,,,,,,,,,,,,,,,54,,,,,,,,,,,,,,97,,response,,,,100,,,,,,,Space,keypress(Space),,,,,,,,-- --- ---- --- ------ ----- ------- ---- -- --- ------- --<br>------- ---------- ------ -- ----- -- ----- -- ---- ------<br>--- ----- cut --- ------ -------- ----- --- ------ ----- --<br>----- ----- ---------- --- --- ------ ------ ---- -- ------<br>------- --- ------ ----- --- ---- ------- -- ---- --- --<br>------- ------,184168,184000,183903,183893,183920,184187,,24,cut
screen,html.Screen,2_1_1_1_25,2021-04-26T11:27:09.625Z,,,,,,,,,,,,,,,,,54,,,,,,,,,,,,,,216,,response,,,,100,,,,,,,Space,keypress(Space),,,,,,,,-- --- ---- --- ------ ----- ------- ---- -- --- ------- --<br>------- ---------- ------ -- ----- -- ----- -- ---- ------<br>--- ----- --- the ------ -------- ----- --- ------ ----- --<br>----- ----- ---------- --- --- ------ ------ ---- -- ------<br>------- --- ------ ----- --- ---- ------- -- ---- --- --<br>------- ------,184552,184385,184169,184168,184187,184572,,25,the
screen,html.Screen,2_1_1_1_26,2021-04-26T11:27:09.981Z,,,,,,,,,,,,,,,,,54,,,,,,,,,,,,,,186,,response,,,,100,,,,,,,Space,keypress(Space),,,,,,,,-- --- ---- --- ------ ----- ------- ---- -- --- ------- --<br>------- ---------- ------ -- ----- -- ----- -- ---- ------<br>--- ----- --- --- bonds' -------- ----- --- ------ ----- --<br>----- ----- ---------- --- --- ------ ------ ---- -- ------<br>------- --- ------ ----- --- ---- ------- -- ---- --- --<br>------- ------,184908.00000000003,184741,184555,184553,184572,184939,,26,bonds'
screen,html.Screen,2_1_1_1_27,2021-04-26T11:27:10.453Z,,,,,,,,,,,,,,,,,54,,,,,,,,,,,,,,290,,response,,,,100,,,,,,,Space,keypress(Space),,,,,,,,-- --- ---- --- ------ ----- ------- ---- -- --- ------- --<br>------- ---------- ------ -- ----- -- ----- -- ---- ------<br>--- ----- --- --- ------ interest ----- --- ------ ----- --<br>----- ----- ---------- --- --- ------ ------ ---- -- ------<br>------- --- ------ ----- --- ---- ------- -- ---- --- --<br>------- ------,185380,185213,184923,184909,184939,185424,,27,interest
screen,html.Screen,2_1_1_1_28,2021-04-26T11:27:11.033Z,,,,,,,,,,,,,,,,,54,,,,,,,,,,,,,,386,,response,,,,100,,,,,,,Space,keypress(Space),,,,,,,,-- --- ---- --- ------ ----- ------- ---- -- --- ------- --<br>------- ---------- ------ -- ----- -- ----- -- ---- ------<br>--- ----- --- --- ------ -------- rate. --- ------ ----- --<br>----- ----- ---------- --- --- ------ ------ ---- -- ------<br>------- --- ------ ----- --- ---- ------- -- ---- --- --<br>------- ------,185960,185793,185407,185381,185424,185992,,28,rate.
screen,html.Screen,2_1_1_1_29,2021-04-26T11:27:11.412Z,,,,,,,,,,,,,,,,,54,,,,,,,,,,,,,,196,,response,,,,100,,,,,,,Space,keypress(Space),,,,,,,,-- --- ---- --- ------ ----- ------- ---- -- --- ------- --<br>------- ---------- ------ -- ----- -- ----- -- ---- ------<br>--- ----- --- --- ------ -------- ----- The ------ ----- --<br>----- ----- ---------- --- --- ------ ------ ---- -- ------<br>------- --- ------ ----- --- ---- ------- -- ---- --- --<br>------- ------,186339,186172,185976,185961,185992,186360,,29,The
screen,html.Screen,2_1_1_1_30,2021-04-26T11:27:11.789Z,,,,,,,,,,,,,,,,,54,,,,,,,,,,,,,,206,,response,,,,100,,,,,,,Space,keypress(Space),,,,,,,,-- --- ---- --- ------ ----- ------- ---- -- --- ------- --<br>------- ---------- ------ -- ----- -- ----- -- ---- ------<br>--- ----- --- --- ------ -------- ----- --- market ----- --<br>----- ----- ---------- --- --- ------ ------ ---- -- ------<br>------- --- ------ ----- --- ---- ------- -- ---- --- --<br>------- ------,186716,186549,186343,186339,186360,186744,,30,market
screen,html.Screen,2_1_1_1_31,2021-04-26T11:27:12.271Z,,,,,,,,,,,,,,,,,54,,,,,,,,,,,,,,304,,response,,,,100,,,,,,,Space,keypress(Space),,,,,,,,-- --- ---- --- ------ ----- ------- ---- -- --- ------- --<br>------- ---------- ------ -- ----- -- ----- -- ---- ------<br>--- ----- --- --- ------ -------- ----- --- ------ value --<br>----- ----- ---------- --- --- ------ ------ ---- -- ------<br>------- --- ------ ----- --- ---- ------- -- ---- --- --<br>------- ------,187198,187031,186727,186716,186744,187228,,31,value
screen,html.Screen,2_1_1_1_32,2021-04-26T11:27:12.799Z,,,,,,,,,,,,,,,,,54,,,,,,,,,,,,,,348,,response,,,,100,,,,,,,Space,keypress(Space),,,,,,,,-- --- ---- --- ------ ----- ------- ---- -- --- ------- --<br>------- ---------- ------ -- ----- -- ----- -- ---- ------<br>--- ----- --- --- ------ -------- ----- --- ------ ----- of<br>----- ----- ---------- --- --- ------ ------ ---- -- ------<br>------- --- ------ ----- --- ---- ------- -- ---- --- --<br>------- ------,187727,187560,187212,187199,187228,187764,,32,of
screen,html.Screen,2_1_1_1_33,2021-04-26T11:27:13.187Z,,,,,,,,,,,,,,,,,54,,,,,,,,,,,,,,201,,response,,,,100,,,,,,,Space,keypress(Space),,,,,,,,-- --- ---- --- ------ ----- ------- ---- -- --- ------- --<br>------- ---------- ------ -- ----- -- ----- -- ---- ------<br>--- ----- --- --- ------ -------- ----- --- ------ ----- --<br>these ----- ---------- --- --- ------ ------ ---- -- ------<br>------- --- ------ ----- --- ---- ------- -- ---- --- --<br>------- ------,188115,187948,187747,187727,187764,188148,,33,these
screen,html.Screen,2_1_1_1_34,2021-04-26T11:27:13.475Z,,,,,,,,,,,,,,,,,54,,,,,,,,,,,,,,105,,response,,,,100,,,,,,,Space,keypress(Space),,,,,,,,-- --- ---- --- ------ ----- ------- ---- -- --- ------- --<br>------- ---------- ------ -- ----- -- ----- -- ---- ------<br>--- ----- --- --- ------ -------- ----- --- ------ ----- --<br>----- bonds ---------- --- --- ------ ------ ---- -- ------<br>------- --- ------ ----- --- ---- ------- -- ---- --- --<br>------- ------,188403,188236,188131,188115,188148,188432,,34,bonds
screen,html.Screen,2_1_1_1_35,2021-04-26T11:27:13.749Z,,,,,,,,,,,,,,,,,54,,,,,,,,,,,,,,95,,response,,,,100,,,,,,,Space,keypress(Space),,,,,,,,"-- --- ---- --- ------ ----- ------- ---- -- --- ------- --<br>------- ---------- ------ -- ----- -- ----- -- ---- ------<br>--- ----- --- --- ------ -------- ----- --- ------ ----- --<br>----- ----- plummeted, --- --- ------ ------ ---- -- ------<br>------- --- ------ ----- --- ---- ------- -- ---- --- --<br>------- ------",188677,188510,188415,188403,188432,188699,,35,"plummeted,"
screen,html.Screen,2_1_1_1_36,2021-04-26T11:27:14.329Z,,,,,,,,,,,,,,,,,54,,,,,,,,,,,,,,407,,response,,,,100,,,,,,,Space,keypress(Space),,,,,,,,-- --- ---- --- ------ ----- ------- ---- -- --- ------- --<br>------- ---------- ------ -- ----- -- ----- -- ---- ------<br>--- ----- --- --- ------ -------- ----- --- ------ ----- --<br>----- ----- ---------- and --- ------ ------ ---- -- ------<br>------- --- ------ ----- --- ---- ------- -- ---- --- --<br>------- ------,189257,189090,188683,188677,188699,189301,,36,and
screen,html.Screen,2_1_1_1_37,2021-04-26T11:27:14.691Z,,,,,,,,,,,,,,,,,54,,,,,,,,,,,,,,168,,response,,,,100,,,,,,,Space,keypress(Space),,,,,,,,-- --- ---- --- ------ ----- ------- ---- -- --- ------- --<br>------- ---------- ------ -- ----- -- ----- -- ---- ------<br>--- ----- --- --- ------ -------- ----- --- ------ ----- --<br>----- ----- ---------- --- the ------ ------ ---- -- ------<br>------- --- ------ ----- --- ---- ------- -- ---- --- --<br>------- ------,189619,189452,189284,189257,189301,189652,,37,the
screen,html.Screen,2_1_1_1_38,2021-04-26T11:27:14.984Z,,,,,,,,,,,,,,,,,54,,,,,,,,,,,,,,110,,response,,,,100,,,,,,,Space,keypress(Space),,,,,,,,-- --- ---- --- ------ ----- ------- ---- -- --- ------- --<br>------- ---------- ------ -- ----- -- ----- -- ---- ------<br>--- ----- --- --- ------ -------- ----- --- ------ ----- --<br>----- ----- ---------- --- --- market ------ ---- -- ------<br>------- --- ------ ----- --- ---- ------- -- ---- --- --<br>------- ------,189912,189745,189635,189619,189652,189936,,38,market
screen,html.Screen,2_1_1_1_39,2021-04-26T11:27:15.381Z,,,,,,,,,,,,,,,,,54,,,,,,,,,,,,,,223,,response,,,,100,,,,,,,Space,keypress(Space),,,,,,,,-- --- ---- --- ------ ----- ------- ---- -- --- ------- --<br>------- ---------- ------ -- ----- -- ----- -- ---- ------<br>--- ----- --- --- ------ -------- ----- --- ------ ----- --<br>----- ----- ---------- --- --- ------ became ---- -- ------<br>------- --- ------ ----- --- ---- ------- -- ---- --- --<br>------- ------,190309,190142,189919,189912,189936,190337,,39,became
screen,html.Screen,2_1_1_1_40,2021-04-26T11:27:15.760Z,,,,,,,,,,,,,,,,,54,,,,,,,,,,,,,,200.0000000000291,,response,,,,100,,,,,,,Space,keypress(Space),,,,,,,,-- --- ---- --- ------ ----- ------- ---- -- --- ------- --<br>------- ---------- ------ -- ----- -- ----- -- ---- ------<br>--- ----- --- --- ------ -------- ----- --- ------ ----- --<br>----- ----- ---------- --- --- ------ ------ wary -- ------<br>------- --- ------ ----- --- ---- ------- -- ---- --- --<br>------- ------,190688.00000000003,190521.00000000003,190321,190309,190337,190722,,40,wary
screen,html.Screen,2_1_1_1_41,2021-04-26T11:27:16.110Z,,,,,,,,,,,,,,,,,54,,,,,,,,,,,,,,166,,response,,,,100,,,,,,,Space,keypress(Space),,,,,,,,-- --- ---- --- ------ ----- ------- ---- -- --- ------- --<br>------- ---------- ------ -- ----- -- ----- -- ---- ------<br>--- ----- --- --- ------ -------- ----- --- ------ ----- --<br>----- ----- ---------- --- --- ------ ------ ---- of ------<br>------- --- ------ ----- --- ---- ------- -- ---- --- --<br>------- ------,191038,190871,190705,190688.00000000003,190722,191072,,41,of
screen,html.Screen,2_1_1_1_42,2021-04-26T11:27:16.521Z,,,,,,,,,,,,,,,,,54,,,,,,,,,,,,,,226,,response,,,,100,,,,,,,Space,keypress(Space),,,,,,,,-- --- ---- --- ------ ----- ------- ---- -- --- ------- --<br>------- ---------- ------ -- ----- -- ----- -- ---- ------<br>--- ----- --- --- ------ -------- ----- --- ------ ----- --<br>----- ----- ---------- --- --- ------ ------ ---- -- French<br>------- --- ------ ----- --- ---- ------- -- ---- --- --<br>------- ------,191449,191282,191056,191038,191072,191490,,42,French
screen,html.Screen,2_1_1_1_43,2021-04-26T11:27:17.091Z,,,,,,,,,,,,,,,,,54,,,,,,,,,,,,,,377,,response,,,,100,,,,,,,Space,keypress(Space),,,,,,,,-- --- ---- --- ------ ----- ------- ---- -- --- ------- --<br>------- ---------- ------ -- ----- -- ----- -- ---- ------<br>--- ----- --- --- ------ -------- ----- --- ------ ----- --<br>----- ----- ---------- --- --- ------ ------ ---- -- ------<br>credit. --- ------ ----- --- ---- ------- -- ---- --- --<br>------- ------,192019,191851,191474,191449,191490,192058,,43,credit.
screen,html.Screen,2_1_1_1_44,2021-04-26T11:27:17.560Z,,,,,,,,,,,,,,,,,54,,,,,,,,,,,,,,279,,response,,,,100,,,,,,,Space,keypress(Space),,,,,,,,-- --- ---- --- ------ ----- ------- ---- -- --- ------- --<br>------- ---------- ------ -- ----- -- ----- -- ---- ------<br>--- ----- --- --- ------ -------- ----- --- ------ ----- --<br>----- ----- ---------- --- --- ------ ------ ---- -- ------<br>------- The ------ ----- --- ---- ------- -- ---- --- --<br>------- ------,192488,192320,192041,192019,192058,192526,,44,The
screen,html.Screen,2_1_1_1_45,2021-04-26T11:27:18.163Z,,,,,,,,,,,,,,,,,54,,,,,,,,,,,,,,413,,response,,,,100,,,,,,,Space,keypress(Space),,,,,,,,-- --- ---- --- ------ ----- ------- ---- -- --- ------- --<br>------- ---------- ------ -- ----- -- ----- -- ---- ------<br>--- ----- --- --- ------ -------- ----- --- ------ ----- --<br>----- ----- ---------- --- --- ------ ------ ---- -- ------<br>------- --- French ----- --- ---- ------- -- ---- --- --<br>------- ------,193091,192923,192510,192488,192526,193128,,45,French
screen,html.Screen,2_1_1_1_46,2021-04-26T11:27:18.590Z,,,,,,,,,,,,,,,,,54,,,,,,,,,,,,,,240,,response,,,,100,,,,,,,Space,keypress(Space),,,,,,,,-- --- ---- --- ------ ----- ------- ---- -- --- ------- --<br>------- ---------- ------ -- ----- -- ----- -- ---- ------<br>--- ----- --- --- ------ -------- ----- --- ------ ----- --<br>----- ----- ---------- --- --- ------ ------ ---- -- ------<br>------- --- ------ state --- ---- ------- -- ---- --- --<br>------- ------,193518,193351,193111,193091,193128,193546,,46,state
screen,html.Screen,2_1_1_1_47,2021-04-26T11:27:19.057Z,,,,,,,,,,,,,,,,,54,,,,,,,,,,,,,,288,,response,,,,100,,,,,,,Space,keypress(Space),,,,,,,,-- --- ---- --- ------ ----- ------- ---- -- --- ------- --<br>------- ---------- ------ -- ----- -- ----- -- ---- ------<br>--- ----- --- --- ------ -------- ----- --- ------ ----- --<br>----- ----- ---------- --- --- ------ ------ ---- -- ------<br>------- --- ------ ----- was ---- ------- -- ---- --- --<br>------- ------,193985,193817,193529,193518,193546,194014,,47,was
screen,html.Screen,2_1_1_1_48,2021-04-26T11:27:19.543Z,,,,,,,,,,,,,,,,,54,,,,,,,,,,,,,,305,,response,,,,100,,,,,,,Space,keypress(Space),,,,,,,,-- --- ---- --- ------ ----- ------- ---- -- --- ------- --<br>------- ---------- ------ -- ----- -- ----- -- ---- ------<br>--- ----- --- --- ------ -------- ----- --- ------ ----- --<br>----- ----- ---------- --- --- ------ ------ ---- -- ------<br>------- --- ------ ----- --- left ------- -- ---- --- --<br>------- ------,194470,194302,193997,193985,194014,194498,,48,left
screen,html.Screen,2_1_1_1_49,2021-04-26T11:27:19.966Z,,,,,,,,,,,,,,,,,54,,,,,,,,,,,,,,243,,response,,,,100,,,,,,,Space,keypress(Space),,,,,,,,-- --- ---- --- ------ ----- ------- ---- -- --- ------- --<br>------- ---------- ------ -- ----- -- ----- -- ---- ------<br>--- ----- --- --- ------ -------- ----- --- ------ ----- --<br>----- ----- ---------- --- --- ------ ------ ---- -- ------<br>------- --- ------ ----- --- ---- without -- ---- --- --<br>------- ------,194893,194725,194482,194470,194498,194933,,49,without
screen,html.Screen,2_1_1_1_50,2021-04-26T11:27:20.413Z,,,,,,,,,,,,,,,,,54,,,,,,,,,,,,,,257,,response,,,,100,,,,,,,Space,keypress(Space),,,,,,,,-- --- ---- --- ------ ----- ------- ---- -- --- ------- --<br>------- ---------- ------ -- ----- -- ----- -- ---- ------<br>--- ----- --- --- ------ -------- ----- --- ------ ----- --<br>----- ----- ---------- --- --- ------ ------ ---- -- ------<br>------- --- ------ ----- --- ---- ------- an ---- --- --<br>------- ------,195341,195173,194916,194893,194933,195384,,50,an
screen,html.Screen,2_1_1_1_51,2021-04-26T11:27:20.927Z,,,,,,,,,,,,,,,,,54,,,,,,,,,,,,,,320,,response,,,,100,,,,,,,Space,keypress(Space),,,,,,,,-- --- ---- --- ------ ----- ------- ---- -- --- ------- --<br>------- ---------- ------ -- ----- -- ----- -- ---- ------<br>--- ----- --- --- ------ -------- ----- --- ------ ----- --<br>----- ----- ---------- --- --- ------ ------ ---- -- ------<br>------- --- ------ ----- --- ---- ------- -- easy --- --<br>------- ------,195855.00000000003,195687,195367,195341,195384,195885,,51,easy
screen,html.Screen,2_1_1_1_52,2021-04-26T11:27:21.353Z,,,,,,,,,,,,,,,,,54,,,,,,,,,,,,,,244,,response,,,,100,,,,,,,Space,keypress(Space),,,,,,,,-- --- ---- --- ------ ----- ------- ---- -- --- ------- --<br>------- ---------- ------ -- ----- -- ----- -- ---- ------<br>--- ----- --- --- ------ -------- ----- --- ------ ----- --<br>----- ----- ---------- --- --- ------ ------ ---- -- ------<br>------- --- ------ ----- --- ---- ------- -- ---- way --<br>------- ------,196281,196113,195869,195855.00000000003,195885,196320,,52,way
screen,html.Screen,2_1_1_1_53,2021-04-26T11:27:21.743Z,,,,,,,,,,,,,,,,,54,,,,,,,,,,,,,,200,,response,,,,100,,,,,,,Space,keypress(Space),,,,,,,,-- --- ---- --- ------ ----- ------- ---- -- --- ------- --<br>------- ---------- ------ -- ----- -- ----- -- ---- ------<br>--- ----- --- --- ------ -------- ----- --- ------ ----- --<br>----- ----- ---------- --- --- ------ ------ ---- -- ------<br>------- --- ------ ----- --- ---- ------- -- ---- --- of<br>------- ------,196671,196503,196303,196281,196320,196704,,53,of
screen,html.Screen,2_1_1_1_54,2021-04-26T11:27:22.148Z,,,,,,,,,,,,,,,,,54,,,,,,,,,,,,,,221.0000000000291,,response,,,,100,,,,,,,Space,keypress(Space),,,,,,,,-- --- ---- --- ------ ----- ------- ---- -- --- ------- --<br>------- ---------- ------ -- ----- -- ----- -- ---- ------<br>--- ----- --- --- ------ -------- ----- --- ------ ----- --<br>----- ----- ---------- --- --- ------ ------ ---- -- ------<br>------- --- ------ ----- --- ---- ------- -- ---- --- --<br>raising ------,197076,196908.00000000003,196687,196671,196704,197105,,54,raising
screen,html.Screen,2_1_1_1_55,2021-04-26T11:27:22.852Z,,,,,,,,,,,,,,,,,54,,,,,,,,,,,,,,523,,response,,,,100,,,,,,,Space,keypress(Space),,,,,,,,-- --- ---- --- ------ ----- ------- ---- -- --- ------- --<br>------- ---------- ------ -- ----- -- ----- -- ---- ------<br>--- ----- --- --- ------ -------- ----- --- ------ ----- --<br>----- ----- ---------- --- --- ------ ------ ---- -- ------<br>------- --- ------ ----- --- ---- ------- -- ---- --- --<br>------- money.,197780,197612,197089,197076,197105,197824,,55,money.
Item 100,flow.Loop,2_1_1_1,2021-04-26T11:27:22.853Z,,,,,,,,,,,,,,,,,,,,,,,,,,,,,,,27546,,completion,,,,,B,,,,,,,,,,,silence,,,,,197780,197612,170050,170050,170066,197824,,,
Question 1,html.Screen,2_1_1_2,2021-04-26T11:27:25.795Z,,,,,,,,,,,,,,,,,,,,,,,,,,,,true,TRUE,,2747,,response,,,,100,B,,,,,,TRUE,click #choice-1,,,,silence,,,,,200723,200554,197807,197780,197824,200748,,,
Question 2,html.Screen,2_1_1_3,2021-04-26T11:27:27.778Z,,,,,,,,,,,,,,,,,,,,,,,,,,,,true,FALSE,,1804,,response,,,,100,B,,,,,,FALSE,click #choice-2,,,,silence,,,,,202705,202536,200732,200723,200748,202737,,,
Item 100,flow.Sequence,2_1_1,2021-04-26T11:27:27.778Z,,,,,,,,,,,,,,,,,,,,,,,,,,,,,,,42469,,completion,,,,,,,,,,,,,,,,,,,,,202705,202536,160039,160031,160067,202737,,,
End of Practice,html.Page,2_1_2,2021-04-26T11:27:31.688Z,,,,,,,,,,,,,,,,,,,,,,,,,,,,,,,3878,,form submission,,,,,,,,,,,,,,,,,,,,,206615,206615,202720,202706.00000000003,202737,206631,,,
Practice,flow.Sequence,2_1,2021-04-26T11:27:31.689Z,,,,,,,,,,,,,,,,,,,,,,,,,,,,,,,99801,,completion,,,,,,,,,,,,,,,,,,,,,206616,206615,106798,106792,106814,206631,,,
Trap_instruction,html.Page,2_2_0,2021-04-26T11:27:35.615Z,,,,,,,,,,,,,,,,,,,,,,,,,,,,,,,3910,,form submission,,,,,,,,,,,,,,,,,,,,,210542,210541,206620,206616,206631,210573,,,
trap_trial,html.Screen,2_2_1,2021-04-26T11:27:39.369Z,,,,,,,,,,,,,,,,,,,,,,,,,,,,true,1,,3571,,response,,,,,,,,,,,1,click #choice-1,,,,,,,,,214295.00000000003,214128,210557,210542,210573,214346,,,
end of trap trial,html.Page,2_2_2,2021-04-26T11:27:41.264Z,,,,,,,,,,,,,,,,,,,,,,,,,,,,,,,1845,,form submission,,,,,,,,,,,,,,,,,,,,,216191,216191,214339,214296,214346,216222,,,
Trap 1,flow.Sequence,2_2,2021-04-26T11:27:41.264Z,,,,,,,,,,,,,,,,,,,,,,,,,,,,,,,9560,,completion,,,,,,,,,,,,,,,,,,,,,216191,216191,206620,206616,206631,216222,,,
Standby,html.Page,2_3_0,2021-04-26T11:27:49.289Z,,,,,,,,,,,,,,,,,,,,,,,,,,,,,,,8005,,timeout,,,,,,,,,,,,,,,,,,,,,224215,224211,216206,216191,216222,224227,,,
Holding screen,html.Screen,2_3_1_0_0,2021-04-26T11:27:56.287Z,,,,,,,,,,,,,,,,,,,,,,,,,,,,,,,7003,,timeout,,,,,,,,,,,,,,,,,,,,,231213,231213,224211,224216,224227,231230,,,
screen,html.Screen,2_3_1_0_1_0,2021-04-26T11:27:57.671Z,,,,,,,,,,,,,,,,,11,,,,,,,,,,,,,,1214,,response,,,,4,B,,,,,,Space,keypress(Space),,,,lyrical,,,,Known -- ---- --- -- --- -------- ------------ ---------- --<br>- ------- ------ --------- -- ------------ -- --- ---- -----<br>------ ---- ---- ------ ------ ------- --- ----- ---------<br>---- --- -------- -------- --- --- -- ------- --- --- -----<br>-- --- ------ ------- --- --- -------- ---- --------- --<br>---------- -- -------- ----------------,232597,232427,231213,231214,231230,232634,,0,Known
screen,html.Screen,2_3_1_0_1_1,2021-04-26T11:27:58.359Z,,,,,,,,,,,,,,,,,11,,,,,,,,,,,,,,501,,response,,,,4,B,,,,,,Space,keypress(Space),,,,lyrical,,,,----- as ---- --- -- --- -------- ------------ ---------- --<br>- ------- ------ --------- -- ------------ -- --- ---- -----<br>------ ---- ---- ------ ------ ------- --- ----- ---------<br>---- --- -------- -------- --- --- -- ------- --- --- -----<br>-- --- ------ ------- --- --- -------- ---- --------- --<br>---------- -- -------- ----------------,233285,233118,232617,232598,232634,233318,,1,as
screen,html.Screen,2_3_1_0_1_2,2021-04-26T11:27:59.195Z,,,,,,,,,,,,,,,,,11,,,,,,,,,,,,,,651,,response,,,,4,B,,,,,,Space,keypress(Space),,,,lyrical,,,,----- -- Rapa --- -- --- -------- ------------ ---------- --<br>- ------- ------ --------- -- ------------ -- --- ---- -----<br>------ ---- ---- ------ ------ ------- --- ----- ---------<br>---- --- -------- -------- --- --- -- ------- --- --- -----<br>-- --- ------ ------- --- --- -------- ---- --------- --<br>---------- -- -------- ----------------,234122,233953,233302,233285,233318,234154,,2,Rapa
screen,html.Screen,2_3_1_0_1_3,2021-04-26T11:27:59.804Z,,,,,,,,,,,,,,,,,11,,,,,,,,,,,,,,425,,response,,,,4,B,,,,,,Space,keypress(Space),,,,lyrical,,,,----- -- ---- Nui -- --- -------- ------------ ---------- --<br>- ------- ------ --------- -- ------------ -- --- ---- -----<br>------ ---- ---- ------ ------ ------- --- ----- ---------<br>---- --- -------- -------- --- --- -- ------- --- --- -----<br>-- --- ------ ------- --- --- -------- ---- --------- --<br>---------- -- -------- ----------------,234731,234562,234137,234122,234154,234772,,3,Nui
screen,html.Screen,2_3_1_0_1_4,2021-04-26T11:28:00.281Z,,,,,,,,,,,,,,,,,11,,,,,,,,,,,,,,284.0000000000291,,response,,,,4,B,,,,,,Space,keypress(Space),,,,lyrical,,,,----- -- ---- --- to --- -------- ------------ ---------- --<br>- ------- ------ --------- -- ------------ -- --- ---- -----<br>------ ---- ---- ------ ------ ------- --- ----- ---------<br>---- --- -------- -------- --- --- -- ------- --- --- -----<br>-- --- ------ ------- --- --- -------- ---- --------- --<br>---------- -- -------- ----------------,235207,235039.00000000003,234755,234731,234772,235240,,4,to
screen,html.Screen,2_3_1_0_1_5,2021-04-26T11:28:00.720Z,,,,,,,,,,,,,,,,,11,,,,,,,,,,,,,,254,,response,,,,4,B,,,,,,Space,keypress(Space),,,,lyrical,,,,----- -- ---- --- -- the -------- ------------ ---------- --<br>- ------- ------ --------- -- ------------ -- --- ---- -----<br>------ ---- ---- ------ ------ ------- --- ----- ---------<br>---- --- -------- -------- --- --- -- ------- --- --- -----<br>-- --- ------ ------- --- --- -------- ---- --------- --<br>---------- -- -------- ----------------,235647,235478,235224,235208,235240,235675,,5,the
screen,html.Screen,2_3_1_0_1_6,2021-04-26T11:28:01.269Z,,,,,,,,,,,,,,,,,11,,,,,,,,,,,,,,368,,response,,,,4,B,,,,,,Space,keypress(Space),,,,lyrical,,,,----- -- ---- --- -- --- island's ------------ ---------- --<br>- ------- ------ --------- -- ------------ -- --- ---- -----<br>------ ---- ---- ------ ------ ------- --- ----- ---------<br>---- --- -------- -------- --- --- -- ------- --- --- -----<br>-- --- ------ ------- --- --- -------- ---- --------- --<br>---------- -- -------- ----------------,236196,236026,235658,235647,235675,236226,,6,island's
screen,html.Screen,2_3_1_0_1_7,2021-04-26T11:28:02.476Z,,,,,,,,,,,,,,,,,11,,,,,,,,,,,,,,1023,,response,,,,4,B,,,,,,Space,keypress(Space),,,,lyrical,,,,"----- -- ---- --- -- --- -------- inhabitants, ---------- --<br>- ------- ------ --------- -- ------------ -- --- ---- -----<br>------ ---- ---- ------ ------ ------- --- ----- ---------<br>---- --- -------- -------- --- --- -- ------- --- --- -----<br>-- --- ------ ------- --- --- -------- ---- --------- --<br>---------- -- -------- ----------------",237402.00000000003,237233,236210,236196,236226,237446,,7,"inhabitants,"
screen,html.Screen,2_3_1_0_1_8,2021-04-26T11:28:03.636Z,,,,,,,,,,,,,,,,,11,,,,,,,,,,,,,,963,,response,,,,4,B,,,,,,Space,keypress(Space),,,,lyrical,,,,----- -- ---- --- -- --- -------- ------------ Rongorongo --<br>- ------- ------ --------- -- ------------ -- --- ---- -----<br>------ ---- ---- ------ ------ ------- --- ----- ---------<br>---- --- -------- -------- --- --- -- ------- --- --- -----<br>-- --- ------ ------- --- --- -------- ---- --------- --<br>---------- -- -------- ----------------,238562,238393,237430,237403,237446,238599,,8,Rongorongo
screen,html.Screen,2_3_1_0_1_9,2021-04-26T11:28:04.192Z,,,,,,,,,,,,,,,,,11,,,,,,,,,,,,,,366,,response,,,,4,B,,,,,,Space,keypress(Space),,,,lyrical,,,,----- -- ---- --- -- --- -------- ------------ ---------- is<br>- ------- ------ --------- -- ------------ -- --- ---- -----<br>------ ---- ---- ------ ------ ------- --- ----- ---------<br>---- --- -------- -------- --- --- -- ------- --- --- -----<br>-- --- ------ ------- --- --- -------- ---- --------- --<br>---------- -- -------- ----------------,239118,238949,238583,238562,238599,239151,,9,is
screen,html.Screen,2_3_1_0_1_10,2021-04-26T11:28:04.626Z,,,,,,,,,,,,,,,,,11,,,,,,,,,,,,,,249,,response,,,,4,B,,,,,,Space,keypress(Space),,,,lyrical,,,,----- -- ---- --- -- --- -------- ------------ ---------- --<br>a ------- ------ --------- -- ------------ -- --- ---- -----<br>------ ---- ---- ------ ------ ------- --- ----- ---------<br>---- --- -------- -------- --- --- -- ------- --- --- -----<br>-- --- ------ ------- --- --- -------- ---- --------- --<br>---------- -- -------- ----------------,239552,239383,239134,239118,239151,239585,,10,a
screen,html.Screen,2_3_1_0_1_11,2021-04-26T11:28:05.069Z,,,,,,,,,,,,,,,,,11,,,,,,,,,,,,,,258,,response,,,,4,B,,,,,,Space,keypress(Space),,,,lyrical,,,,----- -- ---- --- -- --- -------- ------------ ---------- --<br>- writing ------ --------- -- ------------ -- --- ---- -----<br>------ ---- ---- ------ ------ ------- --- ----- ---------<br>---- --- -------- -------- --- --- -- ------- --- --- -----<br>-- --- ------ ------- --- --- -------- ---- --------- --<br>---------- -- -------- ----------------,239995,239826,239568,239552,239585,240037,,11,writing
screen,html.Screen,2_3_1_0_1_12,2021-04-26T11:28:05.518Z,,,,,,,,,,,,,,,,,11,,,,,,,,,,,,,,255,,response,,,,4,B,,,,,,Space,keypress(Space),,,,lyrical,,,,----- -- ---- --- -- --- -------- ------------ ---------- --<br>- ------- system --------- -- ------------ -- --- ---- -----<br>------ ---- ---- ------ ------ ------- --- ----- ---------<br>---- --- -------- -------- --- --- -- ------- --- --- -----<br>-- --- ------ ------- --- --- -------- ---- --------- --<br>---------- -- -------- ----------------,240444.00000000003,240275,240020,239995,240037,240488,,12,system
screen,html.Screen,2_3_1_0_1_13,2021-04-26T11:28:05.997Z,,,,,,,,,,,,,,,,,11,,,,,,,,,,,,,,283.0000000000291,,response,,,,4,B,,,,,,Space,keypress(Space),,,,lyrical,,,,----- -- ---- --- -- --- -------- ------------ ---------- --<br>- ------- ------ comprised -- ------------ -- --- ---- -----<br>------ ---- ---- ------ ------ ------- --- ----- ---------<br>---- --- -------- -------- --- --- -- ------- --- --- -----<br>-- --- ------ ------- --- --- -------- ---- --------- --<br>---------- -- -------- ----------------,240923,240754.00000000003,240471,240444.00000000003,240488,240956,,13,comprised
screen,html.Screen,2_3_1_0_1_14,2021-04-26T11:28:06.454Z,,,,,,,,,,,,,,,,,11,,,,,,,,,,,,,,272,,response,,,,4,B,,,,,,Space,keypress(Space),,,,lyrical,,,,----- -- ---- --- -- --- -------- ------------ ---------- --<br>- ------- ------ --------- of ------------ -- --- ---- -----<br>------ ---- ---- ------ ------ ------- --- ----- ---------<br>---- --- -------- -------- --- --- -- ------- --- --- -----<br>-- --- ------ ------- --- --- -------- ---- --------- --<br>---------- -- -------- ----------------,241380,241211,240939,240923,240956,241424,,14,of
screen,html.Screen,2_3_1_0_1_15,2021-04-26T11:28:07.376Z,,,,,,,,,,,,,,,,,11,,,,,,,,,,,,,,726,,response,,,,4,B,,,,,,Space,keypress(Space),,,,lyrical,,,,----- -- ---- --- -- --- -------- ------------ ---------- --<br>- ------- ------ --------- -- pictographs. -- --- ---- -----<br>------ ---- ---- ------ ------ ------- --- ----- ---------<br>---- --- -------- -------- --- --- -- ------- --- --- -----<br>-- --- ------ ------- --- --- -------- ---- --------- --<br>---------- -- -------- ----------------,242302,242133,241407,241380,241424,242343,,15,pictographs.
screen,html.Screen,2_3_1_0_1_16,2021-04-26T11:28:08.084Z,,,,,,,,,,,,,,,,,11,,,,,,,,,,,,,,515,,response,,,,4,B,,,,,,Space,keypress(Space),,,,lyrical,,,,----- -- ---- --- -- --- -------- ------------ ---------- --<br>- ------- ------ --------- -- ------------ It --- ---- -----<br>------ ---- ---- ------ ------ ------- --- ----- ---------<br>---- --- -------- -------- --- --- -- ------- --- --- -----<br>-- --- ------ ------- --- --- -------- ---- --------- --<br>---------- -- -------- ----------------,243010,242841,242326,242302,242343,243045,,16,It
screen,html.Screen,2_3_1_0_1_17,2021-04-26T11:28:08.666Z,,,,,,,,,,,,,,,,,11,,,,,,,,,,,,,,395,,response,,,,4,B,,,,,,Space,keypress(Space),,,,lyrical,,,,----- -- ---- --- -- --- -------- ------------ ---------- --<br>- ------- ------ --------- -- ------------ -- has ---- -----<br>------ ---- ---- ------ ------ ------- --- ----- ---------<br>---- --- -------- -------- --- --- -- ------- --- --- -----<br>-- --- ------ ------- --- --- -------- ---- --------- --<br>---------- -- -------- ----------------,243592,243423,243028,243010,243045,243629,,17,has
screen,html.Screen,2_3_1_0_1_18,2021-04-26T11:28:09.264Z,,,,,,,,,,,,,,,,,11,,,,,,,,,,,,,,408.0000000000291,,response,,,,4,B,,,,,,Space,keypress(Space),,,,lyrical,,,,----- -- ---- --- -- --- -------- ------------ ---------- --<br>- ------- ------ --------- -- ------------ -- --- been -----<br>------ ---- ---- ------ ------ ------- --- ----- ---------<br>---- --- -------- -------- --- --- -- ------- --- --- -----<br>-- --- ------ ------- --- --- -------- ---- --------- --<br>---------- -- -------- ----------------,244190,244021.00000000003,243613,243592,243629,244231,,18,been
screen,html.Screen,2_3_1_0_1_19,2021-04-26T11:28:09.889Z,,,,,,,,,,,,,,,,,11,,,,,,,,,,,,,,432.0000000000291,,response,,,,4,B,,,,,,Space,keypress(Space),,,,lyrical,,,,----- -- ---- --- -- --- -------- ------------ ---------- --<br>- ------- ------ --------- -- ------------ -- --- ---- found<br>------ ---- ---- ------ ------ ------- --- ----- ---------<br>---- --- -------- -------- --- --- -- ------- --- --- -----<br>-- --- ------ ------- --- --- -------- ---- --------- --<br>---------- -- -------- ----------------,244815,244646.00000000003,244214,244190,244231,244848,,19,found
screen,html.Screen,2_3_1_0_1_20,2021-04-26T11:28:10.735Z,,,,,,,,,,,,,,,,,11,,,,,,,,,,,,,,659.0000000000291,,response,,,,4,B,,,,,,Space,keypress(Space),,,,lyrical,,,,----- -- ---- --- -- --- -------- ------------ ---------- --<br>- ------- ------ --------- -- ------------ -- --- ---- -----<br>carved ---- ---- ------ ------ ------- --- ----- ---------<br>---- --- -------- -------- --- --- -- ------- --- --- -----<br>-- --- ------ ------- --- --- -------- ---- --------- --<br>---------- -- -------- ----------------,245661,245492.00000000003,244833,244815,244848,245702,,20,carved
screen,html.Screen,2_3_1_0_1_21,2021-04-26T11:28:11.250Z,,,,,,,,,,,,,,,,,11,,,,,,,,,,,,,,322,,response,,,,4,B,,,,,,Space,keypress(Space),,,,lyrical,,,,----- -- ---- --- -- --- -------- ------------ ---------- --<br>- ------- ------ --------- -- ------------ -- --- ---- -----<br>------ into ---- ------ ------ ------- --- ----- ---------<br>---- --- -------- -------- --- --- -- ------- --- --- -----<br>-- --- ------ ------- --- --- -------- ---- --------- --<br>---------- -- -------- ----------------,246176.00000000003,246007,245685,245661,245702,246220,,21,into
screen,html.Screen,2_3_1_0_1_22,2021-04-26T11:28:11.993Z,,,,,,,,,,,,,,,,,11,,,,,,,,,,,,,,547,,response,,,,4,B,,,,,,Space,keypress(Space),,,,lyrical,,,,----- -- ---- --- -- --- -------- ------------ ---------- --<br>- ------- ------ --------- -- ------------ -- --- ---- -----<br>------ ---- many ------ ------ ------- --- ----- ---------<br>---- --- -------- -------- --- --- -- ------- --- --- -----<br>-- --- ------ ------- --- --- -------- ---- --------- --<br>---------- -- -------- ----------------,246919,246750,246203,246176.00000000003,246220,246955,,22,many
screen,html.Screen,2_3_1_0_1_23,2021-04-26T11:28:12.587Z,,,,,,,,,,,,,,,,,11,,,,,,,,,,,,,,405.0000000000291,,response,,,,4,B,,,,,,Space,keypress(Space),,,,lyrical,,,,----- -- ---- --- -- --- -------- ------------ ---------- --<br>- ------- ------ --------- -- ------------ -- --- ---- -----<br>------ ---- ---- oblong ------ ------- --- ----- ---------<br>---- --- -------- -------- --- --- -- ------- --- --- -----<br>-- --- ------ ------- --- --- -------- ---- --------- --<br>---------- -- -------- ----------------,247513,247343.00000000003,246938,246919,246955,247557,,23,oblong
screen,html.Screen,2_3_1_0_1_24,2021-04-26T11:28:13.272Z,,,,,,,,,,,,,,,,,11,,,,,,,,,,,,,,489,,response,,,,4,B,,,,,,Space,keypress(Space),,,,lyrical,,,,----- -- ---- --- -- --- -------- ------------ ---------- --<br>- ------- ------ --------- -- ------------ -- --- ---- -----<br>------ ---- ---- ------ wooden ------- --- ----- ---------<br>---- --- -------- -------- --- --- -- ------- --- --- -----<br>-- --- ------ ------- --- --- -------- ---- --------- --<br>---------- -- -------- ----------------,248198,248028,247539,247513,247557,248225,,24,wooden
screen,html.Screen,2_3_1_0_1_25,2021-04-26T11:28:13.886Z,,,,,,,,,,,,,,,,,11,,,,,,,,,,,,,,434,,response,,,,4,B,,,,,,Space,keypress(Space),,,,lyrical,,,,----- -- ---- --- -- --- -------- ------------ ---------- --<br>- ------- ------ --------- -- ------------ -- --- ---- -----<br>------ ---- ---- ------ ------ tablets --- ----- ---------<br>---- --- -------- -------- --- --- -- ------- --- --- -----<br>-- --- ------ ------- --- --- -------- ---- --------- --<br>---------- -- -------- ----------------,248812,248642,248208,248198,248225,248843,,25,tablets
screen,html.Screen,2_3_1_0_1_26,2021-04-26T11:28:14.268Z,,,,,,,,,,,,,,,,,11,,,,,,,,,,,,,,197,,response,,,,4,B,,,,,,Space,keypress(Space),,,,lyrical,,,,----- -- ---- --- -- --- -------- ------------ ---------- --<br>- ------- ------ --------- -- ------------ -- --- ---- -----<br>------ ---- ---- ------ ------ ------- and ----- ---------<br>---- --- -------- -------- --- --- -- ------- --- --- -----<br>-- --- ------ ------- --- --- -------- ---- --------- --<br>---------- -- -------- ----------------,249194.00000000003,249024,248827,248812,248843,249228,,26,and
screen,html.Screen,2_3_1_0_1_27,2021-04-26T11:28:14.692Z,,,,,,,,,,,,,,,,,11,,,,,,,,,,,,,,237,,response,,,,4,B,,,,,,Space,keypress(Space),,,,lyrical,,,,----- -- ---- --- -- --- -------- ------------ ---------- --<br>- ------- ------ --------- -- ------------ -- --- ---- -----<br>------ ---- ---- ------ ------ ------- --- other ---------<br>---- --- -------- -------- --- --- -- ------- --- --- -----<br>-- --- ------ ------- --- --- -------- ---- --------- --<br>---------- -- -------- ----------------,249617.00000000003,249448,249211,249194.00000000003,249228,249646,,27,other
screen,html.Screen,2_3_1_0_1_28,2021-04-26T11:28:15.243Z,,,,,,,,,,,,,,,,,11,,,,,,,,,,,,,,370,,response,,,,4,B,,,,,,Space,keypress(Space),,,,lyrical,,,,----- -- ---- --- -- --- -------- ------------ ---------- --<br>- ------- ------ --------- -- ------------ -- --- ---- -----<br>------ ---- ---- ------ ------ ------- --- ----- artifacts<br>---- --- -------- -------- --- --- -- ------- --- --- -----<br>-- --- ------ ------- --- --- -------- ---- --------- --<br>---------- -- -------- ----------------,250168,249999,249629,249618,249646,250197,,28,artifacts
screen,html.Screen,2_3_1_0_1_29,2021-04-26T11:28:15.763Z,,,,,,,,,,,,,,,,,11,,,,,,,,,,,,,,339,,response,,,,4,B,,,,,,Space,keypress(Space),,,,lyrical,,,,----- -- ---- --- -- --- -------- ------------ ---------- --<br>- ------- ------ --------- -- ------------ -- --- ---- -----<br>------ ---- ---- ------ ------ ------- --- ----- ---------<br>from --- -------- -------- --- --- -- ------- --- --- -----<br>-- --- ------ ------- --- --- -------- ---- --------- --<br>---------- -- -------- ----------------,250688.00000000003,250519,250180,250169,250197,250732,,29,from
screen,html.Screen,2_3_1_0_1_30,2021-04-26T11:28:16.230Z,,,,,,,,,,,,,,,,,11,,,,,,,,,,,,,,271.0000000000291,,response,,,,4,B,,,,,,Space,keypress(Space),,,,lyrical,,,,----- -- ---- --- -- --- -------- ------------ ---------- --<br>- ------- ------ --------- -- ------------ -- --- ---- -----<br>------ ---- ---- ------ ------ ------- --- ----- ---------<br>---- the -------- -------- --- --- -- ------- --- --- -----<br>-- --- ------ ------- --- --- -------- ---- --------- --<br>---------- -- -------- ----------------,251155,250986.00000000003,250715,250689,250732,251183,,30,the
screen,html.Screen,2_3_1_0_1_31,2021-04-26T11:28:16.789Z,,,,,,,,,,,,,,,,,11,,,,,,,,,,,,,,379.0000000000291,,response,,,,4,B,,,,,,Space,keypress(Space),,,,lyrical,,,,----- -- ---- --- -- --- -------- ------------ ---------- --<br>- ------- ------ --------- -- ------------ -- --- ---- -----<br>------ ---- ---- ------ ------ ------- --- ----- ---------<br>---- --- island's -------- --- --- -- ------- --- --- -----<br>-- --- ------ ------- --- --- -------- ---- --------- --<br>---------- -- -------- ----------------,251714,251545.00000000003,251166,251156,251183,251751,,31,island's
screen,html.Screen,2_3_1_0_1_32,2021-04-26T11:28:17.222Z,,,,,,,,,,,,,,,,,11,,,,,,,,,,,,,,243,,response,,,,4,B,,,,,,Space,keypress(Space),,,,lyrical,,,,----- -- ---- --- -- --- -------- ------------ ---------- --<br>- ------- ------ --------- -- ------------ -- --- ---- -----<br>------ ---- ---- ------ ------ ------- --- ----- ---------<br>---- --- -------- history. --- --- -- ------- --- --- -----<br>-- --- ------ ------- --- --- -------- ---- --------- --<br>---------- -- -------- ----------------,252147,251978,251735,251715,251751,252186,,32,history.
screen,html.Screen,2_3_1_0_1_33,2021-04-26T11:28:17.677Z,,,,,,,,,,,,,,,,,11,,,,,,,,,,,,,,264,,response,,,,4,B,,,,,,Space,keypress(Space),,,,lyrical,,,,----- -- ---- --- -- --- -------- ------------ ---------- --<br>- ------- ------ --------- -- ------------ -- --- ---- -----<br>------ ---- ---- ------ ------ ------- --- ----- ---------<br>---- --- -------- -------- The --- -- ------- --- --- -----<br>-- --- ------ ------- --- --- -------- ---- --------- --<br>---------- -- -------- ----------------,252602,252433,252169,252148,252186,252637,,33,The
screen,html.Screen,2_3_1_0_1_34,2021-04-26T11:28:18.081Z,,,,,,,,,,,,,,,,,11,,,,,,,,,,,,,,217.0000000000291,,response,,,,4,B,,,,,,Space,keypress(Space),,,,lyrical,,,,----- -- ---- --- -- --- -------- ------------ ---------- --<br>- ------- ------ --------- -- ------------ -- --- ---- -----<br>------ ---- ---- ------ ------ ------- --- ----- ---------<br>---- --- -------- -------- --- art -- ------- --- --- -----<br>-- --- ------ ------- --- --- -------- ---- --------- --<br>---------- -- -------- ----------------,253006,252837.00000000003,252620,252603,252637,253038,,34,art
screen,html.Screen,2_3_1_0_1_35,2021-04-26T11:28:18.731Z,,,,,,,,,,,,,,,,,11,,,,,,,,,,,,,,467,,response,,,,4,B,,,,,,Space,keypress(Space),,,,lyrical,,,,----- -- ---- --- -- --- -------- ------------ ---------- --<br>- ------- ------ --------- -- ------------ -- --- ---- -----<br>------ ---- ---- ------ ------ ------- --- ----- ---------<br>---- --- -------- -------- --- --- of ------- --- --- -----<br>-- --- ------ ------- --- --- -------- ---- --------- --<br>---------- -- -------- ----------------,253657,253488,253021,253007,253038,253689,,35,of
screen,html.Screen,2_3_1_0_1_36,2021-04-26T11:28:19.222Z,,,,,,,,,,,,,,,,,11,,,,,,,,,,,,,,306,,response,,,,4,B,,,,,,Space,keypress(Space),,,,lyrical,,,,----- -- ---- --- -- --- -------- ------------ ---------- --<br>- ------- ------ --------- -- ------------ -- --- ---- -----<br>------ ---- ---- ------ ------ ------- --- ----- ---------<br>---- --- -------- -------- --- --- -- writing --- --- -----<br>-- --- ------ ------- --- --- -------- ---- --------- --<br>---------- -- -------- ----------------,254148,253979,253673,253657,253689,254191,,36,writing
screen,html.Screen,2_3_1_0_1_37,2021-04-26T11:28:19.683Z,,,,,,,,,,,,,,,,,11,,,,,,,,,,,,,,266,,response,,,,4,B,,,,,,Space,keypress(Space),,,,lyrical,,,,----- -- ---- --- -- --- -------- ------------ ---------- --<br>- ------- ------ --------- -- ------------ -- --- ---- -----<br>------ ---- ---- ------ ------ ------- --- ----- ---------<br>---- --- -------- -------- --- --- -- ------- was --- -----<br>-- --- ------ ------- --- --- -------- ---- --------- --<br>---------- -- -------- ----------------,254609,254440,254174,254148,254191,254642,,37,was
screen,html.Screen,2_3_1_0_1_38,2021-04-26T11:28:20.078Z,,,,,,,,,,,,,,,,,11,,,,,,,,,,,,,,208,,response,,,,4,B,,,,,,Space,keypress(Space),,,,lyrical,,,,----- -- ---- --- -- --- -------- ------------ ---------- --<br>- ------- ------ --------- -- ------------ -- --- ---- -----<br>------ ---- ---- ------ ------ ------- --- ----- ---------<br>---- --- -------- -------- --- --- -- ------- --- not -----<br>-- --- ------ ------- --- --- -------- ---- --------- --<br>---------- -- -------- ----------------,255003,254834,254626,254609,254642,255027,,38,not
screen,html.Screen,2_3_1_0_1_39,2021-04-26T11:28:20.494Z,,,,,,,,,,,,,,,,,11,,,,,,,,,,,,,,241,,response,,,,4,B,,,,,,Space,keypress(Space),,,,lyrical,,,,----- -- ---- --- -- --- -------- ------------ ---------- --<br>- ------- ------ --------- -- ------------ -- --- ---- -----<br>------ ---- ---- ------ ------ ------- --- ----- ---------<br>---- --- -------- -------- --- --- -- ------- --- --- known<br>-- --- ------ ------- --- --- -------- ---- --------- --<br>---------- -- -------- ----------------,255420.00000000003,255251,255010,255004.00000000003,255027,255461,,39,known
screen,html.Screen,2_3_1_0_1_40,2021-04-26T11:28:20.902Z,,,,,,,,,,,,,,,,,11,,,,,,,,,,,,,,214.0000000000291,,response,,,,4,B,,,,,,Space,keypress(Space),,,,lyrical,,,,----- -- ---- --- -- --- -------- ------------ ---------- --<br>- ------- ------ --------- -- ------------ -- --- ---- -----<br>------ ---- ---- ------ ------ ------- --- ----- ---------<br>---- --- -------- -------- --- --- -- ------- --- --- -----<br>in --- ------ ------- --- --- -------- ---- --------- --<br>---------- -- -------- ----------------,255827,255658.00000000003,255444,255420.00000000003,255461,255861,,40,in
screen,html.Screen,2_3_1_0_1_41,2021-04-26T11:28:21.315Z,,,,,,,,,,,,,,,,,11,,,,,,,,,,,,,,225.0000000000291,,response,,,,4,B,,,,,,Space,keypress(Space),,,,lyrical,,,,----- -- ---- --- -- --- -------- ------------ ---------- --<br>- ------- ------ --------- -- ------------ -- --- ---- -----<br>------ ---- ---- ------ ------ ------- --- ----- ---------<br>---- --- -------- -------- --- --- -- ------- --- --- -----<br>-- any ------ ------- --- --- -------- ---- --------- --<br>---------- -- -------- ----------------,256240,256071.00000000003,255846,255827,255861,256280,,41,any
screen,html.Screen,2_3_1_0_1_42,2021-04-26T11:28:21.728Z,,,,,,,,,,,,,,,,,11,,,,,,,,,,,,,,220.9999999999709,,response,,,,4,B,,,,,,Space,keypress(Space),,,,lyrical,,,,----- -- ---- --- -- --- -------- ------------ ---------- --<br>- ------- ------ --------- -- ------------ -- --- ---- -----<br>------ ---- ---- ------ ------ ------- --- ----- ---------<br>---- --- -------- -------- --- --- -- ------- --- --- -----<br>-- --- nearby ------- --- --- -------- ---- --------- --<br>---------- -- -------- ----------------,256653.00000000003,256483.99999999997,256263,256240,256280,256681,,42,nearby
screen,html.Screen,2_3_1_0_1_43,2021-04-26T11:28:22.144Z,,,,,,,,,,,,,,,,,11,,,,,,,,,,,,,,237,,response,,,,4,B,,,,,,Space,keypress(Space),,,,lyrical,,,,----- -- ---- --- -- --- -------- ------------ ---------- --<br>- ------- ------ --------- -- ------------ -- --- ---- -----<br>------ ---- ---- ------ ------ ------- --- ----- ---------<br>---- --- -------- -------- --- --- -- ------- --- --- -----<br>-- --- ------ islands --- --- -------- ---- --------- --<br>---------- -- -------- ----------------,257070,256901,256664,256653.00000000003,256681,257099,,43,islands
screen,html.Screen,2_3_1_0_1_44,2021-04-26T11:28:22.552Z,,,,,,,,,,,,,,,,,11,,,,,,,,,,,,,,226,,response,,,,4,B,,,,,,Space,keypress(Space),,,,lyrical,,,,----- -- ---- --- -- --- -------- ------------ ---------- --<br>- ------- ------ --------- -- ------------ -- --- ---- -----<br>------ ---- ---- ------ ------ ------- --- ----- ---------<br>---- --- -------- -------- --- --- -- ------- --- --- -----<br>-- --- ------ ------- and --- -------- ---- --------- --<br>---------- -- -------- ----------------,257478,257308,257082,257070,257099,257517,,44,and
screen,html.Screen,2_3_1_0_1_45,2021-04-26T11:28:23.297Z,,,,,,,,,,,,,,,,,11,,,,,,,,,,,,,,553,,response,,,,4,B,,,,,,Space,keypress(Space),,,,lyrical,,,,----- -- ---- --- -- --- -------- ------------ ---------- --<br>- ------- ------ --------- -- ------------ -- --- ---- -----<br>------ ---- ---- ------ ------ ------- --- ----- ---------<br>---- --- -------- -------- --- --- -- ------- --- --- -----<br>-- --- ------ ------- --- the -------- ---- --------- --<br>---------- -- -------- ----------------,258223,258053,257500,257478,257517,258252,,45,the
screen,html.Screen,2_3_1_0_1_46,2021-04-26T11:28:23.994Z,,,,,,,,,,,,,,,,,11,,,,,,,,,,,,,,515,,response,,,,4,B,,,,,,Space,keypress(Space),,,,lyrical,,,,----- -- ---- --- -- --- -------- ------------ ---------- --<br>- ------- ------ --------- -- ------------ -- --- ---- -----<br>------ ---- ---- ------ ------ ------- --- ----- ---------<br>---- --- -------- -------- --- --- -- ------- --- --- -----<br>-- --- ------ ------- --- --- script's ---- --------- --<br>---------- -- -------- ----------------,258920.00000000003,258750,258235,258223,258252,258954,,46,script's
screen,html.Screen,2_3_1_0_1_47,2021-04-26T11:28:24.738Z,,,,,,,,,,,,,,,,,11,,,,,,,,,,,,,,557.0000000000291,,response,,,,4,B,,,,,,Space,keypress(Space),,,,lyrical,,,,----- -- ---- --- -- --- -------- ------------ ---------- --<br>- ------- ------ --------- -- ------------ -- --- ---- -----<br>------ ---- ---- ------ ------ ------- --- ----- ---------<br>---- --- -------- -------- --- --- -- ------- --- --- -----<br>-- --- ------ ------- --- --- -------- mere --------- --<br>---------- -- -------- ----------------,259664,259494.00000000003,258937,258920.00000000003,258954,259706,,47,mere
screen,html.Screen,2_3_1_0_1_48,2021-04-26T11:28:25.203Z,,,,,,,,,,,,,,,,,11,,,,,,,,,,,,,,270,,response,,,,4,B,,,,,,Space,keypress(Space),,,,lyrical,,,,----- -- ---- --- -- --- -------- ------------ ---------- --<br>- ------- ------ --------- -- ------------ -- --- ---- -----<br>------ ---- ---- ------ ------ ------- --- ----- ---------<br>---- --- -------- -------- --- --- -- ------- --- --- -----<br>-- --- ------ ------- --- --- -------- ---- existence --<br>---------- -- -------- ----------------,260129.00000000003,259959,259689,259664,259706,260157,,48,existence
screen,html.Screen,2_3_1_0_1_49,2021-04-26T11:28:25.607Z,,,,,,,,,,,,,,,,,11,,,,,,,,,,,,,,223,,response,,,,4,B,,,,,,Space,keypress(Space),,,,lyrical,,,,----- -- ---- --- -- --- -------- ------------ ---------- --<br>- ------- ------ --------- -- ------------ -- --- ---- -----<br>------ ---- ---- ------ ------ ------- --- ----- ---------<br>---- --- -------- -------- --- --- -- ------- --- --- -----<br>-- --- ------ ------- --- --- -------- ---- --------- is<br>---------- -- -------- ----------------,260533.00000000003,260363,260140,260129.00000000003,260157,260575,,49,is
screen,html.Screen,2_3_1_0_1_50,2021-04-26T11:28:26.197Z,,,,,,,,,,,,,,,,,11,,,,,,,,,,,,,,395.0000000000291,,response,,,,4,B,,,,,,Space,keypress(Space),,,,lyrical,,,,----- -- ---- --- -- --- -------- ------------ ---------- --<br>- ------- ------ --------- -- ------------ -- --- ---- -----<br>------ ---- ---- ------ ------ ------- --- ----- ---------<br>---- --- -------- -------- --- --- -- ------- --- --- -----<br>-- --- ------ ------- --- --- -------- ---- --------- --<br>sufficient -- -------- ----------------,261123,260953.00000000003,260558,260533.00000000003,260575,261160,,50,sufficient
screen,html.Screen,2_3_1_0_1_51,2021-04-26T11:28:26.642Z,,,,,,,,,,,,,,,,,11,,,,,,,,,,,,,,255.0000000000291,,response,,,,4,B,,,,,,Space,keypress(Space),,,,lyrical,,,,----- -- ---- --- -- --- -------- ------------ ---------- --<br>- ------- ------ --------- -- ------------ -- --- ---- -----<br>------ ---- ---- ------ ------ ------- --- ----- ---------<br>---- --- -------- -------- --- --- -- ------- --- --- -----<br>-- --- ------ ------- --- --- -------- ---- --------- --<br>---------- to -------- ----------------,261567.99999999997,261398.00000000003,261143,261123,261160,261611,,51,to
screen,html.Screen,2_3_1_0_1_52,2021-04-26T11:28:27.201Z,,,,,,,,,,,,,,,,,11,,,,,,,,,,,,,,363,,response,,,,4,B,,,,,,Space,keypress(Space),,,,lyrical,,,,----- -- ---- --- -- --- -------- ------------ ---------- --<br>- ------- ------ --------- -- ------------ -- --- ---- -----<br>------ ---- ---- ------ ------ ------- --- ----- ---------<br>---- --- -------- -------- --- --- -- ------- --- --- -----<br>-- --- ------ ------- --- --- -------- ---- --------- --<br>---------- -- confound ----------------,262127,261957,261594,261567.99999999997,261611,262162,,52,confound
screen,html.Screen,2_3_1_0_1_53,2021-04-26T11:28:28.707Z,,,,,,,,,,,,,,,,,11,,,,,,,,,,,,,,1317,,response,,,,4,B,,,,,,Space,keypress(Space),,,,lyrical,,,,----- -- ---- --- -- --- -------- ------------ ---------- --<br>- ------- ------ --------- -- ------------ -- --- ---- -----<br>------ ---- ---- ------ ------ ------- --- ----- ---------<br>---- --- -------- -------- --- --- -- ------- --- --- -----<br>-- --- ------ ------- --- --- -------- ---- --------- --<br>---------- -- -------- anthropologists.,263633,263463,262146,262127,262162,263666,,53,anthropologists.
Item 4,flow.Loop,2_3_1_0_1,2021-04-26T11:28:28.708Z,,,,,,,,,,,,,,,,,,,,,,,,,,,,,,,32233,,completion,,,,,,,,,,,,,,,,,,,,,263633,263463,231213,231214,231230,263666,,,
Question 1,html.Screen,2_3_1_0_2,2021-04-26T11:28:31.561Z,,,,,,,,,,,,,,,,,,,,,,,,,,,,true,FALSE,,2663,,response,,,,4,B,,,,,,FALSE,click #choice-2,,,,lyrical,,,,,266487,266313,263650,263633,263666,266507,,,
Question 2,html.Screen,2_3_1_0_3,2021-04-26T11:28:33.592Z,,,,,,,,,,,,,,,,,,,,,,,,,,,,true,TRUE,,1854,,response,,,,4,B,,,,,,TRUE,click #choice-1,,,,lyrical,,,,,268517,268347,266493,266487,266507,268546,,,
Item 4,flow.Sequence,2_3_1_0,2021-04-26T11:28:33.592Z,,,,,,,,,,,,,,,,,,,,,,,,,,,,,,,44120,,completion,,,,,,,,,,,,,,,,,,,,,268518,268347,224211,224216,224227,268546,,,
Holding screen,html.Screen,2_3_1_1_0,2021-04-26T11:28:40.607Z,,,,,,,,,,,,,,,,,,,,,,,,,,,,,,,7002,,timeout,,,,,,,,,,,,,,,,,,,,,275532,275531,268529,268518,268546,275548,,,
screen,html.Screen,2_3_1_1_1_0,2021-04-26T11:28:41.958Z,,,,,,,,,,,,,,,,,48,,,,,,,,,,,,,,1181,,response,,,,10,B,,,,,,Space,keypress(Space),,,,lyrical,,,,As -- --- ------ ------- --------- ----------- --------<br>--------- -------- --- ------- -- ------- ---- -- ------<br>-- --- -------- -------- ---------- ---- ---- ---- ------<br>-- --------- -- ---- -- --- -- --- ------- -- - -----<br>---------- -- -- -- ---- ----- -- ------ -- --- ------<br>-------,276883,276712,275531,275532,275548,276918,,0,As
