sender,sender_type,sender_id,timestamp,meta,,Blues,Classical,Country,Dance,Electronic,Folk,Gospel,Hip-Hop,Jazz,Latin,Musical/Film,New-age,Pop,Prolific_id,Provo_ID,R&B,Rap,Reggae,Religious,Rock,Soul,Swing,Traditional,age,artist_name,correct,correctResponse,distraction,duration,education,ended_on,familiarity,gender,headphone_check_performance,item,list,music_frequency,offensiveness,pleasantness,position_correct,preference,response,response_action,snippet_file,song_name,song_rating,sound,stimulus_1,stimulus_2,stimulus_3,text,time_commit,time_end,time_render,time_run,time_show,time_switch,url,word,word_ID
Prolific ID,html.Form,0,2021-04-30T16:42:04.751Z,"{""labjs_version"":""20.2.2"",""labjs_build"":{""flavor"":""production"",""commit"":""a25486e0c714a0ae2ce03ff94b7bb6896854dcfa""},""location"":""https://run.pavlovia.org/mvasilev/prolific_music_e/"",""userAgent"":""Mozilla/5.0 (Windows NT 10.0; Win64; x64) AppleWebKit/537.36 (KHTML, like Gecko) Chrome/90.0.4430.93 Safari/537.36"",""platform"":""Win32"",""language"":""en-GB"",""locale"":""en-GB"",""timeZone"":""Europe/London"",""timezoneOffset"":-60,""screen_width"":1536,""screen_height"":864,""scroll_width"":1536,""scroll_height"":706,""window_innerWidth"":1536,""window_innerHeight"":754,""devicePixelRatio"":1.25}",,,,,,,,,,,,,,,5ff619d384079f1372640915,,,,,,,,,,,,,,,14243.109999999726,,form submission,,,,,,,,,,,,,,,,,,,,,26691.35500000266,26689.454999999725,12329.831,12308.929999999236,12446.345,26716.419,{},,
Introduction,html.Screen,1_0,2021-04-30T16:42:11.132Z,,,,,,,,,,,,,,,,,,,,,,,,,,,,,,,6350.9910000032905,,response,,,,,,,,,,,continue,click button,,,,,,,,,33071.72999999602,33067.41000000329,26633.426,26693.759999994654,26716.419,33093.865,,,
Volume calibration,html.Screen,1_1,2021-04-30T16:42:46.912Z,,,,,,,,,,,,,,,,,,,,,,,,,,,,,,,35753.595000004505,,response,,,,,,,,,,,continue,click button,,,,,,,,,68852.34499999206,68847.4600000045,33060.888,33072.025000001304,33093.865,68910.625,,,
Task instructions,html.Screen,1_2,2021-04-30T16:44:15.132Z,,,,,,,,,,,,,,,,,,,,,,,,,,,,,,,88160.65999999817,,response,,,,,,,,,,,continue,click button,,,,,,,,,157073.02999999956,157071.28499999817,68844.123,68852.58500000054,68910.625,157078.68,,,
Sounds,html.Screen,1_3_0_0,2021-04-30T16:44:19.372Z,,,,,,,,,,,,,,,,,,,,,,,,,,,,,,,4262.822000000015,,timeout,,,,,,,,,2,,,,,,,,O,S,I,,161312.64999999257,161308.225,157062.428,157073.5149999964,157078.68,161341.502,,,
Judgement,html.Screen,1_3_0_1,2021-04-30T16:44:22.890Z,,,,,,,,,,,,,,,,,,,,,,,,,,,,true,2,,3487.2429999916058,,response,,,,,,,,,2,,2,click #choice-2,,,,,O,S,I,,164830.415000004,164828.7449999916,161308.225,161312.93499999447,161341.502,164838.139,,,
Trial,flow.Sequence,1_3_0,2021-04-30T16:44:22.890Z,,,,,,,,,,,,,,,,,,,,,,,,,,,,,,,7750.06499999162,,completion,,,,,,,,,2,,,,,,,,O,S,I,,164830.95999999205,164828.7449999916,157062.428,157073.42000000062,157078.68,164838.139,,,
Sounds,html.Screen,1_3_1_0,2021-04-30T16:44:27.128Z,,,,,,,,,,,,,,,,,,,,,,,,,,,,,,,4246.323999999993,,timeout,,,,,,,,,2,,,,,,,,I,S,O,,169068.8749999972,169067.546,164821.546,164831.26999999513,164838.139,169084.463,,,
Judgement,html.Screen,1_3_1_1,2021-04-30T16:44:28.078Z,,,,,,,,,,,,,,,,,,,,,,,,,,,,true,2,,932.2219999950612,,response,,,,,,,,,2,,2,click #choice-2,,,,,I,S,O,,170018.4500000032,170016.68499999505,169067.546,169069.13999999233,169084.463,170033.652,,,
Trial,flow.Sequence,1_3_1,2021-04-30T16:44:28.078Z,,,,,,,,,,,,,,,,,,,,,,,,,,,,,,,5178.545999995054,,completion,,,,,,,,,2,,,,,,,,I,S,O,,170018.8899999921,170016.68499999505,164821.546,164831.20000000054,164838.139,170033.652,,,
Sounds,html.Screen,1_3_2_0,2021-04-30T16:44:32.325Z,,,,,,,,,,,,,,,,,,,,,,,,,,,,,,,4246.005999999994,,timeout,,,,,,,,,1,,,,,,,,S,I,O,,174265.9249999997,174262.894,170017.026,170019.1199999972,170033.652,174279.658,,,
Judgement,html.Screen,1_3_2_1,2021-04-30T16:44:33.170Z,,,,,,,,,,,,,,,,,,,,,,,,,,,,true,1,,829.4869999949005,,response,,,,,,,,,1,,1,click #choice-1,,,,,S,I,O,,175110.85499999172,175109.1449999949,174262.894,174266.8399999966,174279.658,175111.853,,,
Trial,flow.Sequence,1_3_2,2021-04-30T16:44:33.170Z,,,,,,,,,,,,,,,,,,,,,,,,,,,,,,,5075.4929999948945,,completion,,,,,,,,,1,,,,,,,,S,I,O,,175111.29499999515,175109.1449999949,170017.026,170019.05499999702,170033.652,175111.853,,,
Sounds,html.Screen,1_3_3_0,2021-04-30T16:44:37.402Z,,,,,,,,,,,,,,,,,,,,,,,,,,,,,,,4246.312999999995,,timeout,,,,,,,,,1,,,,,,,,S,O,I,,179342.74500000174,179341.613,175095.336,175111.53500000364,175111.853,179358.166,,,
Judgement,html.Screen,1_3_3_1,2021-04-30T16:44:38.086Z,,,,,,,,,,,,,,,,,,,,,,,,,,,,true,1,,667.5940000040864,,response,,,,,,,,,1,,1,click #choice-1,,,,,S,O,I,,180027.22000000358,180025.76000000408,179341.613,179342.95500000007,179358.166,180040.772,,,
Trial,flow.Sequence,1_3_3,2021-04-30T16:44:38.087Z,,,,,,,,,,,,,,,,,,,,,,,,,,,,,,,4913.907000004081,,completion,,,,,,,,,1,,,,,,,,S,O,I,,180027.61999999348,180025.76000000408,175095.336,175111.4549999911,175111.853,180040.772,,,
Sounds,html.Screen,1_3_4_0,2021-04-30T16:44:42.331Z,,,,,,,,,,,,,,,,,,,,,,,,,,,,,,,4245.888999999996,,timeout,,,,,,,,,3,,,,,,,,O,I,S,,184272.03500000178,184270.387,180024.409,180027.95000000333,180040.772,184286.661,,,
Judgement,html.Screen,1_3_4_1,2021-04-30T16:44:43.149Z,,,,,,,,,,,,,,,,,,,,,,,,,,,,true,3,,801.744000002247,,response,,,,,,,,,3,,3,click #choice-3,,,,,O,I,S,,185089.88499999396,185088.40500000224,184270.387,184272.3149999947,184286.661,185102.919,,,
Trial,flow.Sequence,1_3_4,2021-04-30T16:44:43.149Z,,,,,,,,,,,,,,,,,,,,,,,,,,,,,,,5047.633000002243,,completion,,,,,,,,,3,,,,,,,,O,I,S,,185090.2550000028,185088.40500000224,180024.409,180027.87499999977,180040.772,185102.919,,,
Sounds,html.Screen,1_3_5_0,2021-04-30T16:44:47.392Z,,,,,,,,,,,,,,,,,,,,,,,,,,,,,,,4245.792000000016,,timeout,,,,,,,,,3,,,,,,,,I,O,S,,189333.25999999943,189332.275,185086.4,185090.45999999216,185102.919,189348.711,,,
Judgement,html.Screen,1_3_5_1,2021-04-30T16:44:48.059Z,,,,,,,,,,,,,,,,,,,,,,,,,,,,true,3,,649.4939999962226,,response,,,,,,,,,3,,3,click #choice-3,,,,,I,O,S,,189999.83000000066,189998.20499999623,189332.275,189333.49499999895,189348.711,190064.682,,,
Trial,flow.Sequence,1_3_5,2021-04-30T16:44:48.059Z,,,,,,,,,,,,,,,,,,,,,,,,,,,,,,,4895.285999996238,,completion,,,,,,,,,3,,,,,,,,I,O,S,,190000.15500000154,189998.20499999623,185086.4,185090.41000000434,185102.919,190064.682,,,
Task,flow.Loop,1_3,2021-04-30T16:44:48.067Z,,,,,,,,,,,,,,,,,,,,,,,,,,,,,,,32919.52499999624,,completion,,,1,,,,,,,,,,,,,,,,,,190007.71999999415,189998.20499999623,157062.428,157073.30499999807,157078.68,190064.682,,,
Trap,html.Screen,1_4,2021-04-30T16:44:48.071Z,,,,,,,,,,,,,,,,,,,,,,,,,,,,,,,NaN,,skipped,,,,,,,,,,,,,,,,,,,,,190011.3849999907,189998.20499999623,,190011.12999999896,,190064.682,,,
Thanks,html.Screen,1_5,2021-04-30T16:44:53.330Z,,,,,,,,,,,,,,,,,,,,,,,,,,,,,,,5205.107999991189,,response,,,,,,,,,,,continue,click button,,,,,,,,,195271.10499999253,195269.7899999912,189998.091,190011.5700000024,190064.682,199039.609,,,
Headphone screening,flow.Sequence,1,2021-04-30T16:44:53.331Z,,,,,,,,,,,,,,,,,,,,,,,,,,,,,,,168553.3709999912,,completion,,,,,,,,,,,,,,,,,,,,,195271.424999999,195269.7899999912,26633.426,26693.58999999531,26716.419,199039.609,,,
Instructions,html.Page,2_0,2021-04-30T16:45:20.473Z,,,,,,,,,,,,,,,,,,,,,,,,,,,,,,,23373.596000004385,,form submission,,,,,,,,,,,,,,,,,,,,,222414.14500000246,222413.20500000438,199023.11,199051.2999999919,199039.609,222417.907,,,
Holding screen,html.Screen,2_1_0_0,2021-04-30T16:45:30.469Z,,,,,,,,,,,,,,,,,,,,,,,,,,,,,,,10074.016000000003,,timeout,,,,,,,,,,,,,,,,,,,,,232410.17000000284,232409.08,222351.702,222414.51499999675,222417.907,232491.923,,,
screen,html.Screen,2_1_0_1_0,2021-04-30T16:45:31.398Z,,,,,,,,,,,,,,,,,53,,,,,,,,,,,,,,843.4570000040694,,response,,,,99,,,,,,,Space,keypress(Space),,,,,,,,When -- ----- -- ------ - ------- --- ----------<br>------------- ------ ------ ---- ---- ------- ----- -- ----<br>-------- ------- -- ---------- --- - --- ----- ----- ----<br>---- --- --- ----- --- ---- ---- ------- ----- ---- -------<br>--- --- -- ----- -- --- ---- -- --- ---- -- ------ ------<br>--- ----- -- ----,233338.9099999913,233335.38000000408,232409.08,232410.55499999493,232491.923,233341.141,,0,When
screen,html.Screen,2_1_0_1_1,2021-04-30T16:45:31.812Z,,,,,,,,,,,,,,,,,53,,,,,,,,,,,,,,410.36399999290006,,response,,,,99,,,,,,,Space,keypress(Space),,,,,,,,---- it ----- -- ------ - ------- --- ----------<br>------------- ------ ------ ---- ---- ------- ----- -- ----<br>-------- ------- -- ---------- --- - --- ----- ----- ----<br>---- --- --- ----- --- ---- ---- ------- ----- ---- -------<br>--- --- -- ----- -- --- ---- -- --- ---- -- ------ ------<br>--- ----- -- ----,233752.46000000334,233751.5049999929,233324.664,233338.99999999267,233341.141,233757.377,,1,it
screen,html.Screen,2_1_0_1_2,2021-04-30T16:45:32.236Z,,,,,,,,,,,,,,,,,53,,,,,,,,,,,,,,418.2529999979015,,response,,,,99,,,,,,,Space,keypress(Space),,,,,,,,---- -- comes -- ------ - ------- --- ----------<br>------------- ------ ------ ---- ---- ------- ----- -- ----<br>-------- ------- -- ---------- --- - --- ----- ----- ----<br>---- --- --- ----- --- ---- ---- ------- ----- ---- -------<br>--- --- -- ----- -- --- ---- -- --- ---- -- ------ ------<br>--- ----- -- ----,234176.53499999142,234175.6299999979,233740.982,233752.68499999947,233757.377,234190.321,,2,comes
screen,html.Screen,2_1_0_1_3,2021-04-30T16:45:32.619Z,,,,,,,,,,,,,,,,,53,,,,,,,,,,,,,,368.31399999395944,,response,,,,99,,,,,,,Space,keypress(Space),,,,,,,,---- -- ----- to ------ - ------- --- ----------<br>------------- ------ ------ ---- ---- ------- ----- -- ----<br>-------- ------- -- ---------- --- - --- ----- ----- ----<br>---- --- --- ----- --- ---- ---- ------- ----- ---- -------<br>--- --- -- ----- -- --- ---- -- --- ---- -- ------ ------<br>--- ----- -- ----,234559.72999999358,234558.63499999396,234173.722,234176.72999999195,234190.321,234573.376,,3,to
screen,html.Screen,2_1_0_1_4,2021-04-30T16:45:33.031Z,,,,,,,,,,,,,,,,,53,,,,,,,,,,,,,,397.80399999319343,,response,,,,99,,,,,,,Space,keypress(Space),,,,,,,,---- -- ----- -- having - ------- --- ----------<br>------------- ------ ------ ---- ---- ------- ----- -- ----<br>-------- ------- -- ---------- --- - --- ----- ----- ----<br>---- --- --- ----- --- ---- ---- ------- ----- ---- -------<br>--- --- -- ----- -- --- ---- -- --- ---- -- ------ ------<br>--- ----- -- ----,234972.15000000142,234971.17999999318,234556.751,234560.10999999125,234573.376,234990.069,,4,having
screen,html.Screen,2_1_0_1_5,2021-04-30T16:45:33.389Z,,,,,,,,,,,,,,,,,53,,,,,,,,,,,,,,339.12100000403007,,response,,,,99,,,,,,,Space,keypress(Space),,,,,,,,---- -- ----- -- ------ a ------- --- ----------<br>------------- ------ ------ ---- ---- ------- ----- -- ----<br>-------- ------- -- ---------- --- - --- ----- ----- ----<br>---- --- --- ----- --- ---- ---- ------- ----- ---- -------<br>--- --- -- ----- -- --- ---- -- --- ---- -- ------ ------<br>--- ----- -- ----,235330.1599999977,235329.19000000402,234956.443,234972.33999999298,234990.069,235339.398,,5,a
screen,html.Screen,2_1_0_1_6,2021-04-30T16:45:33.861Z,,,,,,,,,,,,,,,,,53,,,,,,,,,,,,,,461.7519999993383,,response,,,,99,,,,,,,Space,keypress(Space),,,,,,,,---- -- ----- -- ------ - lasting --- ----------<br>------------- ------ ------ ---- ---- ------- ----- -- ----<br>-------- ------- -- ---------- --- - --- ----- ----- ----<br>---- --- --- ----- --- ---- ---- ------- ----- ---- -------<br>--- --- -- ----- -- --- ---- -- --- ---- -- ------ ------<br>--- ----- -- ----,235802.045000004,235801.14999999932,235322.779,235330.375000005,235339.398,235805.48,,6,lasting
screen,html.Screen,2_1_0_1_7,2021-04-30T16:45:34.231Z,,,,,,,,,,,,,,,,,53,,,,,,,,,,,,,,365.2649999957939,,response,,,,99,,,,,,,Space,keypress(Space),,,,,,,,---- -- ----- -- ------ - ------- and ----------<br>------------- ------ ------ ---- ---- ------- ----- -- ----<br>-------- ------- -- ---------- --- - --- ----- ----- ----<br>---- --- --- ----- --- ---- ---- ------- ----- ---- -------<br>--- --- -- ----- -- --- ---- -- --- ---- -- ------ ------<br>--- ----- -- ----,236171.6449999949,236170.7449999958,235789.293,235802.25999999675,235805.48,236188.54,,7,and
screen,html.Screen,2_1_0_1_8,2021-04-30T16:45:34.636Z,,,,,,,,,,,,,,,,,53,,,,,,,,,,,,,,387.17499999902793,,response,,,,99,,,,,,,Space,keypress(Space),,,,,,,,---- -- ----- -- ------ - ------- --- fulfilling<br>------------- ------ ------ ---- ---- ------- ----- -- ----<br>-------- ------- -- ---------- --- - --- ----- ----- ----<br>---- --- --- ----- --- ---- ---- ------- ----- ---- -------<br>--- --- -- ----- -- --- ---- -- --- ---- -- ------ ------<br>--- ----- -- ----,236576.6500000027,236575.71499999904,236171.887,236171.87999999442,236188.54,236588.161,,8,fulfilling
screen,html.Screen,2_1_0_1_9,2021-04-30T16:45:35.033Z,,,,,,,,,,,,,,,,,53,,,,,,,,,,,,,,384.6939999999886,,response,,,,99,,,,,,,Space,keypress(Space),,,,,,,,"---- -- ----- -- ------ - ------- --- ----------<br>relationship, ------ ------ ---- ---- ------- ----- -- ----<br>-------- ------- -- ---------- --- - --- ----- ----- ----<br>---- --- --- ----- --- ---- ---- ------- ----- ---- -------<br>--- --- -- ----- -- --- ---- -- --- ---- -- ------ ------<br>--- ----- -- ----",236973.76999999688,236972.85499999998,236571.679,236576.86000000103,236588.161,236987.825,,9,"relationship,"
screen,html.Screen,2_1_0_1_10,2021-04-30T16:45:35.407Z,,,,,,,,,,,,,,,,,53,,,,,,,,,,,,,,358.8400000045658,,response,,,,99,,,,,,,Space,keypress(Space),,,,,,,,---- -- ----- -- ------ - ------- --- ----------<br>------------- common ------ ---- ---- ------- ----- -- ----<br>-------- ------- -- ---------- --- - --- ----- ----- ----<br>---- --- --- ----- --- ---- ---- ------- ----- ---- -------<br>--- --- -- ----- -- --- ---- -- --- ---- -- ------ ------<br>--- ----- -- ----,237347.63000000385,237346.66500000458,236971.391,236973.96999999182,236987.825,237354.136,,10,common
screen,html.Screen,2_1_0_1_11,2021-04-30T16:45:35.815Z,,,,,,,,,,,,,,,,,53,,,,,,,,,,,,,,401.1390000031679,,response,,,,99,,,,,,,Space,keypress(Space),,,,,,,,---- -- ----- -- ------ - ------- --- ----------<br>------------- ------ wisdom ---- ---- ------- ----- -- ----<br>-------- ------- -- ---------- --- - --- ----- ----- ----<br>---- --- --- ----- --- ---- ---- ------- ----- ---- -------<br>--- --- -- ----- -- --- ---- -- --- ---- -- ------ ------<br>--- ----- -- ----,237756.1149999965,237755.27500000317,237337.46,237347.8349999932,237354.136,237770.54,,11,wisdom
screen,html.Screen,2_1_0_1_12,2021-04-30T16:45:36.192Z,,,,,,,,,,,,,,,,,53,,,,,,,,,,,,,,361.1550000036659,,response,,,,99,,,,,,,Space,keypress(Space),,,,,,,,---- -- ----- -- ------ - ------- --- ----------<br>------------- ------ ------ says ---- ------- ----- -- ----<br>-------- ------- -- ---------- --- - --- ----- ----- ----<br>---- --- --- ----- --- ---- ---- ------- ----- ---- -------<br>--- --- -- ----- -- --- ---- -- --- ---- -- ------ ------<br>--- ----- -- ----,238132.57000000158,238131.69500000367,237753.806,237756.3450000016,237770.54,238136.623,,12,says
screen,html.Screen,2_1_0_1_13,2021-04-30T16:45:36.726Z,,,,,,,,,,,,,,,,,53,,,,,,,,,,,,,,529.706999992748,,response,,,,99,,,,,,,Space,keypress(Space),,,,,,,,---- -- ----- -- ------ - ------- --- ----------<br>------------- ------ ------ ---- that ------- ----- -- ----<br>-------- ------- -- ---------- --- - --- ----- ----- ----<br>---- --- --- ----- --- ---- ---- ------- ----- ---- -------<br>--- --- -- ----- -- --- ---- -- --- ---- -- ------ ------<br>--- ----- -- ----,238667.2450000042,238666.32999999274,238120.095,238132.7900000033,238136.623,238669.535,,13,that
screen,html.Screen,2_1_0_1_14,2021-04-30T16:45:37.268Z,,,,,,,,,,,,,,,,,53,,,,,,,,,,,,,,538.1250000000291,,response,,,,99,,,,,,,Space,keypress(Space),,,,,,,,---- -- ----- -- ------ - ------- --- ----------<br>------------- ------ ------ ---- ---- feeling ----- -- ----<br>-------- ------- -- ---------- --- - --- ----- ----- ----<br>---- --- --- ----- --- ---- ---- ------- ----- ---- -------<br>--- --- -- ----- -- --- ---- -- --- ---- -- ------ ------<br>--- ----- -- ----,239208.5950000037,239207.66000000003,238652.9,238667.45999999694,238669.535,239219.101,,14,feeling
screen,html.Screen,2_1_0_1_15,2021-04-30T16:45:37.738Z,,,,,,,,,,,,,,,,,53,,,,,,,,,,,,,,458.67400000375346,,response,,,,99,,,,,,,Space,keypress(Space),,,,,,,,---- -- ----- -- ------ - ------- --- ----------<br>------------- ------ ------ ---- ---- ------- close -- ----<br>-------- ------- -- ---------- --- - --- ----- ----- ----<br>---- --- --- ----- --- ---- ---- ------- ----- ---- -------<br>--- --- -- ----- -- --- ---- -- --- ---- -- ------ ------<br>--- ----- -- ----,239678.70499999844,239677.77500000375,239202.343,239208.80500000203,239219.101,239685.365,,15,close
screen,html.Screen,2_1_0_1_16,2021-04-30T16:45:38.091Z,,,,,,,,,,,,,,,,,53,,,,,,,,,,,,,,345.054999995511,,response,,,,99,,,,,,,Space,keypress(Space),,,,,,,,---- -- ----- -- ------ - ------- --- ----------<br>------------- ------ ------ ---- ---- ------- ----- to ----<br>-------- ------- -- ---------- --- - --- ----- ----- ----<br>---- --- --- ----- --- ---- ---- ------- ----- ---- -------<br>--- --- -- ----- -- --- ---- -- --- ---- -- ------ ------<br>--- ----- -- ----,240031.38000000035,240030.4199999955,239668.939,239678.91499999678,239685.365,240034.911,,16,to
screen,html.Screen,2_1_0_1_17,2021-04-30T16:45:38.546Z,,,,,,,,,,,,,,,,,53,,,,,,,,,,,,,,451.5490000000864,,response,,,,99,,,,,,,Space,keypress(Space),,,,,,,,---- -- ----- -- ------ - ------- --- ----------<br>------------- ------ ------ ---- ---- ------- ----- -- your<br>-------- ------- -- ---------- --- - --- ----- ----- ----<br>---- --- --- ----- --- ---- ---- ------- ----- ---- -------<br>--- --- -- ----- -- --- ---- -- --- ---- -- ------ ------<br>--- ----- -- ----,240487.2999999934,240486.46000000008,240018.586,240031.73499999684,240034.911,240501.537,,17,your
screen,html.Screen,2_1_0_1_18,2021-04-30T16:45:39.017Z,,,,,,,,,,,,,,,,,53,,,,,,,,,,,,,,455.9579999950947,,response,,,,99,,,,,,,Space,keypress(Space),,,,,,,,---- -- ----- -- ------ - ------- --- ----------<br>------------- ------ ------ ---- ---- ------- ----- -- ----<br>romantic ------- -- ---------- --- - --- ----- ----- ----<br>---- --- --- ----- --- ---- ---- ------- ----- ---- -------<br>--- --- -- ----- -- --- ---- -- --- ---- -- ------ ------<br>--- ----- -- ----,240958.27499999723,240957.4949999951,240484.81,240487.51999999513,240501.537,240967.767,,18,romantic
screen,html.Screen,2_1_0_1_19,2021-04-30T16:45:39.438Z,,,,,,,,,,,,,,,,,53,,,,,,,,,,,,,,410.5930000024382,,response,,,,99,,,,,,,Space,keypress(Space),,,,,,,,---- -- ----- -- ------ - ------- --- ----------<br>------------- ------ ------ ---- ---- ------- ----- -- ----<br>-------- partner -- ---------- --- - --- ----- ----- ----<br>---- --- --- ----- --- ---- ---- ------- ----- ---- -------<br>--- --- -- ----- -- --- ---- -- --- ---- -- ------ ------<br>--- ----- -- ----,241379.21499999356,241378.36000000243,240950.98,240958.49000000453,240967.767,241383.617,,19,partner
screen,html.Screen,2_1_0_1_20,2021-04-30T16:45:39.825Z,,,,,,,,,,,,,,,,,53,,,,,,,,,,,,,,381.4279999928258,,response,,,,99,,,,,,,Space,keypress(Space),,,,,,,,---- -- ----- -- ------ - ------- --- ----------<br>------------- ------ ------ ---- ---- ------- ----- -- ----<br>-------- ------- is ---------- --- - --- ----- ----- ----<br>---- --- --- ----- --- ---- ---- ------- ----- ---- -------<br>--- --- -- ----- -- --- ---- -- --- ---- -- ------ ------<br>--- ----- -- ----,241765.84500000172,241765.04499999282,241367.132,241379.4249999919,241383.617,241783.501,,20,is
screen,html.Screen,2_1_0_1_21,2021-04-30T16:45:40.494Z,,,,,,,,,,,,,,,,,53,,,,,,,,,,,,,,650.9090000016731,,response,,,,99,,,,,,,Space,keypress(Space),,,,,,,,---- -- ----- -- ------ - ------- --- ----------<br>------------- ------ ------ ---- ---- ------- ----- -- ----<br>-------- ------- -- paramount. --- - --- ----- ----- ----<br>---- --- --- ----- --- ---- ---- ------- ----- ---- -------<br>--- --- -- ----- -- --- ---- -- --- ---- -- ------ ------<br>--- ----- -- ----,242435.18499999482,242434.41000000166,241750.188,241766.04999999108,241783.501,242449.584,,21,paramount.
screen,html.Screen,2_1_0_1_22,2021-04-30T16:45:40.848Z,,,,,,,,,,,,,,,,,53,,,,,,,,,,,,,,338.63099999321275,,response,,,,99,,,,,,,Space,keypress(Space),,,,,,,,---- -- ----- -- ------ - ------- --- ----------<br>------------- ------ ------ ---- ---- ------- ----- -- ----<br>-------- ------- -- ---------- But - --- ----- ----- ----<br>---- --- --- ----- --- ---- ---- ------- ----- ---- -------<br>--- --- -- ----- -- --- ---- -- --- ---- -- ------ ------<br>--- ----- -- ----,242789.03499999433,242788.21499999322,242432.766,242435.38999999873,242449.584,242799.02,,22,But
screen,html.Screen,2_1_0_1_23,2021-04-30T16:45:41.175Z,,,,,,,,,,,,,,,,,53,,,,,,,,,,,,,,315.9899999940826,,response,,,,99,,,,,,,Space,keypress(Space),,,,,,,,---- -- ----- -- ------ - ------- --- ----------<br>------------- ------ ------ ---- ---- ------- ----- -- ----<br>-------- ------- -- ---------- --- a --- ----- ----- ----<br>---- --- --- ----- --- ---- ---- ------- ----- ---- -------<br>--- --- -- ----- -- --- ---- -- --- ---- -- ------ ------<br>--- ----- -- ----,243115.8599999908,243115.00999999407,242782.441,242789.26999999385,242799.02,243132.096,,23,a
screen,html.Screen,2_1_0_1_24,2021-04-30T16:45:41.497Z,,,,,,,,,,,,,,,,,53,,,,,,,,,,,,,,304.44399999515736,,response,,,,99,,,,,,,Space,keypress(Space),,,,,,,,---- -- ----- -- ------ - ------- --- ----------<br>------------- ------ ------ ---- ---- ------- ----- -- ----<br>-------- ------- -- ---------- --- - new ----- ----- ----<br>---- --- --- ----- --- ---- ---- ------- ----- ---- -------<br>--- --- -- ----- -- --- ---- -- --- ---- -- ------ ------<br>--- ----- -- ----,243437.34999999288,243436.53999999515,243115.39,243116.0749999981,243132.096,243448.817,,24,new
screen,html.Screen,2_1_0_1_25,2021-04-30T16:45:41.913Z,,,,,,,,,,,,,,,,,53,,,,,,,,,,,,,,351.0979999959527,,response,,,,99,,,,,,,Space,keypress(Space),,,,,,,,---- -- ----- -- ------ - ------- --- ----------<br>------------- ------ ------ ---- ---- ------- ----- -- ----<br>-------- ------- -- ---------- --- - --- study ----- ----<br>---- --- --- ----- --- ---- ---- ------- ----- ---- -------<br>--- --- -- ----- -- --- ---- -- --- ---- -- ------ ------<br>--- ----- -- ----,243854.12499999802,243799.91499999596,243432.122,243437.5699999946,243448.817,243864.913,,25,study
screen,html.Screen,2_1_0_1_26,2021-04-30T16:45:42.272Z,,,,,,,,,,,,,,,,,53,,,,,,,,,,,,,,347.0570000039297,,response,,,,99,,,,,,,Space,keypress(Space),,,,,,,,---- -- ----- -- ------ - ------- --- ----------<br>------------- ------ ------ ---- ---- ------- ----- -- ----<br>-------- ------- -- ---------- --- - --- ----- finds ----<br>---- --- --- ----- --- ---- ---- ------- ----- ---- -------<br>--- --- -- ----- -- --- ---- -- --- ---- -- ------ ------<br>--- ----- -- ----,244212.78000000166,244211.97000000393,243848.03,243854.6950000018,243864.913,244245.6,,26,finds
screen,html.Screen,2_1_0_1_27,2021-04-30T16:45:42.646Z,,,,,,,,,,,,,,,,,53,,,,,,,,,,,,,,339.9000000010419,,response,,,,99,,,,,,,Space,keypress(Space),,,,,,,,---- -- ----- -- ------ - ------- --- ----------<br>------------- ------ ------ ---- ---- ------- ----- -- ----<br>-------- ------- -- ---------- --- - --- ----- ----- that<br>---- --- --- ----- --- ---- ---- ------- ----- ---- -------<br>--- --- -- ----- -- --- ---- -- --- ---- -- ------ ------<br>--- ----- -- ----,244587.19500000007,244585.50000000105,244197.854,244212.9949999944,244245.6,244597.472,,27,that
screen,html.Screen,2_1_0_1_28,2021-04-30T16:45:43.014Z,,,,,,,,,,,,,,,,,53,,,,,,,,,,,,,,356.1629999980214,,response,,,,99,,,,,,,Space,keypress(Space),,,,,,,,---- -- ----- -- ------ - ------- --- ----------<br>------------- ------ ------ ---- ---- ------- ----- -- ----<br>-------- ------- -- ---------- --- - --- ----- ----- ----<br>it's --- --- ----- --- ---- ---- ------- ----- ---- -------<br>--- --- -- ----- -- --- ---- -- --- ---- -- ------ ------<br>--- ----- -- ----,244954.50999999593,244953.63499999803,244580.774,244587.40999999281,244597.472,244964.061,,28,it's
screen,html.Screen,2_1_0_1_29,2021-04-30T16:45:43.350Z,,,,,,,,,,,,,,,,,53,,,,,,,,,,,,,,325.81400000222493,,response,,,,99,,,,,,,Space,keypress(Space),,,,,,,,---- -- ----- -- ------ - ------- --- ----------<br>------------- ------ ------ ---- ---- ------- ----- -- ----<br>-------- ------- -- ---------- --- - --- ----- ----- ----<br>---- not --- ----- --- ---- ---- ------- ----- ---- -------<br>--- --- -- ----- -- --- ---- -- --- ---- -- ------ ------<br>--- ----- -- ----,245290.68499999994,245289.8750000022,244947.244,244954.71999999427,244964.061,245296.959,,29,not
screen,html.Screen,2_1_0_1_30,2021-04-30T16:45:43.773Z,,,,,,,,,,,,,,,,,53,,,,,,,,,,,,,,415.8359999994573,,response,,,,99,,,,,,,Space,keypress(Space),,,,,,,,---- -- ----- -- ------ - ------- --- ----------<br>------------- ------ ------ ---- ---- ------- ----- -- ----<br>-------- ------- -- ---------- --- - --- ----- ----- ----<br>---- --- how ----- --- ---- ---- ------- ----- ---- -------<br>--- --- -- ----- -- --- ---- -- --- ---- -- ------ ------<br>--- ----- -- ----,245713.62999999837,245712.79499999946,245280.428,245290.89499999827,245296.959,245729.67,,30,how
screen,html.Screen,2_1_0_1_31,2021-04-30T16:45:44.110Z,,,,,,,,,,,,,,,,,53,,,,,,,,,,,,,,320.84000000092783,,response,,,,99,,,,,,,Space,keypress(Space),,,,,,,,---- -- ----- -- ------ - ------- --- ----------<br>------------- ------ ------ ---- ---- ------- ----- -- ----<br>-------- ------- -- ---------- --- - --- ----- ----- ----<br>---- --- --- close --- ---- ---- ------- ----- ---- -------<br>--- --- -- ----- -- --- ---- -- --- ---- -- ------ ------<br>--- ----- -- ----,246051.2250000029,246050.51000000094,245712.947,245713.8399999967,245729.67,246062.88,,31,close
screen,html.Screen,2_1_0_1_32,2021-04-30T16:45:44.438Z,,,,,,,,,,,,,,,,,53,,,,,,,,,,,,,,315.2450000029057,,response,,,,99,,,,,,,Space,keypress(Space),,,,,,,,---- -- ----- -- ------ - ------- --- ----------<br>------------- ------ ------ ---- ---- ------- ----- -- ----<br>-------- ------- -- ---------- --- - --- ----- ----- ----<br>---- --- --- ----- you ---- ---- ------- ----- ---- -------<br>--- --- -- ----- -- --- ---- -- --- ---- -- ------ ------<br>--- ----- -- ----,246378.97999999404,246378.1250000029,246046.293,246051.44999999902,246062.88,246396.028,,32,you
screen,html.Screen,2_1_0_1_33,2021-04-30T16:45:44.723Z,,,,,,,,,,,,,,,,,53,,,,,,,,,,,,,,267.4719999951194,,response,,,,99,,,,,,,Space,keypress(Space),,,,,,,,---- -- ----- -- ------ - ------- --- ----------<br>------------- ------ ------ ---- ---- ------- ----- -- ----<br>-------- ------- -- ---------- --- - --- ----- ----- ----<br>---- --- --- ----- --- feel ---- ------- ----- ---- -------<br>--- --- -- ----- -- --- ---- -- --- ---- -- ------ ------<br>--- ----- -- ----,246664.24499999266,246663.4999999951,246379.102,246379.2700000049,246396.028,246728.724,,33,feel
screen,html.Screen,2_1_0_1_34,2021-04-30T16:45:45.020Z,,,,,,,,,,,,,,,,,53,,,,,,,,,,,,,,231.21600000065519,,response,,,,99,,,,,,,Space,keypress(Space),,,,,,,,---- -- ----- -- ------ - ------- --- ----------<br>------------- ------ ------ ---- ---- ------- ----- -- ----<br>-------- ------- -- ---------- --- - --- ----- ----- ----<br>---- --- --- ----- --- ---- that ------- ----- ---- -------<br>--- --- -- ----- -- --- ---- -- --- ---- -- ------ ------<br>--- ----- -- ----,246960.9849999979,246959.94000000064,246712.281,246718.93999999156,246728.724,246978.584,,34,that
screen,html.Screen,2_1_0_1_35,2021-04-30T16:45:45.351Z,,,,,,,,,,,,,,,,,53,,,,,,,,,,,,,,312.5509999922069,,response,,,,99,,,,,,,Space,keypress(Space),,,,,,,,---- -- ----- -- ------ - ------- --- ----------<br>------------- ------ ------ ---- ---- ------- ----- -- ----<br>-------- ------- -- ---------- --- - --- ----- ----- ----<br>---- --- --- ----- --- ---- ---- matters ----- ---- -------<br>--- --- -- ----- -- --- ---- -- --- ---- -- ------ ------<br>--- ----- -- ----,247292.01000000467,247291.1349999922,246945.36,246961.18499999284,246978.584,247361.541,,35,matters
screen,html.Screen,2_1_0_1_36,2021-04-30T16:45:45.674Z,,,,,,,,,,,,,,,,,53,,,,,,,,,,,,,,251.93899999998393,,response,,,,99,,,,,,,Space,keypress(Space),,,,,,,,"---- -- ----- -- ------ - ------- --- ----------<br>------------- ------ ------ ---- ---- ------- ----- -- ----<br>-------- ------- -- ---------- --- - --- ----- ----- ----<br>---- --- --- ----- --- ---- ---- ------- most, ---- -------<br>--- --- -- ----- -- --- ---- -- --- ---- -- ------ ------<br>--- ----- -- ----",247614.32500000228,247613.47999999998,247344.817,247345.2249999973,247361.541,247628.213,,36,"most,"
screen,html.Screen,2_1_0_1_37,2021-04-30T16:45:46.202Z,,,,,,,,,,,,,,,,,53,,,,,,,,,,,,,,513.9169999929145,,response,,,,99,,,,,,,Space,keypress(Space),,,,,,,,---- -- ----- -- ------ - ------- --- ----------<br>------------- ------ ------ ---- ---- ------- ----- -- ----<br>-------- ------- -- ---------- --- - --- ----- ----- ----<br>---- --- --- ----- --- ---- ---- ------- ----- it's -------<br>--- --- -- ----- -- --- ---- -- --- ---- -- ------ ------<br>--- ----- -- ----,248142.9849999986,248142.1299999929,247611.447,247614.52499999723,247628.213,248162.722,,37,it's
screen,html.Screen,2_1_0_1_38,2021-04-30T16:45:46.536Z,,,,,,,,,,,,,,,,,53,,,,,,,,,,,,,,313.09799999237293,,response,,,,99,,,,,,,Space,keypress(Space),,,,,,,,---- -- ----- -- ------ - ------- --- ----------<br>------------- ------ ------ ---- ---- ------- ----- -- ----<br>-------- ------- -- ---------- --- - --- ----- ----- ----<br>---- --- --- ----- --- ---- ---- ------- ----- ---- whether<br>--- --- -- ----- -- --- ---- -- --- ---- -- ------ ------<br>--- ----- -- ----,248476.66000000027,248475.81999999238,248127.401,248143.17999999912,248162.722,248494.026,,38,whether
screen,html.Screen,2_1_0_1_39,2021-04-30T16:45:46.817Z,,,,,,,,,,,,,,,,,53,,,,,,,,,,,,,,262.8189999962342,,response,,,,99,,,,,,,Space,keypress(Space),,,,,,,,---- -- ----- -- ------ - ------- --- ----------<br>------------- ------ ------ ---- ---- ------- ----- -- ----<br>-------- ------- -- ---------- --- - --- ----- ----- ----<br>---- --- --- ----- --- ---- ---- ------- ----- ---- -------<br>you --- -- ----- -- --- ---- -- --- ---- -- ------ ------<br>--- ----- -- ----,248757.8199999989,248756.84499999625,248477.079,248476.8599999952,248494.026,248760.147,,39,you
screen,html.Screen,2_1_0_1_40,2021-04-30T16:45:47.068Z,,,,,,,,,,,,,,,,,53,,,,,,,,,,,,,,248.01299999759067,,response,,,,99,,,,,,,Space,keypress(Space),,,,,,,,---- -- ----- -- ------ - ------- --- ----------<br>------------- ------ ------ ---- ---- ------- ----- -- ----<br>-------- ------- -- ---------- --- - --- ----- ----- ----<br>---- --- --- ----- --- ---- ---- ------- ----- ---- -------<br>--- are -- ----- -- --- ---- -- --- ---- -- ------ ------<br>--- ----- -- ----,249008.9650000009,249008.1599999976,248743.468,248758.02500000282,248760.147,249032.78,,40,are
screen,html.Screen,2_1_0_1_41,2021-04-30T16:45:47.381Z,,,,,,,,,,,,,,,,,53,,,,,,,,,,,,,,288.1149999971094,,response,,,,99,,,,,,,Space,keypress(Space),,,,,,,,---- -- ----- -- ------ - ------- --- ----------<br>------------- ------ ------ ---- ---- ------- ----- -- ----<br>-------- ------- -- ---------- --- - --- ----- ----- ----<br>---- --- --- ----- --- ---- ---- ------- ----- ---- -------<br>--- --- as ----- -- --- ---- -- --- ---- -- ------ ------<br>--- ----- -- ----,249321.65499999246,249320.8949999971,248993.416,249009.16499999585,249032.78,249326.277,,41,as
screen,html.Screen,2_1_0_1_42,2021-04-30T16:45:47.700Z,,,,,,,,,,,,,,,,,53,,,,,,,,,,,,,,313.35299999057315,,response,,,,99,,,,,,,Space,keypress(Space),,,,,,,,---- -- ----- -- ------ - ------- --- ----------<br>------------- ------ ------ ---- ---- ------- ----- -- ----<br>-------- ------- -- ---------- --- - --- ----- ----- ----<br>---- --- --- ----- --- ---- ---- ------- ----- ---- -------<br>--- --- -- close -- --- ---- -- --- ---- -- ------ ------<br>--- ----- -- ----,249640.3949999949,249639.62999999058,249309.974,249321.849999993,249326.277,249642.638,,42,close
screen,html.Screen,2_1_0_1_43,2021-04-30T16:45:47.995Z,,,,,,,,,,,,,,,,,53,,,,,,,,,,,,,,292.047000000166,,response,,,,99,,,,,,,Space,keypress(Space),,,,,,,,---- -- ----- -- ------ - ------- --- ----------<br>------------- ------ ------ ---- ---- ------- ----- -- ----<br>-------- ------- -- ---------- --- - --- ----- ----- ----<br>---- --- --- ----- --- ---- ---- ------- ----- ---- -------<br>--- --- -- ----- as --- ---- -- --- ---- -- ------ ------<br>--- ----- -- ----,249935.5499999947,249934.68500000017,249626.32,249640.58999999543,249642.638,249942.482,,43,as
screen,html.Screen,2_1_0_1_44,2021-04-30T16:45:48.309Z,,,,,,,,,,,,,,,,,53,,,,,,,,,,,,,,306.2879999910656,,response,,,,99,,,,,,,Space,keypress(Space),,,,,,,,---- -- ----- -- ------ - ------- --- ----------<br>------------- ------ ------ ---- ---- ------- ----- -- ----<br>-------- ------- -- ---------- --- - --- ----- ----- ----<br>---- --- --- ----- --- ---- ---- ------- ----- ---- -------<br>--- --- -- ----- -- you ---- -- --- ---- -- ------ ------<br>--- ----- -- ----,250249.62999999116,250248.76999999105,249925.731,249935.7500000042,249942.482,250259.072,,44,you
screen,html.Screen,2_1_0_1_45,2021-04-30T16:45:48.613Z,,,,,,,,,,,,,,,,,53,,,,,,,,,,,,,,294.08300000143936,,response,,,,99,,,,,,,Space,keypress(Space),,,,,,,,---- -- ----- -- ------ - ------- --- ----------<br>------------- ------ ------ ---- ---- ------- ----- -- ----<br>-------- ------- -- ---------- --- - --- ----- ----- ----<br>---- --- --- ----- --- ---- ---- ------- ----- ---- -------<br>--- --- -- ----- -- --- want -- --- ---- -- ------ ------<br>--- ----- -- ----,250554.22499999986,250553.15500000142,250242.415,250251.94499999634,250259.072,250558.469,,45,want
screen,html.Screen,2_1_0_1_46,2021-04-30T16:45:48.905Z,,,,,,,,,,,,,,,,,53,,,,,,,,,,,,,,286.85600000203704,,response,,,,99,,,,,,,Space,keypress(Space),,,,,,,,---- -- ----- -- ------ - ------- --- ----------<br>------------- ------ ------ ---- ---- ------- ----- -- ----<br>-------- ------- -- ---------- --- - --- ----- ----- ----<br>---- --- --- ----- --- ---- ---- ------- ----- ---- -------<br>--- --- -- ----- -- --- ---- to --- ---- -- ------ ------<br>--- ----- -- ----,250846.13499999978,250845.32500000205,250541.908,250554.43000000378,250558.469,250858.567,,46,to
screen,html.Screen,2_1_0_1_47,2021-04-30T16:45:49.153Z,,,,,,,,,,,,,,,,,53,,,,,,,,,,,,,,234.69800000314717,,response,,,,99,,,,,,,Space,keypress(Space),,,,,,,,"---- -- ----- -- ------ - ------- --- ----------<br>------------- ------ ------ ---- ---- ------- ----- -- ----<br>-------- ------- -- ---------- --- - --- ----- ----- ----<br>---- --- --- ----- --- ---- ---- ------- ----- ---- -------<br>--- --- -- ----- -- --- ---- -- be, ---- -- ------ ------<br>--- ----- -- ----",251094.0200000041,251093.26500000316,250841.549,250846.32499999134,250858.567,251108.045,,47,"be,"
screen,html.Screen,2_1_0_1_48,2021-04-30T16:45:49.462Z,,,,,,,,,,,,,,,,,53,,,,,,,,,,,,,,293.6349999953818,,response,,,,99,,,,,,,Space,keypress(Space),,,,,,,,---- -- ----- -- ------ - ------- --- ----------<br>------------- ------ ------ ---- ---- ------- ----- -- ----<br>-------- ------- -- ---------- --- - --- ----- ----- ----<br>---- --- --- ----- --- ---- ---- ------- ----- ---- -------<br>--- --- -- ----- -- --- ---- -- --- even -- ------ ------<br>--- ----- -- ----,251402.63499999128,251401.6799999954,251091.283,251094.20500000124,251108.045,251407.678,,48,even
screen,html.Screen,2_1_0_1_49,2021-04-30T16:45:49.735Z,,,,,,,,,,,,,,,,,53,,,,,,,,,,,,,,267.1319999967818,,response,,,,99,,,,,,,Space,keypress(Space),,,,,,,,---- -- ----- -- ------ - ------- --- ----------<br>------------- ------ ------ ---- ---- ------- ----- -- ----<br>-------- ------- -- ---------- --- - --- ----- ----- ----<br>---- --- --- ----- --- ---- ---- ------- ----- ---- -------<br>--- --- -- ----- -- --- ---- -- --- ---- if ------ ------<br>--- ----- -- ----,251675.73000000266,251674.8099999968,251391.11,251402.8299999918,251407.678,251690.888,,49,if
screen,html.Screen,2_1_0_1_50,2021-04-30T16:45:49.983Z,,,,,,,,,,,,,,,,,53,,,,,,,,,,,,,,232.31200000472018,,response,,,,99,,,,,,,Space,keypress(Space),,,,,,,,---- -- ----- -- ------ - ------- --- ----------<br>------------- ------ ------ ---- ---- ------- ----- -- ----<br>-------- ------- -- ---------- --- - --- ----- ----- ----<br>---- --- --- ----- --- ---- ---- ------- ----- ---- -------<br>--- --- -- ----- -- --- ---- -- --- ---- -- that's ------<br>--- ----- -- ----,251924.03500000364,251923.20000000473,251674.322,251676.01500000455,251690.888,251940.553,,50,that's
screen,html.Screen,2_1_0_1_51,2021-04-30T16:45:50.426Z,,,,,,,,,,,,,,,,,53,,,,,,,,,,,,,,425.70699999522185,,response,,,,99,,,,,,,Space,keypress(Space),,,,,,,,---- -- ----- -- ------ - ------- --- ----------<br>------------- ------ ------ ---- ---- ------- ----- -- ----<br>-------- ------- -- ---------- --- - --- ----- ----- ----<br>---- --- --- ----- --- ---- ---- ------- ----- ---- -------<br>--- --- -- ----- -- --- ---- -- --- ---- -- ------ really<br>--- ----- -- ----,252367.1250000043,252366.25999999524,251923.977,251924.23000000417,251940.553,252373.661,,51,really
screen,html.Screen,2_1_0_1_52,2021-04-30T16:45:50.804Z,,,,,,,,,,,,,,,,,53,,,,,,,,,,,,,,369.9140000004263,,response,,,,99,,,,,,,Space,keypress(Space),,,,,,,,---- -- ----- -- ------ - ------- --- ----------<br>------------- ------ ------ ---- ---- ------- ----- -- ----<br>-------- ------- -- ---------- --- - --- ----- ----- ----<br>---- --- --- ----- --- ---- ---- ------- ----- ---- -------<br>--- --- -- ----- -- --- ---- -- --- ---- -- ------ ------<br>not ----- -- ----,252744.38999999256,252743.57500000042,252356.908,252367.30499999248,252373.661,252756.797,,52,not
screen,html.Screen,2_1_0_1_53,2021-04-30T16:45:51.125Z,,,,,,,,,,,,,,,,,53,,,,,,,,,,,,,,308.4630000030447,,response,,,,99,,,,,,,Space,keypress(Space),,,,,,,,---- -- ----- -- ------ - ------- --- ----------<br>------------- ------ ------ ---- ---- ------- ----- -- ----<br>-------- ------- -- ---------- --- - --- ----- ----- ----<br>---- --- --- ----- --- ---- ---- ------- ----- ---- -------<br>--- --- -- ----- -- --- ---- -- --- ---- -- ------ ------<br>--- close -- ----,253066.0249999928,253065.26000000304,252739.86,252744.63499999547,252756.797,253072.978,,53,close
screen,html.Screen,2_1_0_1_54,2021-04-30T16:45:51.422Z,,,,,,,,,,,,,,,,,53,,,,,,,,,,,,,,289.1419999906793,,response,,,,99,,,,,,,Space,keypress(Space),,,,,,,,---- -- ----- -- ------ - ------- --- ----------<br>------------- ------ ------ ---- ---- ------- ----- -- ----<br>-------- ------- -- ---------- --- - --- ----- ----- ----<br>---- --- --- ----- --- ---- ---- ------- ----- ---- -------<br>--- --- -- ----- -- --- ---- -- --- ---- -- ------ ------<br>--- ----- at ----,253362.94999999518,253362.11999999068,253056.505,253066.2400000001,253072.978,253372.619,,54,at
screen,html.Screen,2_1_0_1_55,2021-04-30T16:45:51.660Z,,,,,,,,,,,,,,,,,53,,,,,,,,,,,,,,227.87599999149097,,response,,,,99,,,,,,,Space,keypress(Space),,,,,,,,---- -- ----- -- ------ - ------- --- ----------<br>------------- ------ ------ ---- ---- ------- ----- -- ----<br>-------- ------- -- ---------- --- - --- ----- ----- ----<br>---- --- --- ----- --- ---- ---- ------- ----- ---- -------<br>--- --- -- ----- -- --- ---- -- --- ---- -- ------ ------<br>--- ----- -- all.,253601.24499999802,253600.4949999915,253356.079,253363.1599999935,253372.619,253605.626,,55,all.
Item 99,flow.Loop,2_1_0_1,2021-04-30T16:45:51.661Z,,,,,,,,,,,,,,,,,,,,,,,,,,,,,,,21108.571999991487,,completion,,,,,E,,,,,,,,,,,silence,,,,,253601.6149999923,253600.4949999915,232409.08,232410.44500000135,232491.923,253605.626,,,
Question 1,html.Screen,2_1_0_2,2021-04-30T16:45:56.137Z,,,,,,,,,,,,,,,,,,,,,,,,,,,,true,FALSE,,4470.263999992807,,response,,,,99,E,,,,,,FALSE,click #choice-2,,,,silence,,,,,258077.40999999805,258075.8899999928,253589.058,253601.78499999165,253605.626,258084.804,,,
Question 2,html.Screen,2_1_0_3,2021-04-30T16:46:00.910Z,,,,,,,,,,,,,,,,,,,,,,,,,,,,true,TRUE,,4764.106000000611,,response,,,,99,E,,,,,,TRUE,click #choice-1,,,,silence,,,,,262850.3849999979,262848.9100000006,258068.575,258077.65999999538,258084.804,262863.832,,,
Item 99,flow.Sequence,2_1_0,2021-04-30T16:46:00.910Z,,,,,,,,,,,,,,,,,,,,,,,,,,,,,,,40431.00300000061,,completion,,,,,,,,,,,,,,,,,,,,,262850.7099999988,262848.9100000006,222351.702,222414.46499999438,222417.907,262863.832,,,
Holding screen,html.Screen,2_1_1_0,2021-04-30T16:46:10.915Z,,,,,,,,,,,,,,,,,,,,,,,,,,,,,,,10007.27899999998,,timeout,,,,,,,,,,,,,,,,,,,,,272855.67000000447,272854.699,262847.111,262850.9000000049,262863.832,272871.111,,,
screen,html.Screen,2_1_1_1_0,2021-04-30T16:46:11.560Z,,,,,,,,,,,,,,,,,54,,,,,,,,,,,,,,628.7539999907021,,response,,,,100,,,,,,,Space,keypress(Space),,,,,,,,At --- ---- --- ------ ----- ------- ---- -- --- ------- --<br>------- ---------- ------ -- ----- -- ----- -- ---- ------<br>--- ----- --- --- ------ -------- ----- --- ------ ----- --<br>----- ----- ---------- --- --- ------ ------ ---- -- ------<br>------- --- ------ ----- --- ---- ------- -- ---- --- --<br>------- ------,273500.96499999927,273499.8649999907,272854.699,272855.9600000008,272871.111,273503.786,,0,At
screen,html.Screen,2_1_1_1_1,2021-04-30T16:46:12.003Z,,,,,,,,,,,,,,,,,54,,,,,,,,,,,,,,439.3989999964251,,response,,,,100,,,,,,,Space,keypress(Space),,,,,,,,-- the ---- --- ------ ----- ------- ---- -- --- ------- --<br>------- ---------- ------ -- ----- -- ----- -- ---- ------<br>--- ----- --- --- ------ -------- ----- --- ------ ----- --<br>----- ----- ---------- --- --- ------ ------ ---- -- ------<br>------- --- ------ ----- --- ---- ------- -- ---- --- --<br>------- ------,273944.05499999993,273943.18499999645,273487.277,273501.1950000044,273503.786,273953.585,,1,the
screen,html.Screen,2_1_1_1_2,2021-04-30T16:46:12.390Z,,,,,,,,,,,,,,,,,54,,,,,,,,,,,,,,375.9349999992992,,response,,,,100,,,,,,,Space,keypress(Space),,,,,,,,-- --- time --- ------ ----- ------- ---- -- --- ------- --<br>------- ---------- ------ -- ----- -- ----- -- ---- ------<br>--- ----- --- --- ------ -------- ----- --- ------ ----- --<br>----- ----- ---------- --- --- ------ ------ ---- -- ------<br>------- --- ------ ----- --- ---- ------- -- ---- --- --<br>------- ------,274330.34499999485,274329.5199999993,273937.012,273944.25000000047,273953.585,274336.648,,2,time
screen,html.Screen,2_1_1_1_3,2021-04-30T16:46:12.717Z,,,,,,,,,,,,,,,,,54,,,,,,,,,,,,,,320.62699999049073,,response,,,,100,,,,,,,Space,keypress(Space),,,,,,,,-- --- ---- the ------ ----- ------- ---- -- --- ------- --<br>------- ---------- ------ -- ----- -- ----- -- ---- ------<br>--- ----- --- --- ------ -------- ----- --- ------ ----- --<br>----- ----- ---------- --- --- ------ ------ ---- -- ------<br>------- --- ------ ----- --- ---- ------- -- ---- --- --<br>------- ------,274658.08500000276,274657.2749999905,274320.092,274330.5549999932,274336.648,274669.798,,3,the
screen,html.Screen,2_1_1_1_4,2021-04-30T16:46:13.005Z,,,,,,,,,,,,,,,,,54,,,,,,,,,,,,,,275.4719999965164,,response,,,,100,,,,,,,Space,keypress(Space),,,,,,,,-- --- ---- --- French ----- ------- ---- -- --- ------- --<br>------- ---------- ------ -- ----- -- ----- -- ---- ------<br>--- ----- --- --- ------ -------- ----- --- ------ ----- --<br>----- ----- ---------- --- --- ------ ------ ---- -- ------<br>------- --- ------ ----- --- ---- ------- -- ---- --- --<br>------- ------,274946.08999999764,274945.2699999965,274653.038,274658.2699999999,274669.798,274952.543,,4,French
screen,html.Screen,2_1_1_1_5,2021-04-30T16:46:13.307Z,,,,,,,,,,,,,,,,,54,,,,,,,,,,,,,,294.80699999054195,,response,,,,100,,,,,,,Space,keypress(Space),,,,,,,,-- --- ---- --- ------ crown ------- ---- -- --- ------- --<br>------- ---------- ------ -- ----- -- ----- -- ---- ------<br>--- ----- --- --- ------ -------- ----- --- ------ ----- --<br>----- ----- ---------- --- --- ------ ------ ---- -- ------<br>------- --- ------ ----- --- ---- ------- -- ---- --- --<br>------- ------,275248.2500000042,275247.34999999055,274935.823,274946.2749999948,274952.543,275252.131,,5,crown
screen,html.Screen,2_1_1_1_6,2021-04-30T16:46:13.655Z,,,,,,,,,,,,,,,,,54,,,,,,,,,,,,,,342.73399999184767,,response,,,,100,,,,,,,Space,keypress(Space),,,,,,,,-- --- ---- --- ------ ----- secured ---- -- --- ------- --<br>------- ---------- ------ -- ----- -- ----- -- ---- ------<br>--- ----- --- --- ------ -------- ----- --- ------ ----- --<br>----- ----- ---------- --- --- ------ ------ ---- -- ------<br>------- --- ------ ----- --- ---- ------- -- ---- --- --<br>------- ------,275595.76499999093,275594.86499999184,275235.623,275248.4450000047,275252.131,275602.099,,6,secured
screen,html.Screen,2_1_1_1_7,2021-04-30T16:46:14.075Z,,,,,,,,,,,,,,,,,54,,,,,,,,,,,,,,413.00599999859696,,response,,,,100,,,,,,,Space,keypress(Space),,,,,,,,-- --- ---- --- ------ ----- ------- much -- --- ------- --<br>------- ---------- ------ -- ----- -- ----- -- ---- ------<br>--- ----- --- --- ------ -------- ----- --- ------ ----- --<br>----- ----- ---------- --- --- ------ ------ ---- -- ------<br>------- --- ------ ----- --- ---- ------- -- ---- --- --<br>------- ------,276015.9500000009,276015.1049999986,275585.34,275595.95999999146,275602.099,276018.146,,7,much
screen,html.Screen,2_1_1_1_8,2021-04-30T16:46:14.450Z,,,,,,,,,,,,,,,,,54,,,,,,,,,,,,,,371.9089999962016,,response,,,,100,,,,,,,Space,keypress(Space),,,,,,,,-- --- ---- --- ------ ----- ------- ---- of --- ------- --<br>------- ---------- ------ -- ----- -- ----- -- ---- ------<br>--- ----- --- --- ------ -------- ----- --- ------ ----- --<br>----- ----- ---------- --- --- ------ ------ ---- -- ------<br>------- --- ------ ----- --- ---- ------- -- ---- --- --<br>------- ------,276390.87999999174,276390.0549999962,276001.786,276016.13499999803,276018.146,276401.131,,8,of
screen,html.Screen,2_1_1_1_9,2021-04-30T16:46:14.812Z,,,,,,,,,,,,,,,,,54,,,,,,,,,,,,,,350.3939999996801,,response,,,,100,,,,,,,Space,keypress(Space),,,,,,,,-- --- ---- --- ------ ----- ------- ---- -- its ------- --<br>------- ---------- ------ -- ----- -- ----- -- ---- ------<br>--- ----- --- --- ------ -------- ----- --- ------ ----- --<br>----- ----- ---------- --- --- ------ ------ ---- -- ------<br>------- --- ------ ----- --- ---- ------- -- ---- --- --<br>------- ------,276752.45499999437,276751.5249999997,276384.497,276391.09999999346,276401.131,276767.717,,9,its
screen,html.Screen,2_1_1_1_10,2021-04-30T16:46:15.293Z,,,,,,,,,,,,,,,,,54,,,,,,,,,,,,,,465.7129999929457,,response,,,,100,,,,,,,Space,keypress(Space),,,,,,,,-- --- ---- --- ------ ----- ------- ---- -- --- revenue --<br>------- ---------- ------ -- ----- -- ----- -- ---- ------<br>--- ----- --- --- ------ -------- ----- --- ------ ----- --<br>----- ----- ---------- --- --- ------ ------ ---- -- ------<br>------- --- ------ ----- --- ---- ------- -- ---- --- --<br>------- ------,277234.31499999424,277233.42999999295,276751.005,276752.6499999949,276767.717,277250.486,,10,revenue
screen,html.Screen,2_1_1_1_11,2021-04-30T16:46:15.691Z,,,,,,,,,,,,,,,,,54,,,,,,,,,,,,,,380.2039999908884,,response,,,,100,,,,,,,Space,keypress(Space),,,,,,,,-- --- ---- --- ------ ----- ------- ---- -- --- ------- by<br>------- ---------- ------ -- ----- -- ----- -- ---- ------<br>--- ----- --- --- ------ -------- ----- --- ------ ----- --<br>----- ----- ---------- --- --- ------ ------ ---- -- ------<br>------- --- ------ ----- --- ---- ------- -- ---- --- --<br>------- ------,277631.5800000011,277630.68999999086,277233.878,277234.4999999914,277250.486,277662.674,,11,by
screen,html.Screen,2_1_1_1_12,2021-04-30T16:46:16.024Z,,,,,,,,,,,,,,,,,54,,,,,,,,,,,,,,300.9609999927925,,response,,,,100,,,,,,,Space,keypress(Space),,,,,,,,-- --- ---- --- ------ ----- ------- ---- -- --- ------- --<br>issuing ---------- ------ -- ----- -- ----- -- ---- ------<br>--- ----- --- --- ------ -------- ----- --- ------ ----- --<br>----- ----- ---------- --- --- ------ ------ ---- -- ------<br>------- --- ------ ----- --- ---- ------- -- ---- --- --<br>------- ------,277964.52999999747,277963.6349999928,277617.073,277631.86999999743,277662.674,277966.313,,12,issuing
screen,html.Screen,2_1_1_1_13,2021-04-30T16:46:16.438Z,,,,,,,,,,,,,,,,,54,,,,,,,,,,,,,,410.9520000027842,,response,,,,100,,,,,,,Space,keypress(Space),,,,,,,,-- --- ---- --- ------ ----- ------- ---- -- --- ------- --<br>------- government ------ -- ----- -- ----- -- ---- ------<br>--- ----- --- --- ------ -------- ----- --- ------ ----- --<br>----- ----- ---------- --- --- ------ ------ ---- -- ------<br>------- --- ------ ----- --- ---- ------- -- ---- --- --<br>------- ------,278378.1900000031,278377.2650000028,277949.797,277964.7200000036,277966.313,278382.573,,13,government
screen,html.Screen,2_1_1_1_14,2021-04-30T16:46:16.764Z,,,,,,,,,,,,,,,,,54,,,,,,,,,,,,,,320.64699999580625,,response,,,,100,,,,,,,Space,keypress(Space),,,,,,,,-- --- ---- --- ------ ----- ------- ---- -- --- ------- --<br>------- ---------- bonds. -- ----- -- ----- -- ---- ------<br>--- ----- --- --- ------ -------- ----- --- ------ ----- --<br>----- ----- ---------- --- --- ------ ------ ---- -- ------<br>------- --- ------ ----- --- ---- ------- -- ---- --- --<br>------- ------,278704.1499999905,278703.2199999958,278366.218,278378.37999999465,278382.573,278716.02,,14,bonds.
screen,html.Screen,2_1_1_1_15,2021-04-30T16:46:17.177Z,,,,,,,,,,,,,,,,,54,,,,,,,,,,,,,,400.1950000018114,,response,,,,100,,,,,,,Space,keypress(Space),,,,,,,,-- --- ---- --- ------ ----- ------- ---- -- --- ------- --<br>------- ---------- ------ In ----- -- ----- -- ---- ------<br>--- ----- --- --- ------ -------- ----- --- ------ ----- --<br>----- ----- ---------- --- --- ------ ------ ---- -- ------<br>------- --- ------ ----- --- ---- ------- -- ---- --- --<br>------- ------,279117.11999999534,279116.21500000183,278699.044,278704.3399999966,278716.02,279132.176,,15,In
screen,html.Screen,2_1_1_1_16,2021-04-30T16:46:17.418Z,,,,,,,,,,,,,,,,,54,,,,,,,,,,,,,,225.1539999989327,,response,,,,100,,,,,,,Space,keypress(Space),,,,,,,,"-- --- ---- --- ------ ----- ------- ---- -- --- ------- --<br>------- ---------- ------ -- 1727, -- ----- -- ---- ------<br>--- ----- --- --- ------ -------- ----- --- ------ ----- --<br>----- ----- ---------- --- --- ------ ------ ---- -- ------<br>------- --- ------ ----- --- ---- ------- -- ---- --- --<br>------- ------",279358.2400000014,279357.3299999989,279115.613,279117.32000000484,279132.176,279365.601,,16,"1727,"
screen,html.Screen,2_1_1_1_17,2021-04-30T16:46:18.121Z,,,,,,,,,,,,,,,,,54,,,,,,,,,,,,,,694.6789999905741,,response,,,,100,,,,,,,Space,keypress(Space),,,,,,,,-- --- ---- --- ------ ----- ------- ---- -- --- ------- --<br>------- ---------- ------ -- ----- in ----- -- ---- ------<br>--- ----- --- --- ------ -------- ----- --- ------ ----- --<br>----- ----- ---------- --- --- ------ ------ ---- -- ------<br>------- --- ------ ----- --- ---- ------- -- ---- --- --<br>------- ------,280061.24999999884,280060.2799999906,279348.71,279358.4350000019,279365.601,280064.361,,17,in
screen,html.Screen,2_1_1_1_18,2021-04-30T16:46:18.573Z,,,,,,,,,,,,,,,,,54,,,,,,,,,,,,,,447.6739999924903,,response,,,,100,,,,,,,Space,keypress(Space),,,,,,,,-- --- ---- --- ------ ----- ------- ---- -- --- ------- --<br>------- ---------- ------ -- ----- -- order -- ---- ------<br>--- ----- --- --- ------ -------- ----- --- ------ ----- --<br>----- ----- ---------- --- --- ------ ------ ---- -- ------<br>------- --- ------ ----- --- ---- ------- -- ---- --- --<br>------- ------,280512.83500000136,280512.03499999247,280047.828,280061.50999999954,280064.361,280541.843,,18,order
screen,html.Screen,2_1_1_1_19,2021-04-30T16:46:18.841Z,,,,,,,,,,,,,,,,,54,,,,,,,,,,,,,,238.2170000046026,,response,,,,100,,,,,,,Space,keypress(Space),,,,,,,,-- --- ---- --- ------ ----- ------- ---- -- --- ------- --<br>------- ---------- ------ -- ----- -- ----- to ---- ------<br>--- ----- --- --- ------ -------- ----- --- ------ ----- --<br>----- ----- ---------- --- --- ------ ------ ---- -- ------<br>------- --- ------ ----- --- ---- ------- -- ---- --- --<br>------- ------,280780.9750000015,280780.0600000046,280497.588,280513.0199999985,280541.843,280797.416,,19,to
screen,html.Screen,2_1_1_1_20,2021-04-30T16:46:19.072Z,,,,,,,,,,,,,,,,,54,,,,,,,,,,,,,,213.89899999607587,,response,,,,100,,,,,,,Space,keypress(Space),,,,,,,,-- --- ---- --- ------ ----- ------- ---- -- --- ------- --<br>------- ---------- ------ -- ----- -- ----- -- save ------<br>--- ----- --- --- ------ -------- ----- --- ------ ----- --<br>----- ----- ---------- --- --- ------ ------ ---- -- ------<br>------- --- ------ ----- --- ---- ------- -- ---- --- --<br>------- ------,281012.2100000008,281011.3149999961,280780.436,280781.1550000042,280797.416,281040.247,,20,save
screen,html.Screen,2_1_1_1_21,2021-04-30T16:46:19.333Z,,,,,,,,,,,,,,,,,54,,,,,,,,,,,,,,231.7880000018049,,response,,,,100,,,,,,,Space,keypress(Space),,,,,,,,"-- --- ---- --- ------ ----- ------- ---- -- --- ------- --<br>------- ---------- ------ -- ----- -- ----- -- ---- money,<br>--- ----- --- --- ------ -------- ----- --- ------ ----- --<br>----- ----- ---------- --- --- ------ ------ ---- -- ------<br>------- --- ------ ----- --- ---- ------- -- ---- --- --<br>------- ------",281272.8550000029,281272.0350000018,280996.875,281012.4249999935,281040.247,281280.119,,21,"money,"
screen,html.Screen,2_1_1_1_22,2021-04-30T16:46:19.612Z,,,,,,,,,,,,,,,,,54,,,,,,,,,,,,,,271.7109999966924,,response,,,,100,,,,,,,Space,keypress(Space),,,,,,,,-- --- ---- --- ------ ----- ------- ---- -- --- ------- --<br>------- ---------- ------ -- ----- -- ----- -- ---- ------<br>the ----- --- --- ------ -------- ----- --- ------ ----- --<br>----- ----- ---------- --- --- ------ ------ ---- -- ------<br>------- --- ------ ----- --- ---- ------- -- ---- --- --<br>------- ------,281552.6399999944,281551.8299999967,281263.352,281273.04499999445,281280.119,281563.411,,22,the
screen,html.Screen,2_1_1_1_23,2021-04-30T16:46:20.127Z,,,,,,,,,,,,,,,,,54,,,,,,,,,,,,,,503.0689999940223,,response,,,,100,,,,,,,Space,keypress(Space),,,,,,,,-- --- ---- --- ------ ----- ------- ---- -- --- ------- --<br>------- ---------- ------ -- ----- -- ----- -- ---- ------<br>--- state --- --- ------ -------- ----- --- ------ ----- --<br>----- ----- ---------- --- --- ------ ------ ---- -- ------<br>------- --- ------ ----- --- ---- ------- -- ---- --- --<br>------- ------,282067.3749999987,282066.47999999404,281546.385,281552.83000000054,281563.411,282079.47,,23,state
screen,html.Screen,2_1_1_1_24,2021-04-30T16:46:20.529Z,,,,,,,,,,,,,,,,,54,,,,,,,,,,,,,,388.76499999302905,,response,,,,100,,,,,,,Space,keypress(Space),,,,,,,,-- --- ---- --- ------ ----- ------- ---- -- --- ------- --<br>------- ---------- ------ -- ----- -- ----- -- ---- ------<br>--- ----- cut --- ------ -------- ----- --- ------ ----- --<br>----- ----- ---------- --- --- ------ ------ ---- -- ------<br>------- --- ------ ----- --- ---- ------- -- ---- --- --<br>------- ------,282469.0100000007,282468.234999993,282062.572,282067.57499999367,282079.47,282478.887,,24,cut
screen,html.Screen,2_1_1_1_25,2021-04-30T16:46:20.877Z,,,,,,,,,,,,,,,,,54,,,,,,,,,,,,,,337.38299999572337,,response,,,,100,,,,,,,Space,keypress(Space),,,,,,,,-- --- ---- --- ------ ----- ------- ---- -- --- ------- --<br>------- ---------- ------ -- ----- -- ----- -- ---- ------<br>--- ----- --- the ------ -------- ----- --- ------ ----- --<br>----- ----- ---------- --- --- ------ ------ ---- -- ------<br>------- --- ------ ----- --- ---- ------- -- ---- --- --<br>------- ------,282816.99500000104,282816.2699999957,282462.531,282469.19999999227,282478.887,282828.565,,25,the
screen,html.Screen,2_1_1_1_26,2021-04-30T16:46:21.133Z,,,,,,,,,,,,,,,,,54,,,,,,,,,,,,,,243.4549999923329,,response,,,,100,,,,,,,Space,keypress(Space),,,,,,,,-- --- ---- --- ------ ----- ------- ---- -- --- ------- --<br>------- ---------- ------ -- ----- -- ----- -- ---- ------<br>--- ----- --- --- bonds' -------- ----- --- ------ ----- --<br>----- ----- ---------- --- --- ------ ------ ---- -- ------<br>------- --- ------ ----- --- ---- ------- -- ---- --- --<br>------- ------,283072.8600000002,283072.01999999234,282811.844,282817.1799999982,282828.565,283078.252,,26,bonds'
screen,html.Screen,2_1_1_1_27,2021-04-30T16:46:21.540Z,,,,,,,,,,,,,,,,,54,,,,,,,,,,,,,,401.472999997437,,response,,,,100,,,,,,,Space,keypress(Space),,,,,,,,-- --- ---- --- ------ ----- ------- ---- -- --- ------- --<br>------- ---------- ------ -- ----- -- ----- -- ---- ------<br>--- ----- --- --- ------ interest ----- --- ------ ----- --<br>----- ----- ---------- --- --- ------ ------ ---- -- ------<br>------- --- ------ ----- --- ---- ------- -- ---- --- --<br>------- ------,283480.56499999075,283479.7249999974,283061.63,283073.04499999736,283078.252,283494.539,,27,interest
screen,html.Screen,2_1_1_1_28,2021-04-30T16:46:21.923Z,,,,,,,,,,,,,,,,,54,,,,,,,,,,,,,,367.84099999140017,,response,,,,100,,,,,,,Space,keypress(Space),,,,,,,,-- --- ---- --- ------ ----- ------- ---- -- --- ------- --<br>------- ---------- ------ -- ----- -- ----- -- ---- ------<br>--- ----- --- --- ------ -------- rate. --- ------ ----- --<br>----- ----- ---------- --- --- ------ ------ ---- -- ------<br>------- --- ------ ----- --- ---- ------- -- ---- --- --<br>------- ------,283863.1849999947,283862.3799999914,283478.13,283480.75499999686,283494.539,283877.528,,28,rate.
screen,html.Screen,2_1_1_1_29,2021-04-30T16:46:22.456Z,,,,,,,,,,,,,,,,,54,,,,,,,,,,,,,,518.0119999977178,,response,,,,100,,,,,,,Space,keypress(Space),,,,,,,,-- --- ---- --- ------ ----- ------- ---- -- --- ------- --<br>------- ---------- ------ -- ----- -- ----- -- ---- ------<br>--- ----- --- --- ------ -------- ----- The ------ ----- --<br>----- ----- ---------- --- --- ------ ------ ---- -- ------<br>------- --- ------ ----- --- ---- ------- -- ---- --- --<br>------- ------,284396.33999999205,284395.5399999977,283860.931,283863.3750000008,283877.528,284410.455,,29,The
screen,html.Screen,2_1_1_1_30,2021-04-30T16:46:22.781Z,,,,,,,,,,,,,,,,,54,,,,,,,,,,,,,,309.63500000251224,,response,,,,100,,,,,,,Space,keypress(Space),,,,,,,,-- --- ---- --- ------ ----- ------- ---- -- --- ------- --<br>------- ---------- ------ -- ----- -- ----- -- ---- ------<br>--- ----- --- --- ------ -------- ----- --- market ----- --<br>----- ----- ---------- --- --- ------ ------ ---- -- ------<br>------- --- ------ ----- --- ---- ------- -- ---- --- --<br>------- ------,284720.88500000245,284720.0900000025,284393.653,284396.52500000375,284410.455,284727.06,,30,market
screen,html.Screen,2_1_1_1_31,2021-04-30T16:46:23.293Z,,,,,,,,,,,,,,,,,54,,,,,,,,,,,,,,505.200000004319,,response,,,,100,,,,,,,Space,keypress(Space),,,,,,,,-- --- ---- --- ------ ----- ------- ---- -- --- ------- --<br>------- ---------- ------ -- ----- -- ----- -- ---- ------<br>--- ----- --- --- ------ -------- ----- --- ------ value --<br>----- ----- ---------- --- --- ------ ------ ---- -- ------<br>------- --- ------ ----- --- ---- ------- -- ---- --- --<br>------- ------,285233.19499999343,285232.2600000043,284710.367,284721.1050000042,284727.06,285242.914,,31,value
screen,html.Screen,2_1_1_1_32,2021-04-30T16:46:24.012Z,,,,,,,,,,,,,,,,,54,,,,,,,,,,,,,,708.3509999960661,,response,,,,100,,,,,,,Space,keypress(Space),,,,,,,,-- --- ---- --- ------ ----- ------- ---- -- --- ------- --<br>------- ---------- ------ -- ----- -- ----- -- ---- ------<br>--- ----- --- --- ------ -------- ----- --- ------ ----- of<br>----- ----- ---------- --- --- ------ ------ ---- -- ------<br>------- --- ------ ----- --- ---- ------- -- ---- --- --<br>------- ------,285952.09999999497,285951.26499999606,285226.357,285233.44499999075,285242.914,285959.134,,32,of
screen,html.Screen,2_1_1_1_33,2021-04-30T16:46:24.445Z,,,,,,,,,,,,,,,,,54,,,,,,,,,,,,,,424.7409999995143,,response,,,,100,,,,,,,Space,keypress(Space),,,,,,,,-- --- ---- --- ------ ----- ------- ---- -- --- ------- --<br>------- ---------- ------ -- ----- -- ----- -- ---- ------<br>--- ----- --- --- ------ -------- ----- --- ------ ----- --<br>these ----- ---------- --- --- ------ ------ ---- -- ------<br>------- --- ------ ----- --- ---- ------- -- ---- --- --<br>------- ------,286384.69999999506,286383.87499999953,285942.494,285952.2799999977,285959.134,286392.03,,33,these
screen,html.Screen,2_1_1_1_34,2021-04-30T16:46:24.818Z,,,,,,,,,,,,,,,,,54,,,,,,,,,,,,,,365.4899999991758,,response,,,,100,,,,,,,Space,keypress(Space),,,,,,,,-- --- ---- --- ------ ----- ------- ---- -- --- ------- --<br>------- ---------- ------ -- ----- -- ----- -- ---- ------<br>--- ----- --- --- ------ -------- ----- --- ------ ----- --<br>----- bonds ---------- --- --- ------ ------ ---- -- ------<br>------- --- ------ ----- --- ---- ------- -- ---- --- --<br>------- ------,286758.45500000287,286757.5199999992,286375.179,286384.8949999956,286392.03,286775.205,,34,bonds
screen,html.Screen,2_1_1_1_35,2021-04-30T16:46:25.190Z,,,,,,,,,,,,,,,,,54,,,,,,,,,,,,,,354.55999999056803,,response,,,,100,,,,,,,Space,keypress(Space),,,,,,,,"-- --- ---- --- ------ ----- ------- ---- -- --- ------- --<br>------- ---------- ------ -- ----- -- ----- -- ---- ------<br>--- ----- --- --- ------ -------- ----- --- ------ ----- --<br>----- ----- plummeted, --- --- ------ ------ ---- -- ------<br>------- --- ------ ----- --- ---- ------- -- ---- --- --<br>------- ------",287130.5199999915,287129.7649999906,286758.399,286758.65999999223,286775.205,287141.299,,35,"plummeted,"
screen,html.Screen,2_1_1_1_36,2021-04-30T16:46:25.689Z,,,,,,,,,,,,,,,,,54,,,,,,,,,,,,,,486.78099999495316,,response,,,,100,,,,,,,Space,keypress(Space),,,,,,,,-- --- ---- --- ------ ----- ------- ---- -- --- ------- --<br>------- ---------- ------ -- ----- -- ----- -- ---- ------<br>--- ----- --- --- ------ -------- ----- --- ------ ----- --<br>----- ----- ---------- and --- ------ ------ ---- -- ------<br>------- --- ------ ----- --- ---- ------- -- ---- --- --<br>------- ------,287628.93999999505,287628.07999999495,287124.565,287130.71499999205,287141.299,287640.798,,36,and
screen,html.Screen,2_1_1_1_37,2021-04-30T16:46:25.974Z,,,,,,,,,,,,,,,,,54,,,,,,,,,,,,,,273.0369999993709,,response,,,,100,,,,,,,Space,keypress(Space),,,,,,,,-- --- ---- --- ------ ----- ------- ---- -- --- ------- --<br>------- ---------- ------ -- ----- -- ----- -- ---- ------<br>--- ----- --- --- ------ -------- ----- --- ------ ----- --<br>----- ----- ---------- --- the ------ ------ ---- -- ------<br>------- --- ------ ----- --- ---- ------- -- ---- --- --<br>------- ------,287914.6749999927,287913.8349999994,287624.08,287629.1349999956,287640.798,287924.001,,37,the
screen,html.Screen,2_1_1_1_38,2021-04-30T16:46:26.197Z,,,,,,,,,,,,,,,,,54,,,,,,,,,,,,,,212.13399999338435,,response,,,,100,,,,,,,Space,keypress(Space),,,,,,,,-- --- ---- --- ------ ----- ------- ---- -- --- ------- --<br>------- ---------- ------ -- ----- -- ----- -- ---- ------<br>--- ----- --- --- ------ -------- ----- --- ------ ----- --<br>----- ----- ---------- --- --- market ------ ---- -- ------<br>------- --- ------ ----- --- ---- ------- -- ---- --- --<br>------- ------,288136.9399999967,288136.1349999934,287907.054,287914.86999999324,287924.001,288140.157,,38,market
screen,html.Screen,2_1_1_1_39,2021-04-30T16:46:26.600Z,,,,,,,,,,,,,,,,,54,,,,,,,,,,,,,,398.9230000022799,,response,,,,100,,,,,,,Space,keypress(Space),,,,,,,,-- --- ---- --- ------ ----- ------- ---- -- --- ------- --<br>------- ---------- ------ -- ----- -- ----- -- ---- ------<br>--- ----- --- --- ------ -------- ----- --- ------ ----- --<br>----- ----- ---------- --- --- ------ became ---- -- ------<br>------- --- ------ ----- --- ---- ------- -- ---- --- --<br>------- ------,288539.9199999956,288539.0800000023,288123.85,288137.1349999972,288140.157,288556.52,,39,became
screen,html.Screen,2_1_1_1_40,2021-04-30T16:46:26.867Z,,,,,,,,,,,,,,,,,54,,,,,,,,,,,,,,249.3950000044424,,response,,,,100,,,,,,,Space,keypress(Space),,,,,,,,-- --- ---- --- ------ ----- ------- ---- -- --- ------- --<br>------- ---------- ------ -- ----- -- ----- -- ---- ------<br>--- ----- --- --- ------ -------- ----- --- ------ ----- --<br>----- ----- ---------- --- --- ------ ------ wary -- ------<br>------- --- ------ ----- --- ---- ------- -- ---- --- --<br>------- ------,288806.74,288805.91500000446,288539.904,288540.1799999963,288556.52,288823.169,,40,wary
screen,html.Screen,2_1_1_1_41,2021-04-30T16:46:27.198Z,,,,,,,,,,,,,,,,,54,,,,,,,,,,,,,,314.67099999578204,,response,,,,100,,,,,,,Space,keypress(Space),,,,,,,,-- --- ---- --- ------ ----- ------- ---- -- --- ------- --<br>------- ---------- ------ -- ----- -- ----- -- ---- ------<br>--- ----- --- --- ------ -------- ----- --- ------ ----- --<br>----- ----- ---------- --- --- ------ ------ ---- of ------<br>------- --- ------ ----- --- ---- ------- -- ---- --- --<br>------- ------,289138.6550000025,289137.8399999958,288806.598,288806.9350000005,288823.169,289155.967,,41,of
screen,html.Screen,2_1_1_1_42,2021-04-30T16:46:27.601Z,,,,,,,,,,,,,,,,,54,,,,,,,,,,,,,,384.3579999944777,,response,,,,100,,,,,,,Space,keypress(Space),,,,,,,,-- --- ---- --- ------ ----- ------- ---- -- --- ------- --<br>------- ---------- ------ -- ----- -- ----- -- ---- ------<br>--- ----- --- --- ------ -------- ----- --- ------ ----- --<br>----- ----- ---------- --- --- ------ ------ ---- -- French<br>------- --- ------ ----- --- ---- ------- -- ---- --- --<br>------- ------,289541.32999999274,289540.3249999945,289139.316,289138.8699999952,289155.967,289555.941,,42,French
screen,html.Screen,2_1_1_1_43,2021-04-30T16:46:27.940Z,,,,,,,,,,,,,,,,,54,,,,,,,,,,,,,,323.0040000040317,,response,,,,100,,,,,,,Space,keypress(Space),,,,,,,,-- --- ---- --- ------ ----- ------- ---- -- --- ------- --<br>------- ---------- ------ -- ----- -- ----- -- ---- ------<br>--- ----- --- --- ------ -------- ----- --- ------ ----- --<br>----- ----- ---------- --- --- ------ ------ ---- -- ------<br>credit. --- ------ ----- --- ---- ------- -- ---- --- --<br>------- ------,289879.76999999955,289878.945000004,289539.072,289541.60499999125,289555.941,289888.979,,43,credit.
screen,html.Screen,2_1_1_1_44,2021-04-30T16:46:28.513Z,,,,,,,,,,,,,,,,,54,,,,,,,,,,,,,,563.5160000050091,,response,,,,100,,,,,,,Space,keypress(Space),,,,,,,,-- --- ---- --- ------ ----- ------- ---- -- --- ------- --<br>------- ---------- ------ -- ----- -- ----- -- ---- ------<br>--- ----- --- --- ------ -------- ----- --- ------ ----- --<br>----- ----- ---------- --- --- ------ ------ ---- -- ------<br>------- The ------ ----- --- ---- ------- -- ---- --- --<br>------- ------,290453.31499999156,290452.495000005,289872.194,289879.9599999911,289888.979,290475.971,,44,The
screen,html.Screen,2_1_1_1_45,2021-04-30T16:46:29.006Z,,,,,,,,,,,,,,,,,54,,,,,,,,,,,,,,469.6889999975683,,response,,,,100,,,,,,,Space,keypress(Space),,,,,,,,-- --- ---- --- ------ ----- ------- ---- -- --- ------- --<br>------- ---------- ------ -- ----- -- ----- -- ---- ------<br>--- ----- --- --- ------ -------- ----- --- ------ ----- --<br>----- ----- ---------- --- --- ------ ------ ---- -- ------<br>------- --- French ----- --- ---- ------- -- ---- --- --<br>------- ------,290946.4750000043,290945.6599999976,290438.064,290453.5099999921,290475.971,290954.504,,45,French
screen,html.Screen,2_1_1_1_46,2021-04-30T16:46:29.281Z,,,,,,,,,,,,,,,,,54,,,,,,,,,,,,,,265.9760000035749,,response,,,,100,,,,,,,Space,keypress(Space),,,,,,,,-- --- ---- --- ------ ----- ------- ---- -- --- ------- --<br>------- ---------- ------ -- ----- -- ----- -- ---- ------<br>--- ----- --- --- ------ -------- ----- --- ------ ----- --<br>----- ----- ---------- --- --- ------ ------ ---- -- ------<br>------- --- ------ state --- ---- ------- -- ---- --- --<br>------- ------,291221.56999999424,291220.4800000036,290937.624,290946.6700000048,290954.504,291237.717,,46,state
screen,html.Screen,2_1_1_1_47,2021-04-30T16:46:29.568Z,,,,,,,,,,,,,,,,,54,,,,,,,,,,,,,,269.93799999397015,,response,,,,100,,,,,,,Space,keypress(Space),,,,,,,,-- --- ---- --- ------ ----- ------- ---- -- --- ------- --<br>------- ---------- ------ -- ----- -- ----- -- ---- ------<br>--- ----- --- --- ------ -------- ----- --- ------ ----- --<br>----- ----- ---------- --- --- ------ ------ ---- -- ------<br>------- --- ------ ----- was ---- ------- -- ---- --- --<br>------- ------,291508.4249999927,291507.654999994,291220.655,291221.86999999394,291237.717,291520.464,,47,was
screen,html.Screen,2_1_1_1_48,2021-04-30T16:46:29.831Z,,,,,,,,,,,,,,,,,54,,,,,,,,,,,,,,249.98100000194972,,response,,,,100,,,,,,,Space,keypress(Space),,,,,,,,-- --- ---- --- ------ ----- ------- ---- -- --- ------- --<br>------- ---------- ------ -- ----- -- ----- -- ---- ------<br>--- ----- --- --- ------ -------- ----- --- ------ ----- --<br>----- ----- ---------- --- --- ------ ------ ---- -- ------<br>------- --- ------ ----- --- left ------- -- ---- --- --<br>------- ------,291771.2349999929,291770.4450000019,291503.755,291508.6149999988,291520.464,291787.204,,48,left
screen,html.Screen,2_1_1_1_49,2021-04-30T16:46:30.071Z,,,,,,,,,,,,,,,,,54,,,,,,,,,,,,,,223.5909999946598,,response,,,,100,,,,,,,Space,keypress(Space),,,,,,,,-- --- ---- --- ------ ----- ------- ---- -- --- ------- --<br>------- ---------- ------ -- ----- -- ----- -- ---- ------<br>--- ----- --- --- ------ -------- ----- --- ------ ----- --<br>----- ----- ---------- --- --- ------ ------ ---- -- ------<br>------- --- ------ ----- --- ---- without -- ---- --- --<br>------- ------,292011.5349999978,292010.7949999947,291770.403,291771.424999999,291787.204,292019.99,,49,without
screen,html.Screen,2_1_1_1_50,2021-04-30T16:46:30.340Z,,,,,,,,,,,,,,,,,54,,,,,,,,,,,,,,258.87999999464955,,response,,,,100,,,,,,,Space,keypress(Space),,,,,,,,-- --- ---- --- ------ ----- ------- ---- -- --- ------- --<br>------- ---------- ------ -- ----- -- ----- -- ---- ------<br>--- ----- --- --- ------ -------- ----- --- ------ ----- --<br>----- ----- ---------- --- --- ------ ------ ---- -- ------<br>------- --- ------ ----- --- ---- ------- an ---- --- --<br>------- ------,292279.71499999694,292278.86999999464,292003.373,292011.7949999985,292019.99,292286.576,,50,an
screen,html.Screen,2_1_1_1_51,2021-04-30T16:46:30.590Z,,,,,,,,,,,,,,,,,54,,,,,,,,,,,,,,242.89399999403395,,response,,,,100,,,,,,,Space,keypress(Space),,,,,,,,-- --- ---- --- ------ ----- ------- ---- -- --- ------- --<br>------- ---------- ------ -- ----- -- ----- -- ---- ------<br>--- ----- --- --- ------ -------- ----- --- ------ ----- --<br>----- ----- ---------- --- --- ------ ------ ---- -- ------<br>------- --- ------ ----- --- ---- ------- -- easy --- --<br>------- ------,292530.2549999906,292529.46999999403,292270.004,292279.8999999941,292286.576,292536.301,,51,easy
screen,html.Screen,2_1_1_1_52,2021-04-30T16:46:30.842Z,,,,,,,,,,,,,,,,,54,,,,,,,,,,,,,,244.84400000085589,,response,,,,100,,,,,,,Space,keypress(Space),,,,,,,,-- --- ---- --- ------ ----- ------- ---- -- --- ------- --<br>------- ---------- ------ -- ----- -- ----- -- ---- ------<br>--- ----- --- --- ------ -------- ----- --- ------ ----- --<br>----- ----- ---------- --- --- ------ ------ ---- -- ------<br>------- --- ------ ----- --- ---- ------- -- ---- way --<br>------- ------,292781.94000000076,292781.14500000083,292519.858,292530.4550000001,292536.301,292785.871,,52,way
screen,html.Screen,2_1_1_1_53,2021-04-30T16:46:31.103Z,,,,,,,,,,,,,,,,,54,,,,,,,,,,,,,,256.5440000035451,,response,,,,100,,,,,,,Space,keypress(Space),,,,,,,,-- --- ---- --- ------ ----- ------- ---- -- --- ------- --<br>------- ---------- ------ -- ----- -- ----- -- ---- ------<br>--- ----- --- --- ------ -------- ----- --- ------ ----- --<br>----- ----- ---------- --- --- ------ ------ ---- -- ------<br>------- --- ------ ----- --- ---- ------- -- ---- --- of<br>------- ------,293043.2599999913,293042.41500000353,292769.609,292782.1249999979,292785.871,293052.688,,53,of
screen,html.Screen,2_1_1_1_54,2021-04-30T16:46:31.396Z,,,,,,,,,,,,,,,,,54,,,,,,,,,,,,,,282.19700000382727,,response,,,,100,,,,,,,Space,keypress(Space),,,,,,,,-- --- ---- --- ------ ----- ------- ---- -- --- ------- --<br>------- ---------- ------ -- ----- -- ----- -- ---- ------<br>--- ----- --- --- ------ -------- ----- --- ------ ----- --<br>----- ----- ---------- --- --- ------ ------ ---- -- ------<br>------- --- ------ ----- --- ---- ------- -- ---- --- --<br>raising ------,293335.78500000294,293334.88500000385,293035.91,293043.4549999918,293052.688,293352.025,,54,raising
screen,html.Screen,2_1_1_1_55,2021-04-30T16:46:32.605Z,,,,,,,,,,,,,,,,,54,,,,,,,,,,,,,,1191.8149999984307,,response,,,,100,,,,,,,Space,keypress(Space),,,,,,,,-- --- ---- --- ------ ----- ------- ---- -- --- ------- --<br>------- ---------- ------ -- ----- -- ----- -- ---- ------<br>--- ----- --- --- ------ -------- ----- --- ------ ----- --<br>----- ----- ---------- --- --- ------ ------ ---- -- ------<br>------- --- ------ ----- --- ---- ------- -- ---- --- --<br>------- money.,294544.74499999196,294543.83999999845,293335.434,293336.2300000008,293352.025,294550.932,,55,money.
Item 100,flow.Loop,2_1_1_1,2021-04-30T16:46:32.605Z,,,,,,,,,,,,,,,,,,,,,,,,,,,,,,,21672.72899999848,,completion,,,,,E,,,,,,,,,,,silence,,,,,294545.1699999976,294543.83999999845,272854.699,272855.87499999383,272871.111,294550.932,,,
Question 1,html.Screen,2_1_1_2,2021-04-30T16:46:35.226Z,,,,,,,,,,,,,,,,,,,,,,,,,,,,true,TRUE,,2613.4379999986268,,response,,,,100,E,,,,,,TRUE,click #choice-1,,,,silence,,,,,297166.2399999914,297164.3699999986,294534.306,294545.33999999694,294550.932,297182.199,,,
Question 2,html.Screen,2_1_1_3,2021-04-30T16:46:39.635Z,,,,,,,,,,,,,,,,,,,,,,,,,,,,true,FALSE,,4391.395999994362,,response,,,,100,E,,,,,,FALSE,click #choice-2,,,,silence,,,,,301574.9099999957,301573.5949999944,297148.95,297166.49000000325,297182.199,301577.747,,,
Item 100,flow.Sequence,2_1_1,2021-04-30T16:46:39.635Z,,,,,,,,,,,,,,,,,,,,,,,,,,,,,,,38709.76299999439,,completion,,,,,,,,,,,,,,,,,,,,,301575.239999991,301573.5949999944,262847.111,262850.84499999357,262863.832,301577.747,,,
End of Practice,html.Page,2_1_2,2021-04-30T16:46:57.217Z,,,,,,,,,,,,,,,,,,,,,,,,,,,,,,,17578.582999998005,,form submission,,,,,,,,,,,,,,,,,,,,,319156.96999999636,319156.329999998,301561.299,301575.37999999477,301577.747,319161.701,,,
Practice,flow.Sequence,2_1,2021-04-30T16:46:57.217Z,,,,,,,,,,,,,,,,,,,,,,,,,,,,,,,96738.42299999797,,completion,,,,,,,,,,,,,,,,,,,,,319157.25499999826,319156.329999998,222351.702,222414.3949999998,222417.907,319161.701,,,
Trap_instruction,html.Page,2_2_0,2021-04-30T16:47:02.481Z,,,,,,,,,,,,,,,,,,,,,,,,,,,,,,,5258.453999999794,,form submission,,,,,,,,,,,,,,,,,,,,,324420.69499999343,324420.1549999998,319144.741,319157.435000001,319161.701,324489.696,,,
trap_trial,html.Screen,2_2_1,2021-04-30T16:47:05.731Z,,,,,,,,,,,,,,,,,,,,,,,,,,,,true,1,,3179.8290000048,,response,,,,,,,,,,,1,click #choice-1,,,,,,,,,327671.45999999775,327669.5250000048,324406.88,324420.87499999616,324489.696,327686.869,,,
end of trap trial,html.Page,2_2_2,2021-04-30T16:47:08.351Z,,,,,,,,,,,,,,,,,,,,,,,,,,,,,,,2603.4309999932884,,form submission,,,,,,,,,,,,,,,,,,,,,330290.8250000037,330290.2999999933,327670.178,327671.69000000285,327686.869,330301.106,,,
Trap 1,flow.Sequence,2_2,2021-04-30T16:47:08.351Z,,,,,,,,,,,,,,,,,,,,,,,,,,,,,,,11128.598999993294,,completion,,,,,,,,,,,,,,,,,,,,,330291.18000000017,330290.2999999933,319144.741,319157.3800000042,319161.701,330301.106,,,
Standby,html.Page,2_3_0,2021-04-30T16:47:16.338Z,,,,,,,,,,,,,,,,,,,,,,,,,,,,,,,7992.7119999999995,,timeout,,,,,,,,,,,,,,,,,,,,,338278.22500000184,338277.188,330284.648,330291.4400000009,330301.106,338293.818,,,
Holding screen,html.Screen,2_3_1_0_0,2021-04-30T16:47:23.332Z,,,,,,,,,,,,,,,,,,,,,,,,,,,,,,,6993.548999999999,,timeout,,,,,,,,,,,,,,,,,,,,,345271.7699999921,345270.654,338277.188,338278.51999999257,338293.818,345287.367,,,
screen,html.Screen,2_3_1_0_1_0,2021-04-30T16:47:24.934Z,,,,,,,,,,,,,,,,,15,,,,,,,,,,,,,,1585.8830000041635,,response,,,,7,E,,,,,,Space,keypress(Space),,,,lyrical,,,,Greg --------- ---------- - --- ------- -- --- ------------<br>----- -- -------- ------- ---- ------ - -------- ---- -----<br>--- ------- ---- -- --- -------- --- - ----- ------ ---- --<br>-------- --- -------- -------- --- -------- ---- -- ----- -<br>-------- ---- --- ---------- --------- -- ------- ------ -<br>--------- ----- -----,346874.4399999996,346873.2500000042,345270.654,345272.094999993,345287.367,346885.878,,0,Greg
screen,html.Screen,2_3_1_0_1_1,2021-04-30T16:47:25.263Z,,,,,,,,,,,,,,,,,15,,,,,,,,,,,,,,316.8670000022976,,response,,,,7,E,,,,,,Space,keypress(Space),,,,lyrical,,,,"---- Anderson, ---------- - --- ------- -- --- ------------<br>----- -- -------- ------- ---- ------ - -------- ---- -----<br>--- ------- ---- -- --- -------- --- - ----- ------ ---- --<br>-------- --- -------- -------- --- -------- ---- -- ----- -<br>-------- ---- --- ---------- --------- -- ------- ------ -<br>--------- ----- -----",347203.6850000004,347202.7450000023,346869.006,346874.65499999234,346885.878,347218.636,,1,"Anderson,"
screen,html.Screen,2_3_1_0_1_2,2021-04-30T16:47:25.725Z,,,,,,,,,,,,,,,,,15,,,,,,,,,,,,,,446.3389999924111,,response,,,,7,E,,,,,,Space,keypress(Space),,,,lyrical,,,,---- --------- considered - --- ------- -- --- ------------<br>----- -- -------- ------- ---- ------ - -------- ---- -----<br>--- ------- ---- -- --- -------- --- - ----- ------ ---- --<br>-------- --- -------- -------- --- -------- ---- -- ----- -<br>-------- ---- --- ---------- --------- -- ------- ------ -<br>--------- ----- -----,347665.5000000028,347664.9749999924,347202.096,347203.89499999874,347218.636,347668.183,,2,considered
screen,html.Screen,2_3_1_0_1_3,2021-04-30T16:47:26.058Z,,,,,,,,,,,,,,,,,15,,,,,,,,,,,,,,329.39699999563163,,response,,,,7,E,,,,,,Space,keypress(Space),,,,lyrical,,,,---- --------- ---------- a --- ------- -- --- ------------<br>----- -- -------- ------- ---- ------ - -------- ---- -----<br>--- ------- ---- -- --- -------- --- - ----- ------ ---- --<br>-------- --- -------- -------- --- -------- ---- -- ----- -<br>-------- ---- --- ---------- --------- -- ------- ------ -<br>--------- ----- -----,347998.51999999373,347997.57999999565,347651.596,347665.5949999986,347668.183,348001.275,,3,a
screen,html.Screen,2_3_1_0_1_4,2021-04-30T16:47:26.290Z,,,,,,,,,,,,,,,,,15,,,,,,,,,,,,,,227.99000000173692,,response,,,,7,E,,,,,,Space,keypress(Space),,,,lyrical,,,,---- --------- ---------- - key ------- -- --- ------------<br>----- -- -------- ------- ---- ------ - -------- ---- -----<br>--- ------- ---- -- --- -------- --- - ----- ------ ---- --<br>-------- --- -------- -------- --- -------- ---- -- ----- -<br>-------- ---- --- ---------- --------- -- ------- ------ -<br>--------- ----- -----,348230.15499999747,348229.26500000176,347984.726,347998.72499999765,348001.275,348234.33,,4,key
screen,html.Screen,2_3_1_0_1_5,2021-04-30T16:47:26.522Z,,,,,,,,,,,,,,,,,15,,,,,,,,,,,,,,226.65499999787426,,response,,,,7,E,,,,,,Space,keypress(Space),,,,lyrical,,,,---- --------- ---------- - --- witness -- --- ------------<br>----- -- -------- ------- ---- ------ - -------- ---- -----<br>--- ------- ---- -- --- -------- --- - ----- ------ ---- --<br>-------- --- -------- -------- --- -------- ---- -- ----- -<br>-------- ---- --- ---------- --------- -- ------- ------ -<br>--------- ----- -----,348461.8599999958,348460.9849999979,348217.863,348230.3450000036,348234.33,348467.491,,5,witness
screen,html.Screen,2_3_1_0_1_6,2021-04-30T16:47:26.894Z,,,,,,,,,,,,,,,,,15,,,,,,,,,,,,,,365.4089999939897,,response,,,,7,E,,,,,,Space,keypress(Space),,,,lyrical,,,,---- --------- ---------- - --- ------- by --- ------------<br>----- -- -------- ------- ---- ------ - -------- ---- -----<br>--- ------- ---- -- --- -------- --- - ----- ------ ---- --<br>-------- --- -------- -------- --- -------- ---- -- ----- -<br>-------- ---- --- ---------- --------- -- ------- ------ -<br>--------- ----- -----,348833.81999999983,348832.89999999397,348450.913,348462.1299999999,348467.491,348850.525,,6,by
screen,html.Screen,2_3_1_0_1_7,2021-04-30T16:47:27.175Z,,,,,,,,,,,,,,,,,15,,,,,,,,,,,,,,264.15000000433065,,response,,,,7,E,,,,,,Space,keypress(Space),,,,lyrical,,,,---- --------- ---------- - --- ------- -- the ------------<br>----- -- -------- ------- ---- ------ - -------- ---- -----<br>--- ------- ---- -- --- -------- --- - ----- ------ ---- --<br>-------- --- -------- -------- --- -------- ---- -- ----- -<br>-------- ---- --- ---------- --------- -- ------- ------ -<br>--------- ----- -----,349115.5849999923,349114.67500000435,348833.871,348834.0749999916,348850.525,349134.794,,7,the
screen,html.Screen,2_3_1_0_1_8,2021-04-30T16:47:27.346Z,,,,,,,,,,,,,,,,,15,,,,,,,,,,,,,,151.04599999682978,,response,,,,7,E,,,,,,Space,keypress(Space),,,,lyrical,,,,"---- --------- ---------- - --- ------- -- --- prosecution,<br>----- -- -------- ------- ---- ------ - -------- ---- -----<br>--- ------- ---- -- --- -------- --- - ----- ------ ---- --<br>-------- --- -------- -------- --- -------- ---- -- ----- -<br>-------- ---- --- ---------- --------- -- ------- ------ -<br>--------- ----- -----",349286.6950000025,349285.8399999968,349100.337,349115.7799999928,349134.794,349300.307,,8,"prosecution,"
screen,html.Screen,2_3_1_0_1_9,2021-04-30T16:47:27.870Z,,,,,,,,,,,,,,,,,15,,,,,,,,,,,,,,509.45799999817973,,response,,,,7,E,,,,,,Space,keypress(Space),,,,lyrical,,,,---- --------- ---------- - --- ------- -- --- ------------<br>vowed -- -------- ------- ---- ------ - -------- ---- -----<br>--- ------- ---- -- --- -------- --- - ----- ------ ---- --<br>-------- --- -------- -------- --- -------- ---- -- ----- -<br>-------- ---- --- ---------- --------- -- ------- ------ -<br>--------- ----- -----,349810.59999999707,349809.76499999815,349283.501,349286.8849999941,349300.307,349816.174,,9,vowed
screen,html.Screen,2_3_1_0_1_10,2021-04-30T16:47:28.259Z,,,,,,,,,,,,,,,,,15,,,,,,,,,,,,,,382.4810000001453,,response,,,,7,E,,,,,,Space,keypress(Space),,,,lyrical,,,,---- --------- ---------- - --- ------- -- --- ------------<br>----- he -------- ------- ---- ------ - -------- ---- -----<br>--- ------- ---- -- --- -------- --- - ----- ------ ---- --<br>-------- --- -------- -------- --- -------- ---- -- ----- -<br>-------- ---- --- ---------- --------- -- ------- ------ -<br>--------- ----- -----,350199.55999999365,350198.65500000014,349799.879,349810.7949999976,349816.174,350216.017,,10,he
screen,html.Screen,2_3_1_0_1_11,2021-04-30T16:47:28.561Z,,,,,,,,,,,,,,,,,15,,,,,,,,,,,,,,284.70299999637064,,response,,,,7,E,,,,,,Space,keypress(Space),,,,lyrical,,,,---- --------- ---------- - --- ------- -- --- ------------<br>----- -- wouldn't ------- ---- ------ - -------- ---- -----<br>--- ------- ---- -- --- -------- --- - ----- ------ ---- --<br>-------- --- -------- -------- --- -------- ---- -- ----- -<br>-------- ---- --- ---------- --------- -- ------- ------ -<br>--------- ----- -----,350501.6800000012,350500.71999999636,350199.239,350199.74999999977,350216.017,350515.912,,11,wouldn't
screen,html.Screen,2_3_1_0_1_12,2021-04-30T16:47:28.962Z,,,,,,,,,,,,,,,,,15,,,,,,,,,,,,,,385.40299999550916,,response,,,,7,E,,,,,,Space,keypress(Space),,,,lyrical,,,,---- --------- ---------- - --- ------- -- --- ------------<br>----- -- -------- testify ---- ------ - -------- ---- -----<br>--- ------- ---- -- --- -------- --- - ----- ------ ---- --<br>-------- --- -------- -------- --- -------- ---- -- ----- -<br>-------- ---- --- ---------- --------- -- ------- ------ -<br>--------- ----- -----,350902.0099999907,350901.3149999955,350499.031,350501.87999999616,350515.912,350915.223,,12,testify
screen,html.Screen,2_3_1_0_1_13,2021-04-30T16:47:29.334Z,,,,,,,,,,,,,,,,,15,,,,,,,,,,,,,,358.30199999688193,,response,,,,7,E,,,,,,Space,keypress(Space),,,,lyrical,,,,---- --------- ---------- - --- ------- -- --- ------------<br>----- -- -------- ------- when ------ - -------- ---- -----<br>--- ------- ---- -- --- -------- --- - ----- ------ ---- --<br>-------- --- -------- -------- --- -------- ---- -- ----- -<br>-------- ---- --- ---------- --------- -- ------- ------ -<br>--------- ----- -----,351274.4149999926,351273.5249999969,350898.547,350902.2149999946,350915.223,351281.905,,13,when
screen,html.Screen,2_3_1_0_1_14,2021-04-30T16:47:29.666Z,,,,,,,,,,,,,,,,,15,,,,,,,,,,,,,,323.82000000122935,,response,,,,7,E,,,,,,Space,keypress(Space),,,,lyrical,,,,---- --------- ---------- - --- ------- -- --- ------------<br>----- -- -------- ------- ---- served - -------- ---- -----<br>--- ------- ---- -- --- -------- --- - ----- ------ ---- --<br>-------- --- -------- -------- --- -------- ---- -- ----- -<br>-------- ---- --- ---------- --------- -- ------- ------ -<br>--------- ----- -----,351606.6199999914,351605.72500000126,351264.939,351274.6249999909,351281.905,351614.741,,14,served
screen,html.Screen,2_3_1_0_1_15,2021-04-30T16:47:29.973Z,,,,,,,,,,,,,,,,,15,,,,,,,,,,,,,,297.803999999247,,response,,,,7,E,,,,,,Space,keypress(Space),,,,lyrical,,,,---- --------- ---------- - --- ------- -- --- ------------<br>----- -- -------- ------- ---- ------ a -------- ---- -----<br>--- ------- ---- -- --- -------- --- - ----- ------ ---- --<br>-------- --- -------- -------- --- -------- ---- -- ----- -<br>-------- ---- --- ---------- --------- -- ------- ------ -<br>--------- ----- -----,351913.33999999915,351912.5449999992,351597.957,351606.8099999975,351614.741,351932.011,,15,a
screen,html.Screen,2_3_1_0_1_16,2021-04-30T16:47:30.194Z,,,,,,,,,,,,,,,,,15,,,,,,,,,,,,,,201.57400000322377,,response,,,,7,E,,,,,,Space,keypress(Space),,,,lyrical,,,,---- --------- ---------- - --- ------- -- --- ------------<br>----- -- -------- ------- ---- ------ - subpoena ---- -----<br>--- ------- ---- -- --- -------- --- - ----- ------ ---- --<br>-------- --- -------- -------- --- -------- ---- -- ----- -<br>-------- ---- --- ---------- --------- -- ------- ------ -<br>--------- ----- -----,352134.41499999317,352133.5850000032,351897.635,351913.5349999997,351932.011,352147.634,,16,subpoena
screen,html.Screen,2_3_1_0_1_17,2021-04-30T16:47:30.909Z,,,,,,,,,,,,,,,,,15,,,,,,,,,,,,,,700.3409999969299,,response,,,,7,E,,,,,,Space,keypress(Space),,,,lyrical,,,,---- --------- ---------- - --- ------- -- --- ------------<br>----- -- -------- ------- ---- ------ - -------- last -----<br>--- ------- ---- -- --- -------- --- - ----- ------ ---- --<br>-------- --- -------- -------- --- -------- ---- -- ----- -<br>-------- ---- --- ---------- --------- -- ------- ------ -<br>--------- ----- -----,352848.78000000026,352847.97499999695,352131.015,352134.6599999961,352147.634,352863.451,,17,last
screen,html.Screen,2_3_1_0_1_18,2021-04-30T16:47:31.226Z,,,,,,,,,,,,,,,,,15,,,,,,,,,,,,,,301.65900000173133,,response,,,,7,E,,,,,,Space,keypress(Space),,,,lyrical,,,,---- --------- ---------- - --- ------- -- --- ------------<br>----- -- -------- ------- ---- ------ - -------- ---- week.<br>--- ------- ---- -- --- -------- --- - ----- ------ ---- --<br>-------- --- -------- -------- --- -------- ---- -- ----- -<br>-------- ---- --- ---------- --------- -- ------- ------ -<br>--------- ----- -----,353165.8999999927,353165.11000000173,352846.823,352848.9699999918,352863.451,353180.159,,18,week.
screen,html.Screen,2_3_1_0_1_19,2021-04-30T16:47:31.671Z,,,,,,,,,,,,,,,,,15,,,,,,,,,,,,,,429.9560000031488,,response,,,,7,E,,,,,,Space,keypress(Space),,,,lyrical,,,,---- --------- ---------- - --- ------- -- --- ------------<br>----- -- -------- ------- ---- ------ - -------- ---- -----<br>His ------- ---- -- --- -------- --- - ----- ------ ---- --<br>-------- --- -------- -------- --- -------- ---- -- ----- -<br>-------- ---- --- ---------- --------- -- ------- ------ -<br>--------- ----- -----,353610.9299999953,353610.11500000313,353163.201,353166.0850000044,353180.159,353639.361,,19,His
screen,html.Screen,2_3_1_0_1_20,2021-04-30T16:47:32.258Z,,,,,,,,,,,,,,,,,15,,,,,,,,,,,,,,557.9890000022133,,response,,,,7,E,,,,,,Space,keypress(Space),,,,lyrical,,,,---- --------- ---------- - --- ------- -- --- ------------<br>----- -- -------- ------- ---- ------ - -------- ---- -----<br>--- lawyers ---- -- --- -------- --- - ----- ------ ---- --<br>-------- --- -------- -------- --- -------- ---- -- ----- -<br>-------- ---- --- ---------- --------- -- ------- ------ -<br>--------- ----- -----,354198.11499999196,354197.3500000022,353596.043,353611.1349999992,353639.361,354212.163,,20,lawyers
screen,html.Screen,2_3_1_0_1_21,2021-04-30T16:47:32.695Z,,,,,,,,,,,,,,,,,15,,,,,,,,,,,,,,421.93200000125216,,response,,,,7,E,,,,,,Space,keypress(Space),,,,lyrical,,,,---- --------- ---------- - --- ------- -- --- ------------<br>----- -- -------- ------- ---- ------ - -------- ---- -----<br>--- ------- said -- --- -------- --- - ----- ------ ---- --<br>-------- --- -------- -------- --- -------- ---- -- ----- -<br>-------- ---- --- ---------- --------- -- ------- ------ -<br>--------- ----- -----,354634.9099999934,354634.09500000125,354195.671,354198.3099999925,354212.163,354645.411,,21,said
screen,html.Screen,2_3_1_0_1_22,2021-04-30T16:47:33.008Z,,,,,,,,,,,,,,,,,15,,,,,,,,,,,,,,301.68399999587564,,response,,,,7,E,,,,,,Space,keypress(Space),,,,lyrical,,,,---- --------- ---------- - --- ------- -- --- ------------<br>----- -- -------- ------- ---- ------ - -------- ---- -----<br>--- ------- ---- he --- -------- --- - ----- ------ ---- --<br>-------- --- -------- -------- --- -------- ---- -- ----- -<br>-------- ---- --- ---------- --------- -- ------- ------ -<br>--------- ----- -----,354947.8999999992,354947.0949999959,354628.707,354635.1399999985,354645.411,354961.47,,22,he
screen,html.Screen,2_3_1_0_1_23,2021-04-30T16:47:33.400Z,,,,,,,,,,,,,,,,,15,,,,,,,,,,,,,,378.3849999983795,,response,,,,7,E,,,,,,Space,keypress(Space),,,,lyrical,,,,---- --------- ---------- - --- ------- -- --- ------------<br>----- -- -------- ------- ---- ------ - -------- ---- -----<br>--- ------- ---- -- was -------- --- - ----- ------ ---- --<br>-------- --- -------- -------- --- -------- ---- -- ----- -<br>-------- ---- --- ---------- --------- -- ------- ------ -<br>--------- ----- -----,355340.71000000404,355339.85499999835,354944.825,354948.08499999635,354961.47,355344.448,,23,was
screen,html.Screen,2_3_1_0_1_24,2021-04-30T16:47:33.753Z,,,,,,,,,,,,,,,,,15,,,,,,,,,,,,,,348.36700000218116,,response,,,,7,E,,,,,,Space,keypress(Space),,,,lyrical,,,,---- --------- ---------- - --- ------- -- --- ------------<br>----- -- -------- ------- ---- ------ - -------- ---- -----<br>--- ------- ---- -- --- prepared --- - ----- ------ ---- --<br>-------- --- -------- -------- --- -------- ---- -- ----- -<br>-------- ---- --- ---------- --------- -- ------- ------ -<br>--------- ----- -----,355693.74000000244,355692.81500000216,355328.076,355340.8999999956,355344.448,355711.022,,24,prepared
screen,html.Screen,2_3_1_0_1_25,2021-04-30T16:47:34.141Z,,,,,,,,,,,,,,,,,15,,,,,,,,,,,,,,369.4429999918211,,response,,,,7,E,,,,,,Space,keypress(Space),,,,lyrical,,,,---- --------- ---------- - --- ------- -- --- ------------<br>----- -- -------- ------- ---- ------ - -------- ---- -----<br>--- ------- ---- -- --- -------- for - ----- ------ ---- --<br>-------- --- -------- -------- --- -------- ---- -- ----- -<br>-------- ---- --- ---------- --------- -- ------- ------ -<br>--------- ----- -----,356081.3400000043,356080.4649999918,355694.165,355693.9449999918,355711.022,356093.804,,25,for
screen,html.Screen,2_3_1_0_1_26,2021-04-30T16:47:34.411Z,,,,,,,,,,,,,,,,,15,,,,,,,,,,,,,,256.71599999268074,,response,,,,7,E,,,,,,Space,keypress(Space),,,,lyrical,,,,---- --------- ---------- - --- ------- -- --- ------------<br>----- -- -------- ------- ---- ------ - -------- ---- -----<br>--- ------- ---- -- --- -------- --- a ----- ------ ---- --<br>-------- --- -------- -------- --- -------- ---- -- ----- -<br>-------- ---- --- ---------- --------- -- ------- ------ -<br>--------- ----- -----,356351.3050000038,356350.5199999927,356077.192,356081.52999999584,356093.804,356360.215,,26,a
screen,html.Screen,2_3_1_0_1_27,2021-04-30T16:47:34.692Z,,,,,,,,,,,,,,,,,15,,,,,,,,,,,,,,271.134999995993,,response,,,,7,E,,,,,,Space,keypress(Space),,,,lyrical,,,,---- --------- ---------- - --- ------- -- --- ------------<br>----- -- -------- ------- ---- ------ - -------- ---- -----<br>--- ------- ---- -- --- -------- --- - third ------ ---- --<br>-------- --- -------- -------- --- -------- ---- -- ----- -<br>-------- ---- --- ---------- --------- -- ------- ------ -<br>--------- ----- -----,356632.2899999941,356631.349999996,356343.589,356351.4900000009,356360.215,356643.451,,27,third
screen,html.Screen,2_3_1_0_1_28,2021-04-30T16:47:35.216Z,,,,,,,,,,,,,,,,,15,,,,,,,,,,,,,,512.0089999944903,,response,,,,7,E,,,,,,Space,keypress(Space),,,,lyrical,,,,---- --------- ---------- - --- ------- -- --- ------------<br>----- -- -------- ------- ---- ------ - -------- ---- -----<br>--- ------- ---- -- --- -------- --- - ----- prison ---- --<br>-------- --- -------- -------- --- -------- ---- -- ----- -<br>-------- ---- --- ---------- --------- -- ------- ------ -<br>--------- ----- -----,357156.3000000024,357155.4599999945,356626.85,356632.5150000048,356643.451,357159.389,,28,prison
screen,html.Screen,2_3_1_0_1_29,2021-04-30T16:47:36.056Z,,,,,,,,,,,,,,,,,15,,,,,,,,,,,,,,835.9409999906202,,response,,,,7,E,,,,,,Space,keypress(Space),,,,lyrical,,,,---- --------- ---------- - --- ------- -- --- ------------<br>----- -- -------- ------- ---- ------ - -------- ---- -----<br>--- ------- ---- -- --- -------- --- - ----- ------ stay --<br>-------- --- -------- -------- --- -------- ---- -- ----- -<br>-------- ---- --- ---------- --------- -- ------- ------ -<br>--------- ----- -----,357996.2899999955,357995.32999999064,357142.755,357157.29000000283,357159.389,358008.877,,29,stay
screen,html.Screen,2_3_1_0_1_30,2021-04-30T16:47:36.459Z,,,,,,,,,,,,,,,,,15,,,,,,,,,,,,,,390.00800000235904,,response,,,,7,E,,,,,,Space,keypress(Space),,,,lyrical,,,,---- --------- ---------- - --- ------- -- --- ------------<br>----- -- -------- ------- ---- ------ - -------- ---- -----<br>--- ------- ---- -- --- -------- --- - ----- ------ ---- to<br>-------- --- -------- -------- --- -------- ---- -- ----- -<br>-------- ---- --- ---------- --------- -- ------- ------ -<br>--------- ----- -----,358399.74500000244,358398.88500000234,357991.969,357996.47499999264,358008.877,358408.272,,30,to
screen,html.Screen,2_3_1_0_1_31,2021-04-30T16:47:37.233Z,,,,,,,,,,,,,,,,,15,,,,,,,,,,,,,,764.033000000054,,response,,,,7,E,,,,,,Space,keypress(Space),,,,lyrical,,,,---- --------- ---------- - --- ------- -- --- ------------<br>----- -- -------- ------- ---- ------ - -------- ---- -----<br>--- ------- ---- -- --- -------- --- - ----- ------ ---- --<br>maintain --- -------- -------- --- -------- ---- -- ----- -<br>-------- ---- --- ---------- --------- -- ------- ------ -<br>--------- ----- -----,359173.13500000455,359172.30500000005,358391.578,358399.9299999996,358408.272,359204.905,,31,maintain
screen,html.Screen,2_3_1_0_1_32,2021-04-30T16:47:37.652Z,,,,,,,,,,,,,,,,,15,,,,,,,,,,,,,,386.405000003404,,response,,,,7,E,,,,,,Space,keypress(Space),,,,lyrical,,,,---- --------- ---------- - --- ------- -- --- ------------<br>----- -- -------- ------- ---- ------ - -------- ---- -----<br>--- ------- ---- -- --- -------- --- - ----- ------ ---- --<br>-------- his -------- -------- --- -------- ---- -- ----- -<br>-------- ---- --- ---------- --------- -- ------- ------ -<br>--------- ----- -----,359592.3849999963,359591.31000000343,359157.583,359173.3349999995,359204.905,359607.391,,32,his
screen,html.Screen,2_3_1_0_1_33,2021-04-30T16:47:37.883Z,,,,,,,,,,,,,,,,,15,,,,,,,,,,,,,,214.9139999942272,,response,,,,7,E,,,,,,Space,keypress(Space),,,,lyrical,,,,---- --------- ---------- - --- ------- -- --- ------------<br>----- -- -------- ------- ---- ------ - -------- ---- -----<br>--- ------- ---- -- --- -------- --- - ----- ------ ---- --<br>-------- --- silence. -------- --- -------- ---- -- ----- -<br>-------- ---- --- ---------- --------- -- ------- ------ -<br>--------- ----- -----,359823.2549999957,359822.30499999423,359590.495,359592.604999998,359607.391,359840.317,,33,silence.
screen,html.Screen,2_3_1_0_1_34,2021-04-30T16:47:38.381Z,,,,,,,,,,,,,,,,,15,,,,,,,,,,,,,,479.91799999197247,,response,,,,7,E,,,,,,Space,keypress(Space),,,,lyrical,,,,---- --------- ---------- - --- ------- -- --- ------------<br>----- -- -------- ------- ---- ------ - -------- ---- -----<br>--- ------- ---- -- --- -------- --- - ----- ------ ---- --<br>-------- --- -------- Anderson --- -------- ---- -- ----- -<br>-------- ---- --- ---------- --------- -- ------- ------ -<br>--------- ----- -----,360321.1849999934,360320.23499999195,359823.851,359823.4599999996,359840.317,360323.12,,34,Anderson
screen,html.Screen,2_3_1_0_1_35,2021-04-30T16:47:38.652Z,,,,,,,,,,,,,,,,,15,,,,,,,,,,,,,,268.19999999227,,response,,,,7,E,,,,,,Space,keypress(Space),,,,lyrical,,,,---- --------- ---------- - --- ------- -- --- ------------<br>----- -- -------- ------- ---- ------ - -------- ---- -----<br>--- ------- ---- -- --- -------- --- - ----- ------ ---- --<br>-------- --- -------- -------- was -------- ---- -- ----- -<br>-------- ---- --- ---------- --------- -- ------- ------ -<br>--------- ----- -----,360592.2100000025,360591.31999999227,360306.761,360321.39499999175,360323.12,360606.466,,35,was
screen,html.Screen,2_3_1_0_1_36,2021-04-30T16:47:38.863Z,,,,,,,,,,,,,,,,,15,,,,,,,,,,,,,,196.34399999375455,,response,,,,7,E,,,,,,Space,keypress(Space),,,,lyrical,,,,---- --------- ---------- - --- ------- -- --- ------------<br>----- -- -------- ------- ---- ------ - -------- ---- -----<br>--- ------- ---- -- --- -------- --- - ----- ------ ---- --<br>-------- --- -------- -------- --- released ---- -- ----- -<br>-------- ---- --- ---------- --------- -- ------- ------ -<br>--------- ----- -----,360803.6849999917,360802.80999999377,360589.589,360592.50499999325,360606.466,360806.012,,36,released
screen,html.Screen,2_3_1_0_1_37,2021-04-30T16:47:39.346Z,,,,,,,,,,,,,,,,,15,,,,,,,,,,,,,,479.7129999942845,,response,,,,7,E,,,,,,Space,keypress(Space),,,,lyrical,,,,---- --------- ---------- - --- ------- -- --- ------------<br>----- -- -------- ------- ---- ------ - -------- ---- -----<br>--- ------- ---- -- --- -------- --- - ----- ------ ---- --<br>-------- --- -------- -------- --- -------- July -- ----- -<br>-------- ---- --- ---------- --------- -- ------- ------ -<br>--------- ----- -----,361286.55000000435,361285.7249999943,360789.681,360803.91000000236,360806.012,361288.906,,37,July
screen,html.Screen,2_3_1_0_1_38,2021-04-30T16:47:39.690Z,,,,,,,,,,,,,,,,,15,,,,,,,,,,,,,,340.29399999574525,,response,,,,7,E,,,,,,Space,keypress(Space),,,,lyrical,,,,---- --------- ---------- - --- ------- -- --- ------------<br>----- -- -------- ------- ---- ------ - -------- ---- -----<br>--- ------- ---- -- --- -------- --- - ----- ------ ---- --<br>-------- --- -------- -------- --- -------- ---- 20 ----- -<br>-------- ---- --- ---------- --------- -- ------- ------ -<br>--------- ----- -----,361630.11499999266,361629.19999999576,361272.553,361286.7350000015,361288.906,361638.582,,38,20
