sender,sender_type,sender_id,timestamp,meta,,Blues,Classical,Country,Dance,Electronic,Folk,Gospel,Hip-Hop,Jazz,Latin,Musical/Film,New-age,Pop,Prolific_id,Provo_ID,R&B,Rap,Reggae,Religious,Rock,Soul,Swing,Traditional,age,artist_name,correct,correctResponse,distraction,duration,education,ended_on,familiarity,gender,headphone_check_performance,item,list,music_frequency,offensiveness,pleasantness,position_correct,preference,response,response_action,snippet_file,song_name,song_rating,sound,stimulus_1,stimulus_2,stimulus_3,text,time_commit,time_end,time_render,time_run,time_show,time_switch,url,word,word_ID
Prolific ID,html.Form,0,2021-04-26T20:00:06.862Z,"{""labjs_version"":""20.2.2"",""labjs_build"":{""flavor"":""production"",""commit"":""a25486e0c714a0ae2ce03ff94b7bb6896854dcfa""},""location"":""https://run.pavlovia.org/mvasilev/prolific_music_e/"",""userAgent"":""Mozilla/5.0 (Windows NT 10.0; Win64; x64) AppleWebKit/537.36 (KHTML, like Gecko) Chrome/90.0.4430.72 Safari/537.36 Edg/90.0.818.42"",""platform"":""Win32"",""language"":""en-GB"",""locale"":""en-GB"",""timeZone"":""Europe/London"",""timezoneOffset"":-60,""screen_width"":1366,""screen_height"":768,""scroll_width"":1366,""scroll_height"":609,""window_innerWidth"":1366,""window_innerHeight"":657,""devicePixelRatio"":1}",,,,,,,,,,,,,,,5d53be7ddaac02001566b548,,,,,,,,,,,,,,,3752.141000002459,,form submission,,,,,,,,,,,,,,,,,,,,,15443.094999995083,15442.515000002459,11658.005,11670.61500006821,11690.374,15540.618,{},,
Introduction,html.Screen,1_0,2021-04-26T20:00:11.481Z,,,,,,,,,,,,,,,,,,,,,,,,,,,,,,,4518.722000036172,,response,,,,,,,,,,,continue,click button,,,,,,,,,20062.06500006374,20059.340000036173,15440.716,15443.48000001628,15540.618,20074.959,,,
Volume calibration,html.Screen,1_1,2021-04-26T20:00:31.845Z,,,,,,,,,,,,,,,,,,,,,,,,,,,,,,,20348.576000067205,,response,,,,,,,,,,,continue,click button,,,,,,,,,40426.02000001352,40423.535000067204,20057.761,20062.35500006005,20074.959,40425.703,,,
Task instructions,html.Screen,1_2,2021-04-26T20:00:39.741Z,,,,,,,,,,,,,,,,,,,,,,,,,,,,,,,7895.637000024064,,response,,,,,,,,,,,continue,click button,,,,,,,,,48322.090000030585,48321.340000024065,40409.049,40426.225000061095,40425.703,48326.253,,,
Sounds,html.Screen,1_3_0_0,2021-04-26T20:00:43.981Z,,,,,,,,,,,,,,,,,,,,,,,,,,,,,,,4250.332000000002,,timeout,,,,,,,,,1,,,,,,,,S,O,I,,52561.83000002056,52559.906,48309.68,48322.32999999542,48326.253,52576.585,,,
Judgement,html.Screen,1_3_0_1,2021-04-26T20:00:45.775Z,,,,,,,,,,,,,,,,,,,,,,,,,,,,true,1,,1779.04000008382,,response,,,,,,,,,1,,1,click #choice-1,,,,,S,O,I,,54356.38500005007,54355.62500008382,52559.906,52561.96500000078,52576.585,54360.296,,,
Trial,flow.Sequence,1_3_0,2021-04-26T20:00:45.775Z,,,,,,,,,,,,,,,,,,,,,,,,,,,,,,,6029.372000083822,,completion,,,,,,,,,1,,,,,,,,S,O,I,,54356.63000005297,54355.62500008382,48309.68,48322.29500007816,48326.253,54360.296,,,
Sounds,html.Screen,1_3_1_0,2021-04-26T20:00:50.014Z,,,,,,,,,,,,,,,,,,,,,,,,,,,,,,,4250.144999999997,,timeout,,,,,,,,,1,,,,,,,,S,I,O,,58595.145000028424,58593.721,54343.454,54356.74499999732,54360.296,58610.441,,,
Judgement,html.Screen,1_3_1_1,2021-04-26T20:00:51.790Z,,,,,,,,,,,,,,,,,,,,,,,,,,,,true,1,,1759.7640000429165,,response,,,,,,,,,1,,1,click #choice-1,,,,,S,I,O,,60370.945000089705,60370.205000042915,58593.721,58595.52500001155,58610.441,60377.598,,,
Trial,flow.Sequence,1_3_1,2021-04-26T20:00:51.790Z,,,,,,,,,,,,,,,,,,,,,,,,,,,,,,,6009.909000042913,,completion,,,,,,,,,1,,,,,,,,S,I,O,,60371.1150001036,60370.205000042915,54343.454,54356.71000008006,54360.296,60377.598,,,
Sounds,html.Screen,1_3_2_0,2021-04-26T20:00:56.031Z,,,,,,,,,,,,,,,,,,,,,,,,,,,,,,,4249.825000000004,,timeout,,,,,,,,,2,,,,,,,,O,S,I,,64611.54000007082,64610.828,60360.51,60371.22500000987,60377.598,64627.423,,,
Judgement,html.Screen,1_3_2_1,2021-04-26T20:00:56.508Z,,,,,,,,,,,,,,,,,,,,,,,,,,,,true,2,,460.7320000049149,,response,,,,,,,,,2,,2,click #choice-2,,,,,O,S,I,,65088.764999993145,65088.15500000492,64610.828,64611.71000008471,64627.423,65110.788,,,
Trial,flow.Sequence,1_3_2,2021-04-26T20:00:56.508Z,,,,,,,,,,,,,,,,,,,,,,,,,,,,,,,4710.557000004919,,completion,,,,,,,,,2,,,,,,,,O,S,I,,65088.92000000924,65088.15500000492,60360.51,60371.19000009261,60377.598,65110.788,,,
Sounds,html.Screen,1_3_3_0,2021-04-26T20:01:00.764Z,,,,,,,,,,,,,,,,,,,,,,,,,,,,,,,4250.298999999999,,timeout,,,,,,,,,3,,,,,,,,O,I,S,,69345.26000008918,69344.51,65094.126,65089.020000072196,65110.788,69361.087,,,
Judgement,html.Screen,1_3_3_1,2021-04-26T20:01:01.529Z,,,,,,,,,,,,,,,,,,,,,,,,,,,,true,3,,748.2330000468646,,response,,,,,,,,,3,,3,click #choice-3,,,,,O,I,S,,70110.10500008706,70109.32000004686,69344.51,69345.43000010308,69361.087,70111.106,,,
Trial,flow.Sequence,1_3_3,2021-04-26T20:01:01.530Z,,,,,,,,,,,,,,,,,,,,,,,,,,,,,,,4998.532000046864,,completion,,,,,,,,,3,,,,,,,,O,I,S,,70110.35500001162,70109.32000004686,65094.126,65088.99000007659,65110.788,70111.106,,,
Sounds,html.Screen,1_3_4_0,2021-04-26T20:01:05.765Z,,,,,,,,,,,,,,,,,,,,,,,,,,,,,,,4250.449999999997,,timeout,,,,,,,,,2,,,,,,,,I,S,O,,74345.62000003643,74344.741,70094.506,70110.53500010166,70111.106,74361.556,,,
Judgement,html.Screen,1_3_4_1,2021-04-26T20:01:06.896Z,,,,,,,,,,,,,,,,,,,,,,,,,,,,false,2,,1114.2840000864671,,response,,,,,,,,,2,,1,click #choice-1,,,,,I,S,O,,75476.54500009958,75475.84000008646,74344.741,74345.7950000884,74361.556,75478.157,,,
Trial,flow.Sequence,1_3_4,2021-04-26T20:01:06.896Z,,,,,,,,,,,,,,,,,,,,,,,,,,,,,,,5364.734000086464,,completion,,,,,,,,,2,,,,,,,,I,S,O,,75476.6950000776,75475.84000008646,70094.506,70110.48500007018,70111.106,75478.157,,,
Sounds,html.Screen,1_3_5_0,2021-04-26T20:01:11.132Z,,,,,,,,,,,,,,,,,,,,,,,,,,,,,,,4250.388999999996,,timeout,,,,,,,,,3,,,,,,,,I,O,S,,79713.25999998953,79711.907,75461.566,75476.79000010248,75478.157,79728.546,,,
Judgement,html.Screen,1_3_5_1,2021-04-26T20:01:12.150Z,,,,,,,,,,,,,,,,,,,,,,,,,,,,true,3,,1001.8290000428387,,response,,,,,,,,,3,,3,click #choice-3,,,,,I,O,S,,80731.11500008963,80730.37500004284,79711.907,79713.48500007298,79728.546,80745.21,,,
Trial,flow.Sequence,1_3_5,2021-04-26T20:01:12.150Z,,,,,,,,,,,,,,,,,,,,,,,,,,,,,,,5252.218000042834,,completion,,,,,,,,,3,,,,,,,,I,O,S,,80731.26000002958,80730.37500004284,75461.566,75476.75999999046,75478.157,80745.21,,,
Task,flow.Loop,1_3,2021-04-26T20:01:12.154Z,,,,,,,,,,,,,,,,,,,,,,,,,,,,,,,32404.122000042844,,completion,,,0.8333333333333334,,,,,,,,,,,,,,,,,,80734.56500004977,80730.37500004284,48309.68,48322.23500008695,48326.253,80745.21,,,
Trap,html.Screen,1_4,2021-04-26T20:01:12.155Z,,,,,,,,,,,,,,,,,,,,,,,,,,,,,,,NaN,,skipped,,,,,,,,,,,,,,,,,,,,,80735.5450000614,80730.37500004284,,80735.45500007458,,80745.21,,,
Thanks,html.Screen,1_5,2021-04-26T20:01:15.430Z,,,,,,,,,,,,,,,,,,,,,,,,,,,,,,,3265.235000021712,,response,,,,,,,,,,,continue,click button,,,,,,,,,84011.10000000335,84010.44500002172,80728.668,80735.63000001013,80745.21,86962.691,,,
Headphone screening,flow.Sequence,1,2021-04-26T20:01:15.430Z,,,,,,,,,,,,,,,,,,,,,,,,,,,,,,,68469.82700002172,,completion,,,,,,,,,,,,,,,,,,,,,84011.24500005972,84010.44500002172,15440.716,15443.430000101216,15540.618,86962.691,,,
Instructions,html.Page,2_0,2021-04-26T20:01:34.527Z,,,,,,,,,,,,,,,,,,,,,,,,,,,,,,,16144.784000084372,,form submission,,,,,,,,,,,,,,,,,,,,,103107.92000009678,103107.47500008438,86945.634,86939.56500000786,86962.691,103113.41,,,
Holding screen,html.Screen,2_1_0_0,2021-04-26T20:01:44.518Z,,,,,,,,,,,,,,,,,,,,,,,,,,,,,,,10100.747999999992,,timeout,,,,,,,,,,,,,,,,,,,,,113098.94000005443,113097.542,103096.733,103108.1950000953,103113.41,113214.158,,,
screen,html.Screen,2_1_0_1_0,2021-04-26T20:01:45.386Z,,,,,,,,,,,,,,,,,53,,,,,,,,,,,,,,745.2570000484702,,response,,,,99,,,,,,,Space,keypress(Space),,,,,,,,When -- ----- -- ------ - ------- --- ----------<br>------------- ------ ------ ---- ---- ------- ----- -- ----<br>-------- ------- -- ---------- --- - --- ----- ----- ----<br>---- --- --- ----- --- ---- ---- ------- ----- ---- -------<br>--- --- -- ----- -- --- ---- -- --- ---- -- ------ ------<br>--- ----- -- ----,113966.34500008076,113959.41500004847,113097.542,113099.45000009611,113214.158,113964.253,,0,When
screen,html.Screen,2_1_0_1_1,2021-04-26T20:01:45.916Z,,,,,,,,,,,,,,,,,53,,,,,,,,,,,,,,530.7120000780851,,response,,,,99,,,,,,,Space,keypress(Space),,,,,,,,---- it ----- -- ------ - ------- --- ----------<br>------------- ------ ------ ---- ---- ------- ----- -- ----<br>-------- ------- -- ---------- --- - --- ----- ----- ----<br>---- --- --- ----- --- ---- ---- ------- ----- ---- -------<br>--- --- -- ----- -- --- ---- -- --- ---- -- ------ ------<br>--- ----- -- ----,114496.47500005085,114494.96500007808,113947.641,113966.74000006169,113964.253,114514.284,,1,it
screen,html.Screen,2_1_0_1_2,2021-04-26T20:01:46.429Z,,,,,,,,,,,,,,,,,53,,,,,,,,,,,,,,493.9010000424314,,response,,,,99,,,,,,,Space,keypress(Space),,,,,,,,---- -- comes -- ------ - ------- --- ----------<br>------------- ------ ------ ---- ---- ------- ----- -- ----<br>-------- ------- -- ---------- --- - --- ----- ----- ----<br>---- --- --- ----- --- ---- ---- ------- ----- ---- -------<br>--- --- -- ----- -- --- ---- -- --- ---- -- ------ ------<br>--- ----- -- ----,115009.43000009283,115008.18500004243,114481.079,114496.92500010133,114514.284,115014.307,,2,comes
screen,html.Screen,2_1_0_1_3,2021-04-26T20:01:46.807Z,,,,,,,,,,,,,,,,,53,,,,,,,,,,,,,,372.1480000289448,,response,,,,99,,,,,,,Space,keypress(Space),,,,,,,,---- -- ----- to ------ - ------- --- ----------<br>------------- ------ ------ ---- ---- ------- ----- -- ----<br>-------- ------- -- ---------- --- - --- ----- ----- ----<br>---- --- --- ----- --- ---- ---- ------- ----- ---- -------<br>--- --- -- ----- -- --- ---- -- --- ---- -- ------ ------<br>--- ----- -- ----,115387.34000001568,115386.45500002895,114997.77,115009.75500000641,115014.307,115397.6,,3,to
screen,html.Screen,2_1_0_1_4,2021-04-26T20:01:47.220Z,,,,,,,,,,,,,,,,,53,,,,,,,,,,,,,,402.5500000245811,,response,,,,99,,,,,,,Space,keypress(Space),,,,,,,,---- -- ----- -- having - ------- --- ----------<br>------------- ------ ------ ---- ---- ------- ----- -- ----<br>-------- ------- -- ---------- --- - --- ----- ----- ----<br>---- --- --- ----- --- ---- ---- ------- ----- ---- -------<br>--- --- -- ----- -- --- ---- -- --- ---- -- ------ ------<br>--- ----- -- ----,115801.16500006989,115800.15000002459,115381.082,115387.50000006985,115397.6,115814.457,,4,having
screen,html.Screen,2_1_0_1_5,2021-04-26T20:01:47.638Z,,,,,,,,,,,,,,,,,53,,,,,,,,,,,,,,403.04800006601727,,response,,,,99,,,,,,,Space,keypress(Space),,,,,,,,---- -- ----- -- ------ a ------- --- ----------<br>------------- ------ ------ ---- ---- ------- ----- -- ----<br>-------- ------- -- ---------- --- - --- ----- ----- ----<br>---- --- --- ----- --- ---- ---- ------- ----- ---- -------<br>--- --- -- ----- -- --- ---- -- --- ---- -- ------ ------<br>--- ----- -- ----,116218.80999999121,116217.50500006601,115797.687,115801.49500002153,115814.457,116231.089,,5,a
screen,html.Screen,2_1_0_1_6,2021-04-26T20:01:48.041Z,,,,,,,,,,,,,,,,,53,,,,,,,,,,,,,,389.0560000516998,,response,,,,99,,,,,,,Space,keypress(Space),,,,,,,,---- -- ----- -- ------ - lasting --- ----------<br>------------- ------ ------ ---- ---- ------- ----- -- ----<br>-------- ------- -- ---------- --- - --- ----- ----- ----<br>---- --- --- ----- --- ---- ---- ------- ----- ---- -------<br>--- --- -- ----- -- --- ---- -- --- ---- -- ------ ------<br>--- ----- -- ----,116621.55999999959,116620.1450000517,116214.5,116219.13000009954,116231.089,116631.22,,6,lasting
screen,html.Screen,2_1_0_1_7,2021-04-26T20:01:48.404Z,,,,,,,,,,,,,,,,,53,,,,,,,,,,,,,,352.19000010259333,,response,,,,99,,,,,,,Space,keypress(Space),,,,,,,,---- -- ----- -- ------ - ------- and ----------<br>------------- ------ ------ ---- ---- ------- ----- -- ----<br>-------- ------- -- ---------- --- - --- ----- ----- ----<br>---- --- --- ----- --- ---- ---- ------- ----- ---- -------<br>--- --- -- ----- -- --- ---- -- --- ---- -- ------ ------<br>--- ----- -- ----,116984.67500007246,116983.4100001026,116614.556,116621.91000010353,116631.22,116997.875,,7,and
screen,html.Screen,2_1_0_1_8,2021-04-26T20:01:48.844Z,,,,,,,,,,,,,,,,,53,,,,,,,,,,,,,,425.53500004671514,,response,,,,99,,,,,,,Space,keypress(Space),,,,,,,,---- -- ----- -- ------ - ------- --- fulfilling<br>------------- ------ ------ ---- ---- ------- ----- -- ----<br>-------- ------- -- ---------- --- - --- ----- ----- ----<br>---- --- --- ----- --- ---- ---- ------- ----- ---- -------<br>--- --- -- ----- -- --- ---- -- --- ---- -- ------ ------<br>--- ----- -- ----,117424.87500002608,117423.41000004672,116981.241,116984.98500010464,116997.875,117431.136,,8,fulfilling
screen,html.Screen,2_1_0_1_9,2021-04-26T20:01:49.278Z,,,,,,,,,,,,,,,,,53,,,,,,,,,,,,,,426.9090000008582,,response,,,,99,,,,,,,Space,keypress(Space),,,,,,,,"---- -- ----- -- ------ - ------- --- ----------<br>relationship, ------ ------ ---- ---- ------- ----- -- ----<br>-------- ------- -- ---------- --- - --- ----- ----- ----<br>---- --- --- ----- --- ---- ---- ------- ----- ---- -------<br>--- --- -- ----- -- --- ---- -- --- ---- -- ------ ------<br>--- ----- -- ----",117859.21000002418,117858.04500000086,117414.573,117425.27500004508,117431.136,117864.514,,9,"relationship,"
screen,html.Screen,2_1_0_1_10,2021-04-26T20:01:49.694Z,,,,,,,,,,,,,,,,,53,,,,,,,,,,,,,,410.2260000225797,,response,,,,99,,,,,,,Space,keypress(Space),,,,,,,,---- -- ----- -- ------ - ------- --- ----------<br>------------- common ------ ---- ---- ------- ----- -- ----<br>-------- ------- -- ---------- --- - --- ----- ----- ----<br>---- --- --- ----- --- ---- ---- ------- ----- ---- -------<br>--- --- -- ----- -- --- ---- -- --- ---- -- ------ ------<br>--- ----- -- ----,118275.27000010014,118274.74000002258,117847.948,117859.55000005197,117864.514,118281.152,,10,common
screen,html.Screen,2_1_0_1_11,2021-04-26T20:01:50.219Z,,,,,,,,,,,,,,,,,53,,,,,,,,,,,,,,517.0829999947455,,response,,,,99,,,,,,,Space,keypress(Space),,,,,,,,---- -- ----- -- ------ - ------- --- ----------<br>------------- ------ wisdom ---- ---- ------- ----- -- ----<br>-------- ------- -- ---------- --- - --- ----- ----- ----<br>---- --- --- ----- --- ---- ---- ------- ----- ---- -------<br>--- --- -- ----- -- --- ---- -- --- ---- -- ------ ------<br>--- ----- -- ----,118799.65500009712,118798.23499999475,118264.682,118275.37500008475,118281.152,118814.659,,11,wisdom
screen,html.Screen,2_1_0_1_12,2021-04-26T20:01:50.525Z,,,,,,,,,,,,,,,,,53,,,,,,,,,,,,,,289.5460000978637,,response,,,,99,,,,,,,Space,keypress(Space),,,,,,,,---- -- ----- -- ------ - ------- --- ----------<br>------------- ------ ------ says ---- ------- ----- -- ----<br>-------- ------- -- ---------- --- - --- ----- ----- ----<br>---- --- --- ----- --- ---- ---- ------- ----- ---- -------<br>--- --- -- ----- -- --- ---- -- --- ---- -- ------ ------<br>--- ----- -- ----,119105.42500007432,119104.20500009786,118797.966,118799.99000008684,118814.659,119114.693,,12,says
screen,html.Screen,2_1_0_1_13,2021-04-26T20:01:50.896Z,,,,,,,,,,,,,,,,,53,,,,,,,,,,,,,,361.08700009525637,,response,,,,99,,,,,,,Space,keypress(Space),,,,,,,,---- -- ----- -- ------ - ------- --- ----------<br>------------- ------ ------ ---- that ------- ----- -- ----<br>-------- ------- -- ---------- --- - --- ----- ----- ----<br>---- --- --- ----- --- ---- ---- ------- ----- ---- -------<br>--- --- -- ----- -- --- ---- -- --- ---- -- ------ ------<br>--- ----- -- ----,119476.9400000805,119475.78000009526,119098.017,119105.74000002816,119114.693,119481.279,,13,that
screen,html.Screen,2_1_0_1_14,2021-04-26T20:01:51.315Z,,,,,,,,,,,,,,,,,53,,,,,,,,,,,,,,413.3960001050582,,response,,,,99,,,,,,,Space,keypress(Space),,,,,,,,---- -- ----- -- ------ - ------- --- ----------<br>------------- ------ ------ ---- ---- feeling ----- -- ----<br>-------- ------- -- ---------- --- - --- ----- ----- ----<br>---- --- --- ----- --- ---- ---- ------- ----- ---- -------<br>--- --- -- ----- -- --- ---- -- --- ---- -- ------ ------<br>--- ----- -- ----,119895.80000005662,119894.67500010505,119464.667,119477.27500007022,119481.279,119897.976,,14,feeling
screen,html.Screen,2_1_0_1_15,2021-04-26T20:01:51.830Z,,,,,,,,,,,,,,,,,53,,,,,,,,,,,,,,511.8140000633721,,response,,,,99,,,,,,,Space,keypress(Space),,,,,,,,---- -- ----- -- ------ - ------- --- ----------<br>------------- ------ ------ ---- ---- ------- close -- ----<br>-------- ------- -- ---------- --- - --- ----- ----- ----<br>---- --- --- ----- --- ---- ---- ------- ----- ---- -------<br>--- --- -- ----- -- --- ---- -- --- ---- -- ------ ------<br>--- ----- -- ----,120410.94000008889,120409.79000006337,119881.363,119896.14000008442,119897.976,120414.7,,15,close
screen,html.Screen,2_1_0_1_16,2021-04-26T20:01:52.218Z,,,,,,,,,,,,,,,,,53,,,,,,,,,,,,,,382.52000006586604,,response,,,,99,,,,,,,Space,keypress(Space),,,,,,,,---- -- ----- -- ------ - ------- --- ----------<br>------------- ------ ------ ---- ---- ------- ----- to ----<br>-------- ------- -- ---------- --- - --- ----- ----- ----<br>---- --- --- ----- --- ---- ---- ------- ----- ---- -------<br>--- --- -- ----- -- --- ---- -- --- ---- -- ------ ------<br>--- ----- -- ----,120798.44500008039,120797.22000006586,120398.146,120411.27000004053,120414.7,120814.856,,16,to
screen,html.Screen,2_1_0_1_17,2021-04-26T20:01:52.654Z,,,,,,,,,,,,,,,,,53,,,,,,,,,,,,,,419.2540000776353,,response,,,,99,,,,,,,Space,keypress(Space),,,,,,,,---- -- ----- -- ------ - ------- --- ----------<br>------------- ------ ------ ---- ---- ------- ----- -- your<br>-------- ------- -- ---------- --- - --- ----- ----- ----<br>---- --- --- ----- --- ---- ---- ------- ----- ---- -------<br>--- --- -- ----- -- --- ---- -- --- ---- -- ------ ------<br>--- ----- -- ----,121235.27000006288,121234.11000007764,120798.148,120798.78000007011,120814.856,121248.13,,17,your
screen,html.Screen,2_1_0_1_18,2021-04-26T20:01:53.092Z,,,,,,,,,,,,,,,,,53,,,,,,,,,,,,,,423.51000007323455,,response,,,,99,,,,,,,Space,keypress(Space),,,,,,,,---- -- ----- -- ------ - ------- --- ----------<br>------------- ------ ------ ---- ---- ------- ----- -- ----<br>romantic ------- -- ---------- --- - --- ----- ----- ----<br>---- --- --- ----- --- ---- ---- ------- ----- ---- -------<br>--- --- -- ----- -- --- ---- -- --- ---- -- ------ ------<br>--- ----- -- ----,121673.10000001453,121671.64000007324,121231.468,121235.6350000482,121248.13,121681.469,,18,romantic
screen,html.Screen,2_1_0_1_19,2021-04-26T20:01:53.493Z,,,,,,,,,,,,,,,,,53,,,,,,,,,,,,,,391.4560001022619,,response,,,,99,,,,,,,Space,keypress(Space),,,,,,,,---- -- ----- -- ------ - ------- --- ----------<br>------------- ------ ------ ---- ---- ------- ----- -- ----<br>-------- partner -- ---------- --- - --- ----- ----- ----<br>---- --- --- ----- --- ---- ---- ------- ----- ---- -------<br>--- --- -- ----- -- --- ---- -- --- ---- -- ------ ------<br>--- ----- -- ----,122074.30000009481,122072.92500010226,121664.872,121673.41000004672,121681.469,122081.457,,19,partner
screen,html.Screen,2_1_0_1_20,2021-04-26T20:01:53.844Z,,,,,,,,,,,,,,,,,53,,,,,,,,,,,,,,341.70800004381454,,response,,,,99,,,,,,,Space,keypress(Space),,,,,,,,---- -- ----- -- ------ - ------- --- ----------<br>------------- ------ ------ ---- ---- ------- ----- -- ----<br>-------- ------- is ---------- --- - --- ----- ----- ----<br>---- --- --- ----- --- ---- ---- ------- ----- ---- -------<br>--- --- -- ----- -- --- ---- -- --- ---- -- ------ ------<br>--- ----- -- ----,122424.63000002317,122423.16500004381,122064.829,122074.63000004645,122081.457,122431.468,,20,is
screen,html.Screen,2_1_0_1_21,2021-04-26T20:01:54.220Z,,,,,,,,,,,,,,,,,53,,,,,,,,,,,,,,369.01700001431163,,response,,,,99,,,,,,,Space,keypress(Space),,,,,,,,---- -- ----- -- ------ - ------- --- ----------<br>------------- ------ ------ ---- ---- ------- ----- -- ----<br>-------- ------- -- paramount. --- - --- ----- ----- ----<br>---- --- --- ----- --- ---- ---- ------- ----- ---- -------<br>--- --- -- ----- -- --- ---- -- --- ---- -- ------ ------<br>--- ----- -- ----,122801.26000009477,122800.4850000143,122414.988,122425.07500003558,122431.468,122814.853,,21,paramount.
screen,html.Screen,2_1_0_1_22,2021-04-26T20:01:54.701Z,,,,,,,,,,,,,,,,,53,,,,,,,,,,,,,,466.09200000588316,,response,,,,99,,,,,,,Space,keypress(Space),,,,,,,,---- -- ----- -- ------ - ------- --- ----------<br>------------- ------ ------ ---- ---- ------- ----- -- ----<br>-------- ------- -- ---------- But - --- ----- ----- ----<br>---- --- --- ----- --- ---- ---- ------- ----- ---- -------<br>--- --- -- ----- -- --- ---- -- --- ---- -- ------ ------<br>--- ----- -- ----,123282.0650000358,123280.94500000589,122798.264,122801.45000002813,122814.853,123298.33,,22,But
screen,html.Screen,2_1_0_1_23,2021-04-26T20:01:55.113Z,,,,,,,,,,,,,,,,,53,,,,,,,,,,,,,,394.1300000493211,,response,,,,99,,,,,,,Space,keypress(Space),,,,,,,,---- -- ----- -- ------ - ------- --- ----------<br>------------- ------ ------ ---- ---- ------- ----- -- ----<br>-------- ------- -- ---------- --- a --- ----- ----- ----<br>---- --- --- ----- --- ---- ---- ------- ----- ---- -------<br>--- --- -- ----- -- --- ---- -- --- ---- -- ------ ------<br>--- ----- -- ----,123693.54000000749,123692.46000004932,123281.657,123282.37000002991,123298.33,123698.26,,23,a
screen,html.Screen,2_1_0_1_24,2021-04-26T20:01:55.514Z,,,,,,,,,,,,,,,,,53,,,,,,,,,,,,,,395.0100000703387,,response,,,,99,,,,,,,Space,keypress(Space),,,,,,,,---- -- ----- -- ------ - ------- --- ----------<br>------------- ------ ------ ---- ---- ------- ----- -- ----<br>-------- ------- -- ---------- --- - new ----- ----- ----<br>---- --- --- ----- --- ---- ---- ------- ----- ---- -------<br>--- --- -- ----- -- --- ---- -- --- ---- -- ------ ------<br>--- ----- -- ----,124094.61999998894,124093.27000007033,123681.689,123693.86500003748,123698.26,124098.277,,24,new
screen,html.Screen,2_1_0_1_25,2021-04-26T20:01:55.929Z,,,,,,,,,,,,,,,,,53,,,,,,,,,,,,,,410.6130000555422,,response,,,,99,,,,,,,Space,keypress(Space),,,,,,,,---- -- ----- -- ------ - ------- --- ----------<br>------------- ------ ------ ---- ---- ------- ----- -- ----<br>-------- ------- -- ---------- --- - --- study ----- ----<br>---- --- --- ----- --- ---- ---- ------- ----- ---- -------<br>--- --- -- ----- -- --- ---- -- --- ---- -- ------ ------<br>--- ----- -- ----,124510.08500007447,124508.89000005554,124081.754,124095.10999999475,124098.277,124514.96,,25,study
screen,html.Screen,2_1_0_1_26,2021-04-26T20:01:56.303Z,,,,,,,,,,,,,,,,,53,,,,,,,,,,,,,,367.3650000132184,,response,,,,99,,,,,,,Space,keypress(Space),,,,,,,,---- -- ----- -- ------ - ------- --- ----------<br>------------- ------ ------ ---- ---- ------- ----- -- ----<br>-------- ------- -- ---------- --- - --- ----- finds ----<br>---- --- --- ----- --- ---- ---- ------- ----- ---- -------<br>--- --- -- ----- -- --- ---- -- --- ---- -- ------ ------<br>--- ----- -- ----,124883.46500007901,124882.32500001322,124498.432,124510.40500006638,124514.96,124898.456,,26,finds
screen,html.Screen,2_1_0_1_27,2021-04-26T20:01:56.703Z,,,,,,,,,,,,,,,,,53,,,,,,,,,,,,,,384.66400003642775,,response,,,,99,,,,,,,Space,keypress(Space),,,,,,,,---- -- ----- -- ------ - ------- --- ----------<br>------------- ------ ------ ---- ---- ------- ----- -- ----<br>-------- ------- -- ---------- --- - --- ----- ----- that<br>---- --- --- ----- --- ---- ---- ------- ----- ---- -------<br>--- --- -- ----- -- --- ---- -- --- ---- -- ------ ------<br>--- ----- -- ----,125284.34500005096,125283.12000003643,124881.782,124883.78500007093,124898.456,125298.474,,27,that
screen,html.Screen,2_1_0_1_28,2021-04-26T20:01:57.137Z,,,,,,,,,,,,,,,,,53,,,,,,,,,,,,,,418.40100004190754,,response,,,,99,,,,,,,Space,keypress(Space),,,,,,,,---- -- ----- -- ------ - ------- --- ----------<br>------------- ------ ------ ---- ---- ------- ----- -- ----<br>-------- ------- -- ---------- --- - --- ----- ----- ----<br>it's --- --- ----- --- ---- ---- ------- ----- ---- -------<br>--- --- -- ----- -- --- ---- -- --- ---- -- ------ ------<br>--- ----- -- ----,125718.10000005644,125716.87500004191,125281.808,125284.65500008315,125298.474,125731.775,,28,it's
screen,html.Screen,2_1_0_1_29,2021-04-26T20:01:57.554Z,,,,,,,,,,,,,,,,,53,,,,,,,,,,,,,,401.66000008341507,,response,,,,99,,,,,,,Space,keypress(Space),,,,,,,,---- -- ----- -- ------ - ------- --- ----------<br>------------- ------ ------ ---- ---- ------- ----- -- ----<br>-------- ------- -- ---------- --- - --- ----- ----- ----<br>---- not --- ----- --- ---- ---- ------- ----- ---- -------<br>--- --- -- ----- -- --- ---- -- --- ---- -- ------ ------<br>--- ----- -- ----,126134.99000004958,126133.43500008341,125715.195,125718.41000008862,125731.775,126148.512,,29,not
screen,html.Screen,2_1_0_1_30,2021-04-26T20:01:57.935Z,,,,,,,,,,,,,,,,,53,,,,,,,,,,,,,,366.7330000168731,,response,,,,99,,,,,,,Space,keypress(Space),,,,,,,,---- -- ----- -- ------ - ------- --- ----------<br>------------- ------ ------ ---- ---- ------- ----- -- ----<br>-------- ------- -- ---------- --- - --- ----- ----- ----<br>---- --- how ----- --- ---- ---- ------- ----- ---- -------<br>--- --- -- ----- -- --- ---- -- --- ---- -- ------ ------<br>--- ----- -- ----,126515.92000003438,126515.24500001688,126131.857,126135.37500007078,126148.512,126531.733,,30,how
screen,html.Screen,2_1_0_1_31,2021-04-26T20:01:58.315Z,,,,,,,,,,,,,,,,,53,,,,,,,,,,,,,,362.17700010073895,,response,,,,99,,,,,,,Space,keypress(Space),,,,,,,,---- -- ----- -- ------ - ------- --- ----------<br>------------- ------ ------ ---- ---- ------- ----- -- ----<br>-------- ------- -- ---------- --- - --- ----- ----- ----<br>---- --- --- close --- ---- ---- ------- ----- ---- -------<br>--- --- -- ----- -- --- ---- -- --- ---- -- ------ ------<br>--- ----- -- ----,126895.62500000466,126893.91000010073,126515.209,126516.17000007536,126531.733,126898.465,,31,close
screen,html.Screen,2_1_0_1_32,2021-04-26T20:01:58.687Z,,,,,,,,,,,,,,,,,53,,,,,,,,,,,,,,367.82500005778274,,response,,,,99,,,,,,,Space,keypress(Space),,,,,,,,---- -- ----- -- ------ - ------- --- ----------<br>------------- ------ ------ ---- ---- ------- ----- -- ----<br>-------- ------- -- ---------- --- - --- ----- ----- ----<br>---- --- --- ----- you ---- ---- ------- ----- ---- -------<br>--- --- -- ----- -- --- ---- -- --- ---- -- ------ ------<br>--- ----- -- ----,127267.57500006352,127266.29000005778,126881.849,126896.04000002146,126898.465,127281.888,,32,you
screen,html.Screen,2_1_0_1_33,2021-04-26T20:01:59.066Z,,,,,,,,,,,,,,,,,53,,,,,,,,,,,,,,360.4170001030725,,response,,,,99,,,,,,,Space,keypress(Space),,,,,,,,---- -- ----- -- ------ - ------- --- ----------<br>------------- ------ ------ ---- ---- ------- ----- -- ----<br>-------- ------- -- ---------- --- - --- ----- ----- ----<br>---- --- --- ----- --- feel ---- ------- ----- ---- -------<br>--- --- -- ----- -- --- ---- -- --- ---- -- ------ ------<br>--- ----- -- ----,127646.55500010122,127642.30500010308,127265.28,127267.92000001296,127281.888,127648.493,,33,feel
screen,html.Screen,2_1_0_1_34,2021-04-26T20:01:59.443Z,,,,,,,,,,,,,,,,,53,,,,,,,,,,,,,,373.32200010192173,,response,,,,99,,,,,,,Space,keypress(Space),,,,,,,,---- -- ----- -- ------ - ------- --- ----------<br>------------- ------ ------ ---- ---- ------- ----- -- ----<br>-------- ------- -- ---------- --- - --- ----- ----- ----<br>---- --- --- ----- --- ---- that ------- ----- ---- -------<br>--- --- -- ----- -- --- ---- -- --- ---- -- ------ ------<br>--- ----- -- ----,128023.88500003144,128021.81500010192,127631.956,127646.87500009313,127648.493,128031.961,,34,that
screen,html.Screen,2_1_0_1_35,2021-04-26T20:01:59.821Z,,,,,,,,,,,,,,,,,53,,,,,,,,,,,,,,369.179000089076,,response,,,,99,,,,,,,Space,keypress(Space),,,,,,,,---- -- ----- -- ------ - ------- --- ----------<br>------------- ------ ------ ---- ---- ------- ----- -- ----<br>-------- ------- -- ---------- --- - --- ----- ----- ----<br>---- --- --- ----- --- ---- ---- matters ----- ---- -------<br>--- --- -- ----- -- --- ---- -- --- ---- -- ------ ------<br>--- ----- -- ----,128402.31000003405,128401.14000008907,128015.263,128024.18000006583,128031.961,128415.314,,35,matters
screen,html.Screen,2_1_0_1_36,2021-04-26T20:02:00.266Z,,,,,,,,,,,,,,,,,53,,,,,,,,,,,,,,429.27599999333324,,response,,,,99,,,,,,,Space,keypress(Space),,,,,,,,"---- -- ----- -- ------ - ------- --- ----------<br>------------- ------ ------ ---- ---- ------- ----- -- ----<br>-------- ------- -- ---------- --- - --- ----- ----- ----<br>---- --- --- ----- --- ---- ---- ------- most, ---- -------<br>--- --- -- ----- -- --- ---- -- --- ---- -- ------ ------<br>--- ----- -- ----",128846.60500008613,128844.58999999333,128398.673,128404.05500005,128415.314,128869.309,,36,"most,"
screen,html.Screen,2_1_0_1_37,2021-04-26T20:02:00.712Z,,,,,,,,,,,,,,,,,53,,,,,,,,,,,,,,422.2909999968397,,response,,,,99,,,,,,,Space,keypress(Space),,,,,,,,---- -- ----- -- ------ - ------- --- ----------<br>------------- ------ ------ ---- ---- ------- ----- -- ----<br>-------- ------- -- ---------- --- - --- ----- ----- ----<br>---- --- --- ----- --- ---- ---- ------- ----- it's -------<br>--- --- -- ----- -- --- ---- -- --- ---- -- ------ ------<br>--- ----- -- ----,129292.71000006702,129291.59999999683,128832.09,128847.04500006046,128869.309,129298.638,,37,it's
screen,html.Screen,2_1_0_1_38,2021-04-26T20:02:01.196Z,,,,,,,,,,,,,,,,,53,,,,,,,,,,,,,,477.32199999902514,,response,,,,99,,,,,,,Space,keypress(Space),,,,,,,,---- -- ----- -- ------ - ------- --- ----------<br>------------- ------ ------ ---- ---- ------- ----- -- ----<br>-------- ------- -- ---------- --- - --- ----- ----- ----<br>---- --- --- ----- --- ---- ---- ------- ----- ---- whether<br>--- --- -- ----- -- --- ---- -- --- ---- -- ------ ------<br>--- ----- -- ----,129777.13000006042,129775.95999999903,129282.121,129293.0200000992,129298.638,129782.005,,38,whether
screen,html.Screen,2_1_0_1_39,2021-04-26T20:02:01.627Z,,,,,,,,,,,,,,,,,53,,,,,,,,,,,,,,424.9750000172062,,response,,,,99,,,,,,,Space,keypress(Space),,,,,,,,---- -- ----- -- ------ - ------- --- ----------<br>------------- ------ ------ ---- ---- ------- ----- -- ----<br>-------- ------- -- ---------- --- - --- ----- ----- ----<br>---- --- --- ----- --- ---- ---- ------- ----- ---- -------<br>you --- -- ----- -- --- ---- -- --- ---- -- ------ ------<br>--- ----- -- ----,130207.78000005521,130206.98000001721,129765.499,129777.43500005454,129782.005,130215.299,,39,you
screen,html.Screen,2_1_0_1_40,2021-04-26T20:02:02.013Z,,,,,,,,,,,,,,,,,53,,,,,,,,,,,,,,377.0060000565136,,response,,,,99,,,,,,,Space,keypress(Space),,,,,,,,---- -- ----- -- ------ - ------- --- ----------<br>------------- ------ ------ ---- ---- ------- ----- -- ----<br>-------- ------- -- ---------- --- - --- ----- ----- ----<br>---- --- --- ----- --- ---- ---- ------- ----- ---- -------<br>--- are -- ----- -- --- ---- -- --- ---- -- ------ ------<br>--- ----- -- ----,130593.38500001468,130592.30500005651,130198.807,130208.02000002004,130215.299,130598.734,,40,are
screen,html.Screen,2_1_0_1_41,2021-04-26T20:02:02.438Z,,,,,,,,,,,,,,,,,53,,,,,,,,,,,,,,418.5109999954584,,response,,,,99,,,,,,,Space,keypress(Space),,,,,,,,---- -- ----- -- ------ - ------- --- ----------<br>------------- ------ ------ ---- ---- ------- ----- -- ----<br>-------- ------- -- ---------- --- - --- ----- ----- ----<br>---- --- --- ----- --- ---- ---- ------- ----- ---- -------<br>--- --- as ----- -- --- ---- -- --- ---- -- ------ ------<br>--- ----- -- ----,131018.62500002608,131017.24499999546,130582.127,130593.67500001099,130598.734,131032.204,,41,as
screen,html.Screen,2_1_0_1_42,2021-04-26T20:02:02.889Z,,,,,,,,,,,,,,,,,53,,,,,,,,,,,,,,436.3110000732413,,response,,,,99,,,,,,,Space,keypress(Space),,,,,,,,---- -- ----- -- ------ - ------- --- ----------<br>------------- ------ ------ ---- ---- ------- ----- -- ----<br>-------- ------- -- ---------- --- - --- ----- ----- ----<br>---- --- --- ----- --- ---- ---- ------- ----- ---- -------<br>--- --- -- close -- --- ---- -- --- ---- -- ------ ------<br>--- ----- -- ----,131469.63500010315,131468.51500007324,131015.635,131018.92500009853,131032.204,131482.206,,42,close
screen,html.Screen,2_1_0_1_43,2021-04-26T20:02:03.298Z,,,,,,,,,,,,,,,,,53,,,,,,,,,,,,,,395.7490000326652,,response,,,,99,,,,,,,Space,keypress(Space),,,,,,,,---- -- ----- -- ------ - ------- --- ----------<br>------------- ------ ------ ---- ---- ------- ----- -- ----<br>-------- ------- -- ---------- --- - --- ----- ----- ----<br>---- --- --- ----- --- ---- ---- ------- ----- ---- -------<br>--- --- -- ----- as --- ---- -- --- ---- -- ------ ------<br>--- ----- -- ----,131879.21500008088,131877.95500003267,131465.544,131469.95500009507,131482.206,131882.156,,43,as
screen,html.Screen,2_1_0_1_44,2021-04-26T20:02:03.670Z,,,,,,,,,,,,,,,,,53,,,,,,,,,,,,,,367.37400003007497,,response,,,,99,,,,,,,Space,keypress(Space),,,,,,,,---- -- ----- -- ------ - ------- --- ----------<br>------------- ------ ------ ---- ---- ------- ----- -- ----<br>-------- ------- -- ---------- --- - --- ----- ----- ----<br>---- --- --- ----- --- ---- ---- ------- ----- ---- -------<br>--- --- -- ----- -- you ---- -- --- ---- -- ------ ------<br>--- ----- -- ----,132250.8150000358,132249.53000003006,131865.498,131879.5350000728,131882.156,132265.494,,44,you
screen,html.Screen,2_1_0_1_45,2021-04-26T20:02:04.079Z,,,,,,,,,,,,,,,,,53,,,,,,,,,,,,,,392.47100002033403,,response,,,,99,,,,,,,Space,keypress(Space),,,,,,,,---- -- ----- -- ------ - ------- --- ----------<br>------------- ------ ------ ---- ---- ------- ----- -- ----<br>-------- ------- -- ---------- --- - --- ----- ----- ----<br>---- --- --- ----- --- ---- ---- ------- ----- ---- -------<br>--- --- -- ----- -- --- want -- --- ---- -- ------ ------<br>--- ----- -- ----,132659.46500003338,132657.96500002034,132248.957,132254.37000009697,132265.494,132665.559,,45,want
screen,html.Screen,2_1_0_1_46,2021-04-26T20:02:04.469Z,,,,,,,,,,,,,,,,,53,,,,,,,,,,,,,,382.7960000935709,,response,,,,99,,,,,,,Space,keypress(Space),,,,,,,,---- -- ----- -- ------ - ------- --- ----------<br>------------- ------ ------ ---- ---- ------- ----- -- ----<br>-------- ------- -- ---------- --- - --- ----- ----- ----<br>---- --- --- ----- --- ---- ---- ------- ----- ---- -------<br>--- --- -- ----- -- --- ---- to --- ---- -- ------ ------<br>--- ----- -- ----,133049.54000003636,133048.35500009358,132649.007,132659.7550000297,132665.559,133065.634,,46,to
screen,html.Screen,2_1_0_1_47,2021-04-26T20:02:04.893Z,,,,,,,,,,,,,,,,,53,,,,,,,,,,,,,,406.77100000772043,,response,,,,99,,,,,,,Space,keypress(Space),,,,,,,,"---- -- ----- -- ------ - ------- --- ----------<br>------------- ------ ------ ---- ---- ------- ----- -- ----<br>-------- ------- -- ---------- --- - --- ----- ----- ----<br>---- --- --- ----- --- ---- ---- ------- ----- ---- -------<br>--- --- -- ----- -- --- ---- -- be, ---- -- ------ ------<br>--- ----- -- ----",133473.5000000801,133472.4050000077,133049.032,133049.8249999946,133065.634,133482.326,,47,"be,"
screen,html.Screen,2_1_0_1_48,2021-04-26T20:02:05.316Z,,,,,,,,,,,,,,,,,53,,,,,,,,,,,,,,413.35400007420685,,response,,,,99,,,,,,,Space,keypress(Space),,,,,,,,---- -- ----- -- ------ - ------- --- ----------<br>------------- ------ ------ ---- ---- ------- ----- -- ----<br>-------- ------- -- ---------- --- - --- ----- ----- ----<br>---- --- --- ----- --- ---- ---- ------- ----- ---- -------<br>--- --- -- ----- -- --- ---- -- --- even -- ------ ------<br>--- ----- -- ----,133896.82000002358,133895.6800000742,133465.763,133473.7750000786,133482.326,133898.948,,48,even
screen,html.Screen,2_1_0_1_49,2021-04-26T20:02:05.740Z,,,,,,,,,,,,,,,,,53,,,,,,,,,,,,,,420.5920000549813,,response,,,,99,,,,,,,Space,keypress(Space),,,,,,,,---- -- ----- -- ------ - ------- --- ----------<br>------------- ------ ------ ---- ---- ------- ----- -- ----<br>-------- ------- -- ---------- --- - --- ----- ----- ----<br>---- --- --- ----- --- ---- ---- ------- ----- ---- -------<br>--- --- -- ----- -- --- ---- -- --- ---- if ------ ------<br>--- ----- -- ----,134321.23500003945,134319.54000005499,133882.401,133897.10500009824,133898.948,134332.375,,49,if
screen,html.Screen,2_1_0_1_50,2021-04-26T20:02:06.143Z,,,,,,,,,,,,,,,,,53,,,,,,,,,,,,,,390.30500000622123,,response,,,,99,,,,,,,Space,keypress(Space),,,,,,,,---- -- ----- -- ------ - ------- --- ----------<br>------------- ------ ------ ---- ---- ------- ----- -- ----<br>-------- ------- -- ---------- --- - --- ----- ----- ----<br>---- --- --- ----- --- ---- ---- ------- ----- ---- -------<br>--- --- -- ----- -- --- ---- -- --- ---- -- that's ------<br>--- ----- -- ----,134723.8700001035,134722.68000000622,134315.805,134321.65000005625,134332.375,134732.443,,50,that's
screen,html.Screen,2_1_0_1_51,2021-04-26T20:02:06.597Z,,,,,,,,,,,,,,,,,53,,,,,,,,,,,,,,444.0970000149391,,response,,,,99,,,,,,,Space,keypress(Space),,,,,,,,---- -- ----- -- ------ - ------- --- ----------<br>------------- ------ ------ ---- ---- ------- ----- -- ----<br>-------- ------- -- ---------- --- - --- ----- ----- ----<br>---- --- --- ----- --- ---- ---- ------- ----- ---- -------<br>--- --- -- ----- -- --- ---- -- --- ---- -- ------ really<br>--- ----- -- ----,135177.64500004705,135176.54000001494,134715.793,134724.17000005953,134732.443,135182.394,,51,really
screen,html.Screen,2_1_0_1_52,2021-04-26T20:02:06.999Z,,,,,,,,,,,,,,,,,53,,,,,,,,,,,,,,396.09600010173745,,response,,,,99,,,,,,,Space,keypress(Space),,,,,,,,---- -- ----- -- ------ - ------- --- ----------<br>------------- ------ ------ ---- ---- ------- ----- -- ----<br>-------- ------- -- ---------- --- - --- ----- ----- ----<br>---- --- --- ----- --- ---- ---- ------- ----- ---- -------<br>--- --- -- ----- -- --- ---- -- --- ---- -- ------ ------<br>not ----- -- ----,135579.77499999106,135578.49000010174,135165.828,135177.93500004336,135182.394,135582.39,,52,not
screen,html.Screen,2_1_0_1_53,2021-04-26T20:02:07.388Z,,,,,,,,,,,,,,,,,53,,,,,,,,,,,,,,385.7050000183517,,response,,,,99,,,,,,,Space,keypress(Space),,,,,,,,---- -- ----- -- ------ - ------- --- ----------<br>------------- ------ ------ ---- ---- ------- ----- -- ----<br>-------- ------- -- ---------- --- - --- ----- ----- ----<br>---- --- --- ----- --- ---- ---- ------- ----- ---- -------<br>--- --- -- ----- -- --- ---- -- --- ---- -- ------ ------<br>--- close -- ----,135969.2600000417,135968.09500001837,135565.86,135580.0800001016,135582.39,135982.398,,53,close
screen,html.Screen,2_1_0_1_54,2021-04-26T20:02:07.776Z,,,,,,,,,,,,,,,,,53,,,,,,,,,,,,,,373.9520000164048,,response,,,,99,,,,,,,Space,keypress(Space),,,,,,,,---- -- ----- -- ------ - ------- --- ----------<br>------------- ------ ------ ---- ---- ------- ----- -- ----<br>-------- ------- -- ---------- --- - --- ----- ----- ----<br>---- --- --- ----- --- ---- ---- ------- ----- ---- -------<br>--- --- -- ----- -- --- ---- -- --- ---- -- ------ ------<br>--- ----- at ----,136357.2250000434,136356.3500000164,135965.875,135969.5350000402,135982.398,136365.793,,54,at
screen,html.Screen,2_1_0_1_55,2021-04-26T20:02:08.894Z,,,,,,,,,,,,,,,,,53,,,,,,,,,,,,,,1107.5269999900484,,response,,,,99,,,,,,,Space,keypress(Space),,,,,,,,---- -- ----- -- ------ - ------- --- ----------<br>------------- ------ ------ ---- ---- ------- ----- -- ----<br>-------- ------- -- ---------- --- - --- ----- ----- ----<br>---- --- --- ----- --- ---- ---- ------- ----- ---- -------<br>--- --- -- ----- -- --- ---- -- --- ---- -- ------ ------<br>--- ----- -- all.,137474.44000001997,137473.31999999005,136349.17,136357.49500000384,136365.793,137482.546,,55,all.
Item 99,flow.Loop,2_1_0_1,2021-04-26T20:02:08.894Z,,,,,,,,,,,,,,,,,,,,,,,,,,,,,,,24259.161999990058,,completion,,,,,E,,,,,,,,,,,silence,,,,,137475.0050000148,137473.31999999005,113097.542,113099.30500003975,113214.158,137482.546,,,
Question 1,html.Screen,2_1_0_2,2021-04-26T20:02:16.616Z,,,,,,,,,,,,,,,,,,,,,,,,,,,,true,FALSE,,7713.884000010876,,response,,,,99,E,,,,,,FALSE,click #choice-2,,,,silence,,,,,145197.1650000196,145196.43000001088,137465.939,137475.2800000133,137482.546,145199.662,,,
Question 2,html.Screen,2_1_0_3,2021-04-26T20:02:23.794Z,,,,,,,,,,,,,,,,,,,,,,,,,,,,true,TRUE,,7174.553000076208,,response,,,,99,E,,,,,,TRUE,click #choice-1,,,,silence,,,,,152374.92000008933,152374.21500007622,145183.148,145197.26000004448,145199.662,152383.506,,,
Item 99,flow.Sequence,2_1_0,2021-04-26T20:02:23.794Z,,,,,,,,,,,,,,,,,,,,,,,,,,,,,,,49260.805000076216,,completion,,,,,,,,,,,,,,,,,,,,,152375.13500009663,152374.21500007622,103096.733,103108.15500002354,103113.41,152383.506,,,
Holding screen,html.Screen,2_1_1_0,2021-04-26T20:02:33.788Z,,,,,,,,,,,,,,,,,,,,,,,,,,,,,,,10000.77900000001,,timeout,,,,,,,,,,,,,,,,,,,,,162368.74500010163,162367.657,152366.888,152375.24000008125,152383.506,162384.285,,,
screen,html.Screen,2_1_1_1_0,2021-04-26T20:02:34.359Z,,,,,,,,,,,,,,,,,54,,,,,,,,,,,,,,555.2400000525231,,response,,,,100,,,,,,,Space,keypress(Space),,,,,,,,At --- ---- --- ------ ----- ------- ---- -- --- ------- --<br>------- ---------- ------ -- ----- -- ----- -- ---- ------<br>--- ----- --- --- ------ -------- ----- --- ------ ----- --<br>----- ----- ---------- --- --- ------ ------ ---- -- ------<br>------- --- ------ ----- --- ---- ------- -- ---- --- --<br>------- ------,162940.25500002317,162939.52500005253,162367.657,162369.12000004668,162384.285,162950.922,,0,At
screen,html.Screen,2_1_1_1_1,2021-04-26T20:02:34.806Z,,,,,,,,,,,,,,,,,54,,,,,,,,,,,,,,435.8680000186723,,response,,,,100,,,,,,,Space,keypress(Space),,,,,,,,-- the ---- --- ------ ----- ------- ---- -- --- ------- --<br>------- ---------- ------ -- ----- -- ----- -- ---- ------<br>--- ----- --- --- ------ -------- ----- --- ------ ----- --<br>----- ----- ---------- --- --- ------ ------ ---- -- ------<br>------- --- ------ ----- --- ---- ------- -- ---- --- --<br>------- ------,163387.2149999952,163386.79000001866,162934.501,162940.40000007953,162950.922,163400.94,,1,the
screen,html.Screen,2_1_1_1_2,2021-04-26T20:02:35.179Z,,,,,,,,,,,,,,,,,54,,,,,,,,,,,,,,357.995000048948,,response,,,,100,,,,,,,Space,keypress(Space),,,,,,,,-- --- time --- ------ ----- ------- ---- -- --- ------- --<br>------- ---------- ------ -- ----- -- ----- -- ---- ------<br>--- ----- --- --- ------ -------- ----- --- ------ ----- --<br>----- ----- ---------- --- --- ------ ------ ---- -- ------<br>------- --- ------ ----- --- ---- ------- -- ---- --- --<br>------- ------,163759.40000009723,163758.93500004895,163384.319,163387.31000002008,163400.94,163767.604,,2,time
screen,html.Screen,2_1_1_1_3,2021-04-26T20:02:35.560Z,,,,,,,,,,,,,,,,,54,,,,,,,,,,,,,,372.2910000293632,,response,,,,100,,,,,,,Space,keypress(Space),,,,,,,,-- --- ---- the ------ ----- ------- ---- -- --- ------- --<br>------- ---------- ------ -- ----- -- ----- -- ---- ------<br>--- ----- --- --- ------ -------- ----- --- ------ ----- --<br>----- ----- ---------- --- --- ------ ------ ---- -- ------<br>------- --- ------ ----- --- ---- ------- -- ---- --- --<br>------- ------,164140.73000010103,164139.89500002936,163750.997,163759.50000004377,163767.604,164150.983,,3,the
screen,html.Screen,2_1_1_1_4,2021-04-26T20:02:35.933Z,,,,,,,,,,,,,,,,,54,,,,,,,,,,,,,,362.1420000558719,,response,,,,100,,,,,,,Space,keypress(Space),,,,,,,,-- --- ---- --- French ----- ------- ---- -- --- ------- --<br>------- ---------- ------ -- ----- -- ----- -- ---- ------<br>--- ----- --- --- ------ -------- ----- --- ------ ----- --<br>----- ----- ---------- --- --- ------ ------ ---- -- ------<br>------- --- ------ ----- --- ---- ------- -- ---- --- --<br>------- ------,164514.32499999646,164513.12500005588,164134.33,164140.94000007026,164150.983,164517.736,,4,French
screen,html.Screen,2_1_1_1_5,2021-04-26T20:02:36.291Z,,,,,,,,,,,,,,,,,54,,,,,,,,,,,,,,352.66400001433794,,response,,,,100,,,,,,,Space,keypress(Space),,,,,,,,-- --- ---- --- ------ crown ------- ---- -- --- ------- --<br>------- ---------- ------ -- ----- -- ----- -- ---- ------<br>--- ----- --- --- ------ -------- ----- --- ------ ----- --<br>----- ----- ---------- --- --- ------ ------ ---- -- ------<br>------- --- ------ ----- --- ---- ------- -- ---- --- --<br>------- ------,164871.49000004865,164870.40000001434,164501.154,164514.72500001546,164517.736,164884.486,,5,crown
screen,html.Screen,2_1_1_1_6,2021-04-26T20:02:36.668Z,,,,,,,,,,,,,,,,,54,,,,,,,,,,,,,,362.61400003687595,,response,,,,100,,,,,,,Space,keypress(Space),,,,,,,,-- --- ---- --- ------ ----- secured ---- -- --- ------- --<br>------- ---------- ------ -- ----- -- ----- -- ---- ------<br>--- ----- --- --- ------ -------- ----- --- ------ ----- --<br>----- ----- ---------- --- --- ------ ------ ---- -- ------<br>------- --- ------ ----- --- ---- ------- -- ---- --- --<br>------- ------,165248.4500000719,165247.10000003688,164867.921,164871.76500004716,164884.486,165251.118,,6,secured
screen,html.Screen,2_1_1_1_7,2021-04-26T20:02:37.058Z,,,,,,,,,,,,,,,,,54,,,,,,,,,,,,,,386.11700003108126,,response,,,,100,,,,,,,Space,keypress(Space),,,,,,,,-- --- ---- --- ------ ----- ------- much -- --- ------- --<br>------- ---------- ------ -- ----- -- ----- -- ---- ------<br>--- ----- --- --- ------ -------- ----- --- ------ ----- --<br>----- ----- ---------- --- --- ------ ------ ---- -- ------<br>------- --- ------ ----- --- ---- ------- -- ---- --- --<br>------- ------,165638.45000008587,165637.23500003107,165234.572,165248.755000066,165251.118,165651.241,,7,much
screen,html.Screen,2_1_1_1_8,2021-04-26T20:02:37.506Z,,,,,,,,,,,,,,,,,54,,,,,,,,,,,,,,434.6290000680892,,response,,,,100,,,,,,,Space,keypress(Space),,,,,,,,-- --- ---- --- ------ ----- ------- ---- of --- ------- --<br>------- ---------- ------ -- ----- -- ----- -- ---- ------<br>--- ----- --- --- ------ -------- ----- --- ------ ----- --<br>----- ----- ---------- --- --- ------ ------ ---- -- ------<br>------- --- ------ ----- --- ---- ------- -- ---- --- --<br>------- ------,166087.09500008263,166085.8700000681,165634.63,165638.75500007998,165651.241,166101.315,,8,of
screen,html.Screen,2_1_1_1_9,2021-04-26T20:02:37.875Z,,,,,,,,,,,,,,,,,54,,,,,,,,,,,,,,353.7049999939627,,response,,,,100,,,,,,,Space,keypress(Space),,,,,,,,-- --- ---- --- ------ ----- ------- ---- -- its ------- --<br>------- ---------- ------ -- ----- -- ----- -- ---- ------<br>--- ----- --- --- ------ -------- ----- --- ------ ----- --<br>----- ----- ---------- --- --- ------ ------ ---- -- ------<br>------- --- ------ ----- --- ---- ------- -- ---- --- --<br>------- ------,166455.47500008252,166455.01999999397,166084.645,166087.40000007674,166101.315,166467.911,,9,its
screen,html.Screen,2_1_1_1_10,2021-04-26T20:02:38.242Z,,,,,,,,,,,,,,,,,54,,,,,,,,,,,,,,353.3690000328643,,response,,,,100,,,,,,,Space,keypress(Space),,,,,,,,-- --- ---- --- ------ ----- ------- ---- -- --- revenue --<br>------- ---------- ------ -- ----- -- ----- -- ---- ------<br>--- ----- --- --- ------ -------- ----- --- ------ ----- --<br>----- ----- ---------- --- --- ------ ------ ---- -- ------<br>------- --- ------ ----- --- ---- ------- -- ---- --- --<br>------- ------,166822.35500006936,166821.28000003286,166451.378,166455.59500006493,166467.911,166834.682,,10,revenue
screen,html.Screen,2_1_1_1_11,2021-04-26T20:02:38.626Z,,,,,,,,,,,,,,,,,54,,,,,,,,,,,,,,371.15300002976437,,response,,,,100,,,,,,,Space,keypress(Space),,,,,,,,-- --- ---- --- ------ ----- ------- ---- -- --- ------- by<br>------- ---------- ------ -- ----- -- ----- -- ---- ------<br>--- ----- --- --- ------ -------- ----- --- ------ ----- --<br>----- ----- ---------- --- --- ------ ------ ---- -- ------<br>------- --- ------ ----- --- ---- ------- -- ---- --- --<br>------- ------,167206.995000015,167205.83500002977,166818.013,166822.63499998953,166834.682,167218.047,,11,by
screen,html.Screen,2_1_1_1_12,2021-04-26T20:02:39.033Z,,,,,,,,,,,,,,,,,54,,,,,,,,,,,,,,394.21800000339863,,response,,,,100,,,,,,,Space,keypress(Space),,,,,,,,-- --- ---- --- ------ ----- ------- ---- -- --- ------- --<br>issuing ---------- ------ -- ----- -- ----- -- ---- ------<br>--- ----- --- --- ------ -------- ----- --- ------ ----- --<br>----- ----- ---------- --- --- ------ ------ ---- -- ------<br>------- --- ------ ----- --- ---- ------- -- ---- --- --<br>------- ------,167613.36000007577,167612.2650000034,167201.418,167207.2900000494,167218.047,167617.953,,12,issuing
screen,html.Screen,2_1_1_1_13,2021-04-26T20:02:39.409Z,,,,,,,,,,,,,,,,,54,,,,,,,,,,,,,,370.6120000069204,,response,,,,100,,,,,,,Space,keypress(Space),,,,,,,,-- --- ---- --- ------ ----- ------- ---- -- --- ------- --<br>------- government ------ -- ----- -- ----- -- ---- ------<br>--- ----- --- --- ------ -------- ----- --- ------ ----- --<br>----- ----- ---------- --- --- ------ ------ ---- -- ------<br>------- --- ------ ----- --- ---- ------- -- ---- --- --<br>------- ------,167989.70500007272,167988.56500000693,167601.44,167613.63500007428,167617.953,168001.391,,13,government
screen,html.Screen,2_1_1_1_14,2021-04-26T20:02:39.811Z,,,,,,,,,,,,,,,,,54,,,,,,,,,,,,,,389.0039999948931,,response,,,,100,,,,,,,Space,keypress(Space),,,,,,,,-- --- ---- --- ------ ----- ------- ---- -- --- ------- --<br>------- ---------- bonds. -- ----- -- ----- -- ---- ------<br>--- ----- --- --- ------ -------- ----- --- ------ ----- --<br>----- ----- ---------- --- --- ------ ------ ---- -- ------<br>------- --- ------ ----- --- ---- ------- -- ---- --- --<br>------- ------,168391.68000000063,168390.3949999949,167984.809,167990.00500002876,168001.391,168401.427,,14,bonds.
screen,html.Screen,2_1_1_1_15,2021-04-26T20:02:40.418Z,,,,,,,,,,,,,,,,,54,,,,,,,,,,,,,,596.2329999936337,,response,,,,100,,,,,,,Space,keypress(Space),,,,,,,,-- --- ---- --- ------ ----- ------- ---- -- --- ------- --<br>------- ---------- ------ In ----- -- ----- -- ---- ------<br>--- ----- --- --- ------ -------- ----- --- ------ ----- --<br>----- ----- ---------- --- --- ------ ------ ---- -- ------<br>------- --- ------ ----- --- ---- ------- -- ---- --- --<br>------- ------,168999.12000005133,168997.65999999363,168384.789,168391.96000003722,168401.427,169001.421,,15,In
screen,html.Screen,2_1_1_1_16,2021-04-26T20:02:41.000Z,,,,,,,,,,,,,,,,,54,,,,,,,,,,,,,,578.639000065712,,response,,,,100,,,,,,,Space,keypress(Space),,,,,,,,"-- --- ---- --- ------ ----- ------- ---- -- --- ------- --<br>------- ---------- ------ -- 1727, -- ----- -- ---- ------<br>--- ----- --- --- ------ -------- ----- --- ------ ----- --<br>----- ----- ---------- --- --- ------ ------ ---- -- ------<br>------- --- ------ ----- --- ---- ------- -- ---- --- --<br>------- ------",169581.2300000107,169580.0600000657,168984.896,168999.41500008572,169001.421,169584.775,,16,"1727,"
screen,html.Screen,2_1_1_1_17,2021-04-26T20:02:41.439Z,,,,,,,,,,,,,,,,,54,,,,,,,,,,,,,,433.58000006564544,,response,,,,100,,,,,,,Space,keypress(Space),,,,,,,,-- --- ---- --- ------ ----- ------- ---- -- --- ------- --<br>------- ---------- ------ -- ----- in ----- -- ---- ------<br>--- ----- --- --- ------ -------- ----- --- ------ ----- --<br>----- ----- ---------- --- --- ------ ------ ---- -- ------<br>------- --- ------ ----- --- ---- ------- -- ---- --- --<br>------- ------,170019.56500008237,170018.35500006564,169568.168,169581.53000008315,169584.775,170034.946,,17,in
screen,html.Screen,2_1_1_1_18,2021-04-26T20:02:41.877Z,,,,,,,,,,,,,,,,,54,,,,,,,,,,,,,,422.20900006918237,,response,,,,100,,,,,,,Space,keypress(Space),,,,,,,,-- --- ---- --- ------ ----- ------- ---- -- --- ------- --<br>------- ---------- ------ -- ----- -- order -- ---- ------<br>--- ----- --- --- ------ -------- ----- --- ------ ----- --<br>----- ----- ---------- --- --- ------ ------ ---- -- ------<br>------- --- ------ ----- --- ---- ------- -- ---- --- --<br>------- ------,170458.32500001416,170457.15500006918,170018.293,170019.84000008088,170034.946,170468.156,,18,order
screen,html.Screen,2_1_1_1_19,2021-04-26T20:02:42.284Z,,,,,,,,,,,,,,,,,54,,,,,,,,,,,,,,395.52899998935754,,response,,,,100,,,,,,,Space,keypress(Space),,,,,,,,-- --- ---- --- ------ ----- ------- ---- -- --- ------- --<br>------- ---------- ------ -- ----- -- ----- to ---- ------<br>--- ----- --- --- ------ -------- ----- --- ------ ----- --<br>----- ----- ---------- --- --- ------ ------ ---- -- ------<br>------- --- ------ ----- --- ---- ------- -- ---- --- --<br>------- ------,170864.8600000888,170863.68499998935,170451.587,170458.63000000827,170468.156,170868.166,,19,to
screen,html.Screen,2_1_1_1_20,2021-04-26T20:02:42.700Z,,,,,,,,,,,,,,,,,54,,,,,,,,,,,,,,411.8240000682126,,response,,,,100,,,,,,,Space,keypress(Space),,,,,,,,-- --- ---- --- ------ ----- ------- ---- -- --- ------- --<br>------- ---------- ------ -- ----- -- ----- -- save ------<br>--- ----- --- --- ------ -------- ----- --- ------ ----- --<br>----- ----- ---------- --- --- ------ ------ ---- -- ------<br>------- --- ------ ----- --- ---- ------- -- ---- --- --<br>------- ------,171281.13000001758,171279.9900000682,170851.659,170865.15000008512,170868.166,171284.909,,20,save
screen,html.Screen,2_1_1_1_21,2021-04-26T20:02:43.060Z,,,,,,,,,,,,,,,,,54,,,,,,,,,,,,,,354.52100009747664,,response,,,,100,,,,,,,Space,keypress(Space),,,,,,,,"-- --- ---- --- ------ ----- ------- ---- -- --- ------- --<br>------- ---------- ------ -- ----- -- ----- -- ---- money,<br>--- ----- --- --- ------ -------- ----- --- ------ ----- --<br>----- ----- ---------- --- --- ------ ------ ---- -- ------<br>------- --- ------ ----- --- ---- ------- -- ---- --- --<br>------- ------",171640.6849999912,171639.4300000975,171268.375,171281.41000005417,171284.909,171651.693,,21,"money,"
screen,html.Screen,2_1_1_1_22,2021-04-26T20:02:43.481Z,,,,,,,,,,,,,,,,,54,,,,,,,,,,,,,,409.0670000221289,,response,,,,100,,,,,,,Space,keypress(Space),,,,,,,,-- --- ---- --- ------ ----- ------- ---- -- --- ------- --<br>------- ---------- ------ -- ----- -- ----- -- ---- ------<br>the ----- --- --- ------ -------- ----- --- ------ ----- --<br>----- ----- ---------- --- --- ------ ------ ---- -- ------<br>------- --- ------ ----- --- ---- ------- -- ---- --- --<br>------- ------,172061.82000006083,172060.76000002213,171635.034,171640.9800000256,171651.693,172068.267,,22,the
screen,html.Screen,2_1_1_1_23,2021-04-26T20:02:43.910Z,,,,,,,,,,,,,,,,,54,,,,,,,,,,,,,,422.32800009753555,,response,,,,100,,,,,,,Space,keypress(Space),,,,,,,,-- --- ---- --- ------ ----- ------- ---- -- --- ------- --<br>------- ---------- ------ -- ----- -- ----- -- ---- ------<br>--- state --- --- ------ -------- ----- --- ------ ----- --<br>----- ----- ---------- --- --- ------ ------ ---- -- ------<br>------- --- ------ ----- --- ---- ------- -- ---- --- --<br>------- ------,172491.0750000272,172490.59500009753,172051.697,172062.12000001688,172068.267,172501.665,,23,state
screen,html.Screen,2_1_1_1_24,2021-04-26T20:02:44.333Z,,,,,,,,,,,,,,,,,54,,,,,,,,,,,,,,411.2450000718527,,response,,,,100,,,,,,,Space,keypress(Space),,,,,,,,-- --- ---- --- ------ ----- ------- ---- -- --- ------- --<br>------- ---------- ------ -- ----- -- ----- -- ---- ------<br>--- ----- cut --- ------ -------- ----- --- ------ ----- --<br>----- ----- ---------- --- --- ------ ------ ---- -- ------<br>------- --- ------ ----- --- ---- ------- -- ---- --- --<br>------- ------,172914.14500004612,172912.91000007186,172485.129,172491.1800000118,172501.665,172918.33,,24,cut
screen,html.Screen,2_1_1_1_25,2021-04-26T20:02:44.731Z,,,,,,,,,,,,,,,,,54,,,,,,,,,,,,,,391.9500000924745,,response,,,,100,,,,,,,Space,keypress(Space),,,,,,,,-- --- ---- --- ------ ----- ------- ---- -- --- ------- --<br>------- ---------- ------ -- ----- -- ----- -- ---- ------<br>--- ----- --- the ------ -------- ----- --- ------ ----- --<br>----- ----- ---------- --- --- ------ ------ ---- -- ------<br>------- --- ------ ----- --- ---- ------- -- ---- --- --<br>------- ------,173311.83500005864,173310.28000009246,172901.696,172914.4250000827,172918.33,173318.299,,25,the
screen,html.Screen,2_1_1_1_26,2021-04-26T20:02:45.038Z,,,,,,,,,,,,,,,,,54,,,,,,,,,,,,,,299.0110000014538,,response,,,,100,,,,,,,Space,keypress(Space),,,,,,,,-- --- ---- --- ------ ----- ------- ---- -- --- ------- --<br>------- ---------- ------ -- ----- -- ----- -- ---- ------<br>--- ----- --- --- bonds' -------- ----- --- ------ ----- --<br>----- ----- ---------- --- --- ------ ------ ---- -- ------<br>------- --- ------ ----- --- ---- ------- -- ---- --- --<br>------- ------,173618.57500008773,173617.31000000145,173301.83,173312.2849999927,173318.299,173635.099,,26,bonds'
screen,html.Screen,2_1_1_1_27,2021-04-26T20:02:45.423Z,,,,,,,,,,,,,,,,,54,,,,,,,,,,,,,,367.85600003268337,,response,,,,100,,,,,,,Space,keypress(Space),,,,,,,,-- --- ---- --- ------ ----- ------- ---- -- --- ------- --<br>------- ---------- ------ -- ----- -- ----- -- ---- ------<br>--- ----- --- --- ------ interest ----- --- ------ ----- --<br>----- ----- ---------- --- --- ------ ------ ---- -- ------<br>------- --- ------ ----- --- ---- ------- -- ---- --- --<br>------- ------,174004.23500000034,174002.95500003267,173618.388,173618.92500007525,173635.099,174018.549,,27,interest
screen,html.Screen,2_1_1_1_28,2021-04-26T20:02:45.837Z,,,,,,,,,,,,,,,,,54,,,,,,,,,,,,,,398.40100010077003,,response,,,,100,,,,,,,Space,keypress(Space),,,,,,,,-- --- ---- --- ------ ----- ------- ---- -- --- ------- --<br>------- ---------- ------ -- ----- -- ----- -- ---- ------<br>--- ----- --- --- ------ -------- rate. --- ------ ----- --<br>----- ----- ---------- --- --- ------ ------ ---- -- ------<br>------- --- ------ ----- --- ---- ------- -- ---- --- --<br>------- ------,174418.02500002086,174416.95000010077,174001.849,174004.56999999005,174018.549,174435.182,,28,rate.
screen,html.Screen,2_1_1_1_29,2021-04-26T20:02:46.355Z,,,,,,,,,,,,,,,,,54,,,,,,,,,,,,,,499.4030000390776,,response,,,,100,,,,,,,Space,keypress(Space),,,,,,,,-- --- ---- --- ------ ----- ------- ---- -- --- ------- --<br>------- ---------- ------ -- ----- -- ----- -- ---- ------<br>--- ----- --- --- ------ -------- ----- The ------ ----- --<br>----- ----- ---------- --- --- ------ ------ ---- -- ------<br>------- --- ------ ----- --- ---- ------- -- ---- --- --<br>------- ------,174935.7350000646,174934.58500003908,174418.531,174418.32000005525,174435.182,174951.949,,29,The
screen,html.Screen,2_1_1_1_30,2021-04-26T20:02:46.803Z,,,,,,,,,,,,,,,,,54,,,,,,,,,,,,,,430.72100007909467,,response,,,,100,,,,,,,Space,keypress(Space),,,,,,,,-- --- ---- --- ------ ----- ------- ---- -- --- ------- --<br>------- ---------- ------ -- ----- -- ----- -- ---- ------<br>--- ----- --- --- ------ -------- ----- --- market ----- --<br>----- ----- ---------- --- --- ------ ------ ---- -- ------<br>------- --- ------ ----- --- ---- ------- -- ---- --- --<br>------- ------,175383.86000005994,175382.6700000791,174935.316,174936.09500001185,174951.949,175405.535,,30,market
screen,html.Screen,2_1_1_1_31,2021-04-26T20:02:47.154Z,,,,,,,,,,,,,,,,,54,,,,,,,,,,,,,,327.7999999971653,,response,,,,100,,,,,,,Space,keypress(Space),,,,,,,,-- --- ---- --- ------ ----- ------- ---- -- --- ------- --<br>------- ---------- ------ -- ----- -- ----- -- ---- ------<br>--- ----- --- --- ------ -------- ----- --- ------ value --<br>----- ----- ---------- --- --- ------ ------ ---- -- ------<br>------- --- ------ ----- --- ---- ------- -- ---- --- --<br>------- ------,175734.5000000205,175733.33499999717,175368.571,175384.15000005625,175405.535,175751.985,,31,value
screen,html.Screen,2_1_1_1_32,2021-04-26T20:02:47.537Z,,,,,,,,,,,,,,,,,54,,,,,,,,,,,,,,364.32000003231224,,response,,,,100,,,,,,,Space,keypress(Space),,,,,,,,-- --- ---- --- ------ ----- ------- ---- -- --- ------- --<br>------- ---------- ------ -- ----- -- ----- -- ---- ------<br>--- ----- --- --- ------ -------- ----- --- ------ ----- of<br>----- ----- ---------- --- --- ------ ------ ---- -- ------<br>------- --- ------ ----- --- ---- ------- -- ---- --- --<br>------- ------,176117.5650000805,176116.3050000323,175735.253,175734.8050000146,175751.985,176151.974,,32,of
screen,html.Screen,2_1_1_1_33,2021-04-26T20:02:47.957Z,,,,,,,,,,,,,,,,,54,,,,,,,,,,,,,,384.79100008442765,,response,,,,100,,,,,,,Space,keypress(Space),,,,,,,,-- --- ---- --- ------ ----- ------- ---- -- --- ------- --<br>------- ---------- ------ -- ----- -- ----- -- ---- ------<br>--- ----- --- --- ------ -------- ----- --- ------ ----- --<br>these ----- ---------- --- --- ------ ------ ---- -- ------<br>------- --- ------ ----- --- ---- ------- -- ---- --- --<br>------- ------,176538.2400000235,176536.76500008442,176135.3,176117.85500007682,176151.974,176551.927,,33,these
screen,html.Screen,2_1_1_1_34,2021-04-26T20:02:48.264Z,,,,,,,,,,,,,,,,,54,,,,,,,,,,,,,,292.0680000029097,,response,,,,100,,,,,,,Space,keypress(Space),,,,,,,,-- --- ---- --- ------ ----- ------- ---- -- --- ------- --<br>------- ---------- ------ -- ----- -- ----- -- ---- ------<br>--- ----- --- --- ------ -------- ----- --- ------ ----- --<br>----- bonds ---------- --- --- ------ ------ ---- -- ------<br>------- --- ------ ----- --- ---- ------- -- ---- --- --<br>------- ------,176845.31500004232,176843.9950000029,176535.39,176538.80000009667,176551.927,176851.93,,34,bonds
screen,html.Screen,2_1_1_1_35,2021-04-26T20:02:48.623Z,,,,,,,,,,,,,,,,,54,,,,,,,,,,,,,,351.1850000402774,,response,,,,100,,,,,,,Space,keypress(Space),,,,,,,,"-- --- ---- --- ------ ----- ------- ---- -- --- ------- --<br>------- ---------- ------ -- ----- -- ----- -- ---- ------<br>--- ----- --- --- ------ -------- ----- --- ------ ----- --<br>----- ----- plummeted, --- --- ------ ------ ---- -- ------<br>------- --- ------ ----- --- ---- ------- -- ---- --- --<br>------- ------",177204.28500010166,177203.11500004027,176835.346,176845.62000003643,176851.93,177218.652,,35,"plummeted,"
screen,html.Screen,2_1_1_1_36,2021-04-26T20:02:49.047Z,,,,,,,,,,,,,,,,,54,,,,,,,,,,,,,,408.03800006280653,,response,,,,100,,,,,,,Space,keypress(Space),,,,,,,,-- --- ---- --- ------ ----- ------- ---- -- --- ------- --<br>------- ---------- ------ -- ----- -- ----- -- ---- ------<br>--- ----- --- --- ------ -------- ----- --- ------ ----- --<br>----- ----- ---------- and --- ------ ------ ---- -- ------<br>------- --- ------ ----- --- ---- ------- -- ---- --- --<br>------- ------,177627.9649999924,177626.6900000628,177202.021,177204.5700000599,177218.652,177635.334,,36,and
screen,html.Screen,2_1_1_1_37,2021-04-26T20:02:49.432Z,,,,,,,,,,,,,,,,,54,,,,,,,,,,,,,,376.54100008381647,,response,,,,100,,,,,,,Space,keypress(Space),,,,,,,,-- --- ---- --- ------ ----- ------- ---- -- --- ------- --<br>------- ---------- ------ -- ----- -- ----- -- ---- ------<br>--- ----- --- --- ------ -------- ----- --- ------ ----- --<br>----- ----- ---------- --- the ------ ------ ---- -- ------<br>------- --- ------ ----- --- ---- ------- -- ---- --- --<br>------- ------,178013.00999999512,178011.87500008382,177618.806,177628.26000002678,177635.334,178018.67,,37,the
screen,html.Screen,2_1_1_1_38,2021-04-26T20:02:49.810Z,,,,,,,,,,,,,,,,,54,,,,,,,,,,,,,,370.76000009747804,,response,,,,100,,,,,,,Space,keypress(Space),,,,,,,,-- --- ---- --- ------ ----- ------- ---- -- --- ------- --<br>------- ---------- ------ -- ----- -- ----- -- ---- ------<br>--- ----- --- --- ------ -------- ----- --- ------ ----- --<br>----- ----- ---------- --- --- market ------ ---- -- ------<br>------- --- ------ ----- --- ---- ------- -- ---- --- --<br>------- ------,178390.6100000022,178389.4300000975,178002.176,178013.2900000317,178018.67,178402.144,,38,market
screen,html.Screen,2_1_1_1_39,2021-04-26T20:02:50.169Z,,,,,,,,,,,,,,,,,54,,,,,,,,,,,,,,346.17100009167916,,response,,,,100,,,,,,,Space,keypress(Space),,,,,,,,-- --- ---- --- ------ ----- ------- ---- -- --- ------- --<br>------- ---------- ------ -- ----- -- ----- -- ---- ------<br>--- ----- --- --- ------ -------- ----- --- ------ ----- --<br>----- ----- ---------- --- --- ------ became ---- -- ------<br>------- --- ------ ----- --- ---- ------- -- ---- --- --<br>------- ------,178749.45000000298,178748.31500009168,178385.513,178390.90500003658,178402.144,178752.07,,39,became
screen,html.Screen,2_1_1_1_40,2021-04-26T20:02:50.565Z,,,,,,,,,,,,,,,,,54,,,,,,,,,,,,,,392.64500006037997,,response,,,,100,,,,,,,Space,keypress(Space),,,,,,,,-- --- ---- --- ------ ----- ------- ---- -- --- ------- --<br>------- ---------- ------ -- ----- -- ----- -- ---- ------<br>--- ----- --- --- ------ -------- ----- --- ------ ----- --<br>----- ----- ---------- --- --- ------ ------ wary -- ------<br>------- --- ------ ----- --- ---- ------- -- ---- --- --<br>------- ------,179146.04000002146,179144.7150000604,178735.47,178749.7399999993,178752.07,179152.079,,40,wary
screen,html.Screen,2_1_1_1_41,2021-04-26T20:02:50.961Z,,,,,,,,,,,,,,,,,54,,,,,,,,,,,,,,388.95600000201375,,response,,,,100,,,,,,,Space,keypress(Space),,,,,,,,-- --- ---- --- ------ ----- ------- ---- -- --- ------- --<br>------- ---------- ------ -- ----- -- ----- -- ---- ------<br>--- ----- --- --- ------ -------- ----- --- ------ ----- --<br>----- ----- ---------- --- --- ------ ------ ---- of ------<br>------- --- ------ ----- --- ---- ------- -- ---- --- --<br>------- ------,179542.20000002533,179541.035000002,179135.558,179146.33000001777,179152.079,179552.183,,41,of
screen,html.Screen,2_1_1_1_42,2021-04-26T20:02:51.321Z,,,,,,,,,,,,,,,,,54,,,,,,,,,,,,,,347.96700000131386,,response,,,,100,,,,,,,Space,keypress(Space),,,,,,,,-- --- ---- --- ------ ----- ------- ---- -- --- ------- --<br>------- ---------- ------ -- ----- -- ----- -- ---- ------<br>--- ----- --- --- ------ -------- ----- --- ------ ----- --<br>----- ----- ---------- --- --- ------ ------ ---- -- French<br>------- --- ------ ----- --- ---- ------- -- ---- --- --<br>------- ------,179901.50000003632,179900.1500000013,179535.587,179542.4800000619,179552.183,179918.92,,42,French
screen,html.Screen,2_1_1_1_43,2021-04-26T20:02:51.747Z,,,,,,,,,,,,,,,,,54,,,,,,,,,,,,,,408.3600000849983,,response,,,,100,,,,,,,Space,keypress(Space),,,,,,,,-- --- ---- --- ------ ----- ------- ---- -- --- ------- --<br>------- ---------- ------ -- ----- -- ----- -- ---- ------<br>--- ----- --- --- ------ -------- ----- --- ------ ----- --<br>----- ----- ---------- --- --- ------ ------ ---- -- ------<br>credit. --- ------ ----- --- ---- ------- -- ---- --- --<br>------- ------,180327.87500007544,180327.280000085,179902.142,179902.17000001576,179918.92,180335.502,,43,credit.
screen,html.Screen,2_1_1_1_44,2021-04-26T20:02:52.208Z,,,,,,,,,,,,,,,,,54,,,,,,,,,,,,,,451.6080000338552,,response,,,,100,,,,,,,Space,keypress(Space),,,,,,,,-- --- ---- --- ------ ----- ------- ---- -- --- ------- --<br>------- ---------- ------ -- ----- -- ----- -- ---- ------<br>--- ----- --- --- ------ -------- ----- --- ------ ----- --<br>----- ----- ---------- --- --- ------ ------ ---- -- ------<br>------- The ------ ----- --- ---- ------- -- ---- --- --<br>------- ------,180788.63000008278,180787.11000003386,180318.917,180327.98500009812,180335.502,180802.415,,44,The
screen,html.Screen,2_1_1_1_45,2021-04-26T20:02:52.564Z,,,,,,,,,,,,,,,,,54,,,,,,,,,,,,,,341.6649999982037,,response,,,,100,,,,,,,Space,keypress(Space),,,,,,,,-- --- ---- --- ------ ----- ------- ---- -- --- ------- --<br>------- ---------- ------ -- ----- -- ----- -- ---- ------<br>--- ----- --- --- ------ -------- ----- --- ------ ----- --<br>----- ----- ---------- --- --- ------ ------ ---- -- ------<br>------- --- French ----- --- ---- ------- -- ---- --- --<br>------- ------,181145.29000001494,181144.0799999982,180785.705,180788.91500004102,180802.415,181152.259,,45,French
screen,html.Screen,2_1_1_1_46,2021-04-26T20:02:52.912Z,,,,,,,,,,,,,,,,,54,,,,,,,,,,,,,,340.1560001024918,,response,,,,100,,,,,,,Space,keypress(Space),,,,,,,,-- --- ---- --- ------ ----- ------- ---- -- --- ------- --<br>------- ---------- ------ -- ----- -- ----- -- ---- ------<br>--- ----- --- --- ------ -------- ----- --- ------ ----- --<br>----- ----- ---------- --- --- ------ ------ ---- -- ------<br>------- --- ------ state --- ---- ------- -- ---- --- --<br>------- ------,181492.90000007022,181492.41500010248,181135.681,181145.5750000896,181152.259,181502.257,,46,state
screen,html.Screen,2_1_1_1_47,2021-04-26T20:02:53.257Z,,,,,,,,,,,,,,,,,54,,,,,,,,,,,,,,334.8130000086676,,response,,,,100,,,,,,,Space,keypress(Space),,,,,,,,-- --- ---- --- ------ ----- ------- ---- -- --- ------- --<br>------- ---------- ------ -- ----- -- ----- -- ---- ------<br>--- ----- --- --- ------ -------- ----- --- ------ ----- --<br>----- ----- ---------- --- --- ------ ------ ---- -- ------<br>------- --- ------ ----- was ---- ------- -- ---- --- --<br>------- ------,181838.2050000364,181837.07000000868,181485.715,181493.0100000929,181502.257,181852.428,,47,was
screen,html.Screen,2_1_1_1_48,2021-04-26T20:02:53.633Z,,,,,,,,,,,,,,,,,54,,,,,,,,,,,,,,360.7820000744541,,response,,,,100,,,,,,,Space,keypress(Space),,,,,,,,-- --- ---- --- ------ ----- ------- ---- -- --- ------- --<br>------- ---------- ------ -- ----- -- ----- -- ---- ------<br>--- ----- --- --- ------ -------- ----- --- ------ ----- --<br>----- ----- ---------- --- --- ------ ------ ---- -- ------<br>------- --- ------ ----- --- left ------- -- ---- --- --<br>------- ------,182213.8800000539,182213.21000007447,181835.713,181838.48999999464,181852.428,182219.017,,48,left
screen,html.Screen,2_1_1_1_49,2021-04-26T20:02:54.040Z,,,,,,,,,,,,,,,,,54,,,,,,,,,,,,,,400.6180000100285,,response,,,,100,,,,,,,Space,keypress(Space),,,,,,,,-- --- ---- --- ------ ----- ------- ---- -- --- ------- --<br>------- ---------- ------ -- ----- -- ----- -- ---- ------<br>--- ----- --- --- ------ -------- ----- --- ------ ----- --<br>----- ----- ---------- --- --- ------ ------ ---- -- ------<br>------- --- ------ ----- --- ---- without -- ---- --- --<br>------- ------,182620.7300000824,182619.63500001002,182202.396,182214.06000002753,182219.017,182635.783,,49,without
screen,html.Screen,2_1_1_1_50,2021-04-26T20:02:54.466Z,,,,,,,,,,,,,,,,,54,,,,,,,,,,,,,,409.5619999913615,,response,,,,100,,,,,,,Space,keypress(Space),,,,,,,,-- --- ---- --- ------ ----- ------- ---- -- --- ------- --<br>------- ---------- ------ -- ----- -- ----- -- ---- ------<br>--- ----- --- --- ------ -------- ----- --- ------ ----- --<br>----- ----- ---------- --- --- ------ ------ ---- -- ------<br>------- --- ------ ----- --- ---- ------- an ---- --- --<br>------- ------,183046.8150000088,183045.34499999136,182619.112,182621.01000000257,182635.783,183069.164,,50,an
screen,html.Screen,2_1_1_1_51,2021-04-26T20:02:54.864Z,,,,,,,,,,,,,,,,,54,,,,,,,,,,,,,,374.7559999906225,,response,,,,100,,,,,,,Space,keypress(Space),,,,,,,,-- --- ---- --- ------ ----- ------- ---- -- --- ------- --<br>------- ---------- ------ -- ----- -- ----- -- ---- ------<br>--- ----- --- --- ------ -------- ----- --- ------ ----- --<br>----- ----- ---------- --- --- ------ ------ ---- -- ------<br>------- --- ------ ----- --- ---- ------- -- easy --- --<br>------- ------,183445.3050000593,183443.9199999906,183035.798,183047.12500004098,183069.164,183452.394,,51,easy
screen,html.Screen,2_1_1_1_52,2021-04-26T20:02:55.298Z,,,,,,,,,,,,,,,,,54,,,,,,,,,,,,,,425.66100009562797,,response,,,,100,,,,,,,Space,keypress(Space),,,,,,,,-- --- ---- --- ------ ----- ------- ---- -- --- ------- --<br>------- ---------- ------ -- ----- -- ----- -- ---- ------<br>--- ----- --- --- ------ -------- ----- --- ------ ----- --<br>----- ----- ---------- --- --- ------ ------ ---- -- ------<br>------- --- ------ ----- --- ---- ------- -- ---- way --<br>------- ------,183879.24999999814,183878.05500009563,183435.866,183445.74500003364,183452.394,183885.741,,52,way
screen,html.Screen,2_1_1_1_53,2021-04-26T20:02:55.674Z,,,,,,,,,,,,,,,,,54,,,,,,,,,,,,,,367.48399999309913,,response,,,,100,,,,,,,Space,keypress(Space),,,,,,,,-- --- ---- --- ------ ----- ------- ---- -- --- ------- --<br>------- ---------- ------ -- ----- -- ----- -- ---- ------<br>--- ----- --- --- ------ -------- ----- --- ------ ----- --<br>----- ----- ---------- --- --- ------ ------ ---- -- ------<br>------- --- ------ ----- --- ---- ------- -- ---- --- of<br>------- ------,184254.40500001423,184253.2249999931,183869.232,183879.53000003472,183885.741,184269.283,,53,of
screen,html.Screen,2_1_1_1_54,2021-04-26T20:02:56.033Z,,,,,,,,,,,,,,,,,54,,,,,,,,,,,,,,343.85700003040256,,response,,,,100,,,,,,,Space,keypress(Space),,,,,,,,-- --- ---- --- ------ ----- ------- ---- -- --- ------- --<br>------- ---------- ------ -- ----- -- ----- -- ---- ------<br>--- ----- --- --- ------ -------- ----- --- ------ ----- --<br>----- ----- ---------- --- --- ------ ------ ---- -- ------<br>------- --- ------ ----- --- ---- ------- -- ---- --- --<br>raising ------,184614.33500004932,184613.1400000304,184252.559,184254.69000008889,184269.283,184619.156,,54,raising
screen,html.Screen,2_1_1_1_55,2021-04-26T20:02:56.425Z,,,,,,,,,,,,,,,,,54,,,,,,,,,,,,,,385.9189999936789,,response,,,,100,,,,,,,Space,keypress(Space),,,,,,,,-- --- ---- --- ------ ----- ------- ---- -- --- ------- --<br>------- ---------- ------ -- ----- -- ----- -- ---- ------<br>--- ----- --- --- ------ -------- ----- --- ------ ----- --<br>----- ----- ---------- --- --- ------ ------ ---- -- ------<br>------- --- ------ ----- --- ---- ------- -- ---- --- --<br>------- money.,185006.22500001919,185005.07499999367,184602.575,184614.64000004344,184619.156,185019.188,,55,money.
Item 100,flow.Loop,2_1_1_1,2021-04-26T20:02:56.426Z,,,,,,,,,,,,,,,,,,,,,,,,,,,,,,,22620.789999993664,,completion,,,,,E,,,,,,,,,,,silence,,,,,185006.7750000162,185005.07499999367,162367.657,162369.02000010014,162384.285,185019.188,,,
Question 1,html.Screen,2_1_1_2,2021-04-26T20:02:58.601Z,,,,,,,,,,,,,,,,,,,,,,,,,,,,true,TRUE,,2162.0770000210905,,response,,,,100,E,,,,,,TRUE,click #choice-1,,,,silence,,,,,187181.96000007447,187181.26500002109,185002.663,185007.04000005499,185019.188,187185.917,,,
Question 2,html.Screen,2_1_1_3,2021-04-26T20:03:00.343Z,,,,,,,,,,,,,,,,,,,,,,,,,,,,true,FALSE,,1737.1180001016764,,response,,,,100,E,,,,,,FALSE,click #choice-2,,,,silence,,,,,188923.70000004303,188923.03500010166,187169.551,187182.05500009935,187185.917,188936.122,,,
Item 100,flow.Sequence,2_1_1,2021-04-26T20:03:00.343Z,,,,,,,,,,,,,,,,,,,,,,,,,,,,,,,36539.52900010167,,completion,,,,,,,,,,,,,,,,,,,,,188923.84000006132,188923.03500010166,152366.888,152375.2150000073,152383.506,188936.122,,,
End of Practice,html.Page,2_1_2,2021-04-26T20:03:04.352Z,,,,,,,,,,,,,,,,,,,,,,,,,,,,,,,3997.018000095588,,form submission,,,,,,,,,,,,,,,,,,,,,192933.32499999087,192933.1400000956,188919.532,188923.91000001226,188936.122,192936.32,,,
Practice,flow.Sequence,2_1,2021-04-26T20:03:04.353Z,,,,,,,,,,,,,,,,,,,,,,,,,,,,,,,89819.73000009559,,completion,,,,,,,,,,,,,,,,,,,,,192933.4600000875,192933.1400000956,103096.733,103108.10000007041,103113.41,192936.32,,,
Trap_instruction,html.Page,2_2_0,2021-04-26T20:03:08.412Z,,,,,,,,,,,,,,,,,,,,,,,,,,,,,,,4056.2300000826945,,form submission,,,,,,,,,,,,,,,,,,,,,196992.7500000922,196992.5500000827,192919.826,192933.54500003625,192936.32,197036.665,,,
trap_trial,html.Screen,2_2_1,2021-04-26T20:03:11.124Z,,,,,,,,,,,,,,,,,,,,,,,,,,,,true,1,,2667.910000097967,,response,,,,,,,,,,,1,click #choice-1,,,,,,,,,199705.27999999467,199704.57500009798,196986.81,196992.840000079,197036.665,199720.154,,,
end of trap trial,html.Page,2_2_2,2021-04-26T20:03:12.876Z,,,,,,,,,,,,,,,,,,,,,,,,,,,,,,,1736.3360000113898,,form submission,,,,,,,,,,,,,,,,,,,,,201456.65500010364,201456.4900000114,199703.56,199705.4000000935,199720.154,201486.937,,,
Trap 1,flow.Sequence,2_2,2021-04-26T20:03:12.876Z,,,,,,,,,,,,,,,,,,,,,,,,,,,,,,,8520.170000011392,,completion,,,,,,,,,,,,,,,,,,,,,201456.79000008386,201456.4900000114,192919.826,192933.52000007872,192936.32,201486.937,,,
Standby,html.Page,2_3_0,2021-04-26T20:03:20.891Z,,,,,,,,,,,,,,,,,,,,,,,,,,,,,,,8000.636999999988,,timeout,,,,,,,,,,,,,,,,,,,,,209471.44500003196,209470.91,201470.249,201456.8750000326,201486.937,209487.574,,,
Holding screen,html.Screen,2_3_1_0_0,2021-04-26T20:03:27.892Z,,,,,,,,,,,,,,,,,,,,,,,,,,,,,,,7000.4740000000165,,timeout,,,,,,,,,,,,,,,,,,,,,216472.5750000216,216471.448,209470.91,209471.59500000998,209487.574,216488.048,,,
screen,html.Screen,2_3_1_0_1_0,2021-04-26T20:03:28.544Z,,,,,,,,,,,,,,,,,2,,,,,,,,,,,,,,634.6920000207028,,response,,,,1,E,,,,,,Space,keypress(Space),,,,lyrical,,,,Two ---- ------ --- ------- ---------- ------- ----------<br>--- --------- --- ----------- ------- ----- ------- ---<br>--------- ---- -- --- ---- -- --------- -- ---- -------<br>-- --------- ------ --- ----- ------ ---- --- --------- --<br>------ - ---- -- --- ----------- ------- ---- ----- -----<br>--- -------- - ------ ---- -- ----- ---- --- --- -----------<br>-- -------,217125.0599999912,217122.7400000207,216471.448,216472.99999999814,216488.048,217138.095,,0,Two
screen,html.Screen,2_3_1_0_1_1,2021-04-26T20:03:28.959Z,,,,,,,,,,,,,,,,,2,,,,,,,,,,,,,,400.6550000651914,,response,,,,1,E,,,,,,Space,keypress(Space),,,,lyrical,,,,--- days ------ --- ------- ---------- ------- ----------<br>--- --------- --- ----------- ------- ----- ------- ---<br>--------- ---- -- --- ---- -- --------- -- ---- -------<br>-- --------- ------ --- ----- ------ ---- --- --------- --<br>------ - ---- -- --- ----------- ------- ---- ----- -----<br>--- -------- - ------ ---- -- ----- ---- --- --- -----------<br>-- -------,217540.02499999478,217538.7500000652,217121.471,217125.2150000073,217138.095,217554.827,,1,days
screen,html.Screen,2_3_1_0_1_2,2021-04-26T20:03:29.311Z,,,,,,,,,,,,,,,,,2,,,,,,,,,,,,,,335.91300006076926,,response,,,,1,E,,,,,,Space,keypress(Space),,,,lyrical,,,,"--- ---- later, --- ------- ---------- ------- ----------<br>--- --------- --- ----------- ------- ----- ------- ---<br>--------- ---- -- --- ---- -- --------- -- ---- -------<br>-- --------- ------ --- ----- ------ ---- --- --------- --<br>------ - ---- -- --- ----------- ------- ---- ----- -----<br>--- -------- - ------ ---- -- ----- ---- --- --- -----------<br>-- -------",217891.91000000574,217890.74000006076,217538.224,217540.30500003137,217554.827,217904.805,,2,"later,"
screen,html.Screen,2_3_1_0_1_3,2021-04-26T20:03:29.636Z,,,,,,,,,,,,,,,,,2,,,,,,,,,,,,,,311.23000004858477,,response,,,,1,E,,,,,,Space,keypress(Space),,,,lyrical,,,,--- ---- ------ the ------- ---------- ------- ----------<br>--- --------- --- ----------- ------- ----- ------- ---<br>--------- ---- -- --- ---- -- --------- -- ---- -------<br>-- --------- ------ --- ----- ------ ---- --- --------- --<br>------ - ---- -- --- ----------- ------- ---- ----- -----<br>--- -------- - ------ ---- -- ----- ---- --- --- -----------<br>-- -------,218217.2600000631,218216.03500004858,217888.27,217892.2400000738,217904.805,218221.476,,3,the
screen,html.Screen,2_3_1_0_1_4,2021-04-26T20:03:29.981Z,,,,,,,,,,,,,,,,,2,,,,,,,,,,,,,,339.2590000646014,,response,,,,1,E,,,,,,Space,keypress(Space),,,,lyrical,,,,--- ---- ------ --- British ---------- ------- ----------<br>--- --------- --- ----------- ------- ----- ------- ---<br>--------- ---- -- --- ---- -- --------- -- ---- -------<br>-- --------- ------ --- ----- ------ ---- --- --------- --<br>------ - ---- -- --- ----------- ------- ---- ----- -----<br>--- -------- - ------ ---- -- ----- ---- --- --- -----------<br>-- -------,218561.95500004105,218560.7350000646,218204.831,218217.5400000997,218221.476,218571.589,,4,British
screen,html.Screen,2_3_1_0_1_5,2021-04-26T20:03:30.342Z,,,,,,,,,,,,,,,,,2,,,,,,,,,,,,,,350.3360000314715,,response,,,,1,E,,,,,,Space,keypress(Space),,,,lyrical,,,,--- ---- ------ --- ------- astronomer ------- ----------<br>--- --------- --- ----------- ------- ----- ------- ---<br>--------- ---- -- --- ---- -- --------- -- ---- -------<br>-- --------- ------ --- ----- ------ ---- --- --------- --<br>------ - ---- -- --- ----------- ------- ---- ----- -----<br>--- -------- - ------ ---- -- ----- ---- --- --- -----------<br>-- -------,218923.2000000775,218921.92500003148,218554.927,218562.4100000132,218571.589,218938.284,,5,astronomer
screen,html.Screen,2_3_1_0_1_6,2021-04-26T20:03:30.797Z,,,,,,,,,,,,,,,,,2,,,,,,,,,,,,,,438.41100010086666,,response,,,,1,E,,,,,,Space,keypress(Space),,,,lyrical,,,,--- ---- ------ --- ------- ---------- Richard ----------<br>--- --------- --- ----------- ------- ----- ------- ---<br>--------- ---- -- --- ---- -- --------- -- ---- -------<br>-- --------- ------ --- ----- ------ ---- --- --------- --<br>------ - ---- -- --- ----------- ------- ---- ----- -----<br>--- -------- - ------ ---- -- ----- ---- --- --- -----------<br>-- -------,219377.9499999946,219376.69500010088,218921.537,218923.47999999765,218938.284,219388.669,,6,Richard
screen,html.Screen,2_3_1_0_1_7,2021-04-26T20:03:31.269Z,,,,,,,,,,,,,,,,,2,,,,,,,,,,,,,,459.5860000771936,,response,,,,1,E,,,,,,Space,keypress(Space),,,,lyrical,,,,--- ---- ------ --- ------- ---------- ------- Carrington<br>--- --------- --- ----------- ------- ----- ------- ---<br>--------- ---- -- --- ---- -- --------- -- ---- -------<br>-- --------- ------ --- ----- ------ ---- --- --------- --<br>------ - ---- -- --- ----------- ------- ---- ----- -----<br>--- -------- - ------ ---- -- ----- ---- --- --- -----------<br>-- -------,219849.5750000002,219848.2550000772,219371.666,219378.2399999909,219388.669,219854.919,,7,Carrington
screen,html.Screen,2_3_1_0_1_8,2021-04-26T20:03:31.670Z,,,,,,,,,,,,,,,,,2,,,,,,,,,,,,,,394.8209999992978,,response,,,,1,E,,,,,,Space,keypress(Space),,,,lyrical,,,,--- ---- ------ --- ------- ---------- ------- ----------<br>was --------- --- ----------- ------- ----- ------- ---<br>--------- ---- -- --- ---- -- --------- -- ---- -------<br>-- --------- ------ --- ----- ------ ---- --- --------- --<br>------ - ---- -- --- ----------- ------- ---- ----- -----<br>--- -------- - ------ ---- -- ----- ---- --- --- -----------<br>-- -------,220250.47000008635,220249.7399999993,219838.349,219849.8499999987,219854.919,220255.073,,8,was
screen,html.Screen,2_3_1_0_1_9,2021-04-26T20:03:32.116Z,,,,,,,,,,,,,,,,,2,,,,,,,,,,,,,,440.48200010028086,,response,,,,1,E,,,,,,Space,keypress(Space),,,,lyrical,,,,--- ---- ------ --- ------- ---------- ------- ----------<br>--- observing --- ----------- ------- ----- ------- ---<br>--------- ---- -- --- ---- -- --------- -- ---- -------<br>-- --------- ------ --- ----- ------ ---- --- --------- --<br>------ - ---- -- --- ----------- ------- ---- ----- -----<br>--- -------- - ------ ---- -- ----- ---- --- --- -----------<br>-- -------,220696.53000007384,220695.55500010028,220238.379,220250.6000000285,220255.073,220704.952,,9,observing
screen,html.Screen,2_3_1_0_1_10,2021-04-26T20:03:32.468Z,,,,,,,,,,,,,,,,,2,,,,,,,,,,,,,,342.30300009954954,,response,,,,1,E,,,,,,Space,keypress(Space),,,,lyrical,,,,--- ---- ------ --- ------- ---------- ------- ----------<br>--- --------- the ----------- ------- ----- ------- ---<br>--------- ---- -- --- ---- -- --------- -- ---- -------<br>-- --------- ------ --- ----- ------ ---- --- --------- --<br>------ - ---- -- --- ----------- ------- ---- ----- -----<br>--- -------- - ------ ---- -- ----- ---- --- --- -----------<br>-- -------,221048.47000003792,221047.25500009954,220688.433,220696.77000003867,220704.952,221055.001,,10,the
screen,html.Screen,2_3_1_0_1_11,2021-04-26T20:03:32.946Z,,,,,,,,,,,,,,,,,2,,,,,,,,,,,,,,470.6040000898647,,response,,,,1,E,,,,,,Space,keypress(Space),,,,lyrical,,,,--- ---- ------ --- ------- ---------- ------- ----------<br>--- --------- --- interesting ------- ----- ------- ---<br>--------- ---- -- --- ---- -- --------- -- ---- -------<br>-- --------- ------ --- ----- ------ ---- --- --------- --<br>------ - ---- -- --- ----------- ------- ---- ----- -----<br>--- -------- - ------ ---- -- ----- ---- --- --- -----------<br>-- -------,221526.37000009418,221525.60500008985,221038.387,221048.7500000745,221055.001,221538.349,,11,interesting
screen,html.Screen,2_3_1_0_1_12,2021-04-26T20:03:33.352Z,,,,,,,,,,,,,,,,,2,,,,,,,,,,,,,,394.06600004661595,,response,,,,1,E,,,,,,Space,keypress(Space),,,,lyrical,,,,--- ---- ------ --- ------- ---------- ------- ----------<br>--- --------- --- ----------- sunspot ----- ------- ---<br>--------- ---- -- --- ---- -- --------- -- ---- -------<br>-- --------- ------ --- ----- ------ ---- --- --------- --<br>------ - ---- -- --- ----------- ------- ---- ----- -----<br>--- -------- - ------ ---- -- ----- ---- --- --- -----------<br>-- -------,221933.01999999676,221932.4150000466,221521.885,221526.69500000775,221538.349,221938.461,,12,sunspot
screen,html.Screen,2_3_1_0_1_13,2021-04-26T20:03:33.748Z,,,,,,,,,,,,,,,,,2,,,,,,,,,,,,,,389.60400000878144,,response,,,,1,E,,,,,,Space,keypress(Space),,,,lyrical,,,,--- ---- ------ --- ------- ---------- ------- ----------<br>--- --------- --- ----------- ------- group ------- ---<br>--------- ---- -- --- ---- -- --------- -- ---- -------<br>-- --------- ------ --- ----- ------ ---- --- --------- --<br>------ - ---- -- --- ----------- ------- ---- ----- -----<br>--- -------- - ------ ---- -- ----- ---- --- --- -----------<br>-- -------,222329.250000068,222328.0650000088,221921.716,221933.11500002164,221938.461,222338.544,,13,group
screen,html.Screen,2_3_1_0_1_14,2021-04-26T20:03:34.145Z,,,,,,,,,,,,,,,,,2,,,,,,,,,,,,,,386.0410000763368,,response,,,,1,E,,,,,,Space,keypress(Space),,,,lyrical,,,,--- ---- ------ --- ------- ---------- ------- ----------<br>--- --------- --- ----------- ------- ----- through ---<br>--------- ---- -- --- ---- -- --------- -- ---- -------<br>-- --------- ------ --- ----- ------ ---- --- --------- --<br>------ - ---- -- --- ----------- ------- ---- ----- -----<br>--- -------- - ------ ---- -- ----- ---- --- --- -----------<br>-- -------,222725.84000008646,222724.58500007633,222321.829,222329.5400000643,222338.544,222738.56,,14,through
screen,html.Screen,2_3_1_0_1_15,2021-04-26T20:03:34.683Z,,,,,,,,,,,,,,,,,2,,,,,,,,,,,,,,523.4850000977167,,response,,,,1,E,,,,,,Space,keypress(Space),,,,lyrical,,,,--- ---- ------ --- ------- ---------- ------- ----------<br>--- --------- --- ----------- ------- ----- ------- his<br>--------- ---- -- --- ---- -- --------- -- ---- -------<br>-- --------- ------ --- ----- ------ ---- --- --------- --<br>------ - ---- -- --- ----------- ------- ---- ----- -----<br>--- -------- - ------ ---- -- ----- ---- --- --- -----------<br>-- -------,223263.48000008147,223262.0450000977,222721.857,222726.1250000447,222738.56,223271.846,,15,his
screen,html.Screen,2_3_1_0_1_16,2021-04-26T20:03:35.197Z,,,,,,,,,,,,,,,,,2,,,,,,,,,,,,,,504.5190000561124,,response,,,,1,E,,,,,,Space,keypress(Space),,,,lyrical,,,,--- ---- ------ --- ------- ---------- ------- ----------<br>--- --------- --- ----------- ------- ----- ------- ---<br>telescope ---- -- --- ---- -- --------- -- ---- -------<br>-- --------- ------ --- ----- ------ ---- --- --------- --<br>------ - ---- -- --- ----------- ------- ---- ----- -----<br>--- -------- - ------ ---- -- ----- ---- --- --- -----------<br>-- -------,223777.41500001866,223776.3650000561,223255.307,223263.90000001993,223271.846,223788.634,,16,telescope
screen,html.Screen,2_3_1_0_1_17,2021-04-26T20:03:35.634Z,,,,,,,,,,,,,,,,,2,,,,,,,,,,,,,,425.0410000063421,,response,,,,1,E,,,,,,Space,keypress(Space),,,,lyrical,,,,--- ---- ------ --- ------- ---------- ------- ----------<br>--- --------- --- ----------- ------- ----- ------- ---<br>--------- when -- --- ---- -- --------- -- ---- -------<br>-- --------- ------ --- ----- ------ ---- --- --------- --<br>------ - ---- -- --- ----------- ------- ---- ----- -----<br>--- -------- - ------ ---- -- ----- ---- --- --- -----------<br>-- -------,224215.25500004645,224213.67500000633,223772.009,223777.69500005525,223788.634,224221.897,,17,when
screen,html.Screen,2_3_1_0_1_18,2021-04-26T20:03:36.028Z,,,,,,,,,,,,,,,,,2,,,,,,,,,,,,,,385.4430001041619,,response,,,,1,E,,,,,,Space,keypress(Space),,,,lyrical,,,,--- ---- ------ --- ------- ---------- ------- ----------<br>--- --------- --- ----------- ------- ----- ------- ---<br>--------- ---- he --- ---- -- --------- -- ---- -------<br>-- --------- ------ --- ----- ------ ---- --- --------- --<br>------ - ---- -- --- ----------- ------- ---- ----- -----<br>--- -------- - ------ ---- -- ----- ---- --- --- -----------<br>-- -------,224608.65000006743,224607.34000010416,224205.355,224215.57500003837,224221.897,224621.923,,18,he
screen,html.Screen,2_3_1_0_1_19,2021-04-26T20:03:36.616Z,,,,,,,,,,,,,,,,,2,,,,,,,,,,,,,,573.8670000270358,,response,,,,1,E,,,,,,Space,keypress(Space),,,,lyrical,,,,--- ---- ------ --- ------- ---------- ------- ----------<br>--- --------- --- ----------- ------- ----- ------- ---<br>--------- ---- -- saw ---- -- --------- -- ---- -------<br>-- --------- ------ --- ----- ------ ---- --- --------- --<br>------ - ---- -- --- ----------- ------- ---- ----- -----<br>--- -------- - ------ ---- -- ----- ---- --- --- -----------<br>-- -------,225196.9950000057,225195.79000002705,224605.35,224608.94000006374,224621.923,225205.304,,19,saw
screen,html.Screen,2_3_1_0_1_20,2021-04-26T20:03:36.946Z,,,,,,,,,,,,,,,,,2,,,,,,,,,,,,,,320.94599999533966,,response,,,,1,E,,,,,,Space,keypress(Space),,,,lyrical,,,,--- ---- ------ --- ------- ---------- ------- ----------<br>--- --------- --- ----------- ------- ----- ------- ---<br>--------- ---- -- --- what -- --------- -- ---- -------<br>-- --------- ------ --- ----- ------ ---- --- --------- --<br>------ - ---- -- --- ----------- ------- ---- ----- -----<br>--- -------- - ------ ---- -- ----- ---- --- --- -----------<br>-- -------,225526.7200000817,225526.24999999534,225188.642,225197.28000008035,225205.304,225538.659,,20,what
screen,html.Screen,2_3_1_0_1_21,2021-04-26T20:03:37.294Z,,,,,,,,,,,,,,,,,2,,,,,,,,,,,,,,334.6060000601865,,response,,,,1,E,,,,,,Space,keypress(Space),,,,lyrical,,,,--- ---- ------ --- ------- ---------- ------- ----------<br>--- --------- --- ----------- ------- ----- ------- ---<br>--------- ---- -- --- ---- he --------- -- ---- -------<br>-- --------- ------ --- ----- ------ ---- --- --------- --<br>------ - ---- -- --- ----------- ------- ---- ----- -----<br>--- -------- - ------ ---- -- ----- ---- --- --- -----------<br>-- -------,225874.46000007913,225873.2650000602,225522.067,225526.81499999017,225538.659,225888.745,,21,he
screen,html.Screen,2_3_1_0_1_22,2021-04-26T20:03:37.619Z,,,,,,,,,,,,,,,,,2,,,,,,,,,,,,,,310.1300000018673,,response,,,,1,E,,,,,,Space,keypress(Space),,,,lyrical,,,,--- ---- ------ --- ------- ---------- ------- ----------<br>--- --------- --- ----------- ------- ----- ------- ---<br>--------- ---- -- --- ---- -- described -- ---- -------<br>-- --------- ------ --- ----- ------ ---- --- --------- --<br>------ - ---- -- --- ----------- ------- ---- ----- -----<br>--- -------- - ------ ---- -- ----- ---- --- --- -----------<br>-- -------,226199.43999999668,226198.87500000186,225872.056,225874.73000003956,225888.745,226205.315,,22,described
screen,html.Screen,2_3_1_0_1_23,2021-04-26T20:03:37.956Z,,,,,,,,,,,,,,,,,2,,,,,,,,,,,,,,329.9750000289059,,response,,,,1,E,,,,,,Space,keypress(Space),,,,lyrical,,,,--- ---- ------ --- ------- ---------- ------- ----------<br>--- --------- --- ----------- ------- ----- ------- ---<br>--------- ---- -- --- ---- -- --------- as ---- -------<br>-- --------- ------ --- ----- ------ ---- --- --------- --<br>------ - ---- -- --- ----------- ------- ---- ----- -----<br>--- -------- - ------ ---- -- ----- ---- --- --- -----------<br>-- -------,226537.1349999914,226535.2900000289,226188.811,226199.56500001717,226205.315,226538.668,,23,as
screen,html.Screen,2_3_1_0_1_24,2021-04-26T20:03:38.358Z,,,,,,,,,,,,,,,,,2,,,,,,,,,,,,,,398.50200004834915,,response,,,,1,E,,,,,,Space,keypress(Space),,,,lyrical,,,,"--- ---- ------ --- ------- ---------- ------- ----------<br>--- --------- --- ----------- ------- ----- ------- ---<br>--------- ---- -- --- ---- -- --------- -- ""two -------<br>-- --------- ------ --- ----- ------ ---- --- --------- --<br>------ - ---- -- --- ----------- ------- ---- ----- -----<br>--- -------- - ------ ---- -- ----- ---- --- --- -----------<br>-- -------",226938.42000002041,226937.17000004835,226522.139,226537.3200000031,226538.668,226955.518,,24,"""two"
screen,html.Screen,2_3_1_0_1_25,2021-04-26T20:03:38.770Z,,,,,,,,,,,,,,,,,2,,,,,,,,,,,,,,394.3070000411535,,response,,,,1,E,,,,,,Space,keypress(Space),,,,lyrical,,,,--- ---- ------ --- ------- ---------- ------- ----------<br>--- --------- --- ----------- ------- ----- ------- ---<br>--------- ---- -- --- ---- -- --------- -- ---- patches<br>-- --------- ------ --- ----- ------ ---- --- --------- --<br>------ - ---- -- --- ----------- ------- ---- ----- -----<br>--- -------- - ------ ---- -- ----- ---- --- --- -----------<br>-- -------,227351.14500008058,227349.82500004116,226938.749,226938.70500009507,226955.518,227355.402,,25,patches
screen,html.Screen,2_3_1_0_1_26,2021-04-26T20:03:39.178Z,,,,,,,,,,,,,,,,,2,,,,,,,,,,,,,,403.0530000028666,,response,,,,1,E,,,,,,Space,keypress(Space),,,,lyrical,,,,--- ---- ------ --- ------- ---------- ------- ----------<br>--- --------- --- ----------- ------- ----- ------- ---<br>--------- ---- -- --- ---- -- --------- -- ---- -------<br>of --------- ------ --- ----- ------ ---- --- --------- --<br>------ - ---- -- --- ----------- ------- ---- ----- -----<br>--- -------- - ------ ---- -- ----- ---- --- --- -----------<br>-- -------,227759.27000003867,227758.45500000287,227338.933,227351.65500000585,227355.402,227772.23,,26,of
screen,html.Screen,2_3_1_0_1_27,2021-04-26T20:03:39.625Z,,,,,,,,,,,,,,,,,2,,,,,,,,,,,,,,432.4999999976426,,response,,,,1,E,,,,,,Space,keypress(Space),,,,lyrical,,,,--- ---- ------ --- ------- ---------- ------- ----------<br>--- --------- --- ----------- ------- ----- ------- ---<br>--------- ---- -- --- ---- -- --------- -- ---- -------<br>-- intensely ------ --- ----- ------ ---- --- --------- --<br>------ - ---- -- --- ----------- ------- ---- ----- -----<br>--- -------- - ------ ---- -- ----- ---- --- --- -----------<br>-- -------,228205.51500003785,228204.72999999765,227755.584,227759.47500008624,227772.23,228222.22,,27,intensely
screen,html.Screen,2_3_1_0_1_28,2021-04-26T20:03:40.005Z,,,,,,,,,,,,,,,,,2,,,,,,,,,,,,,,362.6950000140059,,response,,,,1,E,,,,,,Space,keypress(Space),,,,lyrical,,,,--- ---- ------ --- ------- ---------- ------- ----------<br>--- --------- --- ----------- ------- ----- ------- ---<br>--------- ---- -- --- ---- -- --------- -- ---- -------<br>-- --------- bright --- ----- ------ ---- --- --------- --<br>------ - ---- -- --- ----------- ------- ---- ----- -----<br>--- -------- - ------ ---- -- ----- ---- --- --- -----------<br>-- -------,228585.7750000432,228584.915000014,228205.597,228205.67000005394,228222.22,228588.854,,28,bright
screen,html.Screen,2_3_1_0_1_29,2021-04-26T20:03:40.416Z,,,,,,,,,,,,,,,,,2,,,,,,,,,,,,,,407.2360000296612,,response,,,,1,E,,,,,,Space,keypress(Space),,,,lyrical,,,,--- ---- ------ --- ------- ---------- ------- ----------<br>--- --------- --- ----------- ------- ----- ------- ---<br>--------- ---- -- --- ---- -- --------- -- ---- -------<br>-- --------- ------ and ----- ------ ---- --- --------- --<br>------ - ---- -- --- ----------- ------- ---- ----- -----<br>--- -------- - ------ ---- -- ----- ---- --- --- -----------<br>-- -------,228997.1450000303,228996.09000002965,228572.294,228585.9950000886,228588.854,229005.606,,29,and
screen,html.Screen,2_3_1_0_1_30,2021-04-26T20:03:40.782Z,,,,,,,,,,,,,,,,,2,,,,,,,,,,,,,,356.27400009860867,,response,,,,1,E,,,,,,Space,keypress(Space),,,,lyrical,,,,--- ---- ------ --- ------- ---------- ------- ----------<br>--- --------- --- ----------- ------- ----- ------- ---<br>--------- ---- -- --- ---- -- --------- -- ---- -------<br>-- --------- ------ --- white ------ ---- --- --------- --<br>------ - ---- -- --- ----------- ------- ---- ----- -----<br>--- -------- - ------ ---- -- ----- ---- --- --- -----------<br>-- -------,229363.17500006407,229361.8800000986,228989.03,228997.42500006687,229005.606,229372.463,,30,white
screen,html.Screen,2_3_1_0_1_31,2021-04-26T20:03:41.131Z,,,,,,,,,,,,,,,,,2,,,,,,,,,,,,,,338.30200008349493,,response,,,,1,E,,,,,,Space,keypress(Space),,,,lyrical,,,,"--- ---- ------ --- ------- ---------- ------- ----------<br>--- --------- --- ----------- ------- ----- ------- ---<br>--------- ---- -- --- ---- -- --------- -- ---- -------<br>-- --------- ------ --- ----- light"" ---- --- --------- --<br>------ - ---- -- --- ----------- ------- ---- ----- -----<br>--- -------- - ------ ---- -- ----- ---- --- --- -----------<br>-- -------",229712.07000000868,229710.76500008348,229355.662,229363.6150000384,229372.463,229722.361,,31,"light"""
screen,html.Screen,2_3_1_0_1_32,2021-04-26T20:03:41.578Z,,,,,,,,,,,,,,,,,2,,,,,,,,,,,,,,435.1690000840754,,response,,,,1,E,,,,,,Space,keypress(Space),,,,lyrical,,,,--- ---- ------ --- ------- ---------- ------- ----------<br>--- --------- --- ----------- ------- ----- ------- ---<br>--------- ---- -- --- ---- -- --------- -- ---- -------<br>-- --------- ------ --- ----- ------ over --- --------- --<br>------ - ---- -- --- ----------- ------- ---- ----- -----<br>--- -------- - ------ ---- -- ----- ---- --- --- -----------<br>-- -------,230158.38000003714,230157.53000008408,229705.722,229712.35500008333,229722.361,230172.386,,32,over
screen,html.Screen,2_3_1_0_1_33,2021-04-26T20:03:41.959Z,,,,,,,,,,,,,,,,,2,,,,,,,,,,,,,,366.5490000768914,,response,,,,1,E,,,,,,Space,keypress(Space),,,,lyrical,,,,--- ---- ------ --- ------- ---------- ------- ----------<br>--- --------- --- ----------- ------- ----- ------- ---<br>--------- ---- -- --- ---- -- --------- -- ---- -------<br>-- --------- ------ --- ----- ------ ---- the --------- --<br>------ - ---- -- --- ----------- ------- ---- ----- -----<br>--- -------- - ------ ---- -- ----- ---- --- --- -----------<br>-- -------,230540.06500006653,230538.9350000769,230155.791,230158.58000004664,230172.386,230555.735,,33,the
screen,html.Screen,2_3_1_0_1_34,2021-04-26T20:03:42.385Z,,,,,,,,,,,,,,,,,2,,,,,,,,,,,,,,408.8150000333553,,response,,,,1,E,,,,,,Space,keypress(Space),,,,lyrical,,,,--- ---- ------ --- ------- ---------- ------- ----------<br>--- --------- --- ----------- ------- ----- ------- ---<br>--------- ---- -- --- ---- -- --------- -- ---- -------<br>-- --------- ------ --- ----- ------ ---- --- sunspots. --<br>------ - ---- -- --- ----------- ------- ---- ----- -----<br>--- -------- - ------ ---- -- ----- ---- --- --- -----------<br>-- -------,230965.36500006914,230964.55000003334,230539.12,230540.35000002477,230555.735,230972.397,,34,sunspots.
screen,html.Screen,2_3_1_0_1_35,2021-04-26T20:03:42.984Z,,,,,,,,,,,,,,,,,2,,,,,,,,,,,,,,590.5980000438867,,response,,,,1,E,,,,,,Space,keypress(Space),,,,lyrical,,,,--- ---- ------ --- ------- ---------- ------- ----------<br>--- --------- --- ----------- ------- ----- ------- ---<br>--------- ---- -- --- ---- -- --------- -- ---- -------<br>-- --------- ------ --- ----- ------ ---- --- --------- He<br>------ - ---- -- --- ----------- ------- ---- ----- -----<br>--- -------- - ------ ---- -- ----- ---- --- --- -----------<br>-- -------,231564.6200000774,231562.99500004388,230955.827,230965.5550000025,230972.397,231572.35,,35,He
screen,html.Screen,2_3_1_0_1_36,2021-04-26T20:03:43.412Z,,,,,,,,,,,,,,,,,2,,,,,,,,,,,,,,419.5149999890418,,response,,,,1,E,,,,,,Space,keypress(Space),,,,lyrical,,,,--- ---- ------ --- ------- ---------- ------- ----------<br>--- --------- --- ----------- ------- ----- ------- ---<br>--------- ---- -- --- ---- -- --------- -- ---- -------<br>-- --------- ------ --- ----- ------ ---- --- --------- --<br>jotted - ---- -- --- ----------- ------- ---- ----- -----<br>--- -------- - ------ ---- -- ----- ---- --- --- -----------<br>-- -------,231993.03000001237,231991.86499998905,231555.906,231564.72500006203,231572.35,232005.824,,36,jotted
