sender,sender_type,sender_id,timestamp,meta,,Blues,Classical,Country,Dance,Electronic,Folk,Gospel,Hip-Hop,Jazz,Latin,Musical/Film,New-age,Pop,Prolific_id,Provo_ID,R&B,Rap,Reggae,Religious,Rock,Soul,Swing,Traditional,age,artist_name,correct,correctResponse,distraction,duration,education,ended_on,familiarity,gender,headphone_check_performance,item,list,music_frequency,offensiveness,pleasantness,position_correct,preference,response,response_action,snippet_file,song_name,song_rating,sound,stimulus_1,stimulus_2,stimulus_3,text,time_commit,time_end,time_render,time_run,time_show,time_switch,url,word,word_ID
Prolific ID,html.Form,0,2021-04-24T15:34:02.793Z,"{""labjs_version"":""20.2.2"",""labjs_build"":{""flavor"":""production"",""commit"":""a25486e0c714a0ae2ce03ff94b7bb6896854dcfa""},""location"":""https://run.pavlovia.org/mvasilev/prolific_music_d/"",""userAgent"":""Mozilla/5.0 (Macintosh; Intel Mac OS X 10_14_6) AppleWebKit/537.36 (KHTML, like Gecko) Chrome/89.0.4389.128 Safari/537.36"",""platform"":""MacIntel"",""language"":""en-GB"",""locale"":""en-GB"",""timeZone"":""Europe/London"",""timezoneOffset"":-60,""screen_width"":1440,""screen_height"":900,""scroll_width"":1440,""scroll_height"":663,""window_innerWidth"":1440,""window_innerHeight"":711,""devicePixelRatio"":2}",,,,,,,,,,,,,,,5fac5c4a38cf5c215aa22726,,,,,,,,,,,,,,,5749.489999998725,,form submission,,,,,,,,,,,,,,,,,,,,,16758.89499999903,16758.474999998725,10992.319,10998.079999997572,11008.985,16765.211,{},,
Introduction,html.Screen,1_0,2021-04-24T15:34:09.839Z,,,,,,,,,,,,,,,,,,,,,,,,,,,,,,,7037.188999996852,,response,,,,,,,,,,,continue,click button,,,,,,,,,23805.570000000444,23802.39999999685,16748.545,16759.154999999737,16765.211,23807.782,,,
Volume calibration,html.Screen,1_1,2021-04-24T15:34:26.496Z,,,,,,,,,,,,,,,,,,,,,,,,,,,,,,,16650.262999999402,,response,,,,,,,,,,,continue,click button,,,,,,,,,40461.71999999933,40458.0449999994,23791.116,23805.74499999784,23807.782,40460.755,,,
Task instructions,html.Screen,1_2,2021-04-24T15:34:32.732Z,,,,,,,,,,,,,,,,,,,,,,,,,,,,,,,6235.059999999132,,response,,,,,,,,,,,continue,click button,,,,,,,,,46697.439999999915,46695.81499999913,40444.089,40461.834999998246,40460.755,46698.267,,,
Sounds,html.Screen,1_3_0_0,2021-04-24T15:34:36.970Z,,,,,,,,,,,,,,,,,,,,,,,,,,,,,,,4249.830000000002,,timeout,,,,,,,,,1,,,,,,,,S,I,O,,50935.13999999777,50931.431,46681.601,46697.635000000446,46698.267,50948.097,,,
Judgement,html.Screen,1_3_0_1,2021-04-24T15:34:38.626Z,,,,,,,,,,,,,,,,,,,,,,,,,,,,true,1,,1641.7630000000427,,response,,,,,,,,,1,,1,click #choice-1,,,,,S,I,O,,52591.819999997824,52589.860000000044,50931.431,50935.28999999762,50948.097,52598.031,,,
Trial,flow.Sequence,1_3_0,2021-04-24T15:34:38.627Z,,,,,,,,,,,,,,,,,,,,,,,,,,,,,,,5891.593000000044,,completion,,,,,,,,,1,,,,,,,,S,I,O,,52592.11499999947,52589.860000000044,46681.601,46697.59499999782,46698.267,52598.031,,,
Sounds,html.Screen,1_3_1_0,2021-04-24T15:34:42.868Z,,,,,,,,,,,,,,,,,,,,,,,,,,,,,,,4249.8299999999945,,timeout,,,,,,,,,3,,,,,,,,O,I,S,,56833.01500000016,56831.195,52581.365,52592.249999997875,52598.031,56847.861,,,
Judgement,html.Screen,1_3_1_1,2021-04-24T15:34:43.572Z,,,,,,,,,,,,,,,,,,,,,,,,,,,,true,3,,687.8789999993533,,response,,,,,,,,,3,,3,click #choice-3,,,,,O,I,S,,57537.35500000039,57535.73999999935,56831.195,56833.14999999857,56847.861,57546.122,,,
Trial,flow.Sequence,1_3_1,2021-04-24T15:34:43.572Z,,,,,,,,,,,,,,,,,,,,,,,,,,,,,,,4937.708999999348,,completion,,,,,,,,,3,,,,,,,,O,I,S,,57537.54499999923,57535.73999999935,52581.365,52592.20499999719,52598.031,57546.122,,,
Sounds,html.Screen,1_3_2_0,2021-04-24T15:34:47.815Z,,,,,,,,,,,,,,,,,,,,,,,,,,,,,,,4249.8299999999945,,timeout,,,,,,,,,3,,,,,,,,I,O,S,,61780.329999997775,61779.286,57529.456,57537.64999999839,57546.122,61795.952,,,
Judgement,html.Screen,1_3_2_1,2021-04-24T15:34:48.517Z,,,,,,,,,,,,,,,,,,,,,,,,,,,,true,3,,685.1979999996183,,response,,,,,,,,,3,,3,click #choice-3,,,,,I,O,S,,62482.87999999957,62481.149999999616,61779.286,61780.42999999889,61795.952,62495.924,,,
Trial,flow.Sequence,1_3_2,2021-04-24T15:34:48.518Z,,,,,,,,,,,,,,,,,,,,,,,,,,,,,,,4935.027999999613,,completion,,,,,,,,,3,,,,,,,,I,O,S,,62483.039999999164,62481.149999999616,57529.456,57537.61999999915,57546.122,62495.924,,,
Sounds,html.Screen,1_3_3_0,2021-04-24T15:34:52.766Z,,,,,,,,,,,,,,,,,,,,,,,,,,,,,,,4249.830000000002,,timeout,,,,,,,,,1,,,,,,,,S,O,I,,66731.65999999765,66729.088,62479.258,62483.17499999757,62495.924,66745.754,,,
Judgement,html.Screen,1_3_3_1,2021-04-24T15:34:54.546Z,,,,,,,,,,,,,,,,,,,,,,,,,,,,false,1,,1763.8860000002169,,response,,,,,,,,,1,,3,click #choice-3,,,,,S,O,I,,68511.23499999812,68509.64000000022,66729.088,66731.79499999969,66745.754,68521.171,,,
Trial,flow.Sequence,1_3_3,2021-04-24T15:34:54.546Z,,,,,,,,,,,,,,,,,,,,,,,,,,,,,,,6013.716000000219,,completion,,,,,,,,,1,,,,,,,,S,O,I,,68511.38999999966,68509.64000000022,62479.258,62483.13499999858,62495.924,68521.171,,,
Sounds,html.Screen,1_3_4_0,2021-04-24T15:34:58.791Z,,,,,,,,,,,,,,,,,,,,,,,,,,,,,,,4249.830000000002,,timeout,,,,,,,,,2,,,,,,,,O,S,I,,72756.29499999923,72754.335,68504.505,68511.48999999714,68521.171,72771.001,,,
Judgement,html.Screen,1_3_4_1,2021-04-24T15:34:59.388Z,,,,,,,,,,,,,,,,,,,,,,,,,,,,true,2,,580.9989999989484,,response,,,,,,,,,2,,2,click #choice-2,,,,,O,S,I,,73353.59499999686,73351.99999999895,72754.335,72756.40999999814,72771.001,73354.311,,,
Trial,flow.Sequence,1_3_4,2021-04-24T15:34:59.389Z,,,,,,,,,,,,,,,,,,,,,,,,,,,,,,,4830.82899999895,,completion,,,,,,,,,2,,,,,,,,O,S,I,,73353.73999999865,73351.99999999895,68504.505,68511.4599999979,68521.171,73354.311,,,
Sounds,html.Screen,1_3_5_0,2021-04-24T15:35:03.624Z,,,,,,,,,,,,,,,,,,,,,,,,,,,,,,,4249.830000000002,,timeout,,,,,,,,,2,,,,,,,,I,S,O,,77589.46999999898,77587.475,73337.645,73353.83499999807,73354.311,77604.141,,,
Judgement,html.Screen,1_3_5_1,2021-04-24T15:35:04.134Z,,,,,,,,,,,,,,,,,,,,,,,,,,,,true,2,,493.5540000003821,,response,,,,,,,,,2,,2,click #choice-2,,,,,I,S,O,,78099.33999999703,78097.69500000039,77587.475,77589.59999999934,77604.141,78112.753,,,
Trial,flow.Sequence,1_3_5,2021-04-24T15:35:04.134Z,,,,,,,,,,,,,,,,,,,,,,,,,,,,,,,4743.384000000384,,completion,,,,,,,,,2,,,,,,,,I,S,O,,78099.47999999713,78097.69500000039,73337.645,73353.80499999883,73354.311,78112.753,,,
Task,flow.Loop,1_3,2021-04-24T15:35:04.138Z,,,,,,,,,,,,,,,,,,,,,,,,,,,,,,,31399.428000000386,,completion,,,0.8333333333333334,,,,,,,,,,,,,,,,,,78103.42499999751,78097.69500000039,46681.601,46697.54499999908,46698.267,78112.753,,,
Trap,html.Screen,1_4,2021-04-24T15:35:04.140Z,,,,,,,,,,,,,,,,,,,,,,,,,,,,,,,NaN,,skipped,,,,,,,,,,,,,,,,,,,,,78105.0299999988,78097.69500000039,,78104.89999999845,,78112.753,,,
Thanks,html.Screen,1_5,2021-04-24T15:35:06.724Z,,,,,,,,,,,,,,,,,,,,,,,,,,,,,,,2575.261999999726,,response,,,,,,,,,,,continue,click button,,,,,,,,,80689.33499999912,80688.01499999972,78096.087,78105.12499999822,78112.753,86512.417,,,
Headphone screening,flow.Sequence,1,2021-04-24T15:35:06.724Z,,,,,,,,,,,,,,,,,,,,,,,,,,,,,,,63922.80399999973,,completion,,,,,,,,,,,,,,,,,,,,,80689.47999999727,80688.01499999972,16748.545,16759.12999999855,16765.211,86512.417,,,
Instructions,html.Page,2_0,2021-04-24T15:35:38.003Z,,,,,,,,,,,,,,,,,,,,,,,,,,,,,,,25454.24799999992,,form submission,,,,,,,,,,,,,,,,,,,,,111966.92499999699,111966.66499999992,86495.751,86507.70999999804,86512.417,111977.652,,,
Holding screen,html.Screen,2_1_0_0,2021-04-24T15:35:47.998Z,,,,,,,,,,,,,,,,,,,,,,,,,,,,,,,9999.599999999991,,timeout,,,,,,,,,,,,,,,,,,,,,121961.73999999883,121960.586,111960.986,111967.11499999947,111977.652,121977.252,,,
screen,html.Screen,2_1_0_1_0,2021-04-24T15:35:50.106Z,,,,,,,,,,,,,,,,,53,,,,,,,,,,,,,,2087.572999997661,,response,,,,99,,,,,,,Space,keypress(Space),,,,,,,,When -- ----- -- ------ - ------- --- ----------<br>------------- ------ ------ ---- ---- ------- ----- -- ----<br>-------- ------- -- ---------- --- - --- ----- ----- ----<br>---- --- --- ----- --- ---- ---- ------- ----- ---- -------<br>--- --- -- ----- -- --- ---- -- --- ---- -- ------ ------<br>--- ----- -- ----,124070.43999999951,124064.82499999765,121960.586,121962.00999999928,121977.252,124082.621,,0,When
screen,html.Screen,2_1_0_1_1,2021-04-24T15:35:50.937Z,,,,,,,,,,,,,,,,,53,,,,,,,,,,,,,,816.2189999980183,,response,,,,99,,,,,,,Space,keypress(Space),,,,,,,,---- it ----- -- ------ - ------- --- ----------<br>------------- ------ ------ ---- ---- ------- ----- -- ----<br>-------- ------- -- ---------- --- - --- ----- ----- ----<br>---- --- --- ----- --- ---- ---- ------- ----- ---- -------<br>--- --- -- ----- -- --- ---- -- --- ---- -- ------ ------<br>--- ----- -- ----,124901.58999999767,124898.83999999802,124065.955,124070.56000000011,124082.621,124915.921,,1,it
screen,html.Screen,2_1_0_1_2,2021-04-24T15:35:51.516Z,,,,,,,,,,,,,,,,,53,,,,,,,,,,,,,,561.8439999996335,,response,,,,99,,,,,,,Space,keypress(Space),,,,,,,,---- -- comes -- ------ - ------- --- ----------<br>------------- ------ ------ ---- ---- ------- ----- -- ----<br>-------- ------- -- ---------- --- - --- ----- ----- ----<br>---- --- --- ----- --- ---- ---- ------- ----- ---- -------<br>--- --- -- ----- -- --- ---- -- --- ---- -- ------ ------<br>--- ----- -- ----,125480.6299999982,125477.76499999964,124899.255,124901.70500000022,124915.921,125482.565,,2,comes
screen,html.Screen,2_1_0_1_3,2021-04-24T15:35:51.994Z,,,,,,,,,,,,,,,,,53,,,,,,,,,,,,,,472.86499999815715,,response,,,,99,,,,,,,Space,keypress(Space),,,,,,,,---- -- ----- to ------ - ------- --- ----------<br>------------- ------ ------ ---- ---- ------- ----- -- ----<br>-------- ------- -- ---------- --- - --- ----- ----- ----<br>---- --- --- ----- --- ---- ---- ------- ----- ---- -------<br>--- --- -- ----- -- --- ---- -- --- ---- -- ------ ------<br>--- ----- -- ----,125958.06999999695,125955.42999999816,125465.899,125480.74499999711,125482.565,125965.879,,3,to
screen,html.Screen,2_1_0_1_4,2021-04-24T15:35:52.485Z,,,,,,,,,,,,,,,,,53,,,,,,,,,,,,,,480.8159999987256,,response,,,,99,,,,,,,Space,keypress(Space),,,,,,,,---- -- ----- -- having - ------- --- ----------<br>------------- ------ ------ ---- ---- ------- ----- -- ----<br>-------- ------- -- ---------- --- - --- ----- ----- ----<br>---- --- --- ----- --- ---- ---- ------- ----- ---- -------<br>--- --- -- ----- -- --- ---- -- --- ---- -- ------ ------<br>--- ----- -- ----,126449.32999999946,126446.69499999873,125949.213,125958.88999999806,125965.879,126465.859,,4,having
screen,html.Screen,2_1_0_1_5,2021-04-24T15:35:52.940Z,,,,,,,,,,,,,,,,,53,,,,,,,,,,,,,,435.7959999978484,,response,,,,99,,,,,,,Space,keypress(Space),,,,,,,,---- -- ----- -- ------ a ------- --- ----------<br>------------- ------ ------ ---- ---- ------- ----- -- ----<br>-------- ------- -- ---------- --- - --- ----- ----- ----<br>---- --- --- ----- --- ---- ---- ------- ----- ---- -------<br>--- --- -- ----- -- --- ---- -- --- ---- -- ------ ------<br>--- ----- -- ----,126904.47999999742,126901.65499999785,126449.193,126449.45000000007,126465.859,126915.841,,5,a
screen,html.Screen,2_1_0_1_6,2021-04-24T15:35:53.362Z,,,,,,,,,,,,,,,,,53,,,,,,,,,,,,,,407.8040000003966,,response,,,,99,,,,,,,Space,keypress(Space),,,,,,,,---- -- ----- -- ------ - lasting --- ----------<br>------------- ------ ------ ---- ---- ------- ----- -- ----<br>-------- ------- -- ---------- --- - --- ----- ----- ----<br>---- --- --- ----- --- ---- ---- ------- ----- ---- -------<br>--- --- -- ----- -- --- ---- -- --- ---- -- ------ ------<br>--- ----- -- ----,127326.34499999767,127323.6450000004,126899.175,126904.59499999997,126915.841,127332.491,,6,lasting
screen,html.Screen,2_1_0_1_7,2021-04-24T15:35:53.798Z,,,,,,,,,,,,,,,,,53,,,,,,,,,,,,,,426.23399999969115,,response,,,,99,,,,,,,Space,keypress(Space),,,,,,,,---- -- ----- -- ------ - ------- and ----------<br>------------- ------ ------ ---- ---- ------- ----- -- ----<br>-------- ------- -- ---------- --- - --- ----- ----- ----<br>---- --- --- ----- --- ---- ---- ------- ----- ---- -------<br>--- --- -- ----- -- --- ---- -- --- ---- -- ------ ------<br>--- ----- -- ----,127761.65499999843,127758.72499999969,127315.825,127326.46499999828,127332.491,127765.807,,7,and
screen,html.Screen,2_1_0_1_8,2021-04-24T15:35:54.242Z,,,,,,,,,,,,,,,,,53,,,,,,,,,,,,,,437.7629999978526,,response,,,,99,,,,,,,Space,keypress(Space),,,,,,,,---- -- ----- -- ------ - ------- --- fulfilling<br>------------- ------ ------ ---- ---- ------- ----- -- ----<br>-------- ------- -- ---------- --- - --- ----- ----- ----<br>---- --- --- ----- --- ---- ---- ------- ----- ---- -------<br>--- --- -- ----- -- --- ---- -- --- ---- -- ------ ------<br>--- ----- -- ----,128206.28999999826,128203.56999999785,127749.141,127761.76999999734,127765.807,128215.789,,8,fulfilling
screen,html.Screen,2_1_0_1_9,2021-04-24T15:35:54.667Z,,,,,,,,,,,,,,,,,53,,,,,,,,,,,,,,412.850999998991,,response,,,,99,,,,,,,Space,keypress(Space),,,,,,,,"---- -- ----- -- ------ - ------- --- ----------<br>relationship, ------ ------ ---- ---- ------- ----- -- ----<br>-------- ------- -- ---------- --- - --- ----- ----- ----<br>---- --- --- ----- --- ---- ---- ------- ----- ---- -------<br>--- --- -- ----- -- --- ---- -- --- ---- -- ------ ------<br>--- ----- -- ----",128631.56499999968,128628.639999999,128199.123,128206.40499999718,128215.789,128632.439,,9,"relationship,"
screen,html.Screen,2_1_0_1_10,2021-04-24T15:35:55.082Z,,,,,,,,,,,,,,,,,53,,,,,,,,,,,,,,411.1759999986825,,response,,,,99,,,,,,,Space,keypress(Space),,,,,,,,---- -- ----- -- ------ - ------- --- ----------<br>------------- common ------ ---- ---- ------- ----- -- ----<br>-------- ------- -- ---------- --- - --- ----- ----- ----<br>---- --- --- ----- --- ---- ---- ------- ----- ---- -------<br>--- --- -- ----- -- --- ---- -- --- ---- -- ------ ------<br>--- ----- -- ----,129046.37999999977,129043.61499999868,128615.773,128631.6799999986,128632.439,129049.089,,10,common
screen,html.Screen,2_1_0_1_11,2021-04-24T15:35:55.502Z,,,,,,,,,,,,,,,,,53,,,,,,,,,,,,,,414.471000000136,,response,,,,99,,,,,,,Space,keypress(Space),,,,,,,,---- -- ----- -- ------ - ------- --- ----------<br>------------- ------ wisdom ---- ---- ------- ----- -- ----<br>-------- ------- -- ---------- --- - --- ----- ----- ----<br>---- --- --- ----- --- ---- ---- ------- ----- ---- -------<br>--- --- -- ----- -- --- ---- -- --- ---- -- ------ ------<br>--- ----- -- ----,129466.4649999977,129463.56000000014,129032.423,129046.49499999869,129049.089,129482.405,,11,wisdom
screen,html.Screen,2_1_0_1_12,2021-04-24T15:35:55.945Z,,,,,,,,,,,,,,,,,53,,,,,,,,,,,,,,424.1799999969953,,response,,,,99,,,,,,,Space,keypress(Space),,,,,,,,---- -- ----- -- ------ - ------- --- ----------<br>------------- ------ ------ says ---- ------- ----- -- ----<br>-------- ------- -- ---------- --- - --- ----- ----- ----<br>---- --- --- ----- --- ---- ---- ------- ----- ---- -------<br>--- --- -- ----- -- --- ---- -- --- ---- -- ------ ------<br>--- ----- -- ----,129909.3249999969,129906.584999997,129465.739,129466.58000000025,129482.405,129915.721,,12,says
screen,html.Screen,2_1_0_1_13,2021-04-24T15:35:56.382Z,,,,,,,,,,,,,,,,,53,,,,,,,,,,,,,,427.6640000001207,,response,,,,99,,,,,,,Space,keypress(Space),,,,,,,,---- -- ----- -- ------ - ------- --- ----------<br>------------- ------ ------ ---- that ------- ----- -- ----<br>-------- ------- -- ---------- --- - --- ----- ----- ----<br>---- --- --- ----- --- ---- ---- ------- ----- ---- -------<br>--- --- -- ----- -- --- ---- -- --- ---- -- ------ ------<br>--- ----- -- ----,130346.15999999733,130343.38500000013,129899.055,129909.43999999945,129915.721,130349.037,,13,that
screen,html.Screen,2_1_0_1_14,2021-04-24T15:35:56.837Z,,,,,,,,,,,,,,,,,53,,,,,,,,,,,,,,449.4479999993491,,response,,,,99,,,,,,,Space,keypress(Space),,,,,,,,---- -- ----- -- ------ - ------- --- ----------<br>------------- ------ ------ ---- ---- feeling ----- -- ----<br>-------- ------- -- ---------- --- - --- ----- ----- ----<br>---- --- --- ----- --- ---- ---- ------- ----- ---- -------<br>--- --- -- ----- -- --- ---- -- --- ---- -- ------ ------<br>--- ----- -- ----,130801.21999999756,130798.48499999935,130332.371,130346.27499999988,130349.037,130815.685,,14,feeling
screen,html.Screen,2_1_0_1_15,2021-04-24T15:35:57.273Z,,,,,,,,,,,,,,,,,53,,,,,,,,,,,,,,418.6050000003306,,response,,,,99,,,,,,,Space,keypress(Space),,,,,,,,---- -- ----- -- ------ - ------- --- ----------<br>------------- ------ ------ ---- ---- ------- close -- ----<br>-------- ------- -- ---------- --- - --- ----- ----- ----<br>---- --- --- ----- --- ---- ---- ------- ----- ---- -------<br>--- --- -- ----- -- --- ---- -- --- ---- -- ------ ------<br>--- ----- -- ----,131236.86499999894,131234.29000000033,130799.019,130801.33999999816,130815.685,131249.001,,15,close
screen,html.Screen,2_1_0_1_16,2021-04-24T15:35:57.650Z,,,,,,,,,,,,,,,,,53,,,,,,,,,,,,,,362.5489999978163,,response,,,,99,,,,,,,Space,keypress(Space),,,,,,,,---- -- ----- -- ------ - ------- --- ----------<br>------------- ------ ------ ---- ---- ------- ----- to ----<br>-------- ------- -- ---------- --- - --- ----- ----- ----<br>---- --- --- ----- --- ---- ---- ------- ----- ---- -------<br>--- --- -- ----- -- --- ---- -- --- ---- -- ------ ------<br>--- ----- -- ----,131614.39499999688,131611.5499999978,131232.335,131236.98499999955,131249.001,131615.653,,16,to
screen,html.Screen,2_1_0_1_17,2021-04-24T15:35:58.632Z,,,,,,,,,,,,,,,,,53,,,,,,,,,,,,,,977.9269999970275,,response,,,,99,,,,,,,Space,keypress(Space),,,,,,,,---- -- ----- -- ------ - ------- --- ----------<br>------------- ------ ------ ---- ---- ------- ----- -- your<br>-------- ------- -- ---------- --- - --- ----- ----- ----<br>---- --- --- ----- --- ---- ---- ------- ----- ---- -------<br>--- --- -- ----- -- --- ---- -- --- ---- -- ------ ------<br>--- ----- -- ----,132596.28499999963,132593.57999999702,131598.987,131614.51499999748,131615.653,132608.987,,17,your
screen,html.Screen,2_1_0_1_18,2021-04-24T15:35:59.741Z,,,,,,,,,,,,,,,,,53,,,,,,,,,,,,,,1092.4429999973509,,response,,,,99,,,,,,,Space,keypress(Space),,,,,,,,---- -- ----- -- ------ - ------- --- ----------<br>------------- ------ ------ ---- ---- ------- ----- -- ----<br>romantic ------- -- ---------- --- - --- ----- ----- ----<br>---- --- --- ----- --- ---- ---- ------- ----- ---- -------<br>--- --- -- ----- -- --- ---- -- --- ---- -- ------ ------<br>--- ----- -- ----,133704.565,133701.42999999734,132592.321,132596.40500000023,132608.987,133708.943,,18,romantic
screen,html.Screen,2_1_0_1_19,2021-04-24T15:36:00.214Z,,,,,,,,,,,,,,,,,53,,,,,,,,,,,,,,465.5819999985397,,response,,,,99,,,,,,,Space,keypress(Space),,,,,,,,---- -- ----- -- ------ - ------- --- ----------<br>------------- ------ ------ ---- ---- ------- ----- -- ----<br>-------- partner -- ---------- --- - --- ----- ----- ----<br>---- --- --- ----- --- ---- ---- ------- ----- ---- -------<br>--- --- -- ----- -- --- ---- -- --- ---- -- ------ ------<br>--- ----- -- ----,134177.48500000016,134174.52499999854,133692.277,133704.68499999697,133708.943,134192.257,,19,partner
screen,html.Screen,2_1_0_1_20,2021-04-24T15:36:00.661Z,,,,,,,,,,,,,,,,,53,,,,,,,,,,,,,,429.98299999695155,,response,,,,99,,,,,,,Space,keypress(Space),,,,,,,,---- -- ----- -- ------ - ------- --- ----------<br>------------- ------ ------ ---- ---- ------- ----- -- ----<br>-------- ------- is ---------- --- - --- ----- ----- ----<br>---- --- --- ----- --- ---- ---- ------- ----- ---- -------<br>--- --- -- ----- -- --- ---- -- --- ---- -- ------ ------<br>--- ----- -- ----,134624.8949999972,134622.23999999696,134175.591,134177.59999999907,134192.257,134625.573,,20,is
screen,html.Screen,2_1_0_1_21,2021-04-24T15:36:01.056Z,,,,,,,,,,,,,,,,,53,,,,,,,,,,,,,,391.5169999975478,,response,,,,99,,,,,,,Space,keypress(Space),,,,,,,,---- -- ----- -- ------ - ------- --- ----------<br>------------- ------ ------ ---- ---- ------- ----- -- ----<br>-------- ------- -- paramount. --- - --- ----- ----- ----<br>---- --- --- ----- --- ---- ---- ------- ----- ---- -------<br>--- --- -- ----- -- --- ---- -- --- ---- -- ------ ------<br>--- ----- -- ----,135020.01499999824,135017.08999999755,134608.907,134625.0149999978,134625.573,135025.557,,21,paramount.
screen,html.Screen,2_1_0_1_22,2021-04-24T15:36:01.517Z,,,,,,,,,,,,,,,,,53,,,,,,,,,,,,,,452.8429999999644,,response,,,,99,,,,,,,Space,keypress(Space),,,,,,,,---- -- ----- -- ------ - ------- --- ----------<br>------------- ------ ------ ---- ---- ------- ----- -- ----<br>-------- ------- -- ---------- But - --- ----- ----- ----<br>---- --- --- ----- --- ---- ---- ------- ----- ---- -------<br>--- --- -- ----- -- --- ---- -- --- ---- -- ------ ------<br>--- ----- -- ----,135480.78499999974,135478.39999999997,135008.891,135020.2849999987,135025.557,135492.205,,22,But
screen,html.Screen,2_1_0_1_23,2021-04-24T15:36:01.919Z,,,,,,,,,,,,,,,,,53,,,,,,,,,,,,,,388.15999999726773,,response,,,,99,,,,,,,Space,keypress(Space),,,,,,,,---- -- ----- -- ------ - ------- --- ----------<br>------------- ------ ------ ---- ---- ------- ----- -- ----<br>-------- ------- -- ---------- --- a --- ----- ----- ----<br>---- --- --- ----- --- ---- ---- ------- ----- ---- -------<br>--- --- -- ----- -- --- ---- -- --- ---- -- ------ ------<br>--- ----- -- ----,135883.03499999893,135880.36499999725,135475.539,135480.87999999916,135492.205,135892.189,,23,a
screen,html.Screen,2_1_0_1_24,2021-04-24T15:36:02.277Z,,,,,,,,,,,,,,,,,53,,,,,,,,,,,,,,346.15599999792175,,response,,,,99,,,,,,,Space,keypress(Space),,,,,,,,---- -- ----- -- ------ - ------- --- ----------<br>------------- ------ ------ ---- ---- ------- ----- -- ----<br>-------- ------- -- ---------- --- - new ----- ----- ----<br>---- --- --- ----- --- ---- ---- ------- ----- ---- -------<br>--- --- -- ----- -- --- ---- -- --- ---- -- ------ ------<br>--- ----- -- ----,136241.0549999986,136238.34499999793,135875.523,135883.15499999953,135892.189,136242.175,,24,new
screen,html.Screen,2_1_0_1_25,2021-04-24T15:36:02.660Z,,,,,,,,,,,,,,,,,53,,,,,,,,,,,,,,379.12999999694875,,response,,,,99,,,,,,,Space,keypress(Space),,,,,,,,---- -- ----- -- ------ - ------- --- ----------<br>------------- ------ ------ ---- ---- ------- ----- -- ----<br>-------- ------- -- ---------- --- - --- study ----- ----<br>---- --- --- ----- --- ---- ---- ------- ----- ---- -------<br>--- --- -- ----- -- --- ---- -- --- ---- -- ------ ------<br>--- ----- -- ----,136624.0349999971,136621.30499999694,136225.509,136241.16499999946,136242.175,136625.493,,25,study
screen,html.Screen,2_1_0_1_26,2021-04-24T15:36:03.056Z,,,,,,,,,,,,,,,,,53,,,,,,,,,,,,,,391.7469999974128,,response,,,,99,,,,,,,Space,keypress(Space),,,,,,,,---- -- ----- -- ------ - ------- --- ----------<br>------------- ------ ------ ---- ---- ------- ----- -- ----<br>-------- ------- -- ---------- --- - --- ----- finds ----<br>---- --- --- ----- --- ---- ---- ------- ----- ---- -------<br>--- --- -- ----- -- --- ---- -- --- ---- -- ------ ------<br>--- ----- -- ----,137019.99499999874,137017.2399999974,136608.827,136624.14999999964,136625.493,137025.477,,26,finds
screen,html.Screen,2_1_0_1_27,2021-04-24T15:36:03.470Z,,,,,,,,,,,,,,,,,53,,,,,,,,,,,,,,405.9029999981576,,response,,,,99,,,,,,,Space,keypress(Space),,,,,,,,---- -- ----- -- ------ - ------- --- ----------<br>------------- ------ ------ ---- ---- ------- ----- -- ----<br>-------- ------- -- ---------- --- - --- ----- ----- that<br>---- --- --- ----- --- ---- ---- ------- ----- ---- -------<br>--- --- -- ----- -- --- ---- -- --- ---- -- ------ ------<br>--- ----- -- ----,137434.13999999757,137431.37999999817,137008.811,137020.10999999766,137025.477,137442.127,,27,that
screen,html.Screen,2_1_0_1_28,2021-04-24T15:36:03.857Z,,,,,,,,,,,,,,,,,53,,,,,,,,,,,,,,375.95299999727285,,response,,,,99,,,,,,,Space,keypress(Space),,,,,,,,---- -- ----- -- ------ - ------- --- ----------<br>------------- ------ ------ ---- ---- ------- ----- -- ----<br>-------- ------- -- ---------- --- - --- ----- ----- ----<br>it's --- --- ----- --- ---- ---- ------- ----- ---- -------<br>--- --- -- ----- -- --- ---- -- --- ---- -- ------ ------<br>--- ----- -- ----,137820.88499999736,137818.07999999728,137425.461,137434.85499999952,137442.127,137825.445,,28,it's
screen,html.Screen,2_1_0_1_29,2021-04-24T15:36:04.179Z,,,,,,,,,,,,,,,,,53,,,,,,,,,,,,,,314.6149999978952,,response,,,,99,,,,,,,Space,keypress(Space),,,,,,,,---- -- ----- -- ------ - ------- --- ----------<br>------------- ------ ------ ---- ---- ------- ----- -- ----<br>-------- ------- -- ---------- --- - --- ----- ----- ----<br>---- not --- ----- --- ---- ---- ------- ----- ---- -------<br>--- --- -- ----- -- --- ---- -- --- ---- -- ------ ------<br>--- ----- -- ----,138142.94999999765,138140.0599999979,137808.779,137821.0199999994,137825.445,138158.765,,29,not
screen,html.Screen,2_1_0_1_30,2021-04-24T15:36:04.515Z,,,,,,,,,,,,,,,,,53,,,,,,,,,,,,,,317.5349999984319,,response,,,,99,,,,,,,Space,keypress(Space),,,,,,,,---- -- ----- -- ------ - ------- --- ----------<br>------------- ------ ------ ---- ---- ------- ----- -- ----<br>-------- ------- -- ---------- --- - --- ----- ----- ----<br>---- --- how ----- --- ---- ---- ------- ----- ---- -------<br>--- --- -- ----- -- --- ---- -- --- ---- -- ------ ------<br>--- ----- -- ----,138478.9899999996,138476.29999999845,138142.099,138143.1049999992,138158.765,138492.085,,30,how
screen,html.Screen,2_1_0_1_31,2021-04-24T15:36:04.854Z,,,,,,,,,,,,,,,,,53,,,,,,,,,,,,,,323.18999999720836,,response,,,,99,,,,,,,Space,keypress(Space),,,,,,,,---- -- ----- -- ------ - ------- --- ----------<br>------------- ------ ------ ---- ---- ------- ----- -- ----<br>-------- ------- -- ---------- --- - --- ----- ----- ----<br>---- --- --- close --- ---- ---- ------- ----- ---- -------<br>--- --- -- ----- -- --- ---- -- --- ---- -- ------ ------<br>--- ----- -- ----,138818.00499999736,138815.2749999972,138475.419,138479.10000000047,138492.085,138825.405,,31,close
screen,html.Screen,2_1_0_1_32,2021-04-24T15:36:05.172Z,,,,,,,,,,,,,,,,,53,,,,,,,,,,,,,,307.74999999953434,,response,,,,99,,,,,,,Space,keypress(Space),,,,,,,,---- -- ----- -- ------ - ------- --- ----------<br>------------- ------ ------ ---- ---- ------- ----- -- ----<br>-------- ------- -- ---------- --- - --- ----- ----- ----<br>---- --- --- ----- you ---- ---- ------- ----- ---- -------<br>--- --- -- ----- -- --- ---- -- --- ---- -- ------ ------<br>--- ----- -- ----,139136.0249999998,139133.15499999953,138808.739,138818.11499999822,138825.405,139142.059,,32,you
screen,html.Screen,2_1_0_1_33,2021-04-24T15:36:05.504Z,,,,,,,,,,,,,,,,,53,,,,,,,,,,,,,,323.2759999971313,,response,,,,99,,,,,,,Space,keypress(Space),,,,,,,,---- -- ----- -- ------ - ------- --- ----------<br>------------- ------ ------ ---- ---- ------- ----- -- ----<br>-------- ------- -- ---------- --- - --- ----- ----- ----<br>---- --- --- ----- --- feel ---- ------- ----- ---- -------<br>--- --- -- ----- -- --- ---- -- --- ---- -- ------ ------<br>--- ----- -- ----,139468.13999999722,139465.33499999714,139125.393,139136.134999997,139142.059,139475.379,,33,feel
screen,html.Screen,2_1_0_1_34,2021-04-24T15:36:05.837Z,,,,,,,,,,,,,,,,,53,,,,,,,,,,,,,,322.8709999998391,,response,,,,99,,,,,,,Space,keypress(Space),,,,,,,,---- -- ----- -- ------ - ------- --- ----------<br>------------- ------ ------ ---- ---- ------- ----- -- ----<br>-------- ------- -- ---------- --- - --- ----- ----- ----<br>---- --- --- ----- --- ---- that ------- ----- ---- -------<br>--- --- -- ----- -- --- ---- -- --- ---- -- ------ ------<br>--- ----- -- ----,139800.87999999887,139798.24999999983,139458.713,139468.24999999808,139475.379,139808.699,,34,that
screen,html.Screen,2_1_0_1_35,2021-04-24T15:36:06.192Z,,,,,,,,,,,,,,,,,53,,,,,,,,,,,,,,344.47099999777856,,response,,,,99,,,,,,,Space,keypress(Space),,,,,,,,---- -- ----- -- ------ - ------- --- ----------<br>------------- ------ ------ ---- ---- ------- ----- -- ----<br>-------- ------- -- ---------- --- - --- ----- ----- ----<br>---- --- --- ----- --- ---- ---- matters ----- ---- -------<br>--- --- -- ----- -- --- ---- -- --- ---- -- ------ ------<br>--- ----- -- ----,140155.69499999765,140153.16999999777,139792.033,139800.98999999973,139808.699,140158.685,,35,matters
screen,html.Screen,2_1_0_1_36,2021-04-24T15:36:06.516Z,,,,,,,,,,,,,,,,,53,,,,,,,,,,,,,,318.6249999983993,,response,,,,99,,,,,,,Space,keypress(Space),,,,,,,,"---- -- ----- -- ------ - ------- --- ----------<br>------------- ------ ------ ---- ---- ------- ----- -- ----<br>-------- ------- -- ---------- --- - --- ----- ----- ----<br>---- --- --- ----- --- ---- ---- ------- most, ---- -------<br>--- --- -- ----- -- --- ---- -- --- ---- -- ------ ------<br>--- ----- -- ----",140480.13499999797,140477.3099999984,140142.019,140155.8049999985,140158.685,140492.005,,36,"most,"
screen,html.Screen,2_1_0_1_37,2021-04-24T15:36:06.891Z,,,,,,,,,,,,,,,,,53,,,,,,,,,,,,,,360.1600000002363,,response,,,,99,,,,,,,Space,keypress(Space),,,,,,,,---- -- ----- -- ------ - ------- --- ----------<br>------------- ------ ------ ---- ---- ------- ----- -- ----<br>-------- ------- -- ---------- --- - --- ----- ----- ----<br>---- --- --- ----- --- ---- ---- ------- ----- it's -------<br>--- --- -- ----- -- --- ---- -- --- ---- -- ------ ------<br>--- ----- -- ----,140854.8699999992,140852.16500000024,140475.339,140480.89499999696,140492.005,140858.657,,37,it's
screen,html.Screen,2_1_0_1_38,2021-04-24T15:36:07.259Z,,,,,,,,,,,,,,,,,53,,,,,,,,,,,,,,361.6279999994149,,response,,,,99,,,,,,,Space,keypress(Space),,,,,,,,---- -- ----- -- ------ - ------- --- ----------<br>------------- ------ ------ ---- ---- ------- ----- -- ----<br>-------- ------- -- ---------- --- - --- ----- ----- ----<br>---- --- --- ----- --- ---- ---- ------- ----- ---- whether<br>--- --- -- ----- -- --- ---- -- --- ---- -- ------ ------<br>--- ----- -- ----,141223.02999999738,141220.28499999942,140841.991,140854.97499999838,140858.657,141225.309,,38,whether
screen,html.Screen,2_1_0_1_39,2021-04-24T15:36:07.585Z,,,,,,,,,,,,,,,,,53,,,,,,,,,,,,,,320.63099999996484,,response,,,,99,,,,,,,Space,keypress(Space),,,,,,,,---- -- ----- -- ------ - ------- --- ----------<br>------------- ------ ------ ---- ---- ------- ----- -- ----<br>-------- ------- -- ---------- --- - --- ----- ----- ----<br>---- --- --- ----- --- ---- ---- ------- ----- ---- -------<br>you --- -- ----- -- --- ---- -- --- ---- -- ------ ------<br>--- ----- -- ----,141548.9149999994,141545.93999999997,141208.643,141223.13999999824,141225.309,141558.629,,39,you
screen,html.Screen,2_1_0_1_40,2021-04-24T15:36:07.944Z,,,,,,,,,,,,,,,,,53,,,,,,,,,,,,,,346.3659999971569,,response,,,,99,,,,,,,Space,keypress(Space),,,,,,,,---- -- ----- -- ------ - ------- --- ----------<br>------------- ------ ------ ---- ---- ------- ----- -- ----<br>-------- ------- -- ---------- --- - --- ----- ----- ----<br>---- --- --- ----- --- ---- ---- ------- ----- ---- -------<br>--- are -- ----- -- --- ---- -- --- ---- -- ------ ------<br>--- ----- -- ----,141908.21999999753,141904.99499999714,141541.963,141549.02500000026,141558.629,141925.281,,40,are
screen,html.Screen,2_1_0_1_41,2021-04-24T15:36:08.275Z,,,,,,,,,,,,,,,,,53,,,,,,,,,,,,,,309.93899999867426,,response,,,,99,,,,,,,Space,keypress(Space),,,,,,,,---- -- ----- -- ------ - ------- --- ----------<br>------------- ------ ------ ---- ---- ------- ----- -- ----<br>-------- ------- -- ---------- --- - --- ----- ----- ----<br>---- --- --- ----- --- ---- ---- ------- ----- ---- -------<br>--- --- as ----- -- --- ---- -- --- ---- -- ------ ------<br>--- ----- -- ----,142238.4349999993,142235.21999999866,141908.615,141908.33500000008,141925.281,142251.189,,41,as
screen,html.Screen,2_1_0_1_42,2021-04-24T15:36:08.608Z,,,,,,,,,,,,,,,,,53,,,,,,,,,,,,,,317.990999998583,,response,,,,99,,,,,,,Space,keypress(Space),,,,,,,,---- -- ----- -- ------ - ------- --- ----------<br>------------- ------ ------ ---- ---- ------- ----- -- ----<br>-------- ------- -- ---------- --- - --- ----- ----- ----<br>---- --- --- ----- --- ---- ---- ------- ----- ---- -------<br>--- --- -- close -- --- ---- -- --- ---- -- ------ ------<br>--- ----- -- ----,142571.86000000002,142569.1799999986,142234.523,142238.5549999999,142251.189,142584.509,,42,close
screen,html.Screen,2_1_0_1_43,2021-04-24T15:36:08.955Z,,,,,,,,,,,,,,,,,53,,,,,,,,,,,,,,331.6809999999241,,response,,,,99,,,,,,,Space,keypress(Space),,,,,,,,---- -- ----- -- ------ - ------- --- ----------<br>------------- ------ ------ ---- ---- ------- ----- -- ----<br>-------- ------- -- ---------- --- - --- ----- ----- ----<br>---- --- --- ----- --- ---- ---- ------- ----- ---- -------<br>--- --- -- ----- as --- ---- -- --- ---- -- ------ ------<br>--- ----- -- ----,142918.92999999982,142916.18999999992,142567.843,142571.96499999918,142584.509,142934.495,,43,as
screen,html.Screen,2_1_0_1_44,2021-04-24T15:36:09.293Z,,,,,,,,,,,,,,,,,53,,,,,,,,,,,,,,319.60499999829335,,response,,,,99,,,,,,,Space,keypress(Space),,,,,,,,---- -- ----- -- ------ - ------- --- ----------<br>------------- ------ ------ ---- ---- ------- ----- -- ----<br>-------- ------- -- ---------- --- - --- ----- ----- ----<br>---- --- --- ----- --- ---- ---- ------- ----- ---- -------<br>--- --- -- ----- -- you ---- -- --- ---- -- ------ ------<br>--- ----- -- ----,143256.75000000047,143254.0999999983,142917.829,142919.03499999898,142934.495,143267.815,,44,you
screen,html.Screen,2_1_0_1_45,2021-04-24T15:36:09.624Z,,,,,,,,,,,,,,,,,53,,,,,,,,,,,,,,317.3799999996554,,response,,,,99,,,,,,,Space,keypress(Space),,,,,,,,---- -- ----- -- ------ - ------- --- ----------<br>------------- ------ ------ ---- ---- ------- ----- -- ----<br>-------- ------- -- ---------- --- - --- ----- ----- ----<br>---- --- --- ----- --- ---- ---- ------- ----- ---- -------<br>--- --- -- ----- -- --- want -- --- ---- -- ------ ------<br>--- ----- -- ----,143587.97499999855,143585.19499999966,143251.149,143256.84999999794,143267.815,143601.135,,45,want
screen,html.Screen,2_1_0_1_46,2021-04-24T15:36:09.962Z,,,,,,,,,,,,,,,,,53,,,,,,,,,,,,,,321.9799999977695,,response,,,,99,,,,,,,Space,keypress(Space),,,,,,,,---- -- ----- -- ------ - ------- --- ----------<br>------------- ------ ------ ---- ---- ------- ----- -- ----<br>-------- ------- -- ---------- --- - --- ----- ----- ----<br>---- --- --- ----- --- ---- ---- ------- ----- ---- -------<br>--- --- -- ----- -- --- ---- to --- ---- -- ------ ------<br>--- ----- -- ----,143925.8950000003,143923.11499999778,143584.469,143588.0849999994,143601.135,143934.455,,46,to
screen,html.Screen,2_1_0_1_47,2021-04-24T15:36:10.297Z,,,,,,,,,,,,,,,,,53,,,,,,,,,,,,,,323.6499999971711,,response,,,,99,,,,,,,Space,keypress(Space),,,,,,,,"---- -- ----- -- ------ - ------- --- ----------<br>------------- ------ ------ ---- ---- ------- ----- -- ----<br>-------- ------- -- ---------- --- - --- ----- ----- ----<br>---- --- --- ----- --- ---- ---- ------- ----- ---- -------<br>--- --- -- ----- -- --- ---- -- be, ---- -- ------ ------<br>--- ----- -- ----",144261.0050000003,144258.10499999716,143917.789,143925.99999999948,143934.455,144267.775,,47,"be,"
screen,html.Screen,2_1_0_1_48,2021-04-24T15:36:10.624Z,,,,,,,,,,,,,,,,,53,,,,,,,,,,,,,,317.29499999736436,,response,,,,99,,,,,,,Space,keypress(Space),,,,,,,,---- -- ----- -- ------ - ------- --- ----------<br>------------- ------ ------ ---- ---- ------- ----- -- ----<br>-------- ------- -- ---------- --- - --- ----- ----- ----<br>---- --- --- ----- --- ---- ---- ------- ----- ---- -------<br>--- --- -- ----- -- --- ---- -- --- even -- ------ ------<br>--- ----- -- ----,144587.85999999964,144585.06999999736,144251.109,144261.10999999946,144267.775,144601.095,,48,even
screen,html.Screen,2_1_0_1_49,2021-04-24T15:36:10.970Z,,,,,,,,,,,,,,,,,53,,,,,,,,,,,,,,329.83499999862397,,response,,,,99,,,,,,,Space,keypress(Space),,,,,,,,---- -- ----- -- ------ - ------- --- ----------<br>------------- ------ ------ ---- ---- ------- ----- -- ----<br>-------- ------- -- ---------- --- - --- ----- ----- ----<br>---- --- --- ----- --- ---- ---- ------- ----- ---- -------<br>--- --- -- ----- -- --- ---- -- --- ---- if ------ ------<br>--- ----- -- ----,144933.53500000012,144930.92999999863,144584.429,144587.9649999988,144601.095,144934.415,,49,if
screen,html.Screen,2_1_0_1_50,2021-04-24T15:36:11.307Z,,,,,,,,,,,,,,,,,53,,,,,,,,,,,,,,333.59999999782303,,response,,,,99,,,,,,,Space,keypress(Space),,,,,,,,---- -- ----- -- ------ - ------- --- ----------<br>------------- ------ ------ ---- ---- ------- ----- -- ----<br>-------- ------- -- ---------- --- - --- ----- ----- ----<br>---- --- --- ----- --- ---- ---- ------- ----- ---- -------<br>--- --- -- ----- -- --- ---- -- --- ---- -- that's ------<br>--- ----- -- ----,145270.74999999968,145268.01499999783,144917.749,144933.64499999734,144934.415,145284.401,,50,that's
screen,html.Screen,2_1_0_1_51,2021-04-24T15:36:11.689Z,,,,,,,,,,,,,,,,,53,,,,,,,,,,,,,,365.6289999970468,,response,,,,99,,,,,,,Space,keypress(Space),,,,,,,,---- -- ----- -- ------ - ------- --- ----------<br>------------- ------ ------ ---- ---- ------- ----- -- ----<br>-------- ------- -- ---------- --- - --- ----- ----- ----<br>---- --- --- ----- --- ---- ---- ------- ----- ---- -------<br>--- --- -- ----- -- --- ---- -- --- ---- -- ------ really<br>--- ----- -- ----,145652.87999999782,145650.02999999706,145267.735,145270.8599999969,145284.401,145667.719,,51,really
screen,html.Screen,2_1_0_1_52,2021-04-24T15:36:12.097Z,,,,,,,,,,,,,,,,,53,,,,,,,,,,,,,,390.4009999978589,,response,,,,99,,,,,,,Space,keypress(Space),,,,,,,,---- -- ----- -- ------ - ------- --- ----------<br>------------- ------ ------ ---- ---- ------- ----- -- ----<br>-------- ------- -- ---------- --- - --- ----- ----- ----<br>---- --- --- ----- --- ---- ---- ------- ----- ---- -------<br>--- --- -- ----- -- --- ---- -- --- ---- -- ------ ------<br>not ----- -- ----,146060.97999999838,146058.11999999787,145651.053,145652.98999999868,145667.719,146067.703,,52,not
screen,html.Screen,2_1_0_1_53,2021-04-24T15:36:12.447Z,,,,,,,,,,,,,,,,,53,,,,,,,,,,,,,,340.31699999893317,,response,,,,99,,,,,,,Space,keypress(Space),,,,,,,,---- -- ----- -- ------ - ------- --- ----------<br>------------- ------ ------ ---- ---- ------- ----- -- ----<br>-------- ------- -- ---------- --- - --- ----- ----- ----<br>---- --- --- ----- --- ---- ---- ------- ----- ---- -------<br>--- --- -- ----- -- --- ---- -- --- ---- -- ------ ------<br>--- close -- ----,146410.7499999991,146408.01999999894,146051.037,146061.08499999755,146067.703,146417.689,,53,close
screen,html.Screen,2_1_0_1_54,2021-04-24T15:36:12.803Z,,,,,,,,,,,,,,,,,53,,,,,,,,,,,,,,346.2959999977611,,response,,,,99,,,,,,,Space,keypress(Space),,,,,,,,---- -- ----- -- ------ - ------- --- ----------<br>------------- ------ ------ ---- ---- ------- ----- -- ----<br>-------- ------- -- ---------- --- - --- ----- ----- ----<br>---- --- --- ----- --- ---- ---- ------- ----- ---- -------<br>--- --- -- ----- -- --- ---- -- --- ---- -- ------ ------<br>--- ----- at ----,146766.59999999902,146763.98499999777,146401.023,146410.85499999826,146417.689,146767.675,,54,at
screen,html.Screen,2_1_0_1_55,2021-04-24T15:36:13.192Z,,,,,,,,,,,,,,,,,53,,,,,,,,,,,,,,385.32499999844003,,response,,,,99,,,,,,,Space,keypress(Space),,,,,,,,---- -- ----- -- ------ - ------- --- ----------<br>------------- ------ ------ ---- ---- ------- ----- -- ----<br>-------- ------- -- ---------- --- - --- ----- ----- ----<br>---- --- --- ----- --- ---- ---- ------- ----- ---- -------<br>--- --- -- ----- -- --- ---- -- --- ---- -- ------ ------<br>--- ----- -- all.,147155.73500000028,147152.99999999843,146751.009,146766.70499999818,146767.675,147167.659,,55,all.
Item 99,flow.Loop,2_1_0_1,2021-04-24T15:36:13.192Z,,,,,,,,,,,,,,,,,,,,,,,,,,,,,,,25175.747999998435,,completion,,,,,D,,,,,,,,,,,silence,,,,,147155.9500000003,147152.99999999843,121960.586,121961.92999999766,121977.252,147167.659,,,
Question 1,html.Screen,2_1_0_2,2021-04-24T15:36:16.253Z,,,,,,,,,,,,,,,,,,,,,,,,,,,,true,FALSE,,3046.59099999725,,response,,,,99,D,,,,,,FALSE,click #choice-2,,,,silence,,,,,150216.45999999964,150214.24999999726,147150.993,147156.07999999702,147167.659,150217.537,,,
Question 2,html.Screen,2_1_0_3,2021-04-24T15:36:20.750Z,,,,,,,,,,,,,,,,,,,,,,,,,,,,true,TRUE,,4494.247999999498,,response,,,,99,D,,,,,,TRUE,click #choice-1,,,,silence,,,,,154713.51499999946,154711.7849999995,150200.871,150216.57499999856,150217.537,154728.639,,,
Item 99,flow.Sequence,2_1_0,2021-04-24T15:36:20.750Z,,,,,,,,,,,,,,,,,,,,,,,,,,,,,,,42734.13299999951,,completion,,,,,,,,,,,,,,,,,,,,,154713.6799999971,154711.7849999995,111960.986,111967.08500000022,111977.652,154728.639,,,
Holding screen,html.Screen,2_1_1_0,2021-04-24T15:36:30.760Z,,,,,,,,,,,,,,,,,,,,,,,,,,,,,,,10008.289000000019,,timeout,,,,,,,,,,,,,,,,,,,,,164723.39999999895,164720.262,154711.973,154713.78999999797,154728.639,164736.928,,,
screen,html.Screen,2_1_1_1_0,2021-04-24T15:36:32.591Z,,,,,,,,,,,,,,,,,54,,,,,,,,,,,,,,1814.501999999513,,response,,,,100,,,,,,,Space,keypress(Space),,,,,,,,At --- ---- --- ------ ----- ------- ---- -- --- ------- --<br>------- ---------- ------ -- ----- -- ----- -- ---- ------<br>--- ----- --- --- ------ -------- ----- --- ------ ----- --<br>----- ----- ---------- --- --- ------ ------ ---- -- ------<br>------- --- ------ ----- --- ---- ------- -- ---- --- --<br>------- ------,166554.60499999754,166551.42999999953,164720.262,164723.53999999905,164736.928,166570.188,,0,At
screen,html.Screen,2_1_1_1_1,2021-04-24T15:36:33.058Z,,,,,,,,,,,,,,,,,54,,,,,,,,,,,,,,448.13699999728124,,response,,,,100,,,,,,,Space,keypress(Space),,,,,,,,-- the ---- --- ------ ----- ------- ---- -- --- ------- --<br>------- ---------- ------ -- ----- -- ----- -- ---- ------<br>--- ----- --- --- ------ -------- ----- --- ------ ----- --<br>----- ----- ---------- --- --- ------ ------ ---- -- ------<br>------- --- ------ ----- --- ---- ------- -- ---- --- --<br>------- ------,167021.0999999981,167018.32499999728,166553.522,166554.7149999984,166570.188,167036.836,,1,the
screen,html.Screen,2_1_1_1_2,2021-04-24T15:36:33.384Z,,,,,,,,,,,,,,,,,54,,,,,,,,,,,,,,307.58399999761605,,response,,,,100,,,,,,,Space,keypress(Space),,,,,,,,-- --- time --- ------ ----- ------- ---- -- --- ------- --<br>------- ---------- ------ -- ----- -- ----- -- ---- ------<br>--- ----- --- --- ------ -------- ----- --- ------ ----- --<br>----- ----- ---------- --- --- ------ ------ ---- -- ------<br>------- --- ------ ----- --- ---- ------- -- ---- --- --<br>------- ------,167347.17499999897,167344.41999999763,167020.17,167021.20999999897,167036.836,167353.49,,2,time
screen,html.Screen,2_1_1_1_3,2021-04-24T15:36:34.057Z,,,,,,,,,,,,,,,,,54,,,,,,,,,,,,,,663.8049999978393,,response,,,,100,,,,,,,Space,keypress(Space),,,,,,,,-- --- ---- the ------ ----- ------- ---- -- --- ------- --<br>------- ---------- ------ -- ----- -- ----- -- ---- ------<br>--- ----- --- --- ------ -------- ----- --- ------ ----- --<br>----- ----- ---------- --- --- ------ ------ ---- -- ------<br>------- --- ------ ----- --- ---- ------- -- ---- --- --<br>------- ------,168020.8050000001,168017.29499999783,167336.824,167347.28499999983,167353.49,168036.796,,3,the
screen,html.Screen,2_1_1_1_4,2021-04-24T15:36:34.462Z,,,,,,,,,,,,,,,,,54,,,,,,,,,,,,,,385.4839999988617,,response,,,,100,,,,,,,Space,keypress(Space),,,,,,,,-- --- ---- --- French ----- ------- ---- -- --- ------- --<br>------- ---------- ------ -- ----- -- ----- -- ---- ------<br>--- ----- --- --- ------ -------- ----- --- ------ ----- --<br>----- ----- ---------- --- --- ------ ------ ---- -- ------<br>------- --- ------ ----- --- ---- ------- -- ---- --- --<br>------- ------,168425.03999999826,168422.27999999886,168020.13,168020.90999999928,168036.796,168436.78,,4,French
screen,html.Screen,2_1_1_1_5,2021-04-24T15:36:34.858Z,,,,,,,,,,,,,,,,,54,,,,,,,,,,,,,,381.53999999849475,,response,,,,100,,,,,,,Space,keypress(Space),,,,,,,,-- --- ---- --- ------ crown ------- ---- -- --- ------- --<br>------- ---------- ------ -- ----- -- ----- -- ---- ------<br>--- ----- --- --- ------ -------- ----- --- ------ ----- --<br>----- ----- ---------- --- --- ------ ------ ---- -- ------<br>------- --- ------ ----- --- ---- ------- -- ---- --- --<br>------- ------,168821.05500000034,168818.3199999985,168420.114,168425.14499999743,168436.78,168836.764,,5,crown
screen,html.Screen,2_1_1_1_6,2021-04-24T15:36:35.321Z,,,,,,,,,,,,,,,,,54,,,,,,,,,,,,,,444.4909999980591,,response,,,,100,,,,,,,Space,keypress(Space),,,,,,,,-- --- ---- --- ------ ----- secured ---- -- --- ------- --<br>------- ---------- ------ -- ----- -- ----- -- ---- ------<br>--- ----- --- --- ------ -------- ----- --- ------ ----- --<br>----- ----- ---------- --- --- ------ ------ ---- -- ------<br>------- --- ------ ----- --- ---- ------- -- ---- --- --<br>------- ------,169283.97499999846,169281.25499999805,168820.098,168821.1599999995,168836.764,169286.746,,6,secured
screen,html.Screen,2_1_1_1_7,2021-04-24T15:36:35.681Z,,,,,,,,,,,,,,,,,54,,,,,,,,,,,,,,354.5389999978652,,response,,,,100,,,,,,,Space,keypress(Space),,,,,,,,-- --- ---- --- ------ ----- ------- much -- --- ------- --<br>------- ---------- ------ -- ----- -- ----- -- ---- ------<br>--- ----- --- --- ------ -------- ----- --- ------ ----- --<br>----- ----- ---------- --- --- ------ ------ ---- -- ------<br>------- --- ------ ----- --- ---- ------- -- ---- --- --<br>------- ------,169644.05499999702,169641.28499999788,169270.08,169284.08499999932,169286.746,169653.398,,7,much
screen,html.Screen,2_1_1_1_8,2021-04-24T15:36:36.089Z,,,,,,,,,,,,,,,,,54,,,,,,,,,,,,,,395.84200000029523,,response,,,,100,,,,,,,Space,keypress(Space),,,,,,,,-- --- ---- --- ------ ----- ------- ---- of --- ------- --<br>------- ---------- ------ -- ----- -- ----- -- ---- ------<br>--- ----- --- --- ------ -------- ----- --- ------ ----- --<br>----- ----- ---------- --- --- ------ ------ ---- -- ------<br>------- --- ------ ----- --- ---- ------- -- ---- --- --<br>------- ------,170051.92499999976,170049.24000000028,169636.732,169644.15999999983,169653.398,170053.382,,8,of
screen,html.Screen,2_1_1_1_9,2021-04-24T15:36:36.453Z,,,,,,,,,,,,,,,,,54,,,,,,,,,,,,,,359.83299999684095,,response,,,,100,,,,,,,Space,keypress(Space),,,,,,,,-- --- ---- --- ------ ----- ------- ---- -- its ------- --<br>------- ---------- ------ -- ----- -- ----- -- ---- ------<br>--- ----- --- --- ------ -------- ----- --- ------ ----- --<br>----- ----- ---------- --- --- ------ ------ ---- -- ------<br>------- --- ------ ----- --- ---- ------- -- ---- --- --<br>------- ------,170416.12499999974,170413.21499999685,170036.716,170052.02499999723,170053.382,170420.034,,9,its
screen,html.Screen,2_1_1_1_10,2021-04-24T15:36:36.799Z,,,,,,,,,,,,,,,,,54,,,,,,,,,,,,,,339.1709999984596,,response,,,,100,,,,,,,Space,keypress(Space),,,,,,,,-- --- ---- --- ------ ----- ------- ---- -- --- revenue --<br>------- ---------- ------ -- ----- -- ----- -- ---- ------<br>--- ----- --- --- ------ -------- ----- --- ------ ----- --<br>----- ----- ---------- --- --- ------ ------ ---- -- ------<br>------- --- ------ ----- --- ---- ------- -- ---- --- --<br>------- ------,170761.8849999999,170759.20499999847,170403.368,170416.2299999989,170420.034,170770.02,,10,revenue
screen,html.Screen,2_1_1_1_11,2021-04-24T15:36:37.118Z,,,,,,,,,,,,,,,,,54,,,,,,,,,,,,,,308.1349999992526,,response,,,,100,,,,,,,Space,keypress(Space),,,,,,,,-- --- ---- --- ------ ----- ------- ---- -- --- ------- by<br>------- ---------- ------ -- ----- -- ----- -- ---- ------<br>--- ----- --- --- ------ -------- ----- --- ------ ----- --<br>----- ----- ---------- --- --- ------ ------ ---- -- ------<br>------- --- ------ ----- --- ---- ------- -- ---- --- --<br>------- ------,171080.8599999982,171078.15499999924,170753.354,170761.98999999906,170770.02,171086.674,,11,by
screen,html.Screen,2_1_1_1_12,2021-04-24T15:36:37.488Z,,,,,,,,,,,,,,,,,54,,,,,,,,,,,,,,362.3859999990091,,response,,,,100,,,,,,,Space,keypress(Space),,,,,,,,-- --- ---- --- ------ ----- ------- ---- -- --- ------- --<br>issuing ---------- ------ -- ----- -- ----- -- ---- ------<br>--- ----- --- --- ------ -------- ----- --- ------ ----- --<br>----- ----- ---------- --- --- ------ ------ ---- -- ------<br>------- --- ------ ----- --- ---- ------- -- ---- --- --<br>------- ------,171451.72999999704,171449.059999999,171070.008,171080.96999999907,171086.674,171453.326,,12,issuing
screen,html.Screen,2_1_1_1_13,2021-04-24T15:36:37.820Z,,,,,,,,,,,,,,,,,54,,,,,,,,,,,,,,326.7589999985066,,response,,,,100,,,,,,,Space,keypress(Space),,,,,,,,-- --- ---- --- ------ ----- ------- ---- -- --- ------- --<br>------- government ------ -- ----- -- ----- -- ---- ------<br>--- ----- --- --- ------ -------- ----- --- ------ ----- --<br>----- ----- ---------- --- --- ------ ------ ---- -- ------<br>------- --- ------ ----- --- ---- ------- -- ---- --- --<br>------- ------,171782.97999999995,171780.0849999985,171436.66,171452.4199999978,171453.326,171786.646,,13,government
screen,html.Screen,2_1_1_1_14,2021-04-24T15:36:38.163Z,,,,,,,,,,,,,,,,,54,,,,,,,,,,,,,,336.508999997488,,response,,,,100,,,,,,,Space,keypress(Space),,,,,,,,-- --- ---- --- ------ ----- ------- ---- -- --- ------- --<br>------- ---------- bonds. -- ----- -- ----- -- ---- ------<br>--- ----- --- --- ------ -------- ----- --- ------ ----- --<br>----- ----- ---------- --- --- ------ ------ ---- -- ------<br>------- --- ------ ----- --- ---- ------- -- ---- --- --<br>------- ------,172125.98499999876,172123.1549999975,171769.98,171783.08999999717,171786.646,172136.632,,14,bonds.
screen,html.Screen,2_1_1_1_15,2021-04-24T15:36:38.530Z,,,,,,,,,,,,,,,,,54,,,,,,,,,,,,,,353.6179999989108,,response,,,,100,,,,,,,Space,keypress(Space),,,,,,,,-- --- ---- --- ------ ----- ------- ---- -- --- ------- --<br>------- ---------- ------ In ----- -- ----- -- ---- ------<br>--- ----- --- --- ------ -------- ----- --- ------ ----- --<br>----- ----- ---------- --- --- ------ ------ ---- -- ------<br>------- --- ------ ----- --- ---- ------- -- ---- --- --<br>------- ------,172493.0749999985,172490.24999999892,172119.966,172126.08999999793,172136.632,172503.284,,15,In
screen,html.Screen,2_1_1_1_16,2021-04-24T15:36:38.882Z,,,,,,,,,,,,,,,,,54,,,,,,,,,,,,,,338.9659999978612,,response,,,,100,,,,,,,Space,keypress(Space),,,,,,,,"-- --- ---- --- ------ ----- ------- ---- -- --- ------- --<br>------- ---------- ------ -- 1727, -- ----- -- ---- ------<br>--- ----- --- --- ------ -------- ----- --- ------ ----- --<br>----- ----- ---------- --- --- ------ ------ ---- -- ------<br>------- --- ------ ----- --- ---- ------- -- ---- --- --<br>------- ------",172845.04000000015,172842.24999999788,172486.618,172493.17999999766,172503.284,172853.27,,16,"1727,"
screen,html.Screen,2_1_1_1_17,2021-04-24T15:36:39.309Z,,,,,,,,,,,,,,,,,54,,,,,,,,,,,,,,415.8700000003446,,response,,,,100,,,,,,,Space,keypress(Space),,,,,,,,-- --- ---- --- ------ ----- ------- ---- -- --- ------- --<br>------- ---------- ------ -- ----- in ----- -- ---- ------<br>--- ----- --- --- ------ -------- ----- --- ------ ----- --<br>----- ----- ---------- --- --- ------ ------ ---- -- ------<br>------- --- ------ ----- --- ---- ------- -- ---- --- --<br>------- ------,173272.07999999882,173269.14000000033,172836.604,172845.14499999932,172853.27,173286.586,,17,in
screen,html.Screen,2_1_1_1_18,2021-04-24T15:36:39.693Z,,,,,,,,,,,,,,,,,54,,,,,,,,,,,,,,366.6489999979385,,response,,,,100,,,,,,,Space,keypress(Space),,,,,,,,-- --- ---- --- ------ ----- ------- ---- -- --- ------- --<br>------- ---------- ------ -- ----- -- order -- ---- ------<br>--- ----- --- --- ------ -------- ----- --- ------ ----- --<br>----- ----- ---------- --- --- ------ ------ ---- -- ------<br>------- --- ------ ----- --- ---- ------- -- ---- --- --<br>------- ------,173655.99499999735,173653.23499999795,173269.92,173272.18999999968,173286.586,173660.493,,18,order
screen,html.Screen,2_1_1_1_19,2021-04-24T15:36:40.150Z,,,,,,,,,,,,,,,,,54,,,,,,,,,,,,,,449.5669999990787,,response,,,,100,,,,,,,Space,keypress(Space),,,,,,,,-- --- ---- --- ------ ----- ------- ---- -- --- ------- --<br>------- ---------- ------ -- ----- -- ----- to ---- ------<br>--- ----- --- --- ------ -------- ----- --- ------ ----- --<br>----- ----- ---------- --- --- ------ ------ ---- -- ------<br>------- --- ------ ----- --- ---- ------- -- ---- --- --<br>------- ------,174112.8549999994,174110.05999999907,173643.827,173656.10000000015,173660.493,174127.141,,19,to
screen,html.Screen,2_1_1_1_20,2021-04-24T15:36:40.494Z,,,,,,,,,,,,,,,,,54,,,,,,,,,,,,,,327.0289999972447,,response,,,,100,,,,,,,Space,keypress(Space),,,,,,,,-- --- ---- --- ------ ----- ------- ---- -- --- ------- --<br>------- ---------- ------ -- ----- -- ----- -- save ------<br>--- ----- --- --- ------ -------- ----- --- ------ ----- --<br>----- ----- ---------- --- --- ------ ------ ---- -- ------<br>------- --- ------ ----- --- ---- ------- -- ---- --- --<br>------- ------,174456.90999999715,174454.16999999725,174110.475,174112.96500000026,174127.141,174460.461,,20,save
screen,html.Screen,2_1_1_1_21,2021-04-24T15:36:40.861Z,,,,,,,,,,,,,,,,,54,,,,,,,,,,,,,,360.72399999704794,,response,,,,100,,,,,,,Space,keypress(Space),,,,,,,,"-- --- ---- --- ------ ----- ------- ---- -- --- ------- --<br>------- ---------- ------ -- ----- -- ----- -- ---- money,<br>--- ----- --- --- ------ -------- ----- --- ------ ----- --<br>----- ----- ---------- --- --- ------ ------ ---- -- ------<br>------- --- ------ ----- --- ---- ------- -- ---- --- --<br>------- ------",174823.99499999883,174821.18499999706,174443.795,174457.019999998,174460.461,174827.113,,21,"money,"
screen,html.Screen,2_1_1_1_22,2021-04-24T15:36:41.237Z,,,,,,,,,,,,,,,,,54,,,,,,,,,,,,,,370.13199999937206,,response,,,,100,,,,,,,Space,keypress(Space),,,,,,,,-- --- ---- --- ------ ----- ------- ---- -- --- ------- --<br>------- ---------- ------ -- ----- -- ----- -- ---- ------<br>the ----- --- --- ------ -------- ----- --- ------ ----- --<br>----- ----- ---------- --- --- ------ ------ ---- -- ------<br>------- --- ------ ----- --- ---- ------- -- ---- --- --<br>------- ------,175199.88999999987,175197.24499999938,174810.447,174824.099999998,174827.113,175210.431,,22,the
screen,html.Screen,2_1_1_1_23,2021-04-24T15:36:41.520Z,,,,,,,,,,,,,,,,,54,,,,,,,,,,,,,,269.7239999974554,,response,,,,100,,,,,,,Space,keypress(Space),,,,,,,,-- --- ---- --- ------ ----- ------- ---- -- --- ------- --<br>------- ---------- ------ -- ----- -- ----- -- ---- ------<br>--- state --- --- ------ -------- ----- --- ------ ----- --<br>----- ----- ---------- --- --- ------ ------ ---- -- ------<br>------- --- ------ ----- --- ---- ------- -- ---- --- --<br>------- ------,175482.84499999863,175480.15499999747,175193.765,175199.99499999903,175210.431,175493.753,,23,state
screen,html.Screen,2_1_1_1_24,2021-04-24T15:36:41.856Z,,,,,,,,,,,,,,,,,54,,,,,,,,,,,,,,322.3819999973057,,response,,,,100,,,,,,,Space,keypress(Space),,,,,,,,-- --- ---- --- ------ ----- ------- ---- -- --- ------- --<br>------- ---------- ------ -- ----- -- ----- -- ---- ------<br>--- ----- cut --- ------ -------- ----- --- ------ ----- --<br>----- ----- ---------- --- --- ------ ------ ---- -- ------<br>------- --- ------ ----- --- ---- ------- -- ---- --- --<br>------- ------,175818.93999999738,175816.1349999973,175477.087,175482.9499999978,175493.753,175827.073,,24,cut
screen,html.Screen,2_1_1_1_25,2021-04-24T15:36:42.156Z,,,,,,,,,,,,,,,,,54,,,,,,,,,,,,,,289.0620000002091,,response,,,,100,,,,,,,Space,keypress(Space),,,,,,,,-- --- ---- --- ------ ----- ------- ---- -- --- ------- --<br>------- ---------- ------ -- ----- -- ----- -- ---- ------<br>--- ----- --- the ------ -------- ----- --- ------ ----- --<br>----- ----- ---------- --- --- ------ ------ ---- -- ------<br>------- --- ------ ----- --- ---- ------- -- ---- --- --<br>------- ------,176118.95000000004,176116.1350000002,175810.407,175819.0450000002,175827.073,176127.061,,25,the
screen,html.Screen,2_1_1_1_26,2021-04-24T15:36:42.479Z,,,,,,,,,,,,,,,,,54,,,,,,,,,,,,,,312.0489999993588,,response,,,,100,,,,,,,Space,keypress(Space),,,,,,,,-- --- ---- --- ------ ----- ------- ---- -- --- ------- --<br>------- ---------- ------ -- ----- -- ----- -- ---- ------<br>--- ----- --- --- bonds' -------- ----- --- ------ ----- --<br>----- ----- ---------- --- --- ------ ------ ---- -- ------<br>------- --- ------ ----- --- ---- ------- -- ---- --- --<br>------- ------,176442.49999999738,176439.10999999935,176110.395,176119.05999999726,176127.061,176443.715,,26,bonds'
screen,html.Screen,2_1_1_1_27,2021-04-24T15:36:42.861Z,,,,,,,,,,,,,,,,,54,,,,,,,,,,,,,,377.29999999771826,,response,,,,100,,,,,,,Space,keypress(Space),,,,,,,,-- --- ---- --- ------ ----- ------- ---- -- --- ------- --<br>------- ---------- ------ -- ----- -- ----- -- ---- ------<br>--- ----- --- --- ------ interest ----- --- ------ ----- --<br>----- ----- ---------- --- --- ------ ------ ---- -- ------<br>------- --- ------ ----- --- ---- ------- -- ---- --- --<br>------- ------,176823.90499999747,176821.01499999771,176427.049,176442.60999999824,176443.715,176827.033,,27,interest
screen,html.Screen,2_1_1_1_28,2021-04-24T15:36:43.191Z,,,,,,,,,,,,,,,,,54,,,,,,,,,,,,,,324.9819999996689,,response,,,,100,,,,,,,Space,keypress(Space),,,,,,,,-- --- ---- --- ------ ----- ------- ---- -- --- ------- --<br>------- ---------- ------ -- ----- -- ----- -- ---- ------<br>--- ----- --- --- ------ -------- rate. --- ------ ----- --<br>----- ----- ---------- --- --- ------ ------ ---- -- ------<br>------- --- ------ ----- --- ---- ------- -- ---- --- --<br>------- ------,177154.60999999777,177152.01499999966,176810.367,176824.01499999833,176827.033,177160.353,,28,rate.
screen,html.Screen,2_1_1_1_29,2021-04-24T15:36:43.911Z,,,,,,,,,,,,,,,,,54,,,,,,,,,,,,,,710.5769999973127,,response,,,,100,,,,,,,Space,keypress(Space),,,,,,,,-- --- ---- --- ------ ----- ------- ---- -- --- ------- --<br>------- ---------- ------ -- ----- -- ----- -- ---- ------<br>--- ----- --- --- ------ -------- ----- The ------ ----- --<br>----- ----- ---------- --- --- ------ ------ ---- -- ------<br>------- --- ------ ----- --- ---- ------- -- ---- --- --<br>------- ------,177874.5600000002,177870.92999999732,177143.687,177154.71499999694,177160.353,177876.991,,29,The
screen,html.Screen,2_1_1_1_30,2021-04-24T15:36:44.250Z,,,,,,,,,,,,,,,,,54,,,,,,,,,,,,,,332.98899999962305,,response,,,,100,,,,,,,Space,keypress(Space),,,,,,,,-- --- ---- --- ------ ----- ------- ---- -- --- ------- --<br>------- ---------- ------ -- ----- -- ----- -- ---- ------<br>--- ----- --- --- ------ -------- ----- --- market ----- --<br>----- ----- ---------- --- --- ------ ------ ---- -- ------<br>------- --- ------ ----- --- ---- ------- -- ---- --- --<br>------- ------,178212.8849999972,178209.97999999963,177860.325,177874.65499999962,177876.991,178226.977,,30,market
screen,html.Screen,2_1_1_1_31,2021-04-24T15:36:44.561Z,,,,,,,,,,,,,,,,,54,,,,,,,,,,,,,,293.98799999969197,,response,,,,100,,,,,,,Space,keypress(Space),,,,,,,,-- --- ---- --- ------ ----- ------- ---- -- --- ------- --<br>------- ---------- ------ -- ----- -- ----- -- ---- ------<br>--- ----- --- --- ------ -------- ----- --- ------ value --<br>----- ----- ---------- --- --- ------ ------ ---- -- ------<br>------- --- ------ ----- --- ---- ------- -- ---- --- --<br>------- ------,178523.7249999991,178520.9649999997,178210.311,178212.99499999805,178226.977,178526.965,,31,value
screen,html.Screen,2_1_1_1_32,2021-04-24T15:36:44.892Z,,,,,,,,,,,,,,,,,54,,,,,,,,,,,,,,325.69999999852735,,response,,,,100,,,,,,,Space,keypress(Space),,,,,,,,-- --- ---- --- ------ ----- ------- ---- -- --- ------- --<br>------- ---------- ------ -- ----- -- ----- -- ---- ------<br>--- ----- --- --- ------ -------- ----- --- ------ ----- of<br>----- ----- ---------- --- --- ------ ------ ---- -- ------<br>------- --- ------ ----- --- ---- ------- -- ---- --- --<br>------- ------,178855.14499999772,178852.66499999852,178510.299,178523.83499999996,178526.965,178860.285,,32,of
screen,html.Screen,2_1_1_1_33,2021-04-24T15:36:45.191Z,,,,,,,,,,,,,,,,,54,,,,,,,,,,,,,,290.7449999972596,,response,,,,100,,,,,,,Space,keypress(Space),,,,,,,,-- --- ---- --- ------ ----- ------- ---- -- --- ------- --<br>------- ---------- ------ -- ----- -- ----- -- ---- ------<br>--- ----- --- --- ------ -------- ----- --- ------ ----- --<br>these ----- ---------- --- --- ------ ------ ---- -- ------<br>------- --- ------ ----- --- ---- ------- -- ---- --- --<br>------- ------,179153.7799999969,179151.02999999726,178843.619,178855.23499999908,178860.285,179160.273,,33,these
screen,html.Screen,2_1_1_1_34,2021-04-24T15:36:45.508Z,,,,,,,,,,,,,,,,,54,,,,,,,,,,,,,,307.7319999988249,,response,,,,100,,,,,,,Space,keypress(Space),,,,,,,,-- --- ---- --- ------ ----- ------- ---- -- --- ------- --<br>------- ---------- ------ -- ----- -- ----- -- ---- ------<br>--- ----- --- --- ------ -------- ----- --- ------ ----- --<br>----- bonds ---------- --- --- ------ ------ ---- -- ------<br>------- --- ------ ----- --- ---- ------- -- ---- --- --<br>------- ------,179470.91999999975,179468.0049999988,179143.607,179153.88499999972,179160.273,179476.927,,34,bonds
screen,html.Screen,2_1_1_1_35,2021-04-24T15:36:45.831Z,,,,,,,,,,,,,,,,,54,,,,,,,,,,,,,,314.01799999701325,,response,,,,100,,,,,,,Space,keypress(Space),,,,,,,,"-- --- ---- --- ------ ----- ------- ---- -- --- ------- --<br>------- ---------- ------ -- ----- -- ----- -- ---- ------<br>--- ----- --- --- ------ -------- ----- --- ------ ----- --<br>----- ----- plummeted, --- --- ------ ------ ---- -- ------<br>------- --- ------ ----- --- ---- ------- -- ---- --- --<br>------- ------",179793.80499999752,179790.944999997,179460.261,179471.02499999892,179476.927,179810.247,,35,"plummeted,"
screen,html.Screen,2_1_1_1_36,2021-04-24T15:36:46.165Z,,,,,,,,,,,,,,,,,54,,,,,,,,,,,,,,315.6379999976489,,response,,,,100,,,,,,,Space,keypress(Space),,,,,,,,-- --- ---- --- ------ ----- ------- ---- -- --- ------- --<br>------- ---------- ------ -- ----- -- ----- -- ---- ------<br>--- ----- --- --- ------ -------- ----- --- ------ ----- --<br>----- ----- ---------- and --- ------ ------ ---- -- ------<br>------- --- ------ ----- --- ---- ------- -- ---- --- --<br>------- ------,180128.46999999965,180125.88499999765,179793.581,179793.91000000032,179810.247,180143.567,,36,and
screen,html.Screen,2_1_1_1_37,2021-04-24T15:36:46.482Z,,,,,,,,,,,,,,,,,54,,,,,,,,,,,,,,298.332999997976,,response,,,,100,,,,,,,Space,keypress(Space),,,,,,,,-- --- ---- --- ------ ----- ------- ---- -- --- ------- --<br>------- ---------- ------ -- ----- -- ----- -- ---- ------<br>--- ----- --- --- ------ -------- ----- --- ------ ----- --<br>----- ----- ---------- --- the ------ ------ ---- -- ------<br>------- --- ------ ----- --- ---- ------- -- ---- --- --<br>------- ------,180444.60499999695,180441.899999998,180126.901,180128.57499999882,180143.567,180460.221,,37,the
screen,html.Screen,2_1_1_1_38,2021-04-24T15:36:46.776Z,,,,,,,,,,,,,,,,,54,,,,,,,,,,,,,,275.6739999979909,,response,,,,100,,,,,,,Space,keypress(Space),,,,,,,,-- --- ---- --- ------ ----- ------- ---- -- --- ------- --<br>------- ---------- ------ -- ----- -- ----- -- ---- ------<br>--- ----- --- --- ------ -------- ----- --- ------ ----- --<br>----- ----- ---------- --- --- market ------ ---- -- ------<br>------- --- ------ ----- --- ---- ------- -- ---- --- --<br>------- ------,180738.5949999989,180735.89499999798,180443.555,180444.70999999976,180460.221,180743.543,,38,market
screen,html.Screen,2_1_1_1_39,2021-04-24T15:36:47.161Z,,,,,,,,,,,,,,,,,54,,,,,,,,,,,,,,378.21699999817065,,response,,,,100,,,,,,,Space,keypress(Space),,,,,,,,-- --- ---- --- ------ ----- ------- ---- -- --- ------- --<br>------- ---------- ------ -- ----- -- ----- -- ---- ------<br>--- ----- --- --- ------ -------- ----- --- ------ ----- --<br>----- ----- ---------- --- --- ------ became ---- -- ------<br>------- --- ------ ----- --- ---- ------- -- ---- --- --<br>------- ------,181124.36999999773,181121.75999999818,180726.877,180738.70499999975,180743.543,181126.861,,39,became
screen,html.Screen,2_1_1_1_40,2021-04-24T15:36:47.483Z,,,,,,,,,,,,,,,,,54,,,,,,,,,,,,,,316.188999998034,,response,,,,100,,,,,,,Space,keypress(Space),,,,,,,,-- --- ---- --- ------ ----- ------- ---- -- --- ------- --<br>------- ---------- ------ -- ----- -- ----- -- ---- ------<br>--- ----- --- --- ------ -------- ----- --- ------ ----- --<br>----- ----- ---------- --- --- ------ ------ wary -- ------<br>------- --- ------ ----- --- ---- ------- -- ---- --- --<br>------- ------,181445.65499999953,181443.04999999804,181110.195,181124.4749999969,181126.861,181460.181,,40,wary
screen,html.Screen,2_1_1_1_41,2021-04-24T15:36:47.831Z,,,,,,,,,,,,,,,,,54,,,,,,,,,,,,,,330.6239999968966,,response,,,,100,,,,,,,Space,keypress(Space),,,,,,,,-- --- ---- --- ------ ----- ------- ---- -- --- ------- --<br>------- ---------- ------ -- ----- -- ----- -- ---- ------<br>--- ----- --- --- ------ -------- ----- --- ------ ----- --<br>----- ----- ---------- --- --- ------ ------ ---- of ------<br>------- --- ------ ----- --- ---- ------- -- ---- --- --<br>------- ------,181793.5949999992,181790.8049999969,181443.515,181445.7650000004,181460.181,181810.167,,41,of
screen,html.Screen,2_1_1_1_42,2021-04-24T15:36:48.150Z,,,,,,,,,,,,,,,,,54,,,,,,,,,,,,,,299.8579999981448,,response,,,,100,,,,,,,Space,keypress(Space),,,,,,,,-- --- ---- --- ------ ----- ------- ---- -- --- ------- --<br>------- ---------- ------ -- ----- -- ----- -- ---- ------<br>--- ----- --- --- ------ -------- ----- --- ------ ----- --<br>----- ----- ---------- --- --- ------ ------ ---- -- French<br>------- --- ------ ----- --- ---- ------- -- ---- --- --<br>------- ------,182112.70499999955,182110.02499999813,181793.501,181793.70500000005,181810.167,182126.821,,42,French
screen,html.Screen,2_1_1_1_43,2021-04-24T15:36:48.511Z,,,,,,,,,,,,,,,,,54,,,,,,,,,,,,,,344.9839999974065,,response,,,,100,,,,,,,Space,keypress(Space),,,,,,,,-- --- ---- --- ------ ----- ------- ---- -- --- ------- --<br>------- ---------- ------ -- ----- -- ----- -- ---- ------<br>--- ----- --- --- ------ -------- ----- --- ------ ----- --<br>----- ----- ---------- --- --- ------ ------ ---- -- ------<br>credit. --- ------ ----- --- ---- ------- -- ---- --- --<br>------- ------,182474.51999999976,182471.8049999974,182110.155,182112.80999999872,182126.821,182476.807,,43,credit.
screen,html.Screen,2_1_1_1_44,2021-04-24T15:36:48.878Z,,,,,,,,,,,,,,,,,54,,,,,,,,,,,,,,360.9979999992065,,response,,,,100,,,,,,,Space,keypress(Space),,,,,,,,-- --- ---- --- ------ ----- ------- ---- -- --- ------- --<br>------- ---------- ------ -- ----- -- ----- -- ---- ------<br>--- ----- --- --- ------ -------- ----- --- ------ ----- --<br>----- ----- ---------- --- --- ------ ------ ---- -- ------<br>------- The ------ ----- --- ---- ------- -- ---- --- --<br>------- ------,182840.54999999717,182837.8049999992,182460.141,182474.62499999892,182476.807,182843.459,,44,The
screen,html.Screen,2_1_1_1_45,2021-04-24T15:36:49.233Z,,,,,,,,,,,,,,,,,54,,,,,,,,,,,,,,349.23099999985425,,response,,,,100,,,,,,,Space,keypress(Space),,,,,,,,-- --- ---- --- ------ ----- ------- ---- -- --- ------- --<br>------- ---------- ------ -- ----- -- ----- -- ---- ------<br>--- ----- --- --- ------ -------- ----- --- ------ ----- --<br>----- ----- ---------- --- --- ------ ------ ---- -- ------<br>------- --- French ----- --- ---- ------- -- ---- --- --<br>------- ------,183195.67499999903,183192.68999999986,182826.793,182840.65999999802,182843.459,183210.111,,45,French
screen,html.Screen,2_1_1_1_46,2021-04-24T15:36:49.583Z,,,,,,,,,,,,,,,,,54,,,,,,,,,,,,,,333.64900000047055,,response,,,,100,,,,,,,Space,keypress(Space),,,,,,,,-- --- ---- --- ------ ----- ------- ---- -- --- ------- --<br>------- ---------- ------ -- ----- -- ----- -- ---- ------<br>--- ----- --- --- ------ -------- ----- --- ------ ----- --<br>----- ----- ---------- --- --- ------ ------ ---- -- ------<br>------- --- ------ state --- ---- ------- -- ---- --- --<br>------- ------,183546.4699999975,183543.76000000047,183193.445,183195.7849999999,183210.111,183560.097,,46,state
screen,html.Screen,2_1_1_1_47,2021-04-24T15:36:49.929Z,,,,,,,,,,,,,,,,,54,,,,,,,,,,,,,,328.8029999980936,,response,,,,100,,,,,,,Space,keypress(Space),,,,,,,,-- --- ---- --- ------ ----- ------- ---- -- --- ------- --<br>------- ---------- ------ -- ----- -- ----- -- ---- ------<br>--- ----- --- --- ------ -------- ----- --- ------ ----- --<br>----- ----- ---------- --- --- ------ ------ ---- -- ------<br>------- --- ------ ----- was ---- ------- -- ---- --- --<br>------- ------,183891.67499999894,183888.8999999981,183543.431,183546.5750000003,183560.097,183902.383,,47,was
screen,html.Screen,2_1_1_1_48,2021-04-24T15:36:50.261Z,,,,,,,,,,,,,,,,,54,,,,,,,,,,,,,,317.51700000005076,,response,,,,100,,,,,,,Space,keypress(Space),,,,,,,,-- --- ---- --- ------ ----- ------- ---- -- --- ------- --<br>------- ---------- ------ -- ----- -- ----- -- ---- ------<br>--- ----- --- --- ------ -------- ----- --- ------ ----- --<br>----- ----- ---------- --- --- ------ ------ ---- -- ------<br>------- --- ------ ----- --- left ------- -- ---- --- --<br>------- ------,184224.23499999786,184219.90000000005,183885.717,183891.79499999955,183902.383,184235.703,,48,left
screen,html.Screen,2_1_1_1_49,2021-04-24T15:36:50.582Z,,,,,,,,,,,,,,,,,54,,,,,,,,,,,,,,306.12699999829056,,response,,,,100,,,,,,,Space,keypress(Space),,,,,,,,-- --- ---- --- ------ ----- ------- ---- -- --- ------- --<br>------- ---------- ------ -- ----- -- ----- -- ---- ------<br>--- ----- --- --- ------ -------- ----- --- ------ ----- --<br>----- ----- ---------- --- --- ------ ------ ---- -- ------<br>------- --- ------ ----- --- ---- without -- ---- --- --<br>------- ------,184544.5499999987,184541.8299999983,184219.037,184224.32999999728,184235.703,184552.357,,49,without
screen,html.Screen,2_1_1_1_50,2021-04-24T15:36:50.936Z,,,,,,,,,,,,,,,,,54,,,,,,,,,,,,,,343.5130000002973,,response,,,,100,,,,,,,Space,keypress(Space),,,,,,,,-- --- ---- --- ------ ----- ------- ---- -- --- ------- --<br>------- ---------- ------ -- ----- -- ----- -- ---- ------<br>--- ----- --- --- ------ -------- ----- --- ------ ----- --<br>----- ----- ---------- --- --- ------ ------ ---- -- ------<br>------- --- ------ ----- --- ---- ------- an ---- --- --<br>------- ------,184898.81999999852,184895.8700000003,184535.691,184544.65999999957,184552.357,184902.343,,50,an
screen,html.Screen,2_1_1_1_51,2021-04-24T15:36:51.279Z,,,,,,,,,,,,,,,,,54,,,,,,,,,,,,,,337.4019999989541,,response,,,,100,,,,,,,Space,keypress(Space),,,,,,,,-- --- ---- --- ------ ----- ------- ---- -- --- ------- --<br>------- ---------- ------ -- ----- -- ----- -- ---- ------<br>--- ----- --- --- ------ -------- ----- --- ------ ----- --<br>----- ----- ---------- --- --- ------ ------ ---- -- ------<br>------- --- ------ ----- --- ---- ------- -- easy --- --<br>------- ------,185242.43999999817,185239.74499999895,184885.677,184898.9249999977,184902.343,185252.329,,51,easy
screen,html.Screen,2_1_1_1_52,2021-04-24T15:36:51.610Z,,,,,,,,,,,,,,,,,54,,,,,,,,,,,,,,317.42099999875063,,response,,,,100,,,,,,,Space,keypress(Space),,,,,,,,-- --- ---- --- ------ ----- ------- ---- -- --- ------- --<br>------- ---------- ------ -- ----- -- ----- -- ---- ------<br>--- ----- --- --- ------ -------- ----- --- ------ ----- --<br>----- ----- ---------- --- --- ------ ------ ---- -- ------<br>------- --- ------ ----- --- ---- ------- -- ---- way --<br>------- ------,185572.57499999832,185569.74999999875,185235.663,185242.53999999928,185252.329,185585.649,,52,way
screen,html.Screen,2_1_1_1_53,2021-04-24T15:36:51.951Z,,,,,,,,,,,,,,,,,54,,,,,,,,,,,,,,325.08599999765283,,response,,,,100,,,,,,,Space,keypress(Space),,,,,,,,-- --- ---- --- ------ ----- ------- ---- -- --- ------- --<br>------- ---------- ------ -- ----- -- ----- -- ---- ------<br>--- ----- --- --- ------ -------- ----- --- ------ ----- --<br>----- ----- ---------- --- --- ------ ------ ---- -- ------<br>------- --- ------ ----- --- ---- ------- -- ---- --- of<br>------- ------,185913.51999999824,185910.73499999766,185568.983,185572.68999999724,185585.649,185918.969,,53,of
screen,html.Screen,2_1_1_1_54,2021-04-24T15:36:52.345Z,,,,,,,,,,,,,,,,,54,,,,,,,,,,,,,,386.7510000002803,,response,,,,100,,,,,,,Space,keypress(Space),,,,,,,,-- --- ---- --- ------ ----- ------- ---- -- --- ------- --<br>------- ---------- ------ -- ----- -- ----- -- ---- ------<br>--- ----- --- --- ------ -------- ----- --- ------ ----- --<br>----- ----- ---------- --- --- ------ ------ ---- -- ------<br>------- --- ------ ----- --- ---- ------- -- ---- --- --<br>raising ------,186308.3749999969,186305.7200000003,185902.303,185913.6249999974,185918.969,186318.953,,54,raising
screen,html.Screen,2_1_1_1_55,2021-04-24T15:36:52.758Z,,,,,,,,,,,,,,,,,54,,,,,,,,,,,,,,398.84699999852455,,response,,,,100,,,,,,,Space,keypress(Space),,,,,,,,-- --- ---- --- ------ ----- ------- ---- -- --- ------- --<br>------- ---------- ------ -- ----- -- ----- -- ---- ------<br>--- ----- --- --- ------ -------- ----- --- ------ ----- --<br>----- ----- ---------- --- --- ------ ------ ---- -- ------<br>------- --- ------ ----- --- ---- ------- -- ---- --- --<br>------- money.,186720.57999999743,186717.79999999853,186302.287,186308.4799999997,186318.953,186735.603,,55,money.
Item 100,flow.Loop,2_1_1_1,2021-04-24T15:36:52.758Z,,,,,,,,,,,,,,,,,,,,,,,,,,,,,,,21980.87199999852,,completion,,,,,D,,,,,,,,,,,silence,,,,,186720.7649999982,186717.79999999853,164720.262,164723.5049999981,164736.928,186735.603,,,
Question 1,html.Screen,2_1_1_2,2021-04-24T15:36:55.870Z,,,,,,,,,,,,,,,,,,,,,,,,,,,,true,TRUE,,3095.8919999985374,,response,,,,100,D,,,,,,TRUE,click #choice-1,,,,silence,,,,,189833.30999999816,189831.49499999854,186718.937,186720.88999999687,186735.603,189835.479,,,
Question 2,html.Screen,2_1_1_3,2021-04-24T15:36:58.135Z,,,,,,,,,,,,,,,,,,,,,,,,,,,,true,FALSE,,2260.7709999986982,,response,,,,100,D,,,,,,FALSE,click #choice-2,,,,silence,,,,,192098.01999999763,192096.2499999987,189818.813,189833.41999999902,189835.479,192102.055,,,
Item 100,flow.Sequence,2_1_1,2021-04-24T15:36:58.135Z,,,,,,,,,,,,,,,,,,,,,,,,,,,,,,,37367.610999998695,,completion,,,,,,,,,,,,,,,,,,,,,192098.17999999723,192096.2499999987,154711.973,154713.75999999873,154728.639,192102.055,,,
End of Practice,html.Page,2_1_2,2021-04-24T15:37:02.909Z,,,,,,,,,,,,,,,,,,,,,,,,,,,,,,,4769.9499999974505,,form submission,,,,,,,,,,,,,,,,,,,,,196872.19499999992,196872.00499999744,192085.389,192098.25999999885,192102.055,196883.471,,,
Practice,flow.Sequence,2_1,2021-04-24T15:37:02.910Z,,,,,,,,,,,,,,,,,,,,,,,,,,,,,,,84894.35299999744,,completion,,,,,,,,,,,,,,,,,,,,,196872.35499999952,196872.00499999744,111960.986,111967.04999999929,111977.652,196883.471,,,
Trap_instruction,html.Page,2_2_0,2021-04-24T15:37:05.991Z,,,,,,,,,,,,,,,,,,,,,,,,,,,,,,,3070.1039999995555,,form submission,,,,,,,,,,,,,,,,,,,,,199953.77000000008,199953.57499999955,196866.805,196872.46500000037,196883.471,199966.681,,,
trap_trial,html.Screen,2_2_1,2021-04-24T15:37:08.954Z,,,,,,,,,,,,,,,,,,,,,,,,,,,,true,1,,2948.633999998361,,response,,,,,,,,,,,1,click #choice-1,,,,,,,,,202916.9499999989,202915.31499999837,199950.015,199953.86999999755,199966.681,202933.229,,,
end of trap trial,html.Page,2_2_2,2021-04-24T15:37:11.047Z,,,,,,,,,,,,,,,,,,,,,,,,,,,,,,,2076.2359999991895,,form submission,,,,,,,,,,,,,,,,,,,,,205009.65499999802,205009.46499999918,202916.563,202917.04499999832,202933.229,205016.479,,,
Trap 1,flow.Sequence,2_2,2021-04-24T15:37:11.047Z,,,,,,,,,,,,,,,,,,,,,,,,,,,,,,,8125.993999999191,,completion,,,,,,,,,,,,,,,,,,,,,205009.80499999787,205009.46499999918,196866.805,196872.42999999944,196883.471,205016.479,,,
Standby,html.Page,2_3_0,2021-04-24T15:37:19.039Z,,,,,,,,,,,,,,,,,,,,,,,,,,,,,,,7999.680000000022,,timeout,,,,,,,,,,,,,,,,,,,,,213001.46999999924,212999.493,204999.813,205009.91499999873,205016.479,213016.159,,,
Holding screen,html.Screen,2_3_1_0_0,2021-04-24T15:37:26.037Z,,,,,,,,,,,,,,,,,,,,,,,,,,,,,,,6998.487999999983,,timeout,,,,,,,,,,,,,,,,,,,,,219999.58499999775,219997.981,212999.493,213001.7599999992,213016.159,220014.647,,,
screen,html.Screen,2_3_1_0_1_0,2021-04-24T15:37:29.257Z,,,,,,,,,,,,,,,,,11,,,,,,,,,,,,,,3200.8979999991134,,response,,,,4,D,,,,,,Space,keypress(Space),,,,silence,,,,Known -- ---- --- -- --- -------- ------------ ---------- --<br>- ------- ------ --------- -- ------------ -- --- ---- -----<br>------ ---- ---- ------ ------ ------- --- ----- ---------<br>---- --- -------- -------- --- --- -- ------- --- --- -----<br>-- --- ------ ------- --- --- -------- ---- --------- --<br>---------- -- -------- ----------------,223218.81500000018,223215.5449999991,219997.981,219999.81999999727,220014.647,223231.185,,0,Known
screen,html.Screen,2_3_1_0_1_1,2021-04-24T15:37:29.690Z,,,,,,,,,,,,,,,,,11,,,,,,,,,,,,,,418.44499999989057,,response,,,,4,D,,,,,,Space,keypress(Space),,,,silence,,,,----- as ---- --- -- --- -------- ------------ ---------- --<br>- ------- ------ --------- -- ------------ -- --- ---- -----<br>------ ---- ---- ------ ------ ------- --- ----- ---------<br>---- --- -------- -------- --- --- -- ------- --- --- -----<br>-- --- ------ ------- --- --- -------- ---- --------- --<br>---------- -- -------- ----------------,223652.35499999835,223649.6299999999,223214.519,223218.93999999884,223231.185,223664.501,,1,as
screen,html.Screen,2_3_1_0_1_2,2021-04-24T15:37:29.995Z,,,,,,,,,,,,,,,,,11,,,,,,,,,,,,,,290.0439999968803,,response,,,,4,D,,,,,,Space,keypress(Space),,,,silence,,,,----- -- Rapa --- -- --- -------- ------------ ---------- --<br>- ------- ------ --------- -- ------------ -- --- ---- -----<br>------ ---- ---- ------ ------ ------- --- ----- ---------<br>---- --- -------- -------- --- --- -- ------- --- --- -----<br>-- --- ------ ------- --- --- -------- ---- --------- --<br>---------- -- -------- ----------------,223957.21499999854,223954.54499999687,223647.835,223652.4649999992,223664.501,223971.26,,2,Rapa
screen,html.Screen,2_3_1_0_1_3,2021-04-24T15:37:30.301Z,,,,,,,,,,,,,,,,,11,,,,,,,,,,,,,,289.2500000000582,,response,,,,4,D,,,,,,Space,keypress(Space),,,,silence,,,,----- -- ---- Nui -- --- -------- ------------ ---------- --<br>- ------- ------ --------- -- ------------ -- --- ---- -----<br>------ ---- ---- ------ ------ ------- --- ----- ---------<br>---- --- -------- -------- --- --- -- ------- --- --- -----<br>-- --- ------ ------- --- --- -------- ---- --------- --<br>---------- -- -------- ----------------,224263.23499999853,224260.51000000007,223954.594,223957.3199999977,223971.26,224271.248,,3,Nui
screen,html.Screen,2_3_1_0_1_4,2021-04-24T15:37:30.676Z,,,,,,,,,,,,,,,,,11,,,,,,,,,,,,,,364.33199999830686,,response,,,,4,D,,,,,,Space,keypress(Space),,,,silence,,,,----- -- ---- --- to --- -------- ------------ ---------- --<br>- ------- ------ --------- -- ------------ -- --- ---- -----<br>------ ---- ---- ------ ------ ------- --- ----- ---------<br>---- --- -------- -------- --- --- -- ------- --- --- -----<br>-- --- ------ ------- --- --- -------- ---- --------- --<br>---------- -- -------- ----------------,224638.50999999704,224635.5799999983,224254.582,224263.3449999994,224271.248,224654.566,,4,to
screen,html.Screen,2_3_1_0_1_5,2021-04-24T15:37:31.027Z,,,,,,,,,,,,,,,,,11,,,,,,,,,,,,,,331.998999999254,,response,,,,4,D,,,,,,Space,keypress(Space),,,,silence,,,,----- -- ---- --- -- the -------- ------------ ---------- --<br>- ------- ------ --------- -- ------------ -- --- ---- -----<br>------ ---- ---- ------ ------ ------- --- ----- ---------<br>---- --- -------- -------- --- --- -- ------- --- --- -----<br>-- --- ------ ------- --- --- -------- ---- --------- --<br>---------- -- -------- ----------------,224989.43999999756,224986.56499999925,224637.9,224638.6599999969,224654.566,225004.552,,5,the
screen,html.Screen,2_3_1_0_1_6,2021-04-24T15:37:31.339Z,,,,,,,,,,,,,,,,,11,,,,,,,,,,,,,,293.8930000003602,,response,,,,4,D,,,,,,Space,keypress(Space),,,,silence,,,,----- -- ---- --- -- --- island's ------------ ---------- --<br>- ------- ------ --------- -- ------------ -- --- ---- -----<br>------ ---- ---- ------ ------ ------- --- ----- ---------<br>---- --- -------- -------- --- --- -- ------- --- --- -----<br>-- --- ------ ------- --- --- -------- ---- --------- --<br>---------- -- -------- ----------------,225301.10499999864,225298.44500000036,224987.886,224989.54500000036,225004.552,225304.54,,6,island's
screen,html.Screen,2_3_1_0_1_7,2021-04-24T15:37:31.669Z,,,,,,,,,,,,,,,,,11,,,,,,,,,,,,,,323.9199999998964,,response,,,,4,D,,,,,,Space,keypress(Space),,,,silence,,,,"----- -- ---- --- -- --- -------- inhabitants, ---------- --<br>- ------- ------ --------- -- ------------ -- --- ---- -----<br>------ ---- ---- ------ ------ ------- --- ----- ---------<br>---- --- -------- -------- --- --- -- ------- --- --- -----<br>-- --- ------ ------- --- --- -------- ---- --------- --<br>---------- -- -------- ----------------",225631.26999999804,225628.4599999999,225287.874,225301.2149999995,225304.54,225637.86,,7,"inhabitants,"
screen,html.Screen,2_3_1_0_1_8,2021-04-24T15:37:31.979Z,,,,,,,,,,,,,,,,,11,,,,,,,,,,,,,,300.715000000142,,response,,,,4,D,,,,,,Space,keypress(Space),,,,silence,,,,----- -- ---- --- -- --- -------- ------------ Rongorongo --<br>- ------- ------ --------- -- ------------ -- --- ---- -----<br>------ ---- ---- ------ ------ ------- --- ----- ---------<br>---- --- -------- -------- --- --- -- ------- --- --- -----<br>-- --- ------ ------- --- --- -------- ---- --------- --<br>---------- -- -------- ----------------,225941.50499999887,225938.57500000013,225621.194,225631.3749999972,225637.86,225954.514,,8,Rongorongo
screen,html.Screen,2_3_1_0_1_9,2021-04-24T15:37:32.485Z,,,,,,,,,,,,,,,,,11,,,,,,,,,,,,,,489.89099999837345,,response,,,,4,D,,,,,,Space,keypress(Space),,,,silence,,,,----- -- ---- --- -- --- -------- ------------ ---------- is<br>- ------- ------ --------- -- ------------ -- --- ---- -----<br>------ ---- ---- ------ ------ ------- --- ----- ---------<br>---- --- -------- -------- --- --- -- ------- --- --- -----<br>-- --- ------ ------- --- --- -------- ---- --------- --<br>---------- -- -------- ----------------,226447.25499999913,226444.40499999837,225937.848,225941.61499999973,225954.514,226454.494,,9,is
screen,html.Screen,2_3_1_0_1_10,2021-04-24T15:37:32.868Z,,,,,,,,,,,,,,,,,11,,,,,,,,,,,,,,373.59599999905913,,response,,,,4,D,,,,,,Space,keypress(Space),,,,silence,,,,----- -- ---- --- -- --- -------- ------------ ---------- --<br>a ------- ------ --------- -- ------------ -- --- ---- -----<br>------ ---- ---- ------ ------ ------- --- ----- ---------<br>---- --- -------- -------- --- --- -- ------- --- --- -----<br>-- --- ------ ------- --- --- -------- ---- --------- --<br>---------- -- -------- ----------------,226830.23999999932,226828.08999999907,226437.828,226447.36999999805,226454.494,226837.812,,10,a
screen,html.Screen,2_3_1_0_1_11,2021-04-24T15:37:33.206Z,,,,,,,,,,,,,,,,,11,,,,,,,,,,,,,,327.63299999872106,,response,,,,4,D,,,,,,Space,keypress(Space),,,,silence,,,,----- -- ---- --- -- --- -------- ------------ ---------- --<br>- writing ------ --------- -- ------------ -- --- ---- -----<br>------ ---- ---- ------ ------ ------- --- ----- ---------<br>---- --- -------- -------- --- --- -- ------- --- --- -----<br>-- --- ------ ------- --- --- -------- ---- --------- --<br>---------- -- -------- ----------------,227168.33499999848,227165.44499999873,226821.146,226830.37999999942,226837.812,227171.132,,11,writing
screen,html.Screen,2_3_1_0_1_12,2021-04-24T15:37:33.563Z,,,,,,,,,,,,,,,,,11,,,,,,,,,,,,,,351.3829999969166,,response,,,,4,D,,,,,,Space,keypress(Space),,,,silence,,,,----- -- ---- --- -- --- -------- ------------ ---------- --<br>- ------- system --------- -- ------------ -- --- ---- -----<br>------ ---- ---- ------ ------ ------- --- ----- ---------<br>---- --- -------- -------- --- --- -- ------- --- --- -----<br>-- --- ------ ------- --- --- -------- ---- --------- --<br>---------- -- -------- ----------------,227525.25999999853,227522.51499999693,227154.466,227168.4349999996,227171.132,227537.784,,12,system
screen,html.Screen,2_3_1_0_1_13,2021-04-24T15:37:33.950Z,,,,,,,,,,,,,,,,,11,,,,,,,,,,,,,,371.6059999970603,,response,,,,4,D,,,,,,Space,keypress(Space),,,,silence,,,,----- -- ---- --- -- --- -------- ------------ ---------- --<br>- ------- ------ comprised -- ------------ -- --- ---- -----<br>------ ---- ---- ------ ------ ------- --- ----- ---------<br>---- --- -------- -------- --- --- -- ------- --- --- -----<br>-- --- ------ ------- --- --- -------- ---- --------- --<br>---------- -- -------- ----------------,227912.12999999698,227909.38999999707,227521.118,227525.3649999977,227537.784,227921.102,,13,comprised
screen,html.Screen,2_3_1_0_1_14,2021-04-24T15:37:34.336Z,,,,,,,,,,,,,,,,,11,,,,,,,,,,,,,,374.5480000000098,,response,,,,4,D,,,,,,Space,keypress(Space),,,,silence,,,,----- -- ---- --- -- --- -------- ------------ ---------- --<br>- ------- ------ --------- of ------------ -- --- ---- -----<br>------ ---- ---- ------ ------ ------- --- ----- ---------<br>---- --- -------- -------- --- --- -- ------- --- --- -----<br>-- --- ------ ------- --- --- -------- ---- --------- --<br>---------- -- -------- ----------------,228298.4550000001,228295.65000000002,227904.436,227912.2299999981,227921.102,228304.42,,14,of
screen,html.Screen,2_3_1_0_1_15,2021-04-24T15:37:34.667Z,,,,,,,,,,,,,,,,,11,,,,,,,,,,,,,,321.9450000000652,,response,,,,4,D,,,,,,Space,keypress(Space),,,,silence,,,,----- -- ---- --- -- --- -------- ------------ ---------- --<br>- ------- ------ --------- -- pictographs. -- --- ---- -----<br>------ ---- ---- ------ ------ ------- --- ----- ---------<br>---- --- -------- -------- --- --- -- ------- --- --- -----<br>-- --- ------ ------- --- --- -------- ---- --------- --<br>---------- -- -------- ----------------,228629.10999999804,228626.36500000008,228287.754,228298.55999999927,228304.42,228637.74,,15,pictographs.
screen,html.Screen,2_3_1_0_1_16,2021-04-24T15:37:35.065Z,,,,,,,,,,,,,,,,,11,,,,,,,,,,,,,,386.609999999695,,response,,,,4,D,,,,,,Space,keypress(Space),,,,silence,,,,----- -- ---- --- -- --- -------- ------------ ---------- --<br>- ------- ------ --------- -- ------------ It --- ---- -----<br>------ ---- ---- ------ ------ ------- --- ----- ---------<br>---- --- -------- -------- --- --- -- ------- --- --- -----<br>-- --- ------ ------- --- --- -------- ---- --------- --<br>---------- -- -------- ----------------,229027.3500000003,229024.3499999997,228621.074,228629.2149999972,228637.74,229037.724,,16,It
screen,html.Screen,2_3_1_0_1_17,2021-04-24T15:37:35.444Z,,,,,,,,,,,,,,,,,11,,,,,,,,,,,,,,365.58599999788566,,response,,,,4,D,,,,,,Space,keypress(Space),,,,silence,,,,----- -- ---- --- -- --- -------- ------------ ---------- --<br>- ------- ------ --------- -- ------------ -- has ---- -----<br>------ ---- ---- ------ ------ ------- --- ----- ---------<br>---- --- -------- -------- --- --- -- ------- --- --- -----<br>-- --- ------ ------- --- --- -------- ---- --------- --<br>---------- -- -------- ----------------,229406.0099999988,229403.30999999787,229021.058,229027.45999999752,229037.724,229421.042,,17,has
screen,html.Screen,2_3_1_0_1_18,2021-04-24T15:37:35.736Z,,,,,,,,,,,,,,,,,11,,,,,,,,,,,,,,274.3729999983334,,response,,,,4,D,,,,,,Space,keypress(Space),,,,silence,,,,----- -- ---- --- -- --- -------- ------------ ---------- --<br>- ------- ------ --------- -- ------------ -- --- been -----<br>------ ---- ---- ------ ------ ------- --- ----- ---------<br>---- --- -------- -------- --- --- -- ------- --- --- -----<br>-- --- ------ ------- --- --- -------- ---- --------- --<br>---------- -- -------- ----------------,229698.17499999772,229695.41499999832,229404.376,229406.11499999795,229421.042,229704.364,,18,been
screen,html.Screen,2_3_1_0_1_19,2021-04-24T15:37:36.143Z,,,,,,,,,,,,,,,,,11,,,,,,,,,,,,,,397.99599999713246,,response,,,,4,D,,,,,,Space,keypress(Space),,,,silence,,,,----- -- ---- --- -- --- -------- ------------ ---------- --<br>- ------- ------ --------- -- ------------ -- --- ---- found<br>------ ---- ---- ------ ------ ------- --- ----- ---------<br>---- --- -------- -------- --- --- -- ------- --- --- -----<br>-- --- ------ ------- --- --- -------- ---- --------- --<br>---------- -- -------- ----------------,230104.99999999956,230102.35999999713,229687.698,229698.27999999688,229704.364,230121.014,,19,found
screen,html.Screen,2_3_1_0_1_20,2021-04-24T15:37:36.485Z,,,,,,,,,,,,,,,,,11,,,,,,,,,,,,,,323.3159999984491,,response,,,,4,D,,,,,,Space,keypress(Space),,,,silence,,,,----- -- ---- --- -- --- -------- ------------ ---------- --<br>- ------- ------ --------- -- ------------ -- --- ---- -----<br>carved ---- ---- ------ ------ ------- --- ----- ---------<br>---- --- -------- -------- --- --- -- ------- --- --- -----<br>-- --- ------ ------- --- --- -------- ---- --------- --<br>---------- -- -------- ----------------,230447.0399999991,230444.32999999844,230104.348,230105.11000000042,230121.014,230454.334,,20,carved
screen,html.Screen,2_3_1_0_1_21,2021-04-24T15:37:36.822Z,,,,,,,,,,,,,,,,,11,,,,,,,,,,,,,,327.04600000035134,,response,,,,4,D,,,,,,Space,keypress(Space),,,,silence,,,,----- -- ---- --- -- --- -------- ------------ ---------- --<br>- ------- ------ --------- -- ------------ -- --- ---- -----<br>------ into ---- ------ ------ ------- --- ----- ---------<br>---- --- -------- -------- --- --- -- ------- --- --- -----<br>-- --- ------ ------- --- --- -------- ---- --------- --<br>---------- -- -------- ----------------,230784.48500000013,230781.38000000035,230437.668,230447.14499999827,230454.334,230787.654,,21,into
screen,html.Screen,2_3_1_0_1_22,2021-04-24T15:37:37.115Z,,,,,,,,,,,,,,,,,11,,,,,,,,,,,,,,286.6309999987716,,response,,,,4,D,,,,,,Space,keypress(Space),,,,silence,,,,----- -- ---- --- -- --- -------- ------------ ---------- --<br>- ------- ------ --------- -- ------------ -- --- ---- -----<br>------ ---- many ------ ------ ------- --- ----- ---------<br>---- --- -------- -------- --- --- -- ------- --- --- -----<br>-- --- ------ ------- --- --- -------- ---- --------- --<br>---------- -- -------- ----------------,231077.02499999868,231074.28499999878,230770.988,230784.5899999993,230787.654,231087.642,,22,many
screen,html.Screen,2_3_1_0_1_23,2021-04-24T15:37:37.418Z,,,,,,,,,,,,,,,,,11,,,,,,,,,,,,,,289.5929999999353,,response,,,,4,D,,,,,,Space,keypress(Space),,,,silence,,,,----- -- ---- --- -- --- -------- ------------ ---------- --<br>- ------- ------ --------- -- ------------ -- --- ---- -----<br>------ ---- ---- oblong ------ ------- --- ----- ---------<br>---- --- -------- -------- --- --- -- ------- --- --- -----<br>-- --- ------ ------- --- --- -------- ---- --------- --<br>---------- -- -------- ----------------,231380.01999999688,231377.23499999993,231070.976,231077.12999999785,231087.642,231387.63,,23,oblong
screen,html.Screen,2_3_1_0_1_24,2021-04-24T15:37:37.782Z,,,,,,,,,,,,,,,,,11,,,,,,,,,,,,,,353.62499999717693,,response,,,,4,D,,,,,,Space,keypress(Space),,,,silence,,,,----- -- ---- --- -- --- -------- ------------ ---------- --<br>- ------- ------ --------- -- ------------ -- --- ---- -----<br>------ ---- ---- ------ wooden ------- --- ----- ---------<br>---- --- -------- -------- --- --- -- ------- --- --- -----<br>-- --- ------ ------- --- --- -------- ---- --------- --<br>---------- -- -------- ----------------,231744.12499999744,231741.25499999718,231370.964,231380.12999999773,231387.63,231754.282,,24,wooden
screen,html.Screen,2_3_1_0_1_25,2021-04-24T15:37:38.121Z,,,,,,,,,,,,,,,,,11,,,,,,,,,,,,,,326.0429999989865,,response,,,,4,D,,,,,,Space,keypress(Space),,,,silence,,,,----- -- ---- --- -- --- -------- ------------ ---------- --<br>- ------- ------ --------- -- ------------ -- --- ---- -----<br>------ ---- ---- ------ ------ tablets --- ----- ---------<br>---- --- -------- -------- --- --- -- ------- --- --- -----<br>-- --- ------ ------- --- --- -------- ---- --------- --<br>---------- -- -------- ----------------,232083.1049999979,232080.324999999,231737.616,231744.23000000024,231754.282,232087.602,,25,tablets
screen,html.Screen,2_3_1_0_1_26,2021-04-24T15:37:38.502Z,,,,,,,,,,,,,,,,,11,,,,,,,,,,,,,,373.6379999968922,,response,,,,4,D,,,,,,Space,keypress(Space),,,,silence,,,,----- -- ---- --- -- --- -------- ------------ ---------- --<br>- ------- ------ --------- -- ------------ -- --- ---- -----<br>------ ---- ---- ------ ------ ------- and ----- ---------<br>---- --- -------- -------- --- --- -- ------- --- --- -----<br>-- --- ------ ------- --- --- -------- ---- --------- --<br>---------- -- -------- ----------------,232463.92500000002,232461.2399999969,232070.936,232083.21499999875,232087.602,232470.92,,26,and
screen,html.Screen,2_3_1_0_1_27,2021-04-24T15:37:38.845Z,,,,,,,,,,,,,,,,,11,,,,,,,,,,,,,,333.3999999992666,,response,,,,4,D,,,,,,Space,keypress(Space),,,,silence,,,,----- -- ---- --- -- --- -------- ------------ ---------- --<br>- ------- ------ --------- -- ------------ -- --- ---- -----<br>------ ---- ---- ------ ------ ------- --- other ---------<br>---- --- -------- -------- --- --- -- ------- --- --- -----<br>-- --- ------ ------- --- --- -------- ---- --------- --<br>---------- -- -------- ----------------,232807.18999999954,232804.31999999928,232454.254,232464.02999999918,232470.92,232820.906,,27,other
screen,html.Screen,2_3_1_0_1_28,2021-04-24T15:37:39.202Z,,,,,,,,,,,,,,,,,11,,,,,,,,,,,,,,340.3239999978978,,response,,,,4,D,,,,,,Space,keypress(Space),,,,silence,,,,----- -- ---- --- -- --- -------- ------------ ---------- --<br>- ------- ------ --------- -- ------------ -- --- ---- -----<br>------ ---- ---- ------ ------ ------- --- ----- artifacts<br>---- --- -------- -------- --- --- -- ------- --- --- -----<br>-- --- ------ ------- --- --- -------- ---- --------- --<br>---------- -- -------- ----------------,233163.97999999754,233161.2299999979,232804.24,232807.3000000004,232820.906,233170.892,,28,artifacts
screen,html.Screen,2_3_1_0_1_29,2021-04-24T15:37:39.589Z,,,,,,,,,,,,,,,,,11,,,,,,,,,,,,,,377.1880000004894,,response,,,,4,D,,,,,,Space,keypress(Space),,,,silence,,,,----- -- ---- --- -- --- -------- ------------ ---------- --<br>- ------- ------ --------- -- ------------ -- --- ---- -----<br>------ ---- ---- ------ ------ ------- --- ----- ---------<br>from --- -------- -------- --- --- -- ------- --- --- -----<br>-- --- ------ ------- --- --- -------- ---- --------- --<br>---------- -- -------- ----------------,233550.84499999793,233548.08000000048,233154.226,233164.0899999984,233170.892,233554.21,,29,from
screen,html.Screen,2_3_1_0_1_30,2021-04-24T15:37:39.995Z,,,,,,,,,,,,,,,,,11,,,,,,,,,,,,,,400.05500000031316,,response,,,,4,D,,,,,,Space,keypress(Space),,,,silence,,,,----- -- ---- --- -- --- -------- ------------ ---------- --<br>- ------- ------ --------- -- ------------ -- --- ---- -----<br>------ ---- ---- ------ ------ ------- --- ----- ---------<br>---- the -------- -------- --- --- -- ------- --- --- -----<br>-- --- ------ ------- --- --- -------- ---- --------- --<br>---------- -- -------- ----------------,233957.1849999993,233954.2650000003,233537.544,233550.9499999971,233554.21,233970.86,,30,the
screen,html.Screen,2_3_1_0_1_31,2021-04-24T15:37:40.336Z,,,,,,,,,,,,,,,,,11,,,,,,,,,,,,,,324.3249999990512,,response,,,,4,D,,,,,,Space,keypress(Space),,,,silence,,,,----- -- ---- --- -- --- -------- ------------ ---------- --<br>- ------- ------ --------- -- ------------ -- --- ---- -----<br>------ ---- ---- ------ ------ ------- --- ----- ---------<br>---- --- island's -------- --- --- -- ------- --- --- -----<br>-- --- ------ ------- --- --- -------- ---- --------- --<br>---------- -- -------- ----------------,234297.83499999758,234295.18499999904,233954.194,233957.29500000016,233970.86,234311.468,,31,island's
screen,html.Screen,2_3_1_0_1_32,2021-04-24T15:37:40.669Z,,,,,,,,,,,,,,,,,11,,,,,,,,,,,,,,316.64699999953154,,response,,,,4,D,,,,,,Space,keypress(Space),,,,silence,,,,----- -- ---- --- -- --- -------- ------------ ---------- --<br>- ------- ------ --------- -- ------------ -- --- ---- -----<br>------ ---- ---- ------ ------ ------- --- ----- ---------<br>---- --- -------- history. --- --- -- ------- --- --- -----<br>-- --- ------ ------- --- --- -------- ---- --------- --<br>---------- -- -------- ----------------,234630.76,234628.11499999953,234294.802,234297.94499999844,234311.468,234644.788,,32,history.
screen,html.Screen,2_3_1_0_1_33,2021-04-24T15:37:41.025Z,,,,,,,,,,,,,,,,,11,,,,,,,,,,,,,,339.46199999770033,,response,,,,4,D,,,,,,Space,keypress(Space),,,,silence,,,,----- -- ---- --- -- --- -------- ------------ ---------- --<br>- ------- ------ --------- -- ------------ -- --- ---- -----<br>------ ---- ---- ------ ------ ------- --- ----- ---------<br>---- --- -------- -------- The --- -- ------- --- --- -----<br>-- --- ------ ------- --- --- -------- ---- --------- --<br>---------- -- -------- ----------------,234987.31000000043,234984.2499999977,234628.122,234630.86499999918,234644.788,234994.774,,33,The
screen,html.Screen,2_3_1_0_1_34,2021-04-24T15:37:41.389Z,,,,,,,,,,,,,,,,,11,,,,,,,,,,,,,,353.3809999996738,,response,,,,4,D,,,,,,Space,keypress(Space),,,,silence,,,,----- -- ---- --- -- --- -------- ------------ ---------- --<br>- ------- ------ --------- -- ------------ -- --- ---- -----<br>------ ---- ---- ------ ------ ------- --- ----- ---------<br>---- --- -------- -------- --- art -- ------- --- --- -----<br>-- --- ------ ------- --- --- -------- ---- --------- --<br>---------- -- -------- ----------------,235350.83999999915,235348.15499999968,234978.108,234987.41999999766,234994.774,235361.426,,34,art
screen,html.Screen,2_3_1_0_1_35,2021-04-24T15:37:41.706Z,,,,,,,,,,,,,,,,,11,,,,,,,,,,,,,,303.7289999987697,,response,,,,4,D,,,,,,Space,keypress(Space),,,,silence,,,,----- -- ---- --- -- --- -------- ------------ ---------- --<br>- ------- ------ --------- -- ------------ -- --- ---- -----<br>------ ---- ---- ------ ------ ------- --- ----- ---------<br>---- --- -------- -------- --- --- of ------- --- --- -----<br>-- --- ------ ------- --- --- -------- ---- --------- --<br>---------- -- -------- ----------------,235667.849999998,235665.15499999878,235344.76,235350.95499999807,235361.426,235678.08,,35,of
screen,html.Screen,2_3_1_0_1_36,2021-04-24T15:37:42.016Z,,,,,,,,,,,,,,,,,11,,,,,,,,,,,,,,297.1500000000233,,response,,,,4,D,,,,,,Space,keypress(Space),,,,silence,,,,----- -- ---- --- -- --- -------- ------------ ---------- --<br>- ------- ------ --------- -- ------------ -- --- ---- -----<br>------ ---- ---- ------ ------ ------- --- ----- ---------<br>---- --- -------- -------- --- --- -- writing --- --- -----<br>-- --- ------ ------- --- --- -------- ---- --------- --<br>---------- -- -------- ----------------,235977.96000000017,235975.23,235661.414,235667.95999999886,235678.08,235994.734,,36,writing
screen,html.Screen,2_3_1_0_1_37,2021-04-24T15:37:42.355Z,,,,,,,,,,,,,,,,,11,,,,,,,,,,,,,,319.39599999884376,,response,,,,4,D,,,,,,Space,keypress(Space),,,,silence,,,,----- -- ---- --- -- --- -------- ------------ ---------- --<br>- ------- ------ --------- -- ------------ -- --- ---- -----<br>------ ---- ---- ------ ------ ------- --- ----- ---------<br>---- --- -------- -------- --- --- -- ------- was --- -----<br>-- --- ------ ------- --- --- -------- ---- --------- --<br>---------- -- -------- ----------------,236317.19999999768,236314.12999999884,235978.068,235978.06499999933,235994.734,236328.054,,37,was
