sender,sender_type,sender_id,timestamp,meta,,Blues,Classical,Country,Dance,Electronic,Folk,Gospel,Hip-Hop,Jazz,Latin,Musical/Film,New-age,Pop,Prolific_id,Provo_ID,R&B,Rap,Reggae,Religious,Rock,Soul,Swing,Traditional,age,artist_name,correct,correctResponse,distraction,duration,education,ended_on,familiarity,gender,headphone_check_performance,item,list,music_frequency,offensiveness,pleasantness,position_correct,preference,response,response_action,snippet_file,song_name,song_rating,sound,stimulus_1,stimulus_2,stimulus_3,text,time_commit,time_end,time_render,time_run,time_show,time_switch,url,word,word_ID
Prolific ID,html.Form,0,2021-04-30T11:53:57.938Z,"{""labjs_version"":""20.2.2"",""labjs_build"":{""flavor"":""production"",""commit"":""a25486e0c714a0ae2ce03ff94b7bb6896854dcfa""},""location"":""https://run.pavlovia.org/mvasilev/prolific_music_d/"",""userAgent"":""Mozilla/5.0 (Windows NT 10.0; Win64; x64) AppleWebKit/537.36 (KHTML, like Gecko) Chrome/90.0.4430.93 Safari/537.36"",""platform"":""Win32"",""language"":""en-GB"",""locale"":""en-GB"",""timeZone"":""Europe/London"",""timezoneOffset"":-60,""screen_width"":1475,""screen_height"":830,""scroll_width"":1475,""scroll_height"":640,""window_innerWidth"":1475,""window_innerHeight"":688,""devicePixelRatio"":1.3020833730697632}",,,,,,,,,,,,,,,5eafd54c4f8d66000ad64e14,,,,,,,,,,,,,,,5702.4729999994015,,form submission,,,,,,,,,,,,,,,,,,,,,27005.694999999832,27005.459999999402,21286.666,18370.999999999185,21302.987,27052.98,{},,
Introduction,html.Screen,1_0,2021-04-30T11:54:01.816Z,,,,,,,,,,,,,,,,,,,,,,,,,,,,,,,3829.3299999999617,,response,,,,,,,,,,,continue,click button,,,,,,,,,30884.19999999951,30882.30999999996,27003.29,27005.874999999833,27052.98,30886.315,,,
Volume calibration,html.Screen,1_1,2021-04-30T11:54:21.802Z,,,,,,,,,,,,,,,,,,,,,,,,,,,,,,,19981.964999999687,,response,,,,,,,,,,,continue,click button,,,,,,,,,50869.949999999335,50868.279999999686,30869.681,30884.314999999333,30886.315,50898.477,,,
Task instructions,html.Screen,1_2,2021-04-30T11:54:28.051Z,,,,,,,,,,,,,,,,,,,,,,,,,,,,,,,6219.767999999662,,response,,,,,,,,,,,continue,click button,,,,,,,,,57119.009999999435,57118.24499999966,50852.935,50870.04999999954,50898.477,57147.407,,,
Sounds,html.Screen,1_3_0_0,2021-04-30T11:54:32.322Z,,,,,,,,,,,,,,,,,,,,,,,,,,,,,,,4255.493000000002,,timeout,,,,,,,,,2,,,,,,,,O,S,I,,61388.98999999947,61386.388,57102.916,57119.26499999936,57147.407,61402.9,,,
Judgement,html.Screen,1_3_0_1,2021-04-30T11:54:33.171Z,,,,,,,,,,,,,,,,,,,,,,,,,,,,true,2,,834.6799999999785,,response,,,,,,,,,2,,2,click #choice-2,,,,,O,S,I,,62238.59999999968,62237.57999999998,61386.388,61389.11999999982,61402.9,62253.029,,,
Trial,flow.Sequence,1_3_0,2021-04-30T11:54:33.171Z,,,,,,,,,,,,,,,,,,,,,,,,,,,,,,,5090.172999999981,,completion,,,,,,,,,2,,,,,,,,O,S,I,,62238.82499999945,62237.57999999998,57102.916,57119.21999999959,57147.407,62253.029,,,
Sounds,html.Screen,1_3_1_0,2021-04-30T11:54:37.420Z,,,,,,,,,,,,,,,,,,,,,,,,,,,,,,,4249.844999999994,,timeout,,,,,,,,,3,,,,,,,,O,I,S,,66487.03499999919,66486.276,62236.261,62238.914999999906,62253.029,66502.874,,,
Judgement,html.Screen,1_3_1_1,2021-04-30T11:54:37.901Z,,,,,,,,,,,,,,,,,,,,,,,,,,,,true,3,,464.7809999994788,,response,,,,,,,,,3,,3,click #choice-3,,,,,O,I,S,,66968.60500000003,66967.65499999947,66486.276,66487.21999999997,66502.874,66969.584,,,
Trial,flow.Sequence,1_3_1,2021-04-30T11:54:37.901Z,,,,,,,,,,,,,,,,,,,,,,,,,,,,,,,4714.625999999473,,completion,,,,,,,,,3,,,,,,,,O,I,S,,66968.73999999935,66967.65499999947,62236.261,62238.884999999755,62253.029,66969.584,,,
Sounds,html.Screen,1_3_2_0,2021-04-30T11:54:42.136Z,,,,,,,,,,,,,,,,,,,,,,,,,,,,,,,4250.008000000002,,timeout,,,,,,,,,1,,,,,,,,S,I,O,,71203.77499999995,71203.05,66952.883,66968.82000000005,66969.584,71219.592,,,
Judgement,html.Screen,1_3_2_1,2021-04-30T11:54:42.571Z,,,,,,,,,,,,,,,,,,,,,,,,,,,,true,1,,417.7579999999725,,response,,,,,,,,,1,,1,click #choice-1,,,,,S,I,O,,71638.19499999954,71637.34999999998,71203.05,71203.9449999993,71219.592,71652.889,,,
Trial,flow.Sequence,1_3_2,2021-04-30T11:54:42.571Z,,,,,,,,,,,,,,,,,,,,,,,,,,,,,,,4667.765999999974,,completion,,,,,,,,,1,,,,,,,,S,I,O,,71638.33499999964,71637.34999999998,66952.883,66968.79499999978,66969.584,71652.889,,,
Sounds,html.Screen,1_3_3_0,2021-04-30T11:54:46.820Z,,,,,,,,,,,,,,,,,,,,,,,,,,,,,,,4249.998000000007,,timeout,,,,,,,,,1,,,,,,,,S,O,I,,75887.51999999932,75886.571,71636.205,71638.40999999957,71652.889,75902.887,,,
Judgement,html.Screen,1_3_3_1,2021-04-30T11:54:47.201Z,,,,,,,,,,,,,,,,,,,,,,,,,,,,true,1,,365.11300000002666,,response,,,,,,,,,1,,1,click #choice-1,,,,,S,O,I,,76268.8049999997,76268.00000000003,75886.571,75887.63500000004,75902.887,76286.774,,,
Trial,flow.Sequence,1_3_3,2021-04-30T11:54:47.202Z,,,,,,,,,,,,,,,,,,,,,,,,,,,,,,,4615.1110000000335,,completion,,,,,,,,,1,,,,,,,,S,O,I,,76268.93999999993,76268.00000000003,71636.205,71638.38499999928,71652.889,76286.774,,,
Sounds,html.Screen,1_3_4_0,2021-04-30T11:54:51.453Z,,,,,,,,,,,,,,,,,,,,,,,,,,,,,,,4249.4649999999965,,timeout,,,,,,,,,2,,,,,,,,I,S,O,,80520.22999999917,80519.583,76252.927,76269.00999999998,76286.774,80536.239,,,
Judgement,html.Screen,1_3_4_1,2021-04-30T11:54:52.021Z,,,,,,,,,,,,,,,,,,,,,,,,,,,,true,2,,551.1559999995516,,response,,,,,,,,,2,,2,click #choice-2,,,,,I,S,O,,81088.47999999943,81087.39499999955,80519.583,80520.35999999952,80536.239,81102.902,,,
Trial,flow.Sequence,1_3_4,2021-04-30T11:54:52.021Z,,,,,,,,,,,,,,,,,,,,,,,,,,,,,,,4800.620999999548,,completion,,,,,,,,,2,,,,,,,,I,S,O,,81088.62999999928,81087.39499999955,76252.927,76268.98999999958,76286.774,81102.902,,,
Sounds,html.Screen,1_3_5_0,2021-04-30T11:54:56.269Z,,,,,,,,,,,,,,,,,,,,,,,,,,,,,,,4249.9619999999995,,timeout,,,,,,,,,3,,,,,,,,I,O,S,,85336.84499999981,85336.274,81086.249,81088.72999999949,81102.902,85352.864,,,
Judgement,html.Screen,1_3_5_1,2021-04-30T11:54:56.841Z,,,,,,,,,,,,,,,,,,,,,,,,,,,,true,3,,554.67599999925,,response,,,,,,,,,3,,3,click #choice-3,,,,,I,O,S,,85908.45499999978,85907.53999999925,85336.274,85336.98000000004,85352.864,85919.574,,,
Trial,flow.Sequence,1_3_5,2021-04-30T11:54:56.841Z,,,,,,,,,,,,,,,,,,,,,,,,,,,,,,,4804.63799999925,,completion,,,,,,,,,3,,,,,,,,I,O,S,,85908.57999999935,85907.53999999925,81086.249,81088.69999999934,81102.902,85919.574,,,
Task,flow.Loop,1_3,2021-04-30T11:54:56.844Z,,,,,,,,,,,,,,,,,,,,,,,,,,,,,,,28760.132999999252,,completion,,,1,,,,,,,,,,,,,,,,,,85911.11000000002,85907.53999999925,57102.916,57119.15999999928,57147.407,85919.574,,,
Trap,html.Screen,1_4,2021-04-30T11:54:56.845Z,,,,,,,,,,,,,,,,,,,,,,,,,,,,,,,NaN,,skipped,,,,,,,,,,,,,,,,,,,,,85912.5099999992,85907.53999999925,,85912.38499999963,,85919.574,,,
Thanks,html.Screen,1_5,2021-04-30T11:54:59.721Z,,,,,,,,,,,,,,,,,,,,,,,,,,,,,,,2867.930999999342,,response,,,,,,,,,,,continue,click button,,,,,,,,,88788.53499999968,88787.50499999934,85902.864,85912.58500000004,85919.574,90736.151,,,
Headphone screening,flow.Sequence,1,2021-04-30T11:54:59.721Z,,,,,,,,,,,,,,,,,,,,,,,,,,,,,,,61734.52499999934,,completion,,,,,,,,,,,,,,,,,,,,,88788.6499999995,88787.50499999934,27003.29,27005.85499999943,27052.98,90736.151,,,
Instructions,html.Page,2_0,2021-04-30T11:55:14.090Z,,,,,,,,,,,,,,,,,,,,,,,,,,,,,,,12420.973999999725,,form submission,,,,,,,,,,,,,,,,,,,,,103157.45499999958,103157.12499999972,90719.508,90734.42499999964,90736.151,103169.962,,,
Holding screen,html.Screen,2_1_0_0,2021-04-30T11:55:24.087Z,,,,,,,,,,,,,,,,,,,,,,,,,,,,,,,10033.101999999999,,timeout,,,,,,,,,,,,,,,,,,,,,113154.00999999928,113153.147,103153.047,103157.5899999998,103169.962,113203.064,,,
screen,html.Screen,2_1_0_1_0,2021-04-30T11:55:25.027Z,,,,,,,,,,,,,,,,,53,,,,,,,,,,,,,,889.9459999996034,,response,,,,99,,,,,,,Space,keypress(Space),,,,,,,,When -- ----- -- ------ - ------- --- ----------<br>------------- ------ ------ ---- ---- ------- ----- -- ----<br>-------- ------- -- ---------- --- - --- ----- ----- ----<br>---- --- --- ----- --- ---- ---- ------- ----- ---- -------<br>--- --- -- ----- -- --- ---- -- --- ---- -- ------ ------<br>--- ----- -- ----,114094.55499999967,114093.0099999996,113153.147,113154.26499999921,113203.064,114102.854,,0,When
screen,html.Screen,2_1_0_1_1,2021-04-30T11:55:25.472Z,,,,,,,,,,,,,,,,,53,,,,,,,,,,,,,,435.59099999921455,,response,,,,99,,,,,,,Space,keypress(Space),,,,,,,,---- it ----- -- ------ - ------- --- ----------<br>------------- ------ ------ ---- ---- ------- ----- -- ----<br>-------- ------- -- ---------- --- - --- ----- ----- ----<br>---- --- --- ----- --- ---- ---- ------- ----- ---- -------<br>--- --- -- ----- -- --- ---- -- --- ---- -- ------ ------<br>--- ----- -- ----,114539.16499999922,114538.44499999922,114086.138,114094.65499999988,114102.854,114552.868,,1,it
screen,html.Screen,2_1_0_1_2,2021-04-30T11:55:25.913Z,,,,,,,,,,,,,,,,,53,,,,,,,,,,,,,,426.8069999995787,,response,,,,99,,,,,,,Space,keypress(Space),,,,,,,,---- -- comes -- ------ - ------- --- ----------<br>------------- ------ ------ ---- ---- ------- ----- -- ----<br>-------- ------- -- ---------- --- - --- ----- ----- ----<br>---- --- --- ----- --- ---- ---- ------- ----- ---- -------<br>--- --- -- ----- -- --- ---- -- --- ---- -- ------ ------<br>--- ----- -- ----,114980.29999999926,114979.67499999958,114536.158,114539.24999999981,114552.868,114986.414,,2,comes
screen,html.Screen,2_1_0_1_3,2021-04-30T11:55:26.260Z,,,,,,,,,,,,,,,,,53,,,,,,,,,,,,,,340.09100000000035,,response,,,,99,,,,,,,Space,keypress(Space),,,,,,,,---- -- ----- to ------ - ------- --- ----------<br>------------- ------ ------ ---- ---- ------- ----- -- ----<br>-------- ------- -- ---------- --- - --- ----- ----- ----<br>---- --- --- ----- --- ---- ---- ------- ----- ---- -------<br>--- --- -- ----- -- --- ---- -- --- ---- -- ------ ------<br>--- ----- -- ----,115327.14999999916,115326.505,114969.861,114980.38999999972,114986.414,115336.23,,3,to
screen,html.Screen,2_1_0_1_4,2021-04-30T11:55:26.587Z,,,,,,,,,,,,,,,,,53,,,,,,,,,,,,,,317.7099999992497,,response,,,,99,,,,,,,Space,keypress(Space),,,,,,,,---- -- ----- -- having - ------- --- ----------<br>------------- ------ ------ ---- ---- ------- ----- -- ----<br>-------- ------- -- ---------- --- - --- ----- ----- ----<br>---- --- --- ----- --- ---- ---- ------- ----- ---- -------<br>--- --- -- ----- -- --- ---- -- --- ---- -- ------ ------<br>--- ----- -- ----,115654.58999999918,115653.93999999925,115319.59,115327.30499999979,115336.23,115669.605,,4,having
screen,html.Screen,2_1_0_1_5,2021-04-30T11:55:26.957Z,,,,,,,,,,,,,,,,,53,,,,,,,,,,,,,,354.5449999992852,,response,,,,99,,,,,,,Space,keypress(Space),,,,,,,,---- -- ----- -- ------ a ------- --- ----------<br>------------- ------ ------ ---- ---- ------- ----- -- ----<br>-------- ------- -- ---------- --- - --- ----- ----- ----<br>---- --- --- ----- --- ---- ---- ------- ----- ---- -------<br>--- --- -- ----- -- --- ---- -- --- ---- -- ------ ------<br>--- ----- -- ----,116024.79999999923,116024.14999999928,115652.796,115654.67999999964,115669.605,116036.464,,5,a
screen,html.Screen,2_1_0_1_6,2021-04-30T11:55:27.323Z,,,,,,,,,,,,,,,,,53,,,,,,,,,,,,,,353.05599999972037,,response,,,,99,,,,,,,Space,keypress(Space),,,,,,,,---- -- ----- -- ------ - lasting --- ----------<br>------------- ------ ------ ---- ---- ------- ----- -- ----<br>-------- ------- -- ---------- --- - --- ----- ----- ----<br>---- --- --- ----- --- ---- ---- ------- ----- ---- -------<br>--- --- -- ----- -- --- ---- -- --- ---- -- ------ ------<br>--- ----- -- ----,116390.12000000002,116389.51999999973,116019.814,116024.9449999992,116036.464,116402.862,,6,lasting
screen,html.Screen,2_1_0_1_7,2021-04-30T11:55:27.709Z,,,,,,,,,,,,,,,,,53,,,,,,,,,,,,,,373.3629999996192,,response,,,,99,,,,,,,Space,keypress(Space),,,,,,,,---- -- ----- -- ------ - ------- and ----------<br>------------- ------ ------ ---- ---- ------- ----- -- ----<br>-------- ------- -- ---------- --- - --- ----- ----- ----<br>---- --- --- ----- --- ---- ---- ------- ----- ---- -------<br>--- --- -- ----- -- --- ---- -- --- ---- -- ------ ------<br>--- ----- -- ----,116776.64499999992,116776.22499999961,116386.18,116390.20999999957,116402.862,116786.483,,7,and
screen,html.Screen,2_1_0_1_8,2021-04-30T11:55:28.007Z,,,,,,,,,,,,,,,,,53,,,,,,,,,,,,,,287.57699999991746,,response,,,,99,,,,,,,Space,keypress(Space),,,,,,,,---- -- ----- -- ------ - ------- --- fulfilling<br>------------- ------ ------ ---- ---- ------- ----- -- ----<br>-------- ------- -- ---------- --- - --- ----- ----- ----<br>---- --- --- ----- --- ---- ---- ------- ----- ---- -------<br>--- --- -- ----- -- --- ---- -- --- ---- -- ------ ------<br>--- ----- -- ----,117074.60499999979,117074.05999999991,116769.833,116776.71999999984,116786.483,117086.289,,8,fulfilling
screen,html.Screen,2_1_0_1_9,2021-04-30T11:55:28.396Z,,,,,,,,,,,,,,,,,53,,,,,,,,,,,,,,376.3359999992099,,response,,,,99,,,,,,,Space,keypress(Space),,,,,,,,"---- -- ----- -- ------ - ------- --- ----------<br>relationship, ------ ------ ---- ---- ------- ----- -- ----<br>-------- ------- -- ---------- --- - --- ----- ----- ----<br>---- --- --- ----- --- ---- ---- ------- ----- ---- -------<br>--- --- -- ----- -- --- ---- -- --- ---- -- ------ ------<br>--- ----- -- ----",117463.20999999989,117462.62499999921,117069.847,117074.69499999934,117086.289,117469.547,,9,"relationship,"
screen,html.Screen,2_1_0_1_10,2021-04-30T11:55:28.766Z,,,,,,,,,,,,,,,,,53,,,,,,,,,,,,,,363.0229999995645,,response,,,,99,,,,,,,Space,keypress(Space),,,,,,,,---- -- ----- -- ------ - ------- --- ----------<br>------------- common ------ ---- ---- ------- ----- -- ----<br>-------- ------- -- ---------- --- - --- ----- ----- ----<br>---- --- --- ----- --- ---- ---- ------- ----- ---- -------<br>--- --- -- ----- -- --- ---- -- --- ---- -- ------ ------<br>--- ----- -- ----,117833.16999999988,117832.56999999957,117452.892,117463.29999999944,117469.547,117836.139,,10,common
screen,html.Screen,2_1_0_1_11,2021-04-30T11:55:29.116Z,,,,,,,,,,,,,,,,,53,,,,,,,,,,,,,,346.9659999991709,,response,,,,99,,,,,,,Space,keypress(Space),,,,,,,,---- -- ----- -- ------ - ------- --- ----------<br>------------- ------ wisdom ---- ---- ------- ----- -- ----<br>-------- ------- -- ---------- --- - --- ----- ----- ----<br>---- --- --- ----- --- ---- ---- ------- ----- ---- -------<br>--- --- -- ----- -- --- ---- -- --- ---- -- ------ ------<br>--- ----- -- ----,118183.65999999968,118183.10499999917,117819.819,117833.33999999923,117836.139,118186.163,,11,wisdom
screen,html.Screen,2_1_0_1_12,2021-04-30T11:55:29.535Z,,,,,,,,,,,,,,,,,53,,,,,,,,,,,,,,416.1319999996922,,response,,,,99,,,,,,,Space,keypress(Space),,,,,,,,---- -- ----- -- ------ - ------- --- ----------<br>------------- ------ ------ says ---- ------- ----- -- ----<br>-------- ------- -- ---------- --- - --- ----- ----- ----<br>---- --- --- ----- --- ---- ---- ------- ----- ---- -------<br>--- --- -- ----- -- --- ---- -- --- ---- -- ------ ------<br>--- ----- -- ----,118602.83499999969,118602.29499999969,118169.462,118183.75500000002,118186.163,118619.496,,12,says
screen,html.Screen,2_1_0_1_13,2021-04-30T11:55:29.907Z,,,,,,,,,,,,,,,,,53,,,,,,,,,,,,,,353.9889999995212,,response,,,,99,,,,,,,Space,keypress(Space),,,,,,,,---- -- ----- -- ------ - ------- --- ----------<br>------------- ------ ------ ---- that ------- ----- -- ----<br>-------- ------- -- ---------- --- - --- ----- ----- ----<br>---- --- --- ----- --- ---- ---- ------- ----- ---- -------<br>--- --- -- ----- -- --- ---- -- --- ---- -- ------ ------<br>--- ----- -- ----,118973.99999999924,118973.48499999952,118603.123,118602.93000000002,118619.496,118986.283,,13,that
screen,html.Screen,2_1_0_1_14,2021-04-30T11:55:30.336Z,,,,,,,,,,,,,,,,,53,,,,,,,,,,,,,,416.46199999941746,,response,,,,99,,,,,,,Space,keypress(Space),,,,,,,,---- -- ----- -- ------ - ------- --- ----------<br>------------- ------ ------ ---- ---- feeling ----- -- ----<br>-------- ------- -- ---------- --- - --- ----- ----- ----<br>---- --- --- ----- --- ---- ---- ------- ----- ---- -------<br>--- --- -- ----- -- --- ---- -- --- ---- -- ------ ------<br>--- ----- -- ----,119403.38499999962,119402.74499999941,118969.805,118974.07499999917,118986.283,119419.602,,14,feeling
screen,html.Screen,2_1_0_1_15,2021-04-30T11:55:30.633Z,,,,,,,,,,,,,,,,,53,,,,,,,,,,,,,,280.022999999288,,response,,,,99,,,,,,,Space,keypress(Space),,,,,,,,---- -- ----- -- ------ - ------- --- ----------<br>------------- ------ ------ ---- ---- ------- close -- ----<br>-------- ------- -- ---------- --- - --- ----- ----- ----<br>---- --- --- ----- --- ---- ---- ------- ----- ---- -------<br>--- --- -- ----- -- --- ---- -- --- ---- -- ------ ------<br>--- ----- -- ----,119700.26499999949,119699.62499999929,119402.904,119403.5099999992,119419.602,119702.793,,15,close
screen,html.Screen,2_1_0_1_16,2021-04-30T11:55:30.973Z,,,,,,,,,,,,,,,,,53,,,,,,,,,,,,,,337.17699999980687,,response,,,,99,,,,,,,Space,keypress(Space),,,,,,,,---- -- ----- -- ------ - ------- --- ----------<br>------------- ------ ------ ---- ---- ------- ----- to ----<br>-------- ------- -- ---------- --- - --- ----- ----- ----<br>---- --- --- ----- --- ---- ---- ------- ----- ---- -------<br>--- --- -- ----- -- --- ---- -- --- ---- -- ------ ------<br>--- ----- -- ----,120040.57499999998,120039.96999999981,119686.48,119700.35499999995,119702.793,120053.137,,16,to
screen,html.Screen,2_1_0_1_17,2021-04-30T11:55:31.330Z,,,,,,,,,,,,,,,,,53,,,,,,,,,,,,,,344.9030000000348,,response,,,,99,,,,,,,Space,keypress(Space),,,,,,,,---- -- ----- -- ------ - ------- --- ----------<br>------------- ------ ------ ---- ---- ------- ----- -- your<br>-------- ------- -- ---------- --- - --- ----- ----- ----<br>---- --- --- ----- --- ---- ---- ------- ----- ---- -------<br>--- --- -- ----- -- --- ---- -- --- ---- -- ------ ------<br>--- ----- -- ----,120398.37499999977,120398.04000000004,120036.149,120040.69999999956,120053.137,120402.768,,17,your
screen,html.Screen,2_1_0_1_18,2021-04-30T11:55:31.649Z,,,,,,,,,,,,,,,,,53,,,,,,,,,,,,,,314.0419999998994,,response,,,,99,,,,,,,Space,keypress(Space),,,,,,,,---- -- ----- -- ------ - ------- --- ----------<br>------------- ------ ------ ---- ---- ------- ----- -- ----<br>romantic ------- -- ---------- --- - --- ----- ----- ----<br>---- --- --- ----- --- ---- ---- ------- ----- ---- -------<br>--- --- -- ----- -- --- ---- -- --- ---- -- ------ ------<br>--- ----- -- ----,120717.39999999954,120716.8099999999,120386.483,120398.45499999955,120402.768,120719.43,,18,romantic
screen,html.Screen,2_1_0_1_19,2021-04-30T11:55:32.186Z,,,,,,,,,,,,,,,,,53,,,,,,,,,,,,,,533.8599999996659,,response,,,,99,,,,,,,Space,keypress(Space),,,,,,,,---- -- ----- -- ------ - ------- --- ----------<br>------------- ------ ------ ---- ---- ------- ----- -- ----<br>-------- partner -- ---------- --- - --- ----- ----- ----<br>---- --- --- ----- --- ---- ---- ------- ----- ---- -------<br>--- --- -- ----- -- --- ---- -- --- ---- -- ------ ------<br>--- ----- -- ----,121253.80499999938,121253.28999999966,120702.822,120717.48999999999,120719.43,121269.544,,19,partner
screen,html.Screen,2_1_0_1_20,2021-04-30T11:55:32.407Z,,,,,,,,,,,,,,,,,53,,,,,,,,,,,,,,204.68599999981234,,response,,,,99,,,,,,,Space,keypress(Space),,,,,,,,---- -- ----- -- ------ - ------- --- ----------<br>------------- ------ ------ ---- ---- ------- ----- -- ----<br>-------- ------- is ---------- --- - --- ----- ----- ----<br>---- --- --- ----- --- ---- ---- ------- ----- ---- -------<br>--- --- -- ----- -- --- ---- -- --- ---- -- ------ ------<br>--- ----- -- ----,121474.80499999983,121474.2299999998,121253.136,121253.95499999923,121269.544,121486.488,,20,is
screen,html.Screen,2_1_0_1_21,2021-04-30T11:55:32.785Z,,,,,,,,,,,,,,,,,53,,,,,,,,,,,,,,365.4519999995682,,response,,,,99,,,,,,,Space,keypress(Space),,,,,,,,---- -- ----- -- ------ - ------- --- ----------<br>------------- ------ ------ ---- ---- ------- ----- -- ----<br>-------- ------- -- paramount. --- - --- ----- ----- ----<br>---- --- --- ----- --- ---- ---- ------- ----- ---- -------<br>--- --- -- ----- -- --- ---- -- --- ---- -- ------ ------<br>--- ----- -- ----,121852.52999999921,121851.93999999957,121469.757,121474.90500000003,121486.488,121886.15,,21,paramount.
screen,html.Screen,2_1_0_1_22,2021-04-30T11:55:33.118Z,,,,,,,,,,,,,,,,,53,,,,,,,,,,,,,,298.91999999954714,,response,,,,99,,,,,,,Space,keypress(Space),,,,,,,,---- -- ----- -- ------ - ------- --- ----------<br>------------- ------ ------ ---- ---- ------- ----- -- ----<br>-------- ------- -- ---------- But - --- ----- ----- ----<br>---- --- --- ----- --- ---- ---- ------- ----- ---- -------<br>--- --- -- ----- -- --- ---- -- --- ---- -- ------ ------<br>--- ----- -- ----,122185.56499999977,122185.06999999954,121869.469,121852.62499999953,121886.15,122202.873,,22,But
screen,html.Screen,2_1_0_1_23,2021-04-30T11:55:33.436Z,,,,,,,,,,,,,,,,,53,,,,,,,,,,,,,,300.6269999997894,,response,,,,99,,,,,,,Space,keypress(Space),,,,,,,,---- -- ----- -- ------ - ------- --- ----------<br>------------- ------ ------ ---- ---- ------- ----- -- ----<br>-------- ------- -- ---------- --- a --- ----- ----- ----<br>---- --- --- ----- --- ---- ---- ------- ----- ---- -------<br>--- --- -- ----- -- --- ---- -- --- ---- -- ------ ------<br>--- ----- -- ----,122504.0599999993,122503.4999999998,122169.518,122185.65499999931,122202.873,122519.51,,23,a
screen,html.Screen,2_1_0_1_24,2021-04-30T11:55:33.660Z,,,,,,,,,,,,,,,,,53,,,,,,,,,,,,,,208.04999999936263,,response,,,,99,,,,,,,Space,keypress(Space),,,,,,,,---- -- ----- -- ------ - ------- --- ----------<br>------------- ------ ------ ---- ---- ------- ----- -- ----<br>-------- ------- -- ---------- --- - new ----- ----- ----<br>---- --- --- ----- --- ---- ---- ------- ----- ---- -------<br>--- --- -- ----- -- --- ---- -- --- ---- -- ------ ------<br>--- ----- -- ----,122728.27999999936,122727.55999999936,122503.152,122504.14499999987,122519.51,122736.494,,24,new
screen,html.Screen,2_1_0_1_25,2021-04-30T11:55:34.008Z,,,,,,,,,,,,,,,,,53,,,,,,,,,,,,,,338.3709999995772,,response,,,,99,,,,,,,Space,keypress(Space),,,,,,,,---- -- ----- -- ------ - ------- --- ----------<br>------------- ------ ------ ---- ---- ------- ----- -- ----<br>-------- ------- -- ---------- --- - --- study ----- ----<br>---- --- --- ----- --- ---- ---- ------- ----- ---- -------<br>--- --- -- ----- -- --- ---- -- --- ---- -- ------ ------<br>--- ----- -- ----,123075.52999999915,123074.86499999958,122719.812,122728.45999999935,122736.494,123086.14,,25,study
screen,html.Screen,2_1_0_1_26,2021-04-30T11:55:34.347Z,,,,,,,,,,,,,,,,,53,,,,,,,,,,,,,,327.9899999992049,,response,,,,99,,,,,,,Space,keypress(Space),,,,,,,,---- -- ----- -- ------ - ------- --- ----------<br>------------- ------ ------ ---- ---- ------- ----- -- ----<br>-------- ------- -- ---------- --- - --- ----- finds ----<br>---- --- --- ----- --- ---- ---- ------- ----- ---- -------<br>--- --- -- ----- -- --- ---- -- --- ---- -- ------ ------<br>--- ----- -- ----,123414.62499999943,123414.1299999992,123069.681,123075.62499999949,123086.14,123419.477,,26,finds
screen,html.Screen,2_1_0_1_27,2021-04-30T11:55:34.697Z,,,,,,,,,,,,,,,,,53,,,,,,,,,,,,,,344.77800000004936,,response,,,,99,,,,,,,Space,keypress(Space),,,,,,,,---- -- ----- -- ------ - ------- --- ----------<br>------------- ------ ------ ---- ---- ------- ----- -- ----<br>-------- ------- -- ---------- --- - --- ----- ----- that<br>---- --- --- ----- --- ---- ---- ------- ----- ---- -------<br>--- --- -- ----- -- --- ---- -- --- ---- -- ------ ------<br>--- ----- -- ----,123764.73999999961,123764.25500000005,123402.882,123414.71999999977,123419.477,123769.431,,27,that
screen,html.Screen,2_1_0_1_28,2021-04-30T11:55:34.973Z,,,,,,,,,,,,,,,,,53,,,,,,,,,,,,,,271.1289999994624,,response,,,,99,,,,,,,Space,keypress(Space),,,,,,,,---- -- ----- -- ------ - ------- --- ----------<br>------------- ------ ------ ---- ---- ------- ----- -- ----<br>-------- ------- -- ---------- --- - --- ----- ----- ----<br>it's --- --- ----- --- ---- ---- ------- ----- ---- -------<br>--- --- -- ----- -- --- ---- -- --- ---- -- ------ ------<br>--- ----- -- ----,124041.19499999979,124040.55999999946,123752.786,123764.905,123769.431,124052.908,,28,it's
screen,html.Screen,2_1_0_1_29,2021-04-30T11:55:35.241Z,,,,,,,,,,,,,,,,,53,,,,,,,,,,,,,,255.0119999992894,,response,,,,99,,,,,,,Space,keypress(Space),,,,,,,,---- -- ----- -- ------ - ------- --- ----------<br>------------- ------ ------ ---- ---- ------- ----- -- ----<br>-------- ------- -- ---------- --- - --- ----- ----- ----<br>---- not --- ----- --- ---- ---- ------- ----- ---- -------<br>--- --- -- ----- -- --- ---- -- --- ---- -- ------ ------<br>--- ----- -- ----,124308.56499999936,124307.91999999929,124036.548,124041.31999999937,124052.908,124319.805,,29,not
screen,html.Screen,2_1_0_1_30,2021-04-30T11:55:35.470Z,,,,,,,,,,,,,,,,,53,,,,,,,,,,,,,,217.74999999988358,,response,,,,99,,,,,,,Space,keypress(Space),,,,,,,,---- -- ----- -- ------ - ------- --- ----------<br>------------- ------ ------ ---- ---- ------- ----- -- ----<br>-------- ------- -- ---------- --- - --- ----- ----- ----<br>---- --- how ----- --- ---- ---- ------- ----- ---- -------<br>--- --- -- ----- -- --- ---- -- --- ---- -- ------ ------<br>--- ----- -- ----,124538.18499999943,124537.55499999988,124303.077,124308.7399999995,124319.805,124553.056,,30,how
screen,html.Screen,2_1_0_1_31,2021-04-30T11:55:35.714Z,,,,,,,,,,,,,,,,,53,,,,,,,,,,,,,,228.73899999987043,,response,,,,99,,,,,,,Space,keypress(Space),,,,,,,,---- -- ----- -- ------ - ------- --- ----------<br>------------- ------ ------ ---- ---- ------- ----- -- ----<br>-------- ------- -- ---------- --- - --- ----- ----- ----<br>---- --- --- close --- ---- ---- ------- ----- ---- -------<br>--- --- -- ----- -- --- ---- -- --- ---- -- ------ ------<br>--- ----- -- ----,124782.32499999923,124781.79499999987,124536.596,124538.28999999951,124553.056,124786.101,,31,close
screen,html.Screen,2_1_0_1_32,2021-04-30T11:55:36.010Z,,,,,,,,,,,,,,,,,53,,,,,,,,,,,,,,291.6189999993221,,response,,,,99,,,,,,,Space,keypress(Space),,,,,,,,---- -- ----- -- ------ - ------- --- ----------<br>------------- ------ ------ ---- ---- ------- ----- -- ----<br>-------- ------- -- ---------- --- - --- ----- ----- ----<br>---- --- --- ----- you ---- ---- ------- ----- ---- -------<br>--- --- -- ----- -- --- ---- -- --- ---- -- ------ ------<br>--- ----- -- ----,125078.32499999949,125077.71999999932,124769.586,124782.41999999955,124786.101,125086.488,,32,you
screen,html.Screen,2_1_0_1_33,2021-04-30T11:55:36.302Z,,,,,,,,,,,,,,,,,53,,,,,,,,,,,,,,283.28199999933713,,response,,,,99,,,,,,,Space,keypress(Space),,,,,,,,---- -- ----- -- ------ - ------- --- ----------<br>------------- ------ ------ ---- ---- ------- ----- -- ----<br>-------- ------- -- ---------- --- - --- ----- ----- ----<br>---- --- --- ----- --- feel ---- ------- ----- ---- -------<br>--- --- -- ----- -- --- ---- -- --- ---- -- ------ ------<br>--- ----- -- ----,125370.32999999974,125369.76999999933,125069.432,125078.43999999932,125086.488,125386.764,,33,feel
screen,html.Screen,2_1_0_1_34,2021-04-30T11:55:36.560Z,,,,,,,,,,,,,,,,,53,,,,,,,,,,,,,,240.490999999427,,response,,,,99,,,,,,,Space,keypress(Space),,,,,,,,---- -- ----- -- ------ - ------- --- ----------<br>------------- ------ ------ ---- ---- ------- ----- -- ----<br>-------- ------- -- ---------- --- - --- ----- ----- ----<br>---- --- --- ----- --- ---- that ------- ----- ---- -------<br>--- --- -- ----- -- --- ---- -- --- ---- -- ------ ------<br>--- ----- -- ----,125627.91500000004,125627.25499999942,125369.442,125370.41999999929,125386.764,125636.189,,34,that
screen,html.Screen,2_1_0_1_35,2021-04-30T11:55:36.769Z,,,,,,,,,,,,,,,,,53,,,,,,,,,,,,,,199.91099999954167,,response,,,,99,,,,,,,Space,keypress(Space),,,,,,,,---- -- ----- -- ------ - ------- --- ----------<br>------------- ------ ------ ---- ---- ------- ----- -- ----<br>-------- ------- -- ---------- --- - --- ----- ----- ----<br>---- --- --- ----- --- ---- ---- matters ----- ---- -------<br>--- --- -- ----- -- --- ---- -- --- ---- -- ------ ------<br>--- ----- -- ----,125836.7249999992,125836.09999999954,125619.66,125628.06499999989,125636.189,125852.967,,35,matters
screen,html.Screen,2_1_0_1_36,2021-04-30T11:55:37.185Z,,,,,,,,,,,,,,,,,53,,,,,,,,,,,,,,399.727999999217,,response,,,,99,,,,,,,Space,keypress(Space),,,,,,,,"---- -- ----- -- ------ - ------- --- ----------<br>------------- ------ ------ ---- ---- ------- ----- -- ----<br>-------- ------- -- ---------- --- - --- ----- ----- ----<br>---- --- --- ----- --- ---- ---- ------- most, ---- -------<br>--- --- -- ----- -- --- ---- -- --- ---- -- ------ ------<br>--- ----- -- ----",126253.23499999923,126252.69499999922,125836.396,125837.31499999977,125852.967,126269.51,,36,"most,"
screen,html.Screen,2_1_0_1_37,2021-04-30T11:55:37.418Z,,,,,,,,,,,,,,,,,53,,,,,,,,,,,,,,215.4599999995262,,response,,,,99,,,,,,,Space,keypress(Space),,,,,,,,---- -- ----- -- ------ - ------- --- ----------<br>------------- ------ ------ ---- ---- ------- ----- -- ----<br>-------- ------- -- ---------- --- - --- ----- ----- ----<br>---- --- --- ----- --- ---- ---- ------- ----- it's -------<br>--- --- -- ----- -- --- ---- -- --- ---- -- ------ ------<br>--- ----- -- ----,126485.5149999994,126484.96999999952,126253.095,126253.3199999998,126269.51,126502.879,,37,it's
screen,html.Screen,2_1_0_1_38,2021-04-30T11:55:37.783Z,,,,,,,,,,,,,,,,,53,,,,,,,,,,,,,,347.5609999992448,,response,,,,99,,,,,,,Space,keypress(Space),,,,,,,,---- -- ----- -- ------ - ------- --- ----------<br>------------- ------ ------ ---- ---- ------- ----- -- ----<br>-------- ------- -- ---------- --- - --- ----- ----- ----<br>---- --- --- ----- --- ---- ---- ------- ----- ---- whether<br>--- --- -- ----- -- --- ---- -- --- ---- -- ------ ------<br>--- ----- -- ----,126851.04499999943,126850.43999999925,126469.788,126485.59999999998,126502.879,126852.805,,38,whether
screen,html.Screen,2_1_0_1_39,2021-04-30T11:55:38.054Z,,,,,,,,,,,,,,,,,53,,,,,,,,,,,,,,268.5199999991746,,response,,,,99,,,,,,,Space,keypress(Space),,,,,,,,---- -- ----- -- ------ - ------- --- ----------<br>------------- ------ ------ ---- ---- ------- ----- -- ----<br>-------- ------- -- ---------- --- - --- ----- ----- ----<br>---- --- --- ----- --- ---- ---- ------- ----- ---- -------<br>you --- -- ----- -- --- ---- -- --- ---- -- ------ ------<br>--- ----- -- ----,127121.91499999972,127121.32499999917,126836.447,126851.15999999925,126852.805,127136.435,,39,you
screen,html.Screen,2_1_0_1_40,2021-04-30T11:55:38.302Z,,,,,,,,,,,,,,,,,53,,,,,,,,,,,,,,232.53999999941152,,response,,,,99,,,,,,,Space,keypress(Space),,,,,,,,---- -- ----- -- ------ - ------- --- ----------<br>------------- ------ ------ ---- ---- ------- ----- -- ----<br>-------- ------- -- ---------- --- - --- ----- ----- ----<br>---- --- --- ----- --- ---- ---- ------- ----- ---- -------<br>--- are -- ----- -- --- ---- -- --- ---- -- ------ ------<br>--- ----- -- ----,127369.57999999958,127368.97499999941,127119.471,127122.08499999996,127136.435,127386.175,,40,are
screen,html.Screen,2_1_0_1_41,2021-04-30T11:55:38.555Z,,,,,,,,,,,,,,,,,53,,,,,,,,,,,,,,235.76499999999942,,response,,,,99,,,,,,,Space,keypress(Space),,,,,,,,---- -- ----- -- ------ - ------- --- ----------<br>------------- ------ ------ ---- ---- ------- ----- -- ----<br>-------- ------- -- ---------- --- - --- ----- ----- ----<br>---- --- --- ----- --- ---- ---- ------- ----- ---- -------<br>--- --- as ----- -- --- ---- -- --- ---- -- ------ ------<br>--- ----- -- ----,127622.5399999994,127621.94,127369.744,127369.68999999954,127386.175,127636.443,,41,as
screen,html.Screen,2_1_0_1_42,2021-04-30T11:55:38.830Z,,,,,,,,,,,,,,,,,53,,,,,,,,,,,,,,260.4969999996247,,response,,,,99,,,,,,,Space,keypress(Space),,,,,,,,---- -- ----- -- ------ - ------- --- ----------<br>------------- ------ ------ ---- ---- ------- ----- -- ----<br>-------- ------- -- ---------- --- - --- ----- ----- ----<br>---- --- --- ----- --- ---- ---- ------- ----- ---- -------<br>--- --- -- close -- --- ---- -- --- ---- -- ------ ------<br>--- ----- -- ----,127897.57499999995,127896.93999999962,127619.563,127622.65499999921,127636.443,127902.821,,42,close
screen,html.Screen,2_1_0_1_43,2021-04-30T11:55:39.220Z,,,,,,,,,,,,,,,,,53,,,,,,,,,,,,,,384.4439999999304,,response,,,,99,,,,,,,Space,keypress(Space),,,,,,,,---- -- ----- -- ------ - ------- --- ----------<br>------------- ------ ------ ---- ---- ------- ----- -- ----<br>-------- ------- -- ---------- --- - --- ----- ----- ----<br>---- --- --- ----- --- ---- ---- ------- ----- ---- -------<br>--- --- -- ----- as --- ---- -- --- ---- -- ------ ------<br>--- ----- -- ----,128287.83999999997,128287.26499999993,127886.567,127897.68999999978,127902.821,128303.151,,43,as
screen,html.Screen,2_1_0_1_44,2021-04-30T11:55:39.509Z,,,,,,,,,,,,,,,,,53,,,,,,,,,,,,,,272.11899999936577,,response,,,,99,,,,,,,Space,keypress(Space),,,,,,,,---- -- ----- -- ------ - ------- --- ----------<br>------------- ------ ------ ---- ---- ------- ----- -- ----<br>-------- ------- -- ---------- --- - --- ----- ----- ----<br>---- --- --- ----- --- ---- ---- ------- ----- ---- -------<br>--- --- -- ----- -- you ---- -- --- ---- -- ------ ------<br>--- ----- -- ----,128576.66999999946,128575.26999999936,128286.452,128287.9299999995,128303.151,128586.447,,44,you
screen,html.Screen,2_1_0_1_45,2021-04-30T11:55:39.878Z,,,,,,,,,,,,,,,,,53,,,,,,,,,,,,,,358.65799999977753,,response,,,,99,,,,,,,Space,keypress(Space),,,,,,,,---- -- ----- -- ------ - ------- --- ----------<br>------------- ------ ------ ---- ---- ------- ----- -- ----<br>-------- ------- -- ---------- --- - --- ----- ----- ----<br>---- --- --- ----- --- ---- ---- ------- ----- ---- -------<br>--- --- -- ----- -- --- want -- --- ---- -- ------ ------<br>--- ----- -- ----,128945.80499999938,128945.10499999978,128569.474,128576.75500000005,128586.447,128952.78,,45,want
screen,html.Screen,2_1_0_1_46,2021-04-30T11:55:40.150Z,,,,,,,,,,,,,,,,,53,,,,,,,,,,,,,,264.47999999944295,,response,,,,99,,,,,,,Space,keypress(Space),,,,,,,,---- -- ----- -- ------ - ------- --- ----------<br>------------- ------ ------ ---- ---- ------- ----- -- ----<br>-------- ------- -- ---------- --- - --- ----- ----- ----<br>---- --- --- ----- --- ---- ---- ------- ----- ---- -------<br>--- --- -- ----- -- --- ---- to --- ---- -- ------ ------<br>--- ----- -- ----,129217.75499999967,129217.25999999944,128936.221,128945.9199999992,128952.78,129219.473,,46,to
screen,html.Screen,2_1_0_1_47,2021-04-30T11:55:40.466Z,,,,,,,,,,,,,,,,,53,,,,,,,,,,,,,,314.3469999996596,,response,,,,99,,,,,,,Space,keypress(Space),,,,,,,,"---- -- ----- -- ------ - ------- --- ----------<br>------------- ------ ------ ---- ---- ------- ----- -- ----<br>-------- ------- -- ---------- --- - --- ----- ----- ----<br>---- --- --- ----- --- ---- ---- ------- ----- ---- -------<br>--- --- -- ----- -- --- ---- -- be, ---- -- ------ ------<br>--- ----- -- ----",129534.35499999978,129533.81999999966,129202.797,129217.84499999922,129219.473,129536.105,,47,"be,"
screen,html.Screen,2_1_0_1_48,2021-04-30T11:55:40.755Z,,,,,,,,,,,,,,,,,53,,,,,,,,,,,,,,286.23499999970954,,response,,,,99,,,,,,,Space,keypress(Space),,,,,,,,---- -- ----- -- ------ - ------- --- ----------<br>------------- ------ ------ ---- ---- ------- ----- -- ----<br>-------- ------- -- ---------- --- - --- ----- ----- ----<br>---- --- --- ----- --- ---- ---- ------- ----- ---- -------<br>--- --- -- ----- -- --- ---- -- --- even -- ------ ------<br>--- ----- -- ----,129822.96999999926,129822.3399999997,129519.809,129534.43999999945,129536.105,129836.245,,48,even
screen,html.Screen,2_1_0_1_49,2021-04-30T11:55:41.037Z,,,,,,,,,,,,,,,,,53,,,,,,,,,,,,,,268.2949999993725,,response,,,,99,,,,,,,Space,keypress(Space),,,,,,,,---- -- ----- -- ------ - ------- --- ----------<br>------------- ------ ------ ---- ---- ------- ----- -- ----<br>-------- ------- -- ---------- --- - --- ----- ----- ----<br>---- --- --- ----- --- ---- ---- ------- ----- ---- -------<br>--- --- -- ----- -- --- ---- -- --- ---- if ------ ------<br>--- ----- -- ----,130105.14999999941,130104.53999999937,129819.463,129823.10999999936,129836.245,130119.568,,49,if
screen,html.Screen,2_1_0_1_50,2021-04-30T11:55:41.312Z,,,,,,,,,,,,,,,,,53,,,,,,,,,,,,,,260.2269999998389,,response,,,,99,,,,,,,Space,keypress(Space),,,,,,,,---- -- ----- -- ------ - ------- --- ----------<br>------------- ------ ------ ---- ---- ------- ----- -- ----<br>-------- ------- -- ---------- --- - --- ----- ----- ----<br>---- --- --- ----- --- ---- ---- ------- ----- ---- -------<br>--- --- -- ----- -- --- ---- -- --- ---- -- that's ------<br>--- ----- -- ----,130380.36999999985,130379.79499999984,130102.876,130105.21999999946,130119.568,130386.163,,50,that's
screen,html.Screen,2_1_0_1_51,2021-04-30T11:55:41.539Z,,,,,,,,,,,,,,,,,53,,,,,,,,,,,,,,220.68699999921955,,response,,,,99,,,,,,,Space,keypress(Space),,,,,,,,---- -- ----- -- ------ - ------- --- ----------<br>------------- ------ ------ ---- ---- ------- ----- -- ----<br>-------- ------- -- ---------- --- - --- ----- ----- ----<br>---- --- --- ----- --- ---- ---- ------- ----- ---- -------<br>--- --- -- ----- -- --- ---- -- --- ---- -- ------ really<br>--- ----- -- ----,130607.28999999992,130606.84999999922,130369.793,130380.48999999955,130386.163,130619.56,,51,really
screen,html.Screen,2_1_0_1_52,2021-04-30T11:55:41.897Z,,,,,,,,,,,,,,,,,53,,,,,,,,,,,,,,344.4999999993306,,response,,,,99,,,,,,,Space,keypress(Space),,,,,,,,---- -- ----- -- ------ - ------- --- ----------<br>------------- ------ ------ ---- ---- ------- ----- -- ----<br>-------- ------- -- ---------- --- - --- ----- ----- ----<br>---- --- --- ----- --- ---- ---- ------- ----- ---- -------<br>--- --- -- ----- -- --- ---- -- --- ---- -- ------ ------<br>not ----- -- ----,130964.75999999983,130964.05999999933,130602.886,130607.37999999947,130619.56,130969.735,,52,not
screen,html.Screen,2_1_0_1_53,2021-04-30T11:55:42.132Z,,,,,,,,,,,,,,,,,53,,,,,,,,,,,,,,229.78499999920314,,response,,,,99,,,,,,,Space,keypress(Space),,,,,,,,---- -- ----- -- ------ - ------- --- ----------<br>------------- ------ ------ ---- ---- ------- ----- -- ----<br>-------- ------- -- ---------- --- - --- ----- ----- ----<br>---- --- --- ----- --- ---- ---- ------- ----- ---- -------<br>--- --- -- ----- -- --- ---- -- --- ---- -- ------ ------<br>--- close -- ----,131200.0599999992,131199.5199999992,130953.104,130964.86000000004,130969.735,131202.821,,53,close
screen,html.Screen,2_1_0_1_54,2021-04-30T11:55:42.400Z,,,,,,,,,,,,,,,,,53,,,,,,,,,,,,,,264.2139999996871,,response,,,,99,,,,,,,Space,keypress(Space),,,,,,,,---- -- ----- -- ------ - ------- --- ----------<br>------------- ------ ------ ---- ---- ------- ----- -- ----<br>-------- ------- -- ---------- --- - --- ----- ----- ----<br>---- --- --- ----- --- ---- ---- ------- ----- ---- -------<br>--- --- -- ----- -- --- ---- -- --- ---- -- ------ ------<br>--- ----- at ----,131467.61499999958,131467.03499999968,131186.222,131200.1449999998,131202.821,131469.417,,54,at
screen,html.Screen,2_1_0_1_55,2021-04-30T11:55:42.673Z,,,,,,,,,,,,,,,,,53,,,,,,,,,,,,,,270.7180000000226,,response,,,,99,,,,,,,Space,keypress(Space),,,,,,,,---- -- ----- -- ------ - ------- --- ----------<br>------------- ------ ------ ---- ---- ------- ----- -- ----<br>-------- ------- -- ---------- --- - --- ----- ----- ----<br>---- --- --- ----- --- ---- ---- ------- ----- ---- -------<br>--- --- -- ----- -- --- ---- -- --- ---- -- ------ ------<br>--- ----- -- all.,131740.72999999952,131740.135,131452.828,131467.7699999993,131469.417,131752.758,,55,all.
Item 99,flow.Loop,2_1_0_1,2021-04-30T11:55:42.673Z,,,,,,,,,,,,,,,,,,,,,,,,,,,,,,,18537.07100000001,,completion,,,,,D,,,,,,,,,,,silence,,,,,131740.97999999957,131740.135,113153.147,113154.20499999981,113203.064,131752.758,,,
Question 1,html.Screen,2_1_0_2,2021-04-30T11:55:48.869Z,,,,,,,,,,,,,,,,,,,,,,,,,,,,false,FALSE,,6183.061999999685,,response,,,,99,D,,,,,,TRUE,click #choice-1,,,,silence,,,,,137936.72499999957,137935.8199999997,131736.242,131741.0399999999,131752.758,137953.043,,,
Question 2,html.Screen,2_1_0_3,2021-04-30T11:56:04.399Z,,,,,,,,,,,,,,,,,,,,,,,,,,,,true,TRUE,,15512.717000000033,,response,,,,99,D,,,,,,TRUE,click #choice-1,,,,silence,,,,,153466.63999999964,153465.76000000004,137936.12,137936.8199999999,137953.043,153469.413,,,
Item 99,flow.Sequence,2_1_0,2021-04-30T11:56:04.399Z,,,,,,,,,,,,,,,,,,,,,,,,,,,,,,,50295.79800000004,,completion,,,,,,,,,,,,,,,,,,,,,153466.77999999974,153465.76000000004,103153.047,103157.5699999994,103169.962,153469.413,,,
Holding screen,html.Screen,2_1_1_0,2021-04-30T11:56:14.386Z,,,,,,,,,,,,,,,,,,,,,,,,,,,,,,,10000.347000000009,,timeout,,,,,,,,,,,,,,,,,,,,,163453.90999999928,163453.085,153452.75,153466.8499999998,153469.413,163469.76,,,
screen,html.Screen,2_1_1_1_0,2021-04-30T11:56:15.500Z,,,,,,,,,,,,,,,,,54,,,,,,,,,,,,,,1097.9699999997392,,response,,,,100,,,,,,,Space,keypress(Space),,,,,,,,At --- ---- --- ------ ----- ------- ---- -- --- ------- --<br>------- ---------- ------ -- ----- -- ----- -- ---- ------<br>--- ----- --- --- ------ -------- ----- --- ------ ----- --<br>----- ----- ---------- --- --- ------ ------ ---- -- ------<br>------- --- ------ ----- --- ---- ------- -- ---- --- --<br>------- ------,164568.26999999976,164567.72999999975,163453.085,163454.04999999938,163469.76,164587.157,,0,At
screen,html.Screen,2_1_1_1_1,2021-04-30T11:56:15.819Z,,,,,,,,,,,,,,,,,54,,,,,,,,,,,,,,299.57299999924726,,response,,,,100,,,,,,,Space,keypress(Space),,,,,,,,-- the ---- --- ------ ----- ------- ---- -- --- ------- --<br>------- ---------- ------ -- ----- -- ----- -- ---- ------<br>--- ----- --- --- ------ -------- ----- --- ------ ----- --<br>----- ----- ---------- --- --- ------ ------ ---- -- ------<br>------- --- ------ ----- --- ---- ------- -- ---- --- --<br>------- ------,164887.24000000002,164886.72999999925,164552.964,164568.35499999943,164587.157,164902.772,,1,the
screen,html.Screen,2_1_1_1_2,2021-04-30T11:56:16.117Z,,,,,,,,,,,,,,,,,54,,,,,,,,,,,,,,281.4429999993299,,response,,,,100,,,,,,,Space,keypress(Space),,,,,,,,-- --- time --- ------ ----- ------- ---- -- --- ------- --<br>------- ---------- ------ -- ----- -- ----- -- ---- ------<br>--- ----- --- --- ------ -------- ----- --- ------ ----- --<br>----- ----- ---------- --- --- ------ ------ ---- -- ------<br>------- --- ------ ----- --- ---- ------- -- ---- --- --<br>------- ------,165184.78499999945,165184.21499999933,164886.062,164887.32999999955,164902.772,165208.728,,2,time
screen,html.Screen,2_1_1_1_3,2021-04-30T11:56:16.806Z,,,,,,,,,,,,,,,,,54,,,,,,,,,,,,,,664.8919999993814,,response,,,,100,,,,,,,Space,keypress(Space),,,,,,,,-- --- ---- the ------ ----- ------- ---- -- --- ------- --<br>------- ---------- ------ -- ----- -- ----- -- ---- ------<br>--- ----- --- --- ------ -------- ----- --- ------ ----- --<br>----- ----- ---------- --- --- ------ ------ ---- -- ------<br>------- --- ------ ----- --- ---- ------- -- ---- --- --<br>------- ------,165874.12499999936,165873.61999999938,165169.579,165184.8999999993,165208.728,165886.155,,3,the
screen,html.Screen,2_1_1_1_4,2021-04-30T11:56:17.025Z,,,,,,,,,,,,,,,,,54,,,,,,,,,,,,,,206.03999999925145,,response,,,,100,,,,,,,Space,keypress(Space),,,,,,,,-- --- ---- --- French ----- ------- ---- -- --- ------- --<br>------- ---------- ------ -- ----- -- ----- -- ---- ------<br>--- ----- --- --- ------ -------- ----- --- ------ ----- --<br>----- ----- ---------- --- --- ------ ------ ---- -- ------<br>------- --- ------ ----- --- ---- ------- -- ---- --- --<br>------- ------,166092.70500000002,166092.19499999925,165869.451,165874.21499999982,165886.155,166102.885,,4,French
screen,html.Screen,2_1_1_1_5,2021-04-30T11:56:17.463Z,,,,,,,,,,,,,,,,,54,,,,,,,,,,,,,,427.1299999993644,,response,,,,100,,,,,,,Space,keypress(Space),,,,,,,,-- --- ---- --- ------ crown ------- ---- -- --- ------- --<br>------- ---------- ------ -- ----- -- ----- -- ---- ------<br>--- ----- --- --- ------ -------- ----- --- ------ ----- --<br>----- ----- ---------- --- --- ------ ------ ---- -- ------<br>------- --- ------ ----- --- ---- ------- -- ---- --- --<br>------- ------,166530.49999999985,166530.01499999937,166086.276,166092.79499999958,166102.885,166536.156,,5,crown
screen,html.Screen,2_1_1_1_6,2021-04-30T11:56:17.703Z,,,,,,,,,,,,,,,,,54,,,,,,,,,,,,,,233.9839999996475,,response,,,,100,,,,,,,Space,keypress(Space),,,,,,,,-- --- ---- --- ------ ----- secured ---- -- --- ------- --<br>------- ---------- ------ -- ----- -- ----- -- ---- ------<br>--- ----- --- --- ------ -------- ----- --- ------ ----- --<br>----- ----- ---------- --- --- ------ ------ ---- -- ------<br>------- --- ------ ----- --- ---- ------- -- ---- --- --<br>------- ------,166770.60999999958,166770.13999999964,166519.693,166530.6099999998,166536.156,166786.402,,6,secured
screen,html.Screen,2_1_1_1_7,2021-04-30T11:56:18.104Z,,,,,,,,,,,,,,,,,54,,,,,,,,,,,,,,385.1629999996512,,response,,,,100,,,,,,,Space,keypress(Space),,,,,,,,-- --- ---- --- ------ ----- ------- much -- --- ------- --<br>------- ---------- ------ -- ----- -- ----- -- ---- ------<br>--- ----- --- --- ------ -------- ----- --- ------ ----- --<br>----- ----- ---------- --- --- ------ ------ ---- -- ------<br>------- --- ------ ----- --- ---- ------- -- ---- --- --<br>------- ------,167172.1549999993,167171.56499999965,166769.471,166770.69499999925,166786.402,167186.151,,7,much
screen,html.Screen,2_1_1_1_8,2021-04-30T11:56:18.432Z,,,,,,,,,,,,,,,,,54,,,,,,,,,,,,,,313.57899999953224,,response,,,,100,,,,,,,Space,keypress(Space),,,,,,,,-- --- ---- --- ------ ----- ------- ---- of --- ------- --<br>------- ---------- ------ -- ----- -- ----- -- ---- ------<br>--- ----- --- --- ------ -------- ----- --- ------ ----- --<br>----- ----- ---------- --- --- ------ ------ ---- -- ------<br>------- --- ------ ----- --- ---- ------- -- ---- --- --<br>------- ------,167500.32499999998,167499.72999999954,167169.734,167172.23999999987,167186.151,167502.719,,8,of
screen,html.Screen,2_1_1_1_9,2021-04-30T11:56:18.703Z,,,,,,,,,,,,,,,,,54,,,,,,,,,,,,,,267.30099999991944,,response,,,,100,,,,,,,Space,keypress(Space),,,,,,,,-- --- ---- --- ------ ----- ------- ---- -- its ------- --<br>------- ---------- ------ -- ----- -- ----- -- ---- ------<br>--- ----- --- --- ------ -------- ----- --- ------ ----- --<br>----- ----- ---------- --- --- ------ ------ ---- -- ------<br>------- --- ------ ----- --- ---- ------- -- ---- --- --<br>------- ------,167770.50999999937,167770.01999999993,167486.164,167500.43499999994,167502.719,167786.409,,9,its
screen,html.Screen,2_1_1_1_10,2021-04-30T11:56:18.957Z,,,,,,,,,,,,,,,,,54,,,,,,,,,,,,,,238.26099999976577,,response,,,,100,,,,,,,Space,keypress(Space),,,,,,,,-- --- ---- --- ------ ----- ------- ---- -- --- revenue --<br>------- ---------- ------ -- ----- -- ----- -- ---- ------<br>--- ----- --- --- ------ -------- ----- --- ------ ----- --<br>----- ----- ---------- --- --- ------ ------ ---- -- ------<br>------- --- ------ ----- --- ---- ------- -- ---- --- --<br>------- ------,168025.45999999985,168024.66999999978,167769.455,167770.61999999933,167786.409,168036.41,,10,revenue
screen,html.Screen,2_1_1_1_11,2021-04-30T11:56:19.391Z,,,,,,,,,,,,,,,,,54,,,,,,,,,,,,,,422.2699999997276,,response,,,,100,,,,,,,Space,keypress(Space),,,,,,,,-- --- ---- --- ------ ----- ------- ---- -- --- ------- by<br>------- ---------- ------ -- ----- -- ----- -- ---- ------<br>--- ----- --- --- ------ -------- ----- --- ------ ----- --<br>----- ----- ---------- --- --- ------ ------ ---- -- ------<br>------- --- ------ ----- --- ---- ------- -- ---- --- --<br>------- ------,168459.2249999996,168458.67999999973,168019.627,168025.59499999916,168036.41,168469.497,,11,by
screen,html.Screen,2_1_1_1_12,2021-04-30T11:56:19.895Z,,,,,,,,,,,,,,,,,54,,,,,,,,,,,,,,492.74299999984214,,response,,,,100,,,,,,,Space,keypress(Space),,,,,,,,-- --- ---- --- ------ ----- ------- ---- -- --- ------- --<br>issuing ---------- ------ -- ----- -- ----- -- ---- ------<br>--- ----- --- --- ------ -------- ----- --- ------ ----- --<br>----- ----- ---------- --- --- ------ ------ ---- -- ------<br>------- --- ------ ----- --- ---- ------- -- ---- --- --<br>------- ------,168962.81,168962.23999999985,168453.007,168459.31500000006,168469.497,168969.41,,12,issuing
screen,html.Screen,2_1_1_1_13,2021-04-30T11:56:20.152Z,,,,,,,,,,,,,,,,,54,,,,,,,,,,,,,,250.6700000000419,,response,,,,100,,,,,,,Space,keypress(Space),,,,,,,,-- --- ---- --- ------ ----- ------- ---- -- --- ------- --<br>------- government ------ -- ----- -- ----- -- ---- ------<br>--- ----- --- --- ------ -------- ----- --- ------ ----- --<br>----- ----- ---------- --- --- ------ ------ ---- -- ------<br>------- --- ------ ----- --- ---- ------- -- ---- --- --<br>------- ------,169220.41499999978,169220.08000000005,168952.709,168962.89499999967,168969.41,169236.136,,13,government
screen,html.Screen,2_1_1_1_14,2021-04-30T11:56:20.409Z,,,,,,,,,,,,,,,,,54,,,,,,,,,,,,,,240.3439999993425,,response,,,,100,,,,,,,Space,keypress(Space),,,,,,,,-- --- ---- --- ------ ----- ------- ---- -- --- ------- --<br>------- ---------- bonds. -- ----- -- ----- -- ---- ------<br>--- ----- --- --- ------ -------- ----- --- ------ ----- --<br>----- ----- ---------- --- --- ------ ------ ---- -- ------<br>------- --- ------ ----- --- ---- ------- -- ---- --- --<br>------- ------,169476.88500000004,169476.47999999934,169219.629,169220.4849999998,169236.136,169486.301,,14,bonds.
screen,html.Screen,2_1_1_1_15,2021-04-30T11:56:21.124Z,,,,,,,,,,,,,,,,,54,,,,,,,,,,,,,,704.8139999996347,,response,,,,100,,,,,,,Space,keypress(Space),,,,,,,,-- --- ---- --- ------ ----- ------- ---- -- --- ------- --<br>------- ---------- ------ In ----- -- ----- -- ---- ------<br>--- ----- --- --- ------ -------- ----- --- ------ ----- --<br>----- ----- ---------- --- --- ------ ------ ---- -- ------<br>------- --- ------ ----- --- ---- ------- -- ---- --- --<br>------- ------,170191.59499999933,170191.11499999964,169469.461,169477.00499999974,169486.301,170203.046,,15,In
screen,html.Screen,2_1_1_1_16,2021-04-30T11:56:21.435Z,,,,,,,,,,,,,,,,,54,,,,,,,,,,,,,,299.46399999933783,,response,,,,100,,,,,,,Space,keypress(Space),,,,,,,,"-- --- ---- --- ------ ----- ------- ---- -- --- ------- --<br>------- ---------- ------ -- 1727, -- ----- -- ---- ------<br>--- ----- --- --- ------ -------- ----- --- ------ ----- --<br>----- ----- ---------- --- --- ------ ------ ---- -- ------<br>------- --- ------ ----- --- ---- ------- -- ---- --- --<br>------- ------",170503.09500000003,170502.50999999934,170186.313,170191.68499999976,170203.046,170519.501,,16,"1727,"
screen,html.Screen,2_1_1_1_17,2021-04-30T11:56:22.263Z,,,,,,,,,,,,,,,,,54,,,,,,,,,,,,,,811.4839999996184,,response,,,,100,,,,,,,Space,keypress(Space),,,,,,,,-- --- ---- --- ------ ----- ------- ---- -- --- ------- --<br>------- ---------- ------ -- ----- in ----- -- ---- ------<br>--- ----- --- --- ------ -------- ----- --- ------ ----- --<br>----- ----- ---------- --- --- ------ ------ ---- -- ------<br>------- --- ------ ----- --- ---- ------- -- ---- --- --<br>------- ------,171331.45499999955,171330.9849999996,170503.003,170503.22499999948,170519.501,171336.012,,17,in
screen,html.Screen,2_1_1_1_18,2021-04-30T11:56:22.834Z,,,,,,,,,,,,,,,,,54,,,,,,,,,,,,,,565.0079999993322,,response,,,,100,,,,,,,Space,keypress(Space),,,,,,,,-- --- ---- --- ------ ----- ------- ---- -- --- ------- --<br>------- ---------- ------ -- ----- -- order -- ---- ------<br>--- ----- --- --- ------ -------- ----- --- ------ ----- --<br>----- ----- ---------- --- --- ------ ------ ---- -- ------<br>------- --- ------ ----- --- ---- ------- -- ---- --- --<br>------- ------,171901.6099999999,171901.01999999932,171319.697,171331.545,171336.012,171923.923,,18,order
screen,html.Screen,2_1_1_1_19,2021-04-30T11:56:23.232Z,,,,,,,,,,,,,,,,,54,,,,,,,,,,,,,,375.5469999999041,,response,,,,100,,,,,,,Space,keypress(Space),,,,,,,,-- --- ---- --- ------ ----- ------- ---- -- --- ------- --<br>------- ---------- ------ -- ----- -- ----- to ---- ------<br>--- ----- --- --- ------ -------- ----- --- ------ ----- --<br>----- ----- ---------- --- --- ------ ------ ---- -- ------<br>------- --- ------ ----- --- ---- ------- -- ---- --- --<br>------- ------,172300.08499999985,172299.4699999999,171886.024,171901.72999999957,171923.923,172302.737,,19,to
screen,html.Screen,2_1_1_1_20,2021-04-30T11:56:23.438Z,,,,,,,,,,,,,,,,,54,,,,,,,,,,,,,,202.6929999992426,,response,,,,100,,,,,,,Space,keypress(Space),,,,,,,,-- --- ---- --- ------ ----- ------- ---- -- --- ------- --<br>------- ---------- ------ -- ----- -- ----- -- save ------<br>--- ----- --- --- ------ -------- ----- --- ------ ----- --<br>----- ----- ---------- --- --- ------ ------ ---- -- ------<br>------- --- ------ ----- --- ---- ------- -- ---- --- --<br>------- ------,172506.1799999994,172505.42999999924,172286.085,172300.19999999966,172302.737,172519.716,,20,save
screen,html.Screen,2_1_1_1_21,2021-04-30T11:56:23.801Z,,,,,,,,,,,,,,,,,54,,,,,,,,,,,,,,348.3139999996347,,response,,,,100,,,,,,,Space,keypress(Space),,,,,,,,"-- --- ---- --- ------ ----- ------- ---- -- --- ------- --<br>------- ---------- ------ -- ----- -- ----- -- ---- money,<br>--- ----- --- --- ------ -------- ----- --- ------ ----- --<br>----- ----- ---------- --- --- ------ ------ ---- -- ------<br>------- --- ------ ----- --- ---- ------- -- ---- --- --<br>------- ------",172868.60999999952,172868.02999999962,172502.721,172506.28999999934,172519.716,172897.319,,21,"money,"
screen,html.Screen,2_1_1_1_22,2021-04-30T11:56:24.077Z,,,,,,,,,,,,,,,,,54,,,,,,,,,,,,,,246.71099999948638,,response,,,,100,,,,,,,Space,keypress(Space),,,,,,,,-- --- ---- --- ------ ----- ------- ---- -- --- ------- --<br>------- ---------- ------ -- ----- -- ----- -- ---- ------<br>the ----- --- --- ------ -------- ----- --- ------ ----- --<br>----- ----- ---------- --- --- ------ ------ ---- -- ------<br>------- --- ------ ----- --- ---- ------- -- ---- --- --<br>------- ------,173144.61499999923,173144.02999999947,172853.017,172868.73999999987,172897.319,173152.973,,22,the
screen,html.Screen,2_1_1_1_23,2021-04-30T11:56:24.277Z,,,,,,,,,,,,,,,,,54,,,,,,,,,,,,,,191.73699999938253,,response,,,,100,,,,,,,Space,keypress(Space),,,,,,,,-- --- ---- --- ------ ----- ------- ---- -- --- ------- --<br>------- ---------- ------ -- ----- -- ----- -- ---- ------<br>--- state --- --- ------ -------- ----- --- ------ ----- --<br>----- ----- ---------- --- --- ------ ------ ---- -- ------<br>------- --- ------ ----- --- ---- ------- -- ---- --- --<br>------- ------,173345.37,173344.70999999938,173136.13,173144.7049999997,173152.973,173352.79,,23,state
screen,html.Screen,2_1_1_1_24,2021-04-30T11:56:24.481Z,,,,,,,,,,,,,,,,,54,,,,,,,,,,,,,,195.3049999991781,,response,,,,100,,,,,,,Space,keypress(Space),,,,,,,,-- --- ---- --- ------ ----- ------- ---- -- --- ------- --<br>------- ---------- ------ -- ----- -- ----- -- ---- ------<br>--- ----- cut --- ------ -------- ----- --- ------ ----- --<br>----- ----- ---------- --- --- ------ ------ ---- -- ------<br>------- --- ------ ----- --- ---- ------- -- ---- --- --<br>------- ------,173548.72999999952,173548.0949999992,173336.05,173345.4699999993,173352.79,173552.715,,24,cut
screen,html.Screen,2_1_1_1_25,2021-04-30T11:56:25.007Z,,,,,,,,,,,,,,,,,54,,,,,,,,,,,,,,521.7249999994237,,response,,,,100,,,,,,,Space,keypress(Space),,,,,,,,-- --- ---- --- ------ ----- ------- ---- -- --- ------- --<br>------- ---------- ------ -- ----- -- ----- -- ---- ------<br>--- ----- --- the ------ -------- ----- --- ------ ----- --<br>----- ----- ---------- --- --- ------ ------ ---- -- ------<br>------- --- ------ ----- --- ---- ------- -- ---- --- --<br>------- ------,174075.02499999918,174074.43999999942,173536.046,173548.86499999976,173552.715,174086.155,,25,the
screen,html.Screen,2_1_1_1_26,2021-04-30T11:56:25.204Z,,,,,,,,,,,,,,,,,54,,,,,,,,,,,,,,185.61999999926775,,response,,,,100,,,,,,,Space,keypress(Space),,,,,,,,-- --- ---- --- ------ ----- ------- ---- -- --- ------- --<br>------- ---------- ------ -- ----- -- ----- -- ---- ------<br>--- ----- --- --- bonds' -------- ----- --- ------ ----- --<br>----- ----- ---------- --- --- ------ ------ ---- -- ------<br>------- --- ------ ----- --- ---- ------- -- ---- --- --<br>------- ------,174272.35500000007,174271.77499999927,174069.774,174075.11499999964,174086.155,174286.13,,26,bonds'
screen,html.Screen,2_1_1_1_27,2021-04-30T11:56:25.399Z,,,,,,,,,,,,,,,,,54,,,,,,,,,,,,,,180.1449999997567,,response,,,,100,,,,,,,Space,keypress(Space),,,,,,,,-- --- ---- --- ------ ----- ------- ---- -- --- ------- --<br>------- ---------- ------ -- ----- -- ----- -- ---- ------<br>--- ----- --- --- ------ interest ----- --- ------ ----- --<br>----- ----- ---------- --- --- ------ ------ ---- -- ------<br>------- --- ------ ----- --- ---- ------- -- ---- --- --<br>------- ------,174466.7449999997,174466.27499999976,174269.502,174272.43999999974,174286.13,174469.346,,27,interest
screen,html.Screen,2_1_1_1_28,2021-04-30T11:56:25.817Z,,,,,,,,,,,,,,,,,54,,,,,,,,,,,,,,415.27399999983027,,response,,,,100,,,,,,,Space,keypress(Space),,,,,,,,-- --- ---- --- ------ ----- ------- ---- -- --- ------- --<br>------- ---------- ------ -- ----- -- ----- -- ---- ------<br>--- ----- --- --- ------ -------- rate. --- ------ ----- --<br>----- ----- ---------- --- --- ------ ------ ---- -- ------<br>------- --- ------ ----- --- ---- ------- -- ---- --- --<br>------- ------,174885.19999999972,174884.61999999982,174452.817,174466.83499999926,174469.346,174909.498,,28,rate.
screen,html.Screen,2_1_1_1_29,2021-04-30T11:56:26.172Z,,,,,,,,,,,,,,,,,54,,,,,,,,,,,,,,330.21699999971315,,response,,,,100,,,,,,,Space,keypress(Space),,,,,,,,-- --- ---- --- ------ ----- ------- ---- -- --- ------- --<br>------- ---------- ------ -- ----- -- ----- -- ---- ------<br>--- ----- --- --- ------ -------- ----- The ------ ----- --<br>----- ----- ---------- --- --- ------ ------ ---- -- ------<br>------- --- ------ ----- --- ---- ------- -- ---- --- --<br>------- ------,175240.26499999946,175239.7149999997,174869.708,174885.28999999925,174909.498,175253.033,,29,The
screen,html.Screen,2_1_1_1_30,2021-04-30T11:56:26.410Z,,,,,,,,,,,,,,,,,54,,,,,,,,,,,,,,224.50199999997858,,response,,,,100,,,,,,,Space,keypress(Space),,,,,,,,-- --- ---- --- ------ ----- ------- ---- -- --- ------- --<br>------- ---------- ------ -- ----- -- ----- -- ---- ------<br>--- ----- --- --- ------ -------- ----- --- market ----- --<br>----- ----- ---------- --- --- ------ ------ ---- -- ------<br>------- --- ------ ----- --- ---- ------- -- ---- --- --<br>------- ------,175478.09999999937,175477.53499999997,175236.438,175240.35499999992,175253.033,175486.083,,30,market
screen,html.Screen,2_1_1_1_31,2021-04-30T11:56:26.612Z,,,,,,,,,,,,,,,,,54,,,,,,,,,,,,,,192.91199999928358,,response,,,,100,,,,,,,Space,keypress(Space),,,,,,,,-- --- ---- --- ------ ----- ------- ---- -- --- ------- --<br>------- ---------- ------ -- ----- -- ----- -- ---- ------<br>--- ----- --- --- ------ -------- ----- --- ------ value --<br>----- ----- ---------- --- --- ------ ------ ---- -- ------<br>------- --- ------ ----- --- ---- ------- -- ---- --- --<br>------- ------,175679.56499999945,175678.9949999993,175469.673,175478.21499999918,175486.083,175686.124,,31,value
screen,html.Screen,2_1_1_1_32,2021-04-30T11:56:27.062Z,,,,,,,,,,,,,,,,,54,,,,,,,,,,,,,,443.1859999993467,,response,,,,100,,,,,,,Space,keypress(Space),,,,,,,,-- --- ---- --- ------ ----- ------- ---- -- --- ------- --<br>------- ---------- ------ -- ----- -- ----- -- ---- ------<br>--- ----- --- --- ------ -------- ----- --- ------ ----- of<br>----- ----- ---------- --- --- ------ ------ ---- -- ------<br>------- --- ------ ----- --- ---- ------- -- ---- --- --<br>------- ------,176129.8999999999,176129.30999999936,175669.381,175679.65000000002,175686.124,176136.122,,32,of
screen,html.Screen,2_1_1_1_33,2021-04-30T11:56:27.292Z,,,,,,,,,,,,,,,,,54,,,,,,,,,,,,,,223.37299999970128,,response,,,,100,,,,,,,Space,keypress(Space),,,,,,,,-- --- ---- --- ------ ----- ------- ---- -- --- ------- --<br>------- ---------- ------ -- ----- -- ----- -- ---- ------<br>--- ----- --- --- ------ -------- ----- --- ------ ----- --<br>these ----- ---------- --- --- ------ ------ ---- -- ------<br>------- --- ------ ----- --- ---- ------- -- ---- --- --<br>------- ------,176359.91999999987,176359.4949999997,176119.431,176130.48999999955,176136.122,176369.45,,33,these
screen,html.Screen,2_1_1_1_34,2021-04-30T11:56:27.481Z,,,,,,,,,,,,,,,,,54,,,,,,,,,,,,,,179.30999999964843,,response,,,,100,,,,,,,Space,keypress(Space),,,,,,,,-- --- ---- --- ------ ----- ------- ---- -- --- ------- --<br>------- ---------- ------ -- ----- -- ----- -- ---- ------<br>--- ----- --- --- ------ -------- ----- --- ------ ----- --<br>----- bonds ---------- --- --- ------ ------ ---- -- ------<br>------- --- ------ ----- --- ---- ------- -- ---- --- --<br>------- ------,176549.28500000006,176548.75999999966,176352.783,176360.03499999968,176369.45,176552.672,,34,bonds
screen,html.Screen,2_1_1_1_35,2021-04-30T11:56:27.689Z,,,,,,,,,,,,,,,,,54,,,,,,,,,,,,,,203.9880000000121,,response,,,,100,,,,,,,Space,keypress(Space),,,,,,,,"-- --- ---- --- ------ ----- ------- ---- -- --- ------- --<br>------- ---------- ------ -- ----- -- ----- -- ---- ------<br>--- ----- --- --- ------ -------- ----- --- ------ ----- --<br>----- ----- plummeted, --- --- ------ ------ ---- -- ------<br>------- --- ------ ----- --- ---- ------- -- ---- --- --<br>------- ------",176757.35499999975,176756.66,176536.331,176549.3749999996,176552.672,176769.403,,35,"plummeted,"
screen,html.Screen,2_1_1_1_36,2021-04-30T11:56:27.916Z,,,,,,,,,,,,,,,,,54,,,,,,,,,,,,,,214.29699999978766,,response,,,,100,,,,,,,Space,keypress(Space),,,,,,,,-- --- ---- --- ------ ----- ------- ---- -- --- ------- --<br>------- ---------- ------ -- ----- -- ----- -- ---- ------<br>--- ----- --- --- ------ -------- ----- --- ------ ----- --<br>----- ----- ---------- and --- ------ ------ ---- -- ------<br>------- --- ------ ----- --- ---- ------- -- ---- --- --<br>------- ------,176984.33999999997,176983.69999999978,176752.708,176757.43499999953,176769.403,176986.037,,36,and
screen,html.Screen,2_1_1_1_37,2021-04-30T11:56:28.136Z,,,,,,,,,,,,,,,,,54,,,,,,,,,,,,,,217.3579999995418,,response,,,,100,,,,,,,Space,keypress(Space),,,,,,,,-- --- ---- --- ------ ----- ------- ---- -- --- ------- --<br>------- ---------- ------ -- ----- -- ----- -- ---- ------<br>--- ----- --- --- ------ -------- ----- --- ------ ----- --<br>----- ----- ---------- --- the ------ ------ ---- -- ------<br>------- --- ------ ----- --- ---- ------- -- ---- --- --<br>------- ------,177204.0049999996,177203.39499999955,176969.706,176984.47499999928,176986.037,177219.459,,37,the
screen,html.Screen,2_1_1_1_38,2021-04-30T11:56:28.349Z,,,,,,,,,,,,,,,,,54,,,,,,,,,,,,,,196.67599999948288,,response,,,,100,,,,,,,Space,keypress(Space),,,,,,,,-- --- ---- --- ------ ----- ------- ---- -- --- ------- --<br>------- ---------- ------ -- ----- -- ----- -- ---- ------<br>--- ----- --- --- ------ -------- ----- --- ------ ----- --<br>----- ----- ---------- --- --- market ------ ---- -- ------<br>------- --- ------ ----- --- ---- ------- -- ---- --- --<br>------- ------,177416.70499999964,177416.13499999949,177202.799,177204.09500000006,177219.459,177419.363,,38,market
screen,html.Screen,2_1_1_1_39,2021-04-30T11:56:28.516Z,,,,,,,,,,,,,,,,,54,,,,,,,,,,,,,,164.41699999992852,,response,,,,100,,,,,,,Space,keypress(Space),,,,,,,,-- --- ---- --- ------ ----- ------- ---- -- --- ------- --<br>------- ---------- ------ -- ----- -- ----- -- ---- ------<br>--- ----- --- --- ------ -------- ----- --- ------ ----- --<br>----- ----- ---------- --- --- ------ became ---- -- ------<br>------- --- ------ ----- --- ---- ------- -- ---- --- --<br>------- ------,177584.32999999967,177583.77999999994,177403.013,177416.79499999917,177419.363,177585.978,,39,became
screen,html.Screen,2_1_1_1_40,2021-04-30T11:56:28.742Z,,,,,,,,,,,,,,,,,54,,,,,,,,,,,,,,222.97699999951874,,response,,,,100,,,,,,,Space,keypress(Space),,,,,,,,-- --- ---- --- ------ ----- ------- ---- -- --- ------- --<br>------- ---------- ------ -- ----- -- ----- -- ---- ------<br>--- ----- --- --- ------ -------- ----- --- ------ ----- --<br>----- ----- ---------- --- --- ------ ------ wary -- ------<br>------- --- ------ ----- --- ---- ------- -- ---- --- --<br>------- ------,177809.55499999982,177808.95499999952,177569.711,177584.41999999923,177585.978,177819.414,,40,wary
screen,html.Screen,2_1_1_1_41,2021-04-30T11:56:29.180Z,,,,,,,,,,,,,,,,,54,,,,,,,,,,,,,,427.82099999982165,,response,,,,100,,,,,,,Space,keypress(Space),,,,,,,,-- --- ---- --- ------ ----- ------- ---- -- --- ------- --<br>------- ---------- ------ -- ----- -- ----- -- ---- ------<br>--- ----- --- --- ------ -------- ----- --- ------ ----- --<br>----- ----- ---------- --- --- ------ ------ ---- of ------<br>------- --- ------ ----- --- ---- ------- -- ---- --- --<br>------- ------,178247.86499999935,178247.2349999998,177802.703,177809.64999999924,177819.414,178252.782,,41,of
screen,html.Screen,2_1_1_1_42,2021-04-30T11:56:29.455Z,,,,,,,,,,,,,,,,,54,,,,,,,,,,,,,,269.2229999997944,,response,,,,100,,,,,,,Space,keypress(Space),,,,,,,,-- --- ---- --- ------ ----- ------- ---- -- --- ------- --<br>------- ---------- ------ -- ----- -- ----- -- ---- ------<br>--- ----- --- --- ------ -------- ----- --- ------ ----- --<br>----- ----- ---------- --- --- ------ ------ ---- -- French<br>------- --- ------ ----- --- ---- ------- -- ---- --- --<br>------- ------,178522.57499999995,178522.0049999998,178236.345,178247.9799999992,178252.782,178536.371,,42,French
screen,html.Screen,2_1_1_1_43,2021-04-30T11:56:30.280Z,,,,,,,,,,,,,,,,,54,,,,,,,,,,,,,,810.7989999999991,,response,,,,100,,,,,,,Space,keypress(Space),,,,,,,,-- --- ---- --- ------ ----- ------- ---- -- --- ------- --<br>------- ---------- ------ -- ----- -- ----- -- ---- ------<br>--- ----- --- --- ------ -------- ----- --- ------ ----- --<br>----- ----- ---------- --- --- ------ ------ ---- -- ------<br>credit. --- ------ ----- --- ---- ------- -- ---- --- --<br>------- ------,179347.69999999934,179347.17,178519.814,178522.6649999995,178536.371,179352.67,,43,credit.
screen,html.Screen,2_1_1_1_44,2021-04-30T11:56:30.801Z,,,,,,,,,,,,,,,,,54,,,,,,,,,,,,,,515.8249999996915,,response,,,,100,,,,,,,Space,keypress(Space),,,,,,,,-- --- ---- --- ------ ----- ------- ---- -- --- ------- --<br>------- ---------- ------ -- ----- -- ----- -- ---- ------<br>--- ----- --- --- ------ -------- ----- --- ------ ----- --<br>----- ----- ---------- --- --- ------ ------ ---- -- ------<br>------- The ------ ----- --- ---- ------- -- ---- --- --<br>------- ------,179868.96499999968,179868.4949999997,179336.308,179347.7899999998,179352.67,179886.521,,44,The
screen,html.Screen,2_1_1_1_45,2021-04-30T11:56:30.986Z,,,,,,,,,,,,,,,,,54,,,,,,,,,,,,,,167.40399999925285,,response,,,,100,,,,,,,Space,keypress(Space),,,,,,,,-- --- ---- --- ------ ----- ------- ---- -- --- ------- --<br>------- ---------- ------ -- ----- -- ----- -- ---- ------<br>--- ----- --- --- ------ -------- ----- --- ------ ----- --<br>----- ----- ---------- --- --- ------ ------ ---- -- ------<br>------- --- French ----- --- ---- ------- -- ---- --- --<br>------- ------,180054.45999999938,180053.92499999926,179852.688,179869.04999999935,179886.521,180069.421,,45,French
screen,html.Screen,2_1_1_1_46,2021-04-30T11:56:31.394Z,,,,,,,,,,,,,,,,,54,,,,,,,,,,,,,,391.2639999999956,,response,,,,100,,,,,,,Space,keypress(Space),,,,,,,,-- --- ---- --- ------ ----- ------- ---- -- --- ------- --<br>------- ---------- ------ -- ----- -- ----- -- ---- ------<br>--- ----- --- --- ------ -------- ----- --- ------ ----- --<br>----- ----- ---------- --- --- ------ ------ ---- -- ------<br>------- --- ------ state --- ---- ------- -- ---- --- --<br>------- ------,180461.25499999925,180460.685,180052.779,180054.54499999995,180069.421,180469.396,,46,state
screen,html.Screen,2_1_1_1_47,2021-04-30T11:56:31.676Z,,,,,,,,,,,,,,,,,54,,,,,,,,,,,,,,273.5189999997965,,response,,,,100,,,,,,,Space,keypress(Space),,,,,,,,-- --- ---- --- ------ ----- ------- ---- -- --- ------- --<br>------- ---------- ------ -- ----- -- ----- -- ---- ------<br>--- ----- --- --- ------ -------- ----- --- ------ ----- --<br>----- ----- ---------- --- --- ------ ------ ---- -- ------<br>------- --- ------ ----- was ---- ------- -- ---- --- --<br>------- ------,180743.44499999916,180742.9149999998,180452.744,180461.3449999997,180469.396,180753.063,,47,was
screen,html.Screen,2_1_1_1_48,2021-04-30T11:56:31.919Z,,,,,,,,,,,,,,,,,54,,,,,,,,,,,,,,232.79699999978766,,response,,,,100,,,,,,,Space,keypress(Space),,,,,,,,-- --- ---- --- ------ ----- ------- ---- -- --- ------- --<br>------- ---------- ------ -- ----- -- ----- -- ---- ------<br>--- ----- --- --- ------ -------- ----- --- ------ ----- --<br>----- ----- ---------- --- --- ------ ------ ---- -- ------<br>------- --- ------ ----- --- left ------- -- ---- --- --<br>------- ------,180986.50499999986,180985.85999999978,180736.419,180743.53999999948,180753.063,181002.689,,48,left
screen,html.Screen,2_1_1_1_49,2021-04-30T11:56:32.585Z,,,,,,,,,,,,,,,,,54,,,,,,,,,,,,,,649.8159999999916,,response,,,,100,,,,,,,Space,keypress(Space),,,,,,,,-- --- ---- --- ------ ----- ------- ---- -- --- ------- --<br>------- ---------- ------ -- ----- -- ----- -- ---- ------<br>--- ----- --- --- ------ -------- ----- --- ------ ----- --<br>----- ----- ---------- --- --- ------ ------ ---- -- ------<br>------- --- ------ ----- --- ---- without -- ---- --- --<br>------- ------,181653.0499999999,181652.505,180986.36,180986.58999999953,181002.689,181669.474,,49,without
screen,html.Screen,2_1_1_1_50,2021-04-30T11:56:32.848Z,,,,,,,,,,,,,,,,,54,,,,,,,,,,,,,,246.01599999942118,,response,,,,100,,,,,,,Space,keypress(Space),,,,,,,,-- --- ---- --- ------ ----- ------- ---- -- --- ------- --<br>------- ---------- ------ -- ----- -- ----- -- ---- ------<br>--- ----- --- --- ------ -------- ----- --- ------ ----- --<br>----- ----- ---------- --- --- ------ ------ ---- -- ------<br>------- --- ------ ----- --- ---- ------- an ---- --- --<br>------- ------,181916.00999999992,181915.4899999994,181653,181653.13999999943,181669.474,181919.298,,50,an
screen,html.Screen,2_1_1_1_51,2021-04-30T11:56:33.117Z,,,,,,,,,,,,,,,,,54,,,,,,,,,,,,,,264.69199999951525,,response,,,,100,,,,,,,Space,keypress(Space),,,,,,,,-- --- ---- --- ------ ----- ------- ---- -- --- ------- --<br>------- ---------- ------ -- ----- -- ----- -- ---- ------<br>--- ----- --- --- ------ -------- ----- --- ------ ----- --<br>----- ----- ---------- --- --- ------ ------ ---- -- ------<br>------- --- ------ ----- --- ---- ------- -- easy --- --<br>------- ------,182184.58999999985,182183.98999999953,181903.021,181916.11999999988,181919.298,182203.709,,51,easy
screen,html.Screen,2_1_1_1_52,2021-04-30T11:56:33.403Z,,,,,,,,,,,,,,,,,54,,,,,,,,,,,,,,266.6609999999928,,response,,,,100,,,,,,,Space,keypress(Space),,,,,,,,-- --- ---- --- ------ ----- ------- ---- -- --- ------- --<br>------- ---------- ------ -- ----- -- ----- -- ---- ------<br>--- ----- --- --- ------ -------- ----- --- ------ ----- --<br>----- ----- ---------- --- --- ------ ------ ---- -- ------<br>------- --- ------ ----- --- ---- ------- -- ---- way --<br>------- ------,182470.8899999996,182470.37,182169.694,182184.68499999927,182203.709,182486.098,,52,way
screen,html.Screen,2_1_1_1_53,2021-04-30T11:56:33.650Z,,,,,,,,,,,,,,,,,54,,,,,,,,,,,,,,231.25199999989127,,response,,,,100,,,,,,,Space,keypress(Space),,,,,,,,-- --- ---- --- ------ ----- ------- ---- -- --- ------- --<br>------- ---------- ------ -- ----- -- ----- -- ---- ------<br>--- ----- --- --- ------ -------- ----- --- ------ ----- --<br>----- ----- ---------- --- --- ------ ------ ---- -- ------<br>------- --- ------ ----- --- ---- ------- -- ---- --- of<br>------- ------,182718.03,182717.3499999999,182469.644,182470.98499999993,182486.098,182741.975,,53,of
screen,html.Screen,2_1_1_1_54,2021-04-30T11:56:34.037Z,,,,,,,,,,,,,,,,,54,,,,,,,,,,,,,,361.7299999995448,,response,,,,100,,,,,,,Space,keypress(Space),,,,,,,,-- --- ---- --- ------ ----- ------- ---- -- --- ------- --<br>------- ---------- ------ -- ----- -- ----- -- ---- ------<br>--- ----- --- --- ------ -------- ----- --- ------ ----- --<br>----- ----- ---------- --- --- ------ ------ ---- -- ------<br>------- --- ------ ----- --- ---- ------- -- ---- --- --<br>raising ------,183104.44499999995,183103.70499999955,182703.021,182718.19499999948,182741.975,183119.714,,54,raising
screen,html.Screen,2_1_1_1_55,2021-04-30T11:56:34.462Z,,,,,,,,,,,,,,,,,54,,,,,,,,,,,,,,409.66099999914877,,response,,,,100,,,,,,,Space,keypress(Space),,,,,,,,-- --- ---- --- ------ ----- ------- ---- -- --- ------- --<br>------- ---------- ------ -- ----- -- ----- -- ---- ------<br>--- ----- --- --- ------ -------- ----- --- ------ ----- --<br>----- ----- ---------- --- --- ------ ------ ---- -- ------<br>------- --- ------ ----- --- ---- ------- -- ---- --- --<br>------- money.,183529.88999999978,183529.37499999916,183102.809,183104.52499999973,183119.714,183536.002,,55,money.
Item 100,flow.Loop,2_1_1_1,2021-04-30T11:56:34.462Z,,,,,,,,,,,,,,,,,,,,,,,,,,,,,,,20059.614999999147,,completion,,,,,D,,,,,,,,,,,silence,,,,,183530.06499999992,183529.37499999916,163453.085,163454.0199999992,163469.76,183536.002,,,
Question 1,html.Screen,2_1_1_2,2021-04-30T11:56:37.880Z,,,,,,,,,,,,,,,,,,,,,,,,,,,,true,TRUE,,3410.2979999996023,,response,,,,100,D,,,,,,TRUE,click #choice-1,,,,silence,,,,,186947.2249999999,186946.2999999996,183519.677,183530.1299999992,183536.002,186952.683,,,
Question 2,html.Screen,2_1_1_3,2021-04-30T11:56:40.400Z,,,,,,,,,,,,,,,,,,,,,,,,,,,,true,FALSE,,2513.9269999995013,,response,,,,100,D,,,,,,FALSE,click #choice-2,,,,silence,,,,,189467.53999999963,189466.6099999995,186936.033,186947.30999999956,186952.683,189469.324,,,
Item 100,flow.Sequence,2_1_1,2021-04-30T11:56:40.400Z,,,,,,,,,,,,,,,,,,,,,,,,,,,,,,,35997.19699999949,,completion,,,,,,,,,,,,,,,,,,,,,189467.75499999966,189466.6099999995,153452.75,153466.82999999938,153469.413,189469.324,,,
End of Practice,html.Page,2_1_2,2021-04-30T11:56:44.360Z,,,,,,,,,,,,,,,,,,,,,,,,,,,,,,,3957.591000000015,,form submission,,,,,,,,,,,,,,,,,,,,,193427.1749999998,193426.915,189452.68,189467.85999999975,189469.324,193436.569,,,
Practice,flow.Sequence,2_1,2021-04-30T11:56:44.360Z,,,,,,,,,,,,,,,,,,,,,,,,,,,,,,,90256.95300000001,,completion,,,,,,,,,,,,,,,,,,,,,193427.28499999974,193426.915,103153.047,103157.5499999999,103169.962,193436.569,,,
Trap_instruction,html.Page,2_2_0,2021-04-30T11:56:47.450Z,,,,,,,,,,,,,,,,,,,,,,,,,,,,,,,3080.4059999995516,,form submission,,,,,,,,,,,,,,,,,,,,,196517.21999999974,196516.97499999954,193419.348,193427.34999999992,193436.569,196569.446,,,
trap_trial,html.Screen,2_2_1,2021-04-30T11:56:50.314Z,,,,,,,,,,,,,,,,,,,,,,,,,,,,true,1,,2811.363999999652,,response,,,,,,,,,,,1,click #choice-1,,,,,,,,,199381.9199999998,199380.80999999965,196502.688,196517.3049999994,196569.446,199386.03,,,
end of trap trial,html.Page,2_2_2,2021-04-30T11:56:52.045Z,,,,,,,,,,,,,,,,,,,,,,,,,,,,,,,1726.83500000005,,form submission,,,,,,,,,,,,,,,,,,,,,201113.0749999993,201112.86500000005,199369.713,199382.12499999919,199386.03,201119.427,,,
Trap 1,flow.Sequence,2_2,2021-04-30T11:56:52.046Z,,,,,,,,,,,,,,,,,,,,,,,,,,,,,,,7676.29600000006,,completion,,,,,,,,,,,,,,,,,,,,,201113.16999999963,201112.86500000005,193419.348,193427.32999999952,193436.569,201119.427,,,
Standby,html.Page,2_3_0,2021-04-30T11:57:00.036Z,,,,,,,,,,,,,,,,,,,,,,,,,,,,,,,7999.823999999993,,timeout,,,,,,,,,,,,,,,,,,,,,209103.2699999996,209102.669,201102.641,201113.22999999992,201119.427,209119.251,,,
Holding screen,html.Screen,2_3_1_0_0,2021-04-30T11:57:07.036Z,,,,,,,,,,,,,,,,,,,,,,,,,,,,,,,7000.101000000024,,timeout,,,,,,,,,,,,,,,,,,,,,216103.58499999985,216102.744,209102.669,209103.4549999995,209119.251,216119.352,,,
screen,html.Screen,2_3_1_0_1_0,2021-04-30T11:57:08.905Z,,,,,,,,,,,,,,,,,51,,,,,,,,,,,,,,1852.477999999479,,response,,,,13,D,,,,,,Space,keypress(Space),,,,silence,,,,American -------- --- --- ---- --- --- ------ -- --------<br>---- --------- --- ------- ------------ ---------- ---------<br>--- ---------- ------- ---------- ------- -- -------- ----<br>---- --- ------ ----- ------ -- ---- --- ----- -- - -------<br>-------- -- --- --- -- ----- ----------- ----- -----------<br>---- --- ---------- --- ---- --- -- ----------,217972.4699999997,217971.8299999995,216102.744,216103.80499999973,216119.352,217986.461,,0,American
screen,html.Screen,2_3_1_0_1_1,2021-04-30T11:57:09.295Z,,,,,,,,,,,,,,,,,51,,,,,,,,,,,,,,375.4939999993949,,response,,,,13,D,,,,,,Space,keypress(Space),,,,silence,,,,-------- industry --- --- ---- --- --- ------ -- --------<br>---- --------- --- ------- ------------ ---------- ---------<br>--- ---------- ------- ---------- ------- -- -------- ----<br>---- --- ------ ----- ------ -- ---- --- ----- -- - -------<br>-------- -- --- --- -- ----- ----------- ----- -----------<br>---- --- ---------- --- ---- --- -- ----------,218362.54499999995,218361.9549999994,217969.545,217972.56500000003,217986.461,218369.318,,1,industry
screen,html.Screen,2_3_1_0_1_2,2021-04-30T11:57:09.573Z,,,,,,,,,,,,,,,,,51,,,,,,,,,,,,,,271.2519999995711,,response,,,,13,D,,,,,,Space,keypress(Space),,,,silence,,,,-------- -------- may --- ---- --- --- ------ -- --------<br>---- --------- --- ------- ------------ ---------- ---------<br>--- ---------- ------- ---------- ------- -- -------- ----<br>---- --- ------ ----- ------ -- ---- --- ----- -- - -------<br>-------- -- --- --- -- ----- ----------- ----- -----------<br>---- --- ---------- --- ---- --- -- ----------,218641.09999999983,218640.56999999957,218352.653,218362.69999999966,218369.318,218652.659,,2,may
screen,html.Screen,2_3_1_0_1_3,2021-04-30T11:57:09.850Z,,,,,,,,,,,,,,,,,51,,,,,,,,,,,,,,264.6209999996645,,response,,,,13,D,,,,,,Space,keypress(Space),,,,silence,,,,-------- -------- --- not ---- --- --- ------ -- --------<br>---- --------- --- ------- ------------ ---------- ---------<br>--- ---------- ------- ---------- ------- -- -------- ----<br>---- --- ------ ----- ------ -- ---- --- ----- -- - -------<br>-------- -- --- --- -- ----- ----------- ----- -----------<br>---- --- ---------- --- ---- --- -- ----------,218917.8699999993,218917.27999999968,218636.242,218641.1849999995,218652.659,218919.281,,3,not
screen,html.Screen,2_3_1_0_1_4,2021-04-30T11:57:10.184Z,,,,,,,,,,,,,,,,,51,,,,,,,,,,,,,,331.39399999933084,,response,,,,13,D,,,,,,Space,keypress(Space),,,,silence,,,,-------- -------- --- --- know --- --- ------ -- --------<br>---- --------- --- ------- ------------ ---------- ---------<br>--- ---------- ------- ---------- ------- -- -------- ----<br>---- --- ------ ----- ------ -- ---- --- ----- -- - -------<br>-------- -- --- --- -- ----- ----------- ----- -----------<br>---- --- ---------- --- ---- --- -- ----------,219251.1399999994,219250.67499999932,218902.937,218917.95999999976,218919.281,219252.615,,4,know
screen,html.Screen,2_3_1_0_1_5,2021-04-30T11:57:10.397Z,,,,,,,,,,,,,,,,,51,,,,,,,,,,,,,,211.73999999917578,,response,,,,13,D,,,,,,Space,keypress(Space),,,,silence,,,,"-------- -------- --- --- ---- it, --- ------ -- --------<br>---- --------- --- ------- ------------ ---------- ---------<br>--- ---------- ------- ---------- ------- -- -------- ----<br>---- --- ------ ----- ------ -- ---- --- ----- -- - -------<br>-------- -- --- --- -- ----- ----------- ----- -----------<br>---- --- ---------- --- ---- --- -- ----------",219464.76999999958,219464.35499999917,219236.285,219251.23499999972,219252.615,219469.2,,5,"it,"
screen,html.Screen,2_3_1_0_1_6,2021-04-30T11:57:10.622Z,,,,,,,,,,,,,,,,,51,,,,,,,,,,,,,,219.68999999942025,,response,,,,13,D,,,,,,Space,keypress(Space),,,,silence,,,,-------- -------- --- --- ---- --- but ------ -- --------<br>---- --------- --- ------- ------------ ---------- ---------<br>--- ---------- ------- ---------- ------- -- -------- ----<br>---- --- ------ ----- ------ -- ---- --- ----- -- - -------<br>-------- -- --- --- -- ----- ----------- ----- -----------<br>---- --- ---------- --- ---- --- -- ----------,219689.38499999966,219688.88999999943,219452.939,219464.8499999994,219469.2,219702.803,,6,but
screen,html.Screen,2_3_1_0_1_7,2021-04-30T11:57:10.847Z,,,,,,,,,,,,,,,,,51,,,,,,,,,,,,,,211.32199999931618,,response,,,,13,D,,,,,,Space,keypress(Space),,,,silence,,,,-------- -------- --- --- ---- --- --- debate -- --------<br>---- --------- --- ------- ------------ ---------- ---------<br>--- ---------- ------- ---------- ------- -- -------- ----<br>---- --- ------ ----- ------ -- ---- --- ----- -- - -------<br>-------- -- --- --- -- ----- ----------- ----- -----------<br>---- --- ---------- --- ---- --- -- ----------,219914.71999999977,219914.12499999933,219685.99,219689.44999999984,219702.803,219919.253,,7,debate
screen,html.Screen,2_3_1_0_1_8,2021-04-30T11:57:11.071Z,,,,,,,,,,,,,,,,,51,,,,,,,,,,,,,,218.38699999992969,,response,,,,13,D,,,,,,Space,keypress(Space),,,,silence,,,,-------- -------- --- --- ---- --- --- ------ in --------<br>---- --------- --- ------- ------------ ---------- ---------<br>--- ---------- ------- ---------- ------- -- -------- ----<br>---- --- ------ ----- ------ -- ---- --- ----- -- - -------<br>-------- -- --- --- -- ----- ----------- ----- -----------<br>---- --- ---------- --- ---- --- -- ----------,220138.21999999983,220137.63999999993,219902.919,219914.83499999958,219919.253,220152.735,,8,in
screen,html.Screen,2_3_1_0_1_9,2021-04-30T11:57:11.322Z,,,,,,,,,,,,,,,,,51,,,,,,,,,,,,,,236.49499999979162,,response,,,,13,D,,,,,,Space,keypress(Space),,,,silence,,,,-------- -------- --- --- ---- --- --- ------ -- Congress<br>---- --------- --- ------- ------------ ---------- ---------<br>--- ---------- ------- ---------- ------- -- -------- ----<br>---- --- ------ ----- ------ -- ---- --- ----- -- - -------<br>-------- -- --- --- -- ----- ----------- ----- -----------<br>---- --- ---------- --- ---- --- -- ----------,220389.7799999995,220389.22999999978,220135.955,220138.3049999995,220152.735,220402.601,,9,Congress
screen,html.Screen,2_3_1_0_1_10,2021-04-30T11:57:11.779Z,,,,,,,,,,,,,,,,,51,,,,,,,,,,,,,,443.8589999997639,,response,,,,13,D,,,,,,Space,keypress(Space),,,,silence,,,,-------- -------- --- --- ---- --- --- ------ -- --------<br>over --------- --- ------- ------------ ---------- ---------<br>--- ---------- ------- ---------- ------- -- -------- ----<br>---- --- ------ ----- ------ -- ---- --- ----- -- - -------<br>-------- -- --- --- -- ----- ----------- ----- -----------<br>---- --- ---------- --- ---- --- -- ----------,220847.0499999994,220846.45999999976,220386.258,220389.88999999946,220402.601,220852.599,,10,over
screen,html.Screen,2_3_1_0_1_11,2021-04-30T11:57:12.018Z,,,,,,,,,,,,,,,,,51,,,,,,,,,,,,,,232.67599999945378,,response,,,,13,D,,,,,,Space,keypress(Space),,,,silence,,,,-------- -------- --- --- ---- --- --- ------ -- --------<br>---- reforming --- ------- ------------ ---------- ---------<br>--- ---------- ------- ---------- ------- -- -------- ----<br>---- --- ------ ----- ------ -- ---- --- ----- -- - -------<br>-------- -- --- --- -- ----- ----------- ----- -----------<br>---- --- ---------- --- ---- --- -- ----------,221085.83,221085.27499999944,220835.943,220847.18499999962,220852.599,221102.753,,11,reforming
screen,html.Screen,2_3_1_0_1_12,2021-04-30T11:57:12.279Z,,,,,,,,,,,,,,,,,51,,,,,,,,,,,,,,243.14199999946868,,response,,,,13,D,,,,,,Space,keypress(Space),,,,silence,,,,-------- -------- --- --- ---- --- --- ------ -- --------<br>---- --------- the ------- ------------ ---------- ---------<br>--- ---------- ------- ---------- ------- -- -------- ----<br>---- --- ------ ----- ------ -- ---- --- ----- -- - -------<br>-------- -- --- --- -- ----- ----------- ----- -----------<br>---- --- ---------- --- ---- --- -- ----------,221346.5099999994,221345.89499999947,221086.058,221085.91999999952,221102.753,221352.668,,12,the
screen,html.Screen,2_3_1_0_1_13,2021-04-30T11:57:12.525Z,,,,,,,,,,,,,,,,,51,,,,,,,,,,,,,,239.6469999998808,,response,,,,13,D,,,,,,Space,keypress(Space),,,,silence,,,,-------- -------- --- --- ---- --- --- ------ -- --------<br>---- --------- --- federal ------------ ---------- ---------<br>--- ---------- ------- ---------- ------- -- -------- ----<br>---- --- ------ ----- ------ -- ---- --- ----- -- - -------<br>-------- -- --- --- -- ----- ----------- ----- -----------<br>---- --- ---------- --- ---- --- -- ----------,221592.96499999982,221592.3149999999,221336.432,221346.59999999986,221352.668,221602.629,,13,federal
screen,html.Screen,2_3_1_0_1_14,2021-04-30T11:57:12.990Z,,,,,,,,,,,,,,,,,51,,,,,,,,,,,,,,454.05599999957485,,response,,,,13,D,,,,,,Space,keypress(Space),,,,silence,,,,-------- -------- --- --- ---- --- --- ------ -- --------<br>---- --------- --- ------- government's ---------- ---------<br>--- ---------- ------- ---------- ------- -- -------- ----<br>---- --- ------ ----- ------ -- ---- --- ----- -- - -------<br>-------- -- --- --- -- ----- ----------- ----- -----------<br>---- --- ---------- --- ---- --- -- ----------,222057.24999999983,222056.68499999956,221586.28,221593.0499999995,221602.629,222069.626,,14,government's
screen,html.Screen,2_3_1_0_1_15,2021-04-30T11:57:13.293Z,,,,,,,,,,,,,,,,,51,,,,,,,,,,,,,,290.04899999970803,,response,,,,13,D,,,,,,Space,keypress(Space),,,,silence,,,,-------- -------- --- --- ---- --- --- ------ -- --------<br>---- --------- --- ------- ------------ regulatory ---------<br>--- ---------- ------- ---------- ------- -- -------- ----<br>---- --- ------ ----- ------ -- ---- --- ----- -- - -------<br>-------- -- --- --- -- ----- ----------- ----- -----------<br>---- --- ---------- --- ---- --- -- ----------,222360.20999999982,222359.6749999997,222053.003,222057.33999999939,222069.626,222369.345,,15,regulatory
screen,html.Screen,2_3_1_0_1_16,2021-04-30T11:57:13.704Z,,,,,,,,,,,,,,,,,51,,,,,,,,,,,,,,401.75499999991735,,response,,,,13,D,,,,,,Space,keypress(Space),,,,silence,,,,-------- -------- --- --- ---- --- --- ------ -- --------<br>---- --------- --- ------- ------------ ---------- apparatus<br>--- ---------- ------- ---------- ------- -- -------- ----<br>---- --- ------ ----- ------ -- ---- --- ----- -- - -------<br>-------- -- --- --- -- ----- ----------- ----- -----------<br>---- --- ---------- --- ---- --- -- ----------,222771.45500000007,222771.09999999992,222352.873,222360.2949999995,222369.345,222786.295,,16,apparatus
screen,html.Screen,2_3_1_0_1_17,2021-04-30T11:57:14.085Z,,,,,,,,,,,,,,,,,51,,,,,,,,,,,,,,365.54499999951804,,response,,,,13,D,,,,,,Space,keypress(Space),,,,silence,,,,-------- -------- --- --- ---- --- --- ------ -- --------<br>---- --------- --- ------- ------------ ---------- ---------<br>may ---------- ------- ---------- ------- -- -------- ----<br>---- --- ------ ----- ------ -- ---- --- ----- -- - -------<br>-------- -- --- --- -- ----- ----------- ----- -----------<br>---- --- ---------- --- ---- --- -- ----------,223152.3899999993,223151.83999999953,222769.471,222771.52999999997,222786.295,223169.359,,17,may
screen,html.Screen,2_3_1_0_1_18,2021-04-30T11:57:14.353Z,,,,,,,,,,,,,,,,,51,,,,,,,,,,,,,,250.5509999996284,,response,,,,13,D,,,,,,Space,keypress(Space),,,,silence,,,,-------- -------- --- --- ---- --- --- ------ -- --------<br>---- --------- --- ------- ------------ ---------- ---------<br>--- profoundly ------- ---------- ------- -- -------- ----<br>---- --- ------ ----- ------ -- ---- --- ----- -- - -------<br>-------- -- --- --- -- ----- ----------- ----- -----------<br>---- --- ---------- --- ---- --- -- ----------,223420.4749999999,223419.90999999963,223136.339,223152.47999999975,223169.359,223436.054,,18,profoundly
screen,html.Screen,2_3_1_0_1_19,2021-04-30T11:57:14.595Z,,,,,,,,,,,,,,,,,51,,,,,,,,,,,,,,225.9809999993886,,response,,,,13,D,,,,,,Space,keypress(Space),,,,silence,,,,-------- -------- --- --- ---- --- --- ------ -- --------<br>---- --------- --- ------- ------------ ---------- ---------<br>--- ---------- improve ---------- ------- -- -------- ----<br>---- --- ------ ----- ------ -- ---- --- ----- -- - -------<br>-------- -- --- --- -- ----- ----------- ----- -----------<br>---- --- ---------- --- ---- --- -- ----------,223662.6699999997,223662.0349999994,223419.618,223420.56499999945,223436.054,223669.335,,19,improve
screen,html.Screen,2_3_1_0_1_20,2021-04-30T11:57:14.872Z,,,,,,,,,,,,,,,,,51,,,,,,,,,,,,,,270.03999999994994,,response,,,,13,D,,,,,,Space,keypress(Space),,,,silence,,,,-------- -------- --- --- ---- --- --- ------ -- --------<br>---- --------- --- ------- ------------ ---------- ---------<br>--- ---------- ------- companies' ------- -- -------- ----<br>---- --- ------ ----- ------ -- ---- --- ----- -- - -------<br>-------- -- --- --- -- ----- ----------- ----- -----------<br>---- --- ---------- --- ---- --- -- ----------,223939.8799999999,223939.37499999994,223652.923,223662.80999999982,223669.335,223952.805,,20,companies'
screen,html.Screen,2_3_1_0_1_21,2021-04-30T11:57:15.339Z,,,,,,,,,,,,,,,,,51,,,,,,,,,,,,,,452.94000000003143,,response,,,,13,D,,,,,,Space,keypress(Space),,,,silence,,,,-------- -------- --- --- ---- --- --- ------ -- --------<br>---- --------- --- ------- ------------ ---------- ---------<br>--- ---------- ------- ---------- ability -- -------- ----<br>---- --- ------ ----- ------ -- ---- --- ----- -- - -------<br>-------- -- --- --- -- ----- ----------- ----- -----------<br>---- --- ---------- --- ---- --- -- ----------,224406.30499999953,224405.74500000002,223936.265,223939.96999999945,223952.805,224419.385,,21,ability
screen,html.Screen,2_3_1_0_1_22,2021-04-30T11:57:15.602Z,,,,,,,,,,,,,,,,,51,,,,,,,,,,,,,,249.36499999981606,,response,,,,13,D,,,,,,Space,keypress(Space),,,,silence,,,,-------- -------- --- --- ---- --- --- ------ -- --------<br>---- --------- --- ------- ------------ ---------- ---------<br>--- ---------- ------- ---------- ------- to -------- ----<br>---- --- ------ ----- ------ -- ---- --- ----- -- - -------<br>-------- -- --- --- -- ----- ----------- ----- -----------<br>---- --- ---------- --- ---- --- -- ----------,224669.30499999944,224668.74999999983,224402.925,224406.39499999996,224419.385,224686.138,,22,to
screen,html.Screen,2_3_1_0_1_23,2021-04-30T11:57:15.803Z,,,,,,,,,,,,,,,,,51,,,,,,,,,,,,,,184.41699999952107,,response,,,,13,D,,,,,,Space,keypress(Space),,,,silence,,,,-------- -------- --- --- ---- --- --- ------ -- --------<br>---- --------- --- ------- ------------ ---------- ---------<br>--- ---------- ------- ---------- ------- -- survive. ----<br>---- --- ------ ----- ------ -- ---- --- ----- -- - -------<br>-------- -- --- --- -- ----- ----------- ----- -----------<br>---- --- ---------- --- ---- --- -- ----------,224871.0949999995,224870.55499999953,224669.556,224669.39,224686.138,224886.177,,23,survive.
screen,html.Screen,2_3_1_0_1_24,2021-04-30T11:57:16.217Z,,,,,,,,,,,,,,,,,51,,,,,,,,,,,,,,398.08799999931944,,response,,,,13,D,,,,,,Space,keypress(Space),,,,silence,,,,-------- -------- --- --- ---- --- --- ------ -- --------<br>---- --------- --- ------- ------------ ---------- ---------<br>--- ---------- ------- ---------- ------- -- -------- This<br>---- --- ------ ----- ------ -- ---- --- ----- -- - -------<br>-------- -- --- --- -- ----- ----------- ----- -----------<br>---- --- ---------- --- ---- --- -- ----------,225284.8899999999,225284.26499999932,224869.476,224871.18499999997,224886.177,225309.264,,24,This
screen,html.Screen,2_3_1_0_1_25,2021-04-30T11:57:16.767Z,,,,,,,,,,,,,,,,,51,,,,,,,,,,,,,,524.7709999998624,,response,,,,13,D,,,,,,Space,keypress(Space),,,,silence,,,,-------- -------- --- --- ---- --- --- ------ -- --------<br>---- --------- --- ------- ------------ ---------- ---------<br>--- ---------- ------- ---------- ------- -- -------- ----<br>week --- ------ ----- ------ -- ---- --- ----- -- - -------<br>-------- -- --- --- -- ----- ----------- ----- -----------<br>---- --- ---------- --- ---- --- -- ----------,225834.56999999998,225834.03499999986,225269.263,225285.0249999992,225309.264,225835.985,,25,week
screen,html.Screen,2_3_1_0_1_26,2021-04-30T11:57:16.987Z,,,,,,,,,,,,,,,,,51,,,,,,,,,,,,,,218.00999999931082,,response,,,,13,D,,,,,,Space,keypress(Space),,,,silence,,,,-------- -------- --- --- ---- --- --- ------ -- --------<br>---- --------- --- ------- ------------ ---------- ---------<br>--- ---------- ------- ---------- ------- -- -------- ----<br>---- the ------ ----- ------ -- ---- --- ----- -- - -------<br>-------- -- --- --- -- ----- ----------- ----- -----------<br>---- --- ---------- --- ---- --- -- ----------,226054.47999999978,226053.9949999993,225819.273,225834.65999999954,225835.985,226069.509,,26,the
screen,html.Screen,2_3_1_0_1_27,2021-04-30T11:57:17.194Z,,,,,,,,,,,,,,,,,51,,,,,,,,,,,,,,191.62599999975646,,response,,,,13,D,,,,,,Space,keypress(Space),,,,silence,,,,-------- -------- --- --- ---- --- --- ------ -- --------<br>---- --------- --- ------- ------------ ---------- ---------<br>--- ---------- ------- ---------- ------- -- -------- ----<br>---- --- Senate ----- ------ -- ---- --- ----- -- - -------<br>-------- -- --- --- -- ----- ----------- ----- -----------<br>---- --- ---------- --- ---- --- -- ----------,226261.76999999915,226261.13499999975,226052.612,226054.5749999992,226069.509,226269.264,,27,Senate
screen,html.Screen,2_3_1_0_1_28,2021-04-30T11:57:17.431Z,,,,,,,,,,,,,,,,,51,,,,,,,,,,,,,,229.1909999999334,,response,,,,13,D,,,,,,Space,keypress(Space),,,,silence,,,,-------- -------- --- --- ---- --- --- ------ -- --------<br>---- --------- --- ------- ------------ ---------- ---------<br>--- ---------- ------- ---------- ------- -- -------- ----<br>---- --- ------ seems ------ -- ---- --- ----- -- - -------<br>-------- -- --- --- -- ----- ----------- ----- -----------<br>---- --- ---------- --- ---- --- -- ----------,226499.0799999996,226498.45499999993,226252.705,226261.86999999936,226269.264,226502.594,,28,seems
screen,html.Screen,2_3_1_0_1_29,2021-04-30T11:57:17.811Z,,,,,,,,,,,,,,,,,51,,,,,,,,,,,,,,375.4909999993688,,response,,,,13,D,,,,,,Space,keypress(Space),,,,silence,,,,-------- -------- --- --- ---- --- --- ------ -- --------<br>---- --------- --- ------- ------------ ---------- ---------<br>--- ---------- ------- ---------- ------- -- -------- ----<br>---- --- ------ ----- poised -- ---- --- ----- -- - -------<br>-------- -- --- --- -- ----- ----------- ----- -----------<br>---- --- ---------- --- ---- --- -- ----------,226878.62999999925,226878.08499999938,226486.24,226499.21999999968,226502.594,226885.981,,29,poised
screen,html.Screen,2_3_1_0_1_30,2021-04-30T11:57:18.300Z,,,,,,,,,,,,,,,,,51,,,,,,,,,,,,,,481.10399999984656,,response,,,,13,D,,,,,,Space,keypress(Space),,,,silence,,,,-------- -------- --- --- ---- --- --- ------ -- --------<br>---- --------- --- ------- ------------ ---------- ---------<br>--- ---------- ------- ---------- ------- -- -------- ----<br>---- --- ------ ----- ------ to ---- --- ----- -- - -------<br>-------- -- --- --- -- ----- ----------- ----- -----------<br>---- --- ---------- --- ---- --- -- ----------,227367.62499999985,227367.08499999985,226869.541,226878.7199999997,226885.981,227393.759,,30,to
screen,html.Screen,2_3_1_0_1_31,2021-04-30T11:57:18.850Z,,,,,,,,,,,,,,,,,51,,,,,,,,,,,,,,522.8509999993257,,response,,,,13,D,,,,,,Space,keypress(Space),,,,silence,,,,-------- -------- --- --- ---- --- --- ------ -- --------<br>---- --------- --- ------- ------------ ---------- ---------<br>--- ---------- ------- ---------- ------- -- -------- ----<br>---- --- ------ ----- ------ -- join --- ----- -- - -------<br>-------- -- --- --- -- ----- ----------- ----- -----------<br>---- --- ---------- --- ---- --- -- ----------,227917.2749999998,227916.60999999932,227352.69,227367.99499999962,227393.759,227919.276,,31,join
screen,html.Screen,2_3_1_0_1_32,2021-04-30T11:57:19.066Z,,,,,,,,,,,,,,,,,51,,,,,,,,,,,,,,213.10399999999208,,response,,,,13,D,,,,,,Space,keypress(Space),,,,silence,,,,-------- -------- --- --- ---- --- --- ------ -- --------<br>---- --------- --- ------- ------------ ---------- ---------<br>--- ---------- ------- ---------- ------- -- -------- ----<br>---- --- ------ ----- ------ -- ---- the ----- -- - -------<br>-------- -- --- --- -- ----- ----------- ----- -----------<br>---- --- ---------- --- ---- --- -- ----------,228133.17999999982,228132.38,227902.601,227917.4349999994,227919.276,228135.912,,32,the
screen,html.Screen,2_3_1_0_1_33,2021-04-30T11:57:19.255Z,,,,,,,,,,,,,,,,,51,,,,,,,,,,,,,,185.91299999997136,,response,,,,13,D,,,,,,Space,keypress(Space),,,,silence,,,,-------- -------- --- --- ---- --- --- ------ -- --------<br>---- --------- --- ------- ------------ ---------- ---------<br>--- ---------- ------- ---------- ------- -- -------- ----<br>---- --- ------ ----- ------ -- ---- --- House -- - -------<br>-------- -- --- --- -- ----- ----------- ----- -----------<br>---- --- ---------- --- ---- --- -- ----------,228322.31499999942,228321.82499999998,228119.534,228133.2599999996,228135.912,228336.221,,33,House
screen,html.Screen,2_3_1_0_1_34,2021-04-30T11:57:19.456Z,,,,,,,,,,,,,,,,,51,,,,,,,,,,,,,,186.91899999932502,,response,,,,13,D,,,,,,Space,keypress(Space),,,,silence,,,,-------- -------- --- --- ---- --- --- ------ -- --------<br>---- --------- --- ------- ------------ ---------- ---------<br>--- ---------- ------- ---------- ------- -- -------- ----<br>---- --- ------ ----- ------ -- ---- --- ----- in - -------<br>-------- -- --- --- -- ----- ----------- ----- -----------<br>---- --- ---------- --- ---- --- -- ----------,228523.67999999932,228523.13999999932,228319.279,228322.39499999923,228336.221,228536.287,,34,in
screen,html.Screen,2_3_1_0_1_35,2021-04-30T11:57:19.786Z,,,,,,,,,,,,,,,,,51,,,,,,,,,,,,,,316.8179999992135,,response,,,,13,D,,,,,,Space,keypress(Space),,,,silence,,,,-------- -------- --- --- ---- --- --- ------ -- --------<br>---- --------- --- ------- ------------ ---------- ---------<br>--- ---------- ------- ---------- ------- -- -------- ----<br>---- --- ------ ----- ------ -- ---- --- ----- -- a -------<br>-------- -- --- --- -- ----- ----------- ----- -----------<br>---- --- ---------- --- ---- --- -- ----------,228853.6299999996,228853.10499999922,228519.454,228523.7649999999,228536.287,228869.612,,35,a
screen,html.Screen,2_3_1_0_1_36,2021-04-30T11:57:20.064Z,,,,,,,,,,,,,,,,,51,,,,,,,,,,,,,,261.137999999366,,response,,,,13,D,,,,,,Space,keypress(Space),,,,silence,,,,-------- -------- --- --- ---- --- --- ------ -- --------<br>---- --------- --- ------- ------------ ---------- ---------<br>--- ---------- ------- ---------- ------- -- -------- ----<br>---- --- ------ ----- ------ -- ---- --- ----- -- - massive<br>-------- -- --- --- -- ----- ----------- ----- -----------<br>---- --- ---------- --- ---- --- -- ----------,229131.2399999997,229130.74999999936,228852.65,228853.73999999955,228869.612,229135.908,,36,massive
screen,html.Screen,2_3_1_0_1_37,2021-04-30T11:57:20.373Z,,,,,,,,,,,,,,,,,51,,,,,,,,,,,,,,304.17699999926845,,response,,,,13,D,,,,,,Space,keypress(Space),,,,silence,,,,-------- -------- --- --- ---- --- --- ------ -- --------<br>---- --------- --- ------- ------------ ---------- ---------<br>--- ---------- ------- ---------- ------- -- -------- ----<br>---- --- ------ ----- ------ -- ---- --- ----- -- - -------<br>overhaul -- --- --- -- ----- ----------- ----- -----------<br>---- --- ---------- --- ---- --- -- ----------,229440.6199999994,229440.08499999926,229119.556,229131.35499999952,229135.908,229452.645,,37,overhaul
